"exp","ver","sub","experimenter","blocktyp","sess","trial","trial_time","trial_type","t1_level","t2_level","lag","t2_lag","global_letters","local_letters","t1_pos","t1","t1_corr","t1_resp","t1_acc","t2","t2_corr","t2_resp","t2_acc","t1_rt","t2_rt"
"RSVPLG02",2.1,401,"DN","Experiment",1,1,"2024-09-24_11h16.47.432","warmup","global","global",750,5,"FAZSUMLPHYEN","FNCELUMPAZYT",4,"S","sS","s",1,"H","hH","h",1,1.11594079999486,0.422376900009112
"RSVPLG02",2.1,401,"DN","Experiment",1,2,"2024-09-24_11h17.00.375","warmup","local","global",300,2,"XPYMFEASNUCL","FMUCZHPNEYLX",6,"H","hH","h",1,"S","sS","s",1,0.80763530000695,0.231683699996211
"RSVPLG02",2.1,401,"DN","Experiment",1,3,"2024-09-24_11h17.06.974","warmup","global","local",300,2,"FTPXSANYLEZM","XEZACNSTYPFM",5,"S","sS","s",1,"S","sS","s",1,3.18054689999553,0.152808999991976
"RSVPLG02",2.1,401,"DN","Experiment",1,4,"2024-09-24_11h17.16.892","warmup","local","local",300,2,"MCPZEXAYFULT","FPTCUHLHAEXZ",6,"H","hH","h",1,"H","hH","h",1,1.75703849999991,0.105124199995771
"RSVPLG02",2.1,401,"DN","Experiment",1,5,"2024-09-24_11h17.24.201","warmup","global","local",750,5,"FLAHEYCXMTNZ","FLEYXNZCSUMT",4,"H","hH","h",1,"S","sS","s",1,1.15985779999755,0.136241100000916
"RSVPLG02",2.1,401,"DN","Experiment",1,6,"2024-09-24_11h17.30.843","exp","global","global",300,2,"YFEASMSNPUZT","YLTAPNCUMFXE",5,"S","sS","s",1,"S","sS","s",1,1.39720930000476,0.0881492000044091
"RSVPLG02",2.1,401,"DN","Experiment",1,7,"2024-09-24_11h17.37.579","exp","global","local",750,5,"MPYESUFCNLTZ","MLCYTZEUAHPF",5,"S","sS","s",1,"H","hH","h",1,2.18056809999689,0.297186099996907
"RSVPLG02",2.1,401,"DN","Experiment",1,8,"2024-09-24_11h17.45.661","exp","local","local",750,5,"ZENPTAXMCFLU","LXUHEYMFHCAN",4,"H","hH","s",0,"H","hH","h",1,1.26830949999567,0.264798500007601
"RSVPLG02",2.1,401,"DN","Experiment",1,9,"2024-09-24_11h17.52.396","exp","local","global",300,2,"YTAFMXSUNZLE","PEMFSNTYXAUC",5,"S","sS","s",1,"S","sS","s",1,2.99510170001304,0.0882332999899518
"RSVPLG02",2.1,401,"DN","Experiment",1,10,"2024-09-24_11h18.00.746","exp","local","local",300,2,"PLFCYMAUTZNX","MLNPSASCFUET",5,"S","sS","s",1,"S","sS","h",0,1.37844689999474,1.48032329999842
"RSVPLG02",2.1,401,"DN","Experiment",1,11,"2024-09-24_11h18.08.825","exp","local","global",750,5,"NAPYFXZCTSML","LUPNSATFCYZX",5,"S","sS","s",1,"S","sS","h",0,1.13557859999128,0.232305600002292
"RSVPLG02",2.1,401,"DN","Experiment",1,12,"2024-09-24_11h18.15.738","exp","local","local",300,2,"TFXAMCUYNLEP","CEATHUSZNLPX",5,"H","hH","h",1,"S","sS","h",0,0.976721999992151,0.0561104000080377
"RSVPLG02",2.1,401,"DN","Experiment",1,13,"2024-09-24_11h18.22.349","exp","local","global",750,5,"ZTUCLAMPFSNX","PCXMHFTYLZAN",5,"H","hH","h",1,"S","sS","h",0,0.993122700005188,0.024664099997608
"RSVPLG02",2.1,401,"DN","Experiment",1,14,"2024-09-24_11h18.28.763","exp","global","local",750,5,"MUTHXYCANPLF","ECPUNLTZSXAY",4,"H","hH","h",1,"S","sS","s",1,2.96378490001371,0.169161500001792
"RSVPLG02",2.1,401,"DN","Experiment",1,15,"2024-09-24_11h18.37.276","exp","local","global",750,5,"TPEFXZYALHNC","ETFYSNXUPZAM",5,"S","sS","s",1,"H","hH","h",1,1.21002119999321,0.488217999998596
"RSVPLG02",2.1,401,"DN","Experiment",1,16,"2024-09-24_11h18.44.092","exp","local","local",750,5,"UXFLZCENAMTP","XLCHUYMAHETP",4,"H","hH","h",1,"H","hH","h",1,0.861550300003728,0.103153999996721
"RSVPLG02",2.1,401,"DN","Experiment",1,17,"2024-09-24_11h18.50.237","exp","local","local",300,2,"TUPFZANXYCML","LXNSYHAEZFTM",4,"S","sS","s",1,"H","hH","h",1,0.805284100002609,0.312565000000177
"RSVPLG02",2.1,401,"DN","Experiment",1,18,"2024-09-24_11h18.57.002","exp","global","local",750,5,"FZYSMXNUATLE","YTCNEPAZSFML",4,"S","sS","s",1,"S","sS","s",1,1.14594639999268,0.0246314000105485
"RSVPLG02",2.1,401,"DN","Experiment",1,19,"2024-09-24_11h19.03.612","exp","global","global",750,5,"ENUTASXLCYSM","CPTFUXNEMZYA",6,"S","sS","s",1,"S","sS","h",0,1.59108329999435,0.185145499999635
"RSVPLG02",2.1,401,"DN","Experiment",1,20,"2024-09-24_11h19.11.276","exp","global","global",300,2,"TXULYHMHFPNE","FNUELYXCZATP",6,"H","hH","h",1,"H","hH","s",0,2.21207150000555,0.153013300005114
"RSVPLG02",2.1,401,"DN","Experiment",1,21,"2024-09-24_11h19.19.404","exp","local","local",750,5,"LAZETCPYFUXN","NLXHAPFMSCZE",4,"H","hH","h",1,"S","sS","s",1,0.7603334000014,0.265117099988856
"RSVPLG02",2.1,401,"DN","Experiment",1,22,"2024-09-24_11h19.28.111","exp","global","local",750,5,"FLYPXSCATUZM","FLNPZXEUCAHM",6,"S","sS","s",1,"H","hH","h",1,2.72060479999345,0.264844299992546
"RSVPLG02",2.1,401,"DN","Experiment",1,23,"2024-09-24_11h19.36.399","exp","local","global",750,5,"LXNMATYCPHFE","MCUZHTXLEPFY",5,"H","hH","h",1,"H","hH","h",1,3.07469219999621,0.0408869000093546
"RSVPLG02",2.1,401,"DN","Experiment",1,24,"2024-09-24_11h19.44.861","exp","global","global",300,2,"NYPLESTSFUMZ","CFUENMTAZYPL",6,"S","sS","h",0,"S","sS","s",1,3.28081370001019,2.79194530000677
"RSVPLG02",2.1,401,"DN","Experiment",1,25,"2024-09-24_11h19.56.239","exp","local","local",300,2,"LMCZUYFXTAEN","XALSTSYFMPNE",4,"S","sS","s",1,"S","sS","s",1,0.813230900006602,0.0553443999961019
"RSVPLG02",2.1,401,"DN","Experiment",1,26,"2024-09-24_11h20.03.582","exp","local","local",300,2,"MEUCLTFAPXYN","NEMHPHZUXYAL",4,"H","hH","h",1,"H","hH","h",1,0.533950700002606,0.104707799997414
"RSVPLG02",2.1,401,"DN","Experiment",1,27,"2024-09-24_11h20.09.758","exp","global","global",300,2,"FPTZSLSUCMYX","FMYELUAZNCXP",5,"S","sS","h",0,"S","sS","h",0,0.88446390000172,0.0566470000048866
"RSVPLG02",2.1,401,"DN","Experiment",1,28,"2024-09-24_11h20.16.428","exp","global","global",300,2,"UPTHEHLMNAYZ","UZATFPXYLCEM",4,"H","hH","h",1,"H","hH","s",0,0.910354499996174,0.172230700001819
"RSVPLG02",2.1,401,"DN","Experiment",1,29,"2024-09-24_11h20.22.908","exp","local","global",750,5,"UYLNMTZFASXC","NYXTSZCALPFM",5,"S","sS","s",1,"S","sS","s",1,1.87890979999793,0.0253577999974368
"RSVPLG02",2.1,401,"DN","Experiment",1,30,"2024-09-24_11h20.30.078","exp","local","local",300,2,"FEAMXPLCTUNY","LXAZPHYHECMT",6,"H","hH","h",1,"H","hH","h",1,0.654326700008824,0.072603499997058
"RSVPLG02",2.1,401,"DN","Experiment",1,31,"2024-09-24_11h20.35.868","exp","global","local",300,2,"FMZSXUTECPNA","FUNCPSTZYELM",4,"S","sS","s",1,"S","sS","s",1,1.39229139999952,0.0088192999974126
"RSVPLG02",2.1,401,"DN","Experiment",1,32,"2024-09-24_11h20.45.096","exp","local","global",300,2,"YUELAMHXFZTN","TALNSZCXYEFU",5,"S","sS","s",1,"H","hH","h",1,0.808144000009634,0.28057770000305
"RSVPLG02",2.1,401,"DN","Experiment",1,33,"2024-09-24_11h20.51.406","exp","local","local",750,5,"YZFLAMTXEPNU","TMPHCEXUSNAY",4,"H","hH","h",1,"S","sS","s",1,0.824130399996648,0.296638100000564
"RSVPLG02",2.1,401,"DN","Experiment",1,34,"2024-09-24_11h20.57.853","exp","local","global",750,5,"XUNCTMZLPESY","MCPFESZTNYAX",6,"S","sS","s",1,"S","sS","h",0,1.75859460000356,0.248624800005928
"RSVPLG02",2.1,401,"DN","Experiment",1,35,"2024-09-24_11h21.05.358","exp","global","local",750,5,"LZPYESXCUNAM","AFTENPMZLXHU",6,"S","sS","s",1,"H","hH","h",1,1.2302711999946,0.33193110000866
"RSVPLG02",2.1,401,"DN","Experiment",1,36,"2024-09-24_11h21.12.240","exp","global","local",300,2,"ZLANPHYFTCEX","UEFAPYMHZLXC",6,"H","hH","h",1,"H","hH","s",0,2.13071169999603,0.152531599989743
"RSVPLG02",2.1,401,"DN","Experiment",1,37,"2024-09-24_11h21.19.921","exp","global","local",750,5,"MNYZXSFUALTE","PCEMTLNXFUHA",6,"S","sS","s",1,"H","hH","h",1,1.27866269998776,0.313025299998117
"RSVPLG02",2.1,401,"DN","Experiment",1,38,"2024-09-24_11h21.26.865","exp","global","local",300,2,"UNZSYPAFXELT","MLTEUHPXCYNF",4,"S","sS","s",1,"H","hH","h",1,0.824451599997701,0.343828299999586
"RSVPLG02",2.1,401,"DN","Experiment",1,39,"2024-09-24_11h21.33.517","exp","local","global",300,2,"EFLZPMHATXUC","NZCLSUMATYPX",5,"S","sS","s",1,"H","hH","s",0,0.960180199996103,1.25572449999163
"RSVPLG02",2.1,401,"DN","Experiment",1,40,"2024-09-24_11h21.41.633","exp","local","global",300,2,"ZUNLACSYMFPT","LAXZSFTMCEPY",5,"S","sS","s",1,"S","sS","s",1,0.956022600003053,0.00806780000857543
"RSVPLG02",2.1,401,"DN","Experiment",1,41,"2024-09-24_11h21.56.665","exp","global","local",300,2,"AFTHXCNYEMZP","ZXUMASTCFNLY",4,"H","hH","h",1,"S","sS","h",0,1.06247820000863,0.0402410999959102
"RSVPLG02",2.1,401,"DN","Experiment",1,42,"2024-09-24_11h22.03.407","exp","local","local",300,2,"MYNEZUPALFTX","ATPFMHZHYLEC",6,"H","hH","h",1,"H","hH","h",1,0.731183600000804,0.0878407999989577
"RSVPLG02",2.1,401,"DN","Experiment",1,43,"2024-09-24_11h22.09.621","exp","global","local",300,2,"AFNESPZUMLTX","FNXTAUSYLEPZ",5,"S","sS","s",1,"S","sS","s",1,0.860674700001255,0.0428971999936039
"RSVPLG02",2.1,401,"DN","Experiment",1,44,"2024-09-24_11h22.15.424","exp","local","global",750,5,"EALFNCXMYTHZ","YPANTSELUZXF",6,"S","sS","s",1,"H","hH","h",1,1.0589817,0.296479800002999
"RSVPLG02",2.1,401,"DN","Experiment",1,45,"2024-09-24_11h22.21.633","exp","local","global",750,5,"ZYEUNMFCAHTL","UCXASTLEYFPN",5,"S","sS","s",1,"H","hH","h",1,1.18832999998995,0.334666399998241
"RSVPLG02",2.1,401,"DN","Experiment",1,46,"2024-09-24_11h22.28.265","exp","local","global",300,2,"ANULZYTHFXMC","ZPCAYHTELFXM",6,"H","hH","h",1,"H","hH","s",0,0.863377700006822,1.27182229999744
"RSVPLG02",2.1,401,"DN","Experiment",1,47,"2024-09-24_11h22.35.713","exp","global","local",750,5,"UMLNCHTXEPYA","CLUTPXAEZMHN",6,"H","hH","h",1,"H","hH","h",1,0.673775700008264,0.0567872999963583
"RSVPLG02",2.1,401,"DN","Experiment",1,48,"2024-09-24_11h22.42.737","exp","local","global",750,5,"TLUNZYAMHXPC","MLZSXCNYFPAT",4,"S","sS","s",1,"H","hH","h",1,1.01021700000274,1.20739860000322
"RSVPLG02",2.1,401,"DN","Experiment",1,49,"2024-09-24_11h22.50.819","exp","global","global",750,5,"YNFSTXLAHUEZ","YFLMAZEXTUNC",4,"S","sS","s",1,"H","hH","h",1,1.09198709999328,1.43443710000429
"RSVPLG02",2.1,401,"DN","Experiment",1,50,"2024-09-24_11h22.59.072","exp","local","global",300,2,"FULAXYTSEZCN","AEPLMSZNFUXY",6,"S","sS","s",1,"S","sS","s",1,0.991965299996082,0.0256151000066893
"RSVPLG02",2.1,401,"DN","Experiment",1,51,"2024-09-24_11h23.05.537","exp","local","local",300,2,"MCUNZAPYTLXE","YTASPHXENZMF",4,"S","sS","s",1,"H","hH","h",1,0.701639199993224,0.0231299000006402
"RSVPLG02",2.1,401,"DN","Experiment",1,52,"2024-09-24_11h23.17.348","exp","local","local",750,5,"PAMCUTZEXYNF","LCESTMYAHUXZ",4,"S","sS","s",1,"H","hH","h",1,0.989828000005218,0.142218900000444
"RSVPLG02",2.1,401,"DN","Experiment",1,53,"2024-09-24_11h23.23.857","exp","global","local",750,5,"NFTZUHYECALM","XPTYMAFNELSC",6,"H","hH","h",1,"S","sS","s",1,1.40492330001143,0.505131700003403
"RSVPLG02",2.1,401,"DN","Experiment",1,54,"2024-09-24_11h23.31.103","exp","local","local",750,5,"ZUAFTNLYCPEM","TACHFPXLHZUM",4,"H","hH","h",1,"H","hH","h",1,0.638089700005366,0.361172200005967
"RSVPLG02",2.1,401,"DN","Experiment",1,55,"2024-09-24_11h23.37.665","exp","local","global",750,5,"EUTFPXYZMHNL","AYMFHNTXZUCP",5,"H","hH","h",1,"H","hH","h",1,0.988582799996948,0.184532799990848
"RSVPLG02",2.1,401,"DN","Experiment",1,56,"2024-09-24_11h23.44.290","exp","local","local",300,2,"MPLETZNYUCXA","XNFECHASULPY",6,"H","hH","h",1,"S","sS","s",1,0.738865499995882,0.0133765999926254
"RSVPLG02",2.1,401,"DN","Experiment",1,57,"2024-09-24_11h23.50.386","exp","local","local",300,2,"PYLXNUTEZMFC","ZNTAEHMHLFXU",6,"H","hH","h",1,"H","hH","h",1,0.640342600003351,0.264209100001608
"RSVPLG02",2.1,401,"DN","Experiment",1,58,"2024-09-24_11h23.57.092","exp","global","local",750,5,"YTUSPFZALMCX","LEPZMYCUSTAX",4,"S","sS","s",1,"S","sS","h",0,1.29686370000127,0.568316899996717
"RSVPLG02",2.1,401,"DN","Experiment",1,59,"2024-09-24_11h24.04.653","exp","global","global",300,2,"CMZSASFXTYUE","EZPFXLCAMYTU",4,"S","sS","h",0,"S","sS","s",1,0.889478900004178,0.632647999998881
"RSVPLG02",2.1,401,"DN","Experiment",1,60,"2024-09-24_11h24.11.393","exp","global","global",300,2,"EAXFHUSTPCMY","ZNXFPCULYEMT",5,"H","hH","h",1,"S","sS","h",0,0.712521199995535,0.119775499988464
"RSVPLG02",2.1,401,"DN","Experiment",1,61,"2024-09-24_11h24.17.636","exp","global","local",750,5,"NATCESUXMYPF","PMTNYACUXESF",6,"S","sS","s",1,"S","sS","s",1,1.8057184000063,0.0882610999979079
"RSVPLG02",2.1,401,"DN","Experiment",1,62,"2024-09-24_11h24.24.932","exp","local","global",300,2,"CZMNPEHLYXAU","TYUAHLZFXPMN",5,"H","hH","h",1,"H","hH","s",0,1.31167450000066,0.61578659999941
"RSVPLG02",2.1,401,"DN","Experiment",1,63,"2024-09-24_11h24.32.287","exp","local","local",300,2,"ZTLCYXEUFMNP","MCUXSNSLEFYT",5,"S","sS","s",1,"S","sS","s",1,0.477580400009174,0.0722370000003139
"RSVPLG02",2.1,401,"DN","Experiment",1,64,"2024-09-24_11h24.38.369","exp","global","global",300,2,"LEUXHMSTAFNZ","UTCAFLMEPXZY",5,"H","hH","h",1,"S","sS","s",1,0.494131600004039,0.0721038999909069
"RSVPLG02",2.1,401,"DN","Experiment",1,65,"2024-09-24_11h24.44.259","exp","local","global",300,2,"UYNEFLZHCPTA","YUTFCHPEZNXM",6,"H","hH","h",1,"H","hH","h",1,0.672779700005776,0.0785241999983555
"RSVPLG02",2.1,401,"DN","Experiment",1,66,"2024-09-24_11h24.50.595","exp","global","global",300,2,"LZEAHUHNTPMC","ATNXCYPLFEUZ",5,"H","hH","h",1,"H","hH","h",1,1.15263609999965,0.135700600003474
"RSVPLG02",2.1,401,"DN","Experiment",1,67,"2024-09-24_11h24.57.267","exp","global","global",750,5,"EZACSMNTLHUP","MPEATUNZLCYX",5,"S","sS","h",0,"H","hH","h",1,0.686719699995592,0.0888116999994963
"RSVPLG02",2.1,401,"DN","Experiment",1,68,"2024-09-24_11h25.03.353","exp","global","global",300,2,"ZNAHESPXTLCY","ATPEMFZNYCLX",4,"H","hH","h",1,"S","sS","s",1,0.325092500002938,0.0440323999937391
"RSVPLG02",2.1,401,"DN","Experiment",1,69,"2024-09-24_11h25.09.121","exp","local","local",750,5,"ZENLAXCMUPTY","AUNHZPTESYXC",4,"H","hH","h",1,"S","sS","s",1,0.736117299995385,0.2975843000022
"RSVPLG02",2.1,401,"DN","Experiment",1,70,"2024-09-24_11h25.15.905","exp","local","local",750,5,"MAXCTPLFNZUE","MZXTHEUFAHPN",5,"H","hH","h",1,"H","hH","h",1,0.709925200004363,0.231953599999542
"RSVPLG02",2.1,401,"DN","Experiment",1,71,"2024-09-24_11h25.22.339","exp","global","global",300,2,"FYPSAHZCLTNE","ZUETFNLYXAPC",4,"S","sS","h",0,"H","hH","s",0,1.31902069998614,1.67128500000399
"RSVPLG02",2.1,401,"DN","Experiment",1,72,"2024-09-24_11h25.30.660","exp","global","local",750,5,"MPLSUCZTXEAF","ECNFXMUTSLPY",4,"S","sS","h",0,"S","sS","s",1,1.57507929998974,0.150637500002631
"RSVPLG02",2.1,401,"DN","Experiment",1,73,"2024-09-24_11h25.38.434","exp","local","global",300,2,"ETXACHYLPMFU","MYFHCNTELAXZ",4,"H","hH","h",1,"H","hH","h",1,0.883073999997578,0.137521299999207
"RSVPLG02",2.1,401,"DN","Experiment",1,74,"2024-09-24_11h25.44.660","exp","local","global",750,5,"PUCFAYTLENHM","YZEUXSPNFMLT",6,"S","sS","s",1,"H","hH","h",1,1.35890320000181,0.0254682999948272
"RSVPLG02",2.1,401,"DN","Experiment",1,75,"2024-09-24_11h25.51.331","exp","global","local",750,5,"UMPETHYZXLFN","ZMNUCLAPFTHX",6,"H","hH","h",1,"H","hH","s",0,1.31833229999756,0.0911020999919856
"RSVPLG02",2.1,401,"DN","Experiment",1,76,"2024-09-24_11h25.58.244","exp","global","global",750,5,"LAFMZHTCPNSE","FPEZULNCMXYA",6,"H","hH","h",1,"S","sS","s",1,1.20625580000342,0.63314309999987
"RSVPLG02",2.1,401,"DN","Experiment",1,77,"2024-09-24_11h26.05.557","exp","global","global",750,5,"FCNTHUZPXSAL","TPAEYCNMLXZU",5,"H","hH","s",0,"S","sS","h",0,3.13127120000718,0.086830899992492
"RSVPLG02",2.1,401,"DN","Experiment",1,78,"2024-09-24_11h26.14.182","exp","local","local",300,2,"EXLATZMUPYNC","NPLSZHTEMAUX",4,"S","sS","s",1,"H","hH","h",1,0.67087210000318,0.360706400009803
"RSVPLG02",2.1,401,"DN","Experiment",1,79,"2024-09-24_11h26.22.115","exp","local","local",750,5,"UAPZLEYMTXCN","CAUFEHTYZPSX",6,"H","hH","h",1,"S","sS","s",1,0.769828700009384,0.457039600005373
"RSVPLG02",2.1,401,"DN","Experiment",1,80,"2024-09-24_11h26.29.938","exp","local","global",300,2,"ETAXNCSPFYUM","MFETSNCYLZXU",5,"S","sS","s",1,"S","sS","s",1,0.799288900001557,0.151136700005736
"RSVPLG02",2.1,401,"DN","Experiment",1,81,"2024-09-24_11h26.56.285","exp","local","local",750,5,"CETYUXAZLFMP","NUFZHMPEXHAY",5,"H","hH","h",1,"H","hH","h",1,0.632327100000111,0.0402993000025162
"RSVPLG02",2.1,401,"DN","Experiment",1,82,"2024-09-24_11h27.04.353","exp","local","global",750,5,"YNMXTPUZACSL","PUFLNSCTYXEA",6,"S","sS","s",1,"S","sS","s",1,1.26937769999495,0.152184199992917
"RSVPLG02",2.1,401,"DN","Experiment",1,83,"2024-09-24_11h27.11.301","exp","global","global",750,5,"ENUAHTFYXSLC","TLMFUCPAZNXY",5,"H","hH","h",1,"S","sS","h",0,0.864634600002319,0.073055499990005
"RSVPLG02",2.1,401,"DN","Experiment",1,84,"2024-09-24_11h27.17.667","exp","global","local",300,2,"NXFYCHPUMZEL","NUMYEXLSZCTF",6,"H","hH","s",0,"S","sS","h",0,1.14343430000008,0.839746199999354
"RSVPLG02",2.1,401,"DN","Experiment",1,85,"2024-09-24_11h27.25.298","exp","global","global",750,5,"TMXHAULPSNEC","XPEMAUYCTFNL",4,"H","hH","h",1,"S","sS","s",1,1.64662830000452,0.00826469999446999
"RSVPLG02",2.1,401,"DN","Experiment",1,86,"2024-09-24_11h27.32.867","exp","global","global",750,5,"ZTAHPNMUSFLY","NMXPEUCFZATY",4,"H","hH","h",1,"S","sS","s",1,0.595719000004465,0.201142300007632
"RSVPLG02",2.1,401,"DN","Experiment",1,87,"2024-09-24_11h27.39.315","exp","local","global",300,2,"ELCYMTSZAFPN","FAMNHLUTXZEP",5,"H","hH","h",1,"S","sS","s",1,0.499698499988881,0.424298800004181
"RSVPLG02",2.1,401,"DN","Experiment",1,88,"2024-09-24_11h27.45.429","exp","global","global",750,5,"MXZECSYNUTHF","YCEPFAZMTUNL",6,"S","sS","s",1,"H","hH","h",1,1.01738679999835,0.298010099999374
"RSVPLG02",2.1,401,"DN","Experiment",1,89,"2024-09-24_11h27.52.048","exp","local","global",750,5,"UPFLAYXMHTNZ","APFSMXUTZYLN",4,"S","sS","s",1,"H","hH","h",1,0.922837599995546,0.248110000000452
"RSVPLG02",2.1,401,"DN","Experiment",1,90,"2024-09-24_11h27.58.373","exp","local","local",750,5,"NEFUCYZATLXM","LFTPSAMUYSEC",5,"S","sS","s",1,"S","sS","s",1,0.502304800000275,0.535139300001902
"RSVPLG02",2.1,401,"DN","Experiment",1,91,"2024-09-24_11h28.05.046","exp","global","global",300,2,"EPZLUHTSXAYM","YMZLPFNUXATC",6,"H","hH","h",1,"S","sS","h",0,1.97768599999836,0.0725403999967966
"RSVPLG02",2.1,401,"DN","Experiment",1,92,"2024-09-24_11h28.12.307","exp","local","global",300,2,"LNMYFEHUZTXC","UPNZHLCYMTFX",5,"H","hH","h",1,"H","hH","h",1,0.737899400002789,0.103801100005512
"RSVPLG02",2.1,401,"DN","Experiment",1,93,"2024-09-24_11h28.18.568","exp","global","local",300,2,"YCNHLFMEPXUA","XYFMASCLZPTN",4,"H","hH","h",1,"S","sS","s",1,1.10725499999535,0.152138299992657
"RSVPLG02",2.1,401,"DN","Experiment",1,94,"2024-09-24_11h28.24.980","exp","local","local",300,2,"PUZYFXMCTEAL","TUXFHMSECNAY",5,"H","hH","h",1,"S","sS","s",1,0.47121019999031,0.119667700011632
"RSVPLG02",2.1,401,"DN","Experiment",1,95,"2024-09-24_11h28.32.053","exp","local","global",750,5,"NYLTFXUPESMZ","TECPSMYNAUXZ",5,"S","sS","s",1,"S","sS","h",0,0.919152100002975,0.264646800002083
"RSVPLG02",2.1,401,"DN","Experiment",1,96,"2024-09-24_11h28.38.424","exp","global","global",300,2,"MAXYZHESLNCP","EYXMLCTPZNUF",6,"H","hH","h",1,"S","sS","h",0,0.764748499990674,0.0253308999963338
"RSVPLG02",2.1,401,"DN","Experiment",1,97,"2024-09-24_11h28.44.453","exp","local","global",300,2,"CFZLXENSAMPU","MUCTNHLFXPYA",6,"H","hH","h",1,"S","sS","s",1,0.982772200004547,0.109338800000842
"RSVPLG02",2.1,401,"DN","Experiment",1,98,"2024-09-24_11h28.50.687","exp","global","local",300,2,"AFTHMNCPYEXU","CNZPEHAMUYFX",4,"H","hH","h",1,"H","hH","h",1,0.582899300003191,0.0733562000095844
"RSVPLG02",2.1,401,"DN","Experiment",1,99,"2024-09-24_11h29.03.190","exp","global","global",750,5,"YTEHUPZCHMXF","AZLPUXMFTEYC",4,"H","hH","s",0,"H","hH","h",1,0.722261700007948,0.135124299995368
"RSVPLG02",2.1,401,"DN","Experiment",1,100,"2024-09-24_11h29.09.608","exp","local","local",300,2,"NMCXYZLAUTFE","XMUNSYHTPEZA",5,"S","sS","s",1,"H","hH","h",1,0.451848700002301,0.120388100011041
"RSVPLG02",2.1,401,"DN","Experiment",1,101,"2024-09-24_11h29.15.459","exp","local","local",300,2,"LTEXCZUYNAPM","AMEYHZHNTUFL",5,"H","hH","h",1,"H","hH","h",1,0.448632999992697,0.13536019998719
"RSVPLG02",2.1,401,"DN","Experiment",1,102,"2024-09-24_11h29.21.207","exp","global","global",300,2,"PEULSNSXFAMC","MYLAFUPECTXZ",5,"S","sS","h",0,"S","sS","s",1,0.765521799999988,0.0117102999938652
"RSVPLG02",2.1,401,"DN","Experiment",1,103,"2024-09-24_11h29.27.079","exp","global","global",750,5,"UXMFCHTAYZSP","EXNPUFMATLYC",6,"H","hH","s",0,"S","sS","h",0,0.946781399994507,0.856705500002136
"RSVPLG02",2.1,401,"DN","Experiment",1,104,"2024-09-24_11h29.34.439","exp","local","local",300,2,"PEAFYLZNTUCM","CXLHEHMZTUNY",4,"H","hH","h",1,"H","hH","h",1,0.700511299990467,0.0724000000045635
"RSVPLG02",2.1,401,"DN","Experiment",1,105,"2024-09-24_11h29.40.198","exp","global","global",750,5,"TFENSUAXMSPL","LEYTNUFXZCPA",5,"S","sS","s",1,"S","sS","s",1,1.022873599999,1.14470989999245
"RSVPLG02",2.1,401,"DN","Experiment",1,106,"2024-09-24_11h29.47.686","exp","local","local",750,5,"AYCEFTMXLPNU","NUTYSLZCAHEP",5,"S","sS","s",1,"H","hH","h",1,0.761280199993053,0.4573195999983
"RSVPLG02",2.1,401,"DN","Experiment",1,107,"2024-09-24_11h29.55.190","exp","local","global",300,2,"FAXTYMCHLNZP","ULTAZHEFYMNP",6,"H","hH","h",1,"H","hH","h",1,0.713839599993662,0.00977989999228157
"RSVPLG02",2.1,401,"DN","Experiment",1,108,"2024-09-24_11h30.01.942","exp","local","global",750,5,"NFCEZPMATXSY","YTAXNSPCZFMU",6,"S","sS","s",1,"S","sS","h",0,1.00050069999998,1.08455999998841
"RSVPLG02",2.1,401,"DN","Experiment",1,109,"2024-09-24_11h30.09.958","exp","global","local",750,5,"CULHEYFMTZAP","XFCNYAMUSPEL",4,"H","hH","h",1,"S","sS","s",1,0.704064399993513,0.701967700006207
"RSVPLG02",2.1,401,"DN","Experiment",1,110,"2024-09-24_11h30.16.638","exp","global","global",750,5,"LNMEHXCUYSFP","EFMACXLTNPZY",5,"H","hH","h",1,"S","sS","s",1,1.17981940000027,0.600852000003215
"RSVPLG02",2.1,401,"DN","Experiment",1,111,"2024-09-24_11h30.23.721","exp","global","global",750,5,"PCNXHMYLZSEU","LAFEYPCMUTNZ",5,"H","hH","s",0,"S","sS","h",0,1.32453410000016,0.586624100003974
"RSVPLG02",2.1,401,"DN","Experiment",1,112,"2024-09-24_11h30.31.205","exp","global","local",300,2,"ZCXSAYNPMFLU","CAUEMHTLPFZY",4,"S","sS","s",1,"H","hH","h",1,0.61967659999209,0.152471900000819
"RSVPLG02",2.1,401,"DN","Experiment",1,113,"2024-09-24_11h30.37.144","exp","local","local",750,5,"PNUFYTALZEMX","MLCPAHEFNXST",6,"H","hH","h",1,"S","sS","s",1,0.72886920000019,0.0892487000091933
"RSVPLG02",2.1,401,"DN","Experiment",1,114,"2024-09-24_11h30.43.094","exp","local","local",750,5,"ZTPXUAYFMLEC","UYXTZSPLMASE",6,"S","sS","s",1,"S","sS","s",1,0.865435700005037,0.0407774000050267
"RSVPLG02",2.1,401,"DN","Experiment",1,115,"2024-09-24_11h30.49.097","exp","local","local",300,2,"XPYZMNFAULEC","LUEMSTHXANCY",5,"S","sS","s",1,"H","hH","h",1,0.451410800000303,0.0565239999996265
"RSVPLG02",2.1,401,"DN","Experiment",1,116,"2024-09-24_11h30.55.433","exp","global","local",300,2,"PTLSEZUANCFX","UCYPMHETZFLA",4,"S","sS","s",1,"H","hH","h",1,0.567050600002403,0.00983170000836253
"RSVPLG02",2.1,401,"DN","Experiment",1,117,"2024-09-24_11h31.01.591","exp","global","global",750,5,"YLCHEUAZSMPX","ULANTYPMZFXC",4,"H","hH","h",1,"S","sS","s",1,1.89698440000939,0.0250748000107706
"RSVPLG02",2.1,401,"DN","Experiment",1,118,"2024-09-24_11h31.08.828","exp","global","local",300,2,"ACUXZHPELFTM","TMXYFULSNEPC",6,"H","hH","h",1,"S","sS","s",1,0.751605199999176,0.23298290000821
"RSVPLG02",2.1,401,"DN","Experiment",1,119,"2024-09-24_11h31.15.241","exp","local","global",750,5,"CFTUAEPXHNYL","ZUPHLNTMYACF",4,"H","hH","h",1,"H","hH","h",1,0.851538200004143,0.0724380000028759
"RSVPLG02",2.1,401,"DN","Experiment",1,120,"2024-09-24_11h31.23.445","exp","global","local",750,5,"YTPSCMFXZNEL","UMLFACYZHNEP",4,"S","sS","s",1,"H","hH","h",1,0.743932600002154,0.968119600001955
"RSVPLG02",2.1,401,"DN","Experiment",1,121,"2024-09-24_11h31.32.483","exp","global","local",750,5,"AZTHMNECPYLF","FYNXZCALHTUP",4,"H","hH","h",1,"H","hH","h",1,0.663386100000935,0.00817829999141395
"RSVPLG02",2.1,401,"DN","Experiment",1,122,"2024-09-24_11h31.38.921","exp","global","local",300,2,"YUMFCHNPZATE","PCUMYZLHFATX",6,"H","hH","h",1,"H","hH","s",0,0.569981699998607,0.120344499999192
"RSVPLG02",2.1,401,"DN","Experiment",1,123,"2024-09-24_11h31.45.004","exp","global","local",300,2,"LZENUHPTAFMX","YATPUFESZLXM",6,"H","hH","h",1,"S","sS","s",1,0.50559540001268,0.98351960000582
"RSVPLG02",2.1,401,"DN","Experiment",1,124,"2024-09-24_11h31.51.752","exp","global","global",300,2,"FMTNSLHYECXU","CAETUXLZYFMN",5,"S","sS","s",1,"H","hH","s",0,0.96485560000292,0.599526799996966
"RSVPLG02",2.1,401,"DN","Experiment",1,125,"2024-09-24_11h31.58.663","exp","local","local",300,2,"LFPTZYUEMCXA","MCTFSUSLNAZP",5,"S","sS","s",1,"S","sS","s",1,0.425203699996928,0.249338599998737
"RSVPLG02",2.1,401,"DN","Experiment",1,126,"2024-09-24_11h32.04.681","exp","local","local",750,5,"UEZAYXMNLTFP","YCFSTZENSPLU",4,"S","sS","s",1,"S","sS","s",1,0.536770799997612,0.0404209999978775
"RSVPLG02",2.1,401,"DN","Experiment",1,127,"2024-09-24_11h32.10.855","exp","local","global",300,2,"MNEULHXZYFCA","CXESNZFLYTPA",4,"S","sS","s",1,"H","hH","h",1,0.456399899994722,0.171647499999381
"RSVPLG02",2.1,401,"DN","Experiment",1,128,"2024-09-24_11h32.17.401","exp","global","global",300,2,"MYXSTHUENFLC","FAMEUTZXPCLN",4,"S","sS","h",0,"H","hH","s",0,1.1827484999958,0.0885027000040282
"RSVPLG02",2.1,401,"DN","Experiment",1,129,"2024-09-24_11h32.23.944","exp","local","global",300,2,"LCFUXSMAPNTE","PLNSACETZUXM",4,"S","sS","s",1,"S","sS","s",1,0.240919300005771,0.136627600004431
"RSVPLG02",2.1,401,"DN","Experiment",1,130,"2024-09-24_11h32.39.244","exp","local","local",300,2,"ENFLTMUAPCYX","YEXMUSPSCZLF",6,"S","sS","s",1,"S","sS","s",1,0.386793899990153,0.152178999996977
"RSVPLG02",2.1,401,"DN","Experiment",1,131,"2024-09-24_11h32.51.802","exp","global","local",750,5,"FTMHNYEZCPAX","LXYFTNMEHCAU",4,"H","hH","h",1,"H","hH","h",1,0.600751199992374,0.0392048999929102
"RSVPLG02",2.1,401,"DN","Experiment",1,132,"2024-09-24_11h32.57.993","exp","global","global",300,2,"CFTSNHAEPMLZ","EYPZCXLNUTFM",4,"S","sS","h",0,"H","hH","s",0,0.46303739999712,0.823810700007016
"RSVPLG02",2.1,401,"DN","Experiment",1,133,"2024-09-24_11h33.04.778","exp","local","global",750,5,"XLCYFNATHMEZ","TPASNXZULCYM",4,"S","sS","s",1,"H","hH","h",1,0.832790800006478,0.969117500004359
"RSVPLG02",2.1,401,"DN","Experiment",1,134,"2024-09-24_11h33.12.172","exp","global","global",300,2,"ZMXUESFSALCP","YANZXEUMTCLP",6,"S","sS","h",0,"S","sS","h",0,1.13333840000269,0.0571215000090888
"RSVPLG02",2.1,401,"DN","Experiment",1,135,"2024-09-24_11h33.18.604","exp","local","local",300,2,"CYZPLUXFMANE","ULFPSMHZCYAE",5,"S","sS","h",0,"H","hH","h",1,1.39040860001114,1.04632350000611
"RSVPLG02",2.1,401,"DN","Experiment",1,136,"2024-09-24_11h33.26.201","exp","global","local",300,2,"MUZHPLNAYECT","AXZEFSPNUMYL",4,"H","hH","h",1,"S","sS","s",1,0.823256200004835,0.599701200000709
"RSVPLG02",2.1,401,"DN","Experiment",1,137,"2024-09-24_11h33.32.904","exp","global","global",300,2,"FZXHESNCYPAM","LFCTZMPUEAXN",4,"H","hH","h",1,"S","sS","h",0,0.722407099994598,0.167595799997798
"RSVPLG02",2.1,401,"DN","Experiment",1,138,"2024-09-24_11h33.39.160","exp","local","global",750,5,"AETZCXLMSNYU","CYFHANPLMETX",4,"H","hH","h",1,"S","sS","s",1,0.743470599991269,0.460090799999307
"RSVPLG02",2.1,401,"DN","Experiment",1,139,"2024-09-24_11h33.45.702","exp","global","local",750,5,"ZUNHFAMLEXYT","YCFENLTZSUXA",4,"H","hH","h",1,"S","sS","s",1,0.865019899996696,1.33624819999386
"RSVPLG02",2.1,401,"DN","Experiment",1,140,"2024-09-24_11h33.53.275","exp","global","global",300,2,"EMPTHYHUFXAZ","TMYPNFUELZCA",5,"H","hH","h",1,"H","hH","h",1,0.610683899998548,0.296774500005995
"RSVPLG02",2.1,401,"DN","Experiment",1,141,"2024-09-24_11h34.00.058","exp","global","local",300,2,"TEMCHZYAPLFX","ZNTAXMHFECLY",5,"H","hH","s",0,"H","hH","h",1,0.806547499989392,0.647938499998418
"RSVPLG02",2.1,401,"DN","Experiment",1,142,"2024-09-24_11h34.07.017","exp","local","global",300,2,"XANCTYSLUPFZ","LYPNHCEZXMFU",5,"H","hH","h",1,"S","sS","h",0,0.712218200002098,0.0401273999887053
"RSVPLG02",2.1,401,"DN","Experiment",1,143,"2024-09-24_11h34.13.130","exp","local","global",300,2,"ZTEXPYHMFACU","XCPEHTLZNAYF",5,"H","hH","h",1,"H","hH","s",0,0.836408400005894,0.00899600000411738
"RSVPLG02",2.1,401,"DN","Experiment",1,144,"2024-09-24_11h34.19.371","exp","local","local",750,5,"FNULCTXEPYAZ","XLMZASPUECHF",6,"S","sS","s",1,"H","hH","h",1,0.684723300000769,0.712828100004117
"RSVPLG02",2.1,401,"DN","Experiment",1,145,"2024-09-24_11h34.27.709","exp","global","global",750,5,"MLNSAPEXHTFU","XLPACZEFYMNU",4,"S","sS","s",1,"H","hH","h",1,1.34845449999557,0.615929899999173
"RSVPLG02",2.1,401,"DN","Experiment",1,146,"2024-09-24_11h34.35.053","exp","local","global",750,5,"ZTMNCAPLYUSF","MPLZTSEYFXCA",6,"S","sS","s",1,"S","sS","s",1,1.22349409999151,0.567234700007248
"RSVPLG02",2.1,401,"DN","Experiment",1,147,"2024-09-24_11h34.42.156","exp","global","local",300,2,"PEYCSZATNLUF","YLFXNTSUPCAZ",5,"S","sS","h",0,"S","sS","s",1,0.505540099999052,0.185198199993465
"RSVPLG02",2.1,401,"DN","Experiment",1,148,"2024-09-24_11h34.48.124","exp","global","global",750,5,"YENLMSTPCZHU","YTLUZNPACFMX",6,"S","sS","s",1,"H","hH","h",1,0.821116999999504,0.0885639000043739
"RSVPLG02",2.1,401,"DN","Experiment",1,149,"2024-09-24_11h34.54.781","exp","global","local",300,2,"AZLESNTMYXFU","PECANLHTXUFM",5,"S","sS","s",1,"H","hH","h",1,0.262859299997217,0.567956599988975
"RSVPLG02",2.1,401,"DN","Experiment",1,150,"2024-09-24_11h35.01.384","exp","global","local",300,2,"NAFUHCYPLXMT","ZAMUYPHXLCTE",5,"H","hH","s",0,"H","hH","h",1,0.564987500009011,0.0410078999993857
"RSVPLG02",2.1,401,"DN","Experiment",1,151,"2024-09-24_11h35.07.691","exp","global","local",300,2,"CFAUSZEXTPNY","UXZNMYSFPTEL",5,"S","sS","s",1,"S","sS","s",1,0.651915800001007,0.311077400008799
"RSVPLG02",2.1,401,"DN","Experiment",1,152,"2024-09-24_11h35.14.187","exp","global","local",750,5,"FXLSZMCUTYAE","CFTNZXUPHAYE",4,"S","sS","s",1,"H","hH","h",1,0.619631499997922,0.0140162000025157
"RSVPLG02",2.1,401,"DN","Experiment",1,153,"2024-09-24_11h35.20.193","exp","local","local",750,5,"YFNMZXLTCPEA","PAZLYSXFEUHM",6,"S","sS","s",1,"H","hH","h",1,0.675078100000974,0.760660800006008
"RSVPLG02",2.1,401,"DN","Experiment",1,154,"2024-09-24_11h35.26.908","exp","local","local",750,5,"NZAPLYUCTMXE","NYLTZSEFCPSX",6,"S","sS","s",1,"S","sS","s",1,0.48900099999446,0.0723839000129374
"RSVPLG02",2.1,401,"DN","Experiment",1,155,"2024-09-24_11h35.35.419","exp","local","global",750,5,"FEPALXCZTHNM","TCXMSPNEFLYU",5,"S","sS","s",1,"H","hH","h",1,0.66944159999548,0.201463400007924
"RSVPLG02",2.1,401,"DN","Experiment",1,156,"2024-09-24_11h35.42.766","exp","local","global",300,2,"TXZFMPASNYCU","CMZFUHYXPETA",6,"H","hH","h",1,"S","sS","h",0,0.663462500000605,0.0572523000009824
"RSVPLG02",2.1,401,"DN","Experiment",1,157,"2024-09-24_11h35.48.764","exp","global","global",750,5,"LAZHNECYHXPM","FYZPNXALTUEC",4,"H","hH","h",1,"H","hH","s",0,0.563007100005052,0.632723100003204
"RSVPLG02",2.1,401,"DN","Experiment",1,158,"2024-09-24_11h35.55.397","exp","local","global",300,2,"ZNPMXSFTUAEL","ECYHLUXZPNMF",4,"H","hH","s",0,"S","sS","s",1,1.02421770000365,0.20044770000095
"RSVPLG02",2.1,401,"DN","Experiment",1,159,"2024-09-24_11h36.01.914","exp","global","local",750,5,"AXMSFPCTNYZU","AXLZFPECSYTU",4,"S","sS","s",1,"S","sS","s",1,0.849648300005356,0.00687199999811128
"RSVPLG02",2.1,401,"DN","Experiment",1,160,"2024-09-24_11h36.08.252","exp","global","local",750,5,"PZTXCSUFEAYM","XCZTPLFYUAHE",6,"S","sS","s",1,"H","hH","h",1,1.15797160001239,0.47104349998699
"RSVPLG02",2.1,401,"DN","Experiment",1,161,"2024-09-24_11h36.18.501","exp","local","local",750,5,"CUZTYPMAEFNX","MATSCYPXHEFU",4,"S","sS","s",1,"H","hH","h",1,1.01056160000735,3.77299770001264
"RSVPLG02",2.1,401,"DN","Experiment",1,162,"2024-09-24_11h36.29.498","exp","global","local",300,2,"APLHYTEMUCNX","NZTFYHCAXLUP",4,"H","hH","h",1,"H","hH","h",1,0.259691600003862,0.0230206999985967
"RSVPLG02",2.1,401,"DN","Experiment",1,163,"2024-09-24_11h36.38.557","exp","global","global",750,5,"PECSUXYTSZFN","AUCXYFLNPEZM",4,"S","sS","h",0,"S","sS","h",0,1.00279289999162,0.0233840000000782
"RSVPLG02",2.1,401,"DN","Experiment",1,164,"2024-09-24_11h36.44.880","exp","local","local",750,5,"AYXEMTFLZPNU","LUMZYSFPNEST",6,"S","sS","s",1,"S","sS","s",1,0.904381700005615,1.11284109999542
"RSVPLG02",2.1,401,"DN","Experiment",1,165,"2024-09-24_11h36.51.915","exp","global","global",750,5,"ZFLENHYXPTSU","CLPXFTMAUYNZ",6,"H","hH","h",1,"S","sS","s",1,1.48274210000818,0.216477499998291
"RSVPLG02",2.1,401,"DN","Practice Both",1,1,"2024-09-24_11h12.05.251","prac","global","global",300,2,"PENUSYSXLTMA","TCNLAMUFYZEP",5,"S","sS","h",0,"S","sS","s",1,1.23438349999196,1.92775010000332
"RSVPLG02",2.1,401,"DN","Practice Both",1,2,"2024-09-24_11h12.14.918","prac","global","local",300,2,"NYEXSAZPMFCL","CEMUNASPLXTY",5,"S","sS","s",1,"S","sS","s",1,2.5950112999999,1.1120540999982
"RSVPLG02",2.1,401,"DN","Practice Both",1,3,"2024-09-24_11h12.27.575","prac","local","global",750,5,"METNYZXPFLHU","TCAYMHEZLFPX",6,"H","hH","h",1,"H","hH","s",0,2.85072109999601,1.54509269999107
"RSVPLG02",2.1,401,"DN","Practice Both",1,4,"2024-09-24_11h12.40.175","prac","local","local",750,5,"ENZMTAYFUCPL","ZMFLCHUYTXHA",6,"H","hH","h",1,"H","hH","h",1,0.911231100006262,0.599869300000137
"RSVPLG02",2.1,401,"DN","Practice Both",1,5,"2024-09-24_11h12.47.427","prac","local","global",300,2,"CPMTALSNEZYU","EPFAHUTZYXNM",5,"H","hH","h",1,"S","sS","h",0,4.09737410000525,0.887982500004
"RSVPLG02",2.1,401,"DN","Practice Both",1,6,"2024-09-24_11h12.57.988","prac","global","local",300,2,"ECFXTSAMNYUP","FYZXEMAHTULC",6,"S","sS","s",1,"H","hH","h",1,1.68396549999306,0.876725099995383
"RSVPLG02",2.1,401,"DN","Practice Both",1,7,"2024-09-24_11h13.06.280","prac","global","global",750,5,"CYNLTSAMEPHZ","EXZFYUPNLAMC",6,"S","sS","s",1,"H","hH","s",0,2.40459469999769,0.521242300004815
"RSVPLG02",2.1,401,"DN","Practice Both",1,8,"2024-09-24_11h13.14.792","prac","local","global",300,2,"UCNZYSXMLFAT","CNZHLTYMEPXU",4,"H","hH","h",1,"S","sS","s",1,1.39774770000076,1.35757350000495
"RSVPLG02",2.1,401,"DN","Practice Both",1,9,"2024-09-24_11h13.22.922","prac","local","local",750,5,"TACXENFPYMLU","LMPHUACTHENZ",4,"H","hH","h",1,"H","hH","h",1,1.0012529999949,0.414319400006207
"RSVPLG02",2.1,401,"DN","Practice Both",1,10,"2024-09-24_11h13.32.644","prac","local","local",300,2,"NTFYZMAEULXC","UCPASMHFZNXL",5,"S","sS","s",1,"H","hH","h",1,3.71235820000584,0.503900199997588
"RSVPLG02",2.1,401,"DN","Practice Both",1,11,"2024-09-24_11h13.44.054","prac","global","local",750,5,"PLYHNTEMFZUC","YNFUECXZHTMP",4,"H","hH","s",0,"H","hH","h",1,1.99510299999383,0.680659700010438
"RSVPLG02",2.1,401,"DN","Practice Both",1,12,"2024-09-24_11h13.52.373","prac","local","local",300,2,"MYUPXLTENZCA","CNFZUHYHEPLA",6,"H","hH","h",1,"H","hH","h",1,1.47003650000261,0.329601299992646
"RSVPLG02",2.1,401,"DN","Practice Both",1,13,"2024-09-24_11h13.59.783","prac","global","global",750,5,"YLUEHTPZNSXC","MTLUENFZAXYP",5,"H","hH","h",1,"S","sS","s",1,1.46609120001085,0.327589499996975
"RSVPLG02",2.1,401,"DN","Practice Both",1,14,"2024-09-24_11h14.07.542","prac","global","global",300,2,"EZMHUHTALYCX","YNXECAPLFMTU",4,"H","hH","h",1,"H","hH","h",1,1.04748049999762,0.296664599998621
"RSVPLG02",2.1,401,"DN","Practice Both",1,15,"2024-09-24_11h14.14.612","prac","local","global",750,5,"FTEMUNXZYHAC","LYNPSUAZXTEC",5,"S","sS","s",1,"H","hH","h",1,1.79904050000187,0.474092699994799
"RSVPLG02",2.1,401,"DN","Practice Both",1,16,"2024-09-24_11h14.22.871","prac","global","local",750,5,"MYXFSEAPUZCN","TCUYPXMAFHEN",5,"S","sS","s",1,"H","hH","h",1,0.944858599992585,0.344646700003068
"RSVPLG02",2.1,401,"DN","Practice T1",1,1,"2024-09-24_11h07.25.992","prac","global","local",300,2,"NZFHEAMLXCUT","XLNPYHACUEFT",4,"H","hH","h",1,"H","hH","none",-5,6.05741609999677,0
"RSVPLG02",2.1,401,"DN","Practice T1",1,2,"2024-09-24_11h07.41.078","prac","global","global",750,5,"CUXSZEFTSAMN","XNPFTMCLYEAU",4,"S","sS","h",0,"S","sS","none",-5,4.78204089999781,0
"RSVPLG02",2.1,401,"DN","Practice T1",1,3,"2024-09-24_11h07.52.545","prac","local","global",750,5,"LAMZTEXCHNUP","FUCHALZNTEXP",4,"H","hH","h",1,"H","hH","none",-5,0.797292800009018,0
"RSVPLG02",2.1,401,"DN","Practice T1",1,4,"2024-09-24_11h08.00.594","prac","global","global",300,2,"EFPXHUHMYCZA","YCFLUEMZNXAT",5,"H","hH","s",0,"H","hH","none",-5,1.86427489999915,0
"RSVPLG02",2.1,401,"DN","Practice T1",1,5,"2024-09-24_11h08.08.150","prac","local","local",750,5,"MXELAPNZYTUC","LFAMPHCEYXHN",6,"H","hH","h",1,"H","hH","none",-5,1.22337620001053,0
"RSVPLG02",2.1,401,"DN","Practice T1",1,6,"2024-09-24_11h08.14.961","prac","global","local",300,2,"CXUYZHNMEPTL","CTUNMAZHXFLY",6,"H","hH","h",1,"H","hH","none",-5,0.843950800001039,0
"RSVPLG02",2.1,401,"DN","Practice T1",1,7,"2024-09-24_11h08.23.010","prac","local","global",300,2,"ZFMUTHYEPLNX","UNCSYXFZTMEL",4,"S","sS","s",1,"H","hH","none",-5,1.17031630000565,0
"RSVPLG02",2.1,401,"DN","Practice T1",1,8,"2024-09-24_11h08.30.303","prac","local","global",750,5,"XPAEMUZTYHNF","XCUAHTZEPNYL",5,"H","hH","h",1,"H","hH","none",-5,0.910019299990381,0
"RSVPLG02",2.1,401,"DN","Practice T1",1,9,"2024-09-24_11h08.36.929","prac","local","local",300,2,"TZFLYPXACNMU","YFTSMSLNAPUZ",4,"S","sS","s",1,"S","sS","none",-5,1.12544879999768,0
"RSVPLG02",2.1,401,"DN","Practice T1",1,10,"2024-09-24_11h08.43.684","prac","local","local",300,2,"TMEAYUZCFLXN","PYZHNSMCLFAX",4,"H","hH","h",1,"S","sS","none",-5,0.644820699992124,0
"RSVPLG02",2.1,401,"DN","Practice T1",1,11,"2024-09-24_11h08.50.281","prac","global","global",300,2,"CXFHZSPTLEUN","PNMEFZYCAXLT",4,"H","hH","h",1,"S","sS","none",-5,0.815936700004386,0
"RSVPLG02",2.1,401,"DN","Practice T1",1,12,"2024-09-24_11h08.56.384","prac","local","local",750,5,"EXPMLYZFCTUN","CEXFHNATMSZL",5,"H","hH","h",1,"S","sS","none",-5,0.667284499999369,0
"RSVPLG02",2.1,401,"DN","Practice T1",1,13,"2024-09-24_11h09.02.114","prac","global","local",750,5,"ZCYEHPMNFXUT","ZXTEYMFUNSAC",5,"H","hH","s",0,"S","sS","none",-5,1.20627199999581,0
"RSVPLG02",2.1,401,"DN","Practice T1",1,14,"2024-09-24_11h09.08.422","prac","local","global",300,2,"AZXTENHYLCPF","TEFMHCZYNPXA",5,"H","hH","h",1,"H","hH","none",-5,0.671148699999321,0
"RSVPLG02",2.1,401,"DN","Practice T1",1,15,"2024-09-24_11h09.14.160","prac","global","local",750,5,"LZYCPHEAXNMT","LTNEUPFCAMHX",6,"H","hH","h",1,"H","hH","none",-5,0.807722600002307,0
"RSVPLG02",2.1,401,"DN","Practice T1",1,16,"2024-09-24_11h09.19.874","prac","global","global",750,5,"ELFCZHTMYNHU","CZFALTXMPYNE",6,"H","hH","h",1,"H","hH","none",-5,1.06376859999727,0
"RSVPLG02",2.1,402,"lv","Experiment",1,1,"2024-09-24_12h19.28.573","warmup","local","global",750,5,"ZPMUNYTXHLCE","TLPHEZFUACXN",4,"H","hH","h",1,"H","hH","s",0,2.09145400000853,3.79904169999645
"RSVPLG02",2.1,402,"lv","Experiment",1,2,"2024-09-24_12h19.43.910","warmup","local","global",300,2,"XEYLCUHNPZFA","CNPAHEXZTLMY",5,"H","hH","h",1,"H","hH","h",1,1.43194219999714,1.38511039999139
"RSVPLG02",2.1,402,"lv","Experiment",1,3,"2024-09-24_12h19.57.531","warmup","global","global",300,2,"TELYMSUSXCFN","LCAUNTEPYZMX",6,"S","sS","s",1,"S","sS","h",0,1.28590970000369,1.27233870000055
"RSVPLG02",2.1,402,"lv","Experiment",1,4,"2024-09-24_12h20.06.539","warmup","local","local",300,2,"TAMLXFUZCNPY","YCELZHTHFXPM",6,"H","hH","h",1,"H","hH","h",1,0.904743699997198,0.264593800005969
"RSVPLG02",2.1,402,"lv","Experiment",1,5,"2024-09-24_12h20.15.579","warmup","global","local",750,5,"ENLCMHFPAUYT","TLECFNXZMAHU",6,"H","hH","s",0,"H","hH","h",1,2.01684399999795,0.42420619999757
"RSVPLG02",2.1,402,"lv","Experiment",1,6,"2024-09-24_12h20.23.791","exp","global","local",750,5,"YMXHLUAZTNPC","TNYULEXCSPZA",4,"H","hH","s",0,"S","sS","s",1,3.87570659999619,0.151952599990182
"RSVPLG02",2.1,402,"lv","Experiment",1,7,"2024-09-24_12h20.33.610","exp","global","global",750,5,"CXEPLHTMFZHA","XMEPTUFYZCNL",6,"H","hH","s",0,"H","hH","h",1,3.02238570000918,0.350109799997881
"RSVPLG02",2.1,402,"lv","Experiment",1,8,"2024-09-24_12h20.43.932","exp","global","local",300,2,"MUTSYAPCNFLX","UPNFEHAZTMCX",4,"S","sS","s",1,"H","hH","s",0,1.30844340000476,0.344319700001506
"RSVPLG02",2.1,402,"lv","Experiment",1,9,"2024-09-24_12h20.51.759","exp","global","global",750,5,"ZMUCHTXLPHNF","PTYLNZACEUFX",5,"H","hH","s",0,"H","hH","h",1,0.93006320000859,0.296705899992958
"RSVPLG02",2.1,402,"lv","Experiment",1,10,"2024-09-24_12h20.59.900","exp","global","local",300,2,"MYNHLAZPXFUC","LFNXAHTEYCZM",4,"H","hH","h",1,"H","hH","s",0,3.62943860000814,1.41525980000733
"RSVPLG02",2.1,402,"lv","Experiment",1,11,"2024-09-24_12h21.10.795","exp","global","global",750,5,"YZXSFLCESPMU","XLUAYZEMNFTP",4,"S","sS","s",1,"S","sS","s",1,0.868746599997394,0.311563600000227
"RSVPLG02",2.1,402,"lv","Experiment",1,12,"2024-09-24_12h21.17.470","exp","local","local",750,5,"YPTXCALNZFME","FXUZMSLNETHA",6,"S","sS","s",1,"H","hH","h",1,1.00878080000984,0.365266699998756
"RSVPLG02",2.1,402,"lv","Experiment",1,13,"2024-09-24_12h21.24.766","exp","global","global",750,5,"CZNUESFTAYSP","NMAFTECLUZYP",6,"S","sS","h",0,"S","sS","s",1,2.24109860000317,0.201231400002143
"RSVPLG02",2.1,402,"lv","Experiment",1,14,"2024-09-24_12h21.33.259","exp","local","local",750,5,"ULCANYPFXEZT","UZPXLHYMTESC",6,"H","hH","h",1,"S","sS","s",1,1.24015199999849,0.312606100007542
"RSVPLG02",2.1,402,"lv","Experiment",1,15,"2024-09-24_12h21.41.741","exp","global","local",300,2,"YMFHAZELXNCU","PXEMUSTAYCLZ",4,"H","hH","s",0,"S","sS","s",1,1.71166660000745,0.233024500004831
"RSVPLG02",2.1,402,"lv","Experiment",1,16,"2024-09-24_12h21.49.612","exp","global","global",750,5,"LUXYSMZANSPT","YFUZEXCLPMTA",5,"S","sS","s",1,"S","sS","s",1,1.51616480000666,0.302340700000059
"RSVPLG02",2.1,402,"lv","Experiment",1,17,"2024-09-24_12h21.58.381","exp","global","global",300,2,"LEUASFHZYPTN","ALZCXYUNETMP",5,"S","sS","s",1,"H","hH","s",0,1.62594230000104,0.4573914000066
"RSVPLG02",2.1,402,"lv","Experiment",1,18,"2024-09-24_12h22.06.793","exp","local","local",300,2,"PZXCMTYNUFLA","TMALPHCHYNEZ",6,"H","hH","h",1,"H","hH","s",0,1.18027460000303,0.696867999999085
"RSVPLG02",2.1,402,"lv","Experiment",1,19,"2024-09-24_12h22.14.831","exp","local","global",300,2,"TMCYPHLAEZUN","ZUFHNPTALEYC",4,"H","hH","h",1,"H","hH","h",1,0.996977700007847,1.52920799999265
"RSVPLG02",2.1,402,"lv","Experiment",1,20,"2024-09-24_12h22.23.279","exp","local","local",750,5,"XUNECFTZLPMA","FANLSPEMUSCT",5,"S","sS","s",1,"S","sS","s",1,0.747506699990481,0.120543099998031
"RSVPLG02",2.1,402,"lv","Experiment",1,21,"2024-09-24_12h22.30.576","exp","global","local",300,2,"NUMLESZAFPYX","LFEAPCZHXTMN",6,"S","sS","s",1,"H","hH","h",1,1.69784199999413,0.999670299992431
"RSVPLG02",2.1,402,"lv","Experiment",1,22,"2024-09-24_12h22.39.087","exp","global","local",750,5,"EMCSTYFAUZPX","AYLEPCNXSUZM",4,"S","sS","s",1,"S","sS","h",0,2.0739009000099,0.904797099996358
"RSVPLG02",2.1,402,"lv","Experiment",1,23,"2024-09-24_12h22.47.949","exp","local","local",300,2,"FUTMPXYCLZEA","XZLHPHCFTYAE",4,"H","hH","h",1,"H","hH","h",1,0.7323611999891,0.105465599990566
"RSVPLG02",2.1,402,"lv","Experiment",1,24,"2024-09-24_12h22.54.974","exp","local","global",300,2,"CMPNLXSTFYZA","NYFXHZLEPCMU",5,"H","hH","s",0,"S","sS","s",1,2.72049930000503,1.04799289999937
"RSVPLG02",2.1,402,"lv","Experiment",1,25,"2024-09-24_12h23.05.469","exp","local","global",300,2,"TCANMZSXPLEF","TYLFHCNAEXMP",5,"H","hH","h",1,"S","sS","s",1,0.911053000003449,0.551879699996789
"RSVPLG02",2.1,402,"lv","Experiment",1,26,"2024-09-24_12h23.13.076","exp","global","local",750,5,"TCEHLNPXYMAU","APEYXNZLSCMU",4,"H","hH","h",1,"S","sS","s",1,2.56163290000404,0.233298299994203
"RSVPLG02",2.1,402,"lv","Experiment",1,27,"2024-09-24_12h23.23.232","exp","local","local",300,2,"FZXLEPNMTAYU","UENHCHMXPFTA",4,"H","hH","h",1,"H","hH","h",1,0.812972799991257,0.472116100005223
"RSVPLG02",2.1,402,"lv","Experiment",1,28,"2024-09-24_12h23.30.158","exp","global","local",750,5,"XTPAHLYFUEZN","TYFAXCZPESMN",5,"H","hH","s",0,"S","sS","s",1,8.01194660000328,0.0774588000058429
"RSVPLG02",2.1,402,"lv","Experiment",1,29,"2024-09-24_12h23.43.919","exp","local","global",300,2,"CXYZAPEHMLTU","YTNZAHEPLCFM",6,"H","hH","h",1,"H","hH","h",1,0.530539400002453,0.249326500008465
"RSVPLG02",2.1,402,"lv","Experiment",1,30,"2024-09-24_12h23.50.351","exp","global","global",300,2,"FMXHNSZCYUPL","YNCFPAXTEULM",4,"H","hH","s",0,"S","sS","s",1,0.537814600000274,0.231278600011137
"RSVPLG02",2.1,402,"lv","Experiment",1,31,"2024-09-24_12h23.57.630","exp","global","global",300,2,"YLXSASNUPCTF","PEYTNLMZAFUX",4,"S","sS","h",0,"S","sS","s",1,0.664551000008942,0.809475699992618
"RSVPLG02",2.1,402,"lv","Experiment",1,32,"2024-09-24_12h24.04.942","exp","local","local",750,5,"TLYECAXPMUFN","NAMHEZUCHTYP",4,"H","hH","h",1,"H","hH","h",1,1.18308710001293,0.056795600001351
"RSVPLG02",2.1,402,"lv","Experiment",1,33,"2024-09-24_12h24.11.586","exp","global","global",750,5,"ZFCSUAMEHPTY","CEYFTMZANLPU",4,"S","sS","h",0,"H","hH","h",1,0.561369400005788,0.296761799996602
"RSVPLG02",2.1,402,"lv","Experiment",1,34,"2024-09-24_12h24.19.188","exp","global","global",300,2,"NPTSZHEFUYMX","YTPMLECUAXNF",4,"S","sS","s",1,"H","hH","h",1,0.778159699999378,0.541162900000927
"RSVPLG02",2.1,402,"lv","Experiment",1,35,"2024-09-24_12h24.26.271","exp","local","local",300,2,"PLEZFMXUNCYT","LFYZHXHPACNE",5,"H","hH","h",1,"H","hH","h",1,0.385129300004337,0.280067400002736
"RSVPLG02",2.1,402,"lv","Experiment",1,36,"2024-09-24_12h24.32.573","exp","global","local",300,2,"UFYSPNAELTXC","PZELXHFCMNAU",4,"S","sS","s",1,"H","hH","h",1,0.701244799987762,0.585112000000663
"RSVPLG02",2.1,402,"lv","Experiment",1,37,"2024-09-24_12h24.39.454","exp","local","global",300,2,"FAMNYEUHLZTC","CTAXYHNMLZUF",6,"H","hH","h",1,"H","hH","h",1,0.417718999990029,0.263802899993607
"RSVPLG02",2.1,402,"lv","Experiment",1,38,"2024-09-24_12h24.45.438","exp","local","global",750,5,"FNLUCMZEXSTA","UAPNSYLTMEXZ",5,"S","sS","s",1,"S","sS","s",1,1.03570089999994,0.264705800000229
"RSVPLG02",2.1,402,"lv","Experiment",1,39,"2024-09-24_12h24.52.322","exp","global","local",750,5,"YCPLMSZEUATX","FZMPACYULNHX",6,"S","sS","s",1,"H","hH","h",1,1.1421718000056,0.473440000001574
"RSVPLG02",2.1,402,"lv","Experiment",1,40,"2024-09-24_12h24.59.457","exp","global","global",750,5,"FPCAMHZNULSX","TNFUACMXZEPL",6,"H","hH","s",0,"S","sS","h",0,0.806277700001374,0.410408900002949
"RSVPLG02",2.1,402,"lv","Experiment",1,41,"2024-09-24_12h25.09.230","exp","global","global",300,2,"FTPEXHNSCUZY","FXETMNCLPYAU",6,"H","hH","h",1,"S","sS","s",1,0.650031299999682,0.233378300006734
"RSVPLG02",2.1,402,"lv","Experiment",1,42,"2024-09-24_12h25.15.822","exp","local","global",750,5,"ZMAFUTCNXHPY","YXZNSEFTLUAP",5,"S","sS","s",1,"H","hH","s",0,0.87391110000317,0.300477999990107
"RSVPLG02",2.1,402,"lv","Experiment",1,43,"2024-09-24_12h25.22.430","exp","global","global",750,5,"EFNHXZMUHPTA","NYFZUACTPEMX",4,"H","hH","h",1,"H","hH","h",1,0.415237900000648,0.248595800003386
"RSVPLG02",2.1,402,"lv","Experiment",1,44,"2024-09-24_12h25.28.720","exp","local","global",300,2,"UXYATNLSFMEC","XFUAPHZMYLNE",6,"H","hH","s",0,"S","sS","s",1,0.594724099995801,0.280614899995271
"RSVPLG02",2.1,402,"lv","Experiment",1,45,"2024-09-24_12h25.35.118","exp","global","global",300,2,"XYUPHEHCANTZ","UTYCNFLZMXPA",5,"H","hH","s",0,"H","hH","s",0,0.568653700000141,0.233643899991876
"RSVPLG02",2.1,402,"lv","Experiment",1,46,"2024-09-24_12h25.41.470","exp","local","global",750,5,"XEYFTNACULHP","MTYNLSCUEAFP",6,"S","sS","s",1,"H","hH","s",0,0.568778200002271,0.142705400008708
"RSVPLG02",2.1,402,"lv","Experiment",1,47,"2024-09-24_12h25.47.598","exp","global","local",300,2,"NMLSTPAEZXCF","FCPZUHLTYNMA",4,"S","sS","s",1,"H","hH","h",1,0.869902000005823,0.550947799987625
"RSVPLG02",2.1,402,"lv","Experiment",1,48,"2024-09-24_12h25.54.510","exp","local","global",300,2,"CZEYLAXHMNPF","TAMNCSXUFLEY",6,"S","sS","s",1,"H","hH","h",1,0.464384999999311,0.28102160000708
"RSVPLG02",2.1,402,"lv","Experiment",1,49,"2024-09-24_12h26.01.217","exp","global","local",750,5,"ULENSMFXZCAP","ZPYUFCTLMSAX",5,"S","sS","h",0,"S","sS","s",1,0.567710300005274,0.10514559999865
"RSVPLG02",2.1,402,"lv","Experiment",1,50,"2024-09-24_12h26.07.425","exp","global","local",300,2,"FCZESMXTNLPY","MACEZUHNPTFY",5,"S","sS","h",0,"H","hH","h",1,0.712673899994115,0.456016199997975
"RSVPLG02",2.1,402,"lv","Experiment",1,51,"2024-09-24_12h26.14.080","exp","local","local",300,2,"FEXALPMYCUTN","CYXTZSFHPUAN",6,"S","sS","s",1,"H","hH","h",1,0.514006700002938,0.279739599995082
"RSVPLG02",2.1,402,"lv","Experiment",1,52,"2024-09-24_12h26.20.508","exp","global","local",300,2,"MXFEYHNCTUZL","ENTZLAYSCPXU",6,"H","hH","h",1,"S","sS","s",1,4.01567590000923,0.536491399994702
"RSVPLG02",2.1,402,"lv","Experiment",1,53,"2024-09-24_12h26.30.638","exp","local","local",750,5,"FAPYZMENTLCU","ETUXFSCPANSY",6,"S","sS","s",1,"S","sS","s",1,0.613167799994699,0.136822800006485
"RSVPLG02",2.1,402,"lv","Experiment",1,54,"2024-09-24_12h26.37.054","exp","local","global",750,5,"TMYXACNUSPLF","YMNHLPFXUEAZ",4,"H","hH","h",1,"S","sS","h",0,0.636968400009209,0.249165399989579
"RSVPLG02",2.1,402,"lv","Experiment",1,55,"2024-09-24_12h26.43.713","exp","global","local",300,2,"ANUSYXZCELPF","UMZCTSYAFELP",4,"S","sS","s",1,"S","sS","h",0,0.590990600001533,0.519881400003214
"RSVPLG02",2.1,402,"lv","Experiment",1,56,"2024-09-24_12h26.50.702","exp","local","global",750,5,"XTYZCFNPLHAE","EAUFHYNPXLZM",5,"H","hH","s",0,"H","hH","s",0,0.53940190000867,0.104855400000815
"RSVPLG02",2.1,402,"lv","Experiment",1,57,"2024-09-24_12h26.56.753","exp","local","global",750,5,"TUEYFMNXPSAC","XMNYHTCPZUFE",5,"H","hH","h",1,"S","sS","h",0,0.360650099988561,0.0562414999876637
"RSVPLG02",2.1,402,"lv","Experiment",1,58,"2024-09-24_12h27.02.722","exp","global","global",300,2,"ETLSCHMNXAUZ","LFETNCPMXUYA",4,"S","sS","s",1,"H","hH","h",1,2.02013190000434,0.263544400004321
"RSVPLG02",2.1,402,"lv","Experiment",1,59,"2024-09-24_12h27.10.638","exp","global","global",750,5,"CNYXMHZUELHF","LAEMTNXUPCZF",6,"H","hH","s",0,"H","hH","h",1,0.806564200000139,0.84019280000939
"RSVPLG02",2.1,402,"lv","Experiment",1,60,"2024-09-24_12h27.17.873","exp","local","global",750,5,"LPFAMEUTZHNC","ELTFHNCMZPXY",5,"H","hH","h",1,"H","hH","h",1,0.495155899989186,0.280016100005014
"RSVPLG02",2.1,402,"lv","Experiment",1,61,"2024-09-24_12h27.24.142","exp","global","local",750,5,"EXALCHMFYNUP","ETMXLFPZCYHU",6,"H","hH","h",1,"H","hH","h",1,0.697631099988939,0.66732750000665
"RSVPLG02",2.1,402,"lv","Experiment",1,62,"2024-09-24_12h27.31.025","exp","global","local",750,5,"FZNMCHUATXEY","EZLXAUTPFCSY",6,"H","hH","h",1,"S","sS","s",1,0.723509799994645,0.286708500003442
"RSVPLG02",2.1,402,"lv","Experiment",1,63,"2024-09-24_12h27.37.854","exp","global","local",300,2,"CNESUZFMYXAP","NYTFUHAEPLMZ",4,"S","sS","s",1,"H","hH","h",1,2.56023920000007,0.488876100003836
"RSVPLG02",2.1,402,"lv","Experiment",1,64,"2024-09-24_12h27.48.322","exp","local","local",750,5,"FUEALPCNZMXT","UZXPESLTNFHY",6,"S","sS","s",1,"H","hH","h",1,0.523016799998004,0.328618699990329
"RSVPLG02",2.1,402,"lv","Experiment",1,65,"2024-09-24_12h27.54.592","exp","local","global",300,2,"UCTXZMSYLFEP","FULPSNCZTEXM",5,"S","sS","s",1,"S","sS","s",1,0.922539699997287,0.40949950000504
"RSVPLG02",2.1,402,"lv","Experiment",1,66,"2024-09-24_12h28.03.024","exp","global","local",300,2,"YLEASUMNPZTX","UNFYEPHZMTLA",5,"S","sS","s",1,"H","hH","h",1,1.19938259999617,0.457056100000045
"RSVPLG02",2.1,402,"lv","Experiment",1,67,"2024-09-24_12h28.10.188","exp","global","global",750,5,"PUNFMHEYZLHT","NZEUYTPXMCLF",6,"H","hH","s",0,"H","hH","h",1,1.92296830000123,0.00917150000168476
"RSVPLG02",2.1,402,"lv","Experiment",1,68,"2024-09-24_12h28.17.567","exp","local","local",300,2,"YACTZLEPNXFM","ANZHFSLCMPXT",4,"H","hH","h",1,"S","sS","s",1,0.465921800001524,0.297949999992852
"RSVPLG02",2.1,402,"lv","Experiment",1,69,"2024-09-24_12h28.23.728","exp","local","global",300,2,"MPCAELSNYTXF","LPETSXNUZFYA",5,"S","sS","s",1,"S","sS","h",0,0.55607659999805,0.297133499989286
"RSVPLG02",2.1,402,"lv","Experiment",1,70,"2024-09-24_12h28.30.092","exp","local","global",300,2,"MYUXEAHTZFNL","FYTZHPLANMXU",5,"H","hH","h",1,"H","hH","h",1,0.578855600004317,0.808034200003021
"RSVPLG02",2.1,402,"lv","Experiment",1,71,"2024-09-24_12h28.36.961","exp","local","local",300,2,"ANZMXLPYUTFE","FYZSXHUPMECN",4,"S","sS","s",1,"H","hH","h",1,0.415369599999394,0.456605300001684
"RSVPLG02",2.1,402,"lv","Experiment",1,72,"2024-09-24_12h28.43.229","exp","local","global",300,2,"ENLAXYHTZFUP","ZAMESFXLCNYU",5,"S","sS","s",1,"H","hH","s",0,0.510896199994022,0.281422100000782
"RSVPLG02",2.1,402,"lv","Experiment",1,73,"2024-09-24_12h28.49.441","exp","local","local",300,2,"UACZPFXNMTEL","LMXSPSECFTUY",4,"S","sS","s",1,"S","sS","s",1,0.373067299995455,0.121380099997623
"RSVPLG02",2.1,402,"lv","Experiment",1,74,"2024-09-24_12h28.55.183","exp","local","global",750,5,"LXYUCZMNFEST","TACUZSXMFPYL",6,"S","sS","s",1,"S","sS","h",0,0.802949499993701,0.280453500003205
"RSVPLG02",2.1,402,"lv","Experiment",1,75,"2024-09-24_12h29.01.456","exp","global","local",300,2,"YTEULHXAMZPN","APLNEMCHFYXU",6,"H","hH","h",1,"H","hH","h",1,0.524212799995439,0.974190199995064
"RSVPLG02",2.1,402,"lv","Experiment",1,76,"2024-09-24_12h29.08.514","exp","global","local",300,2,"TELNHMFXAYCP","ZFCTLPSNUAEX",5,"H","hH","h",1,"S","sS","s",1,0.626291500011575,0.0570379999990109
"RSVPLG02",2.1,402,"lv","Experiment",1,77,"2024-09-24_12h29.14.625","exp","local","local",750,5,"NUETYLCAZMPX","XZPCHUMAYSTN",5,"H","hH","h",1,"S","sS","s",1,0.553930900001433,0.0246350999950664
"RSVPLG02",2.1,402,"lv","Experiment",1,78,"2024-09-24_12h29.20.832","exp","local","global",300,2,"ZNMLXHATEFUC","XFTHYPECZAUN",4,"H","hH","h",1,"H","hH","s",0,0.404934799997136,0.470957800003816
"RSVPLG02",2.1,402,"lv","Experiment",1,79,"2024-09-24_12h29.26.974","exp","local","local",300,2,"CFELYPZTAXUN","MAFPUHXSNLCE",6,"H","hH","h",1,"S","sS","s",1,0.463078600005247,0.167496100009885
"RSVPLG02",2.1,402,"lv","Experiment",1,80,"2024-09-24_12h29.32.963","exp","global","local",750,5,"FYXSACNMTZPU","MPFNZCLYSTXU",4,"S","sS","s",1,"S","sS","h",0,0.734687399992254,0.187006699998165
"RSVPLG02",2.1,402,"lv","Experiment",1,81,"2024-09-24_12h30.13.281","exp","global","local",750,5,"FLUYSZTXEPNM","ELPMTNXYFHCA",5,"S","sS","s",1,"H","hH","h",1,0.95020750000549,0.0409431000007316
"RSVPLG02",2.1,402,"lv","Experiment",1,82,"2024-09-24_12h30.20.542","exp","local","global",300,2,"APXUZHCLNFME","NAFSUYMTLCEZ",4,"S","sS","s",1,"H","hH","h",1,0.551248000003397,0.616957300007925
"RSVPLG02",2.1,402,"lv","Experiment",1,83,"2024-09-24_12h30.27.142","exp","global","local",750,5,"PYXASZCETMNU","CEYNZMLXASPF",5,"S","sS","s",1,"S","sS","h",0,0.655195199986338,0.201838799999678
"RSVPLG02",2.1,402,"lv","Experiment",1,84,"2024-09-24_12h30.33.281","exp","local","local",750,5,"ZFCUNMLPEAYX","CLTXHZFNPHUE",5,"H","hH","s",0,"H","hH","h",1,1.72676019999199,0.216683899998316
"RSVPLG02",2.1,402,"lv","Experiment",1,85,"2024-09-24_12h30.40.529","exp","global","global",300,2,"PANFEHXHTMYC","PZAFXYCMNLTU",6,"H","hH","h",1,"H","hH","h",1,0.624792000002344,0.600761399997282
"RSVPLG02",2.1,402,"lv","Experiment",1,86,"2024-09-24_12h30.47.238","exp","global","global",750,5,"CTLUSYEZXSMA","ETLYFMNACZUX",5,"S","sS","h",0,"S","sS","h",0,0.871290399998543,0.536880800005747
"RSVPLG02",2.1,402,"lv","Experiment",1,87,"2024-09-24_12h30.54.075","exp","global","global",300,2,"PXTCSAHZEUYN","FMZUNALTXPEY",5,"S","sS","s",1,"H","hH","s",0,0.599730300004012,0.217458500002977
"RSVPLG02",2.1,402,"lv","Experiment",1,88,"2024-09-24_12h31.00.896","exp","global","global",300,2,"YXNUSESLTZAM","FUTMCNLZPXYE",5,"S","sS","s",1,"S","sS","s",1,0.56195370000205,0.776583200000459
"RSVPLG02",2.1,402,"lv","Experiment",1,89,"2024-09-24_12h31.07.794","exp","local","global",750,5,"LFYMZEACTUSP","ZFNLTHXECAYP",6,"H","hH","h",1,"S","sS","h",0,0.515347599997767,0.344073300002492
"RSVPLG02",2.1,402,"lv","Experiment",1,90,"2024-09-24_12h31.14.129","exp","global","local",750,5,"MEXSCTAPLZYF","FAMYUEPZSNCL",4,"S","sS","h",0,"S","sS","s",1,0.895862700010184,0.650020200002473
"RSVPLG02",2.1,402,"lv","Experiment",1,91,"2024-09-24_12h31.21.169","exp","local","local",300,2,"FYEMULACZPTN","ZCXMHLHYUTEA",5,"H","hH","h",1,"H","hH","h",1,0.402533699991181,0.0390293999953428
"RSVPLG02",2.1,402,"lv","Experiment",1,92,"2024-09-24_12h31.27.226","exp","global","global",300,2,"ACMNHTHLEYZU","EZTFALNMPXUY",5,"H","hH","s",0,"H","hH","h",1,1.42772439999681,0.488899700008915
"RSVPLG02",2.1,402,"lv","Experiment",1,93,"2024-09-24_12h31.34.448","exp","local","local",300,2,"NPXCLAMUEYFZ","EPZSMHNFYLXC",4,"S","sS","s",1,"H","hH","s",0,0.434989899993525,0.153239299994311
"RSVPLG02",2.1,402,"lv","Experiment",1,94,"2024-09-24_12h31.40.337","exp","global","global",300,2,"ULCFSXHMTNPZ","TXFELCPZMNUY",5,"S","sS","s",1,"H","hH","h",1,2.08899350000138,0.408791000008932
"RSVPLG02",2.1,402,"lv","Experiment",1,95,"2024-09-24_12h31.48.272","exp","global","local",750,5,"LFZYTHNUACMP","AXMNPYLCZTHF",6,"H","hH","h",1,"H","hH","h",1,0.384057400005986,0.0391509999899426
"RSVPLG02",2.1,402,"lv","Experiment",1,96,"2024-09-24_12h31.54.082","exp","local","local",750,5,"PYMZECFXNTLA","NMEPXHLFYTSC",6,"H","hH","h",1,"S","sS","s",1,0.509115900000324,0.185142999995151
"RSVPLG02",2.1,402,"lv","Experiment",1,97,"2024-09-24_12h32.00.282","exp","global","local",750,5,"ZLNSUFTEAXMC","MXNTPYULHFAE",4,"S","sS","s",1,"H","hH","h",1,0.551147399994079,0.0725118999980623
"RSVPLG02",2.1,402,"lv","Experiment",1,98,"2024-09-24_12h32.06.288","exp","global","global",750,5,"UZNHFPCAHXLT","XCZLNETFAMUY",4,"H","hH","h",1,"H","hH","h",1,0.331751100005931,0.137601800000994
"RSVPLG02",2.1,402,"lv","Experiment",1,99,"2024-09-24_12h32.12.240","exp","local","global",300,2,"UTMEYCASFLXN","YFLUNSPEACMT",6,"S","sS","s",1,"S","sS","s",1,0.450365099997725,0.0888041999860434
"RSVPLG02",2.1,402,"lv","Experiment",1,100,"2024-09-24_12h32.18.018","exp","local","global",750,5,"NPALETCMZUSY","MAYFPSNEZUTL",6,"S","sS","s",1,"S","sS","s",1,0.863072799998918,0.457241000010981
"RSVPLG02",2.1,402,"lv","Experiment",1,101,"2024-09-24_12h32.24.744","exp","global","global",300,2,"LXEHMSNATZFP","AENFPMYULCTX",4,"H","hH","h",1,"S","sS","s",1,1.44066540000495,0.505923000004259
"RSVPLG02",2.1,402,"lv","Experiment",1,102,"2024-09-24_12h32.32.339","exp","global","global",750,5,"ZAYXSENULSPT","AZMXFEYNPUTC",5,"S","sS","s",1,"S","sS","h",0,1.47317280000425,0.462300899991533
"RSVPLG02",2.1,402,"lv","Experiment",1,103,"2024-09-24_12h32.39.649","exp","global","global",750,5,"UCAXLSYPEFST","LZCYUAENPTXM",6,"S","sS","s",1,"S","sS","s",1,0.371183800001745,0.0720975000003818
"RSVPLG02",2.1,402,"lv","Experiment",1,104,"2024-09-24_12h32.45.524","exp","local","local",300,2,"LEAPTZCUFXMY","FACHEHNMULTY",4,"H","hH","h",1,"H","hH","s",0,1.44229679999989,0.344495999990613
"RSVPLG02",2.1,402,"lv","Experiment",1,105,"2024-09-24_12h32.56.482","exp","local","local",750,5,"XLUPEYNMFTCA","UNYZHMPXASLF",5,"H","hH","h",1,"S","sS","s",1,0.543760500004282,0.951560799992876
"RSVPLG02",2.1,402,"lv","Experiment",1,106,"2024-09-24_12h33.03.441","exp","global","local",300,2,"LPYHMEUNZTFC","NZCMEHLTAXYU",4,"H","hH","h",1,"H","hH","h",1,0.617799800005741,0.0910581000061939
"RSVPLG02",2.1,402,"lv","Experiment",1,107,"2024-09-24_12h33.09.777","exp","local","global",750,5,"CMXYUZNLSEFP","ENAHMFXTCYPU",4,"H","hH","h",1,"S","sS","h",0,0.347889199998463,0.505375900000217
"RSVPLG02",2.1,402,"lv","Experiment",1,108,"2024-09-24_12h33.16.099","exp","global","local",300,2,"ECNZSYXMPTAL","YMAXPEHTFNLU",5,"S","sS","s",1,"H","hH","h",1,0.588394899998093,0.0404735000047367
"RSVPLG02",2.1,402,"lv","Experiment",1,109,"2024-09-24_12h33.22.922","exp","global","global",750,5,"CYAZHLNTPHMX","XLMCAFUNETZP",5,"H","hH","h",1,"H","hH","h",1,0.698652500010212,0.0562446999974782
"RSVPLG02",2.1,402,"lv","Experiment",1,110,"2024-09-24_12h33.29.043","exp","local","global",300,2,"LFYPMCNSAUXE","LZFENHTXAUPM",6,"H","hH","h",1,"S","sS","h",0,0.421551400009776,0.313092900003539
"RSVPLG02",2.1,402,"lv","Experiment",1,111,"2024-09-24_12h33.35.089","exp","local","local",750,5,"ELTZFPAYNUCM","ACUMHLFTXHNP",5,"H","hH","h",1,"H","hH","h",1,0.427601100003812,0.104123099998105
"RSVPLG02",2.1,402,"lv","Experiment",1,112,"2024-09-24_12h33.41.010","exp","global","global",300,2,"CFANESTSYZLX","NELZXFUPMACT",6,"S","sS","s",1,"S","sS","h",0,1.32249469999806,0.0413013999932446
"RSVPLG02",2.1,402,"lv","Experiment",1,113,"2024-09-24_12h33.47.971","exp","global","global",300,2,"UAXSNSPFCZEL","PFYUEZAMCNXL",4,"S","sS","s",1,"S","sS","s",1,0.715841700002784,0.0869705000077374
"RSVPLG02",2.1,402,"lv","Experiment",1,114,"2024-09-24_12h33.54.112","exp","local","global",300,2,"YCXMUANHLTEZ","AXPZNHUTFCLY",6,"H","hH","h",1,"H","hH","s",0,0.455632700002752,0.280509200005326
"RSVPLG02",2.1,402,"lv","Experiment",1,115,"2024-09-24_12h34.00.296","exp","local","global",750,5,"PYFNACLEUSMZ","ZELAHCYUTMPF",5,"H","hH","h",1,"S","sS","h",0,0.527278699999442,0.0240531000017654
"RSVPLG02",2.1,402,"lv","Experiment",1,116,"2024-09-24_12h34.06.191","exp","global","global",300,2,"ZMFYSNHULCPA","NYPFXCELTMAU",5,"S","sS","s",1,"H","hH","h",1,0.368969000002835,0.0412658999994164
"RSVPLG02",2.1,402,"lv","Experiment",1,117,"2024-09-24_12h34.13.400","exp","local","global",300,2,"XZYFALSPTNUM","FPZMSELTACNY",5,"S","sS","s",1,"S","sS","s",1,0.353282600000966,0.0413353000039933
"RSVPLG02",2.1,402,"lv","Experiment",1,118,"2024-09-24_12h34.19.171","exp","local","local",750,5,"UECFZMNYALXT","UAMSXTCPSNZE",4,"S","sS","s",1,"S","sS","s",1,0.355302800002391,0.0571624000003794
"RSVPLG02",2.1,402,"lv","Experiment",1,119,"2024-09-24_12h34.24.901","exp","local","global",750,5,"YXLAMUCPTNHF","AFLCPSZETYNU",6,"S","sS","h",0,"H","hH","s",0,1.01650149999477,0.760585299998638
"RSVPLG02",2.1,402,"lv","Experiment",1,120,"2024-09-24_12h34.31.987","exp","global","local",750,5,"UXFHENLCMAZY","TYCPAMXFSLNZ",4,"H","hH","h",1,"S","sS","s",1,0.937447500007693,0.183919399991282
"RSVPLG02",2.1,402,"lv","Experiment",1,121,"2024-09-24_12h35.08.834","exp","global","global",750,5,"PZXYSTAFCSLM","CMTNEALUZYXP",5,"S","sS","s",1,"S","sS","s",1,0.91172689999803,0.583665300000575
"RSVPLG02",2.1,402,"lv","Experiment",1,122,"2024-09-24_12h35.19.603","exp","local","local",300,2,"FYZMECLPXUNT","FCAEPSNHZULT",6,"S","sS","s",1,"H","hH","h",1,0.463628899989999,0.312934999994468
"RSVPLG02",2.1,402,"lv","Experiment",1,123,"2024-09-24_12h35.26.076","exp","local","local",750,5,"ZXMEYCTUPLAF","TMEYHCLNXHFA",5,"H","hH","h",1,"H","hH","h",1,0.649933699998655,0.105196400007117
"RSVPLG02",2.1,402,"lv","Experiment",1,124,"2024-09-24_12h35.32.532","exp","local","global",750,5,"YEZCAXMPSFLN","PFXSEMNYUACZ",4,"S","sS","s",1,"S","sS","s",1,0.460898799996357,0.0892457000009017
"RSVPLG02",2.1,402,"lv","Experiment",1,125,"2024-09-24_12h35.38.593","exp","global","local",750,5,"UXFMEHLNZTAP","AMXNTUYCLPHZ",6,"H","hH","h",1,"H","hH","h",1,0.687207700000727,0.297450699988985
"RSVPLG02",2.1,402,"lv","Experiment",1,126,"2024-09-24_12h35.45.026","exp","global","global",750,5,"XTLNFHUAEYHM","AXUZTLNCEFMP",6,"H","hH","h",1,"H","hH","h",1,0.872292100000777,0.362548599994625
"RSVPLG02",2.1,402,"lv","Experiment",1,127,"2024-09-24_12h35.51.572","exp","local","global",750,5,"XCNLZAMTYPHE","LFAPEHYNZCXT",6,"H","hH","h",1,"H","hH","h",1,0.504087699999218,0.632736700004898
"RSVPLG02",2.1,402,"lv","Experiment",1,128,"2024-09-24_12h35.58.708","exp","local","global",750,5,"TUMAYPFLHNEX","ATFHCXUELYZP",4,"H","hH","h",1,"H","hH","h",1,0.439615600000252,1.28773209999781
"RSVPLG02",2.1,402,"lv","Experiment",1,129,"2024-09-24_12h36.05.903","exp","global","local",750,5,"XAPENSYCZMUT","LUFTCZXMAYHE",6,"S","sS","s",1,"H","hH","h",1,0.540022400004091,0.457734800002072
"RSVPLG02",2.1,402,"lv","Experiment",1,130,"2024-09-24_12h36.12.467","exp","global","global",300,2,"CNUZEHLSTYFA","ZXTNMAELUYCP",6,"H","hH","h",1,"S","sS","s",1,0.71482599999581,0.0397542999999132
"RSVPLG02",2.1,402,"lv","Experiment",1,131,"2024-09-24_12h36.18.676","exp","local","local",750,5,"LEZMYNXFUTCA","XNTLHMCYAHFE",5,"H","hH","h",1,"H","hH","h",1,0.389357099993504,0.104399500007275
"RSVPLG02",2.1,402,"lv","Experiment",1,132,"2024-09-24_12h36.24.484","exp","global","local",300,2,"FYLZNHMAEXCU","NAZCLTMSYXEP",6,"H","hH","h",1,"S","sS","s",1,0.872326299999258,0.264883600000758
"RSVPLG02",2.1,402,"lv","Experiment",1,133,"2024-09-24_12h36.31.211","exp","local","local",750,5,"TCAEYUZMLFPN","FPLXMSAZNCSY",6,"S","sS","s",1,"S","sS","s",1,0.21702589999768,0.121625699990545
"RSVPLG02",2.1,402,"lv","Experiment",1,134,"2024-09-24_12h36.37.254","exp","local","local",750,5,"ZFETULPXAYNM","LMEYSFPNZHUA",5,"S","sS","s",1,"H","hH","h",1,0.573254100003396,0.013032300004852
"RSVPLG02",2.1,402,"lv","Experiment",1,135,"2024-09-24_12h36.43.443","exp","local","local",750,5,"ZTUECFPNMAXY","NXPYHFALZSUM",5,"H","hH","h",1,"S","sS","s",1,0.384113499996602,0.233424000005471
"RSVPLG02",2.1,402,"lv","Experiment",1,136,"2024-09-24_12h36.49.619","exp","global","local",300,2,"PAZHYTLMNXUF","LNZTUHPMYEAX",4,"H","hH","h",1,"H","hH","h",1,0.503192999996827,0.503013299996383
"RSVPLG02",2.1,402,"lv","Experiment",1,137,"2024-09-24_12h36.56.166","exp","local","global",750,5,"ZUPLEAYXHCMT","ALZSEUTYFPMC",4,"S","sS","s",1,"H","hH","h",1,0.646596199992928,0.0567327000026125
"RSVPLG02",2.1,402,"lv","Experiment",1,138,"2024-09-24_12h37.02.297","exp","global","local",750,5,"PTXLHFUEMZNY","UAXCYLPTNHZE",5,"H","hH","s",0,"H","hH","h",1,1.25774800000363,0.184279199995217
"RSVPLG02",2.1,402,"lv","Experiment",1,139,"2024-09-24_12h37.09.296","exp","local","local",750,5,"NUXFYATMPZEL","ZACYSNPMESFU",5,"S","sS","s",1,"S","sS","s",1,0.617971600004239,0.151992700004485
"RSVPLG02",2.1,402,"lv","Experiment",1,140,"2024-09-24_12h37.15.428","exp","local","local",300,2,"UZTNCYMEPLFX","NFASCSTYUPLX",4,"S","sS","s",1,"S","sS","s",1,0.302425000001676,0.361462799992296
"RSVPLG02",2.1,402,"lv","Experiment",1,141,"2024-09-24_12h37.21.622","exp","local","global",300,2,"ZCLUAYHTMNXE","NMPXHAFUZYCE",5,"H","hH","h",1,"H","hH","h",1,0.430639099999098,0.0562681999872439
"RSVPLG02",2.1,402,"lv","Experiment",1,142,"2024-09-24_12h37.27.684","exp","local","local",300,2,"LXENAUZCMYPT","XZYSNSTUCPEF",4,"S","sS","s",1,"S","sS","s",1,0.347413600000436,0.0553198999987217
"RSVPLG02",2.1,402,"lv","Experiment",1,143,"2024-09-24_12h37.35.717","exp","global","global",300,2,"CUZSYSTMPLAX","FLZPYXTANMUE",4,"S","sS","s",1,"S","sS","s",1,0.396078999998281,0.15251790000184
"RSVPLG02",2.1,402,"lv","Experiment",1,144,"2024-09-24_12h37.42.082","exp","global","global",300,2,"AZXMHPSUFLNE","XAMENUYFCZTP",5,"H","hH","h",1,"S","sS","h",0,0.499619700000039,0.345402000006288
"RSVPLG02",2.1,402,"lv","Experiment",1,145,"2024-09-24_12h37.48.884","exp","local","local",300,2,"TUNCFMLZAPXE","PYMXHUHTCEZA",5,"H","hH","h",1,"H","hH","h",1,0.402294200001052,0.342387099997723
"RSVPLG02",2.1,402,"lv","Experiment",1,146,"2024-09-24_12h37.55.046","exp","local","global",750,5,"LUPYZNFMXTSC","LFZNXSUPCYME",6,"S","sS","s",1,"S","sS","s",1,0.732346299992059,1.44866860000184
"RSVPLG02",2.1,402,"lv","Experiment",1,147,"2024-09-24_12h38.02.883","exp","global","global",750,5,"XPYUFSECTZHN","ATPENFXZLYCM",6,"S","sS","s",1,"H","hH","h",1,0.79486920000636,0.695889499998884
"RSVPLG02",2.1,402,"lv","Experiment",1,148,"2024-09-24_12h38.09.971","exp","local","global",750,5,"XCNMPEUFLYHA","LYXFNSPTACEU",6,"S","sS","s",1,"H","hH","s",0,0.46066250000149,0.201973900009762
"RSVPLG02",2.1,402,"lv","Experiment",1,149,"2024-09-24_12h38.17.187","exp","local","global",300,2,"LUMFNYSTZPCE","UPCLSAMEZYXT",5,"S","sS","s",1,"S","sS","h",0,0.429281100005028,0.121277599988389
"RSVPLG02",2.1,402,"lv","Experiment",1,150,"2024-09-24_12h38.23.227","exp","global","global",750,5,"XYCFPSAETUSM","ZYPFMUAXLTCE",6,"S","sS","s",1,"S","sS","s",1,0.488925100013148,0.10363789999974
"RSVPLG02",2.1,402,"lv","Experiment",1,151,"2024-09-24_12h38.31.503","exp","local","global",300,2,"UYTAMHCPNELZ","ZEYSXTUNAMPC",4,"S","sS","s",1,"H","hH","s",0,0.467616599999019,0.670393399996101
"RSVPLG02",2.1,402,"lv","Experiment",1,152,"2024-09-24_12h38.38.518","exp","global","local",750,5,"YFASPULTNXEM","MCYEXPZLHNAT",4,"S","sS","s",1,"H","hH","h",1,0.388190199999372,0.0244745000090916
"RSVPLG02",2.1,402,"lv","Experiment",1,153,"2024-09-24_12h38.44.356","exp","global","local",300,2,"CTUFHNAPLMXZ","LPMYCZSXAFUN",5,"H","hH","h",1,"S","sS","h",0,0.324565199989593,0.0247159999998985
"RSVPLG02",2.1,402,"lv","Experiment",1,154,"2024-09-24_12h38.50.164","exp","global","local",300,2,"CEYPNSZUFLXM","ELYNPZFHUMCX",6,"S","sS","s",1,"H","hH","s",0,0.457774499998777,0.247853000008035
"RSVPLG02",2.1,402,"lv","Experiment",1,155,"2024-09-24_12h38.56.200","exp","global","local",750,5,"ENYASMUCXPLZ","ZUENTPYXFHAL",5,"S","sS","s",1,"H","hH","h",1,0.39591430001019,0.248234600003343
"RSVPLG02",2.1,402,"lv","Experiment",1,156,"2024-09-24_12h39.02.535","exp","local","local",300,2,"NEFMPCZTYLXA","PEALMSYSXZFT",6,"S","sS","s",1,"S","sS","s",1,0.48364639999636,0.10522110000602
"RSVPLG02",2.1,402,"lv","Experiment",1,157,"2024-09-24_12h39.08.550","exp","local","global",750,5,"TNAPECUZMSFX","PEANSZCLYFUX",5,"S","sS","s",1,"S","sS","h",0,0.467119699998875,0.00833170000987593
"RSVPLG02",2.1,402,"lv","Experiment",1,158,"2024-09-24_12h39.14.447","exp","global","global",750,5,"UNYHACELHMFP","EYPFAXNLUTMC",4,"H","hH","h",1,"H","hH","h",1,0.282803099995363,0.00802369999291841
"RSVPLG02",2.1,402,"lv","Experiment",1,159,"2024-09-24_12h39.20.304","exp","local","local",750,5,"PXCYFNLMZTEA","NMZCSEAXTHUF",5,"S","sS","s",1,"H","hH","h",1,0.427333799991175,0.632028199994238
"RSVPLG02",2.1,402,"lv","Experiment",1,160,"2024-09-24_12h39.27.365","exp","global","global",300,2,"EYUTHPSZMXCN","FLTNMAUZEYCX",5,"H","hH","h",1,"S","sS","s",1,0.44262100000924,0.169149800000014
"RSVPLG02",2.1,402,"lv","Experiment",1,161,"2024-09-24_12h40.08.247","exp","local","local",300,2,"PECXTALZNUYF","TUXSZSFAMCEL",4,"S","sS","s",1,"S","sS","s",1,0.479200600006152,0.0558095000014873
"RSVPLG02",2.1,402,"lv","Experiment",1,162,"2024-09-24_12h40.15.670","exp","global","local",300,2,"ZTESFUXAYMLP","ZXAECSTULYPM",4,"S","sS","s",1,"S","sS","s",1,0.330129900001339,0.0263408999890089
"RSVPLG02",2.1,402,"lv","Experiment",1,163,"2024-09-24_12h40.21.361","exp","local","local",750,5,"LZCNUYMFTPAX","LCXHZMNFHEYU",4,"H","hH","h",1,"H","hH","h",1,0.358310300012818,0.69649109999591
"RSVPLG02",2.1,402,"lv","Experiment",1,164,"2024-09-24_12h40.27.717","exp","local","local",300,2,"MZUXFCNYTPEA","FMNSZSUTCEXA",4,"S","sS","s",1,"S","sS","s",1,0.455831100000069,0.153219799991348
"RSVPLG02",2.1,402,"lv","Experiment",1,165,"2024-09-24_12h40.33.672","exp","local","local",300,2,"ZANCUPELTYFM","AYZSUSXNFCLE",4,"S","sS","s",1,"S","sS","s",1,0.32002499999362,0.0397546000021975
"RSVPLG02",2.1,402,"lv","Practice Both",1,1,"2024-09-24_12h14.30.549","prac","global","local",750,5,"XPCSYMAFEZTU","CLMYEZPTSFAU",4,"S","sS","s",1,"S","sS","s",1,1.22741730000416,6.836512400012
"RSVPLG02",2.1,402,"lv","Practice Both",1,2,"2024-09-24_12h14.46.878","prac","global","global",300,2,"FYEMTSAHLCNU","NTEFYMXLPCZU",6,"S","sS","s",1,"H","hH","s",0,1.82053699999233,4.10416950000217
"RSVPLG02",2.1,402,"lv","Practice Both",1,3,"2024-09-24_12h14.59.940","prac","local","global",300,2,"CTPZLHFAXUEN","NFESUZCYLXPT",4,"S","sS","s",1,"H","hH","h",1,1.4222063000052,2.11886970000342
"RSVPLG02",2.1,402,"lv","Practice Both",1,4,"2024-09-24_12h15.09.885","prac","local","global",300,2,"YPECFMHNLZAX","FCTUHEMYNXPL",5,"H","hH","h",1,"H","hH","h",1,2.66533269999491,1.38293720000365
"RSVPLG02",2.1,402,"lv","Practice Both",1,5,"2024-09-24_12h15.19.751","prac","local","local",300,2,"NPTAXZMFCYLU","ETCFZHYSXLNU",6,"H","hH","h",1,"S","sS","s",1,1.18665080000937,0.695329099995433
"RSVPLG02",2.1,402,"lv","Practice Both",1,6,"2024-09-24_12h15.27.464","prac","global","local",750,5,"XEPCMSYLUANF","ZNPFLUEAXMHT",6,"S","sS","h",0,"H","hH","s",0,2.3715094000072,0.23072159998992
"RSVPLG02",2.1,402,"lv","Practice Both",1,7,"2024-09-24_12h15.35.929","prac","local","local",750,5,"NTUCALZPEMYX","EZXMNSYUCTHL",6,"S","sS","s",1,"H","hH","h",1,1.1290474000125,0.407280900006299
"RSVPLG02",2.1,402,"lv","Practice Both",1,8,"2024-09-24_12h15.43.941","prac","global","global",750,5,"PFYUXHACZLSN","TEZCLNYXUPMF",6,"H","hH","h",1,"S","sS","s",1,1.63957289999234,0.439474900005735
"RSVPLG02",2.1,402,"lv","Practice Both",1,9,"2024-09-24_12h15.51.719","prac","local","local",300,2,"FPXCTYLENZAM","XZUSPSMFNTEL",4,"S","sS","s",1,"S","sS","s",1,0.624256499999319,0.490822499996284
"RSVPLG02",2.1,402,"lv","Practice Both",1,10,"2024-09-24_12h15.58.633","prac","local","local",750,5,"YALNFUMTCPXZ","PAXYSMNTUSFL",5,"S","sS","s",1,"S","sS","s",1,0.629175599999144,0.551150600003893
"RSVPLG02",2.1,402,"lv","Practice Both",1,11,"2024-09-24_12h16.05.721","prac","local","global",750,5,"NFTCUZMEAHLY","MZNAHLFUCYTP",5,"H","hH","h",1,"H","hH","h",1,1.35263100000157,1.57465819999925
"RSVPLG02",2.1,402,"lv","Practice Both",1,12,"2024-09-24_12h16.14.313","prac","global","global",300,2,"TUZSNHPCFYAL","TEZYLFUMCPAX",4,"S","sS","s",1,"H","hH","h",1,1.93083340000885,0.375243299989961
"RSVPLG02",2.1,402,"lv","Practice Both",1,13,"2024-09-24_12h16.22.335","prac","global","local",300,2,"LYESCZUXTNPA","PTFCNSXLYEZU",4,"S","sS","s",1,"S","sS","h",0,2.52997380000306,0.038938199999393
"RSVPLG02",2.1,402,"lv","Practice Both",1,14,"2024-09-24_12h16.30.758","prac","global","global",750,5,"TLASPFXUHEYM","ZCYTMNPAFELU",4,"S","sS","s",1,"H","hH","s",0,1.49711840000236,0.360755500005325
"RSVPLG02",2.1,402,"lv","Practice Both",1,15,"2024-09-24_12h16.38.936","prac","global","local",300,2,"EFUPHCLMTYNZ","YNPFUASLZMCE",5,"H","hH","h",1,"S","sS","s",1,1.6502024000074,0.31376679999812
"RSVPLG02",2.1,402,"lv","Practice Both",1,16,"2024-09-24_12h16.47.017","prac","local","global",750,5,"CYAUZFXENHTM","XCULSFAENZYM",5,"S","sS","s",1,"H","hH","s",0,0.956885899999179,0.10317909999867
"RSVPLG02",2.1,402,"lv","Practice T1",1,1,"2024-09-24_12h03.34.525","prac","local","global",750,5,"CENYMUTXPFHA","ALMTXSNCUFZP",6,"S","sS","s",1,"H","hH","none",-5,3.06057050000527,0
"RSVPLG02",2.1,402,"lv","Practice T1",1,2,"2024-09-24_12h03.49.682","prac","global","local",750,5,"EUAHCPYLXTNZ","CLEAUPXFSMTN",4,"H","hH","s",0,"S","sS","none",-5,1.58937810000498,0
"RSVPLG02",2.1,402,"lv","Practice T1",1,3,"2024-09-24_12h03.59.276","prac","local","global",300,2,"XNEYAMHUTPFL","ZAMESXTNFCPY",5,"S","sS","s",1,"H","hH","none",-5,1.13103299999784,0
"RSVPLG02",2.1,402,"lv","Practice T1",1,4,"2024-09-24_12h04.08.895","prac","global","local",300,2,"ECYHMNPUZTXA","LNXFMHAUTPCE",4,"H","hH","h",1,"H","hH","none",-5,1.31164010000066,0
"RSVPLG02",2.1,402,"lv","Practice T1",1,5,"2024-09-24_12h04.20.060","prac","local","global",300,2,"EPCUYHMXZANL","UYCHZAFPTMNE",4,"H","hH","s",0,"H","hH","none",-5,2.15116480000142,0
"RSVPLG02",2.1,402,"lv","Practice T1",1,6,"2024-09-24_12h04.28.316","prac","local","local",300,2,"PNCMUFYTXZLA","TZUXHNSEFAMY",5,"H","hH","s",0,"S","sS","none",-5,0.952797299993108,0
"RSVPLG02",2.1,402,"lv","Practice T1",1,7,"2024-09-24_12h04.35.893","prac","local","local",300,2,"ZANUFTCXLEMP","FLMTPHESZNYC",6,"H","hH","h",1,"S","sS","none",-5,1.39061299999594,0
"RSVPLG02",2.1,402,"lv","Practice T1",1,8,"2024-09-24_12h04.43.438","prac","local","local",750,5,"TEYPFLMCUNAX","TAXMUSPLEZSC",6,"S","sS","s",1,"S","sS","none",-5,1.32001149999269,0
"RSVPLG02",2.1,402,"lv","Practice T1",1,9,"2024-09-24_12h04.50.211","prac","global","global",300,2,"EXYNSASCLUZT","PTAMZCFLEXYN",5,"S","sS","h",0,"S","sS","none",-5,4.0775813000073,0
"RSVPLG02",2.1,402,"lv","Practice T1",1,10,"2024-09-24_12h05.02.029","prac","local","global",750,5,"CZLPATNMFHYE","UPMAHTNYCEFX",5,"H","hH","s",0,"H","hH","none",-5,3.09000219999871,0
"RSVPLG02",2.1,402,"lv","Practice T1",1,11,"2024-09-24_12h05.11.196","prac","global","local",750,5,"EYAZSFUXMPNL","TZPYEFMNCHLU",5,"S","sS","h",0,"H","hH","none",-5,1.05643730000884,0
"RSVPLG02",2.1,402,"lv","Practice T1",1,12,"2024-09-24_12h05.18.493","prac","global","local",300,2,"UTXHYFMPLZCN","FPLNUSXAEMTY",4,"H","hH","s",0,"S","sS","none",-5,0.959054299994023,0
"RSVPLG02",2.1,402,"lv","Practice T1",1,13,"2024-09-24_12h05.27.254","prac","global","global",750,5,"LXNHTYAEHMFU","FAEPYCLNXUMZ",4,"H","hH","h",1,"H","hH","none",-5,2.05664239999896,0
"RSVPLG02",2.1,402,"lv","Practice T1",1,14,"2024-09-24_12h05.37.802","prac","global","global",750,5,"YTUEHAMZFHLX","NECYFZPUXLTA",5,"H","hH","h",1,"H","hH","none",-5,1.62986489999457,0
"RSVPLG02",2.1,402,"lv","Practice T1",1,15,"2024-09-24_12h05.45.179","prac","local","local",750,5,"NLYETACFZMXU","CPNSEXLUHZMT",4,"S","sS","s",1,"H","hH","none",-5,1.53622819999873,0
"RSVPLG02",2.1,402,"lv","Practice T1",1,16,"2024-09-24_12h05.52.604","prac","global","global",300,2,"PCTUZHLSMNEY","UZYXCNMTEFLA",6,"H","hH","h",1,"S","sS","none",-5,1.09005550001166,0
"RSVPLG02",2.1,402,"LV","Practice T1",2,1,"2024-09-24_12h06.58.407","prac","global","global",750,5,"CPMTYHUFANHX","LNYPMAFETUCX",6,"H","hH","h",1,"H","hH","none",-5,1.8696476000041,0
"RSVPLG02",2.1,402,"LV","Practice T1",2,2,"2024-09-24_12h07.09.479","prac","global","local",300,2,"PEFSZLTAXCYU","UNZMFSTLPXAE",4,"S","sS","s",1,"S","sS","none",-5,0.986951700004283,0
"RSVPLG02",2.1,402,"LV","Practice T1",2,3,"2024-09-24_12h07.15.955","prac","local","local",750,5,"NZLUFAYPMXCE","PLAZHTUFESXM",5,"H","hH","s",0,"S","sS","none",-5,1.17822290000913,0
"RSVPLG02",2.1,402,"LV","Practice T1",2,4,"2024-09-24_12h07.23.212","prac","local","global",300,2,"PEUAFHMNCZTY","AYLSETUCMZXF",4,"S","sS","h",0,"H","hH","none",-5,1.15104939999583,0
"RSVPLG02",2.1,402,"LV","Practice T1",2,5,"2024-09-24_12h07.30.255","prac","local","global",750,5,"NEAMCZLUYSFP","UCFASYMTPNLE",5,"S","sS","h",0,"S","sS","none",-5,2.8464052999916,0
"RSVPLG02",2.1,402,"LV","Practice T1",2,6,"2024-09-24_12h07.39.343","prac","local","global",750,5,"PUFYTXLNHAEZ","EANHMYZTCPFL",4,"H","hH","s",0,"H","hH","none",-5,2.57647900001029,0
"RSVPLG02",2.1,402,"LV","Practice T1",2,7,"2024-09-24_12h07.47.688","prac","local","local",300,2,"EPATYFMNUCLZ","AMXHPHUFZLTE",4,"H","hH","s",0,"H","hH","none",-5,2.04730369999015,0
"RSVPLG02",2.1,402,"LV","Practice T1",2,8,"2024-09-24_12h07.56.461","prac","global","local",300,2,"APXYHNZFCEUM","XULTFZHMANYE",5,"H","hH","h",1,"H","hH","none",-5,0.889143099993817,0
"RSVPLG02",2.1,402,"LV","Practice T1",2,9,"2024-09-24_12h08.05.274","prac","local","global",300,2,"ZMUCAHXTYLNE","NAESFMXLZTYU",4,"S","sS","s",1,"H","hH","none",-5,0.984451399999671,0
"RSVPLG02",2.1,402,"LV","Practice T1",2,10,"2024-09-24_12h08.11.947","prac","global","global",300,2,"MZPUYHTHLXNC","ZXPYECULMAFN",6,"H","hH","h",1,"H","hH","none",-5,1.50307720000274,0
"RSVPLG02",2.1,402,"LV","Practice T1",2,11,"2024-09-24_12h08.18.991","prac","local","local",750,5,"EMPXYALFTUCN","PZNHAUCFSETX",4,"H","hH","s",0,"S","sS","none",-5,0.993258600006811,0
"RSVPLG02",2.1,402,"LV","Practice T1",2,12,"2024-09-24_12h08.25.342","prac","local","local",300,2,"PLXYFATMUEZN","CUZFHXHEATML",5,"H","hH","h",1,"H","hH","none",-5,0.522230400005355,0
"RSVPLG02",2.1,402,"LV","Practice T1",2,13,"2024-09-24_12h08.32.318","prac","global","global",750,5,"MTXHPZFLHUAC","MLEAYZPCUFTX",4,"H","hH","h",1,"H","hH","none",-5,3.51230040000519,0
"RSVPLG02",2.1,402,"LV","Practice T1",2,14,"2024-09-24_12h08.42.075","prac","global","local",750,5,"NXLPYSCTAMEZ","AUNZTMXLPCSY",6,"S","sS","s",1,"S","sS","none",-5,1.41790980000223,0
"RSVPLG02",2.1,402,"LV","Practice T1",2,15,"2024-09-24_12h08.49.692","prac","global","local",750,5,"PFNLHCZEAYUX","XFZTNYPMEHUC",5,"H","hH","s",0,"H","hH","none",-5,1.22614670000621,0
"RSVPLG02",2.1,402,"LV","Practice T1",2,16,"2024-09-24_12h08.56.501","prac","global","global",300,2,"XFNSZHETCAUY","CFMUXNYZAPLE",4,"S","sS","h",0,"H","hH","none",-5,1.19537049999053,0
"RSVPLG02",2.1,402,"lv","Practice T1",3,1,"2024-09-24_12h10.09.541","prac","local","global",750,5,"PCNALYFZHEMT","UTXSLCAYPMFE",4,"S","sS","s",1,"H","hH","none",-5,0.825493800002732,0
"RSVPLG02",2.1,402,"lv","Practice T1",3,2,"2024-09-24_12h10.17.696","prac","local","global",750,5,"UNTYMZFLAHCE","MAZLSUYPXTNC",5,"S","sS","h",0,"H","hH","none",-5,1.68385539999872,0
"RSVPLG02",2.1,402,"lv","Practice T1",3,3,"2024-09-24_12h10.24.998","prac","global","local",750,5,"XCZNSEUFAYMT","XZPLMUNFYSAC",5,"S","sS","s",1,"S","sS","none",-5,1.0889210000023,0
"RSVPLG02",2.1,402,"lv","Practice T1",3,4,"2024-09-24_12h10.31.945","prac","global","local",300,2,"YFNSUTEZLXCM","NCMLFSTXYEUZ",4,"S","sS","s",1,"S","sS","none",-5,0.564412000006996,0
"RSVPLG02",2.1,402,"lv","Practice T1",3,5,"2024-09-24_12h10.38.029","prac","global","global",750,5,"NYAHEULCSTMF","AUCNFZXELYTP",4,"H","hH","h",1,"S","sS","none",-5,1.1413523999945,0
"RSVPLG02",2.1,402,"lv","Practice T1",3,6,"2024-09-24_12h10.44.767","prac","local","global",300,2,"ECULTHYNPFZM","YLTHAFEPCXMZ",4,"H","hH","s",0,"H","hH","none",-5,1.56095649999043,0
"RSVPLG02",2.1,402,"lv","Practice T1",3,7,"2024-09-24_12h10.52.991","prac","local","local",300,2,"NLFAUPETCMZY","NUATHPHEMYLX",5,"H","hH","h",1,"H","hH","none",-5,0.818643099992187,0
"RSVPLG02",2.1,402,"lv","Practice T1",3,8,"2024-09-24_12h10.59.486","prac","global","global",300,2,"ALEYFHNSXUCT","MUAEFXLTZCYP",6,"H","hH","h",1,"S","sS","none",-5,1.94894299999578,0
"RSVPLG02",2.1,402,"lv","Practice T1",3,9,"2024-09-24_12h11.07.263","prac","local","local",300,2,"EZLXTUCNPAYF","XMZYUHCSFETL",6,"H","hH","s",0,"S","sS","none",-5,1.20963219999976,0
"RSVPLG02",2.1,402,"lv","Practice T1",3,10,"2024-09-24_12h11.14.161","prac","global","global",750,5,"AZYNHLUXEHTM","XACZTPYUMELN",5,"H","hH","h",1,"H","hH","none",-5,1.17960370000219,0
"RSVPLG02",2.1,402,"lv","Practice T1",3,11,"2024-09-24_12h11.21.583","prac","global","local",300,2,"TYLNZHXEMAPU","LEPTCNZHFMYX",6,"H","hH","h",1,"H","hH","none",-5,1.10743250000814,0
"RSVPLG02",2.1,402,"lv","Practice T1",3,12,"2024-09-24_12h11.29.066","prac","global","global",300,2,"PXELHTSUNMAY","LMYZUCAETPXN",5,"H","hH","h",1,"S","sS","none",-5,0.907428900012746,0
"RSVPLG02",2.1,402,"lv","Practice T1",3,13,"2024-09-24_12h11.35.392","prac","local","local",750,5,"ZTLUFEXCAMNY","ZNFXSPTUYSCA",5,"S","sS","s",1,"S","sS","none",-5,1.00574839999899,0
"RSVPLG02",2.1,402,"lv","Practice T1",3,14,"2024-09-24_12h11.41.793","prac","global","local",750,5,"NLEMCSXFUPYT","PZLYFUANTMSE",6,"S","sS","s",1,"S","sS","none",-5,1.20873189999838,0
"RSVPLG02",2.1,402,"lv","Practice T1",3,15,"2024-09-24_12h11.48.125","prac","local","local",750,5,"CXZLEFNTMYPA","CNEUXSZYTFSM",6,"S","sS","s",1,"S","sS","none",-5,0.915647300003911,0
"RSVPLG02",2.1,402,"lv","Practice T1",3,16,"2024-09-24_12h11.54.495","prac","local","global",300,2,"TAYMCZHLEPNU","LAZESYUXNPCF",5,"S","sS","h",0,"H","hH","none",-5,0.753540400008205,0
"RSVPLG02",2.1,403,"jh","Experiment",1,1,"2024-09-24_14h23.31.257","warmup","global","local",750,5,"NMETYHZCLFPA","FCYXZEPTAUSL",6,"H","hH","h",1,"S","sS","s",1,3.21341779999784,1.59012569999322
"RSVPLG02",2.1,403,"jh","Experiment",1,2,"2024-09-24_14h23.54.030","warmup","local","local",750,5,"PNFATZLMEXCY","TCMHEULNHZAY",4,"H","hH","h",1,"H","hH","h",1,1.29116150000482,0.41276310000103
"RSVPLG02",2.1,403,"jh","Experiment",1,3,"2024-09-24_14h24.01.877","warmup","global","local",300,2,"TZPHCXEUYLMF","AUPYMHNTLXFC",4,"H","hH","h",1,"H","hH","s",0,2.46508180000819,1.24097499999334
"RSVPLG02",2.1,403,"jh","Experiment",1,4,"2024-09-24_14h24.11.409","warmup","local","local",300,2,"CXFEYPATZUML","NAXTCSEHLPFU",6,"S","sS","s",1,"H","hH","h",1,0.954449299999396,0.375728400002117
"RSVPLG02",2.1,403,"jh","Experiment",1,5,"2024-09-24_14h24.18.642","warmup","global","global",300,2,"XPNCSFSTYMUA","FUTZCPENMXAY",5,"S","sS","s",1,"S","sS","s",1,0.776326999999583,0.312635800000862
"RSVPLG02",2.1,403,"jh","Experiment",1,6,"2024-09-24_14h24.25.365","exp","local","local",750,5,"TENAFPCUYMXL","YZNFSCEMXHUT",5,"S","sS","s",1,"H","hH","h",1,0.976433699994232,0.728398199993535
"RSVPLG02",2.1,403,"jh","Experiment",1,7,"2024-09-24_14h24.32.940","exp","local","local",750,5,"EXATYLMZUCPF","PYZNAHUXMEHT",6,"H","hH","h",1,"H","hH","h",1,1.06523759999254,0.32839700000477
"RSVPLG02",2.1,403,"jh","Experiment",1,8,"2024-09-24_14h24.39.976","exp","global","global",750,5,"ENUSCTXYHFLA","YPXLTCNUZMFE",4,"S","sS","s",1,"H","hH","h",1,1.02152299998852,0.216689599998062
"RSVPLG02",2.1,403,"jh","Experiment",1,9,"2024-09-24_14h24.46.722","exp","local","global",300,2,"ZCFMLEHYUTNP","PFMXHNTAUCEZ",5,"H","hH","h",1,"H","hH","h",1,1.01994720000948,0.264654200000223
"RSVPLG02",2.1,403,"jh","Experiment",1,10,"2024-09-24_14h24.53.527","exp","global","local",300,2,"FZMSCAYTEPLN","UXMYTSAPNLFE",4,"S","sS","s",1,"S","sS","s",1,0.676490300000296,0.185087499994552
"RSVPLG02",2.1,403,"jh","Experiment",1,11,"2024-09-24_14h24.59.896","exp","local","local",300,2,"YXMCPANULTZF","PETSFSACZMUL",4,"S","sS","s",1,"S","sS","s",1,0.722207799990429,0.311951200012118
"RSVPLG02",2.1,403,"jh","Experiment",1,12,"2024-09-24_14h25.06.617","exp","local","local",750,5,"ZLTXNMAUYCPE","YFTMUHAPNCSE",6,"H","hH","h",1,"S","sS","s",1,1.06638109999767,0.280727999997907
"RSVPLG02",2.1,403,"jh","Experiment",1,13,"2024-09-24_14h25.13.607","exp","local","local",300,2,"FNPLTAYXECMZ","CXZHLSUEATFN",4,"H","hH","h",1,"S","sS","s",1,0.743915600003675,0.235862100002123
"RSVPLG02",2.1,403,"jh","Experiment",1,14,"2024-09-24_14h25.19.990","exp","global","global",300,2,"LUTHMSPAZXCE","YPMALETNXFUZ",4,"H","hH","h",1,"S","sS","s",1,0.800388900010148,0.168587299995124
"RSVPLG02",2.1,403,"jh","Experiment",1,15,"2024-09-24_14h25.27.334","exp","local","local",300,2,"AUNMZYLXCEFP","MYCSTSEXAPZU",4,"S","sS","s",1,"S","sS","s",1,0.67747710000549,0.281141600004048
"RSVPLG02",2.1,403,"jh","Experiment",1,16,"2024-09-24_14h25.33.800","exp","global","local",750,5,"MXPAHYUTZNFC","PMCAETFLUSNY",5,"H","hH","h",1,"S","sS","s",1,2.94606779998867,0.585035099997185
"RSVPLG02",2.1,403,"jh","Experiment",1,17,"2024-09-24_14h25.43.981","exp","global","global",750,5,"CLFYXSZEANSU","FEZCTMPLAYXN",6,"S","sS","s",1,"S","sS","s",1,1.18114590000187,0.280254900004365
"RSVPLG02",2.1,403,"jh","Experiment",1,18,"2024-09-24_14h25.50.937","exp","local","global",300,2,"MCEXLFZHNYTU","NUXYZSEFPTMA",6,"S","sS","s",1,"H","hH","h",1,1.79377010000462,0.296424599990132
"RSVPLG02",2.1,403,"jh","Experiment",1,19,"2024-09-24_14h25.58.414","exp","local","local",750,5,"MZTYAULCPFXE","MXTSAUFYSPZC",4,"S","sS","s",1,"S","sS","s",1,0.883209599996917,0.264719600003446
"RSVPLG02",2.1,403,"jh","Experiment",1,20,"2024-09-24_14h26.04.983","exp","global","global",750,5,"TPXHNYUMSFZL","YPEFALNZXCMU",4,"H","hH","h",1,"S","sS","s",1,1.00438779999968,0.248133600005531
"RSVPLG02",2.1,403,"jh","Experiment",1,21,"2024-09-24_14h26.11.929","exp","global","local",750,5,"LNYUHFATMEXP","YMLNUAXPESTC",5,"H","hH","h",1,"S","sS","s",1,0.92826069999137,0.350238400002127
"RSVPLG02",2.1,403,"jh","Experiment",1,22,"2024-09-24_14h26.18.536","exp","local","global",750,5,"UFZTXMENCYSP","UMPYLHTXNFEC",6,"H","hH","h",1,"S","sS","s",1,2.86141700000735,0.029612599988468
"RSVPLG02",2.1,403,"jh","Experiment",1,23,"2024-09-24_14h26.30.039","exp","global","local",750,5,"EAMFPSNCLZTX","MTFLYAEUCXHZ",6,"S","sS","s",1,"H","hH","s",0,1.91108550000354,0.233659199991962
"RSVPLG02",2.1,403,"jh","Experiment",1,24,"2024-09-24_14h26.37.737","exp","local","local",300,2,"FMATLPCXNYZU","LPTSMSCAXZUE",4,"S","sS","s",1,"S","sS","s",1,1.22464030000265,0.236739800006035
"RSVPLG02",2.1,403,"jh","Experiment",1,25,"2024-09-24_14h26.45.111","exp","local","local",750,5,"ZPLAFECUMYTN","FMELXHNATPSU",6,"H","hH","h",1,"S","sS","s",1,0.946645799995167,0.329613599998993
"RSVPLG02",2.1,403,"jh","Experiment",1,26,"2024-09-24_14h26.51.961","exp","local","global",750,5,"PEYAFUCXZSLT","UFNLSXPMEYTA",5,"S","sS","h",0,"S","sS","s",1,4.26746410000487,2.71314980000898
"RSVPLG02",2.1,403,"jh","Experiment",1,27,"2024-09-24_14h27.04.280","exp","global","global",300,2,"AYUNSMSXZLFE","ACPFULYZTNMX",5,"S","sS","s",1,"S","sS","s",1,0.779707399997278,0.087941600009799
"RSVPLG02",2.1,403,"jh","Experiment",1,28,"2024-09-24_14h27.12.133","exp","global","global",750,5,"XNFUTSAZCLSY","FLNYEXCZAUMT",6,"S","sS","s",1,"S","sS","s",1,1.11604899998929,0.199724199992488
"RSVPLG02",2.1,403,"jh","Experiment",1,29,"2024-09-24_14h27.20.487","exp","local","local",750,5,"FCXTEUMALNZP","NFXUMSPYTASC",6,"S","sS","s",1,"S","sS","s",1,1.00407580001047,0.220686499989824
"RSVPLG02",2.1,403,"jh","Experiment",1,30,"2024-09-24_14h27.27.224","exp","local","local",300,2,"ATLUCYFZNPMX","FTCSLSXYNUMZ",4,"S","sS","s",1,"S","sS","s",1,1.89883330000157,0.318497599990224
"RSVPLG02",2.1,403,"jh","Experiment",1,31,"2024-09-24_14h27.34.775","exp","local","global",300,2,"FENYPTCHUMAL","EXUPCSLZTANM",6,"S","sS","s",1,"H","hH","s",0,2.03000990000146,0.712628399996902
"RSVPLG02",2.1,403,"jh","Experiment",1,32,"2024-09-24_14h27.42.792","exp","local","global",750,5,"ZLCNPMYTXHFE","EPXFSNCAYLZU",5,"S","sS","s",1,"H","hH","h",1,1.38777209998807,0.265110400010599
"RSVPLG02",2.1,403,"jh","Experiment",1,33,"2024-09-24_14h27.50.071","exp","local","local",750,5,"XMYUTFCAENPZ","TPNSYFMZSLAX",4,"S","sS","s",1,"S","sS","s",1,1.17804499999329,0.45592310000211
"RSVPLG02",2.1,403,"jh","Experiment",1,34,"2024-09-24_14h27.58.391","exp","global","global",750,5,"LUFZPSMCTNHE","PTXECUFMZLAN",6,"S","sS","s",1,"H","hH","h",1,1.45023339999898,0.329272599992692
"RSVPLG02",2.1,403,"jh","Experiment",1,35,"2024-09-24_14h28.05.641","exp","local","local",750,5,"AELCYXNUMTZF","UNYXCHPEFASM",6,"H","hH","h",1,"S","sS","s",1,0.831281799997669,0.334741800004849
"RSVPLG02",2.1,403,"jh","Experiment",1,36,"2024-09-24_14h28.12.792","exp","local","global",750,5,"LZXYMUCTNSFP","YULZSXFAMNEC",5,"S","sS","s",1,"S","sS","h",0,1.02811590000056,0.280809799995041
"RSVPLG02",2.1,403,"jh","Experiment",1,37,"2024-09-24_14h28.19.354","exp","global","local",300,2,"PXUYSAZFENLT","MACPLUHZTXNF",5,"S","sS","s",1,"H","hH","s",0,0.669169100001454,0.313158599994495
"RSVPLG02",2.1,403,"jh","Experiment",1,38,"2024-09-24_14h28.25.833","exp","local","global",750,5,"EZMUAFYPTXSC","TLPYXHNFEMZA",6,"H","hH","h",1,"S","sS","s",1,2.05355729999428,0.329109199999948
"RSVPLG02",2.1,403,"jh","Experiment",1,39,"2024-09-24_14h28.36.904","exp","global","local",300,2,"PATNSLZCEMFX","NFATYCHXUZLM",5,"S","sS","h",0,"H","hH","s",0,2.25774909999745,0.31207080000604
"RSVPLG02",2.1,403,"jh","Experiment",1,40,"2024-09-24_14h28.44.995","exp","global","local",300,2,"LYATZHCNEFPU","ZUYMTFNHPCEA",6,"H","hH","h",1,"H","hH","s",0,0.905959299998358,0.105668699994567
"RSVPLG02",2.1,403,"jh","Experiment",1,41,"2024-09-24_14h29.26.482","exp","local","local",300,2,"LNZAXYMUCTFE","XTUYHMSZENFP",5,"H","hH","h",1,"S","sS","s",1,0.675452900002711,0.200254799987306
"RSVPLG02",2.1,403,"jh","Experiment",1,42,"2024-09-24_14h29.35.192","exp","local","global",750,5,"FTNYEUMCSPXA","NMEHTPUFLXAY",4,"H","hH","h",1,"S","sS","h",0,2.49742880000849,1.81577040000411
"RSVPLG02",2.1,403,"jh","Experiment",1,43,"2024-09-24_14h29.44.723","exp","local","local",300,2,"AUZMCLENPYFX","UZLMXSTHPFYC",6,"S","sS","s",1,"H","hH","h",1,0.730751399998553,0.53695899999002
"RSVPLG02",2.1,403,"jh","Experiment",1,44,"2024-09-24_14h29.51.484","exp","global","global",300,2,"NMAFSLSCPUYE","PNZXTLCUYAFE",5,"S","sS","s",1,"S","sS","s",1,0.745934000005946,0.0892533000005642
"RSVPLG02",2.1,403,"jh","Experiment",1,45,"2024-09-24_14h29.57.544","exp","global","local",300,2,"LYFUHZNCTAPX","XCPMLNSUETZY",5,"H","hH","h",1,"S","sS","s",1,0.708244499997818,0.137368999989121
"RSVPLG02",2.1,403,"jh","Experiment",1,46,"2024-09-24_14h30.03.689","exp","global","global",750,5,"PZNELHXAMCHU","UFLZATYCNEMX",6,"H","hH","h",1,"H","hH","h",1,0.733615600009216,0.0871522999950685
"RSVPLG02",2.1,403,"jh","Experiment",1,47,"2024-09-24_14h30.10.667","exp","global","local",300,2,"ETUXHNPZCLYM","PZAYXTHNLCEF",5,"H","hH","h",1,"H","hH","s",0,0.620828900006018,0.108105499995872
"RSVPLG02",2.1,403,"jh","Experiment",1,48,"2024-09-24_14h30.16.632","exp","global","global",750,5,"YTPZSAXCUSLE","MLYACXUZTEFP",5,"S","sS","s",1,"S","sS","s",1,0.886945399994147,0.105399499996565
"RSVPLG02",2.1,403,"jh","Experiment",1,49,"2024-09-24_14h30.22.759","exp","global","local",750,5,"XPCTZSUENLMF","UXPZNYFTMCHE",6,"S","sS","s",1,"H","hH","s",0,1.5161725999933,0.072260599990841
"RSVPLG02",2.1,403,"jh","Experiment",1,50,"2024-09-24_14h30.29.657","exp","local","local",750,5,"CPFXYAELUNTM","ZFLETSMPCUHY",6,"S","sS","s",1,"H","hH","h",1,1.03415140000288,0.0250228999939281
"RSVPLG02",2.1,403,"jh","Experiment",1,51,"2024-09-24_14h30.36.903","exp","local","global",750,5,"FTCXMEZALYHU","CLYMFSXZNAPE",6,"S","sS","s",1,"H","hH","h",1,1.80737700000464,0.423607899996568
"RSVPLG02",2.1,403,"jh","Experiment",1,52,"2024-09-24_14h30.44.330","exp","global","local",750,5,"CZMSTPXFUALE","LCTNYXUESAPZ",4,"S","sS","s",1,"S","sS","s",1,2.19801819999702,0.264806400009547
"RSVPLG02",2.1,403,"jh","Experiment",1,53,"2024-09-24_14h30.52.120","exp","global","local",300,2,"XUMHPAYCFLEN","ZMYCUHFEPNAL",4,"H","hH","h",1,"H","hH","h",1,4.935665099998,0.26610310000251
"RSVPLG02",2.1,403,"jh","Experiment",1,54,"2024-09-24_14h31.02.665","exp","local","global",750,5,"FLYUAZMESTNC","XMUHZAYPTLCN",4,"H","hH","h",1,"S","sS","s",1,1.89443120000942,0.137004200005322
"RSVPLG02",2.1,403,"jh","Experiment",1,55,"2024-09-24_14h31.10.009","exp","local","local",300,2,"CYTAFPUMNXLE","EXPHFSMTACUY",4,"H","hH","h",1,"S","sS","s",1,1.05388789999415,0.295862099999795
"RSVPLG02",2.1,403,"jh","Experiment",1,56,"2024-09-24_14h31.16.649","exp","global","local",300,2,"ZLCSPTNEXUFA","PYMELHUCZNFX",4,"S","sS","s",1,"H","hH","h",1,0.632575499999803,0.313431400005356
"RSVPLG02",2.1,403,"jh","Experiment",1,57,"2024-09-24_14h31.22.888","exp","global","global",300,2,"MZCNLSFHTPEY","FNXEMTYAZPUL",6,"S","sS","s",1,"H","hH","h",1,0.858300200008671,0.136535199999344
"RSVPLG02",2.1,403,"jh","Experiment",1,58,"2024-09-24_14h31.29.272","exp","local","local",300,2,"TLZCENAMUPYX","NCXSYSUTELFM",4,"S","sS","s",1,"S","sS","h",0,3.18052599999646,0.231783399998676
"RSVPLG02",2.1,403,"jh","Experiment",1,59,"2024-09-24_14h31.38.053","exp","local","local",750,5,"CUFLTENYPXMZ","YXMSNCELSUAT",4,"S","sS","s",1,"S","sS","s",1,0.36353400000371,0.317533299996285
"RSVPLG02",2.1,403,"jh","Experiment",1,60,"2024-09-24_14h31.43.932","exp","local","global",300,2,"FAUMETHLXNZP","ZTPCHXLFMYAE",5,"H","hH","h",1,"H","hH","s",0,1.67899400000169,0.281319799993071
"RSVPLG02",2.1,403,"jh","Experiment",1,61,"2024-09-24_14h31.51.435","exp","global","global",750,5,"CYESLXNMHTFU","EPLXTZFYCUAN",4,"S","sS","s",1,"H","hH","h",1,0.670631000000867,0.281276300011086
"RSVPLG02",2.1,403,"jh","Experiment",1,62,"2024-09-24_14h31.58.598","exp","global","global",300,2,"NYLUHCHZPEMF","YNXPLTCEUFAM",5,"H","hH","h",1,"H","hH","h",1,1.14158480000333,0.295900099998107
"RSVPLG02",2.1,403,"jh","Experiment",1,63,"2024-09-24_14h32.06.482","exp","global","local",750,5,"AYFSZELNMXTP","CENUPAYZSTLX",4,"S","sS","s",1,"S","sS","h",0,1.06715339999937,0.297367499995744
"RSVPLG02",2.1,403,"jh","Experiment",1,64,"2024-09-24_14h32.13.177","exp","local","global",300,2,"CXAFPSELYMZT","AMFSTNUXYELP",4,"S","sS","s",1,"S","sS","h",0,3.45971860000282,0.440404299995862
"RSVPLG02",2.1,403,"jh","Experiment",1,65,"2024-09-24_14h32.22.719","exp","local","global",300,2,"PYAMESXCNTLZ","EPZSAFNLMTXU",4,"S","sS","s",1,"S","sS","h",0,0.606917599987355,0.152411799994297
"RSVPLG02",2.1,403,"jh","Experiment",1,66,"2024-09-24_14h32.31.098","exp","global","local",300,2,"PTLXSZCUYNFE","ANECLUHTFZPX",5,"S","sS","s",1,"H","hH","h",1,0.969043500008411,0.248895900003845
"RSVPLG02",2.1,403,"jh","Experiment",1,67,"2024-09-24_14h32.37.609","exp","global","global",300,2,"ZFLHTSPANUXY","PUTFLZYXCAEM",4,"H","hH","h",1,"S","sS","s",1,0.774859899989679,0.286612900003092
"RSVPLG02",2.1,403,"jh","Experiment",1,68,"2024-09-24_14h32.44.633","exp","global","global",750,5,"MCYSTEFXSPNL","AUXMYPCEFLTZ",4,"S","sS","s",1,"S","sS","s",1,0.410108699987177,0.297472399994149
"RSVPLG02",2.1,403,"jh","Experiment",1,69,"2024-09-24_14h32.51.304","exp","global","local",300,2,"AZFMHLENXUTP","TLZPXUSAYMFN",5,"H","hH","h",1,"S","sS","s",1,0.779954600002384,0.152022700000089
"RSVPLG02",2.1,403,"jh","Experiment",1,70,"2024-09-24_14h32.57.449","exp","global","local",750,5,"MACHYLTNFEXU","LAEFNZCTHYMX",4,"H","hH","h",1,"H","hH","s",0,0.72938730000169,0.168614700000035
"RSVPLG02",2.1,403,"jh","Experiment",1,71,"2024-09-24_14h33.03.708","exp","local","local",750,5,"FZUXLYCTMNAP","FEUNLHZXYMHA",6,"H","hH","h",1,"H","hH","h",1,0.853633899998385,0.231567499999073
"RSVPLG02",2.1,403,"jh","Experiment",1,72,"2024-09-24_14h33.11.977","exp","local","global",750,5,"FUMTNCZAPEHL","XAPNUSCEFYTL",6,"S","sS","s",1,"H","hH","h",1,2.184577299995,0.631732599998941
"RSVPLG02",2.1,403,"jh","Experiment",1,73,"2024-09-24_14h33.20.266","exp","local","global",750,5,"XNEUMZLFAPHC","XYLETSZMFUNP",6,"S","sS","s",1,"H","hH","h",1,2.1847504000034,0.121399799987557
"RSVPLG02",2.1,403,"jh","Experiment",1,74,"2024-09-24_14h33.27.645","exp","local","local",300,2,"FMTZPYNXLACE","PANZXHESTLCU",6,"H","hH","h",1,"S","sS","s",1,0.673679600004107,0.296570699996664
"RSVPLG02",2.1,403,"jh","Experiment",1,75,"2024-09-24_14h33.33.802","exp","local","local",750,5,"NEXLTFPMZAUY","PXUSLTAYSMEC",4,"S","sS","s",1,"S","sS","s",1,0.356596799989347,0.329330399996252
"RSVPLG02",2.1,403,"jh","Experiment",1,76,"2024-09-24_14h33.39.800","exp","local","global",300,2,"AYNZCTXSEPLU","XUMZCSFPYANL",6,"S","sS","s",1,"S","sS","h",0,0.983553500002017,0.217684000002919
"RSVPLG02",2.1,403,"jh","Experiment",1,77,"2024-09-24_14h33.46.216","exp","local","local",300,2,"YFENTUZCMAPX","TXPUNSFHMCEZ",6,"S","sS","s",1,"H","hH","h",1,0.653216599996085,0.553085899999132
"RSVPLG02",2.1,403,"jh","Experiment",1,78,"2024-09-24_14h33.52.681","exp","global","local",750,5,"CZPSEUYXNLFT","MNPUEYCZSFLX",4,"S","sS","s",1,"S","sS","h",0,0.70534200000111,0.328464299993357
"RSVPLG02",2.1,403,"jh","Experiment",1,79,"2024-09-24_14h33.59.098","exp","local","local",300,2,"AMUELPNZFCYT","MPCULHNHTAFZ",6,"H","hH","h",1,"H","hH","h",1,0.662701199995354,0.105232800007798
"RSVPLG02",2.1,403,"jh","Experiment",1,80,"2024-09-24_14h34.06.938","exp","global","local",750,5,"LUPSTYMCNFEZ","ZLTMAFNPHYCU",4,"S","sS","s",1,"H","hH","h",1,0.758536099994672,0.279936099992483
"RSVPLG02",2.1,403,"jh","Experiment",1,81,"2024-09-24_14h34.20.869","exp","global","local",300,2,"ENCTXHZYAFLU","ZXMTPYEHFCUN",6,"H","hH","s",0,"H","hH","h",1,0.392973099995288,2.93607589999738
"RSVPLG02",2.1,403,"jh","Experiment",1,82,"2024-09-24_14h34.30.813","exp","global","global",750,5,"UAYSNPTMHXCE","TAYUCPEFLZXN",4,"S","sS","s",1,"H","hH","h",1,0.596686400007457,0.296551500010537
"RSVPLG02",2.1,403,"jh","Experiment",1,83,"2024-09-24_14h34.36.972","exp","global","global",750,5,"MNCASLUFTSZY","XEMPAUNZYTFL",5,"S","sS","s",1,"S","sS","s",1,0.429628099998808,0.312104700002237
"RSVPLG02",2.1,403,"jh","Experiment",1,84,"2024-09-24_14h34.42.907","exp","local","global",750,5,"EAYZUCMLXTSP","XTYFPSMLCZUN",6,"S","sS","s",1,"S","sS","h",0,3.28288820000307,1.56131170000299
"RSVPLG02",2.1,403,"jh","Experiment",1,85,"2024-09-24_14h34.52.987","exp","global","global",750,5,"FXZTEHLNMPHA","ZXPLUAEMTNYC",6,"H","hH","h",1,"H","hH","h",1,0.816030000001774,0.200681300004362
"RSVPLG02",2.1,403,"jh","Experiment",1,86,"2024-09-24_14h35.02.138","exp","local","global",300,2,"LZUPEXSYCANF","XUNLSPFMYZTA",5,"S","sS","s",1,"S","sS","h",0,2.013125700003,0.0724360000021989
"RSVPLG02",2.1,403,"jh","Experiment",1,87,"2024-09-24_14h35.09.434","exp","local","global",750,5,"UZPYTANCSFLM","ZLNHMXUCAPTY",4,"H","hH","h",1,"S","sS","h",0,0.749849200001336,0.344185599999037
"RSVPLG02",2.1,403,"jh","Experiment",1,88,"2024-09-24_14h35.16.763","exp","global","local",750,5,"TFXECSLPNUYA","AFMPYEXTZNHU",6,"S","sS","s",1,"H","hH","h",1,0.583685899997363,0.343691700007184
"RSVPLG02",2.1,403,"jh","Experiment",1,89,"2024-09-24_14h35.23.705","exp","local","local",750,5,"APEFNTXLZUYC","EZXFHPMTLSYC",5,"H","hH","h",1,"S","sS","s",1,0.75887760000478,0.713311399988015
