row,t1_level,t2_level,t2_lag,.thisRepN,.thisTrialN,.thisN,.thisIndex,thisRow.t,notes,trial,trial_type,global_letters,local_letters,t1_pos,t1,t2,t1_corr,t2_corr,t1_resp,t1_acc,t1_rt,t2_resp,t2_acc,t2_rt,exp,ver,mod-utc,sub,sess,blocktyp,datetime
1,local,local,0,0,0,0,0,,,1,warmup,TUZEYSNUZNTHEFH,FEFSLTZZNTSNHUH,5,L,absent,lL,nN,l,1,0.8419406,n,1,0.7774604,RSVPLG01,0.94,2023-09-12-22:31:44,909,1,Experiment,2023-09-12_15h48.50.433
2,local,local,3,0,1,1,1,,,2,warmup,LLEZUSHNTTEHNFU,HSNYFLXNHUSUTET,4,Y,X,yY,yY,y,1,0.7394953,y,1,0.4284042,RSVPLG01,0.94,2023-09-12-22:31:44,909,1,Experiment,2023-09-12_15h48.50.433
8,global,local,3,0,2,2,7,,,3,warmup,NEFTFYHULLUSYEN,ENYZFEXSHNYHLFU,4,T,X,tT,yY,t,1,0.7486841,y,1,0.3668045,RSVPLG01,0.94,2023-09-12-22:31:44,909,1,Experiment,2023-09-12_15h48.50.433
7,global,local,0,0,3,3,6,,,4,warmup,LETSLZZNNHUTYUE,UELFUNYTYTNHZLZ,4,S,absent,sS,nN,s,1,0.8777897,n,1,0.3486018,RSVPLG01,0.94,2023-09-12-22:31:44,909,1,Experiment,2023-09-12_15h48.50.433
10,global,global,0,0,4,4,9,,,5,warmup,NETSYZYNEHULLTU,HTLNYFSUUHNSYTL,6,Z,absent,zZ,nN,z,1,0.948823,y,0,0.6174757,RSVPLG01,0.94,2023-09-12-22:31:44,909,1,Experiment,2023-09-12_15h48.50.433
5,local,global,3,0,0,0,4,,,6,exp,HTEYLNUHXLYEFFS,TSULTZFUYHESLFE,6,Z,X,zZ,yY,z,1,0.8388639,y,1,0.6072643,RSVPLG01,0.94,2023-09-12-22:31:44,909,1,Experiment,2023-09-12_15h48.50.433
8,global,local,3,0,1,1,7,,,7,exp,FZSUHFNZLYEYUEL,ESSLTNFXYUZFLNZ,5,H,X,hH,yY,n,0,0.9342457,n,0,0.4726891,RSVPLG01,0.94,2023-09-12-22:31:44,909,1,Experiment,2023-09-12_15h48.50.433
2,local,local,3,0,2,2,1,,,8,exp,EFHZHLUNEFTNSTS,HSFYUUXTESTLNFL,4,Y,X,yY,yY,z,0,0.8535124,y,1,0.4463472,RSVPLG01,0.94,2023-09-12-22:31:44,909,1,Experiment,2023-09-12_15h48.50.433
11,global,global,3,0,3,3,10,,,9,exp,ZSHLHYXFUTNYSTN,SHNEYTUSHYZFTFU,4,L,X,lL,yY,l,1,0.8140021,y,1,1.7907531,RSVPLG01,0.94,2023-09-12-22:31:44,909,1,Experiment,2023-09-12_15h48.50.433
6,local,global,7,0,4,4,5,,,10,exp,ZZHFUSYFESNXNEL,ELZYTELSNZFHYNH,5,T,X,tT,yY,t,1,0.9642437,y,1,0.3129135,RSVPLG01,0.94,2023-09-12-22:31:44,909,1,Experiment,2023-09-12_15h48.50.433
8,global,local,3,0,5,5,7,,,11,exp,YNUHSLENFUTTSFY,HEFUUZYSXNTNSYH,6,L,X,lL,yY,y,0,1.87207,y,1,1.0827769,RSVPLG01,0.94,2023-09-12-22:31:44,909,1,Experiment,2023-09-12_15h48.50.433
11,global,global,3,0,6,6,10,,,12,exp,FHETNSHXZLEUFTU,TTUZYHEULZHSFSF,5,N,X,nN,yY,n,1,0.7441138,y,1,0.4578222,RSVPLG01,0.94,2023-09-12-22:31:44,909,1,Experiment,2023-09-12_15h48.50.433
9,global,local,7,0,7,7,8,,,13,exp,YHULFSYEEUFLHZN,NZYHHTFLLUUYXFN,6,S,X,sS,yY,s,1,0.968186,y,1,0.312216,RSVPLG01,0.94,2023-09-12-22:31:44,909,1,Experiment,2023-09-12_15h48.50.433
3,local,local,7,0,8,8,2,,,14,exp,ELNZHYHLUFZESUS,HENFLTSSULZZXHU,6,T,X,tT,yY,t,1,1.0898141,y,1,0.3790877,RSVPLG01,0.94,2023-09-12-22:31:44,909,1,Experiment,2023-09-12_15h48.50.433
12,global,global,7,0,9,9,11,,,15,exp,FYHHNUZZENFSXSE,FNTTNLZYSHYEHSZ,6,U,X,uU,yY,l,0,0.8024533,y,1,0.617063,RSVPLG01,0.94,2023-09-12-22:31:44,909,1,Experiment,2023-09-12_15h48.50.433
8,global,local,3,0,10,10,7,,,16,exp,YSFUZTTFYHHZLNL,TSSEHNXFTFYLYHN,4,U,X,uU,yY,u,1,0.7009762,y,1,0.3128851,RSVPLG01,0.94,2023-09-12-22:31:44,909,1,Experiment,2023-09-12_15h48.50.433
12,global,global,7,0,11,11,11,,,17,exp,ULEHFZNYTNXTEZU,FFUSYTULEZNZLEY,4,H,X,hH,yY,h,1,0.7000709,y,1,0.4800124,RSVPLG01,0.94,2023-09-12-22:31:44,909,1,Experiment,2023-09-12_15h48.50.433
3,local,local,7,1,0,12,2,,,18,exp,ZNTESHYYHFFNTZE,ZHTNUHFYYLZXNEF,5,U,X,uU,yY,u,1,0.6547759,y,1,0.4409669,RSVPLG01,0.94,2023-09-12-22:31:44,909,1,Experiment,2023-09-12_15h48.50.433
5,local,global,3,1,1,13,4,,,19,exp,YHHTNSSXUZFYFLZ,HYUFEHTTZFUSLZS,5,E,X,eE,yY,e,1,0.9563448,y,1,0.3635154,RSVPLG01,0.94,2023-09-12-22:31:44,909,1,Experiment,2023-09-12_15h48.50.433
12,global,global,7,1,2,14,11,,,20,exp,FTNFLUYZHHSXUTZ,SZZHEFNTUYUFTHN,5,L,X,lL,yY,l,1,0.9024415,y,1,0.3305371,RSVPLG01,0.94,2023-09-12-22:31:44,909,1,Experiment,2023-09-12_15h48.50.433
1,local,local,0,1,3,15,0,,,21,exp,SZYYTNSUUHLTEEL,LZYEYFHLESSZTTH,6,F,absent,fF,nN,f,1,0.8322,n,1,0.3024134,RSVPLG01,0.94,2023-09-12-22:31:44,909,1,Experiment,2023-09-12_15h48.50.433
7,global,local,0,1,4,16,6,,,22,exp,FTSHYZYTLFHELUU,HFYSFNUYTESLTHU,6,Z,absent,zZ,nN,z,1,0.9469679,y,0,0.280353,RSVPLG01,0.94,2023-09-12-22:31:44,909,1,Experiment,2023-09-12_15h48.50.433
2,local,local,3,1,5,17,1,,,23,exp,ESUHYLTFUZZLYST,YYTNSUXTLZUFEZF,4,N,X,nN,yY,n,1,0.6987938,y,1,0.0937207,RSVPLG01,0.94,2023-09-12-22:31:44,909,1,Experiment,2023-09-12_15h48.50.433
10,global,global,0,1,6,18,9,,,24,exp,NLFTYNLZUHHZFUY,FFZSHYLLNUEZYNU,4,T,absent,tT,nN,y,0,0.6713827,y,0,0.3303385,RSVPLG01,0.94,2023-09-12-22:31:44,909,1,Experiment,2023-09-12_15h48.50.433
10,global,global,0,1,7,19,9,,,25,exp,ZUTFYNZYFEHEUST,UYSFELTFZSTHHUE,6,N,absent,nN,nN,z,0,0.4557636,y,0,0.3161102,RSVPLG01,0.94,2023-09-12-22:31:44,909,1,Experiment,2023-09-12_15h48.50.433
5,local,global,3,1,8,20,4,,,26,exp,FLHUTYUXHZLNYSF,LNZYEFSFYUULHSH,5,E,X,eE,yY,e,1,0.769944,y,1,0.4465093,RSVPLG01,0.94,2023-09-12-22:31:44,909,1,Experiment,2023-09-12_15h48.50.433
8,global,local,3,1,9,21,7,,,27,exp,HZEYSHFEZNUNTYT,EHYZLYUXZNFHTTE,5,S,X,sS,yY,s,1,0.9143099,y,1,0.424766,RSVPLG01,0.94,2023-09-12-22:31:44,909,1,Experiment,2023-09-12_15h48.50.433
4,local,global,0,1,10,22,3,,,28,exp,TEZLYNSULFTUZSF,LTFEFHYSUYLZEZU,6,H,absent,hH,nN,h,1,0.7849503,y,0,0.3496,RSVPLG01,0.94,2023-09-12-22:31:44,909,1,Experiment,2023-09-12_15h48.50.433
9,global,local,7,1,11,23,8,,,29,exp,HESYZULTNLUTZHE,EZLFTSZTHUXENLN,4,Y,X,yY,yY,y,1,0.8358214,y,1,0.3173651,RSVPLG01,0.94,2023-09-12-22:31:44,909,1,Experiment,2023-09-12_15h48.50.433
5,local,global,3,2,0,24,4,,,30,exp,FZULNLHXFYSZEUH,HLUSTLFYEUZSZHY,5,T,X,tT,yY,t,1,0.2350407,y,1,0.3774014,RSVPLG01,0.94,2023-09-12-22:31:44,909,1,Experiment,2023-09-12_15h48.50.433
3,local,local,7,2,1,25,2,,,31,exp,LLTEHYNEFTFUNSS,EFSTEZUNSHHUXTF,6,Z,X,zZ,yY,z,1,0.7825819,y,1,0.4775745,RSVPLG01,0.94,2023-09-12-22:31:44,909,1,Experiment,2023-09-12_15h48.50.433
1,local,local,0,2,2,26,0,,,32,exp,HYTSFTZSHZNENYE,ZNYHLNHTEZSUEUY,5,L,absent,lL,nN,n,0,1.7081627,n,1,0.7829641,RSVPLG01,0.94,2023-09-12-22:31:44,909,1,Experiment,2023-09-12_15h48.50.433
10,global,global,0,2,3,27,9,,,33,exp,EZNHTSUHTNZELFU,NZLTHYULTZNUFEH,6,S,absent,sS,nN,s,1,0.8593012,y,0,0.5267546,RSVPLG01,0.94,2023-09-12-22:31:44,909,1,Experiment,2023-09-12_15h48.50.433
12,global,global,7,2,4,28,11,,,34,exp,ZTLTZFNNHYEHXUL,HLNELSZNTHYZEYU,6,F,X,fF,yY,f,1,1.0760701,y,1,1.0351848,RSVPLG01,0.94,2023-09-12-22:31:44,909,1,Experiment,2023-09-12_15h48.50.433
5,local,global,3,2,5,29,4,,,35,exp,HLSTUZLFXFUSNHY,SFUTLEHUNTFNLHY,6,E,X,eE,yY,e,1,0.4926893,y,1,0.681807,RSVPLG01,0.94,2023-09-12-22:31:44,909,1,Experiment,2023-09-12_15h48.50.433
2,local,local,3,2,6,30,1,,,36,exp,TNHZFLSENEUHTUF,HFFSZYHNXEUNUST,6,Y,X,yY,yY,s,0,0.9355841,n,0,0.2644503,RSVPLG01,0.94,2023-09-12-22:31:44,909,1,Experiment,2023-09-12_15h48.50.433
6,local,global,7,2,7,31,5,,,37,exp,UFHSLESTLTZHXZF,HTFFSNLUSTZZHYL,6,N,X,nN,yY,n,1,0.594,y,1,0.590783,RSVPLG01,0.94,2023-09-12-22:31:44,909,1,Experiment,2023-09-12_15h48.50.433
1,local,local,0,2,8,32,0,,,38,exp,YUELHEFLSSZTZFU,UETFNZYZUYTESLF,5,N,absent,nN,nN,z,0,0.8960162,n,1,0.2678646,RSVPLG01,0.94,2023-09-12-22:31:44,909,1,Experiment,2023-09-12_15h48.50.433
9,global,local,7,2,9,33,8,,,39,exp,ZLNSYTNUUEEZLYT,ZZEFTUYLNUXYHET,4,S,X,sS,yY,s,1,1.0850271,n,0,0.4308122,RSVPLG01,0.94,2023-09-12-22:31:44,909,1,Experiment,2023-09-12_15h48.50.433
10,global,global,0,2,10,34,9,,,40,exp,NYHHEUTUYNSFFZS,UZSHLFUHNNSFYZY,5,E,absent,eE,nN,n,0,1.7051851,n,1,0.6704928,RSVPLG01,0.94,2023-09-12-22:31:44,909,1,Experiment,2023-09-12_15h48.50.433
12,global,global,7,2,11,35,11,,,41,exp,NYSLTSYETZXEZNF,EZNHYTFUYFNSSTU,4,L,X,lL,yY,s,0,0.84446,y,1,0.1545372,RSVPLG01,0.94,2023-09-12-22:31:44,909,1,Experiment,2023-09-12_15h48.50.433
10,global,global,0,3,0,36,9,,,42,exp,FTSULHELZTNNFHE,SHLYELZEHTNSFTN,4,U,absent,uU,nN,y,0,0.7649424,y,0,0.1544986,RSVPLG01,0.94,2023-09-12-22:31:44,909,1,Experiment,2023-09-12_15h48.50.433
7,global,local,0,3,1,37,6,,,43,exp,FESYLLHFNSHUEZU,FNSTFELNESZLHZU,4,Y,absent,yY,nN,y,1,0.7813146,n,1,0.3357146,RSVPLG01,0.94,2023-09-12-22:31:44,909,1,Experiment,2023-09-12_15h48.50.433
1,local,local,0,3,2,38,0,,,44,exp,EZSELYHFUFNNSLU,EFUSNTHHNUFLSZZ,6,T,absent,tT,nN,t,1,0.7724719,n,1,1.0196649,RSVPLG01,0.94,2023-09-12-22:31:44,909,1,Experiment,2023-09-12_15h48.50.433
4,local,global,0,3,3,39,3,,,45,exp,SHZLUESYFUNHNFZ,YEETSUYHFNHZFSN,4,T,absent,tT,nN,l,0,1.0432481,n,1,0.3507314,RSVPLG01,0.94,2023-09-12-22:31:44,909,1,Experiment,2023-09-12_15h48.50.433
8,global,local,3,3,4,40,7,,,46,exp,TENLHUNFYTZFEUY,ENFTSLUXNUFZYLY,5,H,X,hH,yY,s,0,0.8415807,n,0,0.1858382,RSVPLG01,0.94,2023-09-12-22:31:44,909,1,Experiment,2023-09-12_15h48.50.433
6,local,global,7,3,5,41,5,,,47,exp,YLESHFHZLNXZUYN,NEUTLUNHYLHEZFZ,4,T,X,tT,yY,t,1,1.3035238,y,1,0.6193325,RSVPLG01,0.94,2023-09-12-22:31:44,909,1,Experiment,2023-09-12_15h48.50.433
1,local,local,0,3,6,42,0,,,48,exp,HTSLUNFYLYUFZST,THSSLELHFZYUZTF,6,E,absent,eE,nN,e,1,0.7486088,n,1,0.5211301,RSVPLG01,0.94,2023-09-12-22:31:44,909,1,Experiment,2023-09-12_15h48.50.433
12,global,global,7,3,7,43,11,,,49,exp,UZTULENFNSTXYYF,NSZYHTZUUTEFSYF,5,L,X,lL,yY,l,1,0.696894,y,1,0.7303412,RSVPLG01,0.94,2023-09-12-22:31:44,909,1,Experiment,2023-09-12_15h48.50.433
10,global,global,0,3,8,44,9,,,50,exp,TLYNHTUESYEZNZU,SNELFZYTSTNLUYZ,5,H,absent,hH,nN,f,0,1.1005783,n,1,0.312337,RSVPLG01,0.94,2023-09-12-22:31:44,909,1,Experiment,2023-09-12_15h48.50.433
7,global,local,0,3,9,45,6,,,51,exp,SNSYFUTHTYZUNZL,LSUHENTSYHULNTZ,5,F,absent,fF,nN,e,0,1.1087827,n,1,0.2009375,RSVPLG01,0.94,2023-09-12-22:31:44,909,1,Experiment,2023-09-12_15h48.50.433
11,global,global,3,3,10,46,10,,,52,exp,HFYLNTXZEUUFNEY,YFNSFYEZUNZHTTE,4,L,X,lL,yY,l,1,0.6033495,y,1,0.3299196,RSVPLG01,0.94,2023-09-12-22:31:44,909,1,Experiment,2023-09-12_15h48.50.433
7,global,local,0,3,11,47,6,,,53,exp,UTYHLENTLNZHYSS,LLSYTFHZUHTUNZS,6,E,absent,eE,nN,f,0,0.9253538,y,0,0.394966,RSVPLG01,0.94,2023-09-12-22:31:44,909,1,Experiment,2023-09-12_15h48.50.433
5,local,global,3,4,0,48,4,,,54,exp,HESSZNTLXTFHLFU,ULHFTYLSSUEZEFZ,6,Y,X,yY,yY,y,1,0.5120381,y,1,0.3771087,RSVPLG01,0.94,2023-09-12-22:31:44,909,1,Experiment,2023-09-12_15h48.50.433
7,global,local,0,4,1,49,6,,,55,exp,UYSZNTLEUSNHYLH,TNUFLSHTEHSYLEN,4,Z,absent,zZ,nN,z,1,0.9051664,y,0,1.1296881,RSVPLG01,0.94,2023-09-12-22:31:44,909,1,Experiment,2023-09-12_15h48.50.433
6,local,global,7,4,2,50,5,,,56,exp,HZHLSTFNFZLSXUN,FEUNLYSZELHFZUN,6,Y,X,yY,yY,y,1,1.0833394,y,1,0.3626734,RSVPLG01,0.94,2023-09-12-22:31:44,909,1,Experiment,2023-09-12_15h48.50.433
3,local,local,7,4,3,51,2,,,57,exp,FZEUSEYYFSTNNZL,SLFHTYTESNXELFN,4,H,X,hH,yY,h,1,0.7665476,n,0,0.2060463,RSVPLG01,0.94,2023-09-12-22:31:44,909,1,Experiment,2023-09-12_15h48.50.433
7,global,local,0,4,4,52,6,,,58,exp,NUSYELTLNFUSHTE,LSNZNHUTHESFLEU,4,Y,absent,yY,nN,y,1,0.8753068,n,1,0.2812417,RSVPLG01,0.94,2023-09-12-22:31:44,909,1,Experiment,2023-09-12_15h48.50.433
10,global,global,0,4,5,53,9,,,59,exp,NTULNFEHYHSSYTU,ETNYLZYESHTNSLU,6,F,absent,fF,nN,z,0,0.8615048,y,0,0.5738861,RSVPLG01,0.94,2023-09-12-22:31:44,909,1,Experiment,2023-09-12_15h48.50.433
6,local,global,7,4,6,54,5,,,60,exp,EHYZTHEUNLXYNUT,UTYSYFUEEHNLNFH,4,S,X,sS,yY,s,1,0.2558685,y,1,0.6695305,RSVPLG01,0.94,2023-09-12-22:31:44,909,1,Experiment,2023-09-12_15h48.50.433
2,local,local,3,4,7,55,1,,,61,exp,FZNHUYSTZLUTLNY,ZTFEUSXYUYNSZLL,4,E,X,eE,yY,e,1,0.8885059,y,1,0.2499186,RSVPLG01,0.94,2023-09-12-22:31:44,909,1,Experiment,2023-09-12_15h48.50.433
4,local,global,0,4,8,56,3,,,62,exp,LNSLTZSEYEHYUTN,UEYUSFYLNHELTNT,6,F,absent,fF,nN,f,1,0.9205487,y,0,0.8100124,RSVPLG01,0.94,2023-09-12-22:31:44,909,1,Experiment,2023-09-12_15h48.50.433
8,global,local,3,4,9,57,7,,,63,exp,NSFYHLNSZZUTYTL,FNTFEZZXSLULTYN,5,H,X,hH,yY,e,0,1.116947,y,1,0.4094147,RSVPLG01,0.94,2023-09-12-22:31:44,909,1,Experiment,2023-09-12_15h48.50.433
12,global,global,7,4,10,58,11,,,64,exp,YUYSHZLZULXNFNE,ZHHTULLEFNZYENF,4,S,X,sS,yY,s,1,0.3344223,y,1,0.429575,RSVPLG01,0.94,2023-09-12-22:31:44,909,1,Experiment,2023-09-12_15h48.50.433
3,local,local,7,4,11,59,2,,,65,exp,ESYLHZTZHUYSNUE,NZYFUSYTHEXUEZN,4,F,X,fF,yY,h,0,0.6385833,y,1,0.3628672,RSVPLG01,0.94,2023-09-12-22:31:44,909,1,Experiment,2023-09-12_15h48.50.433
2,local,local,3,5,0,60,1,,,66,exp,UYSYHSUENETLNZZ,USUEFLYXETNYSNZ,5,F,X,fF,yY,f,1,0.3918396,n,0,0.4259275,RSVPLG01,0.94,2023-09-12-22:31:44,909,1,Experiment,2023-09-12_15h48.50.433
10,global,global,0,5,1,61,9,,,67,exp,FSHLSNYNUTYZTHU,FUNETSZYSZNTHYU,4,L,absent,lL,nN,l,1,0.8386251,y,0,0.2524462,RSVPLG01,0.94,2023-09-12-22:31:44,909,1,Experiment,2023-09-12_15h48.50.433
1,local,local,0,5,2,62,0,,,68,exp,ZYYHNHZFETFLUTE,TEHTSHULLEZYFZF,5,S,absent,sS,nN,s,1,0.8432208,y,0,0.1534039,RSVPLG01,0.94,2023-09-12-22:31:44,909,1,Experiment,2023-09-12_15h48.50.433
9,global,local,7,5,3,63,8,,,69,exp,STHEZSUTYYFNUHE,SNYTLTESFUYXNHF,5,Z,X,zZ,yY,z,1,0.828058,y,1,0.2043517,RSVPLG01,0.94,2023-09-12-22:31:44,909,1,Experiment,2023-09-12_15h48.50.433
9,global,local,7,5,4,64,8,,,70,exp,ZFUHSEYLYSFNNZE,EYFTNYFSUNXZLUS,4,H,X,hH,yY,h,1,0.3744945,y,1,2.7338367,RSVPLG01,0.94,2023-09-12-22:31:44,909,1,Experiment,2023-09-12_15h48.50.433
6,local,global,7,5,5,65,5,,,71,exp,EFLHFNZUSUZHXSL,ETLHLYZHFFUUEZS,6,Y,X,yY,yY,y,1,0.6363086,y,1,0.3829422,RSVPLG01,0.94,2023-09-12-22:31:44,909,1,Experiment,2023-09-12_15h48.50.433
9,global,local,7,5,6,66,8,,,72,exp,EYTNZFEZSYNLULS,LEYEZHNSLTUZXUS,6,F,X,fF,yY,n,0,1.4832903,y,1,0.124186,RSVPLG01,0.94,2023-09-12-22:31:44,909,1,Experiment,2023-09-12_15h48.50.433
7,global,local,0,5,7,67,6,,,73,exp,NUYYZSNHULTSTLF,FYULESYNTLUHHFS,5,Z,absent,zZ,nN,z,1,0.8366028,n,1,0.2378821,RSVPLG01,0.94,2023-09-12-22:31:44,909,1,Experiment,2023-09-12_15h48.50.433
12,global,global,7,5,8,68,11,,,74,exp,LHNUYSEZUYLNXEH,ZYLTNFUHYEHZNTL,6,S,X,sS,yY,s,1,0.7205743,y,1,0.5553036,RSVPLG01,0.94,2023-09-12-22:31:44,909,1,Experiment,2023-09-12_15h48.50.433
2,local,local,3,5,9,69,1,,,75,exp,NLYNZELSHSYTTEU,HUTUFEEXHSNNTLY,5,F,X,fF,yY,f,1,0.5869453,y,1,0.2052915,RSVPLG01,0.94,2023-09-12-22:31:44,909,1,Experiment,2023-09-12_15h48.50.433
10,global,global,0,5,10,70,9,,,76,exp,YHZFZUEELTSSTYF,SEEZSNFYYTLHLHZ,6,U,absent,uU,nN,u,1,0.9679281,y,0,0.3148773,RSVPLG01,0.94,2023-09-12-22:31:44,909,1,Experiment,2023-09-12_15h48.50.433
8,global,local,3,5,11,71,7,,,77,exp,EUSNZLSHNEUYHYL,YFNLTYSXUSLUHFE,5,Z,X,zZ,yY,z,1,0.2231149,y,1,0.4122947,RSVPLG01,0.94,2023-09-12-22:31:44,909,1,Experiment,2023-09-12_15h48.50.433
1,local,local,0,6,0,72,0,,,78,exp,LTZUEEYHNZLNFHY,FLYSNETZTNYZHLF,4,S,absent,sS,nN,s,1,0.8692561,y,0,0.1891273,RSVPLG01,0.94,2023-09-12-22:31:44,909,1,Experiment,2023-09-12_15h48.50.433
5,local,global,3,6,1,73,4,,,79,exp,FSYZFEXLNUEYHSN,YHUTEFFLNUHLNYS,4,T,X,tT,yY,y,0,0.8258961,y,1,1.5772959,RSVPLG01,0.94,2023-09-12-22:31:44,909,1,Experiment,2023-09-12_15h48.50.433
2,local,local,3,6,2,74,1,,,80,exp,SNFLSTNTFZZEUUE,NUUYSHXZFTNSFET,4,Y,X,yY,yY,y,1,0.8416085,y,1,0.2849632,RSVPLG01,0.94,2023-09-12-22:31:44,909,1,Experiment,2023-09-12_15h48.50.433
9,global,local,7,6,3,75,8,,,81,exp,SYELHZENYLUZFNF,YUFZTNNZSLLXEFY,5,H,X,hH,yY,t,0,0.8231881,n,0,0.3455133,RSVPLG01,0.94,2023-09-12-22:31:44,909,1,Experiment,2023-09-12_15h48.50.433
2,local,local,3,6,4,76,1,,,82,exp,HSYFNELUEUSFLYT,UELHZYYXTSEFFSH,5,Z,X,zZ,yY,z,1,0.8659165,n,0,0.1444656,RSVPLG01,0.94,2023-09-12-22:31:44,909,1,Experiment,2023-09-12_15h48.50.433
1,local,local,0,6,5,77,0,,,83,exp,UFHEYTSFSNYNZUT,HNSLFHFYTUZUZNY,4,L,absent,lL,nN,l,1,0.9243402,n,1,0.3467045,RSVPLG01,0.94,2023-09-12-22:31:44,909,1,Experiment,2023-09-12_15h48.50.433
5,local,global,3,6,6,78,4,,,84,exp,FUTZELXHUHSSFTN,SLNYHHEFTNFULUE,4,Y,X,yY,yY,y,1,0.124642,y,1,0.2490613,RSVPLG01,0.94,2023-09-12-22:31:44,909,1,Experiment,2023-09-12_15h48.50.433
3,local,local,7,6,7,79,2,,,85,exp,ZYNTZHLTFELSNSE,SESTFUZLLFNYXNT,6,U,X,uU,yY,u,1,1.2730861,y,1,0.3012828,RSVPLG01,0.94,2023-09-12-22:31:44,909,1,Experiment,2023-09-12_15h48.50.433
6,local,global,7,6,8,80,5,,,86,exp,UZULNZSHHEXNYTY,YENFZHZSTSTENHU,4,F,X,fF,yY,n,0,0.2293388,y,1,0.6502665,RSVPLG01,0.94,2023-09-12-22:31:44,909,1,Experiment,2023-09-12_15h48.50.433
2,local,local,3,6,9,81,1,,,87,exp,YUENFTHYFENSHZU,FUSZZLYEXNHUSFE,6,L,X,lL,yY,l,1,0.9142471,y,1,0.2024158,RSVPLG01,0.94,2023-09-12-22:31:44,909,1,Experiment,2023-09-12_15h48.50.433
4,local,global,0,6,10,82,3,,,88,exp,SUFEUHNTHTNFZZY,FSNLUTHTNZYSYFH,4,L,absent,lL,nN,l,1,0.9746294,n,1,0.2503487,RSVPLG01,0.94,2023-09-12-22:31:44,909,1,Experiment,2023-09-12_15h48.50.433
12,global,global,7,6,11,83,11,,,89,exp,HYELTSUYENFTXUH,HUFTEZLNFYULNEH,6,S,X,sS,yY,s,1,0.7638369,n,0,0.1419304,RSVPLG01,0.94,2023-09-12-22:31:44,909,1,Experiment,2023-09-12_15h48.50.433
11,global,global,3,7,0,84,10,,,90,exp,HSZYTESZXFTYLUU,USHFZNUTFSLYLTH,6,E,X,eE,yY,n,0,0.1358112,y,1,0.4797199,RSVPLG01,0.94,2023-09-12-22:31:44,909,1,Experiment,2023-09-12_15h48.50.433
6,local,global,7,7,1,85,5,,,91,exp,ZHNZTEHEYSNXYFU,UYUNLNEZHZSFSHE,5,L,X,lL,yY,l,1,0.6680623,y,1,0.3028921,RSVPLG01,0.94,2023-09-12-22:31:44,909,1,Experiment,2023-09-12_15h48.50.433
12,global,global,7,7,2,86,11,,,92,exp,HTZLEUFFHZXEUNT,HETYTZSUNFUHSZE,4,L,X,lL,yY,y,0,0.3865191,y,1,0.8407059,RSVPLG01,0.94,2023-09-12-22:31:44,909,1,Experiment,2023-09-12_15h48.50.433
6,local,global,7,7,3,87,5,,,93,exp,NFSUZYHHUTSXTNL,LUNHETLSSYTFYHF,5,E,X,eE,yY,e,1,0.9993552,y,1,1.2902587,RSVPLG01,0.94,2023-09-12-22:31:44,909,1,Experiment,2023-09-12_15h48.50.433
1,local,local,0,7,4,88,0,,,94,exp,NSTFFEZNZLYHLSY,FLSNTUYFZZTLYHH,6,U,absent,uU,nN,u,1,0.9017432,n,1,0.3028253,RSVPLG01,0.94,2023-09-12-22:31:44,909,1,Experiment,2023-09-12_15h48.50.433
8,global,local,3,7,5,89,7,,,95,exp,FSYTUSHZLNYFHTN,HSNFESTXLHFTYLZ,5,U,X,uU,yY,n,0,0.9833968,n,0,1.018404,RSVPLG01,0.94,2023-09-12-22:31:44,909,1,Experiment,2023-09-12_15h48.50.433
7,global,local,0,7,6,90,6,,,96,exp,NTENSLHZYZTLFYH,NLYHUELNTEZZYFF,5,S,absent,sS,nN,u,0,1.8798791,y,0,0.0903517,RSVPLG01,0.94,2023-09-12-22:31:44,909,1,Experiment,2023-09-12_15h48.50.433
8,global,local,3,7,7,91,7,,,97,exp,HYHTSSUELFEYLFN,FNNZULXLESHEFHU,4,T,X,tT,yY,z,0,0.8557635,y,1,0.2657005,RSVPLG01,0.94,2023-09-12-22:31:44,909,1,Experiment,2023-09-12_15h48.50.433
10,global,global,0,7,8,92,9,,,98,exp,ZUYENHHFUZTEYLF,TFUZSYHEYLEFZUT,5,N,absent,nN,nN,s,0,0.7272593,n,1,0.1259172,RSVPLG01,0.94,2023-09-12-22:31:44,909,1,Experiment,2023-09-12_15h48.50.433
2,local,local,3,7,9,93,1,,,99,exp,EZLLNFUSTYZUTYS,YELEHSUXTLFTFZU,5,H,X,hH,yY,h,1,0.7279827,y,1,0.217236,RSVPLG01,0.94,2023-09-12-22:31:44,909,1,Experiment,2023-09-12_15h48.50.433
2,local,local,3,7,10,94,1,,,100,exp,ZNZTLYUUHNHTEES,SZEYFYHXNTHEZTN,5,F,X,fF,yY,e,0,0.7329831,y,1,0.1901558,RSVPLG01,0.94,2023-09-12-22:31:44,909,1,Experiment,2023-09-12_15h48.50.433
4,local,global,0,7,11,95,3,,,101,exp,ENFLSTHYNFLEHYT,LNZFUNYYZFTHTLE,5,U,absent,uU,nN,y,0,1.0072153,n,1,0.1210066,RSVPLG01,0.94,2023-09-12-22:31:44,909,1,Experiment,2023-09-12_15h48.50.433
4,local,global,0,8,0,96,3,,,102,exp,UYUNLSTTFLNHFHY,FLUNFEZTLYNUHZT,6,E,absent,eE,nN,e,1,0.8347224,y,0,0.2069678,RSVPLG01,0.94,2023-09-12-22:31:44,909,1,Experiment,2023-09-12_15h48.50.433
4,local,global,0,8,1,97,3,,,103,exp,NZFLSFENHHYLTZT,ZHTYUNZHNFTLFYL,5,U,absent,uU,nN,u,1,0.7675495,y,0,0.2517211,RSVPLG01,0.94,2023-09-12-22:31:44,909,1,Experiment,2023-09-12_15h48.50.433
4,local,global,0,8,2,98,3,,,104,exp,ULNTLUSESYZHEYH,ZULFZYLNEYESNHS,4,F,absent,fF,nN,f,1,0.8499892,n,1,0.1555732,RSVPLG01,0.94,2023-09-12-22:31:44,909,1,Experiment,2023-09-12_15h48.50.433
10,global,global,0,8,3,99,9,,,105,exp,ZTNZLHTFYYNSSUU,UZSFESNFHTHYUYZ,5,L,absent,lL,nN,l,1,0.8324373,n,1,0.0451398,RSVPLG01,0.94,2023-09-12-22:31:44,909,1,Experiment,2023-09-12_15h48.50.433
4,local,global,0,8,4,100,3,,,106,exp,NUHELUSZSTYYHNL,HYTFZNULHYUSSNL,4,F,absent,fF,nN,f,1,0.8604355,y,0,0.1701551,RSVPLG01,0.94,2023-09-12-22:31:44,909,1,Experiment,2023-09-12_15h48.50.433
7,global,local,0,8,5,101,6,,,107,exp,TEUNEFUZTSSZLYF,LFTHUZYSFUYLZET,4,N,absent,nN,nN,h,0,0.7663843,y,0,0.1723587,RSVPLG01,0.94,2023-09-12-22:31:44,909,1,Experiment,2023-09-12_15h48.50.433
12,global,global,7,8,6,102,11,,,108,exp,FHNUTLZHZSYYXFT,HFZZYENYHNSFUTT,6,L,X,lL,yY,l,1,0.5645214,y,1,0.3311769,RSVPLG01,0.94,2023-09-12-22:31:44,909,1,Experiment,2023-09-12_15h48.50.433
8,global,local,3,8,7,103,7,,,109,exp,YLHHTZNSZEFENYL,ZYHLUEFXSENSYFL,5,T,X,tT,yY,t,1,0.8855858,y,1,0.2796213,RSVPLG01,0.94,2023-09-12-22:31:44,909,1,Experiment,2023-09-12_15h48.50.433
11,global,global,3,8,8,104,10,,,110,exp,EHSFSTNLXFULUNY,USUSNZFHLEHYNLF,6,T,X,tT,yY,n,0,0.0318678,y,1,0.6219051,RSVPLG01,0.94,2023-09-12-22:31:44,909,1,Experiment,2023-09-12_15h48.50.433
12,global,global,7,8,9,105,11,,,111,exp,UTFUSEHENZFXZHN,HZUEYLUNTTHLFFZ,5,S,X,sS,yY,s,1,0.4371038,y,1,1.1500175,RSVPLG01,0.94,2023-09-12-22:31:44,909,1,Experiment,2023-09-12_15h48.50.433
1,local,local,0,8,10,106,0,,,112,exp,TFTHUNLSFYSZZUY,FUFSZETLLUZHYYH,6,E,absent,eE,nN,e,1,0.3186204,y,0,0.7766262,RSVPLG01,0.94,2023-09-12-22:31:44,909,1,Experiment,2023-09-12_15h48.50.433
4,local,global,0,8,11,107,3,,,113,exp,HFYFLETYUZTHNUN,ZFHYSUTNUTEZHNE,5,S,absent,sS,nN,s,1,0.8026107,y,0,0.4119766,RSVPLG01,0.94,2023-09-12-22:31:44,909,1,Experiment,2023-09-12_15h48.50.433
3,local,local,7,9,0,108,2,,,114,exp,FHLUNZSLTYYTZHS,ZYSTEFYSLTUXHLU,5,E,X,eE,yY,e,1,0.8253008,y,1,0.5851416,RSVPLG01,0.94,2023-09-12-22:31:44,909,1,Experiment,2023-09-12_15h48.50.433
4,local,global,0,9,1,109,3,,,115,exp,FZUYSTLNYLZFUTN,NUEEHFNUFTLZTLZ,5,H,absent,hH,nN,s,0,0.637964,y,0,0.4272929,RSVPLG01,0.94,2023-09-12-22:31:44,909,1,Experiment,2023-09-12_15h48.50.433
1,local,local,0,9,2,110,0,,,116,exp,SNLNYTLHHZTUUSZ,NHSFEUSTTUZNZLH,5,E,absent,eE,nN,e,1,1.4078089,y,0,0.3661744,RSVPLG01,0.94,2023-09-12-22:31:44,909,1,Experiment,2023-09-12_15h48.50.433
4,local,global,0,9,3,111,3,,,117,exp,TNSEYHSZHFFTUUN,HHZSLNNFEFTTZUE,5,L,absent,lL,nN,l,1,0.7530453,y,0,0.2685806,RSVPLG01,0.94,2023-09-12-22:31:44,909,1,Experiment,2023-09-12_15h48.50.433
2,local,local,3,9,4,112,1,,,118,exp,HLUTZHNLSNFFEUE,ULEYFZXZNHLEFSN,4,Y,X,yY,yY,z,0,0.294199,y,1,0.5846771,RSVPLG01,0.94,2023-09-12-22:31:44,909,1,Experiment,2023-09-12_15h48.50.433
7,global,local,0,9,5,113,6,,,119,exp,ULUFSTEYLZFYNEZ,TTLUHFYULEENZZY,5,S,absent,sS,nN,e,0,0.1174787,y,0,0.6237463,RSVPLG01,0.94,2023-09-12-22:31:44,909,1,Experiment,2023-09-12_15h48.50.433
7,global,local,0,9,6,114,6,,,120,exp,UETZYULHSZHTFSL,UUFHNTLTELZESZF,5,Y,absent,yY,nN,y,1,0.8118706,y,0,0.2336991,RSVPLG01,0.94,2023-09-12-22:31:44,909,1,Experiment,2023-09-12_15h48.50.433
11,global,global,3,9,7,115,10,,,121,exp,TZHYEFXFSSNELLN,THFUEZFELNHTSZS,4,Y,X,yY,yY,y,1,0.5122913,n,0,0.2166159,RSVPLG01,0.94,2023-09-12-22:31:44,909,1,Experiment,2023-09-12_15h48.50.433
9,global,local,7,9,8,116,8,,,122,exp,ZTHNEFUSZLSTUNL,TSSHYFHLLNUXTZF,5,E,X,eE,yY,e,1,0.6318386,y,1,0.1563485,RSVPLG01,0.94,2023-09-12-22:31:44,909,1,Experiment,2023-09-12_15h48.50.433
6,local,global,7,9,9,117,5,,,123,exp,SZUUFTNHYLSLXHY,NUHUFEZHLLSNSFY,6,E,X,eE,yY,e,1,0.7188171,y,1,0.3931497,RSVPLG01,0.94,2023-09-12-22:31:44,909,1,Experiment,2023-09-12_15h48.50.433
6,local,global,7,9,10,118,5,,,124,exp,FYEYHTESLNUXLUT,NEYSZUFYLTSEFLN,5,Z,X,zZ,yY,z,1,0.5999394,y,1,0.348881,RSVPLG01,0.94,2023-09-12-22:31:44,909,1,Experiment,2023-09-12_15h48.50.433
9,global,local,7,9,11,119,8,,,125,exp,HHFNFSZNETUZEUT,ETFUTLNFHZUZXYN,6,S,X,sS,yY,n,0,0.6419207,y,1,0.1706002,RSVPLG01,0.94,2023-09-12-22:31:44,909,1,Experiment,2023-09-12_15h48.50.433
3,local,local,7,10,0,120,2,,,126,exp,HSNLUZFTSYTFNHY,HYNNETYLLSTXZFS,5,E,X,eE,yY,e,1,0.648267,y,1,0.2060712,RSVPLG01,0.94,2023-09-12-22:31:44,909,1,Experiment,2023-09-12_15h48.50.433
5,local,global,3,10,1,121,4,,,127,exp,SLUSENYXFUHFLNT,TLSTZYHFULNYSHF,5,Z,X,zZ,yY,z,1,1.2727272,y,1,0.3608263,RSVPLG01,0.94,2023-09-12-22:31:44,909,1,Experiment,2023-09-12_15h48.50.433
11,global,global,3,10,2,122,10,,,128,exp,FNLLEZEHXNTTSYY,NLHFHULTFSTEENY,6,Z,X,zZ,yY,u,0,0.8228097,y,1,0.184989,RSVPLG01,0.94,2023-09-12-22:31:44,909,1,Experiment,2023-09-12_15h48.50.433
1,local,local,0,10,3,123,0,,,129,exp,TLZFSYNZTEFHNSH,HNFETUENSHSZLLT,6,U,absent,uU,nN,u,1,0.7997592,n,1,0.1231339,RSVPLG01,0.94,2023-09-12-22:31:44,909,1,Experiment,2023-09-12_15h48.50.433
10,global,global,0,10,4,124,9,,,130,exp,YLSFYTHEUSNHNLE,EULZLHTHYNSYETU,4,F,absent,fF,nN,y,0,0.7945652,y,0,0.110296,RSVPLG01,0.94,2023-09-12-22:31:44,909,1,Experiment,2023-09-12_15h48.50.433
11,global,global,3,10,5,125,10,,,131,exp,UHEZNHFXFZSTEUL,SFSHYZTELTUZHEU,5,N,X,nN,yY,y,0,1.0731665,y,1,0.1203731,RSVPLG01,0.94,2023-09-12-22:31:44,909,1,Experiment,2023-09-12_15h48.50.433
12,global,global,7,10,6,126,11,,,132,exp,ZUUZYSTEFNLEXNF,YZTNZHLFTNFEULE,6,S,X,sS,yY,s,1,0.486296,y,1,0.5092886,RSVPLG01,0.94,2023-09-12-22:31:44,909,1,Experiment,2023-09-12_15h48.50.433
7,global,local,0,10,7,127,6,,,133,exp,YESZUTZUNNSHHFE,FSZHNLNSZFUEHUE,6,T,absent,tT,nN,l,0,0.772201,n,1,0.1862731,RSVPLG01,0.94,2023-09-12-22:31:44,909,1,Experiment,2023-09-12_15h48.50.433
2,local,local,3,10,8,128,1,,,134,exp,ZULFYENTHHLZNUE,UTTNSFEXZNLLUHH,5,S,X,sS,yY,s,1,0.7235761,y,1,0.3161176,RSVPLG01,0.94,2023-09-12-22:31:44,909,1,Experiment,2023-09-12_15h48.50.433
7,global,local,0,10,9,129,6,,,135,exp,USNELHFZFLUZYNE,UNYEZTEZFLLYSFN,6,H,absent,hH,nN,t,0,0.7445718,y,0,0.2809641,RSVPLG01,0.94,2023-09-12-22:31:44,909,1,Experiment,2023-09-12_15h48.50.433
3,local,local,7,10,10,130,2,,,136,exp,ZHHYFUSFNSTNEET,TSNFHLHNEEYFXTS,6,L,X,lL,yY,l,1,0.8219237,y,1,0.2701229,RSVPLG01,0.94,2023-09-12-22:31:44,909,1,Experiment,2023-09-12_15h48.50.433
5,local,global,3,10,11,131,4,,,137,exp,ZESZNYETXUNFHSU,TFHEULSUTSZZNNE,6,L,X,lL,yY,y,0,1.1865221,y,1,1.2426172,RSVPLG01,0.94,2023-09-12-22:31:44,909,1,Experiment,2023-09-12_15h48.50.433
4,local,global,0,11,0,132,3,,,138,exp,ELSHTLNYZEZYNHS,UEEHFYLNZYSLHZN,5,F,absent,fF,nN,f,1,0.6679469,y,0,0.3456778,RSVPLG01,0.94,2023-09-12-22:31:44,909,1,Experiment,2023-09-12_15h48.50.433
6,local,global,7,11,1,133,5,,,139,exp,UZNTHLFNSFXYUHS,NSFEZFLHZUYHLSY,4,E,X,eE,yY,e,1,0.8235944,y,1,0.7457011,RSVPLG01,0.94,2023-09-12-22:31:44,909,1,Experiment,2023-09-12_15h48.50.433
9,global,local,7,11,2,134,8,,,140,exp,ZSFYHUUYLNLTNZF,SFNZELFUYYNXTZL,5,H,X,hH,yY,e,0,0.3144915,y,1,0.3474764,RSVPLG01,0.94,2023-09-12-22:31:44,909,1,Experiment,2023-09-12_15h48.50.433
2,local,local,3,11,3,135,1,,,141,exp,YNUYNHEZTFTESSZ,TSSYFLNZXYTUUZF,6,L,X,lL,yY,l,1,2.441613,y,1,0.3316473,RSVPLG01,0.94,2023-09-12-22:31:44,909,1,Experiment,2023-09-12_15h48.50.433
5,local,global,3,11,4,136,4,,,142,exp,HYLLZTSXSTNHENU,STUSFYLLNNEUTEY,5,F,X,fF,yY,f,1,0.0145214,y,1,0.7318577,RSVPLG01,0.94,2023-09-12-22:31:44,909,1,Experiment,2023-09-12_15h48.50.433
4,local,global,0,11,5,137,3,,,143,exp,TZTSUYFLEZNUELY,NFLHYZUTTEZEUYF,4,H,absent,hH,nN,h,1,0.7964514,y,0,0.3502156,RSVPLG01,0.94,2023-09-12-22:31:44,909,1,Experiment,2023-09-12_15h48.50.433
8,global,local,3,11,6,138,7,,,144,exp,FLYNFZTETZEUSYS,SYSHZEXLUTZFFUL,4,N,X,nN,yY,y,0,0.1117114,y,1,0.251484,RSVPLG01,0.94,2023-09-12-22:31:44,909,1,Experiment,2023-09-12_15h48.50.433
5,local,global,3,11,7,139,4,,,145,exp,FZHUNTXLZSTEENH,SNLYZZEHHTNFTEF,4,Y,X,yY,yY,y,1,0.3110848,y,1,0.4433763,RSVPLG01,0.94,2023-09-12-22:31:44,909,1,Experiment,2023-09-12_15h48.50.433
10,global,global,0,11,8,140,9,,,146,exp,TZYHENHFZSFNYLL,FZNNUYSZTYHSTFL,5,E,absent,eE,nN,h,0,0.8284983,y,0,0.1375706,RSVPLG01,0.94,2023-09-12-22:31:44,909,1,Experiment,2023-09-12_15h48.50.433
2,local,local,3,11,9,141,1,,,147,exp,SFZTUTZSHEFLLHE,FSZSNHEXZFHTYEL,5,N,X,nN,yY,n,1,0.5552756,y,1,0.5868759,RSVPLG01,0.94,2023-09-12-22:31:44,909,1,Experiment,2023-09-12_15h48.50.433
3,local,local,7,11,10,142,2,,,148,exp,NZSYFLUZUTHSTHN,YZUHHEFTUNSNXYS,6,E,X,eE,yY,e,1,0.7196761,y,1,0.3510421,RSVPLG01,0.94,2023-09-12-22:31:44,909,1,Experiment,2023-09-12_15h48.50.433
4,local,global,0,11,11,143,3,,,149,exp,NHZYLEYUSHSETUZ,NUUHFTETSYNHESZ,5,F,absent,fF,nN,l,0,0.1416145,y,0,0.6706064,RSVPLG01,0.94,2023-09-12-22:31:44,909,1,Experiment,2023-09-12_15h48.50.433
12,global,global,7,12,0,144,11,,,150,exp,EZEHUSFFTNTNXHL,HELHZYLNFUZUTEN,6,S,X,sS,yY,s,1,0.519784,y,1,0.330187,RSVPLG01,0.94,2023-09-12-22:31:44,909,1,Experiment,2023-09-12_15h48.50.433
11,global,global,3,12,1,145,10,,,151,exp,ETHTLYUUXLSEZFS,TSEUSNLFHFLTHZZ,6,Y,X,yY,yY,y,1,0.7987492,y,1,0.2357444,RSVPLG01,0.94,2023-09-12-22:31:44,909,1,Experiment,2023-09-12_15h48.50.433
7,global,local,0,12,2,146,6,,,152,exp,SETLHNLYSYEFTFZ,TZSTSUHYLEHLZEF,6,N,absent,nN,nN,u,0,0.8264494,y,0,0.1716313,RSVPLG01,0.94,2023-09-12-22:31:44,909,1,Experiment,2023-09-12_15h48.50.433
11,global,global,3,12,3,147,10,,,153,exp,HLYETUSXFFUZELY,EUFYNZYLZSFLUES,5,T,X,tT,yY,n,0,0.8970293,y,1,0.3629007,RSVPLG01,0.94,2023-09-12-22:31:44,909,1,Experiment,2023-09-12_15h48.50.433
12,global,global,7,12,4,148,11,,,154,exp,FYZFHLUNZUNHXYT,FEUTESNZTHNZUFH,6,L,X,lL,yY,l,1,0.5665512,y,1,0.5562272,RSVPLG01,0.94,2023-09-12-22:31:44,909,1,Experiment,2023-09-12_15h48.50.433
4,local,global,0,12,5,149,3,,,155,exp,ZHTUNNTSSFLZLFY,SLFEHYSFZLTNHZT,4,E,absent,eE,nN,e,1,0.9245482,y,0,0.5060234,RSVPLG01,0.94,2023-09-12-22:31:44,909,1,Experiment,2023-09-12_15h48.50.433
4,local,global,0,12,6,150,3,,,156,exp,YHUNZNSTFYULSHT,HYLNEHNTLTSFSFY,5,E,absent,eE,nN,n,0,0.9418382,n,1,0.0581856,RSVPLG01,0.94,2023-09-12-22:31:44,909,1,Experiment,2023-09-12_15h48.50.433
3,local,local,7,12,7,151,2,,,157,exp,SHNUZFYYULNLFHE,HNYYTLNFEUHXFSE,5,T,X,tT,yY,t,1,0.9640016,y,1,0.1391499,RSVPLG01,0.94,2023-09-12-22:31:44,909,1,Experiment,2023-09-12_15h48.50.433
6,local,global,7,12,8,152,5,,,158,exp,HYHESZETFYNTXLN,TELFTUHFLSYNYES,6,U,X,uU,yY,u,1,0.7022386,y,1,0.5416159,RSVPLG01,0.94,2023-09-12-22:31:44,909,1,Experiment,2023-09-12_15h48.50.433
3,local,local,7,12,9,153,2,,,159,exp,LSYYUZNESUETTLF,NNUYLHLSTEUFXEF,6,H,X,hH,yY,h,1,0.6333095,y,1,0.6666655,RSVPLG01,0.94,2023-09-12-22:31:44,909,1,Experiment,2023-09-12_15h48.50.433
4,local,global,0,12,10,154,3,,,160,exp,ELYEZFNYSSULUNH,HYHNTFESULYSLFE,5,T,absent,tT,nN,t,1,0.9024162,y,0,0.2657662,RSVPLG01,0.94,2023-09-12-22:31:44,909,1,Experiment,2023-09-12_15h48.50.433
12,global,global,7,12,11,155,11,,,161,exp,ZUUSTFNSEHNHXEL,TUULNYHNEZEHSTL,6,F,X,fF,yY,y,0,0.6710676,y,1,0.426163,RSVPLG01,0.94,2023-09-12-22:31:44,909,1,Experiment,2023-09-12_15h48.50.433
8,global,local,3,13,0,156,7,,,162,exp,ETYELYHUSNTSFUN,TFFYZNHXETYHEUS,5,L,X,lL,yY,l,1,1.2725899,y,1,0.2389507,RSVPLG01,0.94,2023-09-12-22:31:44,909,1,Experiment,2023-09-12_15h48.50.433
6,local,global,7,13,1,157,5,,,163,exp,EHYSYNZLTNXFFHE,EZLUYHLFFTENNYT,4,U,X,uU,yY,u,1,0.6146891,y,1,0.4092291,RSVPLG01,0.94,2023-09-12-22:31:44,909,1,Experiment,2023-09-12_15h48.50.433
10,global,global,0,13,2,158,9,,,164,exp,SLYFYEZHUTZTUHS,TUZLSNSYLFFUYTH,6,E,absent,eE,nN,n,0,0.7367556,y,0,0.2498862,RSVPLG01,0.94,2023-09-12-22:31:44,909,1,Experiment,2023-09-12_15h48.50.433
1,local,local,0,13,3,159,0,,,165,exp,UEZLFTNNHHYZYUE,HEESZTUNFFNHYUZ,4,S,absent,sS,nN,s,1,0.8305449,y,0,0.5234631,RSVPLG01,0.94,2023-09-12-22:31:44,909,1,Experiment,2023-09-12_15h48.50.433
11,global,global,3,13,4,160,10,,,166,exp,ZZUFELEHXNUSHFY,YHSEYTZZUSHNFEN,6,L,X,lL,yY,l,1,0.5947619,y,1,0.1537768,RSVPLG01,0.94,2023-09-12-22:31:44,909,1,Experiment,2023-09-12_15h48.50.433
1,local,local,0,13,5,161,0,,,167,exp,LUNLZSYUZTTFNEF,YTEUNHFTYZLNZUE,6,H,absent,hH,nN,h,1,0.7842693,y,0,0.3288127,RSVPLG01,0.94,2023-09-12-22:31:44,909,1,Experiment,2023-09-12_15h48.50.433
9,global,local,7,13,6,162,8,,,168,exp,TSSLFHNEEHLZYYN,SYNZUSHNZLLXETE,5,F,X,fF,yY,h,0,0.6896323,n,0,0.1712429,RSVPLG01,0.94,2023-09-12-22:31:44,909,1,Experiment,2023-09-12_15h48.50.433
5,local,global,3,13,7,163,4,,,169,exp,SSENEFXTLYHTLFU,FLFZUESUYHTLESH,4,Z,X,zZ,yY,z,1,0.3073191,y,1,0.3503948,RSVPLG01,0.94,2023-09-12-22:31:44,909,1,Experiment,2023-09-12_15h48.50.433
7,global,local,0,13,8,164,6,,,170,exp,ZYHLNUHSNESEZLY,EZLTNFSLZEYHHNS,6,U,absent,uU,nN,y,0,1.3621181,y,0,0.9058043,RSVPLG01,0.94,2023-09-12-22:31:44,909,1,Experiment,2023-09-12_15h48.50.433
11,global,global,3,13,9,165,10,,,171,exp,NZZHNSXTLYTUYSF,USLEFLNSFYZYTUN,4,H,X,hH,yY,e,0,0.4207021,y,1,0.3304712,RSVPLG01,0.94,2023-09-12-22:31:44,909,1,Experiment,2023-09-12_15h48.50.433
2,local,local,3,13,10,166,1,,,172,exp,UTLSELNTHFYUFSH,FSNFZHNXYSLYUHT,5,Z,X,zZ,yY,z,1,0.8029618,y,1,0.4421011,RSVPLG01,0.94,2023-09-12-22:31:44,909,1,Experiment,2023-09-12_15h48.50.433
9,global,local,7,13,11,167,8,,,173,exp,ZHNLNYYZFFTSTUS,ZTTEUZFYSHXYNHS,4,L,X,lL,yY,l,1,0.6703269,y,1,0.2868963,RSVPLG01,0.94,2023-09-12-22:31:44,909,1,Experiment,2023-09-12_15h48.50.433
12,global,global,7,14,0,168,11,,,174,exp,YNZHFTTUNSYXEHS,ZYEULZSHNTNEYUT,5,F,X,fF,yY,z,0,0.4238241,y,1,0.6998416,RSVPLG01,0.94,2023-09-12-22:31:44,909,1,Experiment,2023-09-12_15h48.50.433
10,global,global,0,14,1,169,9,,,175,exp,TSNYFHSZHLYLNZU,YSUZEZYSTUHLHNN,5,F,absent,fF,nN,f,1,0.6706391,y,0,0.2988318,RSVPLG01,0.94,2023-09-12-22:31:44,909,1,Experiment,2023-09-12_15h48.50.433
5,local,global,3,14,2,170,4,,,176,exp,ELTYHFUZXEYTLZU,SEZTUNZEYSHHTUY,6,N,X,nN,yY,n,1,0.060512,y,1,0.3186687,RSVPLG01,0.94,2023-09-12-22:31:44,909,1,Experiment,2023-09-12_15h48.50.433
10,global,global,0,14,3,171,9,,,177,exp,FUYUFSNHYLNZTLZ,HUFNYEYTZNLZTFH,6,S,absent,sS,nN,e,0,0.4096948,y,0,0.3809055,RSVPLG01,0.94,2023-09-12-22:31:44,909,1,Experiment,2023-09-12_15h48.50.433
11,global,global,3,14,4,172,10,,,178,exp,ZYEUTYXZLHSNEHS,HHLFZTYSENNSZLY,4,U,X,uU,yY,y,0,0.503513,y,1,0.669932,RSVPLG01,0.94,2023-09-12-22:31:44,909,1,Experiment,2023-09-12_15h48.50.433
1,local,local,0,14,5,173,0,,,179,exp,NLLZHEUSYNFZYUS,UYSSLTLHYUHNFZF,6,T,absent,tT,nN,t,1,0.8432691,y,0,0.4256016,RSVPLG01,0.94,2023-09-12-22:31:44,909,1,Experiment,2023-09-12_15h48.50.433
5,local,global,3,14,6,174,4,,,180,exp,FSUTZELTXNSNHFL,THLNLYTSSUZFNUZ,6,Y,X,yY,yY,y,1,0.0229185,y,1,0.5076329,RSVPLG01,0.94,2023-09-12-22:31:44,909,1,Experiment,2023-09-12_15h48.50.433
1,local,local,0,14,7,175,0,,,181,exp,LTYFZHFYLNESSEH,FYLNUTHFEHYSTEL,5,U,absent,uU,nN,u,1,1.0291948,y,0,0.3005959,RSVPLG01,0.94,2023-09-12-22:31:44,909,1,Experiment,2023-09-12_15h48.50.433
6,local,global,7,14,8,176,5,,,182,exp,ENSLZETTNHXFSUH,ZZHYNUNSEFSEHTF,4,Y,X,yY,yY,y,1,0.2082433,y,1,0.4794568,RSVPLG01,0.94,2023-09-12-22:31:44,909,1,Experiment,2023-09-12_15h48.50.433
6,local,global,7,14,9,177,5,,,183,exp,HSFHZNETFENXUYT,FEUNLYHNFEYSHTT,5,L,X,lL,yY,l,1,0.5515958,y,1,0.3466649,RSVPLG01,0.94,2023-09-12-22:31:44,909,1,Experiment,2023-09-12_15h48.50.433
8,global,local,3,14,10,178,7,,,184,exp,NTTELHUUSFHEYFS,ETSUZFHXHTNSNYU,5,L,X,lL,yY,l,1,0.9611229,y,1,0.1690354,RSVPLG01,0.94,2023-09-12-22:31:44,909,1,Experiment,2023-09-12_15h48.50.433
1,local,local,0,14,11,179,0,,,185,exp,NUYTYLEFSLNEZSF,USYHZYELSNFFNLU,4,H,absent,hH,nN,h,1,0.7627029,y,0,0.2994903,RSVPLG01,0.94,2023-09-12-22:31:44,909,1,Experiment,2023-09-12_15h48.50.433
4,local,global,0,15,0,180,3,,,186,exp,NLYSFZSUNLHUEHE,YYHHNTLSFUENULE,6,T,absent,tT,nN,t,1,0.8121965,n,1,0.1249672,RSVPLG01,0.94,2023-09-12-22:31:44,909,1,Experiment,2023-09-12_15h48.50.433
6,local,global,7,15,1,181,5,,,187,exp,HFSTLEUUEYYXTHZ,TEHUNEZTYUFFSSZ,5,N,X,nN,yY,e,0,0.3969267,y,1,0.2374052,RSVPLG01,0.94,2023-09-12-22:31:44,909,1,Experiment,2023-09-12_15h48.50.433
11,global,global,3,15,2,182,10,,,188,exp,EUEYZZXNSFTUNSH,FZHLTETEZFSNHSU,4,Y,X,yY,yY,l,0,0.3714042,y,1,0.1392728,RSVPLG01,0.94,2023-09-12-22:31:44,909,1,Experiment,2023-09-12_15h48.50.433
3,local,local,7,15,3,183,2,,,189,exp,LLHEFNUFUTSZZST,ZLFYHSLTUZXUFHT,4,Y,X,yY,yY,y,1,0.5893331,y,1,0.2191504,RSVPLG01,0.94,2023-09-12-22:31:44,909,1,Experiment,2023-09-12_15h48.50.433
11,global,global,3,15,4,184,10,,,190,exp,TTESFHXEZYHYFNU,UYFLENHFUZTYZNE,4,S,X,sS,yY,l,0,0.9223627,y,1,0.2855881,RSVPLG01,0.94,2023-09-12-22:31:44,909,1,Experiment,2023-09-12_15h48.50.433
3,local,local,7,15,5,185,2,,,191,exp,YHSZEUETHNZTYSF,YYTFELFSNTZSXZE,6,L,X,lL,yY,l,1,0.6015954,y,1,1.8369732,RSVPLG01,0.94,2023-09-12-22:31:44,909,1,Experiment,2023-09-12_15h48.50.433
3,local,local,7,15,6,186,2,,,192,exp,NHLYHFNSTSLTUUZ,HSZETZLTLUXNUFN,4,E,X,eE,yY,e,1,0.2121154,y,1,0.5106276,RSVPLG01,0.94,2023-09-12-22:31:44,909,1,Experiment,2023-09-12_15h48.50.433
1,local,local,0,15,7,187,0,,,193,exp,ELLHUYEFUFNTNZY,LUESYNZETTLZFUY,4,S,absent,sS,nN,s,1,0.6815013,y,0,0.3500689,RSVPLG01,0.94,2023-09-12-22:31:44,909,1,Experiment,2023-09-12_15h48.50.433
5,local,global,3,15,8,188,4,,,194,exp,UYSFLNXEYULTENH,EUTZSTLYNSEHLHN,4,Z,X,zZ,yY,z,1,0.9849669,y,1,0.3182695,RSVPLG01,0.94,2023-09-12-22:31:44,909,1,Experiment,2023-09-12_15h48.50.433
1,local,local,0,15,9,189,0,,,195,exp,FEFUSZHSTLNTHLE,EUSTHYLLHSENUFT,6,Y,absent,yY,nN,y,1,0.826037,n,1,0.1851673,RSVPLG01,0.94,2023-09-12-22:31:44,909,1,Experiment,2023-09-12_15h48.50.433
8,global,local,3,15,10,190,7,,,196,exp,YYTSZFTUNUNHSZE,NZZUELSUXYTETYS,6,F,X,fF,yY,l,0,0.3525563,y,1,0.3301353,RSVPLG01,0.94,2023-09-12-22:31:44,909,1,Experiment,2023-09-12_15h48.50.433
3,local,local,7,15,11,191,2,,,197,exp,HULNUZYETSTLSNY,TLHSHFEYUULSXTY,6,F,X,fF,yY,z,0,0.9448707,y,1,0.2968671,RSVPLG01,0.94,2023-09-12-22:31:44,909,1,Experiment,2023-09-12_15h48.50.433
5,local,global,3,16,0,192,4,,,198,exp,EFHZLUSZXHYYEFL,HTELTNYSSZFYLZF,6,N,X,nN,yY,n,1,0.046977,y,1,0.8599248,RSVPLG01,0.94,2023-09-12-22:31:44,909,1,Experiment,2023-09-12_15h48.50.433
8,global,local,3,16,1,193,7,,,199,exp,TYSNHSLYFETEZFN,NEYTUTNXYLSESZF,5,H,X,hH,yY,h,1,0.7379834,n,0,0.2495573,RSVPLG01,0.94,2023-09-12-22:31:44,909,1,Experiment,2023-09-12_15h48.50.433
9,global,local,7,16,2,194,8,,,200,exp,FSTLNUTZFLHEHZS,LZHUYEFSFETXHZU,5,N,X,nN,yY,y,0,1.2227808,n,0,0.0129316,RSVPLG01,0.94,2023-09-12-22:31:44,909,1,Experiment,2023-09-12_15h48.50.433
11,global,global,3,16,3,195,10,,,201,exp,YFESTZEXLUYZFLS,ZELYHZEFFNSYNSU,5,T,X,tT,yY,h,0,1.6644114,y,1,0.2196233,RSVPLG01,0.94,2023-09-12-22:31:44,909,1,Experiment,2023-09-12_15h48.50.433
7,global,local,0,16,4,196,6,,,202,exp,HUFZENTLSLZESHF,TZFSFYLEUHSLHZE,6,N,absent,nN,nN,n,1,0.6854112,n,1,0.3191634,RSVPLG01,0.94,2023-09-12-22:31:44,909,1,Experiment,2023-09-12_15h48.50.433
11,global,global,3,16,5,197,10,,,203,exp,TEFZHUNXNTFLSZL,FTNUYTEZFELLZUS,5,H,X,hH,yY,y,0,0.837858,y,1,0.3923846,RSVPLG01,0.94,2023-09-12-22:31:44,909,1,Experiment,2023-09-12_15h48.50.433
8,global,local,3,16,6,198,7,,,204,exp,SHLUZFLSENUYYFH,ULEFTUYXHSSNLFN,5,Z,X,zZ,yY,t,0,0.7365343,n,0,0.2319161,RSVPLG01,0.94,2023-09-12-22:31:44,909,1,Experiment,2023-09-12_15h48.50.433
3,local,local,7,16,7,199,2,,,205,exp,ETYSYZNTSLEHUNH,HNSNTFLLETYHXSY,6,F,X,fF,yY,f,1,0.8344153,y,1,0.2192208,RSVPLG01,0.94,2023-09-12-22:31:44,909,1,Experiment,2023-09-12_15h48.50.433
1,local,local,0,16,8,200,0,,,206,exp,THHFSUZESUYEYZT,TLUNYSLZHUYETEH,4,N,absent,nN,nN,y,0,0.6092869,y,0,0.0942487,RSVPLG01,0.94,2023-09-12-22:31:44,909,1,Experiment,2023-09-12_15h48.50.433
9,global,local,7,16,9,201,8,,,207,exp,THLSFTUHUYLSENY,YLLNZUYSTSHXHEU,5,F,X,fF,yY,z,0,0.9760257,y,1,0.3773092,RSVPLG01,0.94,2023-09-12-22:31:44,909,1,Experiment,2023-09-12_15h48.50.433
8,global,local,3,16,10,202,7,,,208,exp,UUZZETFYSSHYFLT,UTFLNZTXHFLUYSH,5,E,X,eE,yY,n,0,0.7474859,n,0,0.2486978,RSVPLG01,0.94,2023-09-12-22:31:44,909,1,Experiment,2023-09-12_15h48.50.433
3,local,local,7,16,11,203,2,,,209,exp,TUHFUTZSZYHNYEE,ZHNLYSYEUEXNHTS,4,L,X,lL,yY,l,1,1.7194576,y,1,0.1215356,RSVPLG01,0.94,2023-09-12-22:31:44,909,1,Experiment,2023-09-12_15h48.50.433
7,global,local,0,17,0,204,6,,,210,exp,HYLSFTLFUHNYNEE,EHNZYNHEUTFLLUY,4,S,absent,sS,nN,z,0,0.7547098,n,1,0.1896393,RSVPLG01,0.94,2023-09-12-22:31:44,909,1,Experiment,2023-09-12_15h48.50.433
4,local,global,0,17,1,205,3,,,211,exp,FENUFTZULNHZHSE,NFLESYEHFUUZSHZ,6,Y,absent,yY,nN,y,1,0.8385234,y,0,0.1242993,RSVPLG01,0.94,2023-09-12-22:31:44,909,1,Experiment,2023-09-12_15h48.50.433
5,local,global,3,17,2,206,4,,,212,exp,LFHFZUTXHEEUSSY,SHFLNYUTFLYSUEH,5,N,X,nN,yY,n,1,0.6160969,y,1,0.3667069,RSVPLG01,0.94,2023-09-12-22:31:44,909,1,Experiment,2023-09-12_15h48.50.433
2,local,local,3,17,3,207,1,,,213,exp,UYLESTFENLYNUFT,EHYNZLNXTFULFYE,5,Z,X,zZ,yY,z,1,0.7927569,y,1,1.2243361,RSVPLG01,0.94,2023-09-12-22:31:44,909,1,Experiment,2023-09-12_15h48.50.433
5,local,global,3,17,4,208,4,,,214,exp,HFTSULXHLYEUFYT,FZTNTYULFYHHELZ,4,N,X,nN,yY,n,1,0.2545732,y,1,0.3946867,RSVPLG01,0.94,2023-09-12-22:31:44,909,1,Experiment,2023-09-12_15h48.50.433
12,global,global,7,17,5,209,11,,,215,exp,TESNSYUFLULFXET,NFLENZUFSTLTSHU,6,Y,X,yY,yY,y,1,0.44469,y,1,0.1577974,RSVPLG01,0.94,2023-09-12-22:31:44,909,1,Experiment,2023-09-12_15h48.50.433
3,local,local,7,17,6,210,2,,,216,exp,FSNLYUUYFNZTTHH,FYNEUHTFHSXZNZT,4,E,X,eE,yY,e,1,0.6803451,y,1,0.1572398,RSVPLG01,0.94,2023-09-12-22:31:44,909,1,Experiment,2023-09-12_15h48.50.433
5,local,global,3,17,7,211,4,,,217,exp,LFYEUNHXTYSELNH,SYEYZHELTFNSLFT,5,Z,X,zZ,yY,y,0,0.0209958,y,1,0.2178434,RSVPLG01,0.94,2023-09-12-22:31:44,909,1,Experiment,2023-09-12_15h48.50.433
10,global,global,0,17,8,212,9,,,218,exp,UEUHZSEHLTLYYNZ,TEHLNFNYZZYUHET,6,S,absent,sS,nN,s,1,0.7827445,y,0,0.2033708,RSVPLG01,0.94,2023-09-12-22:31:44,909,1,Experiment,2023-09-12_15h48.50.433
11,global,global,3,17,9,213,10,,,219,exp,UNZSFZXNUTFTYYH,FNHLEZNTFZYUUHT,4,S,X,sS,yY,z,0,0.1924945,y,1,0.2674801,RSVPLG01,0.94,2023-09-12-22:31:44,909,1,Experiment,2023-09-12_15h48.50.433
6,local,global,7,17,10,214,5,,,220,exp,FYFUZHTYEZXHNNT,YYFLSNZNZFTEEHH,4,L,X,lL,yY,l,1,0.3445862,y,1,0.2484496,RSVPLG01,0.94,2023-09-12-22:31:44,909,1,Experiment,2023-09-12_15h48.50.433
6,local,global,7,17,11,215,5,,,221,exp,ZEEFHLFTSUUXYLY,SYUZNLFLTUEFTEZ,5,N,X,nN,yY,n,1,0.4015286,y,1,0.3011252,RSVPLG01,0.94,2023-09-12-22:31:44,909,1,Experiment,2023-09-12_15h48.50.433
6,local,global,7,18,0,216,5,,,222,exp,ZLSHNUUZYSHXFLF,TSHSEZLFUTFZUYH,5,E,X,eE,yY,e,1,0.4467342,y,1,0.3302992,RSVPLG01,0.94,2023-09-12-22:31:44,909,1,Experiment,2023-09-12_15h48.50.433
2,local,local,3,18,1,217,1,,,223,exp,FHNTSLULUHTFZYN,THULEHUXTNZFYNY,5,E,X,eE,yY,e,1,0.7558397,y,1,0.1727519,RSVPLG01,0.94,2023-09-12-22:31:44,909,1,Experiment,2023-09-12_15h48.50.433
8,global,local,3,18,2,218,7,,,224,exp,STZZHFSEHNELYTL,YZNYLUTHXETZSNH,6,F,X,fF,yY,h,0,0.8991178,n,0,0.1401616,RSVPLG01,0.94,2023-09-12-22:31:44,909,1,Experiment,2023-09-12_15h48.50.433
2,local,local,3,18,3,219,1,,,225,exp,FNUEZNULHHYFSLS,NULETNHXSSHFYYU,5,T,X,tT,yY,t,1,0.4528052,y,1,0.1362875,RSVPLG01,0.94,2023-09-12-22:31:44,909,1,Experiment,2023-09-12_15h48.50.433
12,global,global,7,18,4,220,11,,,226,exp,ZTNYTLSSFYHZXUF,FFHZZEYHSUYSUNN,6,L,X,lL,yY,e,0,0.5133403,y,1,0.2083352,RSVPLG01,0.94,2023-09-12-22:31:44,909,1,Experiment,2023-09-12_15h48.50.433
11,global,global,3,18,5,221,10,,,227,exp,USFZTTXULELSHHY,SEUNTUFFHETLSYY,4,Z,X,zZ,yY,n,0,0.5376248,y,1,0.2020094,RSVPLG01,0.94,2023-09-12-22:31:44,909,1,Experiment,2023-09-12_15h48.50.433
11,global,global,3,18,6,222,10,,,228,exp,HYYTZEXFLHESNZS,NHSUNSHZLZLYFEF,4,T,X,tT,yY,y,0,0.1189758,y,1,0.202455,RSVPLG01,0.94,2023-09-12-22:31:44,909,1,Experiment,2023-09-12_15h48.50.433
8,global,local,3,18,7,223,7,,,229,exp,FLSYZLUTNTHFSNH,ZHFELZXTUTSNLNU,4,Y,X,yY,yY,y,1,0.1964474,y,1,0.1562319,RSVPLG01,0.94,2023-09-12-22:31:44,909,1,Experiment,2023-09-12_15h48.50.433
10,global,global,0,18,8,224,9,,,230,exp,FFTYENLHSELUUHS,TUHZNEFELLSSFTH,4,Y,absent,yY,nN,y,1,0.3133057,n,1,0.2819984,RSVPLG01,0.94,2023-09-12-22:31:44,909,1,Experiment,2023-09-12_15h48.50.433
2,local,local,3,18,9,225,1,,,231,exp,LLFNUTZEENSUZHS,NSZULYZHXESNUEF,6,Y,X,yY,yY,y,1,0.7690662,y,1,0.1697068,RSVPLG01,0.94,2023-09-12-22:31:44,909,1,Experiment,2023-09-12_15h48.50.433
9,global,local,7,18,10,226,8,,,232,exp,SLUYHEZLFUZSHFN,HUZNSTFSLYZLXYH,6,E,X,eE,yY,z,0,0.6440984,y,1,0.0890998,RSVPLG01,0.94,2023-09-12-22:31:44,909,1,Experiment,2023-09-12_15h48.50.433
9,global,local,7,18,11,227,8,,,233,exp,ETSYFHNUSENUTZF,HFELHZTUSNXZSNU,4,Y,X,yY,yY,y,1,0.6393539,y,1,0.1875819,RSVPLG01,0.94,2023-09-12-22:31:44,909,1,Experiment,2023-09-12_15h48.50.433
9,global,local,7,19,0,228,8,,,234,exp,SSHNFLEYUTENFTH,NTYNYZEHSSEUXTU,6,L,X,lL,yY,l,1,0.8057887,n,0,0.1100909,RSVPLG01,0.94,2023-09-12-22:31:44,909,1,Experiment,2023-09-12_15h48.50.433
10,global,global,0,19,1,229,9,,,235,exp,EHTUSTYEZNZYNHU,UYHEFTLUNZNETZH,5,S,absent,sS,nN,s,1,0.918047,y,0,0.1543724,RSVPLG01,0.94,2023-09-12-22:31:44,909,1,Experiment,2023-09-12_15h48.50.433
9,global,local,7,19,2,230,8,,,236,exp,UHNETSFUHEYNLTF,UYNFFZHEHUYNXTE,6,S,X,sS,yY,s,1,0.6009926,n,0,0.1206596,RSVPLG01,0.94,2023-09-12-22:31:44,909,1,Experiment,2023-09-12_15h48.50.433
3,local,local,7,19,3,231,2,,,237,exp,NSYUZHYSFFNLHZT,STZEZTSNYLXFNYL,4,E,X,eE,yY,e,1,1.2375411,y,1,0.0423628,RSVPLG01,0.94,2023-09-12-22:31:44,909,1,Experiment,2023-09-12_15h48.50.433
8,global,local,3,19,4,232,7,,,238,exp,SSYNTLZUETUZLEF,EYTHTSXFZSLYFUZ,4,N,X,nN,yY,h,0,1.4300675,y,1,0.1422782,RSVPLG01,0.94,2023-09-12-22:31:44,909,1,Experiment,2023-09-12_15h48.50.433
7,global,local,0,19,5,233,6,,,239,exp,USSEYZFTTHLEUFY,YSSULNTEELTUHFH,6,Z,absent,zZ,nN,z,1,0.6825771,n,1,0.1068001,RSVPLG01,0.94,2023-09-12-22:31:44,909,1,Experiment,2023-09-12_15h48.50.433
9,global,local,7,19,6,234,8,,,240,exp,TFZLESLNZHYYTSH,HTLSUYNFFZZXNTL,5,E,X,eE,yY,y,0,1.2608571,y,1,1.0174757,RSVPLG01,0.94,2023-09-12-22:31:44,909,1,Experiment,2023-09-12_15h48.50.433
12,global,global,7,19,7,235,11,,,241,exp,LYNUSZHUENSLXHY,SEUFYTNUSHHLNEF,6,Z,X,zZ,yY,z,1,0.4937836,y,1,0.6196233,RSVPLG01,0.94,2023-09-12-22:31:44,909,1,Experiment,2023-09-12_15h48.50.433
9,global,local,7,19,8,236,8,,,242,exp,TZEELSYZNUUFLFY,YUTNUHYTFLZFXEL,6,S,X,sS,yY,s,1,0.7530916,n,0,0.2373479,RSVPLG01,0.94,2023-09-12-22:31:44,909,1,Experiment,2023-09-12_15h48.50.433
7,global,local,0,19,9,237,6,,,243,exp,NZNZLHSSTUEYETY,LUENZFZTUTESSYN,6,H,absent,hH,nN,e,0,0.6209204,y,0,0.1551688,RSVPLG01,0.94,2023-09-12-22:31:44,909,1,Experiment,2023-09-12_15h48.50.433
7,global,local,0,19,10,238,6,,,244,exp,UHTNUZSFLHEFTNL,HUUNSYHFEFNLTSL,6,Z,absent,zZ,nN,z,1,0.7257373,n,1,0.1385711,RSVPLG01,0.94,2023-09-12-22:31:44,909,1,Experiment,2023-09-12_15h48.50.433
10,global,global,0,19,11,239,9,,,245,exp,HSHLFTETYENNYUL,YHNSZTSNLHTLUEU,5,F,absent,fF,nN,f,1,0.8090247,n,1,0.1431522,RSVPLG01,0.94,2023-09-12-22:31:44,909,1,Experiment,2023-09-12_15h48.50.433