row,t1_level,t2_level,t2_lag,.thisRepN,.thisTrialN,.thisN,.thisIndex,thisRow.t,notes,trial,trial_type,global_letters,local_letters,t1_pos,t1,t2,t1_corr,t2_corr,t1_resp,t1_acc,t1_rt,t2_resp,t2_acc,t2_rt,exp,ver,mod-utc,sub,sess,blocktyp,datetime
1,local,local,0,0,0,0,0,,,1,warmup,ZNSUTEHYLHUEZSY,YULNFNESUSEHYHZ,5,F,absent,fF,nN,e,0,0.973138,y,0,0.7417649,RSVPLG01,0.94,2023-09-12-22:47:28,908,1,Experiment,2023-09-12_16h02.59.572
7,global,local,0,0,1,1,6,,,2,warmup,FSEYTUSNFHTYLHN,LTSSEZYNFHTLNHY,6,U,absent,uU,nN,u,1,0.8560901,y,0,0.6831258,RSVPLG01,0.94,2023-09-12-22:47:28,908,1,Experiment,2023-09-12_16h02.59.572
3,local,local,7,0,2,2,2,,,3,warmup,HTULSNYUSYFFZHZ,YTZEFUHSHSXFUTN,4,E,X,eE,yY,e,1,0.761423,y,1,0.149377,RSVPLG01,0.94,2023-09-12-22:47:28,908,1,Experiment,2023-09-12_16h02.59.572
2,local,local,3,0,3,3,1,,,4,warmup,NTZULNYSHLTEHEY,SHNFTSXLTNZEHYL,4,F,X,fF,yY,l,0,0.8238028,y,1,0.1168536,RSVPLG01,0.94,2023-09-12-22:47:28,908,1,Experiment,2023-09-12_16h02.59.572
10,global,global,0,0,4,4,9,,,5,warmup,NZESHLHULNFFYEZ,ZUUTLZYFELHNNEF,4,S,absent,sS,nN,s,1,1.3593119,n,1,0.9277554,RSVPLG01,0.94,2023-09-12-22:47:28,908,1,Experiment,2023-09-12_16h02.59.572
9,global,local,7,0,0,0,8,,,6,exp,FTSHUSUNFZLTNYZ,SZTEFYYSULXTULN,4,H,X,hH,yY,h,1,0.9113932,y,1,0.26479,RSVPLG01,0.94,2023-09-12-22:47:28,908,1,Experiment,2023-09-12_16h02.59.572
12,global,global,7,0,1,1,11,,,7,exp,FSFEYNYZUNXLZSU,FFSHUZYZNULTYTS,4,E,X,eE,yY,f,0,0.9765739,y,1,0.2006585,RSVPLG01,0.94,2023-09-12-22:47:28,908,1,Experiment,2023-09-12_16h02.59.572
12,global,global,7,0,2,2,11,,,8,exp,YZELUFLNYHHXZES,YEEHTNNZFZFYLSS,5,U,X,uU,yY,u,1,0.8361659,y,1,0.122645,RSVPLG01,0.94,2023-09-12-22:47:28,908,1,Experiment,2023-09-12_16h02.59.572
4,local,global,0,0,3,3,3,,,9,exp,LSEYNUTEHFHFTLU,LSNZFFTSNHUEHTE,4,Z,absent,zZ,nN,y,0,0.9527789,n,1,0.5242271,RSVPLG01,0.94,2023-09-12-22:47:28,908,1,Experiment,2023-09-12_16h02.59.572
12,global,global,7,0,4,4,11,,,10,exp,FZEHULEUSZYNXSF,FUUZETNSZYHHNFE,6,L,X,lL,yY,l,1,1.1696971,y,1,0.3302467,RSVPLG01,0.94,2023-09-12-22:47:28,908,1,Experiment,2023-09-12_16h02.59.572
7,global,local,0,0,5,5,6,,,11,exp,LLFUYHTFZZEHEUN,NTZESEULHZHNFTU,5,Y,absent,yY,nN,y,1,0.9128995,n,1,0.2423037,RSVPLG01,0.94,2023-09-12-22:47:28,908,1,Experiment,2023-09-12_16h02.59.572
1,local,local,0,0,6,6,0,,,12,exp,ZELTYFUYEHULHTS,STTHHNEZSEUYLZL,6,N,absent,nN,nN,e,0,0.8659798,y,0,0.0046178,RSVPLG01,0.94,2023-09-12-22:47:28,908,1,Experiment,2023-09-12_16h02.59.572
10,global,global,0,0,7,7,9,,,13,exp,SNYZZFLUYSNHLHU,EULLSTSHEHNNYZZ,6,F,absent,fF,nN,f,1,0.9593734,y,0,0.151064,RSVPLG01,0.94,2023-09-12-22:47:28,908,1,Experiment,2023-09-12_16h02.59.572
2,local,local,3,0,8,8,1,,,14,exp,TSHYFEZLTZHEYNN,ZESYUNEXTHNSLYL,5,U,X,uU,yY,u,1,0.958197,y,1,0.0861006,RSVPLG01,0.94,2023-09-12-22:47:28,908,1,Experiment,2023-09-12_16h02.59.572
4,local,global,0,0,9,9,3,,,15,exp,USTFLHTYEYLENNS,TSFLFZYUNELTESN,6,Z,absent,zZ,nN,z,1,0.9165888,n,1,0.4170784,RSVPLG01,0.94,2023-09-12-22:47:28,908,1,Experiment,2023-09-12_16h02.59.572
10,global,global,0,0,10,10,9,,,16,exp,UUEFTNFLZNLZSEY,SELUHEYNNFUZSYZ,5,T,absent,tT,nN,l,0,1.211605,y,0,0.2571469,RSVPLG01,0.94,2023-09-12-22:47:28,908,1,Experiment,2023-09-12_16h02.59.572
1,local,local,0,0,11,11,0,,,17,exp,TYNZYEHNTHFUSSU,EYSLFNTTEUNHUYH,4,L,absent,lL,nN,l,1,4.1181436,n,1,0.9137496,RSVPLG01,0.94,2023-09-12-22:47:28,908,1,Experiment,2023-09-12_16h02.59.572
1,local,local,0,1,0,12,0,,,18,exp,EYLZUTLHYZUFHFE,SLEHYNEZSFUFZHL,6,N,absent,nN,nN,s,0,1.5268567,y,0,0.349643,RSVPLG01,0.94,2023-09-12-22:47:28,908,1,Experiment,2023-09-12_16h02.59.572
4,local,global,0,1,1,13,3,,,19,exp,TYTLUZEYHULNHNE,ETYYNFNUSHHTESL,6,F,absent,fF,nN,z,0,0.8313496,n,1,0.3176677,RSVPLG01,0.94,2023-09-12-22:47:28,908,1,Experiment,2023-09-12_16h02.59.572
2,local,local,3,1,2,14,1,,,20,exp,TLSLNUSNZFHTHYF,TLZSFESLXHHYTZY,6,E,X,eE,yY,s,0,0.7709001,y,1,0.2024605,RSVPLG01,0.94,2023-09-12-22:47:28,908,1,Experiment,2023-09-12_16h02.59.572
5,local,global,3,1,3,15,4,,,21,exp,FLTNEUHXFYLYNTH,UTNHSFNFYYUZZLH,5,S,X,sS,yY,s,1,0.7246889,y,1,0.5625636,RSVPLG01,0.94,2023-09-12-22:47:28,908,1,Experiment,2023-09-12_16h02.59.572
8,global,local,3,1,4,16,7,,,22,exp,EYZUZHTFNLHYTLE,HTYSZLXHNEENYFF,4,U,X,uU,yY,u,1,0.8309495,y,1,0.8491625,RSVPLG01,0.94,2023-09-12-22:47:28,908,1,Experiment,2023-09-12_16h02.59.572
7,global,local,0,1,5,17,6,,,23,exp,UFTFZLTSHSYHYUL,TLLUNHEHUFYTESS,5,Z,absent,zZ,nN,z,1,0.9043892,y,0,0.1881342,RSVPLG01,0.94,2023-09-12-22:47:28,908,1,Experiment,2023-09-12_16h02.59.572
5,local,global,3,1,6,18,4,,,24,exp,NUFNYHTLXSYEEUS,NTTESZFYLUSYLNF,6,Z,X,zZ,yY,z,1,3.2664485,n,0,0.0436717,RSVPLG01,0.94,2023-09-12-22:47:28,908,1,Experiment,2023-09-12_16h02.59.572
7,global,local,0,1,7,19,6,,,25,exp,UFZLNFUYTTHEEYZ,TYESZHFFUUTZYHE,4,L,absent,lL,nN,l,1,1.3938839,y,0,1.320128,RSVPLG01,0.94,2023-09-12-22:47:28,908,1,Experiment,2023-09-12_16h02.59.572
4,local,global,0,1,8,20,3,,,26,exp,YUENZHLSFLEHZFS,YYSTLLEFFZUZSUE,4,T,absent,tT,nN,n,0,1.0754045,y,0,0.1533356,RSVPLG01,0.94,2023-09-12-22:47:28,908,1,Experiment,2023-09-12_16h02.59.572
4,local,global,0,1,9,21,3,,,27,exp,TESYEZSFZLNULNT,UTFHZLLSZEFSNTU,4,H,absent,hH,nN,y,0,0.8640998,y,0,0.16936,RSVPLG01,0.94,2023-09-12-22:47:28,908,1,Experiment,2023-09-12_16h02.59.572
10,global,global,0,1,10,22,9,,,28,exp,FNENHSUTLZFZTLE,UZNLFYEFEHTHNLZ,6,S,absent,sS,nN,s,1,1.1241199,y,0,0.3463568,RSVPLG01,0.94,2023-09-12-22:47:28,908,1,Experiment,2023-09-12_16h02.59.572
2,local,local,3,1,11,23,1,,,29,exp,SNTYZFHESHUTYNE,TSETULYHXYNNSEZ,6,L,X,lL,yY,l,1,0.8812604,y,1,0.2594191,RSVPLG01,0.94,2023-09-12-22:47:28,908,1,Experiment,2023-09-12_16h02.59.572
6,local,global,7,2,0,24,5,,,30,exp,STLHENFTSUZXULN,FTHSYFHLNUUTSZZ,5,Y,X,yY,yY,s,0,0.6877603,y,1,0.1859129,RSVPLG01,0.94,2023-09-12-22:47:28,908,1,Experiment,2023-09-12_16h02.59.572
5,local,global,3,2,1,25,4,,,31,exp,LYTHZEFXNHETUYN,ETUYSLYNETFNUHF,5,S,X,sS,yY,s,1,0.8097104,n,0,0.2357655,RSVPLG01,0.94,2023-09-12-22:47:28,908,1,Experiment,2023-09-12_16h02.59.572
2,local,local,3,2,2,26,1,,,32,exp,FEYHNSLZYHLTTEN,ZEENYUFLXTTHZYN,6,U,X,uU,yY,u,1,0.8357204,n,0,0.7553049,RSVPLG01,0.94,2023-09-12-22:47:28,908,1,Experiment,2023-09-12_16h02.59.572
12,global,global,7,2,3,27,11,,,33,exp,YFUSHTLYNLEXSUE,LEULZSNUFETTYNS,5,H,X,hH,yY,h,1,0.8668706,y,1,0.2348008,RSVPLG01,0.94,2023-09-12-22:47:28,908,1,Experiment,2023-09-12_16h02.59.572
3,local,local,7,2,4,28,2,,,34,exp,FUSEZTFLLUYSNTZ,NSSHTFNZYUXFLZU,4,H,X,hH,yY,h,1,0.9046169,y,1,0.0517194,RSVPLG01,0.94,2023-09-12-22:47:28,908,1,Experiment,2023-09-12_16h02.59.572
3,local,local,7,2,5,29,2,,,35,exp,HLFUTZESLUYHYFS,HYZSNLFYEEHXZUL,5,N,X,nN,yY,t,0,1.0958304,y,1,1.0821177,RSVPLG01,0.94,2023-09-12-22:47:28,908,1,Experiment,2023-09-12_16h02.59.572
10,global,global,0,2,6,30,9,,,36,exp,NZLHHUSTTEZLYNE,TNZZYFNHESYLEHS,6,U,absent,uU,nN,u,1,1.1401473,y,0,0.2875098,RSVPLG01,0.94,2023-09-12-22:47:28,908,1,Experiment,2023-09-12_16h02.59.572
9,global,local,7,2,7,31,8,,,37,exp,ZFYEUHEFSNNSZHL,ZEYZTLHFHLEXYSS,5,U,X,uU,yY,u,1,1.5858488,n,0,0.6324019,RSVPLG01,0.94,2023-09-12-22:47:28,908,1,Experiment,2023-09-12_16h02.59.572
1,local,local,0,2,8,32,0,,,38,exp,LNUFNZLTYFHSSHU,SFSFUEHYTULNHLT,6,E,absent,eE,nN,e,1,0.9509918,y,0,0.2410772,RSVPLG01,0.94,2023-09-12-22:47:28,908,1,Experiment,2023-09-12_16h02.59.572
12,global,global,7,2,9,33,11,,,39,exp,NFNFZTHSTEEXSUL,ELSEYTLFHFUNNHU,5,Z,X,zZ,yY,z,1,0.847594,n,0,1.2977049,RSVPLG01,0.94,2023-09-12-22:47:28,908,1,Experiment,2023-09-12_16h02.59.572
6,local,global,7,2,10,34,5,,,40,exp,YSLFLZEEUHXHNSN,ENSTEHUYUZSLYHZ,4,T,X,tT,yY,s,0,0.452834,y,1,0.1598038,RSVPLG01,0.94,2023-09-12-22:47:28,908,1,Experiment,2023-09-12_16h02.59.572
5,local,global,3,2,11,35,4,,,41,exp,NTTNUZLXLFEEZFS,FZFTHSYLNNSYEEL,5,H,X,hH,yY,l,0,0.8668687,y,1,0.1328197,RSVPLG01,0.94,2023-09-12-22:47:28,908,1,Experiment,2023-09-12_16h02.59.572
10,global,global,0,3,0,36,9,,,42,exp,LUNSFHSFEZNTZTE,ELLZTYZENSFFTSU,6,H,absent,hH,nN,s,0,0.7494504,y,0,0.1296017,RSVPLG01,0.94,2023-09-12-22:47:28,908,1,Experiment,2023-09-12_16h02.59.572
3,local,local,7,3,1,37,2,,,43,exp,HTNLFYUYSTUZFSH,ZYTEUNNHTHXSYUS,4,E,X,eE,yY,z,0,4.8505809,y,1,0.2665402,RSVPLG01,0.94,2023-09-12-22:47:28,908,1,Experiment,2023-09-12_16h02.59.572
12,global,global,7,3,2,38,11,,,44,exp,ZSTEHUFETUFXNSN,TLLZYESTUNNFZSE,5,H,X,hH,yY,h,1,0.6149028,y,1,0.0926152,RSVPLG01,0.94,2023-09-12-22:47:28,908,1,Experiment,2023-09-12_16h02.59.572
9,global,local,7,3,3,39,8,,,45,exp,ZSUYTTNNZUFLSEE,ZNFHSZLNTEXLUES,4,Y,X,yY,yY,y,1,0.7902181,y,1,0.6117321,RSVPLG01,0.94,2023-09-12-22:47:28,908,1,Experiment,2023-09-12_16h02.59.572
6,local,global,7,3,4,40,5,,,46,exp,LZFETNNSHZXHTLU,TSZYNFUZNFUHHLS,4,Y,X,yY,yY,y,1,0.5528064,y,1,0.0416193,RSVPLG01,0.94,2023-09-12-22:47:28,908,1,Experiment,2023-09-12_16h02.59.572
8,global,local,3,3,5,41,7,,,47,exp,UZFZYLEEHTSUTLH,HHSUNEEXLLSZFFT,5,Y,X,yY,yY,y,1,1.2210818,n,0,0.2015414,RSVPLG01,0.94,2023-09-12-22:47:28,908,1,Experiment,2023-09-12_16h02.59.572
2,local,local,3,3,6,42,1,,,48,exp,TNNLTUHFZZYUHFY,TNESZZXUFYEFUNY,4,S,X,sS,yY,s,1,0.8111981,y,1,0.1694797,RSVPLG01,0.94,2023-09-12-22:47:28,908,1,Experiment,2023-09-12_16h02.59.572
10,global,global,0,3,7,43,9,,,49,exp,SFNNZTEYELTLHFY,YTTEUFSENLYNSHL,5,Z,absent,zZ,nN,z,1,1.6934118,n,1,0.6422932,RSVPLG01,0.94,2023-09-12-22:47:28,908,1,Experiment,2023-09-12_16h02.59.572
8,global,local,3,3,8,44,7,,,50,exp,NZUHZELYSNTLUTY,LYUZNFZSXHLSUTY,6,E,X,eE,yY,e,1,1.2885172,n,0,0.3798972,RSVPLG01,0.94,2023-09-12-22:47:28,908,1,Experiment,2023-09-12_16h02.59.572
1,local,local,0,3,9,45,0,,,51,exp,TUEELYZUNSTNSYF,ETSNHYFZUNZUTSF,5,H,absent,hH,nN,u,0,1.7678317,n,1,0.1791724,RSVPLG01,0.94,2023-09-12-22:47:28,908,1,Experiment,2023-09-12_16h02.59.572
9,global,local,7,3,10,46,8,,,52,exp,FSYUFZELNEHYNLS,NYFHFTUSLNYEXUL,6,Z,X,zZ,yY,z,1,0.866862,y,1,0.2117168,RSVPLG01,0.94,2023-09-12-22:47:28,908,1,Experiment,2023-09-12_16h02.59.572
3,local,local,7,3,11,47,2,,,53,exp,ESLNFLUUHSHYTYT,TULLZNTNYSUXESE,5,Z,X,zZ,yY,l,0,2.54416,y,1,0.6182776,RSVPLG01,0.94,2023-09-12-22:47:28,908,1,Experiment,2023-09-12_16h02.59.572
3,local,local,7,4,0,48,2,,,54,exp,EUSEFYNSNTTZLLY,ZLZUHSULSTEXENT,5,H,X,hH,yY,s,0,1.1463444,y,1,0.2109758,RSVPLG01,0.94,2023-09-12-22:47:28,908,1,Experiment,2023-09-12_16h02.59.572
2,local,local,3,4,1,49,1,,,55,exp,UYZLFSTNHZLHTYN,ZFNFZEYYXTUHTLH,6,E,X,eE,yY,e,1,1.0224604,y,1,0.171688,RSVPLG01,0.94,2023-09-12-22:47:28,908,1,Experiment,2023-09-12_16h02.59.572
11,global,global,3,4,2,50,10,,,56,exp,YFENLTXTFEHLUZU,EUFSZLFZYUETHYH,4,N,X,nN,yY,n,1,0.9304259,y,1,0.0951599,RSVPLG01,0.94,2023-09-12-22:47:28,908,1,Experiment,2023-09-12_16h02.59.572
4,local,global,0,4,3,51,3,,,57,exp,EHEFHYLNFLUSTTS,TLHULZTSHFNNEEF,6,Z,absent,zZ,nN,z,1,1.0169005,y,0,0.1865735,RSVPLG01,0.94,2023-09-12-22:47:28,908,1,Experiment,2023-09-12_16h02.59.572
3,local,local,7,4,4,52,2,,,58,exp,TNHHLZNTUSZUSEE,NFHZYHFZNTTXEUU,5,Y,X,yY,yY,z,0,0.873779,n,0,0.2243352,RSVPLG01,0.94,2023-09-12-22:47:28,908,1,Experiment,2023-09-12_16h02.59.572
3,local,local,7,4,5,53,2,,,59,exp,ZHFEYNSLLHUYUZN,FNLTZHHYULXNFSY,4,T,X,tT,yY,t,1,0.9503151,y,1,0.0305081,RSVPLG01,0.94,2023-09-12-22:47:28,908,1,Experiment,2023-09-12_16h02.59.572
7,global,local,0,4,6,54,6,,,60,exp,SUHLZYLTEZSNUNH,NTSUHFLZSTELEZH,6,Y,absent,yY,nN,y,1,0.9532574,n,1,0.1933579,RSVPLG01,0.94,2023-09-12-22:47:28,908,1,Experiment,2023-09-12_16h02.59.572
5,local,global,3,4,7,55,4,,,61,exp,ETYHTFXZNFZUEYU,NLNSTUEYEUYLTFZ,4,S,X,sS,yY,s,1,0.7837705,y,1,0.1712184,RSVPLG01,0.94,2023-09-12-22:47:28,908,1,Experiment,2023-09-12_16h02.59.572
4,local,global,0,4,8,56,3,,,62,exp,ZNFELUHHYZNFLTT,YNLSHNHZFUTYUTZ,4,S,absent,sS,nN,s,1,1.0521469,n,1,0.2107404,RSVPLG01,0.94,2023-09-12-22:47:28,908,1,Experiment,2023-09-12_16h02.59.572
10,global,global,0,4,9,57,9,,,63,exp,NFHTSZLETEZULFH,EHHUYLFNTNEZZLF,5,S,absent,sS,nN,s,1,1.0178004,n,1,0.227212,RSVPLG01,0.94,2023-09-12-22:47:28,908,1,Experiment,2023-09-12_16h02.59.572
4,local,global,0,4,10,58,3,,,64,exp,SLTESZFUZLNUYFN,LUYHNZTZNLTSUFF,4,H,absent,hH,nN,n,0,0.8451878,n,1,0.2195521,RSVPLG01,0.94,2023-09-12-22:47:28,908,1,Experiment,2023-09-12_16h02.59.572
3,local,local,7,4,11,59,2,,,65,exp,SEEFHTTNZSHUYNU,UTNLNUSEEHXHYZT,4,L,X,lL,yY,l,1,0.8493905,y,1,0.18659,RSVPLG01,0.94,2023-09-12-22:47:28,908,1,Experiment,2023-09-12_16h02.59.572
8,global,local,3,5,0,60,7,,,66,exp,SSZFNENUFZLHLYY,HFSSUTNYXNLHLZF,6,E,X,eE,yY,e,1,0.9063468,y,1,0.1228825,RSVPLG01,0.94,2023-09-12-22:47:28,908,1,Experiment,2023-09-12_16h02.59.572
10,global,global,0,5,1,61,9,,,67,exp,ELTFYUUSZLYSZHT,UESNZYTUTZHYESH,4,F,absent,fF,nN,f,1,1.0309196,y,0,0.0409054,RSVPLG01,0.94,2023-09-12-22:47:28,908,1,Experiment,2023-09-12_16h02.59.572
4,local,global,0,5,2,62,3,,,68,exp,HULLTYNUSSHNTEF,HTSUEZNELFLHNUF,6,Z,absent,zZ,nN,e,0,0.8856963,y,0,0.101204,RSVPLG01,0.94,2023-09-12-22:47:28,908,1,Experiment,2023-09-12_16h02.59.572
7,global,local,0,5,3,63,6,,,69,exp,ELHTZHSLNYZFFSY,ENEUFLYYZHZSHSL,4,T,absent,tT,nN,t,1,0.7989595,y,0,0.0436909,RSVPLG01,0.94,2023-09-12-22:47:28,908,1,Experiment,2023-09-12_16h02.59.572
12,global,global,7,5,4,64,11,,,70,exp,FYNEYZHLUHELXUN,LUFTYSNHFTEEUNH,6,Z,X,zZ,yY,u,0,0.9090747,y,1,0.0167579,RSVPLG01,0.94,2023-09-12-22:47:28,908,1,Experiment,2023-09-12_16h02.59.572
9,global,local,7,5,5,65,8,,,71,exp,TNFNSYETEULUZLF,FEEUHLZYTFNXLZU,5,S,X,sS,yY,s,1,0.881075,y,1,0.1533048,RSVPLG01,0.94,2023-09-12-22:47:28,908,1,Experiment,2023-09-12_16h02.59.572
11,global,global,3,5,6,66,10,,,72,exp,NHSTLZZXFNUYFUH,ZYTHEUSHUSNZFYN,5,L,X,lL,yY,l,1,1.3950289,y,1,0.211466,RSVPLG01,0.94,2023-09-12-22:47:28,908,1,Experiment,2023-09-12_16h02.59.572
3,local,local,7,5,7,67,2,,,73,exp,TLZYENHZUFFEYLT,FHELFSHZUYTYXLU,6,S,X,sS,yY,s,1,0.9726035,y,1,0.1534474,RSVPLG01,0.94,2023-09-12-22:47:28,908,1,Experiment,2023-09-12_16h02.59.572
5,local,global,3,5,8,68,4,,,74,exp,FSFUYLXHTNETSEY,HTYZYTESNHENLSF,4,Z,X,zZ,yY,u,0,0.9713241,y,1,0.2921686,RSVPLG01,0.94,2023-09-12-22:47:28,908,1,Experiment,2023-09-12_16h02.59.572
10,global,global,0,5,9,69,9,,,75,exp,SEHSLTUEYZZNYNU,LNYLNFESYSHUEHZ,6,T,absent,tT,nN,t,1,0.9612444,y,0,1.0272345,RSVPLG01,0.94,2023-09-12-22:47:28,908,1,Experiment,2023-09-12_16h02.59.572
8,global,local,3,5,10,70,7,,,76,exp,NLUFTESUHLZZFEN,EZFFYUHXSNLSENZ,5,T,X,tT,yY,t,1,1.0052511,n,0,0.3685348,RSVPLG01,0.94,2023-09-12-22:47:28,908,1,Experiment,2023-09-12_16h02.59.572
11,global,global,3,5,11,71,10,,,77,exp,YSUEHLXNTNLFTHS,NFSZNUHYFTSLUYT,4,E,X,eE,yY,e,1,0.990634,y,1,0.168927,RSVPLG01,0.94,2023-09-12-22:47:28,908,1,Experiment,2023-09-12_16h02.59.572
9,global,local,7,6,0,72,8,,,78,exp,LUHYZEFFEUSLTHT,SHHNUZSFLLXUTEE,4,Y,X,yY,yY,y,1,0.921895,n,0,0.3315418,RSVPLG01,0.94,2023-09-12-22:47:28,908,1,Experiment,2023-09-12_16h02.59.572
7,global,local,0,6,1,73,6,,,79,exp,FHFSTZUNLNHEZET,TETYFNFLUUHLZZH,4,S,absent,sS,nN,s,1,1.1929822,n,1,0.2887154,RSVPLG01,0.94,2023-09-12-22:47:28,908,1,Experiment,2023-09-12_16h02.59.572
3,local,local,7,6,2,74,2,,,80,exp,FLEUHZLFEHYTZST,FZENFYHYSLXZTHL,4,N,X,nN,yY,n,1,0.5109706,y,1,0.1296732,RSVPLG01,0.94,2023-09-12-22:47:28,908,1,Experiment,2023-09-12_16h02.59.572
9,global,local,7,6,3,75,8,,,81,exp,LLZSYUZSHEHENYF,ZSYZLTNESHNEXLH,6,U,X,uU,yY,u,1,0.8014898,y,1,0.2043916,RSVPLG01,0.94,2023-09-12-22:47:28,908,1,Experiment,2023-09-12_16h02.59.572
2,local,local,3,6,4,76,1,,,82,exp,YLSZUYUEHTETHSF,LUUNYEXHTLSTEYF,4,N,X,nN,yY,z,0,0.7172665,y,1,0.1209736,RSVPLG01,0.94,2023-09-12-22:47:28,908,1,Experiment,2023-09-12_16h02.59.572
2,local,local,3,6,5,77,1,,,83,exp,EZFFYSUHZLTLUST,FUTHNETXFEHZZUS,5,N,X,nN,yY,y,0,0.7807139,y,1,0.1063307,RSVPLG01,0.94,2023-09-12-22:47:28,908,1,Experiment,2023-09-12_16h02.59.572
7,global,local,0,6,6,78,6,,,84,exp,LNTUZYUSZTFNELE,EELUTHLZFFNNUSS,6,Y,absent,yY,nN,y,1,0.8595991,n,1,0.1267743,RSVPLG01,0.94,2023-09-12-22:47:28,908,1,Experiment,2023-09-12_16h02.59.572
3,local,local,7,6,7,79,2,,,85,exp,NZLLHYSFNZEUEFU,SZLNTSFUEELXFNY,5,T,X,tT,yY,y,0,0.8319454,n,0,0.2102997,RSVPLG01,0.94,2023-09-12-22:47:28,908,1,Experiment,2023-09-12_16h02.59.572
8,global,local,3,6,8,80,7,,,86,exp,NUSTYENYEFFSULZ,ZSSHYEXFLYUZEUL,4,T,X,tT,yY,y,0,1.7052006,n,0,0.2094193,RSVPLG01,0.94,2023-09-12-22:47:28,908,1,Experiment,2023-09-12_16h02.59.572
5,local,global,3,6,9,81,4,,,87,exp,YFFSULSXZTNYHLZ,LFZZEFNYYTLNSST,5,E,X,eE,yY,e,1,0.3896121,y,1,0.6416738,RSVPLG01,0.94,2023-09-12-22:47:28,908,1,Experiment,2023-09-12_16h02.59.572
8,global,local,3,6,10,82,7,,,88,exp,LETFSYZLHNYHETZ,ENFZUHTXZFTLLNY,5,S,X,sS,yY,s,1,0.9152088,y,1,0.1547258,RSVPLG01,0.94,2023-09-12-22:47:28,908,1,Experiment,2023-09-12_16h02.59.572
3,local,local,7,6,11,83,2,,,89,exp,ZHNTHSZLUTEEUYY,UHLZHFZEYELUXTN,6,F,X,fF,yY,f,1,0.7818948,y,1,0.3049986,RSVPLG01,0.94,2023-09-12-22:47:28,908,1,Experiment,2023-09-12_16h02.59.572
6,local,global,7,7,0,84,5,,,90,exp,SFSUYEZHLEUXLFZ,UHESTSNFUZFHENL,5,T,X,tT,yY,y,0,0.4800116,y,1,0.1128072,RSVPLG01,0.94,2023-09-12-22:47:28,908,1,Experiment,2023-09-12_16h02.59.572
5,local,global,3,7,1,85,4,,,91,exp,UNSTFUYXZTYHZNL,ZZTTESYHLNNHLSU,5,E,X,eE,yY,s,0,0.7219992,y,1,0.2005933,RSVPLG01,0.94,2023-09-12-22:47:28,908,1,Experiment,2023-09-12_16h02.59.572
5,local,global,3,7,2,86,4,,,92,exp,EZNLHLUXSSUZFFE,NZLNTZFLYFSESUY,5,T,X,tT,yY,t,1,0.7925518,y,1,0.2502764,RSVPLG01,0.94,2023-09-12-22:47:28,908,1,Experiment,2023-09-12_16h02.59.572
9,global,local,7,7,3,87,8,,,93,exp,EEZFLTNSZNLSFYU,ZENZSHFLLNUFXEU,6,T,X,tT,yY,n,0,0.7341177,y,1,0.1624324,RSVPLG01,0.94,2023-09-12-22:47:28,908,1,Experiment,2023-09-12_16h02.59.572
7,global,local,0,7,4,88,6,,,94,exp,YTZEFUSZUFHHYST,FHYNSLHUSUZTLTY,4,E,absent,eE,nN,f,0,0.8361673,y,0,0.2107831,RSVPLG01,0.94,2023-09-12-22:47:28,908,1,Experiment,2023-09-12_16h02.59.572
12,global,global,7,7,5,89,11,,,95,exp,TFFENSYUUHXNSYL,LHSZTNYLUNUFFSH,4,E,X,eE,yY,y,0,2.2613021,y,1,1.2094246,RSVPLG01,0.94,2023-09-12-22:47:28,908,1,Experiment,2023-09-12_16h02.59.572
8,global,local,3,7,6,90,7,,,96,exp,SSHFUTNZEHTYFEZ,SHFTLEHXZNTSZNY,5,U,X,uU,yY,u,1,0.81562,y,1,0.2089212,RSVPLG01,0.94,2023-09-12-22:47:28,908,1,Experiment,2023-09-12_16h02.59.572
1,local,local,0,7,7,91,0,,,97,exp,UZEUNTYSZFSEHHF,UTEZLFYHTUFSHEY,5,L,absent,lL,nN,l,1,0.7512002,y,0,0.1614278,RSVPLG01,0.94,2023-09-12-22:47:28,908,1,Experiment,2023-09-12_16h02.59.572
1,local,local,0,7,8,92,0,,,98,exp,NULFZENTYSZTFLU,FFULSHZUTLZTSNN,6,H,absent,hH,nN,s,0,0.6827711,y,0,0.1773384,RSVPLG01,0.94,2023-09-12-22:47:28,908,1,Experiment,2023-09-12_16h02.59.572
12,global,global,7,7,9,93,11,,,99,exp,YNLESHUZTHNXTUE,UTZLFNTEEHNHZLU,5,S,X,sS,yY,s,1,0.8538655,y,1,0.1742966,RSVPLG01,0.94,2023-09-12-22:47:28,908,1,Experiment,2023-09-12_16h02.59.572
4,local,global,0,7,10,94,3,,,100,exp,FEFTZSTHZHEULLY,FELLUNZUYZTYHHT,6,N,absent,nN,nN,u,0,0.8895915,n,1,0.3953044,RSVPLG01,0.94,2023-09-12-22:47:28,908,1,Experiment,2023-09-12_16h02.59.572
3,local,local,7,7,11,95,2,,,101,exp,EFZTUNYFNHLEHTZ,LYNTSHNZEFYXTEL,5,S,X,sS,yY,s,1,0.9381648,y,1,0.1288854,RSVPLG01,0.94,2023-09-12-22:47:28,908,1,Experiment,2023-09-12_16h02.59.572
10,global,global,0,8,0,96,9,,,102,exp,SYHZLHUTLTSUEYE,EHYNSSFFLUYETHU,4,Z,absent,zZ,nN,z,1,0.8460817,n,1,0.2342127,RSVPLG01,0.94,2023-09-12-22:47:28,908,1,Experiment,2023-09-12_16h02.59.572
1,local,local,0,8,1,97,0,,,103,exp,TUTHSFYUENLELSN,LNTZLFYSEETUSUN,4,Z,absent,zZ,nN,z,1,0.9309302,y,0,0.1926838,RSVPLG01,0.94,2023-09-12-22:47:28,908,1,Experiment,2023-09-12_16h02.59.572
5,local,global,3,8,2,98,4,,,104,exp,ULUZSYXEFNNLFYH,YHUTUSFLFHNLEYS,4,T,X,tT,yY,u,0,0.8176996,y,1,0.4214692,RSVPLG01,0.94,2023-09-12-22:47:28,908,1,Experiment,2023-09-12_16h02.59.572
8,global,local,3,8,3,99,7,,,105,exp,TEHENUZZYTLSYNH,EZNSLFYNXESLYZT,6,U,X,uU,yY,u,1,0.7923075,y,1,2.4036153,RSVPLG01,0.94,2023-09-12-22:47:28,908,1,Experiment,2023-09-12_16h02.59.572
11,global,global,3,8,4,100,10,,,106,exp,ZEENLYHSXFTNTSH,HSELLUENNSZFZFH,6,Y,X,yY,yY,u,0,1.518176,y,1,0.5362417,RSVPLG01,0.94,2023-09-12-22:47:28,908,1,Experiment,2023-09-12_16h02.59.572
2,local,local,3,8,5,101,1,,,107,exp,TZHFYLESNSNHZTF,NTZTUEEXLZNHFFH,5,U,X,uU,yY,u,1,0.7173727,y,1,0.2899356,RSVPLG01,0.94,2023-09-12-22:47:28,908,1,Experiment,2023-09-12_16h02.59.572
4,local,global,0,8,6,102,3,,,108,exp,NNSUTEZSHYFEZTY,NZSLTZHNTFEHEYY,4,L,absent,lL,nN,l,1,0.6937821,y,0,0.3658276,RSVPLG01,0.94,2023-09-12-22:47:28,908,1,Experiment,2023-09-12_16h02.59.572
4,local,global,0,8,7,103,3,,,109,exp,NUZELUSNHZSYFLH,UZLTSUFNYLSYHNZ,4,T,absent,tT,nN,t,1,0.5814409,y,0,0.1056899,RSVPLG01,0.94,2023-09-12-22:47:28,908,1,Experiment,2023-09-12_16h02.59.572
2,local,local,3,8,8,104,1,,,110,exp,ZYTNTSSYEFLUULZ,UYLHSFXEZUFYZTS,4,H,X,hH,yY,n,0,0.7083699,y,1,0.1932834,RSVPLG01,0.94,2023-09-12-22:47:28,908,1,Experiment,2023-09-12_16h02.59.572
10,global,global,0,8,9,105,9,,,111,exp,UEYFYTSTEUNHNZH,USELHUYZYSZENTN,4,F,absent,fF,nN,y,0,0.7599735,y,0,0.1958781,RSVPLG01,0.94,2023-09-12-22:47:28,908,1,Experiment,2023-09-12_16h02.59.572
8,global,local,3,8,10,106,7,,,112,exp,HSEHFNULETTLNYS,NYUEZLSXHULENSY,5,F,X,fF,yY,f,1,0.9760737,n,0,0.337068,RSVPLG01,0.94,2023-09-12-22:47:28,908,1,Experiment,2023-09-12_16h02.59.572
4,local,global,0,8,11,107,3,,,113,exp,UZTNLSYHFLHTZUS,LHYELZSTTFYSUUZ,4,E,absent,eE,nN,e,1,0.6674434,y,0,0.5473697,RSVPLG01,0.94,2023-09-12-22:47:28,908,1,Experiment,2023-09-12_16h02.59.572
6,local,global,7,9,0,108,5,,,114,exp,NLUUTFSNSHLXEEH,YULEZFHLHNUNFES,5,Z,X,zZ,yY,f,0,0.6559036,y,1,0.8891716,RSVPLG01,0.94,2023-09-12-22:47:28,908,1,Experiment,2023-09-12_16h02.59.572
5,local,global,3,9,1,109,4,,,115,exp,YFEHLSFXTYZZSHN,ZTHHUTNSENFYYES,5,U,X,uU,yY,u,1,0.8092144,y,1,0.2969828,RSVPLG01,0.94,2023-09-12-22:47:28,908,1,Experiment,2023-09-12_16h02.59.572
7,global,local,0,9,2,110,6,,,116,exp,NUUTLLNHZYEHSYZ,NESFLEYSNULZUZH,4,T,absent,tT,nN,l,0,0.6803967,y,0,0.1628569,RSVPLG01,0.94,2023-09-12-22:47:28,908,1,Experiment,2023-09-12_16h02.59.572
9,global,local,7,9,3,111,8,,,117,exp,UNHUEYYTNFLTSHF,HUYNZLUTSFFXTYS,5,E,X,eE,yY,e,1,0.7139679,n,0,0.2444349,RSVPLG01,0.94,2023-09-12-22:47:28,908,1,Experiment,2023-09-12_16h02.59.572
2,local,local,3,9,4,112,1,,,118,exp,TYUTLESHLYUNSNF,STSYLZNHXYUNHFF,6,Z,X,zZ,yY,e,0,0.6974351,y,1,0.2413458,RSVPLG01,0.94,2023-09-12-22:47:28,908,1,Experiment,2023-09-12_16h02.59.572
10,global,global,0,9,5,113,9,,,119,exp,TESFNUELTHSYHUY,YSHZLNHTUYESUET,4,F,absent,fF,nN,n,0,0.8453275,y,0,0.2208735,RSVPLG01,0.94,2023-09-12-22:47:28,908,1,Experiment,2023-09-12_16h02.59.572
2,local,local,3,9,6,114,1,,,120,exp,ZNYNTLYHHEZUTSS,YTSYNFUEXZHZTNE,6,F,X,fF,yY,e,0,0.9057663,y,1,0.8234129,RSVPLG01,0.94,2023-09-12-22:47:28,908,1,Experiment,2023-09-12_16h02.59.572
1,local,local,0,9,7,115,0,,,121,exp,ZNFHLSSZYLUUEFY,ZNSTZUYFFLELUYS,4,T,absent,tT,nN,t,1,0.855752,y,0,0.2098605,RSVPLG01,0.94,2023-09-12-22:47:28,908,1,Experiment,2023-09-12_16h02.59.572
7,global,local,0,9,8,116,6,,,122,exp,YHUEFTHLFSNELYN,HENSHZYSNFELLUF,6,T,absent,tT,nN,t,1,0.79795,n,1,0.1139507,RSVPLG01,0.94,2023-09-12-22:47:28,908,1,Experiment,2023-09-12_16h02.59.572
2,local,local,3,9,9,117,1,,,123,exp,NULFSHSTZTEZEUN,HTEYZSXZEUTUSHL,4,Y,X,yY,yY,y,1,0.8332629,y,1,0.5295712,RSVPLG01,0.94,2023-09-12-22:47:28,908,1,Experiment,2023-09-12_16h02.59.572
1,local,local,0,9,10,118,0,,,124,exp,NTSEFZLUFLZNTSU,YSUHFNYNTFLUTZZ,4,H,absent,hH,nN,h,1,0.7223607,y,0,0.2726136,RSVPLG01,0.94,2023-09-12-22:47:28,908,1,Experiment,2023-09-12_16h02.59.572
11,global,global,3,9,11,119,10,,,125,exp,LSUZSHXFNNYLYUE,NFHTSYLYUNFLEUH,4,Z,X,zZ,yY,z,1,0.4268951,y,1,0.0689148,RSVPLG01,0.94,2023-09-12-22:47:28,908,1,Experiment,2023-09-12_16h02.59.572
6,local,global,7,10,0,120,5,,,126,exp,TYTUFHLZHNEXNLE,ZTEESYNLUTHLUNH,5,S,X,sS,yY,s,1,0.5686531,y,1,0.0981269,RSVPLG01,0.94,2023-09-12-22:47:28,908,1,Experiment,2023-09-12_16h02.59.572
6,local,global,7,10,1,121,5,,,127,exp,SFETYSHZFUXYZUE,NHHLFNYUUESSYZF,4,L,X,lL,yY,l,1,0.3671908,y,1,0.5073635,RSVPLG01,0.94,2023-09-12-22:47:28,908,1,Experiment,2023-09-12_16h02.59.572
2,local,local,3,10,2,122,1,,,128,exp,SEZHESLFFNYUZYU,LLETUFXFNYYNUZS,4,T,X,tT,yY,e,0,0.9345159,n,0,0.1625816,RSVPLG01,0.94,2023-09-12-22:47:28,908,1,Experiment,2023-09-12_16h02.59.572
12,global,global,7,10,3,123,11,,,129,exp,ZLNEYHFSUHFXNLE,FHZUTHLUESENSZL,5,Y,X,yY,yY,y,1,0.593721,y,1,0.2611883,RSVPLG01,0.94,2023-09-12-22:47:28,908,1,Experiment,2023-09-12_16h02.59.572
7,global,local,0,10,4,124,6,,,130,exp,ZEEUZYLTSHULHFS,FLFUENTHHUSTZEZ,6,Y,absent,yY,nN,y,1,0.7372813,n,1,0.2677773,RSVPLG01,0.94,2023-09-12-22:47:28,908,1,Experiment,2023-09-12_16h02.59.572
4,local,global,0,10,5,125,3,,,131,exp,NFSFETNHSLLHUTU,TYNLZLSHUNSFHYF,5,Z,absent,zZ,nN,z,1,0.8477633,n,1,0.2220197,RSVPLG01,0.94,2023-09-12-22:47:28,908,1,Experiment,2023-09-12_16h02.59.572
11,global,global,3,10,6,126,10,,,132,exp,NZSYEFYEXLHHTZL,SSYTYUHZNTZNLLH,6,F,X,fF,yY,u,0,0.7986957,n,0,0.6197956,RSVPLG01,0.94,2023-09-12-22:47:28,908,1,Experiment,2023-09-12_16h02.59.572
5,local,global,3,10,7,127,4,,,133,exp,NYHFELXUTYZNZTH,HZHSENTTZULYLNY,4,S,X,sS,yY,s,1,0.6524129,y,1,0.0970174,RSVPLG01,0.94,2023-09-12-22:47:28,908,1,Experiment,2023-09-12_16h02.59.572
5,local,global,3,10,8,128,4,,,134,exp,SSUHYFELXLNUNHY,YUYLLTSNNZESZHH,6,T,X,tT,yY,l,0,0.8186655,y,1,0.137697,RSVPLG01,0.94,2023-09-12-22:47:28,908,1,Experiment,2023-09-12_16h02.59.572
1,local,local,0,10,9,129,0,,,135,exp,YNLELSZFSZTUTUN,FYTHSUYSZUNZFLL,4,H,absent,hH,nN,h,1,0.8374706,y,0,0.1523028,RSVPLG01,0.94,2023-09-12-22:47:28,908,1,Experiment,2023-09-12_16h02.59.572
9,global,local,7,10,10,130,8,,,136,exp,YEFUHLYZNSSNZFH,LFSTZYYHLFXZEES,4,U,X,uU,yY,s,0,1.6089838,n,0,0.8346851,RSVPLG01,0.94,2023-09-12-22:47:28,908,1,Experiment,2023-09-12_16h02.59.572
10,global,global,0,10,11,131,9,,,137,exp,HFSSZYHZNEFTLEL,FNNZEUFZSEHLLHS,6,Y,absent,yY,nN,y,1,1.174033,n,1,0.8432406,RSVPLG01,0.94,2023-09-12-22:47:28,908,1,Experiment,2023-09-12_16h02.59.572
10,global,global,0,11,0,132,9,,,138,exp,NLHUZHYSFYTUNST,UFHTEUHLYSSYLFN,5,Z,absent,zZ,nN,z,1,0.8150409,y,0,0.1049661,RSVPLG01,0.94,2023-09-12-22:47:28,908,1,Experiment,2023-09-12_16h02.59.572
4,local,global,0,11,1,133,3,,,139,exp,FNUESUYLLYTZZEN,NZYEHYTZULTFNUE,5,H,absent,hH,nN,h,1,0.7785069,y,0,0.2028491,RSVPLG01,0.94,2023-09-12-22:47:28,908,1,Experiment,2023-09-12_16h02.59.572
11,global,global,3,11,2,134,10,,,140,exp,NEZSFEXTZNUUHFY,EHYLTZNZEHNTFUU,4,S,X,sS,yY,s,1,1.1589998,y,1,0.0953936,RSVPLG01,0.94,2023-09-12-22:47:28,908,1,Experiment,2023-09-12_16h02.59.572
5,local,global,3,11,3,135,4,,,141,exp,SSNHLELFXTTZUZN,FTSLHYLHSUNZUFN,6,Y,X,yY,yY,y,1,0.7166649,y,1,0.1752147,RSVPLG01,0.94,2023-09-12-22:47:28,908,1,Experiment,2023-09-12_16h02.59.572
11,global,global,3,11,4,136,10,,,142,exp,FSLYETNXUYFZTLU,FYLUHZNFTLTNSYZ,5,E,X,eE,yY,e,1,1.8200804,y,1,0.2307018,RSVPLG01,0.94,2023-09-12-22:47:28,908,1,Experiment,2023-09-12_16h02.59.572
10,global,global,0,11,5,137,9,,,143,exp,UYFETHYNSTNZSHZ,FHYLTZFUSYNHZUT,4,E,absent,eE,nN,t,0,0.9990159,y,0,0.049633,RSVPLG01,0.94,2023-09-12-22:47:28,908,1,Experiment,2023-09-12_16h02.59.572
8,global,local,3,11,6,138,7,,,144,exp,YHZNFSUTENSHEUZ,ZZYYLTSXHTHSENN,5,F,X,fF,yY,s,0,1.1071256,y,1,0.2881381,RSVPLG01,0.94,2023-09-12-22:47:28,908,1,Experiment,2023-09-12_16h02.59.572
1,local,local,0,11,7,139,0,,,145,exp,HULFZYEFSNYLENS,LNSUTNFHLYFSYEU,5,T,absent,tT,nN,u,0,0.7238544,y,0,0.2705212,RSVPLG01,0.94,2023-09-12-22:47:28,908,1,Experiment,2023-09-12_16h02.59.572
12,global,global,7,11,8,140,11,,,146,exp,TTNSYUNZSHUXZLF,UHFNETZLUSNZFST,5,Y,X,yY,yY,y,1,0.4864811,y,1,0.118295,RSVPLG01,0.94,2023-09-12-22:47:28,908,1,Experiment,2023-09-12_16h02.59.572
9,global,local,7,11,9,141,8,,,147,exp,EUSNZESTTFFLLYN,ETNLHFUFYNSXLET,5,Z,X,zZ,yY,z,1,1.1027019,y,1,0.2416915,RSVPLG01,0.94,2023-09-12-22:47:28,908,1,Experiment,2023-09-12_16h02.59.572
4,local,global,0,11,10,142,3,,,148,exp,EHZNYNUSHLLTUSE,NZLEFHHLSNZTUSU,5,F,absent,fF,nN,f,1,0.9126624,y,0,0.1462732,RSVPLG01,0.94,2023-09-12-22:47:28,908,1,Experiment,2023-09-12_16h02.59.572
12,global,global,7,11,11,143,11,,,149,exp,TNFSYHFULHZXZTU,THNUENSZFSHFLLT,5,Y,X,yY,yY,y,1,0.7915811,y,1,0.2346479,RSVPLG01,0.94,2023-09-12-22:47:28,908,1,Experiment,2023-09-12_16h02.59.572
5,local,global,3,12,0,144,4,,,150,exp,LLZUEYFNXUFSSEN,TEULFHSZNSLFZUT,6,H,X,hH,yY,f,0,0.8315839,y,1,0.0984016,RSVPLG01,0.94,2023-09-12-22:47:28,908,1,Experiment,2023-09-12_16h02.59.572
10,global,global,0,12,1,145,9,,,151,exp,TNZFHNZYYHSESTU,TZNLYTUENSYZSEH,4,F,absent,fF,nN,f,1,0.6978367,y,0,0.6345891,RSVPLG01,0.94,2023-09-12-22:47:28,908,1,Experiment,2023-09-12_16h02.59.572
3,local,local,7,12,2,146,2,,,152,exp,YHLYLFEUSUNNSZE,EYZZUTSYESNHXUH,6,T,X,tT,yY,s,0,1.0277754,y,1,0.1913105,RSVPLG01,0.94,2023-09-12-22:47:28,908,1,Experiment,2023-09-12_16h02.59.572
8,global,local,3,12,3,147,7,,,153,exp,ZUUNHFLETYYTFLH,HEFSZZXTUEHUFYT,4,N,X,nN,yY,n,1,0.5905315,y,1,0.2186587,RSVPLG01,0.94,2023-09-12-22:47:28,908,1,Experiment,2023-09-12_16h02.59.572
7,global,local,0,12,4,148,6,,,154,exp,HTUYSUHFESZTNNE,ZNHLEFHSUTFSZUN,4,Y,absent,yY,nN,y,1,0.8528414,y,0,0.3072878,RSVPLG01,0.94,2023-09-12-22:47:28,908,1,Experiment,2023-09-12_16h02.59.572
6,local,global,7,12,5,149,5,,,155,exp,HULNEZTZYUXHSLE,YEUFHZLUSLEYZST,4,F,X,fF,yY,h,0,0.9673644,y,1,0.1698156,RSVPLG01,0.94,2023-09-12-22:47:28,908,1,Experiment,2023-09-12_16h02.59.572
11,global,global,3,12,6,150,10,,,156,exp,UUNTZSXSNHLYHZE,HSNFEESHZNUZLYY,4,T,X,tT,yY,e,0,1.047389,y,1,0.1386388,RSVPLG01,0.94,2023-09-12-22:47:28,908,1,Experiment,2023-09-12_16h02.59.572
11,global,global,3,12,7,151,10,,,157,exp,HLFLSUFTXNEZSNE,LNHFSYFELTHZZEN,6,U,X,uU,yY,u,1,0.9872486,y,1,0.8189792,RSVPLG01,0.94,2023-09-12-22:47:28,908,1,Experiment,2023-09-12_16h02.59.572
11,global,global,3,12,8,152,10,,,158,exp,TEHSNUXHFFLYTYE,EFUZLTYLNFNUTEH,4,S,X,sS,yY,n,0,0.7480201,y,1,0.3143455,RSVPLG01,0.94,2023-09-12-22:47:28,908,1,Experiment,2023-09-12_16h02.59.572
7,global,local,0,12,9,153,6,,,159,exp,HTTSFEZZNHYELLY,FEEUYLHYTNHZFNL,4,S,absent,sS,nN,s,1,1.2224038,n,1,0.762103,RSVPLG01,0.94,2023-09-12-22:47:28,908,1,Experiment,2023-09-12_16h02.59.572
11,global,global,3,12,10,154,10,,,160,exp,YTSTLZSXFYHENZE,FFYNUTHEHNESSTZ,5,L,X,lL,yY,z,0,0.9463285,n,0,0.5063372,RSVPLG01,0.94,2023-09-12-22:47:28,908,1,Experiment,2023-09-12_16h02.59.572
6,local,global,7,12,11,155,5,,,161,exp,THFFZESELYLXYST,TYSSULFHHETYFEN,5,U,X,uU,yY,u,1,0.4983917,y,1,0.6503759,RSVPLG01,0.94,2023-09-12-22:47:28,908,1,Experiment,2023-09-12_16h02.59.572
3,local,local,7,13,0,156,2,,,162,exp,ELTTNFNYZUZELHH,ZUNHHSYLNLEEXTT,6,S,X,sS,yY,s,1,0.8472111,n,0,0.585356,RSVPLG01,0.94,2023-09-12-22:47:28,908,1,Experiment,2023-09-12_16h02.59.572
8,global,local,3,13,1,157,7,,,163,exp,HLLUYFSNSEHNUZE,FLZETNFXUHEHUSN,5,Y,X,yY,yY,y,1,0.8539433,n,0,0.7972554,RSVPLG01,0.94,2023-09-12-22:47:28,908,1,Experiment,2023-09-12_16h02.59.572
3,local,local,7,13,2,158,2,,,164,exp,FFSTHSNEZZHEUNY,UHELHZFNNYXSFSY,4,L,X,lL,yY,z,0,0.8755146,y,1,0.2977224,RSVPLG01,0.94,2023-09-12-22:47:28,908,1,Experiment,2023-09-12_16h02.59.572
4,local,global,0,13,3,159,3,,,165,exp,HSTEUFYEUSZZTLH,YSUZHNYLEEUSZTL,6,N,absent,nN,nN,n,1,0.7662446,y,0,0.4099452,RSVPLG01,0.94,2023-09-12-22:47:28,908,1,Experiment,2023-09-12_16h02.59.572
2,local,local,3,13,4,160,1,,,166,exp,HZFEYTFZNUHTLUN,YNNSTFXZYLHZULT,4,S,X,sS,yY,s,1,1.1505687,n,0,0.3320459,RSVPLG01,0.94,2023-09-12-22:47:28,908,1,Experiment,2023-09-12_16h02.59.572
1,local,local,0,13,5,161,0,,,167,exp,YENUFUSETHZSNZT,UEYHLSYSTHZUTNE,5,L,absent,lL,nN,l,1,0.7676071,y,0,0.2062501,RSVPLG01,0.94,2023-09-12-22:47:28,908,1,Experiment,2023-09-12_16h02.59.572
6,local,global,7,13,6,162,5,,,168,exp,ZFUZULTYNHHFXNY,SNTTFEYZUNSYZFU,6,E,X,eE,yY,e,1,0.8735053,y,1,0.2537224,RSVPLG01,0.94,2023-09-12-22:47:28,908,1,Experiment,2023-09-12_16h02.59.572
4,local,global,0,13,7,163,3,,,169,exp,FYYHZUZNSEETHTS,SSHNZLTNHYEFTEF,6,L,absent,lL,nN,l,1,1.0292813,n,1,0.5903983,RSVPLG01,0.94,2023-09-12-22:47:28,908,1,Experiment,2023-09-12_16h02.59.572
2,local,local,3,13,8,164,1,,,170,exp,EFTUHZHSFLTYZES,SFLNZTXZEYSHFEH,4,N,X,nN,yY,y,0,3.076297,n,0,1.2589241,RSVPLG01,0.94,2023-09-12-22:47:28,908,1,Experiment,2023-09-12_16h02.59.572
1,local,local,0,13,9,165,0,,,171,exp,ZFYNYTLTUHLFZUS,FLYEFSHYSUZZHTL,4,E,absent,eE,nN,e,1,1.0376168,y,0,0.2090195,RSVPLG01,0.94,2023-09-12-22:47:28,908,1,Experiment,2023-09-12_16h02.59.572
6,local,global,7,13,10,166,5,,,172,exp,HUTFTNYLLEYUXFH,YSEEUZLHFHTLYFS,6,Z,X,zZ,yY,z,1,0.7267697,y,1,0.2588436,RSVPLG01,0.94,2023-09-12-22:47:28,908,1,Experiment,2023-09-12_16h02.59.572
12,global,global,7,13,11,167,11,,,173,exp,ZUZENNFUTSXTSLY,ZNNHYZUFSUYTLST,4,E,X,eE,yY,n,0,0.5273561,y,1,0.3068964,RSVPLG01,0.94,2023-09-12-22:47:28,908,1,Experiment,2023-09-12_16h02.59.572
10,global,global,0,14,0,168,9,,,174,exp,HLFUFSNYZLZYTUN,NZYNHEFUTYHZTUL,6,S,absent,sS,nN,s,1,0.7782237,n,1,0.3534725,RSVPLG01,0.94,2023-09-12-22:47:28,908,1,Experiment,2023-09-12_16h02.59.572
9,global,local,7,14,1,169,8,,,175,exp,TEHZFNLFTZHSULE,TFFUZYETHSULXEL,6,N,X,nN,yY,y,0,2.5276833,n,0,0.8541724,RSVPLG01,0.94,2023-09-12-22:47:28,908,1,Experiment,2023-09-12_16h02.59.572
5,local,global,3,14,2,170,4,,,176,exp,SFUZNTXTEELNSHF,UTUYSNEHLESFFHL,4,Y,X,yY,yY,y,1,0.8550769,n,0,0.2170051,RSVPLG01,0.94,2023-09-12-22:47:28,908,1,Experiment,2023-09-12_16h02.59.572
9,global,local,7,14,3,171,8,,,177,exp,LYEUZTYHTHNFENU,FTYFSHUTNHNXUEY,5,Z,X,zZ,yY,t,0,1.525305,y,1,0.7029429,RSVPLG01,0.94,2023-09-12-22:47:28,908,1,Experiment,2023-09-12_16h02.59.572
4,local,global,0,14,4,172,3,,,178,exp,HSLLYEZZYHFNTTS,TTSZNUSNLFLZYYH,6,U,absent,uU,nN,u,1,0.9146352,y,0,0.273559,RSVPLG01,0.94,2023-09-12-22:47:28,908,1,Experiment,2023-09-12_16h02.59.572
6,local,global,7,14,5,173,5,,,179,exp,NEYUNSFFLZLZXTE,TZYFUHNNFYZELUT,6,H,X,hH,yY,n,0,0.7236832,y,1,0.2426763,RSVPLG01,0.94,2023-09-12-22:47:28,908,1,Experiment,2023-09-12_16h02.59.572
5,local,global,3,14,6,174,4,,,180,exp,LFTZLHSSXUYNYNT,SFTLNEUSLUYNZYZ,6,E,X,eE,yY,e,1,0.3880107,y,1,0.5236736,RSVPLG01,0.94,2023-09-12-22:47:28,908,1,Experiment,2023-09-12_16h02.59.572
9,global,local,7,14,7,175,8,,,181,exp,TNZLYYUFTSNFSEZ,FTYHSNNESEXTUZZ,4,L,X,lL,yY,y,0,1.3349137,y,1,0.4717406,RSVPLG01,0.94,2023-09-12-22:47:28,908,1,Experiment,2023-09-12_16h02.59.572
5,local,global,3,14,8,176,4,,,182,exp,UNYSYZXEZTEFTUF,UEHLYNTYZFTNZFU,4,L,X,lL,yY,l,1,0.8362803,y,1,0.7618299,RSVPLG01,0.94,2023-09-12-22:47:28,908,1,Experiment,2023-09-12_16h02.59.572
12,global,global,7,14,9,177,11,,,183,exp,LZLHEFNNHUUYXEY,SNZYUTEUHSYHLLZ,6,F,X,fF,yY,n,0,0.6696834,y,1,0.6561382,RSVPLG01,0.94,2023-09-12-22:47:28,908,1,Experiment,2023-09-12_16h02.59.572
6,local,global,7,14,10,178,5,,,184,exp,YFTZNETLFELXSZS,FUZSHUEYFLSLZEY,5,H,X,hH,yY,u,0,0.6908202,y,1,0.3860194,RSVPLG01,0.94,2023-09-12-22:47:28,908,1,Experiment,2023-09-12_16h02.59.572
8,global,local,3,14,11,179,7,,,185,exp,UNSNLZUTFZHFTYH,UTYSEUNXSHTZYZH,5,L,X,lL,yY,l,1,0.7150129,y,1,0.29763,RSVPLG01,0.94,2023-09-12-22:47:28,908,1,Experiment,2023-09-12_16h02.59.572
8,global,local,3,15,0,180,7,,,186,exp,STHFYLFYEUTEUSN,SUYHFZYFXNUHETT,6,L,X,lL,yY,l,1,0.9672634,n,0,0.2667586,RSVPLG01,0.94,2023-09-12-22:47:28,908,1,Experiment,2023-09-12_16h02.59.572
3,local,local,7,15,1,181,2,,,187,exp,YFUZTHEUNHNFYTL,TUUSHHEFYYXFELN,4,S,X,sS,yY,s,1,0.8452067,y,1,0.3049674,RSVPLG01,0.94,2023-09-12-22:47:28,908,1,Experiment,2023-09-12_16h02.59.572
7,global,local,0,15,2,182,6,,,188,exp,ZSEFHYZFTSLUUET,SZSUFNTHFLZUELH,6,Y,absent,yY,nN,y,1,1.1571768,n,1,0.661467,RSVPLG01,0.94,2023-09-12-22:47:28,908,1,Experiment,2023-09-12_16h02.59.572
9,global,local,7,15,3,183,8,,,189,exp,ESLUHYEZNHSFYLF,ZYSTEHFSNHXELYL,4,U,X,uU,yY,u,1,0.8184039,y,1,0.2666328,RSVPLG01,0.94,2023-09-12-22:47:28,908,1,Experiment,2023-09-12_16h02.59.572
5,local,global,3,15,4,184,4,,,190,exp,SELHZFXZSFLETNN,FTYULNLYFNSZESE,4,U,X,uU,yY,u,1,0.968672,y,1,0.988271,RSVPLG01,0.94,2023-09-12-22:47:28,908,1,Experiment,2023-09-12_16h02.59.572
2,local,local,3,15,5,185,1,,,191,exp,UFZTLNUNEELYZSS,NEYHYNXUSEZFSLL,4,H,X,hH,yY,t,0,0.8301998,y,1,0.2426263,RSVPLG01,0.94,2023-09-12-22:47:28,908,1,Experiment,2023-09-12_16h02.59.572
3,local,local,7,15,6,186,2,,,192,exp,NNUHFFLSZTLUZST,TEUYSTULFLXSNEF,4,Y,X,yY,yY,y,1,0.5842288,y,1,0.2411014,RSVPLG01,0.94,2023-09-12-22:47:28,908,1,Experiment,2023-09-12_16h02.59.572
2,local,local,3,15,7,187,1,,,193,exp,NYLFUZYZNUESTTS,YUEHUNXESZLTNYZ,4,H,X,hH,yY,h,1,0.8352072,y,1,0.2728334,RSVPLG01,0.94,2023-09-12-22:47:28,908,1,Experiment,2023-09-12_16h02.59.572
11,global,global,3,15,8,188,10,,,194,exp,ZTFENUFXSEUTLLH,ZSLSYFHFHEUULZT,5,N,X,nN,yY,n,1,0.8442596,n,0,0.5584437,RSVPLG01,0.94,2023-09-12-22:47:28,908,1,Experiment,2023-09-12_16h02.59.572
7,global,local,0,15,9,189,6,,,195,exp,NTLHZEZYLYHTSNU,TSLNSFYZZULHHUN,6,E,absent,eE,nN,e,1,1.012854,y,0,0.3631107,RSVPLG01,0.94,2023-09-12-22:47:28,908,1,Experiment,2023-09-12_16h02.59.572
12,global,global,7,15,10,190,11,,,196,exp,EHFUEYNSHZNTXFU,NHSFTLHUZUEFEZT,6,Y,X,yY,yY,y,1,0.8519429,y,1,0.2265081,RSVPLG01,0.94,2023-09-12-22:47:28,908,1,Experiment,2023-09-12_16h02.59.572
11,global,global,3,15,11,191,10,,,197,exp,USNSEYZZXFUNEFH,HZLNLTNUUEHFESZ,6,Y,X,yY,yY,y,1,0.8685946,n,0,0.299056,RSVPLG01,0.94,2023-09-12-22:47:28,908,1,Experiment,2023-09-12_16h02.59.572
8,global,local,3,16,0,192,7,,,198,exp,HLZLYSZETFFHTUE,TUHTNFFXZLULSEZ,5,Y,X,yY,yY,y,1,0.8866348,n,0,0.2482161,RSVPLG01,0.94,2023-09-12-22:47:28,908,1,Experiment,2023-09-12_16h02.59.572
8,global,local,3,16,1,193,7,,,199,exp,ZNNLHSYTFTYFESE,YTYUZEXFSZSNHFE,4,L,X,lL,yY,l,1,1.0113884,y,1,0.2445377,RSVPLG01,0.94,2023-09-12-22:47:28,908,1,Experiment,2023-09-12_16h02.59.572
12,global,global,7,16,2,194,11,,,200,exp,UHHFNLYEUYXTNTE,YUNSNELZLYUTTZH,4,F,X,fF,yY,f,1,0.7259568,y,1,0.3316633,RSVPLG01,0.94,2023-09-12-22:47:28,908,1,Experiment,2023-09-12_16h02.59.572
7,global,local,0,16,3,195,6,,,201,exp,FNZYETSFLHTYHNZ,LSYFUYFHNNLSZHZ,5,E,absent,eE,nN,f,0,1.6062851,y,0,1.1096956,RSVPLG01,0.94,2023-09-12-22:47:28,908,1,Experiment,2023-09-12_16h02.59.572
9,global,local,7,16,4,196,8,,,202,exp,NLHNHYSTUFLEEFU,NETEHZUFLLHUXFS,6,Y,X,yY,yY,y,1,0.9472225,y,1,0.4890249,RSVPLG01,0.94,2023-09-12-22:47:28,908,1,Experiment,2023-09-12_16h02.59.572
7,global,local,0,16,5,197,6,,,203,exp,NLUYHLTSTNUZESE,SHNFLTSEZUHUENZ,4,Y,absent,yY,nN,y,1,0.7967319,n,1,0.5615202,RSVPLG01,0.94,2023-09-12-22:47:28,908,1,Experiment,2023-09-12_16h02.59.572
3,local,local,7,16,6,198,2,,,204,exp,HHUTSSZFEYELLZY,EYSNYZLUHEXFFLH,4,N,X,nN,yY,s,0,0.8588155,y,1,0.3366369,RSVPLG01,0.94,2023-09-12-22:47:28,908,1,Experiment,2023-09-12_16h02.59.572
8,global,local,3,16,7,199,7,,,205,exp,HZTUNSLUENTLHFZ,LZEFLYNTXUHHEZT,6,S,X,sS,yY,s,1,0.8701201,y,1,0.8570748,RSVPLG01,0.94,2023-09-12-22:47:28,908,1,Experiment,2023-09-12_16h02.59.572
11,global,global,3,16,8,200,10,,,206,exp,YNLUFFXSHZEYSNE,SYETZNLNHEFHFYS,4,U,X,uU,yY,u,1,0.3652126,y,1,0.2259352,RSVPLG01,0.94,2023-09-12-22:47:28,908,1,Experiment,2023-09-12_16h02.59.572
9,global,local,7,16,9,201,8,,,207,exp,SYHEFNTZTSUFUZH,YNNLTUTSUHXFYZZ,4,E,X,eE,yY,f,0,0.7350016,y,1,0.2203236,RSVPLG01,0.94,2023-09-12-22:47:28,908,1,Experiment,2023-09-12_16h02.59.572
2,local,local,3,16,10,202,1,,,208,exp,UNTELZYNYLSHSZT,UYSFZTXLSLUNYZH,4,F,X,fF,yY,f,1,0.8485411,y,1,0.2264022,RSVPLG01,0.94,2023-09-12-22:47:28,908,1,Experiment,2023-09-12_16h02.59.572
12,global,global,7,16,11,203,11,,,209,exp,SNNEFYUSTULFXTH,EEUSFZFNHNTSULT,6,Y,X,yY,yY,y,1,0.8261018,n,0,0.21052,RSVPLG01,0.94,2023-09-12-22:47:28,908,1,Experiment,2023-09-12_16h02.59.572
8,global,local,3,17,0,204,7,,,210,exp,ZSYESUTHZULFTHL,HYSNTTXYFFLLSZH,4,E,X,eE,yY,y,0,3.0579095,n,0,0.817651,RSVPLG01,0.94,2023-09-12-22:47:28,908,1,Experiment,2023-09-12_16h02.59.572
6,local,global,7,17,1,205,5,,,211,exp,NZFSFYTUTEXELLY,FLFHYEEUZTYUTZL,4,H,X,hH,yY,h,1,0.5117257,y,1,0.3057241,RSVPLG01,0.94,2023-09-12-22:47:28,908,1,Experiment,2023-09-12_16h02.59.572
3,local,local,7,17,2,206,2,,,212,exp,TNFSEEZHLUZFLUN,FHUYLNHUZTXELZF,4,Y,X,yY,yY,y,1,0.851255,n,0,0.2986728,RSVPLG01,0.94,2023-09-12-22:47:28,908,1,Experiment,2023-09-12_16h02.59.572
9,global,local,7,17,3,207,8,,,213,exp,SNZLNHUHUFTZSYT,ZUHESHUZNTXYTSF,4,L,X,lL,yY,l,1,0.8199638,y,1,0.2172067,RSVPLG01,0.94,2023-09-12-22:47:28,908,1,Experiment,2023-09-12_16h02.59.572
1,local,local,0,17,4,208,0,,,214,exp,ZYENLFUTEZUSNFS,UZSUHTFFEYNZENS,5,H,absent,hH,nN,t,0,1.1583182,y,0,0.2335981,RSVPLG01,0.94,2023-09-12-22:47:28,908,1,Experiment,2023-09-12_16h02.59.572
9,global,local,7,17,5,209,8,,,215,exp,TYYHUSZULFZESTE,LTSNZEFYLUXZTYU,4,H,X,hH,yY,h,1,0.7568751,y,1,0.2665102,RSVPLG01,0.94,2023-09-12-22:47:28,908,1,Experiment,2023-09-12_16h02.59.572
12,global,global,7,17,6,210,11,,,216,exp,HFZLNSFYEUYXSZL,UELZTFSZHSLYEHF,5,N,X,nN,yY,n,1,0.8542003,y,1,0.185072,RSVPLG01,0.94,2023-09-12-22:47:28,908,1,Experiment,2023-09-12_16h02.59.572
1,local,local,0,17,7,211,0,,,217,exp,TYTZELHSFESUZYU,STTEHNUHEUYZFFY,6,N,absent,nN,nN,n,1,0.6541533,y,0,0.1430446,RSVPLG01,0.94,2023-09-12-22:47:28,908,1,Experiment,2023-09-12_16h02.59.572
6,local,global,7,17,8,212,5,,,218,exp,LLTZSFUYTZEYXHE,YYTUENLLSZUHSZH,6,N,X,nN,yY,n,1,0.6981574,y,1,0.1615563,RSVPLG01,0.94,2023-09-12-22:47:28,908,1,Experiment,2023-09-12_16h02.59.572
1,local,local,0,17,9,213,0,,,219,exp,SUHNENYLUHTFLSY,USYLZHNNFFTHTYS,5,Z,absent,zZ,nN,z,1,0.758233,y,0,0.2897489,RSVPLG01,0.94,2023-09-12-22:47:28,908,1,Experiment,2023-09-12_16h02.59.572
11,global,global,3,17,10,214,10,,,220,exp,FFYLNHXZEUTYHZN,ZFESYFYZTUNNHTU,4,L,X,lL,yY,l,1,0.8237411,n,0,0.197538,RSVPLG01,0.94,2023-09-12-22:47:28,908,1,Experiment,2023-09-12_16h02.59.572
1,local,local,0,17,11,215,0,,,221,exp,FYENHZFTSLNSZYE,FTENUFLSZELYYTZ,5,U,absent,uU,nN,u,1,0.785292,n,1,0.1969465,RSVPLG01,0.94,2023-09-12-22:47:28,908,1,Experiment,2023-09-12_16h02.59.572
6,local,global,7,18,0,216,5,,,222,exp,SHLFYLZSUTZXEFT,ZUHHNELSFSEZTLF,5,N,X,nN,yY,e,0,0.6417428,y,1,0.1457476,RSVPLG01,0.94,2023-09-12-22:47:28,908,1,Experiment,2023-09-12_16h02.59.572
4,local,global,0,18,1,217,3,,,223,exp,TTLSNHNLEYUSZZU,LZTUTFSYYNZULES,6,F,absent,fF,nN,f,1,0.8375534,y,0,0.1304694,RSVPLG01,0.94,2023-09-12-22:47:28,908,1,Experiment,2023-09-12_16h02.59.572
7,global,local,0,18,2,218,6,,,224,exp,ZSTLTFULEYNZNYE,TLNEZHULSYYESZT,6,F,absent,fF,nN,f,1,1.5269844,y,0,0.8028329,RSVPLG01,0.94,2023-09-12-22:47:28,908,1,Experiment,2023-09-12_16h02.59.572
6,local,global,7,18,3,219,5,,,225,exp,ZSNTULTYESHNXEU,SNEYTFUSHEYHZUZ,6,F,X,fF,yY,f,1,0.850024,y,1,0.6926447,RSVPLG01,0.94,2023-09-12-22:47:28,908,1,Experiment,2023-09-12_16h02.59.572
12,global,global,7,18,4,220,11,,,226,exp,YTFUSENELLHXHNT,THFLZLUEUNFYTYE,5,S,X,sS,yY,s,1,0.6745287,y,1,0.1953264,RSVPLG01,0.94,2023-09-12-22:47:28,908,1,Experiment,2023-09-12_16h02.59.572
11,global,global,3,18,5,221,10,,,227,exp,SNLZUEYYXFHZUFL,SHYYSTUNZUZLNHF,6,E,X,eE,yY,e,1,0.7592655,y,1,0.269932,RSVPLG01,0.94,2023-09-12-22:47:28,908,1,Experiment,2023-09-12_16h02.59.572
7,global,local,0,18,6,222,6,,,228,exp,NYYFLHSNELTSUTH,LHEZTSUYYTLNESN,4,F,absent,fF,nN,f,1,0.8431008,n,1,0.2915525,RSVPLG01,0.94,2023-09-12-22:47:28,908,1,Experiment,2023-09-12_16h02.59.572
5,local,global,3,18,7,223,4,,,229,exp,NSUTEZLNXYSTYHE,HYEYSFUNLHSUNLE,6,F,X,fF,yY,f,1,0.8181961,n,0,0.2630723,RSVPLG01,0.94,2023-09-12-22:47:28,908,1,Experiment,2023-09-12_16h02.59.572
6,local,global,7,18,8,224,5,,,230,exp,EYSUTHNNFZXEZTY,SNFLFYNEHTZTZHS,4,L,X,lL,yY,l,1,0.5677122,y,1,0.2183042,RSVPLG01,0.94,2023-09-12-22:47:28,908,1,Experiment,2023-09-12_16h02.59.572
6,local,global,7,18,9,225,5,,,231,exp,ZLNTUYLHFNFZXEE,NEHTLSZNUTHLEUF,6,S,X,sS,yY,s,1,0.6546728,y,1,0.1711126,RSVPLG01,0.94,2023-09-12-22:47:28,908,1,Experiment,2023-09-12_16h02.59.572
8,global,local,3,18,10,226,7,,,232,exp,NEUHSFYYTSLLETF,TFSZELXSNFUYTLU,4,H,X,hH,yY,h,1,0.6903398,y,1,0.122859,RSVPLG01,0.94,2023-09-12-22:47:28,908,1,Experiment,2023-09-12_16h02.59.572
10,global,global,0,18,11,227,9,,,233,exp,LFUZEHLTNUYEYFT,NYFSTHLUFLNYTEE,4,Z,absent,zZ,nN,z,1,0.5803113,y,0,0.2266919,RSVPLG01,0.94,2023-09-12-22:47:28,908,1,Experiment,2023-09-12_16h02.59.572
11,global,global,3,19,0,228,10,,,234,exp,FFLHTESXZNEZSUL,HEUUYSSNELHNZFF,5,T,X,tT,yY,t,1,0.8233562,y,1,0.0628818,RSVPLG01,0.94,2023-09-12-22:47:28,908,1,Experiment,2023-09-12_16h02.59.572
12,global,global,7,19,1,229,11,,,235,exp,ZSSLYFTEUEUXFNL,FNSUHTLELZSUFTZ,5,Y,X,yY,yY,y,1,0.5359768,y,1,0.1616455,RSVPLG01,0.94,2023-09-12-22:47:28,908,1,Experiment,2023-09-12_16h02.59.572
10,global,global,0,19,2,230,9,,,236,exp,FTEYUZLSENNSFZY,ZTZTHSLFSYFEENL,5,U,absent,uU,nN,u,1,0.7096334,y,0,0.0653705,RSVPLG01,0.94,2023-09-12-22:47:28,908,1,Experiment,2023-09-12_16h02.59.572
11,global,global,3,19,3,231,10,,,237,exp,FUYHLUXZSNYESNZ,FSFTSEZYENZUYNL,4,H,X,hH,yY,h,1,0.6572095,n,0,0.1385053,RSVPLG01,0.94,2023-09-12-22:47:28,908,1,Experiment,2023-09-12_16h02.59.572
11,global,global,3,19,4,232,10,,,238,exp,LHYETFZXSLYSEUZ,LSFENYHYUEZHZSF,5,T,X,tT,yY,t,1,0.575038,y,1,0.0813036,RSVPLG01,0.94,2023-09-12-22:47:28,908,1,Experiment,2023-09-12_16h02.59.572
1,local,local,0,19,5,233,0,,,239,exp,HLNSYLHENZZTSET,HSLZUNFHZTNESTF,5,U,absent,uU,nN,u,1,0.6566386,y,0,0.098517,RSVPLG01,0.94,2023-09-12-22:47:28,908,1,Experiment,2023-09-12_16h02.59.572
10,global,global,0,19,6,234,9,,,240,exp,ZSULUHYESTEYTHN,NENFHUETTZSZYUY,4,L,absent,lL,nN,l,1,0.6523024,y,0,0.2271954,RSVPLG01,0.94,2023-09-12-22:47:28,908,1,Experiment,2023-09-12_16h02.59.572
6,local,global,7,19,7,235,5,,,241,exp,TUUENLLHZHFXEFT,HZFUYFUTSSLEELH,5,Y,X,yY,yY,y,1,0.5468046,y,1,0.1516624,RSVPLG01,0.94,2023-09-12-22:47:28,908,1,Experiment,2023-09-12_16h02.59.572
7,global,local,0,19,8,236,6,,,242,exp,TFLEUHNUZLFTSNZ,TTLSNYFSEFUZUZL,6,H,absent,hH,nN,h,1,0.7815762,y,0,0.0975031,RSVPLG01,0.94,2023-09-12-22:47:28,908,1,Experiment,2023-09-12_16h02.59.572
9,global,local,7,19,9,237,8,,,243,exp,ZEHHEUFTTNFLLSS,ELLTHYZZHNSFXEN,6,U,X,uU,yY,u,1,0.8572061,n,0,0.1786941,RSVPLG01,0.94,2023-09-12-22:47:28,908,1,Experiment,2023-09-12_16h02.59.572
1,local,local,0,19,10,238,0,,,244,exp,YYLEHFHSUNFTUNL,SYYZLNFUHHTLTFN,4,Z,absent,zZ,nN,z,1,0.6808804,n,1,0.2584533,RSVPLG01,0.94,2023-09-12-22:47:28,908,1,Experiment,2023-09-12_16h02.59.572
2,local,local,3,19,11,239,1,,,245,exp,ZEFNTZTUFEUSSHL,LFHYTZXEUESZHSL,4,Y,X,yY,yY,n,0,0.8707144,n,0,0.3372248,RSVPLG01,0.94,2023-09-12-22:47:28,908,1,Experiment,2023-09-12_16h02.59.572