row,t1_level,t2_level,t2_lag,.thisRepN,.thisTrialN,.thisN,.thisIndex,thisRow.t,notes,trial,trial_type,global_letters,local_letters,t1_pos,t1,t2,t1_corr,t2_corr,t1_resp,t1_acc,t1_rt,t2_resp,t2_acc,t2_rt,exp,ver,mod-utc,sub,sess,blocktyp,datetime
1,local,local,0,0,0,0,0,,,1,warmup,NSZFHZLTYUULNTH,NNLEUHZSYZYUSLH,4,E,absent,eE,nN,e,1,0.3808825,y,0,0.7263882,RSVPLG01,0.94,2023-09-12-22:25:03,913,1,Experiment,2023-09-12_15h37.41.403
11,global,global,3,0,1,1,10,,,2,warmup,HFEZULXHLTTYSEF,LLTNUHYTHUSEESF,4,Z,X,zZ,yY,z,1,0.5542854,n,0,0.4165827,RSVPLG01,0.94,2023-09-12-22:25:03,913,1,Experiment,2023-09-12_15h37.41.403
12,global,global,7,0,2,2,11,,,3,warmup,USTYZFFHSNXTNUL,FTTENZLZSNSLHUF,4,Y,X,yY,yY,y,1,1.0351963,y,1,0.4354907,RSVPLG01,0.94,2023-09-12-22:25:03,913,1,Experiment,2023-09-12_15h37.41.403
3,local,local,7,0,3,3,2,,,4,warmup,LTFYLUZZSFHSUET,UFLNETTHLZXFUZS,4,N,X,nN,yY,n,1,0.6179454,y,1,0.8343142,RSVPLG01,0.94,2023-09-12-22:25:03,913,1,Experiment,2023-09-12_15h37.41.403
6,local,global,7,0,4,4,5,,,5,warmup,ULTHEZNEUSLFXST,HNUEFYFSNTLLTEH,6,Y,X,yY,yY,y,1,1.3164404,y,1,0.418229,RSVPLG01,0.94,2023-09-12-22:25:03,913,1,Experiment,2023-09-12_15h37.41.403
6,local,global,7,0,0,0,5,,,6,exp,SFLULYEZHHTUXET,FZULHNSTSFUEHTZ,6,N,X,nN,yY,n,1,0.5032679,y,1,0.7112066,RSVPLG01,0.94,2023-09-12-22:25:03,913,1,Experiment,2023-09-12_15h37.41.403
7,global,local,0,0,1,1,6,,,7,exp,EZESFUTHHSNYNYF,FZZTHLENTNFSYES,6,U,absent,uU,nN,u,1,1.1441505,n,1,0.4099029,RSVPLG01,0.94,2023-09-12-22:25:03,913,1,Experiment,2023-09-12_15h37.41.403
1,local,local,0,0,2,2,0,,,8,exp,NELHYZFHFSZSTNT,LFLHUFSNZTETZHS,5,U,absent,uU,nN,u,1,0.9950941,n,1,0.3992659,RSVPLG01,0.94,2023-09-12-22:25:03,913,1,Experiment,2023-09-12_15h37.41.403
7,global,local,0,0,3,3,6,,,9,exp,ELTULNZTHFUHFSS,EHHTLYFZFSEUUST,6,N,absent,nN,nN,n,1,1.6514439,y,0,0.6231343,RSVPLG01,0.94,2023-09-12-22:25:03,913,1,Experiment,2023-09-12_15h37.41.403
10,global,global,0,0,4,4,9,,,10,exp,NYLSTLHSFNYEFZZ,ZYYFUNLEHNFEZSS,5,T,absent,tT,nN,y,0,0.4902961,y,0,0.4310252,RSVPLG01,0.94,2023-09-12-22:25:03,913,1,Experiment,2023-09-12_15h37.41.403
10,global,global,0,0,5,5,9,,,11,exp,SNSFTEHTULHYEUY,EUUZYHNSHTNYTLE,4,F,absent,fF,nN,f,1,0.5455034,n,1,0.3501521,RSVPLG01,0.94,2023-09-12-22:25:03,913,1,Experiment,2023-09-12_15h37.41.403
5,local,global,3,0,6,6,4,,,12,exp,YSFZLUHXSTZFEYE,HHETNFZFYSUETSZ,5,N,X,nN,yY,u,0,0.7010265,y,1,0.4877978,RSVPLG01,0.94,2023-09-12-22:25:03,913,1,Experiment,2023-09-12_15h37.41.403
9,global,local,7,0,7,7,8,,,13,exp,NUUSHNEZYZYTSET,ZNYNLFESTYEXUSZ,5,H,X,hH,yY,h,1,0.9657041,y,1,0.3066526,RSVPLG01,0.94,2023-09-12-22:25:03,913,1,Experiment,2023-09-12_15h37.41.403
5,local,global,3,0,8,8,4,,,14,exp,EYHTNEXFYHUSUSZ,UUZLSFZHYNNFYEH,4,L,X,lL,yY,l,1,0.756972,y,1,0.2874602,RSVPLG01,0.94,2023-09-12-22:25:03,913,1,Experiment,2023-09-12_15h37.41.403
4,local,global,0,0,9,9,3,,,15,exp,TFUFHYSZZUSHLNN,HUUNTEHFLFSSNZT,6,E,absent,eE,nN,e,1,0.6130344,n,1,0.3760336,RSVPLG01,0.94,2023-09-12-22:25:03,913,1,Experiment,2023-09-12_15h37.41.403
11,global,global,3,0,10,10,10,,,16,exp,FNLZTYEXFLHHNES,ZHNSUFSEYEHNFLL,5,T,X,tT,yY,t,1,0.4715906,n,0,0.3438927,RSVPLG01,0.94,2023-09-12-22:25:03,913,1,Experiment,2023-09-12_15h37.41.403
3,local,local,7,0,11,11,2,,,17,exp,EUSYLTZLFYZUNSN,LUNYFHZFZNYSXUE,6,H,X,hH,yY,h,1,0.4210001,y,1,0.6791635,RSVPLG01,0.94,2023-09-12-22:25:03,913,1,Experiment,2023-09-12_15h37.41.403
10,global,global,0,1,0,12,9,,,18,exp,UUYSHZFZHELETTL,FEYNUZHYELTZFUL,4,S,absent,sS,nN,s,1,0.48169,y,0,0.6378114,RSVPLG01,0.94,2023-09-12-22:25:03,913,1,Experiment,2023-09-12_15h37.41.403
11,global,global,3,1,1,13,10,,,19,exp,YTLNFSFEXHYZNLE,FHNZNUEZTLHLYYT,6,S,X,sS,yY,s,1,0.8389925,y,1,0.4262216,RSVPLG01,0.94,2023-09-12-22:25:03,913,1,Experiment,2023-09-12_15h37.41.403
4,local,global,0,1,2,14,3,,,20,exp,YEFEZSSLYUUTHLF,UTYTNSFEHUSFELY,5,N,absent,nN,nN,z,0,0.8070068,n,1,0.4343054,RSVPLG01,0.94,2023-09-12-22:25:03,913,1,Experiment,2023-09-12_15h37.41.403
10,global,global,0,1,3,15,9,,,21,exp,UZLHEFTTLZYSUHY,SUHLZNUSHYZYEEL,6,F,absent,fF,nN,e,0,0.417699,y,0,0.3338478,RSVPLG01,0.94,2023-09-12-22:25:03,913,1,Experiment,2023-09-12_15h37.41.403
1,local,local,0,1,4,16,0,,,22,exp,UEZHFTESZNSLHUL,SFNHLYZEZSUFNEH,6,Y,absent,yY,nN,t,0,0.6185707,n,1,0.2733493,RSVPLG01,0.94,2023-09-12-22:25:03,913,1,Experiment,2023-09-12_15h37.41.403
8,global,local,3,1,5,17,7,,,23,exp,UYTNELSEYSZFZUL,ZUEHYSXYLESTFLF,4,N,X,nN,yY,n,1,0.5584024,n,0,0.4081919,RSVPLG01,0.94,2023-09-12-22:25:03,913,1,Experiment,2023-09-12_15h37.41.403
9,global,local,7,1,6,18,8,,,24,exp,UYETNZSHLYELUST,TLEHFZUHELZXSST,5,N,X,nN,yY,n,1,0.4452755,y,1,0.7046294,RSVPLG01,0.94,2023-09-12-22:25:03,913,1,Experiment,2023-09-12_15h37.41.403
3,local,local,7,1,7,19,2,,,25,exp,ZNLYSEZYUFLTNTE,FYTEHFLZTLNXZUN,5,H,X,hH,yY,f,0,0.6332994,y,1,0.6259004,RSVPLG01,0.94,2023-09-12-22:25:03,913,1,Experiment,2023-09-12_15h37.41.403
4,local,global,0,1,8,20,3,,,26,exp,ULYLEFHNHSYEUNS,TLENEZSUHLHYYST,6,Z,absent,zZ,nN,z,1,0.5328719,n,1,0.5141446,RSVPLG01,0.94,2023-09-12-22:25:03,913,1,Experiment,2023-09-12_15h37.41.403
4,local,global,0,1,9,21,3,,,27,exp,LLNZFSHHYUFSNTT,LNYEUNHLFYUTSTF,4,E,absent,eE,nN,e,1,0.5547126,n,1,0.2334825,RSVPLG01,0.94,2023-09-12-22:25:03,913,1,Experiment,2023-09-12_15h37.41.403
1,local,local,0,1,10,22,0,,,28,exp,HSZZHEUFNFYNYSL,YHNFZTSUFZYLNHU,6,T,absent,tT,nN,t,1,0.3243918,n,1,1.169052,RSVPLG01,0.94,2023-09-12-22:25:03,913,1,Experiment,2023-09-12_15h37.41.403
4,local,global,0,1,11,23,3,,,29,exp,EYUNZZYLHHSELFU,LHZTYEFZYUUSLHE,4,T,absent,tT,nN,t,1,0.3457121,n,1,0.3048899,RSVPLG01,0.94,2023-09-12-22:25:03,913,1,Experiment,2023-09-12_15h37.41.403
9,global,local,7,2,0,24,8,,,30,exp,HSTZFNNYHZESUYU,TENHLNHYYZUXSUS,5,F,X,fF,yY,f,1,0.4357445,y,1,0.6789294,RSVPLG01,0.94,2023-09-12-22:25:03,913,1,Experiment,2023-09-12_15h37.41.403
5,local,global,3,2,1,25,4,,,31,exp,TEUFLNHXZFSZHUN,HETUYFNEHSNZTSF,5,Y,X,yY,yY,l,0,0.4600467,y,1,0.241523,RSVPLG01,0.94,2023-09-12-22:25:03,913,1,Experiment,2023-09-12_15h37.41.403
12,global,global,7,2,2,26,11,,,32,exp,ZHLSELTTZNXFNEY,LNTUZNFYTEZLHHE,4,S,X,sS,yY,s,1,0.5679365,y,1,0.1288033,RSVPLG01,0.94,2023-09-12-22:25:03,913,1,Experiment,2023-09-12_15h37.41.403
3,local,local,7,2,3,27,2,,,33,exp,LNYHHTSUSFUZNYZ,LZNZHENYHLYSXUF,6,E,X,eE,yY,e,1,0.4207152,y,1,0.2831363,RSVPLG01,0.94,2023-09-12-22:25:03,913,1,Experiment,2023-09-12_15h37.41.403
7,global,local,0,2,4,28,6,,,34,exp,SEHHUNLSETTNFLZ,THSNYLZTSFNHFEZ,5,U,absent,uU,nN,u,1,0.5468727,n,1,0.2755834,RSVPLG01,0.94,2023-09-12-22:25:03,913,1,Experiment,2023-09-12_15h37.41.403
12,global,global,7,2,5,29,11,,,35,exp,ZESFHFYTSTLXLYN,LFETUELNYNTSSZF,5,H,X,hH,yY,h,1,0.5798511,y,1,0.8306758,RSVPLG01,0.94,2023-09-12-22:25:03,913,1,Experiment,2023-09-12_15h37.41.403
6,local,global,7,2,6,30,5,,,36,exp,EELHYNUHFTSXNSF,TFEHZSTULNSHLEF,5,Z,X,zZ,yY,t,0,0.4655204,y,1,0.4034645,RSVPLG01,0.94,2023-09-12-22:25:03,913,1,Experiment,2023-09-12_15h37.41.403
3,local,local,7,2,7,31,2,,,37,exp,ENSUUFSYZHNEZTY,YTUTZLHYUSHNXEN,6,L,X,lL,yY,l,1,0.6288274,y,1,0.6573247,RSVPLG01,0.94,2023-09-12-22:25:03,913,1,Experiment,2023-09-12_15h37.41.403
7,global,local,0,2,8,32,6,,,38,exp,LTUFNHZZEUTLHFE,ZEZUYSFTHFLHUTE,5,N,absent,nN,nN,n,1,0.6138512,n,1,0.425802,RSVPLG01,0.94,2023-09-12-22:25:03,913,1,Experiment,2023-09-12_15h37.41.403
7,global,local,0,2,9,33,6,,,39,exp,SUTNYHLEYTNUFEL,ETFYSZFSUTNEULL,6,H,absent,hH,nN,h,1,0.6393465,n,1,0.2411913,RSVPLG01,0.94,2023-09-12-22:25:03,913,1,Experiment,2023-09-12_15h37.41.403
9,global,local,7,2,10,34,8,,,40,exp,YLZNTUEFYUFLTEZ,HFZSYHYUFLXETUT,4,N,X,nN,yY,n,1,0.8261086,y,1,0.2512261,RSVPLG01,0.94,2023-09-12-22:25:03,913,1,Experiment,2023-09-12_15h37.41.403
2,local,local,3,2,11,35,1,,,41,exp,HFLYYUNZTTFHSLN,SNTZNEZFXYTFHYL,6,E,X,eE,yY,e,1,0.5010617,n,0,1.4933319,RSVPLG01,0.94,2023-09-12-22:25:03,913,1,Experiment,2023-09-12_15h37.41.403
8,global,local,3,3,0,36,7,,,42,exp,EHSZTZNFESYNYLF,FESHUELXNNZFLHS,5,T,X,tT,yY,t,1,0.3659353,y,1,0.5914049,RSVPLG01,0.94,2023-09-12-22:25:03,913,1,Experiment,2023-09-12_15h37.41.403
2,local,local,3,3,1,37,1,,,43,exp,FNSTLNFYHELEHSY,LYEZHYXUNSHLUEF,4,Z,X,zZ,yY,z,1,0.4913973,y,1,0.7041741,RSVPLG01,0.94,2023-09-12-22:25:03,913,1,Experiment,2023-09-12_15h37.41.403
12,global,global,7,3,2,38,11,,,44,exp,LFSELFYSTYXHTHN,YZTUHNLLHSTYFFS,4,E,X,eE,yY,e,1,0.3980123,n,0,0.4919554,RSVPLG01,0.94,2023-09-12-22:25:03,913,1,Experiment,2023-09-12_15h37.41.403
3,local,local,7,3,3,39,2,,,45,exp,FYZHSSYNUFTENZT,TZFLYTNSYEXSUUZ,4,L,X,lL,yY,l,1,0.7778129,y,1,0.178919,RSVPLG01,0.94,2023-09-12-22:25:03,913,1,Experiment,2023-09-12_15h37.41.403
9,global,local,7,3,4,40,8,,,46,exp,UUTSYTHZZHELNLE,UEYFHNETZTXZYLU,4,S,X,sS,yY,s,1,1.0888622,y,1,0.1336742,RSVPLG01,0.94,2023-09-12-22:25:03,913,1,Experiment,2023-09-12_15h37.41.403
12,global,global,7,3,5,41,11,,,47,exp,EHTUNFUHESZXTYY,HUYZLYHESTZFFUE,5,N,X,nN,yY,n,1,0.8697414,y,1,0.2735216,RSVPLG01,0.94,2023-09-12-22:25:03,913,1,Experiment,2023-09-12_15h37.41.403
9,global,local,7,3,6,42,8,,,48,exp,ZEHUFSNENFUTHZY,FYHZELEUNFUTXHY,6,S,X,sS,yY,h,0,2.0445168,y,1,0.7670836,RSVPLG01,0.94,2023-09-12-22:25:03,913,1,Experiment,2023-09-12_15h37.41.403
11,global,global,3,3,7,43,10,,,49,exp,HNZTHFYZXNLUYSL,SSYUNEHNTZLZLHT,6,F,X,fF,yY,e,0,0.5775736,y,1,0.9301274,RSVPLG01,0.94,2023-09-12-22:25:03,913,1,Experiment,2023-09-12_15h37.41.403
8,global,local,3,3,8,44,7,,,50,exp,TYLLTZNEYSEFUFS,SLEFUHYNXTLYNTS,6,Z,X,zZ,yY,z,1,0.556329,y,1,0.7062977,RSVPLG01,0.94,2023-09-12-22:25:03,913,1,Experiment,2023-09-12_15h37.41.403
3,local,local,7,3,9,45,2,,,51,exp,ZNSLHFTUTUEZHEN,UTLNLYEEUSZSXHH,6,Y,X,yY,yY,y,1,2.2812764,y,1,0.066105,RSVPLG01,0.94,2023-09-12-22:25:03,913,1,Experiment,2023-09-12_15h37.41.403
10,global,global,0,3,10,46,9,,,52,exp,NFZSLLYTYUEENFZ,EFLHFUNUEYYTZTZ,4,S,absent,sS,nN,s,1,0.4658598,n,1,0.2903984,RSVPLG01,0.94,2023-09-12-22:25:03,913,1,Experiment,2023-09-12_15h37.41.403
11,global,global,3,3,11,47,10,,,53,exp,NLEHULXTESUTNSF,LULZNEUTFNYSYTS,4,H,X,hH,yY,h,1,0.4839674,n,0,0.2816538,RSVPLG01,0.94,2023-09-12-22:25:03,913,1,Experiment,2023-09-12_15h37.41.403
11,global,global,3,4,0,48,10,,,54,exp,TNLESHFYXLZTYES,NSESFUZZYTELLNY,6,H,X,hH,yY,h,1,0.893692,y,1,0.2804999,RSVPLG01,0.94,2023-09-12-22:25:03,913,1,Experiment,2023-09-12_15h37.41.403
3,local,local,7,4,1,49,2,,,55,exp,TFYNZELULHUHTYF,EZTSFYFUHHXUTLY,4,S,X,sS,yY,s,1,0.6376318,y,1,0.2664926,RSVPLG01,0.94,2023-09-12-22:25:03,913,1,Experiment,2023-09-12_15h37.41.403
4,local,global,0,4,2,50,3,,,56,exp,ZNTHFYLSFLEHTZE,FNSLLUNEFEHSTTH,6,U,absent,uU,nN,u,1,0.5314309,n,1,0.31445,RSVPLG01,0.94,2023-09-12-22:25:03,913,1,Experiment,2023-09-12_15h37.41.403
8,global,local,3,4,3,51,7,,,57,exp,HUUZLSTLZTNFNHF,HUTFZEHNXYUNLZF,6,S,X,sS,yY,s,1,0.4294318,y,1,0.6031183,RSVPLG01,0.94,2023-09-12-22:25:03,913,1,Experiment,2023-09-12_15h37.41.403
1,local,local,0,4,4,52,0,,,58,exp,NZTZUFLESSTULYY,LTLTYHSZNYUZESN,6,H,absent,hH,nN,h,1,0.4716379,y,0,0.5930202,RSVPLG01,0.94,2023-09-12-22:25:03,913,1,Experiment,2023-09-12_15h37.41.403
11,global,global,3,4,5,53,10,,,59,exp,HUFFLTSNXZLHZYY,LHZYSEHZYNNFUSF,6,T,X,tT,yY,t,1,0.349728,y,1,0.3095183,RSVPLG01,0.94,2023-09-12-22:25:03,913,1,Experiment,2023-09-12_15h37.41.403
3,local,local,7,4,6,54,2,,,60,exp,FTLEZLUENFSHSTH,TSNNYLFLHUUXHFE,5,Y,X,yY,yY,z,0,0.3797067,y,1,0.2586382,RSVPLG01,0.94,2023-09-12-22:25:03,913,1,Experiment,2023-09-12_15h37.41.403
2,local,local,3,4,7,55,1,,,61,exp,SEYEHSNFFTNYUZU,FSEFLTUXENYTZNY,5,L,X,lL,yY,l,1,0.6963383,y,1,0.8346998,RSVPLG01,0.94,2023-09-12-22:25:03,913,1,Experiment,2023-09-12_15h37.41.403
9,global,local,7,4,8,56,8,,,62,exp,SULYNZHHUFFNZES,UUETNHLFLNXFSHE,4,Y,X,yY,yY,y,1,0.7843407,y,1,0.3002393,RSVPLG01,0.94,2023-09-12-22:25:03,913,1,Experiment,2023-09-12_15h37.41.403
2,local,local,3,4,9,57,1,,,63,exp,LESNHYZLTZFHETF,HYTUSEXLZTZSYHE,4,U,X,uU,yY,u,1,1.0431042,y,1,0.1584053,RSVPLG01,0.94,2023-09-12-22:25:03,913,1,Experiment,2023-09-12_15h37.41.403
7,global,local,0,4,10,58,6,,,64,exp,NFLSHYUNZSTTZFL,FTSNEUZFLYZYSNU,5,H,absent,hH,nN,h,1,0.544679,n,1,0.9256602,RSVPLG01,0.94,2023-09-12-22:25:03,913,1,Experiment,2023-09-12_15h37.41.403
4,local,global,0,4,11,59,3,,,65,exp,EHHZSTEUUNLLFSZ,LLUSZYZUSNHHEFE,6,Y,absent,yY,nN,y,1,1.0647795,n,1,0.097845,RSVPLG01,0.94,2023-09-12-22:25:03,913,1,Experiment,2023-09-12_15h37.41.403
3,local,local,7,5,0,60,2,,,66,exp,HNFTEZSFNULSHEZ,NNSYZFEHHZXUFLE,4,Y,X,yY,yY,y,1,2.4589192,y,1,0.4636013,RSVPLG01,0.94,2023-09-12-22:25:03,913,1,Experiment,2023-09-12_15h37.41.403
5,local,global,3,5,1,61,4,,,67,exp,HLNYEUXUHENZFLZ,SLFTSUEHUZNENLZ,4,T,X,tT,yY,t,1,0.6762644,y,1,0.4180535,RSVPLG01,0.94,2023-09-12-22:25:03,913,1,Experiment,2023-09-12_15h37.41.403
10,global,global,0,5,2,62,9,,,68,exp,HUHEYYLZLSFZFST,FYSNSLYTUFTZHZH,4,E,absent,eE,nN,e,1,0.5398725,n,1,0.2422868,RSVPLG01,0.94,2023-09-12-22:25:03,913,1,Experiment,2023-09-12_15h37.41.403
3,local,local,7,5,3,63,2,,,69,exp,HLHENTFUYNSFSEY,UHELFZSFLSYYXNH,6,Z,X,zZ,yY,z,1,0.5188887,y,1,0.2746715,RSVPLG01,0.94,2023-09-12-22:25:03,913,1,Experiment,2023-09-12_15h37.41.403
6,local,global,7,5,4,64,5,,,70,exp,EHSHZNLUUSFXYFL,NLHUTYYSFESHNEU,5,T,X,tT,yY,u,0,0.8755456,y,1,0.1331874,RSVPLG01,0.94,2023-09-12-22:25:03,913,1,Experiment,2023-09-12_15h37.41.403
10,global,global,0,5,5,65,9,,,71,exp,NTLHSNTFZFYLHZU,UYUYELFNZHHTFNT,5,S,absent,sS,nN,s,1,0.608634,y,0,0.1123416,RSVPLG01,0.94,2023-09-12-22:25:03,913,1,Experiment,2023-09-12_15h37.41.403
4,local,global,0,5,6,66,3,,,72,exp,ETFUYZYSFSEHNTZ,FYNLZHESTFTEHSN,4,L,absent,lL,nN,l,1,0.5524504,y,0,0.2183128,RSVPLG01,0.94,2023-09-12-22:25:03,913,1,Experiment,2023-09-12_15h37.41.403
5,local,global,3,5,7,67,4,,,73,exp,LETSHYXUYHZNLZN,TYEFZYLHLZTNHUE,4,F,X,fF,yY,e,0,0.4398793,n,0,0.2020517,RSVPLG01,0.94,2023-09-12-22:25:03,913,1,Experiment,2023-09-12_15h37.41.403
7,global,local,0,5,8,68,6,,,74,exp,ZZETHYLUYFHFUSE,LEYNSZHULEUHZFS,4,T,absent,tT,nN,t,1,0.3807926,n,1,0.2379662,RSVPLG01,0.94,2023-09-12-22:25:03,913,1,Experiment,2023-09-12_15h37.41.403
10,global,global,0,5,9,69,9,,,75,exp,TUHSEHNYNYZSFUF,HHYSLFUYFTSUNZT,5,E,absent,eE,nN,e,1,0.4393766,n,1,0.275296,RSVPLG01,0.94,2023-09-12-22:25:03,913,1,Experiment,2023-09-12_15h37.41.403
9,global,local,7,5,10,70,8,,,76,exp,ZFHTLEZLUNYYUTF,TNTHYSUZLULYXFH,6,E,X,eE,yY,e,1,0.4971545,y,1,0.3426822,RSVPLG01,0.94,2023-09-12-22:25:03,913,1,Experiment,2023-09-12_15h37.41.403
1,local,local,0,5,11,71,0,,,77,exp,EYZTZFFESNYNULL,SNUHZEFFNEYZYLU,4,H,absent,hH,nN,h,1,0.7729472,y,0,0.2499394,RSVPLG01,0.94,2023-09-12-22:25:03,913,1,Experiment,2023-09-12_15h37.41.403
9,global,local,7,6,0,72,8,,,78,exp,UFTHNZSLTYULFYZ,YZTEYLZFSNXSNUU,4,H,X,hH,yY,h,1,0.5857335,y,1,0.2502365,RSVPLG01,0.94,2023-09-12-22:25:03,913,1,Experiment,2023-09-12_15h37.41.403
6,local,global,7,6,1,73,5,,,79,exp,EHTUFZTELLSXZUH,EYUTNSEYULHZZTH,5,N,X,nN,yY,f,0,0.8310649,y,1,0.2904293,RSVPLG01,0.94,2023-09-12-22:25:03,913,1,Experiment,2023-09-12_15h37.41.403
11,global,global,3,6,2,74,10,,,80,exp,NHNEFUTZXYHYSFT,YZTHZLNESYFHNTE,6,U,X,uU,yY,u,1,0.7844481,y,1,0.2826363,RSVPLG01,0.94,2023-09-12-22:25:03,913,1,Experiment,2023-09-12_15h37.41.403
10,global,global,0,6,3,75,9,,,81,exp,LFUZNTEUNHFYHZE,ZLHUHSENFEFYNUZ,6,T,absent,tT,nN,t,1,0.3490959,n,1,0.219156,RSVPLG01,0.94,2023-09-12-22:25:03,913,1,Experiment,2023-09-12_15h37.41.403
7,global,local,0,6,4,76,6,,,82,exp,ULEHNYLYHZEFTUT,ZYHUSLETLUTZEYF,5,N,absent,nN,nN,n,1,0.447481,n,1,0.2399968,RSVPLG01,0.94,2023-09-12-22:25:03,913,1,Experiment,2023-09-12_15h37.41.403
4,local,global,0,6,5,77,3,,,83,exp,UTFEYEHTUHNLNSS,NSHTZEHLUTLFSFN,5,Z,absent,zZ,nN,z,1,0.6304769,y,0,0.7305089,RSVPLG01,0.94,2023-09-12-22:25:03,913,1,Experiment,2023-09-12_15h37.41.403
10,global,global,0,6,6,78,9,,,84,exp,NHFTFUHSENUZYSE,HHULYFSFNZEENYU,4,T,absent,tT,nN,t,1,0.3629566,y,0,0.2683301,RSVPLG01,0.94,2023-09-12-22:25:03,913,1,Experiment,2023-09-12_15h37.41.403
3,local,local,7,6,7,79,2,,,85,exp,ETLEHZFNSSUFZUL,EEZLYNLFUFSXZUN,5,Y,X,yY,yY,y,1,0.6313604,y,1,0.0103974,RSVPLG01,0.94,2023-09-12-22:25:03,913,1,Experiment,2023-09-12_15h37.41.403
5,local,global,3,6,8,80,4,,,86,exp,ZNSUYLETXFNFSZU,NENETHZFUYSYZTS,6,H,X,hH,yY,h,1,0.9078466,y,1,0.6030028,RSVPLG01,0.94,2023-09-12-22:25:03,913,1,Experiment,2023-09-12_15h37.41.403
2,local,local,3,6,9,81,1,,,87,exp,YFUHSZUZETTFENN,NEHULYYXTNHFEUT,5,L,X,lL,yY,z,0,0.9804626,n,0,0.2335452,RSVPLG01,0.94,2023-09-12-22:25:03,913,1,Experiment,2023-09-12_15h37.41.403
5,local,global,3,6,10,82,4,,,88,exp,ZTHYFUEXULYNZEN,EZNLSTLHUEYZHNT,5,S,X,sS,yY,s,1,0.8407311,y,1,0.2911843,RSVPLG01,0.94,2023-09-12-22:25:03,913,1,Experiment,2023-09-12_15h37.41.403
3,local,local,7,6,11,83,2,,,89,exp,UTFLEUZFSZTLYSY,LSULHZZFNTUXYNT,5,H,X,hH,yY,h,1,1.108532,y,1,0.0471949,RSVPLG01,0.94,2023-09-12-22:25:03,913,1,Experiment,2023-09-12_15h37.41.403
12,global,global,7,7,0,84,11,,,90,exp,EYFZHEHYLUXSSTU,UYENTETHUSLHLSF,4,Z,X,zZ,yY,z,1,0.9502162,y,1,0.5443787,RSVPLG01,0.94,2023-09-12-22:25:03,913,1,Experiment,2023-09-12_15h37.41.403
12,global,global,7,7,1,85,11,,,91,exp,ULHSFTENYUYSXLE,HSYUNZHSULEFFEL,6,T,X,tT,yY,t,1,1.096444,y,1,0.1400028,RSVPLG01,0.94,2023-09-12-22:25:03,913,1,Experiment,2023-09-12_15h37.41.403
8,global,local,3,7,2,86,7,,,92,exp,EYULFNZSNYTZUET,NZFHSFXYEZEUUTN,4,L,X,lL,yY,l,1,2.1309858,y,1,0.7382807,RSVPLG01,0.94,2023-09-12-22:25:03,913,1,Experiment,2023-09-12_15h37.41.403
10,global,global,0,7,3,87,9,,,93,exp,HUTEZLSHLSNZYYN,NTLFSTSUYHZZYUH,4,E,absent,eE,nN,h,0,0.9990582,y,0,0.2655924,RSVPLG01,0.94,2023-09-12-22:25:03,913,1,Experiment,2023-09-12_15h37.41.403
11,global,global,3,7,4,88,10,,,94,exp,ZUFLHSEXLTSTEZU,TZLUYLUFZTENSFS,5,H,X,hH,yY,h,1,0.9169733,y,1,0.1758293,RSVPLG01,0.94,2023-09-12-22:25:03,913,1,Experiment,2023-09-12_15h37.41.403
10,global,global,0,7,5,89,9,,,95,exp,HSTYSEZLNYFHZFL,FHHTSUNYSFLZYLN,6,E,absent,eE,nN,e,1,1.0677494,y,0,0.4250635,RSVPLG01,0.94,2023-09-12-22:25:03,913,1,Experiment,2023-09-12_15h37.41.403
7,global,local,0,7,6,90,6,,,96,exp,ULZLFESUTYHZETH,YSETNZSYLUZHLUE,5,F,absent,fF,nN,f,1,0.9279054,n,1,0.5454785,RSVPLG01,0.94,2023-09-12-22:25:03,913,1,Experiment,2023-09-12_15h37.41.403
6,local,global,7,7,7,91,5,,,97,exp,FSNELYSYNZXHUUZ,FSHTNLUSUHNZFYZ,4,T,X,tT,yY,t,1,0.8352881,y,1,0.0332296,RSVPLG01,0.94,2023-09-12-22:25:03,913,1,Experiment,2023-09-12_15h37.41.403
8,global,local,3,7,8,92,7,,,98,exp,SFZYEULNYZFSTNL,UUNTHFZXYLTZNSY,5,E,X,eE,yY,e,1,0.7755772,y,1,0.5445811,RSVPLG01,0.94,2023-09-12-22:25:03,913,1,Experiment,2023-09-12_15h37.41.403
4,local,global,0,7,9,93,3,,,99,exp,YFLUSTLHTEYNNES,NESZYFYENHTLLSH,4,Z,absent,zZ,nN,z,1,0.9624179,n,1,0.3776035,RSVPLG01,0.94,2023-09-12-22:25:03,913,1,Experiment,2023-09-12_15h37.41.403
8,global,local,3,7,10,94,7,,,100,exp,EYUTSLHLZNNSZYU,HYEFZUXNLEYLSUZ,4,T,X,tT,yY,t,1,0.9803728,y,1,0.2460842,RSVPLG01,0.94,2023-09-12-22:25:03,913,1,Experiment,2023-09-12_15h37.41.403
5,local,global,3,7,11,95,4,,,101,exp,LESUYNTXLZSUEZT,EHZNFNSLSHTELTZ,5,F,X,fF,yY,f,1,0.9425089,y,1,0.1539215,RSVPLG01,0.94,2023-09-12-22:25:03,913,1,Experiment,2023-09-12_15h37.41.403
7,global,local,0,8,0,96,6,,,102,exp,SEUFZYLZEHLNUSN,ULELNTEHSFUZFHZ,6,Y,absent,yY,nN,t,0,0.3792868,n,1,0.297245,RSVPLG01,0.94,2023-09-12-22:25:03,913,1,Experiment,2023-09-12_15h37.41.403
1,local,local,0,8,1,97,0,,,103,exp,FTLUHUEZENFNLZY,TYUYSFNTNLUEZZL,5,S,absent,sS,nN,s,1,0.520779,n,1,0.1013631,RSVPLG01,0.94,2023-09-12-22:25:03,913,1,Experiment,2023-09-12_15h37.41.403
2,local,local,3,8,2,98,1,,,104,exp,ETHUYLEHNZSUNST,ZYSETFUHXNHUEZT,6,F,X,fF,yY,f,1,0.3604054,y,1,0.8423315,RSVPLG01,0.94,2023-09-12-22:25:03,913,1,Experiment,2023-09-12_15h37.41.403
6,local,global,7,8,3,99,5,,,105,exp,NYHTZLFFYLXZEUN,FYUSYLNZUZLEENF,4,S,X,sS,yY,s,1,0.8981081,y,1,0.1816096,RSVPLG01,0.94,2023-09-12-22:25:03,913,1,Experiment,2023-09-12_15h37.41.403
7,global,local,0,8,4,100,6,,,106,exp,UYTFUNLYTSSHZHL,LFFTUESZZHYTUHL,6,N,absent,nN,nN,n,1,0.4707659,n,1,0.1727892,RSVPLG01,0.94,2023-09-12-22:25:03,913,1,Experiment,2023-09-12_15h37.41.403
5,local,global,3,8,5,101,4,,,107,exp,NHZNTLTUXZHFYYE,ZTZHNSTUYEUEYFN,6,S,X,sS,yY,s,1,0.500921,y,1,0.3221447,RSVPLG01,0.94,2023-09-12-22:25:03,913,1,Experiment,2023-09-12_15h37.41.403
2,local,local,3,8,6,102,1,,,108,exp,SNESFHTNEZFZLUT,SFUZUYSEXNNELLF,6,Y,X,yY,yY,y,1,0.9430089,y,1,0.3059841,RSVPLG01,0.94,2023-09-12-22:25:03,913,1,Experiment,2023-09-12_15h37.41.403
10,global,global,0,8,7,103,9,,,109,exp,FTTYNFZLSUNLZSE,FSFHZZTELENTLNU,4,Y,absent,yY,nN,y,1,0.7725439,n,1,0.5554709,RSVPLG01,0.94,2023-09-12-22:25:03,913,1,Experiment,2023-09-12_15h37.41.403
1,local,local,0,8,8,104,0,,,110,exp,ZSSYNUZFUETEYFT,EFZTHLFUSLYTZUY,5,H,absent,hH,nN,n,0,0.46784,y,0,0.5206588,RSVPLG01,0.94,2023-09-12-22:25:03,913,1,Experiment,2023-09-12_15h37.41.403
3,local,local,7,8,9,105,2,,,111,exp,LHLUTETFFYSSYZU,HSSUZNFUYTHLXYF,6,N,X,nN,yY,n,1,0.4014259,y,1,0.353545,RSVPLG01,0.94,2023-09-12-22:25:03,913,1,Experiment,2023-09-12_15h37.41.403
8,global,local,3,8,10,106,7,,,112,exp,HUZSZYTTUFNHFNE,FTYLETXZEUUHFNH,4,S,X,sS,yY,z,0,1.3198447,y,1,0.5848975,RSVPLG01,0.94,2023-09-12-22:25:03,913,1,Experiment,2023-09-12_15h37.41.403
5,local,global,3,8,11,107,4,,,113,exp,TYSSFHEXUNHYELL,TTUHZLENSNYSEUY,5,Z,X,zZ,yY,z,1,0.4588475,y,1,0.2829691,RSVPLG01,0.94,2023-09-12-22:25:03,913,1,Experiment,2023-09-12_15h37.41.403
9,global,local,7,9,0,108,8,,,114,exp,NUNSLFYZUSYLEEH,SNZELTEUSYNUXZY,6,F,X,fF,yY,e,0,0.5822173,n,0,0.2343912,RSVPLG01,0.94,2023-09-12-22:25:03,913,1,Experiment,2023-09-12_15h37.41.403
12,global,global,7,9,1,109,11,,,115,exp,ZESULHUHYNTXZEY,SZHUFTYSTZNEHUE,5,L,X,lL,yY,l,1,0.5745334,y,1,0.1618123,RSVPLG01,0.94,2023-09-12-22:25:03,913,1,Experiment,2023-09-12_15h37.41.403
2,local,local,3,9,2,110,1,,,116,exp,THUNTLSYUEEYHFN,SHFTNZNYXTSEUHE,6,Z,X,zZ,yY,n,0,0.4393338,y,1,0.2752945,RSVPLG01,0.94,2023-09-12-22:25:03,913,1,Experiment,2023-09-12_15h37.41.403
1,local,local,0,9,3,111,0,,,117,exp,ZYFFTUTNZESSHNY,YSEHFLTHNSNFZYE,6,L,absent,lL,nN,l,1,0.6456131,n,1,0.2537233,RSVPLG01,0.94,2023-09-12-22:25:03,913,1,Experiment,2023-09-12_15h37.41.403
2,local,local,3,9,4,112,1,,,118,exp,UHYLHSEYUTZTZEN,ZHEFEUXHSUNYSNT,4,F,X,fF,yY,f,1,0.4946842,y,1,0.3694724,RSVPLG01,0.94,2023-09-12-22:25:03,913,1,Experiment,2023-09-12_15h37.41.403
8,global,local,3,9,5,113,7,,,119,exp,FHTZUNNEELUFYYT,FEYSHTXULYNLUEN,4,Z,X,zZ,yY,z,1,0.440018,y,1,0.9957224,RSVPLG01,0.94,2023-09-12-22:25:03,913,1,Experiment,2023-09-12_15h37.41.403
3,local,local,7,9,6,114,2,,,120,exp,FZENYLTZFLUSSTN,SULZHESTFUFXZEN,5,H,X,hH,yY,h,1,0.450046,y,1,0.7536468,RSVPLG01,0.94,2023-09-12-22:25:03,913,1,Experiment,2023-09-12_15h37.41.403
4,local,global,0,9,7,115,3,,,121,exp,EHLNEFNYZZUSLHY,SEEUHTNLZZUYHSN,6,T,absent,tT,nN,n,0,1.0361117,y,0,0.1741954,RSVPLG01,0.94,2023-09-12-22:25:03,913,1,Experiment,2023-09-12_15h37.41.403
4,local,global,0,9,8,116,3,,,122,exp,HHLFYENETNLZSZT,SZSUTLHYNHEEYNL,4,U,absent,uU,nN,u,1,0.9730054,y,0,0.0493236,RSVPLG01,0.94,2023-09-12-22:25:03,913,1,Experiment,2023-09-12_15h37.41.403
4,local,global,0,9,9,117,3,,,123,exp,TTYESHHNZFEYUZF,EFTELYUZYHNTUZH,5,L,absent,lL,nN,l,1,0.9270465,y,0,0.3532552,RSVPLG01,0.94,2023-09-12-22:25:03,913,1,Experiment,2023-09-12_15h37.41.403
9,global,local,7,9,10,118,8,,,124,exp,YTHUYFFTHNZSEEN,ETYLFNSHTYXEFNH,4,U,X,uU,yY,u,1,0.9440415,y,1,0.7688127,RSVPLG01,0.94,2023-09-12-22:25:03,913,1,Experiment,2023-09-12_15h37.41.403
4,local,global,0,9,11,119,3,,,125,exp,NFZUULYYTESTEZN,UTSFTHYZFSEZNEU,6,H,absent,hH,nN,h,1,1.0100553,n,1,0.497727,RSVPLG01,0.94,2023-09-12-22:25:03,913,1,Experiment,2023-09-12_15h37.41.403
5,local,global,3,10,0,120,4,,,126,exp,TSNELTXSNULZHZF,HTZYFNLHSLUUSTF,4,Y,X,yY,yY,y,1,0.933066,y,1,0.0535136,RSVPLG01,0.94,2023-09-12-22:25:03,913,1,Experiment,2023-09-12_15h37.41.403
7,global,local,0,10,1,121,6,,,127,exp,ZUZLTHFFSTEUEYL,ZUULSNYLEFTSFTE,6,H,absent,hH,nN,h,1,0.9230116,n,1,0.0496733,RSVPLG01,0.94,2023-09-12-22:25:03,913,1,Experiment,2023-09-12_15h37.41.403
11,global,global,3,10,2,122,10,,,128,exp,FLLSHNXTTZHENYY,ZEFUNHYLEYNTTLH,4,S,X,sS,yY,s,1,1.1289752,n,0,0.3123768,RSVPLG01,0.94,2023-09-12-22:25:03,913,1,Experiment,2023-09-12_15h37.41.403
5,local,global,3,10,3,123,4,,,129,exp,SUEFHTFXLNSTLYU,FNETZTLNYYFUULE,5,Z,X,zZ,yY,z,1,0.4057443,y,1,0.3083874,RSVPLG01,0.94,2023-09-12-22:25:03,913,1,Experiment,2023-09-12_15h37.41.403
12,global,global,7,10,4,124,11,,,130,exp,YFTLYUZHNSXZNFU,ZUSEFNYHHNZTFYS,4,L,X,lL,yY,l,1,0.3845688,y,1,0.1442346,RSVPLG01,0.94,2023-09-12-22:25:03,913,1,Experiment,2023-09-12_15h37.41.403
7,global,local,0,10,5,125,6,,,131,exp,TENLFYLFZSEUZUN,SNTZZHTLEFUNFSL,6,Y,absent,yY,nN,y,1,0.7642349,n,1,0.2503101,RSVPLG01,0.94,2023-09-12-22:25:03,913,1,Experiment,2023-09-12_15h37.41.403
11,global,global,3,10,6,126,10,,,132,exp,UNYTZSLZXFELNUT,NTYZYHFUTFZLLNE,6,S,X,sS,yY,t,0,2.0568614,y,1,0.0188479,RSVPLG01,0.94,2023-09-12-22:25:03,913,1,Experiment,2023-09-12_15h37.41.403
9,global,local,7,10,7,127,8,,,133,exp,LFNHTYEFZUZEUHL,YLZFSEUELNFXNUH,5,T,X,tT,yY,t,1,0.4225779,n,0,0.2367465,RSVPLG01,0.94,2023-09-12-22:25:03,913,1,Experiment,2023-09-12_15h37.41.403
11,global,global,3,10,8,128,10,,,134,exp,TLHFEUFEXNSSLNY,HNSYFZYEHTSLFLN,6,U,X,uU,yY,u,1,0.457632,y,1,0.0342223,RSVPLG01,0.94,2023-09-12-22:25:03,913,1,Experiment,2023-09-12_15h37.41.403
5,local,global,3,10,9,129,4,,,135,exp,LLSUTZEXNZEHSYU,UNZUFZNHYLSESEY,5,F,X,fF,yY,f,1,0.9835816,y,1,0.1072012,RSVPLG01,0.94,2023-09-12-22:25:03,913,1,Experiment,2023-09-12_15h37.41.403
6,local,global,7,10,10,130,5,,,136,exp,ZNFSYTNSHHLXEFT,TNZEUFSZNHETFLS,5,U,X,uU,yY,u,1,0.8122244,y,1,0.1233325,RSVPLG01,0.94,2023-09-12-22:25:03,913,1,Experiment,2023-09-12_15h37.41.403
2,local,local,3,10,11,131,1,,,137,exp,UEEZNTHLLSFSNHU,FUUYTHXNHTNFLES,4,Y,X,yY,yY,z,0,2.0389277,y,1,0.6256377,RSVPLG01,0.94,2023-09-12-22:25:03,913,1,Experiment,2023-09-12_15h37.41.403
1,local,local,0,11,0,132,0,,,138,exp,LSNZHESYNZFHLUU,ZNLYLTUUFZYSHFN,6,T,absent,tT,nN,t,1,0.4328252,y,0,0.3067971,RSVPLG01,0.94,2023-09-12-22:25:03,913,1,Experiment,2023-09-12_15h37.41.403
9,global,local,7,11,1,133,8,,,139,exp,LUEZHFTYHUYENLN,ENLSFHTNYUXUTLH,4,Z,X,zZ,yY,z,1,0.3834507,y,1,0.2937709,RSVPLG01,0.94,2023-09-12-22:25:03,913,1,Experiment,2023-09-12_15h37.41.403
11,global,global,3,11,2,134,10,,,140,exp,SYZUTHXTNHFLNFS,THYEZLFYSZHTSNF,4,U,X,uU,yY,u,1,0.8136692,n,0,0.3065173,RSVPLG01,0.94,2023-09-12-22:25:03,913,1,Experiment,2023-09-12_15h37.41.403
7,global,local,0,11,3,135,6,,,141,exp,EHLNYFTHZNLZYEU,ZHYLNSLUNETEHUZ,6,F,absent,fF,nN,f,1,0.5595617,y,0,0.5934605,RSVPLG01,0.94,2023-09-12-22:25:03,913,1,Experiment,2023-09-12_15h37.41.403
5,local,global,3,11,4,136,4,,,142,exp,NHELEYFZXHSSTNL,EEHLSULNHFTSZZN,6,U,X,uU,yY,y,0,0.6920662,n,0,0.2096787,RSVPLG01,0.94,2023-09-12-22:25:03,913,1,Experiment,2023-09-12_15h37.41.403
2,local,local,3,11,5,137,1,,,143,exp,UZSHSNYZLELETYT,ZYHHLFTTXZYELSS,6,F,X,fF,yY,f,1,0.4729102,y,1,0.3066326,RSVPLG01,0.94,2023-09-12-22:25:03,913,1,Experiment,2023-09-12_15h37.41.403
7,global,local,0,11,6,138,6,,,144,exp,HUZLTYSLFZSHFTU,LNTHSEUNZFTLHZF,6,Y,absent,yY,nN,y,1,0.7929805,n,1,0.3221429,RSVPLG01,0.94,2023-09-12-22:25:03,913,1,Experiment,2023-09-12_15h37.41.403
4,local,global,0,11,7,139,3,,,145,exp,HESULYUZZSNHYNE,EZYSFSZUEHNNTUH,5,F,absent,fF,nN,l,0,0.4997961,y,0,0.2502195,RSVPLG01,0.94,2023-09-12-22:25:03,913,1,Experiment,2023-09-12_15h37.41.403
2,local,local,3,11,8,140,1,,,146,exp,TESSYZFNUEHYHUN,TSFYNLHEXEUFSTY,6,L,X,lL,yY,z,0,0.3489404,y,1,0.2176002,RSVPLG01,0.94,2023-09-12-22:25:03,913,1,Experiment,2023-09-12_15h37.41.403
8,global,local,3,11,9,141,7,,,147,exp,FHUSLUEYYNNHTSF,NUUSZETXYYHNFFT,5,L,X,lL,yY,l,1,0.4682666,n,0,0.2723518,RSVPLG01,0.94,2023-09-12-22:25:03,913,1,Experiment,2023-09-12_15h37.41.403
7,global,local,0,11,10,142,6,,,148,exp,TLNSUYTYFFUHHZL,UYHENNZTLFUYFLZ,4,S,absent,sS,nN,s,1,0.5205736,y,0,0.2177119,RSVPLG01,0.94,2023-09-12-22:25:03,913,1,Experiment,2023-09-12_15h37.41.403
8,global,local,3,11,11,143,7,,,149,exp,SLFTYZHEFYSHUEZ,FESNHUXSZYLEHUF,4,T,X,tT,yY,t,1,0.3626477,y,1,0.1518097,RSVPLG01,0.94,2023-09-12-22:25:03,913,1,Experiment,2023-09-12_15h37.41.403
6,local,global,7,12,0,144,5,,,150,exp,HUYYHLNTENSTXEZ,STUYHFZNHYSZUET,6,F,X,fF,yY,f,1,0.6396647,y,1,0.1943169,RSVPLG01,0.94,2023-09-12-22:25:03,913,1,Experiment,2023-09-12_15h37.41.403
7,global,local,0,12,1,145,6,,,151,exp,NHLLYZNHEZTUTFE,HUFTSFULNLTEZZH,5,Y,absent,yY,nN,y,1,0.6407016,n,1,0.1925477,RSVPLG01,0.94,2023-09-12-22:25:03,913,1,Experiment,2023-09-12_15h37.41.403
4,local,global,0,12,2,146,3,,,152,exp,UFSYEZHTUTZHSNF,ZTFLHNUFNEZSTUS,4,L,absent,lL,nN,t,0,0.5595695,n,1,0.4745291,RSVPLG01,0.94,2023-09-12-22:25:03,913,1,Experiment,2023-09-12_15h37.41.403
5,local,global,3,12,3,147,4,,,153,exp,TLSUFNXYTFLSEHH,EFTZHSFEYNHTYSL,4,Z,X,zZ,yY,n,0,0.5475283,n,0,0.2264857,RSVPLG01,0.94,2023-09-12-22:25:03,913,1,Experiment,2023-09-12_15h37.41.403
6,local,global,7,12,4,148,5,,,154,exp,LNTTSFLUYYHXEUH,YEYLZFTHUNUHFTE,5,Z,X,zZ,yY,z,1,0.4539459,y,1,0.2037511,RSVPLG01,0.94,2023-09-12-22:25:03,913,1,Experiment,2023-09-12_15h37.41.403
10,global,global,0,12,5,149,9,,,155,exp,ZTFNLHYHUFEUNET,EYUHSUFZFNNTZYH,5,L,absent,lL,nN,l,1,0.3788558,n,1,0.3611986,RSVPLG01,0.94,2023-09-12-22:25:03,913,1,Experiment,2023-09-12_15h37.41.403
12,global,global,7,12,6,150,11,,,156,exp,TUFSNUFLEEXLHYT,FLHZYETFYLUETUN,4,S,X,sS,yY,s,1,0.4322999,y,1,0.1620844,RSVPLG01,0.94,2023-09-12-22:25:03,913,1,Experiment,2023-09-12_15h37.41.403
6,local,global,7,12,7,151,5,,,157,exp,SYUUTYFSLLEXZFZ,SZLYHEFENFYSZUU,5,H,X,hH,yY,h,1,0.4491067,y,1,0.1935984,RSVPLG01,0.94,2023-09-12-22:25:03,913,1,Experiment,2023-09-12_15h37.41.403
3,local,local,7,12,8,152,2,,,158,exp,FULZNYYLSEEFHSZ,FHUZTEEZSULXLYY,5,T,X,tT,yY,n,0,2.238423,y,1,0.0816267,RSVPLG01,0.94,2023-09-12-22:25:03,913,1,Experiment,2023-09-12_15h37.41.403
2,local,local,3,12,9,153,1,,,159,exp,ETLYSLZNFESFNUU,TFEHNNXTLZEUSUF,4,H,X,hH,yY,h,1,0.8229275,y,1,0.2253723,RSVPLG01,0.94,2023-09-12-22:25:03,913,1,Experiment,2023-09-12_15h37.41.403
9,global,local,7,12,10,154,8,,,160,exp,HHSUNTSFNFYELET,HSNZFFLHTLXYENS,4,U,X,uU,yY,u,1,0.8376693,y,1,0.137514,RSVPLG01,0.94,2023-09-12-22:25:03,913,1,Experiment,2023-09-12_15h37.41.403
1,local,local,0,12,11,155,0,,,161,exp,NLZSUNEYSLEFZFH,NESLTFHYEZNHFZY,5,T,absent,tT,nN,t,1,0.427992,y,0,0.1433975,RSVPLG01,0.94,2023-09-12-22:25:03,913,1,Experiment,2023-09-12_15h37.41.403
8,global,local,3,13,0,156,7,,,162,exp,LHEULHEYSSZYNNF,LEETNYXLHYSZFFZ,4,U,X,uU,yY,u,1,0.4682596,n,0,0.2312409,RSVPLG01,0.94,2023-09-12-22:25:03,913,1,Experiment,2023-09-12_15h37.41.403
1,local,local,0,13,1,157,0,,,163,exp,ENYZNUTLLSEFFST,ELSHETYSLFNUNYU,4,H,absent,hH,nN,h,1,0.9952871,y,0,0.0572531,RSVPLG01,0.94,2023-09-12-22:25:03,913,1,Experiment,2023-09-12_15h37.41.403
3,local,local,7,13,2,158,2,,,164,exp,UNZNLEZSTTHHFSU,SNZHYESFEFZXTTH,5,Y,X,yY,yY,y,1,0.9084588,y,1,0.0652595,RSVPLG01,0.94,2023-09-12-22:25:03,913,1,Experiment,2023-09-12_15h37.41.403
10,global,global,0,13,3,159,9,,,165,exp,NZUFYHZHSLNTLSF,ZUTUEZLSNHLTHSN,5,Y,absent,yY,nN,y,1,0.5690192,n,1,0.1082152,RSVPLG01,0.94,2023-09-12-22:25:03,913,1,Experiment,2023-09-12_15h37.41.403
1,local,local,0,13,4,160,0,,,166,exp,FHNLZFHSELUNESY,HUHFTLSYSLENFEN,5,T,absent,tT,nN,t,1,0.3611463,y,0,0.2217289,RSVPLG01,0.94,2023-09-12-22:25:03,913,1,Experiment,2023-09-12_15h37.41.403
6,local,global,7,13,5,161,5,,,167,exp,FSUENLTTHHXZLSN,FSUYNZHTTSNLZHU,4,Y,X,yY,yY,y,1,0.8661281,y,1,0.083987,RSVPLG01,0.94,2023-09-12-22:25:03,913,1,Experiment,2023-09-12_15h37.41.403
6,local,global,7,13,6,162,5,,,168,exp,HYZTLYFUUZXEEFN,ZZNSEYULULHHYFN,4,S,X,sS,yY,s,1,0.7026229,y,1,0.1754031,RSVPLG01,0.94,2023-09-12-22:25:03,913,1,Experiment,2023-09-12_15h37.41.403
4,local,global,0,13,7,163,3,,,169,exp,TTULNEYESHUYZHS,NYEFSZUHNTYZTEH,4,F,absent,fF,nN,f,1,0.4377753,y,0,0.8153069,RSVPLG01,0.94,2023-09-12-22:25:03,913,1,Experiment,2023-09-12_15h37.41.403
1,local,local,0,13,8,164,0,,,170,exp,FUYZUNFTSZTELSE,SSEUTHFLTYLFYEZ,6,H,absent,hH,nN,h,1,1.2979551,n,1,0.118918,RSVPLG01,0.94,2023-09-12-22:25:03,913,1,Experiment,2023-09-12_15h37.41.403
9,global,local,7,13,9,165,8,,,171,exp,NTSYZLFHUSNYUFL,TYLTELFSUHYXUSN,5,Z,X,zZ,yY,z,1,0.354569,y,1,0.2506646,RSVPLG01,0.94,2023-09-12-22:25:03,913,1,Experiment,2023-09-12_15h37.41.403
8,global,local,3,13,10,166,7,,,172,exp,NNULHYEZUFZFSLH,FNNELTSSXEZUFHZ,6,Y,X,yY,yY,y,1,0.8160499,y,1,0.2078893,RSVPLG01,0.94,2023-09-12-22:25:03,913,1,Experiment,2023-09-12_15h37.41.403
5,local,global,3,13,11,167,4,,,173,exp,EZFTLHXEFLUSUHN,EULYZNUSFZHNLSE,4,Y,X,yY,yY,y,1,0.999407,y,1,0.3264451,RSVPLG01,0.94,2023-09-12-22:25:03,913,1,Experiment,2023-09-12_15h37.41.403
3,local,local,7,14,0,168,2,,,174,exp,UESHNYTFZUFHTSE,HUEHLFTTUYEXZSF,5,L,X,lL,yY,l,1,0.6030597,y,1,0.2701568,RSVPLG01,0.94,2023-09-12-22:25:03,913,1,Experiment,2023-09-12_15h37.41.403
6,local,global,7,14,1,169,5,,,175,exp,SFZHSTNYLELNXZF,NZEFEUNSHZYHFLS,6,U,X,uU,yY,u,1,0.9858859,y,1,0.3105462,RSVPLG01,0.94,2023-09-12-22:25:03,913,1,Experiment,2023-09-12_15h37.41.403
1,local,local,0,14,2,170,0,,,176,exp,LHSZETFNHNFSEUU,FFHYNUETLNTSHSL,4,Y,absent,yY,nN,y,1,0.5210024,n,1,0.6881234,RSVPLG01,0.94,2023-09-12-22:25:03,913,1,Experiment,2023-09-12_15h37.41.403
8,global,local,3,14,3,171,7,,,177,exp,ZYUNTSHEFUZFHYE,ZUFLTZXYSHTUESY,4,N,X,nN,yY,n,1,0.4441712,y,1,0.6981757,RSVPLG01,0.94,2023-09-12-22:25:03,913,1,Experiment,2023-09-12_15h37.41.403
6,local,global,7,14,4,172,5,,,178,exp,YFLEZSUSHYXNLFU,HZNTSSUHFZUYLYN,4,T,X,tT,yY,t,1,0.3200607,y,1,0.4501044,RSVPLG01,0.94,2023-09-12-22:25:03,913,1,Experiment,2023-09-12_15h37.41.403
11,global,global,3,14,5,173,10,,,179,exp,SUFLNZTXELEYTSZ,SZTFHSFEUZULLYY,5,N,X,nN,yY,n,1,0.6558029,y,1,0.6576068,RSVPLG01,0.94,2023-09-12-22:25:03,913,1,Experiment,2023-09-12_15h37.41.403
12,global,global,7,14,6,174,11,,,180,exp,THZUNYHSZFTXSYE,ZFTSLTEZUYSEHUY,5,N,X,nN,yY,n,1,0.5245755,y,1,0.6240001,RSVPLG01,0.94,2023-09-12-22:25:03,913,1,Experiment,2023-09-12_15h37.41.403
6,local,global,7,14,7,175,5,,,181,exp,HEZHTFNUZEYXFUY,HNFNSEUYULYLHZF,5,S,X,sS,yY,s,1,0.7609471,y,1,1.3144366,RSVPLG01,0.94,2023-09-12-22:25:03,913,1,Experiment,2023-09-12_15h37.41.403
3,local,local,7,14,8,176,2,,,182,exp,UNHZUSHLENFTETF,ENULFYTHFZHTXNE,6,Y,X,yY,yY,y,1,0.7322454,y,1,0.2116679,RSVPLG01,0.94,2023-09-12-22:25:03,913,1,Experiment,2023-09-12_15h37.41.403
6,local,global,7,14,9,177,5,,,183,exp,YYFHNZHELSZXUFE,EEFHTZYSUZLFHYS,5,T,X,tT,yY,n,0,1.1080246,y,1,0.8347049,RSVPLG01,0.94,2023-09-12-22:25:03,913,1,Experiment,2023-09-12_15h37.41.403
10,global,global,0,14,10,178,9,,,184,exp,UHEZSYZEFHUTFLT,SSFLZNLFHUTEUEZ,6,Y,absent,yY,nN,y,1,0.9298915,n,1,0.5699169,RSVPLG01,0.94,2023-09-12-22:25:03,913,1,Experiment,2023-09-12_15h37.41.403
2,local,local,3,14,11,179,1,,,185,exp,SYYLUTSZZHFFNHT,NSZTENTXHZHLLYY,5,E,X,eE,yY,e,1,0.406941,y,1,0.3698338,RSVPLG01,0.94,2023-09-12-22:25:03,913,1,Experiment,2023-09-12_15h37.41.403
8,global,local,3,15,0,180,7,,,186,exp,STEZTFYHNNHYFUS,EFELFNXYUHUYTHS,4,Z,X,zZ,yY,z,1,0.4041127,y,1,0.4340244,RSVPLG01,0.94,2023-09-12-22:25:03,913,1,Experiment,2023-09-12_15h37.41.403
12,global,global,7,15,1,181,11,,,187,exp,HTFHNYEFUULXSSY,HUFTZSSFUEHTELY,5,N,X,nN,yY,n,1,0.447243,y,1,0.1798237,RSVPLG01,0.94,2023-09-12-22:25:03,913,1,Experiment,2023-09-12_15h37.41.403
8,global,local,3,15,2,182,7,,,188,exp,HSUZLSFNUYYTNTH,TYFFEHZXNUNZUTY,5,L,X,lL,yY,l,1,0.4216292,y,1,0.3147704,RSVPLG01,0.94,2023-09-12-22:25:03,913,1,Experiment,2023-09-12_15h37.41.403
8,global,local,3,15,3,183,7,,,189,exp,UFYFEUSLHZLYZTH,FUSUNYTXHFZLTLZ,5,E,X,eE,yY,e,1,0.4348488,y,1,0.4169654,RSVPLG01,0.94,2023-09-12-22:25:03,913,1,Experiment,2023-09-12_15h37.41.403
7,global,local,0,15,4,184,6,,,190,exp,NZTFEULYFETHNYL,NFTNLSFELZHZHYY,6,U,absent,uU,nN,u,1,0.5982094,y,0,0.2025931,RSVPLG01,0.94,2023-09-12-22:25:03,913,1,Experiment,2023-09-12_15h37.41.403
10,global,global,0,15,5,185,9,,,191,exp,THYSZYFTSUNNFEE,NYSNLUFFUTTYHSH,5,Z,absent,zZ,nN,z,1,0.4765813,n,1,0.3377073,RSVPLG01,0.94,2023-09-12-22:25:03,913,1,Experiment,2023-09-12_15h37.41.403
5,local,global,3,15,6,186,4,,,192,exp,EHZNUNSXLLTSZFT,HLTEYFSTZEZFHLN,5,Y,X,yY,yY,y,1,0.7590822,n,0,0.3230621,RSVPLG01,0.94,2023-09-12-22:25:03,913,1,Experiment,2023-09-12_15h37.41.403
4,local,global,0,15,7,187,3,,,193,exp,LEZSTNSLYEHFFHZ,ZLEHUFYYNSSNHEZ,5,U,absent,uU,nN,u,1,0.6072951,n,1,0.24971,RSVPLG01,0.94,2023-09-12-22:25:03,913,1,Experiment,2023-09-12_15h37.41.403
10,global,global,0,15,8,188,9,,,194,exp,TSZFUYZSEETFLNU,ZNTLEHETZLSSUFF,6,Y,absent,yY,nN,y,1,0.4955019,n,1,0.3854437,RSVPLG01,0.94,2023-09-12-22:25:03,913,1,Experiment,2023-09-12_15h37.41.403
9,global,local,7,15,9,189,8,,,195,exp,EFLYZELNSTTSYUN,UYUEHYSFTEFXSTN,5,Z,X,zZ,yY,z,1,0.3757529,y,1,0.2286579,RSVPLG01,0.94,2023-09-12-22:25:03,913,1,Experiment,2023-09-12_15h37.41.403
12,global,global,7,15,10,190,11,,,196,exp,SLTHNFHEENSUXLY,NTSHYZUYLLETSEU,6,F,X,fF,yY,f,1,0.5165525,y,1,0.2275606,RSVPLG01,0.94,2023-09-12-22:25:03,913,1,Experiment,2023-09-12_15h37.41.403
8,global,local,3,15,11,191,7,,,197,exp,SYUZENHNHULSEFF,YFNTNEXYUULFSLH,4,Z,X,zZ,yY,z,1,0.3296244,y,1,0.2755756,RSVPLG01,0.94,2023-09-12-22:25:03,913,1,Experiment,2023-09-12_15h37.41.403
12,global,global,7,16,0,192,11,,,198,exp,HSFZEUSYNFXELUL,YULTLSFUFHHNEYS,4,Z,X,zZ,yY,z,1,0.3327018,y,1,0.2754146,RSVPLG01,0.94,2023-09-12-22:25:03,913,1,Experiment,2023-09-12_15h37.41.403
1,local,local,0,16,1,193,0,,,199,exp,ZHYYUFLHZLNSESE,ZULNETSSEHZUHYY,6,T,absent,tT,nN,f,0,0.6429316,n,1,0.3852417,RSVPLG01,0.94,2023-09-12-22:25:03,913,1,Experiment,2023-09-12_15h37.41.403
12,global,global,7,16,2,194,11,,,200,exp,NYFLESUFULTYXEN,ETYFUZTHENNYLHU,6,S,X,sS,yY,s,1,0.3812157,y,1,0.0990764,RSVPLG01,0.94,2023-09-12-22:25:03,913,1,Experiment,2023-09-12_15h37.41.403
6,local,global,7,16,3,195,5,,,201,exp,NUTLNYFTSLZSXUH,STHFUEZLFLNTUHN,6,E,X,eE,yY,e,1,0.3850716,y,1,0.2608672,RSVPLG01,0.94,2023-09-12-22:25:03,913,1,Experiment,2023-09-12_15h37.41.403
2,local,local,3,16,4,196,1,,,202,exp,YZZNSFYTHEHETFS,HEHUEZXTYLFYSTF,4,U,X,uU,yY,u,1,0.3908561,y,1,0.3307955,RSVPLG01,0.94,2023-09-12-22:25:03,913,1,Experiment,2023-09-12_15h37.41.403
12,global,global,7,16,5,197,11,,,203,exp,ZSYLNFTHSZYXHFT,SUYZETFSTLHFLYU,5,N,X,nN,yY,n,1,0.9176049,y,1,0.3077328,RSVPLG01,0.94,2023-09-12-22:25:03,913,1,Experiment,2023-09-12_15h37.41.403
1,local,local,0,16,6,198,0,,,204,exp,FEEFLSHUTYZUTZY,ZTTSNYZYEFHEHSU,5,N,absent,nN,nN,l,0,0.4999673,y,0,0.0965941,RSVPLG01,0.94,2023-09-12-22:25:03,913,1,Experiment,2023-09-12_15h37.41.403
10,global,global,0,16,7,199,9,,,205,exp,HFTESZUNUFTNSEH,HNYFTLEYFSEUSNT,6,Z,absent,zZ,nN,z,1,0.3995969,n,1,0.7375569,RSVPLG01,0.94,2023-09-12-22:25:03,913,1,Experiment,2023-09-12_15h37.41.403
2,local,local,3,16,8,200,1,,,206,exp,ZLLYZUTHSSTUEHE,ZUTFTNXUHESHLZS,4,F,X,fF,yY,t,0,1.3661366,n,0,0.3701933,RSVPLG01,0.94,2023-09-12-22:25:03,913,1,Experiment,2023-09-12_15h37.41.403
12,global,global,7,16,9,201,11,,,207,exp,HTENLYUFSNHXFYU,NUENZETUTYSHYFH,5,L,X,lL,yY,l,1,0.5884424,y,1,0.202802,RSVPLG01,0.94,2023-09-12-22:25:03,913,1,Experiment,2023-09-12_15h37.41.403
1,local,local,0,16,10,202,0,,,208,exp,FZHEUUYTYTNFHNS,HFTLUSYTNUYZHZS,4,L,absent,lL,nN,l,1,0.4826024,y,0,0.2428846,RSVPLG01,0.94,2023-09-12-22:25:03,913,1,Experiment,2023-09-12_15h37.41.403
4,local,global,0,16,11,203,3,,,209,exp,SFLTUYHHYFEZSZU,FYSNZHSLLFUEHUZ,4,N,absent,nN,nN,s,0,0.3775948,y,0,0.1780437,RSVPLG01,0.94,2023-09-12-22:25:03,913,1,Experiment,2023-09-12_15h37.41.403
12,global,global,7,17,0,204,11,,,210,exp,HZFLHEZUNTXUESS,UTZYSESZTNEFFHN,4,L,X,lL,yY,l,1,0.4659407,y,1,0.6008816,RSVPLG01,0.94,2023-09-12-22:25:03,913,1,Experiment,2023-09-12_15h37.41.403
9,global,local,7,17,1,205,8,,,211,exp,FNUSYZFULLEYNHE,FYUTNELZFHXZULH,4,S,X,sS,yY,y,0,0.7433265,y,1,0.0743785,RSVPLG01,0.94,2023-09-12-22:25:03,913,1,Experiment,2023-09-12_15h37.41.403
5,local,global,3,17,2,206,4,,,212,exp,ZSULEUFXTLYNFZS,UZTYHLSFNFUYLNZ,5,H,X,hH,yY,h,1,0.8910728,n,0,0.2494867,RSVPLG01,0.94,2023-09-12-22:25:03,913,1,Experiment,2023-09-12_15h37.41.403
11,global,global,3,17,3,207,10,,,213,exp,FLYZEUXSTEHFSTY,SFLNSUHHFTLUYEY,4,Z,X,zZ,yY,z,1,0.4166914,y,1,0.6362758,RSVPLG01,0.94,2023-09-12-22:25:03,913,1,Experiment,2023-09-12_15h37.41.403
6,local,global,7,17,4,208,5,,,214,exp,YELHZSFSENXNFLT,NFSULZTZETYNSFE,4,U,X,uU,yY,u,1,0.81653,y,1,0.2533211,RSVPLG01,0.94,2023-09-12-22:25:03,913,1,Experiment,2023-09-12_15h37.41.403
1,local,local,0,17,5,209,0,,,215,exp,YLUZUHSFTLFTYSH,TFLEUNUYNHYHLSF,4,E,absent,eE,nN,e,1,0.4035078,y,0,0.2752879,RSVPLG01,0.94,2023-09-12-22:25:03,913,1,Experiment,2023-09-12_15h37.41.403
7,global,local,0,17,6,210,6,,,216,exp,HNSFTUUEZSLELNH,UELFYZNHSZLFNEU,5,T,absent,tT,nN,t,1,0.3372536,n,1,0.1651585,RSVPLG01,0.94,2023-09-12-22:25:03,913,1,Experiment,2023-09-12_15h37.41.403
7,global,local,0,17,7,211,6,,,217,exp,TZZFLYUNHUTLEHF,ULTLZSNFEHZUNTH,6,Y,absent,yY,nN,y,1,0.7687004,n,1,0.4378859,RSVPLG01,0.94,2023-09-12-22:25:03,913,1,Experiment,2023-09-12_15h37.41.403
11,global,global,3,17,8,212,10,,,218,exp,FLUHESLXFZZSUTN,NLTZYZSHUSHFFTL,5,E,X,eE,yY,e,1,0.3129092,y,1,0.200841,RSVPLG01,0.94,2023-09-12-22:25:03,913,1,Experiment,2023-09-12_15h37.41.403
2,local,local,3,17,9,213,1,,,219,exp,UZFLHZFYELSUSYN,LSFLTFSXENZZUNE,5,T,X,tT,yY,t,1,0.3320972,y,1,0.0607869,RSVPLG01,0.94,2023-09-12-22:25:03,913,1,Experiment,2023-09-12_15h37.41.403
8,global,local,3,17,10,214,7,,,220,exp,HSUHZEUFNFTSNZT,FZLNHYTSXLZFSUN,6,E,X,eE,yY,h,0,0.5087578,y,1,0.2997636,RSVPLG01,0.94,2023-09-12-22:25:03,913,1,Experiment,2023-09-12_15h37.41.403
2,local,local,3,17,11,215,1,,,221,exp,FYNLSETUHUYENST,EUTZHYXSYSUHEFF,4,Z,X,zZ,yY,l,0,0.399192,n,0,0.2492748,RSVPLG01,0.94,2023-09-12-22:25:03,913,1,Experiment,2023-09-12_15h37.41.403
3,local,local,7,18,0,216,2,,,222,exp,SYFZNNEYSUUHLLH,SEUTHFFYSEXLUYN,4,T,X,tT,yY,t,1,0.7584454,y,1,0.0421988,RSVPLG01,0.94,2023-09-12-22:25:03,913,1,Experiment,2023-09-12_15h37.41.403
12,global,global,7,18,1,217,11,,,223,exp,ZHFSTESUEHYXNUF,SSENLZFYEHFHUNZ,5,T,X,tT,yY,t,1,0.3142552,y,1,0.2724502,RSVPLG01,0.94,2023-09-12-22:25:03,913,1,Experiment,2023-09-12_15h37.41.403
11,global,global,3,18,2,218,10,,,224,exp,NYLFHYXTNUSUSET,STEZHUSNENULHYY,4,F,X,fF,yY,h,0,0.4527789,n,0,0.2572416,RSVPLG01,0.94,2023-09-12-22:25:03,913,1,Experiment,2023-09-12_15h37.41.403
4,local,global,0,18,3,219,3,,,225,exp,HEFYLFYUZUNZSHE,YEEUTUZHSNFFZHY,5,T,absent,tT,nN,t,1,0.5825744,n,1,0.3229367,RSVPLG01,0.94,2023-09-12-22:25:03,913,1,Experiment,2023-09-12_15h37.41.403
2,local,local,3,18,4,220,1,,,226,exp,ENFESTHZHLYLYTN,ENHTULYXTZFFZYL,5,U,X,uU,yY,u,1,0.786447,y,1,0.6419426,RSVPLG01,0.94,2023-09-12-22:25:03,913,1,Experiment,2023-09-12_15h37.41.403
12,global,global,7,18,5,221,11,,,227,exp,SYSLFEYUUFZTXTZ,YZTTFHLNZYUNUFL,6,E,X,eE,yY,e,1,0.5143066,y,1,0.241833,RSVPLG01,0.94,2023-09-12-22:25:03,913,1,Experiment,2023-09-12_15h37.41.403
6,local,global,7,18,6,222,5,,,228,exp,LUSYEUZFYFSXTTH,HUTYNFYLZSLFSTH,5,N,X,nN,yY,e,0,0.3657679,y,1,0.3540801,RSVPLG01,0.94,2023-09-12-22:25:03,913,1,Experiment,2023-09-12_15h37.41.403
1,local,local,0,18,7,223,0,,,229,exp,YNNHETZLSYFZTFS,EELUSFYZFZLYTSN,4,U,absent,uU,nN,u,1,0.725826,n,1,0.2189186,RSVPLG01,0.94,2023-09-12-22:25:03,913,1,Experiment,2023-09-12_15h37.41.403
10,global,global,0,18,8,224,9,,,230,exp,YNHHEUTNZZSSTEF,HFYSYLTNNZSFHZE,6,U,absent,uU,nN,u,1,0.4948134,n,1,0.2894035,RSVPLG01,0.94,2023-09-12-22:25:03,913,1,Experiment,2023-09-12_15h37.41.403
11,global,global,3,18,9,225,10,,,231,exp,SUSTEZNHXHEFYNT,SEEFYLHHTUUNYFN,6,Z,X,zZ,yY,z,1,0.4285367,y,1,0.3894569,RSVPLG01,0.94,2023-09-12-22:25:03,913,1,Experiment,2023-09-12_15h37.41.403
12,global,global,7,18,10,226,11,,,232,exp,HZTNEFYTYSXEUZF,EHHLTFUFYZTZESY,4,N,X,nN,yY,n,1,0.8031811,y,1,0.2855904,RSVPLG01,0.94,2023-09-12-22:25:03,913,1,Experiment,2023-09-12_15h37.41.403
9,global,local,7,18,11,227,8,,,233,exp,LTZFNUYLZHSHNYT,YNSEUSLTHTXZHYL,4,F,X,fF,yY,f,1,0.4087787,y,1,0.2430846,RSVPLG01,0.94,2023-09-12-22:25:03,913,1,Experiment,2023-09-12_15h37.41.403
5,local,global,3,19,0,228,4,,,234,exp,STFFSNTYXZYLHUU,HYZFTEFYSLLHUUT,6,E,X,eE,yY,e,1,0.3769512,y,1,0.3130288,RSVPLG01,0.94,2023-09-12-22:25:03,913,1,Experiment,2023-09-12_15h37.41.403
5,local,global,3,19,1,229,4,,,235,exp,SELFNUXTNSHELYT,ULEZHELNNHSTYUY,4,Z,X,zZ,yY,z,1,0.5120403,n,0,0.4074845,RSVPLG01,0.94,2023-09-12-22:25:03,913,1,Experiment,2023-09-12_15h37.41.403
8,global,local,3,19,2,230,7,,,236,exp,SLLESFZUZUHNHYF,FSUTHYXZLLNFNZU,4,E,X,eE,yY,e,1,0.5271787,y,1,0.2982443,RSVPLG01,0.94,2023-09-12-22:25:03,913,1,Experiment,2023-09-12_15h37.41.403
9,global,local,7,19,3,231,8,,,237,exp,LHFYFUESLSTZEZH,FZENLLUZTUXFEHS,4,Y,X,yY,yY,y,1,0.4354768,y,1,0.1050111,RSVPLG01,0.94,2023-09-12-22:25:03,913,1,Experiment,2023-09-12_15h37.41.403
9,global,local,7,19,4,232,8,,,238,exp,ZLUHNSEEFFTHZUS,SEEHYTUHZLTXZSL,5,N,X,nN,yY,n,1,0.677922,y,1,0.1825083,RSVPLG01,0.94,2023-09-12-22:25:03,913,1,Experiment,2023-09-12_15h37.41.403
11,global,global,3,19,5,233,10,,,239,exp,TSTHZUNFXNZHLLY,FTLNSEYLZHYFZST,6,U,X,uU,yY,u,1,0.7733023,y,1,0.1304578,RSVPLG01,0.94,2023-09-12-22:25:03,913,1,Experiment,2023-09-12_15h37.41.403
2,local,local,3,19,6,234,1,,,240,exp,NSZYYTNFEEFUSUH,YUSZFLYHXSEUFNN,6,L,X,lL,yY,l,1,0.4614116,y,1,0.6822981,RSVPLG01,0.94,2023-09-12-22:25:03,913,1,Experiment,2023-09-12_15h37.41.403
3,local,local,7,19,7,235,2,,,241,exp,YEUHUZLTNFTHFNL,HYFFTSELTELUXNU,6,S,X,sS,yY,s,1,0.3723224,y,1,0.2450487,RSVPLG01,0.94,2023-09-12-22:25:03,913,1,Experiment,2023-09-12_15h37.41.403
6,local,global,7,19,8,236,5,,,242,exp,YLYTNSEZFULTXUF,LFNYUHFLNUEZEZT,6,H,X,hH,yY,h,1,0.4630903,y,1,0.3656132,RSVPLG01,0.94,2023-09-12-22:25:03,913,1,Experiment,2023-09-12_15h37.41.403
11,global,global,3,19,9,237,10,,,243,exp,NTEFYUTFXSHYHLL,EYLTEZYFSFNNLTH,6,U,X,uU,yY,u,1,0.7051547,y,1,0.362517,RSVPLG01,0.94,2023-09-12-22:25:03,913,1,Experiment,2023-09-12_15h37.41.403
1,local,local,0,19,10,238,0,,,244,exp,FYTYHZZTLUSSNNF,TTZNELSFSYUUZNF,5,E,absent,eE,nN,e,1,0.5252645,n,1,0.3633311,RSVPLG01,0.94,2023-09-12-22:25:03,913,1,Experiment,2023-09-12_15h37.41.403
11,global,global,3,19,11,239,10,,,245,exp,FFSTEZYXZUHHTSY,YFLSNYZSFLZUUHT,5,E,X,eE,yY,e,1,0.3864085,y,1,0.4680763,RSVPLG01,0.94,2023-09-12-22:25:03,913,1,Experiment,2023-09-12_15h37.41.403