row,t1_level,t2_level,t2_lag,.thisRepN,.thisTrialN,.thisN,.thisIndex,trial,trial_type,global_letters,local_letters,t1_pos,t1,t2,t1_corr,t2_corr,t1_resp,t1_acc,t1_rt,t2_resp,t2_acc,t2_rt,exp,ver,mod-utc,sub,sess,blocktyp,datetime,
2,local,local,3,0,0,0,1,1,warmup,ELNFZELHTUTYYNU,TLUESNNXEYHFTFY,5,S,X,sS,yY,z,0,1.0249743999447674,n,0,0.17472220002673566,RSVPLG01,0.94,2023-09-12-22:34:49,918,1,Experiment,2023-09-12_16h16.04.143,
3,local,local,7,0,1,1,2,2,warmup,ZSYENTUZTULLYFF,LYLHFUNSFZXYTTZ,4,H,X,hH,yY,h,1,0.9254598999395967,n,0,0.7847086999099702,RSVPLG01,0.94,2023-09-12-22:34:49,918,1,Experiment,2023-09-12_16h16.04.143,
4,local,global,0,0,2,2,3,3,warmup,FLNTSZLSUYEZFNY,SFYHULEFZYEZNNS,4,H,absent,hH,nN,t,0,1.0026197000406682,n,1,0.019516400061547756,RSVPLG01,0.94,2023-09-12-22:34:49,918,1,Experiment,2023-09-12_16h16.04.143,
5,local,global,3,0,3,3,4,4,warmup,UUYZTFTLXHLSZNH,HYNLTEZTUZLSNHS,6,E,X,eE,yY,f,0,0.850780799984932,n,0,0.07063720002770424,RSVPLG01,0.94,2023-09-12-22:34:49,918,1,Experiment,2023-09-12_16h16.04.143,
6,local,global,7,0,4,4,5,5,warmup,FFSYYLENHNETXTU,YETEHZUSFYNUHNT,6,Z,X,zZ,yY,l,0,0.9877927999477834,y,1,0.19742299988865852,RSVPLG01,0.94,2023-09-12-22:34:49,918,1,Experiment,2023-09-12_16h16.04.143,
9,global,local,7,0,0,0,8,6,exp,HTFUENZEYNFTSSY,NFELFETZSTXZYSH,4,U,X,uU,yY,u,1,0.5873769999016076,y,1,0.1156415999867022,RSVPLG01,0.94,2023-09-12-22:34:49,918,1,Experiment,2023-09-12_16h16.04.143,
3,local,local,7,0,1,1,2,7,exp,TLYHSFEUYEHTLUF,HHEUNELTFTYXUYF,5,N,X,nN,yY,s,0,1.0176346998196095,n,0,0.1401170000899583,RSVPLG01,0.94,2023-09-12-22:34:49,918,1,Experiment,2023-09-12_16h16.04.143,
9,global,local,7,0,2,2,8,8,exp,YELSLZENFHNFYSU,UEESHTLFYHNFXUY,6,Z,X,zZ,yY,z,1,0.8244219000916928,n,0,0.22676460002548993,RSVPLG01,0.94,2023-09-12-22:34:49,918,1,Experiment,2023-09-12_16h16.04.143,
2,local,local,3,0,3,3,1,9,exp,FTHYEZNNYULLTUF,ZLFUSTTXLZYUYHF,5,S,X,sS,yY,z,0,1.199892100179568,n,0,0.1371172999497503,RSVPLG01,0.94,2023-09-12-22:34:49,918,1,Experiment,2023-09-12_16h16.04.143,
3,local,local,7,0,4,4,2,10,exp,SHYLENZFHYTTESZ,YFZUNEYHNEXFTZS,4,U,X,uU,yY,l,0,1.1721816998906434,n,0,0.18381060007959604,RSVPLG01,0.94,2023-09-12-22:34:49,918,1,Experiment,2023-09-12_16h16.04.143,
3,local,local,7,0,5,5,2,11,exp,HUELHETSTYNSUYF,YUHZTNTSYFXHUNF,4,Z,X,zZ,yY,l,0,0.9081601998768747,y,1,0.17700359993614256,RSVPLG01,0.94,2023-09-12-22:34:49,918,1,Experiment,2023-09-12_16h16.04.143,
11,global,global,3,0,6,6,10,12,exp,TNYUZESXUHLHELY,LEEYFYULUHSNTSH,5,Z,X,zZ,yY,z,1,0.9551932001486421,n,0,0.11973910010419786,RSVPLG01,0.94,2023-09-12-22:34:49,918,1,Experiment,2023-09-12_16h16.04.143,
6,local,global,7,0,7,7,5,13,exp,ZHFYZNNFULXSLTS,HLSENUSNUTHFFTL,4,E,X,eE,yY,y,0,0.8240237000863999,y,1,0.10604080022312701,RSVPLG01,0.94,2023-09-12-22:34:49,918,1,Experiment,2023-09-12_16h16.04.143,
5,local,global,3,0,8,8,4,14,exp,YTLSZFSXLYHHUEF,FLLTNYHTYSUSHUE,5,N,X,nN,yY,z,0,1.165334700141102,y,1,0.11351169995032251,RSVPLG01,0.94,2023-09-12-22:34:49,918,1,Experiment,2023-09-12_16h16.04.143,
10,global,global,0,0,9,9,9,15,exp,SFLHEFNLYZYTTZN,LHFYUTSLZNNHTFS,5,E,absent,eE,nN,e,1,1.0770352999679744,y,0,0.2291298999916762,RSVPLG01,0.94,2023-09-12-22:34:49,918,1,Experiment,2023-09-12_16h16.04.143,
3,local,local,7,0,10,10,2,16,exp,FUTYULESSYTFNZE,FNTEYHFUZNUSXSZ,6,H,X,hH,yY,l,0,0.8381721000187099,y,1,0.19781269994564354,RSVPLG01,0.94,2023-09-12-22:34:49,918,1,Experiment,2023-09-12_16h16.04.143,
8,global,local,3,0,11,11,7,17,exp,SNSHNTFUFZYZEYT,YZYLNTXNEUZFEUS,4,H,X,hH,yY,n,0,1.0710925001185387,y,1,0.681483100168407,RSVPLG01,0.94,2023-09-12-22:34:49,918,1,Experiment,2023-09-12_16h16.04.143,
6,local,global,7,1,0,12,5,18,exp,UHEYLTUHZSXTZES,TELNUSHZSFEZFUT,4,N,X,nN,yY,y,0,0.8529087000060827,y,1,0.0032685999758541584,RSVPLG01,0.94,2023-09-12-22:34:49,918,1,Experiment,2023-09-12_16h16.04.143,
10,global,global,0,1,1,13,9,19,exp,TTZNLHSEZLEFHUF,HTUYUEFHZSLESTF,4,N,absent,nN,nN,z,0,1.840652900049463,y,0,0.058730100048705935,RSVPLG01,0.94,2023-09-12-22:34:49,918,1,Experiment,2023-09-12_16h16.04.143,
4,local,global,0,1,2,14,3,20,exp,ENFZHUNSFZTEHYS,FETSELHFHYZNTSN,6,L,absent,lL,nN,u,0,0.32935859984718263,y,0,0.22683090018108487,RSVPLG01,0.94,2023-09-12-22:34:49,918,1,Experiment,2023-09-12_16h16.04.143,
5,local,global,3,1,3,15,4,21,exp,EYZFTLFXULSZUHH,FLYYNFSEHUEZHZS,5,N,X,nN,yY,t,0,0.7775107999332249,y,1,0.9035508001688868,RSVPLG01,0.94,2023-09-12-22:34:49,918,1,Experiment,2023-09-12_16h16.04.143,
3,local,local,7,1,4,16,2,22,exp,HYNSTYNLEEFLTUU,LYLZHFNUNTXHEFE,4,Z,X,zZ,yY,s,0,0.5900852999184281,y,1,0.19507119990885258,RSVPLG01,0.94,2023-09-12-22:34:49,918,1,Experiment,2023-09-12_16h16.04.143,
9,global,local,7,1,5,17,8,23,exp,UTESNHTEFLLSFUZ,ETTELYSFFLSUXZZ,6,H,X,hH,yY,h,1,0.9152283000294119,y,1,0.00831749988719821,RSVPLG01,0.94,2023-09-12-22:34:49,918,1,Experiment,2023-09-12_16h16.04.143,
11,global,global,3,1,6,18,10,24,exp,SFYLSEXUZEYFHZH,EZFTHSZUYUYHNNF,4,L,X,lL,yY,l,1,1.0937123999465257,y,1,0.13086949987336993,RSVPLG01,0.94,2023-09-12-22:34:49,918,1,Experiment,2023-09-12_16h16.04.143,
7,global,local,0,1,7,19,6,25,exp,SYZUHTNEYLENSUL,UTSSFYZUZENETLL,5,H,absent,hH,nN,h,1,1.2513342001475394,n,1,0.2418112000450492,RSVPLG01,0.94,2023-09-12-22:34:49,918,1,Experiment,2023-09-12_16h16.04.143,
1,local,local,0,1,8,20,0,26,exp,NSETTYEZHLNZUHU,ZLHENFTHLSNSTZU,6,F,absent,fF,nN,y,0,0.7559915999881923,n,1,0.09036549995653331,RSVPLG01,0.94,2023-09-12-22:34:49,918,1,Experiment,2023-09-12_16h16.04.143,
7,global,local,0,1,9,21,6,27,exp,SLYSTFTLNEUEHYH,NSLYHZSNHTTULYE,6,F,absent,fF,nN,f,1,1.6349755998235196,n,1,0.5495970998890698,RSVPLG01,0.94,2023-09-12-22:34:49,918,1,Experiment,2023-09-12_16h16.04.143,
12,global,global,7,1,10,22,11,28,exp,YENUSNEZYSXLZFT,SLLHYNZYNZFEFTS,4,U,X,uU,yY,u,1,0.462798000080511,y,1,0.009235000004991889,RSVPLG01,0.94,2023-09-12-22:34:49,918,1,Experiment,2023-09-12_16h16.04.143,
2,local,local,3,1,11,23,1,29,exp,TZESYNHUYFNEUFT,FUELZFXHYTHUNEZ,4,L,X,lL,yY,z,0,3.0034904000349343,y,1,0.2657457999885082,RSVPLG01,0.94,2023-09-12-22:34:49,918,1,Experiment,2023-09-12_16h16.04.143,
9,global,local,7,2,0,24,8,30,exp,ZSTNEULYEYFFLUT,TULHSLSYEFXZETZ,4,N,X,nN,yY,n,1,0.6471186000853777,y,1,0.6141095000784844,RSVPLG01,0.94,2023-09-12-22:34:49,918,1,Experiment,2023-09-12_16h16.04.143,
11,global,global,3,2,1,25,10,31,exp,ENLNLZYFXYSFSUT,UFSFEHSYTETLYNU,6,Z,X,zZ,yY,z,1,1.181869699852541,y,1,0.23623339994810522,RSVPLG01,0.94,2023-09-12-22:34:49,918,1,Experiment,2023-09-12_16h16.04.143,
1,local,local,0,2,2,26,0,32,exp,ZZLTSYNLTUFFHUN,USHTFENZUNZLHLS,6,E,absent,eE,nN,y,0,1.0768538999836892,n,1,0.14672890002839267,RSVPLG01,0.94,2023-09-12-22:34:49,918,1,Experiment,2023-09-12_16h16.04.143,
11,global,global,3,2,3,27,10,33,exp,HYZSLNXYHLFUUEE,HELTFZNYEHZFUYN,4,S,X,sS,yY,z,0,9.525313600199297,y,1,0.6018111000303179,RSVPLG01,0.94,2023-09-12-22:34:49,918,1,Experiment,2023-09-12_16h16.04.143,
5,local,global,3,2,4,28,4,34,exp,LETNYFSXEHFHUNL,FSUNZUTSTFELEHN,5,Z,X,zZ,yY,y,0,0.9536828999407589,y,1,0.03403109987266362,RSVPLG01,0.94,2023-09-12-22:34:49,918,1,Experiment,2023-09-12_16h16.04.143,
11,global,global,3,2,5,29,10,35,exp,TNHLYFUXZUSHLFS,TSFFENHTLUHZZLS,5,Y,X,yY,yY,y,1,0.8646925000939518,n,0,0.21230709995143116,RSVPLG01,0.94,2023-09-12-22:34:49,918,1,Experiment,2023-09-12_16h16.04.143,
11,global,global,3,2,6,30,10,36,exp,YNHULTXENYFHFLS,LYNZSSYETEFLTHH,4,U,X,uU,yY,u,1,0.8112075000535697,n,0,0.13756430009379983,RSVPLG01,0.94,2023-09-12-22:34:49,918,1,Experiment,2023-09-12_16h16.04.143,
10,global,global,0,2,7,31,9,37,exp,HNLYSETSLEFZHNZ,NESUFZLTNHZLEHS,4,Y,absent,yY,nN,y,1,0.961751600028947,n,1,0.08404099987819791,RSVPLG01,0.94,2023-09-12-22:34:49,918,1,Experiment,2023-09-12_16h16.04.143,
4,local,global,0,2,8,32,3,38,exp,LUFZUYSNSHENHLF,UFNLHTZUSSZHELN,6,T,absent,tT,nN,n,0,0.4076920000370592,n,1,2.88894800003618,RSVPLG01,0.94,2023-09-12-22:34:49,918,1,Experiment,2023-09-12_16h16.04.143,
7,global,local,0,2,9,33,6,39,exp,EZESUFTUYLTHHFY,EUYNUHTFZELFYLZ,4,S,absent,sS,nN,s,1,2.360029299976304,y,0,0.9941854001954198,RSVPLG01,0.94,2023-09-12-22:34:49,918,1,Experiment,2023-09-12_16h16.04.143,
9,global,local,7,2,10,34,8,40,exp,NNTZSSEYUHFTUHF,NHFLTHUNYSXUESY,4,Z,X,zZ,yY,z,1,1.2286654999479651,y,1,0.2427227001171559,RSVPLG01,0.94,2023-09-12-22:34:49,918,1,Experiment,2023-09-12_16h16.04.143,
7,global,local,0,2,11,35,6,41,exp,EHFLSNFTHZTUEUZ,HFZYSEFUTUTESZN,4,L,absent,lL,nN,l,1,1.154304400086403,y,0,0.20603670016862452,RSVPLG01,0.94,2023-09-12-22:34:49,918,1,Experiment,2023-09-12_16h16.04.143,
8,global,local,3,3,0,36,7,42,exp,ZYZSUFNUFEYEHLL,YZLTNEXHHEULUFY,4,S,X,sS,yY,s,1,1.1026236999314278,n,0,0.3408864000812173,RSVPLG01,0.94,2023-09-12-22:34:49,918,1,Experiment,2023-09-12_16h16.04.143,
8,global,local,3,3,1,37,7,43,exp,NZZHHLSTSENUTUF,EFSFEYTSXZUNHTN,6,L,X,lL,yY,l,1,0.7682954999618232,y,1,0.2035213999915868,RSVPLG01,0.94,2023-09-12-22:34:49,918,1,Experiment,2023-09-12_16h16.04.143,
7,global,local,0,3,2,38,6,44,exp,YNUENTSLHTHUZZL,THLFUZYTYZUNSNL,4,E,absent,eE,nN,f,0,1.2739762000273913,n,1,0.11876350012607872,RSVPLG01,0.94,2023-09-12-22:34:49,918,1,Experiment,2023-09-12_16h16.04.143,
12,global,global,7,3,3,39,11,45,exp,TZTHUYLZUEXFNFY,TFUSLYLZNUYZNEE,4,H,X,hH,yY,h,1,1.0519624000880867,y,1,0.09942590002901852,RSVPLG01,0.94,2023-09-12-22:34:49,918,1,Experiment,2023-09-12_16h16.04.143,
1,local,local,0,3,4,40,0,46,exp,HLSFTSNTEUHLYEN,YYTZLSTHUULESEN,4,Z,absent,zZ,nN,f,0,1.2167630000039935,n,1,0.330515299923718,RSVPLG01,0.94,2023-09-12-22:34:49,918,1,Experiment,2023-09-12_16h16.04.143,
9,global,local,7,3,5,41,8,47,exp,YZNNSTZLULHSHYU,ZHLSLEUFFZYNXYU,6,T,X,tT,yY,t,1,0.8396001001819968,y,1,0.5077470000833273,RSVPLG01,0.94,2023-09-12-22:34:49,918,1,Experiment,2023-09-12_16h16.04.143,
12,global,global,7,3,6,42,11,48,exp,LTFYSNUHEFLYXSU,HLTSFZUSEHLUTYF,6,N,X,nN,yY,n,1,1.2978413999080658,y,1,0.25692770001478493,RSVPLG01,0.94,2023-09-12-22:34:49,918,1,Experiment,2023-09-12_16h16.04.143,
9,global,local,7,3,7,43,8,49,exp,LEYFTNNZTESYHSZ,LNZUNEHSETXYHLT,4,F,X,fF,yY,f,1,1.431622999953106,y,1,0.15089419996365905,RSVPLG01,0.94,2023-09-12-22:34:49,918,1,Experiment,2023-09-12_16h16.04.143,
1,local,local,0,3,8,44,0,50,exp,NNZYZLUTEFUTEYH,ZFZUESYUNEFHTYT,6,S,absent,sS,nN,l,0,0.9078682998660952,n,1,1.3138743999879807,RSVPLG01,0.94,2023-09-12-22:34:49,918,1,Experiment,2023-09-12_16h16.04.143,
7,global,local,0,3,9,45,6,51,exp,YNUTZLYSUEFNTLF,TEYYHUNTULLFSNE,5,Z,absent,zZ,nN,z,1,1.0686876000836492,n,1,0.401307700201869,RSVPLG01,0.94,2023-09-12-22:34:49,918,1,Experiment,2023-09-12_16h16.04.143,
9,global,local,7,3,10,46,8,52,exp,ZYSFSELZUYHEHNN,EUETNSYSLZXHNUH,4,F,X,fF,yY,f,1,0.8752814999315888,n,0,0.11290960013866425,RSVPLG01,0.94,2023-09-12-22:34:49,918,1,Experiment,2023-09-12_16h16.04.143,
10,global,global,0,3,11,47,9,53,exp,LSFHEYTLZFSHUTU,LHFUHNUTTFZSEEZ,6,Y,absent,yY,nN,y,1,0.9728259001858532,y,0,0.6187405998352915,RSVPLG01,0.94,2023-09-12-22:34:49,918,1,Experiment,2023-09-12_16h16.04.143,
2,local,local,3,4,0,48,1,54,exp,HZZFUTSNSEUNETH,TLHYTEXZNSUHZNU,4,Y,X,yY,yY,f,0,1.0831317000556737,y,1,0.16054499987512827,RSVPLG01,0.94,2023-09-12-22:34:49,918,1,Experiment,2023-09-12_16h16.04.143,
2,local,local,3,4,1,49,1,55,exp,FULNYFTZHYTZSLU,THTESZXFHZLSLFY,4,E,X,eE,yY,n,0,0.9142279999796301,y,1,0.0721877000760287,RSVPLG01,0.94,2023-09-12-22:34:49,918,1,Experiment,2023-09-12_16h16.04.143,
2,local,local,3,4,2,50,1,56,exp,ZULHEZSFYETSFTL,FEFNYSXUTYZSUZL,4,N,X,nN,yY,h,0,0.7835317999124527,y,1,0.02557679987512529,RSVPLG01,0.94,2023-09-12-22:34:49,918,1,Experiment,2023-09-12_16h16.04.143,
5,local,global,3,4,3,51,4,57,exp,ENLUZUFXHFLYSNH,EFLSTSYNULFHUNY,5,T,X,tT,yY,z,0,1.072034499840811,y,1,0.17016600002534688,RSVPLG01,0.94,2023-09-12-22:34:49,918,1,Experiment,2023-09-12_16h16.04.143,
10,global,global,0,4,4,52,9,58,exp,LHSTEUNETHYSNLF,YFTELZLNEHNYHSS,6,U,absent,uU,nN,n,0,0.35708110011182725,y,0,0.5309685000684112,RSVPLG01,0.94,2023-09-12-22:34:49,918,1,Experiment,2023-09-12_16h16.04.143,
5,local,global,3,4,5,53,4,59,exp,HSTNEYFXSTYNZZL,HFZLULTZHNSNYTS,5,U,X,uU,yY,e,0,1.6354330000467598,y,1,0.21837610006332397,RSVPLG01,0.94,2023-09-12-22:34:49,918,1,Experiment,2023-09-12_16h16.04.143,
10,global,global,0,4,6,54,9,60,exp,UHNESZHFNFSEUYT,YUEHELTSNHYNSUT,6,Z,absent,zZ,nN,z,1,0.9684884999878705,y,0,0.130110900150612,RSVPLG01,0.94,2023-09-12-22:34:49,918,1,Experiment,2023-09-12_16h16.04.143,
6,local,global,7,4,7,55,5,61,exp,ZUYFTLSFZELXUYS,ZHLFNEYZSLSUEFH,5,N,X,nN,yY,t,0,0.6989017999731004,y,1,0.10629869997501373,RSVPLG01,0.94,2023-09-12-22:34:49,918,1,Experiment,2023-09-12_16h16.04.143,
8,global,local,3,4,8,56,7,62,exp,ELTEFHZYNTYLHNS,YLHEUTSXYHZZNTN,5,F,X,fF,yY,f,1,0.9832810000516474,y,1,0.02500080014578998,RSVPLG01,0.94,2023-09-12-22:34:49,918,1,Experiment,2023-09-12_16h16.04.143,
2,local,local,3,4,9,57,1,63,exp,NSEHNUELFSLYTYU,ELLZUTXYNFSNFTE,4,Z,X,zZ,yY,h,0,0.8935008000116795,n,0,0.045383800053969026,RSVPLG01,0.94,2023-09-12-22:34:49,918,1,Experiment,2023-09-12_16h16.04.143,
12,global,global,7,4,10,58,11,64,exp,HELTZUENSTFHXZN,LNFHTYLTSZNZFHS,6,U,X,uU,yY,u,1,1.13133419980295,y,1,0.09749460010789335,RSVPLG01,0.94,2023-09-12-22:34:49,918,1,Experiment,2023-09-12_16h16.04.143,
1,local,local,0,4,11,59,0,65,exp,SFLETZSFUULYYNE,LLFEHZEFNSZYNUU,5,H,absent,hH,nN,t,0,1.1036993998568505,y,0,0.08158249990083277,RSVPLG01,0.94,2023-09-12-22:34:49,918,1,Experiment,2023-09-12_16h16.04.143,
4,local,global,0,5,0,60,3,66,exp,FSUZFYLYEUSHNLE,HUHTELNFUYLESYN,4,T,absent,tT,nN,z,0,1.0992600000463426,y,0,0.17721170000731945,RSVPLG01,0.94,2023-09-12-22:34:49,918,1,Experiment,2023-09-12_16h16.04.143,
8,global,local,3,5,1,61,7,67,exp,YHEYSULHETZSLTN,YHLTNFEZXYHSSNE,6,U,X,uU,yY,u,1,0.8553867000155151,y,1,0.03468230017460883,RSVPLG01,0.94,2023-09-12-22:34:49,918,1,Experiment,2023-09-12_16h16.04.143,
10,global,global,0,5,2,62,9,68,exp,UZNUZLYYFNEHFTT,EZNEHSHZFTUNYFU,6,L,absent,lL,nN,z,0,1.378747999900952,n,1,0.2892119998577982,RSVPLG01,0.94,2023-09-12-22:34:49,918,1,Experiment,2023-09-12_16h16.04.143,
7,global,local,0,5,3,63,6,69,exp,FELYUNTNZZYLSFE,SEFTHTZYNNYFZEL,5,U,absent,uU,nN,n,0,1.157215700019151,y,0,1.03373509994708,RSVPLG01,0.94,2023-09-12-22:34:49,918,1,Experiment,2023-09-12_16h16.04.143,
11,global,global,3,5,4,64,10,70,exp,ZLSTUFXYEHEFSHL,EZFNYEHSHLZFYUU,4,T,X,tT,yY,t,1,1.6612758999690413,y,1,0.2409969000145793,RSVPLG01,0.94,2023-09-12-22:34:49,918,1,Experiment,2023-09-12_16h16.04.143,
9,global,local,7,5,5,65,8,71,exp,UNHEUZHLSETSTNF,NUHLFYHTFLEEXSS,6,Z,X,zZ,yY,z,1,1.7870891999918967,n,0,0.25770709989592433,RSVPLG01,0.94,2023-09-12-22:34:49,918,1,Experiment,2023-09-12_16h16.04.143,
6,local,global,7,5,6,66,5,72,exp,LHTFESYNHSXZLTY,ZZHUYTSNLHNTLES,4,U,X,uU,yY,f,0,1.2863847000990063,y,1,0.038305999943986535,RSVPLG01,0.94,2023-09-12-22:34:49,918,1,Experiment,2023-09-12_16h16.04.143,
12,global,global,7,5,7,67,11,73,exp,EFZTLLZYUFXENYH,UYUSHFELZNNFHLE,4,T,X,tT,yY,t,1,0.6886730999685824,y,1,0.04270089999772608,RSVPLG01,0.94,2023-09-12-22:34:49,918,1,Experiment,2023-09-12_16h16.04.143,
9,global,local,7,5,8,68,8,74,exp,SFSFLTYUYHNNHTU,FTHEZNHUNFYXTES,5,L,X,lL,yY,l,1,1.0946576001588255,n,0,0.46548000001348555,RSVPLG01,0.94,2023-09-12-22:34:49,918,1,Experiment,2023-09-12_16h16.04.143,
7,global,local,0,5,9,69,6,75,exp,FZHZUYNENLSSYEH,HYSNTLHLNZEZFEY,5,U,absent,uU,nN,y,0,1.129212100058794,y,0,0.7933550998568535,RSVPLG01,0.94,2023-09-12-22:34:49,918,1,Experiment,2023-09-12_16h16.04.143,
11,global,global,3,5,10,70,10,76,exp,EUTNSZUXNLETHZL,THLHYNEZUFEZFLN,5,S,X,sS,yY,z,0,0.9050960999447852,y,1,0.14727770001627505,RSVPLG01,0.94,2023-09-12-22:34:49,918,1,Experiment,2023-09-12_16h16.04.143,
6,local,global,7,5,11,71,5,77,exp,YTFSLNEYEHZTXLF,ZHSFSUEYFHTELLZ,6,U,X,uU,yY,n,0,1.209547899896279,y,1,0.03269490017555654,RSVPLG01,0.94,2023-09-12-22:34:49,918,1,Experiment,2023-09-12_16h16.04.143,
3,local,local,7,6,0,72,2,78,exp,FHSSULUNTFNTYYH,YFETHZUEYUHFXTS,6,Z,X,zZ,yY,l,0,1.1382645999547094,n,0,0.49021509988233447,RSVPLG01,0.94,2023-09-12-22:34:49,918,1,Experiment,2023-09-12_16h16.04.143,
3,local,local,7,6,1,73,2,79,exp,YUEZLNNTSUYZSFF,UFSYHTEFSTZXNZN,5,H,X,hH,yY,l,0,1.137370599899441,y,1,0.5974189001135528,RSVPLG01,0.94,2023-09-12-22:34:49,918,1,Experiment,2023-09-12_16h16.04.143,
9,global,local,7,6,2,74,8,80,exp,YZFUSNESHUFZELL,EEYHFTHLUSZUXLY,6,N,X,nN,yY,n,1,1.0960907998960465,y,1,0.4918913000728935,RSVPLG01,0.94,2023-09-12-22:34:49,918,1,Experiment,2023-09-12_16h16.04.143,
1,local,local,0,6,3,75,0,81,exp,NUFEEHTFYTLUSNS,FTNYSZELNYTLFUE,6,Z,absent,zZ,nN,n,0,1.077110799960792,y,0,0.4890912000555545,RSVPLG01,0.94,2023-09-12-22:34:49,918,1,Experiment,2023-09-12_16h16.04.143,
2,local,local,3,6,4,76,1,82,exp,ZFNULSHZHFNTLYT,SLTESYXFHZZFNTL,4,E,X,eE,yY,z,0,1.0714274998754263,y,1,0.19777199998497963,RSVPLG01,0.94,2023-09-12-22:34:49,918,1,Experiment,2023-09-12_16h16.04.143,
5,local,global,3,6,5,77,4,83,exp,SSZLNFTUXNEZUYL,SSLNTHYEEUZLNUT,6,H,X,hH,yY,f,0,0.7145007001236081,y,1,0.05627129995264113,RSVPLG01,0.94,2023-09-12-22:34:49,918,1,Experiment,2023-09-12_16h16.04.143,
10,global,global,0,6,6,78,9,84,exp,ESYNNTUFZFHSHEZ,ZEUFULEZFSYNHHN,6,T,absent,tT,nN,t,1,0.11478729988448322,y,0,1.056214899988845,RSVPLG01,0.94,2023-09-12-22:34:49,918,1,Experiment,2023-09-12_16h16.04.143,
3,local,local,7,6,7,79,2,85,exp,STENSFELUFHYUYH,ETLZYEHSTSXHYLU,4,Z,X,zZ,yY,n,0,1.5429461000021547,n,0,0.011840600054711103,RSVPLG01,0.94,2023-09-12-22:34:49,918,1,Experiment,2023-09-12_16h16.04.143,
3,local,local,7,6,8,80,2,86,exp,FENLSUFYHESHNLY,HSZFZTNFNLSLXYE,6,T,X,tT,yY,u,0,1.2847580001689494,y,1,0.015483499970287085,RSVPLG01,0.94,2023-09-12-22:34:49,918,1,Experiment,2023-09-12_16h16.04.143,
12,global,global,7,6,9,81,11,87,exp,NZHUFLTNEUFHXTE,HEZFTYZTSUENFUS,6,L,X,lL,yY,l,1,1.723505700007081,y,1,0.3386550999712199,RSVPLG01,0.94,2023-09-12-22:34:49,918,1,Experiment,2023-09-12_16h16.04.143,
3,local,local,7,6,10,82,2,88,exp,ZSTFESUFYUHZYHL,ZSYZNLLHFUHXFSU,5,N,X,nN,yY,f,0,1.1551316999830306,y,1,0.1316164000891149,RSVPLG01,0.94,2023-09-12-22:34:49,918,1,Experiment,2023-09-12_16h16.04.143,
11,global,global,3,6,11,83,10,89,exp,NFEHYTSUXUYNELL,NSFEYZUHNLLSYFE,6,T,X,tT,yY,t,1,0.9431289001367986,y,1,0.028297799872234464,RSVPLG01,0.94,2023-09-12-22:34:49,918,1,Experiment,2023-09-12_16h16.04.143,
12,global,global,7,7,0,84,11,90,exp,LNFZTHFTNUXELHY,YUNSLENFEHTYHTF,4,Z,X,zZ,yY,z,1,0.7314093001186848,y,1,0.18332240008749068,RSVPLG01,0.94,2023-09-12-22:34:49,918,1,Experiment,2023-09-12_16h16.04.143,
3,local,local,7,7,1,85,2,91,exp,ULNZNSHHEEUYYFZ,FULZNTEYNHFEXZU,6,T,X,tT,yY,n,0,1.4044914999976754,y,1,0.09940700000151992,RSVPLG01,0.94,2023-09-12-22:34:49,918,1,Experiment,2023-09-12_16h16.04.143,
4,local,global,0,7,2,86,3,92,exp,YNUHETHZFLTZLUY,LFNTSNYFHLUZZTY,5,S,absent,sS,nN,e,0,1.0826594999525696,y,0,0.28814700013026595,RSVPLG01,0.94,2023-09-12-22:34:49,918,1,Experiment,2023-09-12_16h16.04.143,
12,global,global,7,7,3,87,11,93,exp,SEHLZTFSYYLHXFE,NFYHLUYZSLSZNFE,6,T,X,tT,yY,t,1,0.9084689000155777,y,1,0.018006299855187535,RSVPLG01,0.94,2023-09-12-22:34:49,918,1,Experiment,2023-09-12_16h16.04.143,
7,global,local,0,7,4,88,6,94,exp,UZNFULTTYZYLHSN,SNHEYZZSNUYLHTL,4,F,absent,fF,nN,f,1,1.2127141000237316,n,1,0.6169966999441385,RSVPLG01,0.94,2023-09-12-22:34:49,918,1,Experiment,2023-09-12_16h16.04.143,
2,local,local,3,7,5,89,1,95,exp,HTTSESYZNLHUZNY,ZTHNFTUXNHZUSLL,5,F,X,fF,yY,s,0,0.8405631000641733,y,1,0.16713590011931956,RSVPLG01,0.94,2023-09-12-22:34:49,918,1,Experiment,2023-09-12_16h16.04.143,
12,global,global,7,7,6,90,11,96,exp,HNSLFYUZUNXHYEZ,SYFTFEUNHUSEZHZ,4,L,X,lL,yY,l,1,0.6569930000696331,y,1,0.12202700017951429,RSVPLG01,0.94,2023-09-12-22:34:49,918,1,Experiment,2023-09-12_16h16.04.143,
8,global,local,3,7,7,91,7,97,exp,ZULYEUSNFZLNFHE,LZFTELXNESSZUHH,4,Y,X,yY,yY,y,1,0.7639820000622422,y,1,0.43589990003965795,RSVPLG01,0.94,2023-09-12-22:34:49,918,1,Experiment,2023-09-12_16h16.04.143,
8,global,local,3,7,8,92,7,98,exp,ZNETUSFZLHLEFNS,ZHHNYSTXFZETSLL,5,U,X,uU,yY,u,1,0.9156028998550028,n,0,0.36774299992248416,RSVPLG01,0.94,2023-09-12-22:34:49,918,1,Experiment,2023-09-12_16h16.04.143,
5,local,global,3,7,9,93,4,99,exp,YUSFLNTEXSYTFHU,EYFFTZUEHLSYHUS,6,Z,X,zZ,yY,n,0,1.141633199993521,n,0,0.5450759001541883,RSVPLG01,0.94,2023-09-12-22:34:49,918,1,Experiment,2023-09-12_16h16.04.143,
5,local,global,3,7,10,94,4,100,exp,EZHNSFXLFTYHZES,TYSUSZFLYLTEFHE,4,U,X,uU,yY,n,0,0.9132769000716507,y,1,0.07602720009163022,RSVPLG01,0.94,2023-09-12-22:34:49,918,1,Experiment,2023-09-12_16h16.04.143,
1,local,local,0,7,11,95,0,101,exp,EFFNHLEHSZNZSTU,ZFEFTYNHTHNUSEZ,6,Y,absent,yY,nN,l,0,0.848398600006476,n,1,0.1864464001264423,RSVPLG01,0.94,2023-09-12-22:34:49,918,1,Experiment,2023-09-12_16h16.04.143,
1,local,local,0,8,0,96,0,102,exp,UYNULHTSZYNFLSZ,NTSZFELUTYNZYSU,6,E,absent,eE,nN,h,0,1.3062552998308092,n,1,0.15291590010747313,RSVPLG01,0.94,2023-09-12-22:34:49,918,1,Experiment,2023-09-12_16h16.04.143,
11,global,global,3,8,1,97,10,103,exp,UTHTYLSXUFSLFEN,STUNZFUNTLFLHEH,5,Y,X,yY,yY,y,1,0.655017500044778,y,1,0.05985369998961687,RSVPLG01,0.94,2023-09-12-22:34:49,918,1,Experiment,2023-09-12_16h16.04.143,
2,local,local,3,8,2,98,1,104,exp,ZETNUYESNFYZTHS,ESYFLHZXYNFTZHS,5,L,X,lL,yY,u,0,1.688669600058347,y,1,0.2820715999696404,RSVPLG01,0.94,2023-09-12-22:34:49,918,1,Experiment,2023-09-12_16h16.04.143,
10,global,global,0,8,3,99,9,105,exp,HHFSNETZUFTUSZY,HFEYLFTSZHZSTUY,5,N,absent,nN,nN,n,1,0.9287641998380423,n,1,0.1933653000742197,RSVPLG01,0.94,2023-09-12-22:34:49,918,1,Experiment,2023-09-12_16h16.04.143,
12,global,global,7,8,4,100,11,106,exp,YUHLSESYTNXTNEH,UUNZTFNEYYSTHFH,4,L,X,lL,yY,l,1,0.6174247998278588,y,1,0.19503100006841123,RSVPLG01,0.94,2023-09-12-22:34:49,918,1,Experiment,2023-09-12_16h16.04.143,
12,global,global,7,8,5,101,11,107,exp,TTYYELSNNZUXUSL,UNHTFNLLTHUYZSZ,5,E,X,eE,yY,e,1,0.8267300999723375,y,1,1.208619900047779,RSVPLG01,0.94,2023-09-12-22:34:49,918,1,Experiment,2023-09-12_16h16.04.143,
5,local,global,3,8,6,102,4,108,exp,YUTFSLNXZTYLUZE,ELFUHTFYNYLUZZN,5,H,X,hH,yY,s,0,1.2512050999794155,y,1,0.08117910008877516,RSVPLG01,0.94,2023-09-12-22:34:49,918,1,Experiment,2023-09-12_16h16.04.143,
7,global,local,0,8,7,103,6,109,exp,HSZYTLEYTNZSUNE,NUZZEFNYUYESSHT,6,L,absent,lL,nN,l,1,0.9819670000579208,n,1,0.21761409984901547,RSVPLG01,0.94,2023-09-12-22:34:49,918,1,Experiment,2023-09-12_16h16.04.143,
1,local,local,0,8,8,104,0,110,exp,ZESHSLYNTFHNFTY,TZZYHUYNFFHSENT,6,U,absent,uU,nN,n,0,1.2329194999765605,n,1,0.5399522997904569,RSVPLG01,0.94,2023-09-12-22:34:49,918,1,Experiment,2023-09-12_16h16.04.143,
10,global,global,0,8,9,105,9,111,exp,UEUTESNHFNZLTZH,FLELTYUZHNHZNTE,6,S,absent,sS,nN,n,0,1.2452841000631452,y,0,0.21424770005978644,RSVPLG01,0.94,2023-09-12-22:34:49,918,1,Experiment,2023-09-12_16h16.04.143,
8,global,local,3,8,10,106,7,112,exp,YUFZFNHLTNTHYSL,LTLESUXNSFNUTHY,4,Z,X,zZ,yY,z,1,1.2632215998601168,y,1,0.1702250000089407,RSVPLG01,0.94,2023-09-12-22:34:49,918,1,Experiment,2023-09-12_16h16.04.143,
10,global,global,0,8,11,107,9,113,exp,ZHYZUNLSTYHSEEL,ZENZFYYNTESHHLS,5,U,absent,uU,nN,n,0,1.1848741001449525,y,0,0.050261199939996004,RSVPLG01,0.94,2023-09-12-22:34:49,918,1,Experiment,2023-09-12_16h16.04.143,
12,global,global,7,9,0,108,11,114,exp,YTEUSNYFTEZFXZH,HTSZYLYHETFESFZ,6,N,X,nN,yY,n,1,0.9811879000626504,y,1,0.5490824000444263,RSVPLG01,0.94,2023-09-12-22:34:49,918,1,Experiment,2023-09-12_16h16.04.143,
1,local,local,0,9,1,109,0,115,exp,ZEUHNSZNFTYEYHT,UZUTZLFYHFNYNTE,6,L,absent,lL,nN,n,0,0.8439524001441896,n,1,0.10569090000353754,RSVPLG01,0.94,2023-09-12-22:34:49,918,1,Experiment,2023-09-12_16h16.04.143,
11,global,global,3,9,2,110,10,116,exp,FYUETLXUFSZLHZH,ZZHNSUULYTLSFYT,4,E,X,eE,yY,u,0,0.8396953002084047,y,1,0.03267250000499189,RSVPLG01,0.94,2023-09-12-22:34:49,918,1,Experiment,2023-09-12_16h16.04.143,
8,global,local,3,9,3,111,7,117,exp,NLSFHTETNZFZSYY,LTEFUNSXSNZTZLY,5,H,X,hH,yY,h,1,1.3495311001315713,y,1,0.056927100056782365,RSVPLG01,0.94,2023-09-12-22:34:49,918,1,Experiment,2023-09-12_16h16.04.143,
3,local,local,7,9,4,112,2,118,exp,ZFZLTHTYEESFSYN,EFTZFUEZLSNNXTL,6,U,X,uU,yY,h,0,0.9543212000280619,n,0,0.06936269998550415,RSVPLG01,0.94,2023-09-12-22:34:49,918,1,Experiment,2023-09-12_16h16.04.143,
8,global,local,3,9,5,113,7,119,exp,HYTESZFULLYEZFU,EUHUNYEXZHLFLZF,5,S,X,sS,yY,s,1,0.5225106999278069,y,1,0.11359159997664392,RSVPLG01,0.94,2023-09-12-22:34:49,918,1,Experiment,2023-09-12_16h16.04.143,
11,global,global,3,9,6,114,10,120,exp,ELZLTFNXFUNYESS,NUFEHLZNLZSYUYF,5,T,X,tT,yY,t,1,1.0997881998773664,n,0,0.3936877001542598,RSVPLG01,0.94,2023-09-12-22:34:49,918,1,Experiment,2023-09-12_16h16.04.143,
12,global,global,7,9,7,115,11,121,exp,HZFYTLNUTYHSXFZ,NZSUSEUHNFYFTHY,6,L,X,lL,yY,y,0,1.8514529999811202,y,1,1.2983729001134634,RSVPLG01,0.94,2023-09-12-22:34:49,918,1,Experiment,2023-09-12_16h16.04.143,
10,global,global,0,9,8,116,9,122,exp,UFZYYHUFESZSELN,UELYFTZNZSFYNSL,6,H,absent,hH,nN,h,1,0.8719747001305223,n,1,0.06011199997738004,RSVPLG01,0.94,2023-09-12-22:34:49,918,1,Experiment,2023-09-12_16h16.04.143,
2,local,local,3,9,9,117,1,123,exp,UTNSZHLHTZULYYE,ETNFTHXUYZLUYEH,4,F,X,fF,yY,z,0,1.0388760999776423,n,0,0.14678600011393428,RSVPLG01,0.94,2023-09-12-22:34:49,918,1,Experiment,2023-09-12_16h16.04.143,
3,local,local,7,9,10,118,2,124,exp,UUYNTZEEYZHFFLL,LYHESHLFUFUXZNN,5,S,X,sS,yY,t,0,0.8450778000988066,n,0,0.0971991999540478,RSVPLG01,0.94,2023-09-12-22:34:49,918,1,Experiment,2023-09-12_16h16.04.143,
4,local,global,0,9,11,119,3,125,exp,YSEHUZYSUTZNELL,NNLFZSZEESTTLUU,4,F,absent,fF,nN,z,0,0.6549118000548333,y,0,0.2726323001552373,RSVPLG01,0.94,2023-09-12-22:34:49,918,1,Experiment,2023-09-12_16h16.04.143,
4,local,global,0,10,0,120,3,126,exp,ETENYTUHLSULHZY,STZFHZLEEULSHYT,4,F,absent,fF,nN,n,0,0.8337876000441611,y,0,0.05785500002093613,RSVPLG01,0.94,2023-09-12-22:34:49,918,1,Experiment,2023-09-12_16h16.04.143,
8,global,local,3,10,1,121,7,127,exp,HYETFNFHYLUUZLZ,LEHSEYXFFZLYZUN,4,T,X,tT,yY,t,1,1.0422187999356538,n,0,0.14905260014347732,RSVPLG01,0.94,2023-09-12-22:34:49,918,1,Experiment,2023-09-12_16h16.04.143,
7,global,local,0,10,2,122,6,128,exp,HSZTYUYZLUNEELH,SLLFUNEZEHNHYUY,4,T,absent,tT,nN,t,1,0.8375792000442743,n,1,0.08724759984761477,RSVPLG01,0.94,2023-09-12-22:34:49,918,1,Experiment,2023-09-12_16h16.04.143,
7,global,local,0,10,3,123,6,129,exp,TUESYHZTYLZLNHE,TUNFHUYYZHELLZN,4,S,absent,sS,nN,f,0,1.9269470002036542,y,0,0.11384220002219081,RSVPLG01,0.94,2023-09-12-22:34:49,918,1,Experiment,2023-09-12_16h16.04.143,
11,global,global,3,10,4,124,10,130,exp,SNZEFYLNXSHETTZ,ESHZNUFHTFENLTZ,6,Y,X,yY,yY,y,1,0.8161077999975532,y,1,0.9527141000144184,RSVPLG01,0.94,2023-09-12-22:34:49,918,1,Experiment,2023-09-12_16h16.04.143,
7,global,local,0,10,5,125,6,131,exp,NSUFFYSEHTZHTUZ,EFNZHLFTSHTESUZ,6,Y,absent,yY,nN,y,1,1.0460783999878913,n,1,0.18572529987432063,RSVPLG01,0.94,2023-09-12-22:34:49,918,1,Experiment,2023-09-12_16h16.04.143,
5,local,global,3,10,6,126,4,132,exp,LTFSZUXHYLYHETU,HEZNFELYLHYUTUZ,4,N,X,nN,yY,f,0,0.9995726000051945,n,0,0.15285760001279414,RSVPLG01,0.94,2023-09-12-22:34:49,918,1,Experiment,2023-09-12_16h16.04.143,
12,global,global,7,10,7,127,11,133,exp,UTHLFTSYSYXNNZH,TTSEHFSZNYUYNUH,4,L,X,lL,yY,l,1,0.7134122999850661,y,1,0.21808029990643263,RSVPLG01,0.94,2023-09-12-22:34:49,918,1,Experiment,2023-09-12_16h16.04.143,
11,global,global,3,10,8,128,10,134,exp,HTHFZYXZLSUSTLN,ZTSENYUNZLUSHHY,4,F,X,fF,yY,f,1,0.9540471998043358,n,0,0.05693820002488792,RSVPLG01,0.94,2023-09-12-22:34:49,918,1,Experiment,2023-09-12_16h16.04.143,
11,global,global,3,10,9,129,10,135,exp,HFUNLEHXUFNZTEZ,FZUZYTUNSFNETEH,5,L,X,lL,yY,l,1,0.8868358000181615,y,1,0.15507929981686175,RSVPLG01,0.94,2023-09-12-22:34:49,918,1,Experiment,2023-09-12_16h16.04.143,
7,global,local,0,10,10,130,6,136,exp,YYLHZNUFTUSNFHS,UNFHELLTSNYHFUS,5,Z,absent,zZ,nN,z,1,1.0410003999713808,y,0,0.10900470009073615,RSVPLG01,0.94,2023-09-12-22:34:49,918,1,Experiment,2023-09-12_16h16.04.143,
6,local,global,7,10,11,131,5,137,exp,UYHLNZZNUSXHYST,NTNFZHESYZTYSHU,4,F,X,fF,yY,l,0,0.9964175999630243,y,1,0.21298970002681017,RSVPLG01,0.94,2023-09-12-22:34:49,918,1,Experiment,2023-09-12_16h16.04.143,
5,local,global,3,11,0,132,4,138,exp,UFTYENXENHHUFTS,HSTLSUTFUENZHFN,4,L,X,lL,yY,y,0,0.7566865000408143,y,1,0.137880900176242,RSVPLG01,0.94,2023-09-12-22:34:49,918,1,Experiment,2023-09-12_16h16.04.143,
9,global,local,7,11,1,133,8,139,exp,FZLHNLHUYUTYZTF,LTEUSEYHTZFXUFZ,5,N,X,nN,yY,n,1,0.9608660999219865,n,0,0.15837180009111762,RSVPLG01,0.94,2023-09-12-22:34:49,918,1,Experiment,2023-09-12_16h16.04.143,
5,local,global,3,11,2,134,4,140,exp,NZYEYNXZHHSTLUU,YLHFZZTNUUHSNSL,4,F,X,fF,yY,z,0,0.7823741000611335,y,1,0.14827829995192587,RSVPLG01,0.94,2023-09-12-22:34:49,918,1,Experiment,2023-09-12_16h16.04.143,
6,local,global,7,11,3,135,5,141,exp,ELZLHSTFFTEZXNN,EHULEYFTHFZNULN,6,Y,X,yY,yY,s,0,1.1137681000400335,y,1,0.5566070000641048,RSVPLG01,0.94,2023-09-12-22:34:49,918,1,Experiment,2023-09-12_16h16.04.143,
3,local,local,7,11,4,136,2,142,exp,HSYEUSYLZTZUHLF,UUFNHLYFZYXHZSL,4,N,X,nN,yY,e,0,0.8379877998959273,y,1,0.049702800111845136,RSVPLG01,0.94,2023-09-12-22:34:49,918,1,Experiment,2023-09-12_16h16.04.143,
8,global,local,3,11,5,137,7,143,exp,HNYTLTUFZEHENUY,ZHHTSTYXUNZUFEN,5,L,X,lL,yY,l,1,0.9418907999061048,n,0,0.40581790008582175,RSVPLG01,0.94,2023-09-12-22:34:49,918,1,Experiment,2023-09-12_16h16.04.143,
6,local,global,7,11,6,138,5,144,exp,FNUSEFUTLHLXNYS,UHTNZLTSULYSNFY,5,Z,X,zZ,yY,f,0,1.3256441000849009,y,1,0.050106000155210495,RSVPLG01,0.94,2023-09-12-22:34:49,918,1,Experiment,2023-09-12_16h16.04.143,
8,global,local,3,11,7,139,7,145,exp,TUHNHFLTFULYSEE,EUYZHHXSTTYUFLE,4,N,X,nN,yY,n,1,1.1378699000924826,y,1,0.097337800078094,RSVPLG01,0.94,2023-09-12-22:34:49,918,1,Experiment,2023-09-12_16h16.04.143,
3,local,local,7,11,8,140,2,146,exp,TEYZFHLLSYFZNES,YLETNUZZFELTXNS,6,U,X,uU,yY,h,0,1.0822050001006573,n,0,0.27374889981001616,RSVPLG01,0.94,2023-09-12-22:34:49,918,1,Experiment,2023-09-12_16h16.04.143,
1,local,local,0,11,9,141,0,147,exp,LLSNYTSTEHZENFH,FELNUHFHTESZLZS,5,U,absent,uU,nN,y,0,0.9031827999278903,y,0,0.013225799892097712,RSVPLG01,0.94,2023-09-12-22:34:49,918,1,Experiment,2023-09-12_16h16.04.143,
9,global,local,7,11,10,142,8,148,exp,THELYNSELSTFZYF,LETZLUYFSYHSXEH,6,N,X,nN,yY,n,1,1.3257609999272972,y,1,0.0436209999024868,RSVPLG01,0.94,2023-09-12-22:34:49,918,1,Experiment,2023-09-12_16h16.04.143,
1,local,local,0,11,11,143,0,149,exp,SZNZFHEYEYNULLS,FSLZUTNZSYEUNLF,6,T,absent,tT,nN,h,0,1.1277751999441534,y,0,0.0176723999902606,RSVPLG01,0.94,2023-09-12-22:34:49,918,1,Experiment,2023-09-12_16h16.04.143,
11,global,global,3,12,0,144,10,150,exp,ZHTYELYXSZFLTUU,ZZUYNYSFHSLFUTH,5,E,X,eE,yY,e,1,0.8886359001044184,y,1,0.025022600078955293,RSVPLG01,0.94,2023-09-12-22:34:49,918,1,Experiment,2023-09-12_16h16.04.143,
3,local,local,7,12,1,145,2,151,exp,SHTSHLYZUTNFZUN,ZNUHSEYFNYTSXFZ,6,E,X,eE,yY,l,0,0.8862320999614894,n,0,0.21481100004166365,RSVPLG01,0.94,2023-09-12-22:34:49,918,1,Experiment,2023-09-12_16h16.04.143,
10,global,global,0,12,2,146,9,152,exp,SZHYHTUNSNZLFTU,ZHUENFHFULTZSTS,4,Y,absent,yY,nN,y,1,0.5489212998654693,y,0,0.03005249984562397,RSVPLG01,0.94,2023-09-12-22:34:49,918,1,Experiment,2023-09-12_16h16.04.143,
4,local,global,0,12,3,147,3,153,exp,HFYZTYZSSLFLNHE,SHZYUSELNNEHYLZ,5,U,absent,uU,nN,t,0,1.114643899956718,n,1,0.1153732999227941,RSVPLG01,0.94,2023-09-12-22:34:49,918,1,Experiment,2023-09-12_16h16.04.143,
6,local,global,7,12,4,148,5,154,exp,FUEZFUTNELXLYTY,ENTSLYFTNHUYUEF,4,S,X,sS,yY,z,0,1.9738127999007702,y,1,0.1850397998932749,RSVPLG01,0.94,2023-09-12-22:34:49,918,1,Experiment,2023-09-12_16h16.04.143,
4,local,global,0,12,5,149,3,155,exp,FFTHSUNELTSNLEH,HSFLNZYTLETFNYH,6,Z,absent,zZ,nN,u,0,0.9400603999383748,y,0,0.8179671000689268,RSVPLG01,0.94,2023-09-12-22:34:49,918,1,Experiment,2023-09-12_16h16.04.143,
4,local,global,0,12,6,150,3,156,exp,UYYUNSTHEZSFFTH,YZESLUTYFHTSEZH,5,L,absent,lL,nN,n,0,1.290775999892503,n,1,0.0697512999176979,RSVPLG01,0.94,2023-09-12-22:34:49,918,1,Experiment,2023-09-12_16h16.04.143,
9,global,local,7,12,7,151,8,157,exp,LNENHSUHUEYLYTZ,LZENEFNUUZHTXTY,6,S,X,sS,yY,s,1,1.2052829000167549,y,1,0.6016763001680374,RSVPLG01,0.94,2023-09-12-22:34:49,918,1,Experiment,2023-09-12_16h16.04.143,
4,local,global,0,12,8,152,3,158,exp,ZNENFUTTZYELSSF,NFEZSHTZYELLFYN,6,H,absent,hH,nN,u,0,1.626785899978131,n,1,1.1038628998212516,RSVPLG01,0.94,2023-09-12-22:34:49,918,1,Experiment,2023-09-12_16h16.04.143,
5,local,global,3,12,9,153,4,159,exp,SZFLZYHTXLNUTSF,UFZUTELFNSNHLTZ,6,E,X,eE,yY,y,0,0.9391841997858137,y,1,0.12309799995273352,RSVPLG01,0.94,2023-09-12-22:34:49,918,1,Experiment,2023-09-12_16h16.04.143,
5,local,global,3,12,10,154,4,160,exp,TNYZLUTXSFUFZHY,HSUTEZNFYUNHSTZ,5,E,X,eE,yY,l,0,1.7731046001426876,y,1,0.2656760001555085,RSVPLG01,0.94,2023-09-12-22:34:49,918,1,Experiment,2023-09-12_16h16.04.143,
1,local,local,0,12,11,155,0,161,exp,NLNYSTEZUEUFYZT,ZFTUHZNENYELLFT,5,H,absent,hH,nN,h,1,0.9935035000089556,y,0,0.5232031000778079,RSVPLG01,0.94,2023-09-12-22:34:49,918,1,Experiment,2023-09-12_16h16.04.143,
7,global,local,0,13,0,156,6,162,exp,SUESZLNUYFNLFEY,YFEUHTNNUSYESFL,5,Z,absent,zZ,nN,z,1,1.1601902998518199,y,0,0.1444955999031663,RSVPLG01,0.94,2023-09-12-22:34:49,918,1,Experiment,2023-09-12_16h16.04.143,
7,global,local,0,13,1,157,6,163,exp,TSEUHZESLLYYTNU,LZTNFYSEELYUUZS,5,H,absent,hH,nN,n,0,1.3994885000865906,n,1,0.10620129993185401,RSVPLG01,0.94,2023-09-12-22:34:49,918,1,Experiment,2023-09-12_16h16.04.143,
10,global,global,0,13,2,158,9,164,exp,FUTZLYTUYHHSESL,YELNHFTFUEYLSTU,4,Z,absent,zZ,nN,z,1,1.1902046999894083,y,0,0.603372200159356,RSVPLG01,0.94,2023-09-12-22:34:49,918,1,Experiment,2023-09-12_16h16.04.143,
1,local,local,0,13,3,159,0,165,exp,LENLHNEFTSFYYTS,EFSLULYNNYFTZZS,5,U,absent,uU,nN,h,0,1.1452075999695808,y,0,0.048724599881097674,RSVPLG01,0.94,2023-09-12-22:34:49,918,1,Experiment,2023-09-12_16h16.04.143,
5,local,global,3,13,4,160,4,166,exp,UZNNYTSZXSHHYEE,EYSHHFLNZLSZNYU,6,F,X,fF,yY,y,0,1.3257116999011487,y,1,0.14547300012782216,RSVPLG01,0.94,2023-09-12-22:34:49,918,1,Experiment,2023-09-12_16h16.04.143,
8,global,local,3,13,5,161,7,167,exp,THYNUSLZFNTYFLZ,FNLHTEUFXUZZYYL,6,S,X,sS,yY,s,1,0.9511891000438482,y,1,0.0728815000038594,RSVPLG01,0.94,2023-09-12-22:34:49,918,1,Experiment,2023-09-12_16h16.04.143,
1,local,local,0,13,6,162,0,168,exp,YLYZFSNELSTFNUT,UFLHTEUNSYNFLTS,4,H,absent,hH,nN,z,0,1.2585063001606613,y,0,0.7959706999827176,RSVPLG01,0.94,2023-09-12-22:34:49,918,1,Experiment,2023-09-12_16h16.04.143,
5,local,global,3,13,7,163,4,169,exp,HZLUEFXYNSSEZNL,SZHTFEZEHYNNLYS,4,T,X,tT,yY,u,0,0.6154048000462353,y,1,1.794895299943164,RSVPLG01,0.94,2023-09-12-22:34:49,918,1,Experiment,2023-09-12_16h16.04.143,
7,global,local,0,13,8,164,6,170,exp,SYZEELUUHNFYFSH,EHNNHTZZSUSYEUY,6,L,absent,lL,nN,l,1,1.0149024000857025,n,1,1.1692240999545902,RSVPLG01,0.94,2023-09-12-22:34:49,918,1,Experiment,2023-09-12_16h16.04.143,
12,global,global,7,13,9,165,11,171,exp,FSFYHLZNNYHUXTS,FFHUSEHNZYUNTST,6,L,X,lL,yY,l,1,0.8349997000768781,n,0,1.31603950005956,RSVPLG01,0.94,2023-09-12-22:34:49,918,1,Experiment,2023-09-12_16h16.04.143,
6,local,global,7,13,10,166,5,172,exp,ZUUFSLTEFHYEXHS,SFEHENHZFTUUTZY,6,N,X,nN,yY,n,1,1.1044882000423968,y,1,0.09812150010839105,RSVPLG01,0.94,2023-09-12-22:34:49,918,1,Experiment,2023-09-12_16h16.04.143,
8,global,local,3,13,11,167,7,173,exp,YSLELYUHHSZFUNF,SULTYFXZHYHSNNU,4,E,X,eE,yY,t,0,0.975016700103879,y,1,0.04881429998204112,RSVPLG01,0.94,2023-09-12-22:34:49,918,1,Experiment,2023-09-12_16h16.04.143,
11,global,global,3,14,0,168,10,174,exp,HFFYEUNXTSTNSLL,LTSTZYNLFNFHSUU,5,E,X,eE,yY,z,0,2.5966744001489133,n,0,0.8966026999987662,RSVPLG01,0.94,2023-09-12-22:34:49,918,1,Experiment,2023-09-12_16h16.04.143,
1,local,local,0,14,1,169,0,175,exp,HUUTYTHLFELENNF,TSLUZSHFNNLHETU,5,Z,absent,zZ,nN,y,0,1.0152751998975873,n,1,0.32717709988355637,RSVPLG01,0.94,2023-09-12-22:34:49,918,1,Experiment,2023-09-12_16h16.04.143,
8,global,local,3,14,2,170,7,176,exp,LNTYHYZNEULETUS,ZTYNFEZXSYLUEUT,5,H,X,hH,yY,f,0,0.6982077001594007,y,1,0.42738819983787835,RSVPLG01,0.94,2023-09-12-22:34:49,918,1,Experiment,2023-09-12_16h16.04.143,
4,local,global,0,14,3,171,3,177,exp,UTYFEZUNHNHSTEY,YHZLEZTUESSUTNN,4,L,absent,lL,nN,f,0,1.0370943997986615,n,1,0.08769900002516806,RSVPLG01,0.94,2023-09-12-22:34:49,918,1,Experiment,2023-09-12_16h16.04.143,
2,local,local,3,14,4,172,1,178,exp,HFHFNSUTZEZELST,EULSYFHXZHTTLUZ,5,Y,X,yY,yY,n,0,0.9966736999340355,n,0,0.6034607000183314,RSVPLG01,0.94,2023-09-12-22:34:49,918,1,Experiment,2023-09-12_16h16.04.143,
9,global,local,7,14,5,173,8,179,exp,YFNHZUSYTTZSFLL,LHLZZEYTHFSYXTS,6,U,X,uU,yY,u,1,1.1949129002168775,n,0,0.40901899989694357,RSVPLG01,0.94,2023-09-12-22:34:49,918,1,Experiment,2023-09-12_16h16.04.143,
2,local,local,3,14,6,174,1,180,exp,YEFNTYULTFSHSEL,YLFZSYXTUHFSHEL,4,Z,X,zZ,yY,n,0,0.9519974999129772,n,0,0.8575049000792205,RSVPLG01,0.94,2023-09-12-22:34:49,918,1,Experiment,2023-09-12_16h16.04.143,
2,local,local,3,14,7,175,1,181,exp,TYYFSZNESLFHLTE,TYELSUSTXHFFNNY,6,U,X,uU,yY,z,0,1.1613044999539852,y,1,0.16199980000965297,RSVPLG01,0.94,2023-09-12-22:34:49,918,1,Experiment,2023-09-12_16h16.04.143,
12,global,global,7,14,8,176,11,182,exp,LSHLTZHUFZYXEUF,YLFSNLUHEEYHZUZ,5,T,X,tT,yY,t,1,1.0795831000432372,y,1,0.01935119996778667,RSVPLG01,0.94,2023-09-12-22:34:49,918,1,Experiment,2023-09-12_16h16.04.143,
9,global,local,7,14,9,177,8,183,exp,YFFUHNHTTSULYSZ,YSTZHETFUZHFXLL,6,N,X,nN,yY,n,1,0.7752658999525011,y,1,0.09748460003174841,RSVPLG01,0.94,2023-09-12-22:34:49,918,1,Experiment,2023-09-12_16h16.04.143,
6,local,global,7,14,10,178,5,184,exp,YLTHZNTUUHEXLFE,EUFNSNLHYEFYTHL,5,S,X,sS,yY,z,0,1.6259567001834512,y,1,0.1621765000745654,RSVPLG01,0.94,2023-09-12-22:34:49,918,1,Experiment,2023-09-12_16h16.04.143,
10,global,global,0,14,11,179,9,185,exp,FHUYENNUTEZLTHL,ENUSZHTZFHLEUTL,4,Y,absent,yY,nN,y,1,1.0459141999017447,n,1,0.09787330008111894,RSVPLG01,0.94,2023-09-12-22:34:49,918,1,Experiment,2023-09-12_16h16.04.143,
8,global,local,3,15,0,180,7,186,exp,YEHTHNLUZTFEUYZ,HTULHSEYXZETZFL,6,N,X,nN,yY,n,1,0.6815801002085209,y,1,0.64118089992553,RSVPLG01,0.94,2023-09-12-22:34:49,918,1,Experiment,2023-09-12_16h16.04.143,
12,global,global,7,15,1,181,11,187,exp,SZTYLEFHEHZXFNS,ETNFUHZTSFSYZNH,5,L,X,lL,yY,l,1,0.8673494998365641,y,1,0.1813610999379307,RSVPLG01,0.94,2023-09-12-22:34:49,918,1,Experiment,2023-09-12_16h16.04.143,
10,global,global,0,15,2,182,9,188,exp,UZLNFEYULHHZSFS,SUFTUHHLEESYLZY,4,N,absent,nN,nN,z,0,1.048511500004679,y,0,0.18598529999144375,RSVPLG01,0.94,2023-09-12-22:34:49,918,1,Experiment,2023-09-12_16h16.04.143,
5,local,global,3,15,3,183,4,189,exp,ESYNHZFTXSHEYFU,NUFEHLTNYYHFEUT,6,L,X,lL,yY,z,0,1.2259335999842733,y,1,0.44229190004989505,RSVPLG01,0.94,2023-09-12-22:34:49,918,1,Experiment,2023-09-12_16h16.04.143,
8,global,local,3,15,4,184,7,190,exp,ELNFNSTELZZHYYH,HFLYLUZNXYZTEET,6,S,X,sS,yY,s,1,4.33205770002678,y,1,0.43804939999245107,RSVPLG01,0.94,2023-09-12-22:34:49,918,1,Experiment,2023-09-12_16h16.04.143,
1,local,local,0,15,5,185,0,191,exp,FZZNUFTLSYLTSNY,YNZYHNELZSTLFES,5,H,absent,hH,nN,u,0,1.267318099969998,y,0,0.07292039995081723,RSVPLG01,0.94,2023-09-12-22:34:49,918,1,Experiment,2023-09-12_16h16.04.143,
2,local,local,3,15,6,186,1,192,exp,FEZLSNYZEFHSUHN,SZUTEFXHFNZYYUS,4,T,X,tT,yY,l,0,0.667620699852705,y,1,0.42236000020056963,RSVPLG01,0.94,2023-09-12-22:34:49,918,1,Experiment,2023-09-12_16h16.04.143,
4,local,global,0,15,7,187,3,193,exp,YELZUSTYHLZTEFU,FTUTZNYYLUHHZEE,6,N,absent,nN,nN,s,0,1.8570303998421878,n,1,0.15650909999385476,RSVPLG01,0.94,2023-09-12-22:34:49,918,1,Experiment,2023-09-12_16h16.04.143,
1,local,local,0,15,8,188,0,194,exp,UFZZHYSHNLLNESF,HFFUZTELSZULSHE,6,T,absent,tT,nN,y,0,1.0723361000418663,n,1,0.1572551999706775,RSVPLG01,0.94,2023-09-12-22:34:49,918,1,Experiment,2023-09-12_16h16.04.143,
11,global,global,3,15,9,189,10,195,exp,HNNSZFFXUSTYHLT,TTUNESUSYHLYLHF,5,Z,X,zZ,yY,z,1,1.1296498000156134,n,0,0.1361354999244213,RSVPLG01,0.94,2023-09-12-22:34:49,918,1,Experiment,2023-09-12_16h16.04.143,
6,local,global,7,15,10,190,5,196,exp,SULHSTNYZUXNLYE,NYSFELNULUETYZS,4,F,X,fF,yY,f,1,1.4440961999353021,y,1,1.4088644001167268,RSVPLG01,0.94,2023-09-12-22:34:49,918,1,Experiment,2023-09-12_16h16.04.143,
1,local,local,0,15,11,191,0,197,exp,NEFUTSYLNFLHYUE,SENFZSYHYUEHLFU,5,Z,absent,zZ,nN,t,0,0.8499191999435425,n,1,0.13132239994592965,RSVPLG01,0.94,2023-09-12-22:34:49,918,1,Experiment,2023-09-12_16h16.04.143,
12,global,global,7,16,0,192,11,198,exp,YUTUNZHZYSFXHFT,YSHTELFLHYFZTUS,5,N,X,nN,yY,n,1,0.808170499978587,y,1,0.09873119997791946,RSVPLG01,0.94,2023-09-12-22:34:49,918,1,Experiment,2023-09-12_16h16.04.143,
6,local,global,7,16,1,193,5,199,exp,SFULZHSHTLEXETN,HEELYNFTNUSSTLF,5,Y,X,yY,yY,z,0,1.1133755999617279,y,1,0.4655311000533402,RSVPLG01,0.94,2023-09-12-22:34:49,918,1,Experiment,2023-09-12_16h16.04.143,
6,local,global,7,16,2,194,5,200,exp,ZHSYNSEEUZUXYLH,LYUYFSHZLEETTUH,5,F,X,fF,yY,z,0,0.9554963000118732,y,1,0.1769154998473823,RSVPLG01,0.94,2023-09-12-22:34:49,918,1,Experiment,2023-09-12_16h16.04.143,
2,local,local,3,16,3,195,1,201,exp,NNTTSYZLEFHELZS,SNHEEUFTXTLNZSL,6,U,X,uU,yY,y,0,0.7058493997901678,y,1,0.02603910001926124,RSVPLG01,0.94,2023-09-12-22:34:49,918,1,Experiment,2023-09-12_16h16.04.143,
12,global,global,7,16,4,196,11,202,exp,LNZNFYESSHUXLEY,SYEZTUUNYSLNHZH,5,F,X,fF,yY,t,0,2.5890739001333714,y,1,0.12161929998546839,RSVPLG01,0.94,2023-09-12-22:34:49,918,1,Experiment,2023-09-12_16h16.04.143,
3,local,local,7,16,5,197,2,203,exp,ZHEFNYTSSUTHZEN,NEUZZLHTUEHNXTF,6,L,X,lL,yY,y,0,0.6802611998282373,y,1,0.14080199995078146,RSVPLG01,0.94,2023-09-12-22:34:49,918,1,Experiment,2023-09-12_16h16.04.143,
4,local,global,0,16,6,198,3,204,exp,ZTEYNESYLLFUUFT,TUETHFSYZYSEUZL,5,H,absent,hH,nN,n,0,0.9528230999130756,y,0,0.5698625000659376,RSVPLG01,0.94,2023-09-12-22:34:49,918,1,Experiment,2023-09-12_16h16.04.143,
6,local,global,7,16,7,199,5,205,exp,FLTHENSFHUZXULT,LUZSYUZHFNNLHTT,5,Y,X,yY,yY,f,0,0.4600815000012517,y,1,0.07350569986738265,RSVPLG01,0.94,2023-09-12-22:34:49,918,1,Experiment,2023-09-12_16h16.04.143,
4,local,global,0,16,8,200,3,206,exp,TFYLNFZYSUHUNST,NZYENHTUYSUSFHT,4,E,absent,eE,nN,l,0,0.7338394001126289,y,0,0.12188460002653301,RSVPLG01,0.94,2023-09-12-22:34:49,918,1,Experiment,2023-09-12_16h16.04.143,
2,local,local,3,16,9,201,1,207,exp,ZEYHTTYLLZUNFUE,ULZSYUXNFEYLZNT,4,S,X,sS,yY,h,0,0.7416441000532359,y,1,0.03418110008351505,RSVPLG01,0.94,2023-09-12-22:34:49,918,1,Experiment,2023-09-12_16h16.04.143,
7,global,local,0,16,10,202,6,208,exp,LUSYNFTZNYLUZSE,LNNYSHZZEUYLEUT,6,F,absent,fF,nN,f,1,0.9314133001025766,n,1,0.13771769986487925,RSVPLG01,0.94,2023-09-12-22:34:49,918,1,Experiment,2023-09-12_16h16.04.143,
5,local,global,3,16,11,203,4,209,exp,NZTZEHLXTYHNFLF,LLHYUHTSNTZFNZS,5,U,X,uU,yY,e,0,0.8479624998290092,y,1,0.18285929993726313,RSVPLG01,0.94,2023-09-12-22:34:49,918,1,Experiment,2023-09-12_16h16.04.143,
9,global,local,7,17,0,204,8,210,exp,UYNHTNFFUSHSZZL,ZYNYENFUSFHXLUL,5,T,X,tT,yY,t,1,1.0524802000727504,n,0,0.09201609995216131,RSVPLG01,0.94,2023-09-12-22:34:49,918,1,Experiment,2023-09-12_16h16.04.143,
6,local,global,7,17,1,205,5,211,exp,HLENTUUHSLYXSNF,YSFLZYUEENSHNLU,5,Z,X,zZ,yY,t,0,0.8239384000189602,y,1,0.040603700093925,RSVPLG01,0.94,2023-09-12-22:34:49,918,1,Experiment,2023-09-12_16h16.04.143,
6,local,global,7,17,2,206,5,212,exp,TFZSLUEYNNZYXST,LZNSZHNSTFEELFT,6,H,X,hH,yY,u,0,1.4849017998203635,y,1,0.35414439998567104,RSVPLG01,0.94,2023-09-12-22:34:49,918,1,Experiment,2023-09-12_16h16.04.143,
9,global,local,7,17,3,207,8,213,exp,ELNHSLSYFUYTETF,LFLZUNYTEEXSSUF,4,H,X,hH,yY,n,0,0.6547844000160694,y,1,0.5940441000275314,RSVPLG01,0.94,2023-09-12-22:34:49,918,1,Experiment,2023-09-12_16h16.04.143,
7,global,local,0,17,4,208,6,214,exp,FLEUZYYFZNHSLEH,EZSTFFSYHHLYZNL,4,U,absent,uU,nN,u,1,0.9278954998590052,n,1,0.6552146999165416,RSVPLG01,0.94,2023-09-12-22:34:49,918,1,Experiment,2023-09-12_16h16.04.143,
6,local,global,7,17,5,209,5,215,exp,ZHUZTFSHSYFXNNE,EYUSLHFNZYEZNSH,5,L,X,lL,yY,t,0,0.8668001000769436,y,1,0.011182600166648626,RSVPLG01,0.94,2023-09-12-22:34:49,918,1,Experiment,2023-09-12_16h16.04.143,
10,global,global,0,17,6,210,9,216,exp,LENUZYNSHUZTHEL,LHHZEFTLTUUESSN,6,Y,absent,yY,nN,y,1,1.0536315999925137,n,1,0.12321830005384982,RSVPLG01,0.94,2023-09-12-22:34:49,918,1,Experiment,2023-09-12_16h16.04.143,
2,local,local,3,17,7,211,1,217,exp,LSYFHUHZLYSUTTZ,EHLNZSXHYYEUZUT,4,N,X,nN,yY,f,0,1.4168567000888288,n,0,0.5074797999113798,RSVPLG01,0.94,2023-09-12-22:34:49,918,1,Experiment,2023-09-12_16h16.04.143,
5,local,global,3,17,8,212,4,218,exp,ENFSLHNLXTSYTFZ,ZSFNEULTSYYLZET,6,U,X,uU,yY,h,0,0.9225459001027048,y,1,0.07585379993543029,RSVPLG01,0.94,2023-09-12-22:34:49,918,1,Experiment,2023-09-12_16h16.04.143,
4,local,global,0,17,9,213,3,219,exp,NHHSTUEFNYEFZSU,FEUHLENNSZUSHYY,5,L,absent,lL,nN,t,0,0.9275851000566036,n,1,0.20269239996559918,RSVPLG01,0.94,2023-09-12-22:34:49,918,1,Experiment,2023-09-12_16h16.04.143,
10,global,global,0,17,10,214,9,220,exp,YNELSFUSYENHHFU,EHSZEHYNNTYTFUS,4,L,absent,lL,nN,l,1,0.49060870008543134,y,0,0.1466338001191616,RSVPLG01,0.94,2023-09-12-22:34:49,918,1,Experiment,2023-09-12_16h16.04.143,
9,global,local,7,17,11,215,8,221,exp,NNUELTTSFFZSZYU,YSZFHTEUTYFXZNE,5,L,X,lL,yY,l,1,0.9324483000673354,n,0,0.3365527999121696,RSVPLG01,0.94,2023-09-12-22:34:49,918,1,Experiment,2023-09-12_16h16.04.143,
7,global,local,0,18,0,216,6,222,exp,NFEYHLSLZZEFSUU,LZNETYSFNFZUUYS,5,H,absent,hH,nN,h,1,1.0284491998609155,n,1,0.21220259997062385,RSVPLG01,0.94,2023-09-12-22:34:49,918,1,Experiment,2023-09-12_16h16.04.143,
2,local,local,3,18,1,217,1,223,exp,FHSTEUUHYSZZYLL,SHZFNHFXYTSTZUY,5,N,X,nN,yY,f,0,0.9958080998621881,n,0,0.15291840001009405,RSVPLG01,0.94,2023-09-12-22:34:49,918,1,Experiment,2023-09-12_16h16.04.143,
3,local,local,7,18,2,218,2,224,exp,HEHSNESLYYFLZUZ,SEZUTHLLFUFXZHY,5,T,X,tT,yY,n,0,1.0180599999148399,y,1,0.09329989994876087,RSVPLG01,0.94,2023-09-12-22:34:49,918,1,Experiment,2023-09-12_16h16.04.143,
10,global,global,0,18,3,219,9,225,exp,FFZEUTTHSLHENSZ,SSNNYTLEFTHEHLZ,5,U,absent,uU,nN,u,1,1.3769462001509964,y,0,0.3693351000547409,RSVPLG01,0.94,2023-09-12-22:34:49,918,1,Experiment,2023-09-12_16h16.04.143,
6,local,global,7,18,4,220,5,226,exp,ZEFYTLNZHHXFTUE,HZHSELFUNTEFUZL,4,S,X,sS,yY,y,0,1.2632426000200212,n,0,0.24356249999254942,RSVPLG01,0.94,2023-09-12-22:34:49,918,1,Experiment,2023-09-12_16h16.04.143,
2,local,local,3,18,5,221,1,227,exp,FEUTSYEFZNULZNS,TZLEFHNLXUNTUZE,6,H,X,hH,yY,y,0,0.411532900063321,n,0,0.082028100034222,RSVPLG01,0.94,2023-09-12-22:34:49,918,1,Experiment,2023-09-12_16h16.04.143,
4,local,global,0,18,6,222,3,228,exp,LEEYLHTNZUFFZNU,LETSZHNHFNUZUFT,4,S,absent,sS,nN,y,0,0.5688708000816405,y,0,0.0735982998739928,RSVPLG01,0.94,2023-09-12-22:34:49,918,1,Experiment,2023-09-12_16h16.04.143,
11,global,global,3,18,7,223,10,229,exp,LSHUZZXFLTYTYEE,YFTNHTSZEEHLFZL,4,U,X,uU,yY,u,1,0.8038535001687706,n,0,0.47691489988937974,RSVPLG01,0.94,2023-09-12-22:34:49,918,1,Experiment,2023-09-12_16h16.04.143,
4,local,global,0,18,8,224,3,230,exp,TNYFSEUFUZYZTSH,HNHSFLYTZZYTFUU,6,L,absent,lL,nN,e,0,1.4332185999955982,y,0,0.08257200010120869,RSVPLG01,0.94,2023-09-12-22:34:49,918,1,Experiment,2023-09-12_16h16.04.143,
4,local,global,0,18,9,225,3,231,exp,HTLUZZYSNFHNYLS,NFHEZNSFTTLZYLY,4,E,absent,eE,nN,u,0,0.9206710001453757,y,0,0.08278269995935261,RSVPLG01,0.94,2023-09-12-22:34:49,918,1,Experiment,2023-09-12_16h16.04.143,
4,local,global,0,18,10,226,3,232,exp,EYFZSFTYHUHSTUE,THYNFLUEYTUFSLE,4,N,absent,nN,nN,z,0,0.9028259001206607,n,1,0.17796729994006455,RSVPLG01,0.94,2023-09-12-22:34:49,918,1,Experiment,2023-09-12_16h16.04.143,
3,local,local,7,18,11,227,2,233,exp,YLZNYSZTLUHTHEN,TYEUZFNUHLHNXYE,6,F,X,fF,yY,s,0,1.0226165000349283,y,1,1.179699000203982,RSVPLG01,0.94,2023-09-12-22:34:49,918,1,Experiment,2023-09-12_16h16.04.143,
4,local,global,0,19,0,228,3,234,exp,UYNNHETYSFTFZZU,HNFSSLYNUHZTYZT,6,L,absent,lL,nN,e,0,0.6633943999186158,y,0,0.1279712999239564,RSVPLG01,0.94,2023-09-12-22:34:49,918,1,Experiment,2023-09-12_16h16.04.143,
2,local,local,3,19,1,229,1,235,exp,SUNLETYUSYZHTNZ,ZNSFYTXZUTYEUSE,4,F,X,fF,yY,l,0,0.43505980004556477,y,1,0.16507049999199808,RSVPLG01,0.94,2023-09-12-22:34:49,918,1,Experiment,2023-09-12_16h16.04.143,
1,local,local,0,19,2,230,0,236,exp,TLEZLSNUNESUYTY,TSFHNFEUTLSLYNE,4,H,absent,hH,nN,z,0,0.727500099921599,y,0,0.2263624998740852,RSVPLG01,0.94,2023-09-12-22:34:49,918,1,Experiment,2023-09-12_16h16.04.143,
9,global,local,7,19,3,231,8,237,exp,LEZNSYYFHTENTFL,FNLTUNYYTEHXHLE,5,S,X,sS,yY,s,1,0.6796157001517713,n,0,1.4467249000445008,RSVPLG01,0.94,2023-09-12-22:34:49,918,1,Experiment,2023-09-12_16h16.04.143,
10,global,global,0,19,4,232,9,238,exp,TUYNZFTHUZSYHEF,ETYLFFEUZHYHZUS,4,N,absent,nN,nN,n,1,0.5793701000511646,y,0,0.6419329999480397,RSVPLG01,0.94,2023-09-12-22:34:49,918,1,Experiment,2023-09-12_16h16.04.143,
3,local,local,7,19,5,233,2,239,exp,HULZFLHTNNEZYUY,LTYESETUHNHXNYL,5,S,X,sS,yY,f,0,0.6856728999409825,y,1,0.12381089990958571,RSVPLG01,0.94,2023-09-12-22:34:49,918,1,Experiment,2023-09-12_16h16.04.143,
5,local,global,3,19,6,234,4,240,exp,UZSHTFFXHESENZY,EZHSLNSFFUNYHZU,5,L,X,lL,yY,t,0,1.367939000017941,n,0,0.18585740006528795,RSVPLG01,0.94,2023-09-12-22:34:49,918,1,Experiment,2023-09-12_16h16.04.143,
6,local,global,7,19,7,235,5,241,exp,SNEZHTSZNEHFXLY,NHNYYUZLLFSZEFS,6,U,X,uU,yY,t,0,0.8678894999902695,y,1,0.13441559998318553,RSVPLG01,0.94,2023-09-12-22:34:49,918,1,Experiment,2023-09-12_16h16.04.143,
8,global,local,3,19,8,236,7,242,exp,SZLNHESFTEFYNYZ,SYLLUZSXNEFYEZT,5,H,X,hH,yY,h,1,0.937637799885124,n,0,0.4236580999568105,RSVPLG01,0.94,2023-09-12-22:34:49,918,1,Experiment,2023-09-12_16h16.04.143,
11,global,global,3,19,9,237,10,243,exp,LTHZYSEXSUHTENN,ZLNSFLTZHHUNTUS,5,Y,X,yY,yY,y,1,0.8393935998901725,n,0,0.2510085999965668,RSVPLG01,0.94,2023-09-12-22:34:49,918,1,Experiment,2023-09-12_16h16.04.143,
12,global,global,7,19,10,238,11,244,exp,ZYFFHNUEUYTXNZL,EEYNSZFULNUTTYL,5,H,X,hH,yY,n,0,1.445882499916479,y,1,0.4260505000129342,RSVPLG01,0.94,2023-09-12-22:34:49,918,1,Experiment,2023-09-12_16h16.04.143,
8,global,local,3,19,11,239,7,245,exp,YFHNZUUEHLESLSN,LUEHTHLXFNEYUSN,5,Z,X,zZ,yY,z,1,1.1866365999449044,y,1,0.28061260003596544,RSVPLG01,0.94,2023-09-12-22:34:49,918,1,Experiment,2023-09-12_16h16.04.143,
