row,t1_level,t2_level,t2_lag,.thisRepN,.thisTrialN,.thisN,.thisIndex,trial,trial_type,global_letters,local_letters,t1_pos,t1,t2,t1_corr,t2_corr,t1_resp,t1_acc,t1_rt,t2_resp,t2_acc,t2_rt,exp,ver,mod-utc,sub,sess,blocktyp,datetime,
11,global,global,3,0,0,0,10,1,warmup,ZHZSYFEXHUUETNS,TSZULNSNFHEETZU,5,Y,X,yY,yY,y,1,1.2874487999943085,n,0,0.8314966000034474,RSVPLG01,0.94,2023-09-12-22:25:06,910,1,Experiment,2023-09-12_15h40.05.672,
4,local,global,0,0,1,1,3,2,warmup,TELYSNNLZFZTUUF,FTNHSNSEUZFZTUE,4,H,absent,hH,nN,h,1,1.1868344999966212,n,1,0.6596718999790028,RSVPLG01,0.94,2023-09-12-22:25:06,910,1,Experiment,2023-09-12_15h40.05.672,
7,global,local,0,0,2,2,6,3,warmup,NFUYSTLHZNHZUFY,FSZZHESLFYNHUUY,6,T,absent,tT,nN,u,0,2.979761300026439,n,1,0.7259152000187896,RSVPLG01,0.94,2023-09-12-22:25:06,910,1,Experiment,2023-09-12_15h40.05.672,
8,global,local,3,0,3,3,7,4,warmup,SLYUFLHSTEZZTUE,HTLUNHEXLZSUEYT,5,F,X,fF,yY,f,1,1.0590495999786071,n,0,0.6946798000135459,RSVPLG01,0.94,2023-09-12-22:25:06,910,1,Experiment,2023-09-12_15h40.05.672,
10,global,global,0,0,4,4,9,5,warmup,NLTZHZNLFTFEYYE,LENLSTUZUEYYTNF,5,H,absent,hH,nN,h,1,4.20341830002144,n,1,0.932430699991528,RSVPLG01,0.94,2023-09-12-22:25:06,910,1,Experiment,2023-09-12_15h40.05.672,
2,local,local,3,0,0,0,1,6,exp,UHSYNFUSLFYLETH,USYLZFEXHETLYTH,5,Z,X,zZ,yY,z,1,1.3324253000319004,y,1,1.8476883000112139,RSVPLG01,0.94,2023-09-12-22:25:06,910,1,Experiment,2023-09-12_15h40.05.672,
9,global,local,7,0,1,1,8,7,exp,LSTLZYETSEHFUHU,EYHFNUHETLUXYTF,5,Z,X,zZ,yY,z,1,1.261264199973084,n,0,0.6183587000123225,RSVPLG01,0.94,2023-09-12-22:25:06,910,1,Experiment,2023-09-12_15h40.05.672,
6,local,global,7,0,2,2,5,8,exp,FSNYSTHNZHXFTUL,SLTELSZUHNFZFUT,4,E,X,eE,yY,e,1,1.139376099978108,n,0,0.9276479000109248,RSVPLG01,0.94,2023-09-12-22:25:06,910,1,Experiment,2023-09-12_15h40.05.672,
2,local,local,3,0,3,3,1,9,exp,YZYZHEFEFSNUSNL,NLZZTUEXUENSYSL,5,T,X,tT,yY,t,1,1.0556592000066303,n,0,0.5278599000303075,RSVPLG01,0.94,2023-09-12-22:25:06,910,1,Experiment,2023-09-12_15h40.05.672,
12,global,global,7,0,4,4,11,10,exp,LHSTYYUUHSXLZFF,HLLEHFYFYNNUZSU,4,T,X,tT,yY,t,1,0.9525401000282727,n,0,0.3867395999841392,RSVPLG01,0.94,2023-09-12-22:25:06,910,1,Experiment,2023-09-12_15h40.05.672,
8,global,local,3,0,5,5,7,11,exp,UENFZLHLHFSNUET,FHNFYETXLSLTNHS,5,Z,X,zZ,yY,z,1,0.9077854999923147,y,1,2.001161399995908,RSVPLG01,0.94,2023-09-12-22:25:06,910,1,Experiment,2023-09-12_15h40.05.672,
1,local,local,0,0,6,6,0,12,exp,NFSUHTTZNHESYZE,TSFLHTNYZHSFYNE,4,L,absent,lL,nN,t,0,1.1865142000024207,n,1,0.5083492999547161,RSVPLG01,0.94,2023-09-12-22:25:06,910,1,Experiment,2023-09-12_15h40.05.672,
2,local,local,3,0,7,7,1,13,exp,YSUFZZESTHHEYLL,HEZNYYXLHSZLESU,4,N,X,nN,yY,n,1,1.0987292000208981,n,0,0.3640386000042781,RSVPLG01,0.94,2023-09-12-22:25:06,910,1,Experiment,2023-09-12_15h40.05.672,
1,local,local,0,0,8,8,0,14,exp,SESNZTNHYUUHETY,EUYFLNSHTNUSYTH,5,L,absent,lL,nN,f,0,1.9874307999853045,n,1,0.4966388000175357,RSVPLG01,0.94,2023-09-12-22:25:06,910,1,Experiment,2023-09-12_15h40.05.672,
2,local,local,3,0,9,9,1,15,exp,NHLTEFLUUZHETZN,NLTENSULXUEYZHZ,6,S,X,sS,yY,s,1,1.2806893000379205,n,0,0.4707331000245176,RSVPLG01,0.94,2023-09-12-22:25:06,910,1,Experiment,2023-09-12_15h40.05.672,
11,global,global,3,0,10,10,10,16,exp,LUHSZEXUFFYYHEZ,HFFNZTYLEYUETUL,4,S,X,sS,yY,s,1,1.0162794000352733,n,0,0.43446190003305674,RSVPLG01,0.94,2023-09-12-22:25:06,910,1,Experiment,2023-09-12_15h40.05.672,
5,local,global,3,0,11,11,4,17,exp,YZNYTFLXSUUZFLN,SZYFEFZLHUYNSLH,5,E,X,eE,yY,e,1,1.110731000022497,n,0,0.37690410000504926,RSVPLG01,0.94,2023-09-12-22:25:06,910,1,Experiment,2023-09-12_15h40.05.672,
8,global,local,3,1,0,12,7,18,exp,YUFZNHYUTSNFESE,FUHLNSXTEYHNEYS,4,Z,X,zZ,yY,z,1,2.394675699993968,n,0,0.290529299993068,RSVPLG01,0.94,2023-09-12-22:25:06,910,1,Experiment,2023-09-12_15h40.05.672,
12,global,global,7,1,1,13,11,19,exp,HUFLSLNYUHEXZNZ,EHFZTLFHZNUULYY,5,S,X,sS,yY,s,1,1.4977972999913618,n,0,0.24303579999832436,RSVPLG01,0.94,2023-09-12-22:25:06,910,1,Experiment,2023-09-12_15h40.05.672,
4,local,global,0,1,2,14,3,20,exp,NEZTYSUUSZHFYEH,SUULFNHYENSHZEF,4,L,absent,lL,nN,l,1,1.0924180000438355,n,1,0.31118869996862486,RSVPLG01,0.94,2023-09-12-22:25:06,910,1,Experiment,2023-09-12_15h40.05.672,
5,local,global,3,1,3,15,4,21,exp,ESHFZTZHXSYFNLL,HYSFZUNELYLEHNZ,6,U,X,uU,yY,u,1,1.076372999988962,n,0,0.3971836999990046,RSVPLG01,0.94,2023-09-12-22:25:06,910,1,Experiment,2023-09-12_15h40.05.672,
5,local,global,3,1,4,16,4,22,exp,ZNEHLSFEXTYTNZY,FLTZHUNEFZTYLHN,6,U,X,uU,yY,u,1,1.0322000000160187,n,0,0.1065713000134565,RSVPLG01,0.94,2023-09-12-22:25:06,910,1,Experiment,2023-09-12_15h40.05.672,
3,local,local,7,1,5,17,2,23,exp,TFYLHUSNFESHLNE,ESLHNZYNLYHSXFT,6,Z,X,zZ,yY,z,1,0.9376099000219256,n,0,0.45838490000460297,RSVPLG01,0.94,2023-09-12-22:25:06,910,1,Experiment,2023-09-12_15h40.05.672,
10,global,global,0,1,6,18,9,24,exp,NSYHZFLLSHZUNYU,SUHYNTZLEEUYZNH,6,F,absent,fF,nN,f,1,1.0875591999501921,n,1,0.3535165999783203,RSVPLG01,0.94,2023-09-12-22:25:06,910,1,Experiment,2023-09-12_15h40.05.672,
11,global,global,3,1,7,19,10,25,exp,NFTYHUEXZZLYFEN,EYUNSLFZTLTNEYZ,5,H,X,hH,yY,h,1,0.9433744999696501,n,0,0.3143724999972619,RSVPLG01,0.94,2023-09-12-22:25:06,910,1,Experiment,2023-09-12_15h40.05.672,
10,global,global,0,1,8,20,9,26,exp,TUZYNLUFHYZTHNF,YHZYFENFUTHSNSU,6,L,absent,lL,nN,l,1,1.5757835999829695,n,1,0.4802072999882512,RSVPLG01,0.94,2023-09-12-22:25:06,910,1,Experiment,2023-09-12_15h40.05.672,
4,local,global,0,1,9,21,3,27,exp,SEYTNSTHYZUUHLZ,HHTUFYLULSEZZTS,5,F,absent,fF,nN,f,1,0.9668096000095829,n,1,0.39449470001272857,RSVPLG01,0.94,2023-09-12-22:25:06,910,1,Experiment,2023-09-12_15h40.05.672,
12,global,global,7,1,10,22,11,28,exp,NEYTHUYTUZNXFES,TEYFLZNSZSFNUEY,5,H,X,hH,yY,h,1,1.7743809999665245,n,0,1.188831199950073,RSVPLG01,0.94,2023-09-12-22:25:06,910,1,Experiment,2023-09-12_15h40.05.672,
12,global,global,7,1,11,23,11,29,exp,LUSZSNFTNHXLEFE,SFLYETEUHTFSLNN,4,Z,X,zZ,yY,z,1,0.8893135999678634,n,0,0.3062190000200644,RSVPLG01,0.94,2023-09-12-22:25:06,910,1,Experiment,2023-09-12_15h40.05.672,
3,local,local,7,2,0,24,2,30,exp,FLNEYTLUEUZHNTF,TLFZSFEULZNXUET,5,S,X,sS,yY,s,1,1.1110849999822676,y,1,20.882559399993625,RSVPLG01,0.94,2023-09-12-22:25:06,910,1,Experiment,2023-09-12_15h40.05.672,
10,global,global,0,2,1,25,9,31,exp,EULLYSZSFNUNHZE,ZHLZTNLHSFFNEEU,5,Y,absent,yY,nN,y,1,1.177435500023421,n,1,0.18621080002048984,RSVPLG01,0.94,2023-09-12-22:25:06,910,1,Experiment,2023-09-12_15h40.05.672,
5,local,global,3,2,2,26,4,32,exp,SNLFEUXLTZEUZNH,TLUYSZZEHHNEUTS,4,Y,X,yY,yY,y,1,0.8140127999940887,n,0,0.2573905999888666,RSVPLG01,0.94,2023-09-12-22:25:06,910,1,Experiment,2023-09-12_15h40.05.672,
11,global,global,3,2,3,27,10,33,exp,ELUNLYXZTUHTZFH,YEZSLUHELUZTFYT,4,N,X,nN,yY,n,1,1.0976507000159472,n,0,0.3714527999982238,RSVPLG01,0.94,2023-09-12-22:25:06,910,1,Experiment,2023-09-12_15h40.05.672,
2,local,local,3,2,4,28,1,34,exp,YSSEFNTZELTHZFL,YFEHLUETXTZSFLH,6,U,X,uU,yY,u,1,8.168157399981283,y,1,0.3023694999865256,RSVPLG01,0.94,2023-09-12-22:25:06,910,1,Experiment,2023-09-12_15h40.05.672,
5,local,global,3,2,5,29,4,35,exp,UYTSNESNXZLZHHL,ZYNHYFUSLSULNTH,6,F,X,fF,yY,y,0,1.3170888000167906,n,0,0.4095295000006445,RSVPLG01,0.94,2023-09-12-22:25:06,910,1,Experiment,2023-09-12_15h40.05.672,
1,local,local,0,2,6,30,0,36,exp,ELNHLUUTNSTFSZZ,TLZYZEUFSNUTFSL,4,Y,absent,yY,nN,y,1,0.9782780999667011,n,1,0.3069565999903716,RSVPLG01,0.94,2023-09-12-22:25:06,910,1,Experiment,2023-09-12_15h40.05.672,
7,global,local,0,2,7,31,6,37,exp,EHESUHTFLYNTYFS,TEHLZHNYFNLEFSY,5,U,absent,uU,nN,u,1,0.922303200000897,n,1,0.22891849995357916,RSVPLG01,0.94,2023-09-12-22:25:06,910,1,Experiment,2023-09-12_15h40.05.672,
12,global,global,7,2,8,32,11,38,exp,NLHSLENEHZXTTUU,TZEYEFNUZUFLNLH,4,S,X,sS,yY,s,1,0.7423353999620304,n,0,0.4742736000334844,RSVPLG01,0.94,2023-09-12-22:25:06,910,1,Experiment,2023-09-12_15h40.05.672,
8,global,local,3,2,9,33,7,39,exp,HTESYNFLHFEZLTN,ESTNUZFXZLETFHN,5,Y,X,yY,yY,y,1,1.0213463000254706,n,0,0.13797949999570847,RSVPLG01,0.94,2023-09-12-22:25:06,910,1,Experiment,2023-09-12_15h40.05.672,
1,local,local,0,2,10,34,0,40,exp,UETNZELYUHYTNSL,HLYSFTTSEHYNNLU,5,F,absent,fF,nN,z,0,0.9161419000010937,n,1,0.4789792000083253,RSVPLG01,0.94,2023-09-12-22:25:06,910,1,Experiment,2023-09-12_15h40.05.672,
2,local,local,3,2,11,35,1,41,exp,YNZLULFNHZEHTEY,YLZFSNHXTZHTFYE,5,S,X,sS,yY,s,1,0.7495880000060424,y,1,0.4419295000261627,RSVPLG01,0.94,2023-09-12-22:25:06,910,1,Experiment,2023-09-12_15h40.05.672,
10,global,global,0,3,0,36,9,42,exp,UNYSLFEHUTEYHTL,EFUZENHTLHYLTUY,4,S,absent,sS,nN,s,1,1.1182097000419162,n,1,0.5911286000045948,RSVPLG01,0.94,2023-09-12-22:25:06,910,1,Experiment,2023-09-12_15h40.05.672,
7,global,local,0,3,1,37,6,43,exp,HSZHYEZTTFENFUS,HNSELFTUNUFESTH,5,Y,absent,yY,nN,y,1,0.8973843999556266,n,1,0.2997911000275053,RSVPLG01,0.94,2023-09-12-22:25:06,910,1,Experiment,2023-09-12_15h40.05.672,
9,global,local,7,3,2,38,8,44,exp,UEESYNSHZUTLHZN,EHHZFTEUNNLXSTS,5,Y,X,yY,yY,y,1,0.9190392000018619,y,1,0.40987450000829995,RSVPLG01,0.94,2023-09-12-22:25:06,910,1,Experiment,2023-09-12_15h40.05.672,
9,global,local,7,3,3,39,8,45,exp,YTNZTEZUUFYSHNH,ZHYNTLUSYUTNXHF,6,E,X,eE,yY,e,1,0.9745837000082247,y,1,0.2970516999484971,RSVPLG01,0.94,2023-09-12-22:25:06,910,1,Experiment,2023-09-12_15h40.05.672,
8,global,local,3,3,4,40,7,46,exp,TTUZNLEZEFYHHYF,TFFTESNUXHZHEYY,6,L,X,lL,yY,l,1,1.2027124000014737,y,1,0.4854724999750033,RSVPLG01,0.94,2023-09-12-22:25:06,910,1,Experiment,2023-09-12_15h40.05.672,
5,local,global,3,3,5,41,4,47,exp,EFSUNHUEXLNTLZT,UTUSSYZFZLENLET,6,Y,X,yY,yY,y,1,0.9815503999707289,n,0,0.250199000001885,RSVPLG01,0.94,2023-09-12-22:25:06,910,1,Experiment,2023-09-12_15h40.05.672,
8,global,local,3,3,6,42,7,48,exp,YNTULYEZHZNTSSE,UZHYFSTXZHTUENS,5,L,X,lL,yY,l,1,1.2398713000002317,n,0,0.24247549998108298,RSVPLG01,0.94,2023-09-12-22:25:06,910,1,Experiment,2023-09-12_15h40.05.672,
12,global,global,7,3,7,43,11,49,exp,ZYTHLNLTFFXYZNU,SFYENZTZLUSNYUT,4,H,X,hH,yY,h,1,0.8425442999578081,y,1,0.15423859999282286,RSVPLG01,0.94,2023-09-12-22:25:06,910,1,Experiment,2023-09-12_15h40.05.672,
11,global,global,3,3,8,44,10,50,exp,FNUEZTFZXENHSYH,UEUNHLHSFNEFZYS,6,T,X,tT,yY,t,1,1.1275033000274561,n,0,0.31422129995189607,RSVPLG01,0.94,2023-09-12-22:25:06,910,1,Experiment,2023-09-12_15h40.05.672,
10,global,global,0,3,9,45,9,51,exp,ZTETYNLZHYUUHLS,YHZSEFUUZHLSTEY,6,N,absent,nN,nN,n,1,1.0685576000250876,n,1,0.18549720000009984,RSVPLG01,0.94,2023-09-12-22:25:06,910,1,Experiment,2023-09-12_15h40.05.672,
4,local,global,0,3,10,46,3,52,exp,YZHNHEFZYSTTEUF,YZSLFSFHEUHTYZE,4,L,absent,lL,nN,l,1,1.054608599981293,n,1,0.2176931999856606,RSVPLG01,0.94,2023-09-12-22:25:06,910,1,Experiment,2023-09-12_15h40.05.672,
6,local,global,7,3,11,47,5,53,exp,LTFZEHYYUSXLUFE,SLFNLUHFUYTETSE,4,N,X,nN,yY,l,0,1.481858400045894,n,0,0.2903208000352606,RSVPLG01,0.94,2023-09-12-22:25:06,910,1,Experiment,2023-09-12_15h40.05.672,
8,global,local,3,4,0,48,7,54,exp,FUNTLHSUHNZFLSZ,NZHEUUXFSLNYFHY,4,T,X,tT,yY,t,1,0.9881644999841228,n,0,0.23490209999727085,RSVPLG01,0.94,2023-09-12-22:25:06,910,1,Experiment,2023-09-12_15h40.05.672,
3,local,local,7,4,1,49,2,55,exp,HYEUETZZNFULHNL,YEFLHSYZNUEUXFH,6,S,X,sS,yY,s,1,0.9146115999901667,y,1,0.43442909995792434,RSVPLG01,0.94,2023-09-12-22:25:06,910,1,Experiment,2023-09-12_15h40.05.672,
12,global,global,7,4,2,50,11,56,exp,ZLHFHUUYNTXELET,NZLSHYEZNUTETHL,4,F,X,fF,yY,f,1,0.8210015999502502,y,1,0.5930773000000045,RSVPLG01,0.94,2023-09-12-22:25:06,910,1,Experiment,2023-09-12_15h40.05.672,
7,global,local,0,4,3,51,6,57,exp,NNUFTYEZUTLESFL,ELESNHTLSUUNZFF,6,Y,absent,yY,nN,y,1,0.863328100007493,n,1,0.2051977000082843,RSVPLG01,0.94,2023-09-12-22:25:06,910,1,Experiment,2023-09-12_15h40.05.672,
4,local,global,0,4,4,52,3,58,exp,ENEHSLNYUTHUTLF,LUEFZELHYTTUHYN,5,Z,absent,zZ,nN,z,1,0.9707584999850951,n,1,0.361385700001847,RSVPLG01,0.94,2023-09-12-22:25:06,910,1,Experiment,2023-09-12_15h40.05.672,
3,local,local,7,4,5,53,2,59,exp,HULSZEUYFNSYENH,HUHSTLULNYFXSFE,5,T,X,tT,yY,l,0,0.9189159999950789,n,0,0.25823470001341775,RSVPLG01,0.94,2023-09-12-22:25:06,910,1,Experiment,2023-09-12_15h40.05.672,
7,global,local,0,4,6,54,6,60,exp,ZYNEEFHUUZSTHNT,YEUZELHSNUYSTZH,6,F,absent,fF,nN,f,1,0.9210589000140317,n,1,0.32404660002794117,RSVPLG01,0.94,2023-09-12-22:25:06,910,1,Experiment,2023-09-12_15h40.05.672,
1,local,local,0,4,7,55,0,61,exp,UNHSFYZNEUEZYST,UEYSLHTENTUZHZS,5,L,absent,lL,nN,l,1,0.9076831999700516,n,1,0.1859175999998115,RSVPLG01,0.94,2023-09-12-22:25:06,910,1,Experiment,2023-09-12_15h40.05.672,
2,local,local,3,4,8,56,1,62,exp,TFNZYUEYLHLENHT,FLYEESZHXFZTTNL,6,S,X,sS,yY,s,1,0.937199599982705,n,0,0.3950450999545865,RSVPLG01,0.94,2023-09-12-22:25:06,910,1,Experiment,2023-09-12_15h40.05.672,
3,local,local,7,4,9,57,2,63,exp,HYFLZFNTUTYULEN,UHUFSNEYLTYXHET,5,S,X,sS,yY,s,1,0.6508849999518134,y,1,0.5679817000054754,RSVPLG01,0.94,2023-09-12-22:25:06,910,1,Experiment,2023-09-12_15h40.05.672,
10,global,global,0,4,10,58,9,64,exp,ZYUTUFZTNEEHSNY,NUSZYLYHNTEESHT,6,F,absent,fF,nN,f,1,0.96670799999265,n,1,0.23393089999444783,RSVPLG01,0.94,2023-09-12-22:25:06,910,1,Experiment,2023-09-12_15h40.05.672,
1,local,local,0,4,11,59,0,65,exp,ZUEYLETHZNSTSUN,ZHUSFHSTUYYZEET,5,F,absent,fF,nN,h,0,1.010063799971249,y,0,0.049454000021796674,RSVPLG01,0.94,2023-09-12-22:25:06,910,1,Experiment,2023-09-12_15h40.05.672,
3,local,local,7,5,0,60,2,66,exp,TZLLEUFSTZSHFYH,ZUZLNSHFLSHXTYU,5,N,X,nN,yY,s,0,0.8558395999716595,y,1,0.3694490999914706,RSVPLG01,0.94,2023-09-12-22:25:06,910,1,Experiment,2023-09-12_15h40.05.672,
1,local,local,0,5,1,61,0,67,exp,HYSYLEUFZTZHSTE,YZZUNTSEFHHSEYU,5,N,absent,nN,nN,y,0,0.6290390999638475,n,1,2.8354381000390276,RSVPLG01,0.94,2023-09-12-22:25:06,910,1,Experiment,2023-09-12_15h40.05.672,
12,global,global,7,5,2,62,11,68,exp,SSNZYHZUFHFXETN,FEUULETFZNHSZNH,5,Y,X,yY,yY,y,1,0.8594134000013582,n,0,0.05131869995966554,RSVPLG01,0.94,2023-09-12-22:25:06,910,1,Experiment,2023-09-12_15h40.05.672,
2,local,local,3,5,3,63,1,69,exp,EUNLYESUZYHTTZS,YTZFNHXUNUSSTEZ,4,F,X,fF,yY,f,1,1.336944599985145,y,1,1.6688145999796689,RSVPLG01,0.94,2023-09-12-22:25:06,910,1,Experiment,2023-09-12_15h40.05.672,
2,local,local,3,5,4,64,1,70,exp,SLZTZUNEYNSTHLH,LZLESFNHXHTTSNE,6,F,X,fF,yY,f,1,0.9587698000250384,n,0,0.28606690000742674,RSVPLG01,0.94,2023-09-12-22:25:06,910,1,Experiment,2023-09-12_15h40.05.672,
7,global,local,0,5,5,65,6,71,exp,TNZSYLTFUSYEEUN,TYNEEHYZFUTNUZS,6,L,absent,lL,nN,l,1,1.0341911999857984,n,1,0.2820342999766581,RSVPLG01,0.94,2023-09-12-22:25:06,910,1,Experiment,2023-09-12_15h40.05.672,
9,global,local,7,5,6,66,8,72,exp,YYSHTZSEFHULTEF,LUYUENLSHTFSXEF,6,Z,X,zZ,yY,z,1,0.8460843999637291,y,1,0.2623238999512978,RSVPLG01,0.94,2023-09-12-22:25:06,910,1,Experiment,2023-09-12_15h40.05.672,
6,local,global,7,5,7,67,5,73,exp,ZLUUTNYFZLTSXES,YLZSFHSETUFUYEL,6,H,X,hH,yY,h,1,1.1454363000229932,y,1,0.026480400003492832,RSVPLG01,0.94,2023-09-12-22:25:06,910,1,Experiment,2023-09-12_15h40.05.672,
11,global,global,3,5,8,68,10,74,exp,NTYSLSFXUYHZZNH,HYZTENSUTSFNYHF,5,L,X,lL,yY,l,1,0.9276853000046685,y,1,0.5225172999780625,RSVPLG01,0.94,2023-09-12-22:25:06,910,1,Experiment,2023-09-12_15h40.05.672,
9,global,local,7,5,9,69,8,75,exp,LHLFEZZYTYUHTSS,HYLNZLEZETXUSTY,4,F,X,fF,yY,f,1,0.8822156999958679,y,1,0.2012028000317514,RSVPLG01,0.94,2023-09-12-22:25:06,910,1,Experiment,2023-09-12_15h40.05.672,
11,global,global,3,5,10,70,10,76,exp,TLFYEFXEHSHNNUU,SUUZFFLNSEEHLTT,4,Y,X,yY,yY,y,1,1.05679980001878,n,0,0.20214670000132173,RSVPLG01,0.94,2023-09-12-22:25:06,910,1,Experiment,2023-09-12_15h40.05.672,
10,global,global,0,5,11,71,9,77,exp,TTSHLFUSLUENEZF,UTNYLSFEESFZNZT,4,H,absent,hH,nN,h,1,0.8472564000403509,n,1,0.17109020001953468,RSVPLG01,0.94,2023-09-12-22:25:06,910,1,Experiment,2023-09-12_15h40.05.672,
4,local,global,0,6,0,72,3,78,exp,ZLSTUYESUNLHNTH,SHZULFUHETELSNT,6,F,absent,fF,nN,f,1,0.9925797999603674,n,1,0.23405669996282086,RSVPLG01,0.94,2023-09-12-22:25:06,910,1,Experiment,2023-09-12_15h40.05.672,
6,local,global,7,6,1,73,5,79,exp,YSTHZEFFLYNXSNT,EETSUHNNSFTFYLL,5,U,X,uU,yY,u,1,1.0752510000020266,n,0,0.09752529999241233,RSVPLG01,0.94,2023-09-12-22:25:06,910,1,Experiment,2023-09-12_15h40.05.672,
6,local,global,7,6,2,74,5,80,exp,ZFTLUSFUEYXSYEZ,UEYHFYFUZTTSSEN,4,H,X,hH,yY,h,1,1.1695180999813601,n,0,0.13667600002372637,RSVPLG01,0.94,2023-09-12-22:25:06,910,1,Experiment,2023-09-12_15h40.05.672,
4,local,global,0,6,3,75,3,81,exp,NHLUSFNLYUHTYFE,TYNEZNHFYLFEUUH,5,Z,absent,zZ,nN,f,0,0.9077262000064366,n,1,0.20331939996685833,RSVPLG01,0.94,2023-09-12-22:25:06,910,1,Experiment,2023-09-12_15h40.05.672,
12,global,global,7,6,4,76,11,82,exp,FSYHUZYNHZFXETE,EEFZLYSTSZNFYNH,5,U,X,uU,yY,u,1,1.0067609999678098,n,0,0.19506689999252558,RSVPLG01,0.94,2023-09-12-22:25:06,910,1,Experiment,2023-09-12_15h40.05.672,
12,global,global,7,6,5,77,11,83,exp,FTZSUYHNYSEXHFE,TYSZLFNHYENEFSZ,5,U,X,uU,yY,u,1,0.753029300016351,n,0,0.017584099958185107,RSVPLG01,0.94,2023-09-12-22:25:06,910,1,Experiment,2023-09-12_15h40.05.672,
3,local,local,7,6,6,78,2,84,exp,LZNHYTUEUZYFFNH,ZLYUNSFLZNHEXFU,6,S,X,sS,yY,s,1,1.1899797999649309,y,1,0.19419109995942563,RSVPLG01,0.94,2023-09-12-22:25:06,910,1,Experiment,2023-09-12_15h40.05.672,
5,local,global,3,6,7,79,4,85,exp,UZUNFLTSXHNFZHT,FSHTYEHUNUZTZYS,6,E,X,eE,yY,e,1,1.3529460999998264,y,1,0.352330100024119,RSVPLG01,0.94,2023-09-12-22:25:06,910,1,Experiment,2023-09-12_15h40.05.672,
6,local,global,7,6,8,80,5,86,exp,NSUNTHEHYLEXFFU,SLNFZEFSNHHYEUU,5,Z,X,zZ,yY,f,0,0.9206925999606028,y,1,0.22012339998036623,RSVPLG01,0.94,2023-09-12-22:25:06,910,1,Experiment,2023-09-12_15h40.05.672,
11,global,global,3,6,9,81,10,87,exp,SEULTYZSXZHEHUT,SESFUNZLHZLHTTF,6,Y,X,yY,yY,y,1,0.8675263999612071,n,0,0.09377340000355616,RSVPLG01,0.94,2023-09-12-22:25:06,910,1,Experiment,2023-09-12_15h40.05.672,
1,local,local,0,6,10,82,0,88,exp,YLFHTFHSZESEULY,LYFYNEESUUFHZSL,5,N,absent,nN,nN,n,1,1.1047444000141695,n,1,0.18168510001851246,RSVPLG01,0.94,2023-09-12-22:25:06,910,1,Experiment,2023-09-12_15h40.05.672,
3,local,local,7,6,11,83,2,89,exp,STEEULZYSTNLFFY,NZLYHFYETNEXFLS,5,H,X,hH,yY,h,1,1.0743165999883786,y,1,0.04295640002237633,RSVPLG01,0.94,2023-09-12-22:25:06,910,1,Experiment,2023-09-12_15h40.05.672,
6,local,global,7,7,0,84,5,90,exp,HTUNLEFLZFXHZSS,ZLTYUEHLSHFZUTE,4,Y,X,yY,yY,y,1,1.0028807999915443,n,0,0.25832120003178716,RSVPLG01,0.94,2023-09-12-22:25:06,910,1,Experiment,2023-09-12_15h40.05.672,
1,local,local,0,7,1,85,0,91,exp,ESHSNYLNLFETUUT,LFFULZHTEEUSNHN,6,Z,absent,zZ,nN,y,0,0.9626814000075683,y,0,0.43295809999108315,RSVPLG01,0.94,2023-09-12-22:25:06,910,1,Experiment,2023-09-12_15h40.05.672,
10,global,global,0,7,2,86,9,92,exp,YELUFNHHNSZYFES,ZZYTNFHYSHLELFE,4,U,absent,uU,nN,u,1,0.528178200009279,n,1,0.25961270002881065,RSVPLG01,0.94,2023-09-12-22:25:06,910,1,Experiment,2023-09-12_15h40.05.672,
4,local,global,0,7,3,87,3,93,exp,YZSLTESUUHYNTZN,NHUFETYUESZSHYZ,4,F,absent,fF,nN,f,1,1.344304300029762,n,1,1.4068085000035353,RSVPLG01,0.94,2023-09-12-22:25:06,910,1,Experiment,2023-09-12_15h40.05.672,
4,local,global,0,7,4,88,3,94,exp,LHNEFSHLTTZYNYF,NTFULHSNYHZFYSZ,4,U,absent,uU,nN,u,1,1.3938093000324443,y,0,0.5749252999667078,RSVPLG01,0.94,2023-09-12-22:25:06,910,1,Experiment,2023-09-12_15h40.05.672,
8,global,local,3,7,5,89,7,95,exp,NLYTYLSFSUNHZHZ,YSNEUSXLHUZYFZH,4,T,X,tT,yY,t,1,1.130828500026837,y,1,0.3696641999995336,RSVPLG01,0.94,2023-09-12-22:25:06,910,1,Experiment,2023-09-12_15h40.05.672,
2,local,local,3,7,6,90,1,96,exp,FFUYZSZLNUSTLEN,ULNHLZXZETTFEFS,4,H,X,hH,yY,y,0,1.4364830999984406,n,0,0.9559770000050776,RSVPLG01,0.94,2023-09-12-22:25:06,910,1,Experiment,2023-09-12_15h40.05.672,
9,global,local,7,7,7,91,8,97,exp,LTFLZNUTESSUNFH,NNSLYUTLEHUXTFF,5,Z,X,zZ,yY,l,0,1.8632595000090078,n,0,0.14651669998420402,RSVPLG01,0.94,2023-09-12-22:25:06,910,1,Experiment,2023-09-12_15h40.05.672,
7,global,local,0,7,8,92,6,98,exp,FTEHSEUYNSUNFLT,YFFZSLTTNNEEUUS,4,H,absent,hH,nN,h,1,0.830013400001917,n,1,0.22324550000485033,RSVPLG01,0.94,2023-09-12-22:25:06,910,1,Experiment,2023-09-12_15h40.05.672,
4,local,global,0,7,9,93,3,99,exp,FEHYNZUSHULFYSL,EFHLTLYZEUZHYSS,5,T,absent,tT,nN,t,1,1.1525926999747753,n,1,0.20054719998734072,RSVPLG01,0.94,2023-09-12-22:25:06,910,1,Experiment,2023-09-12_15h40.05.672,
7,global,local,0,7,10,94,6,100,exp,FNSLZSTTZHNEEUU,ENZYUTUFTNSZFSH,4,L,absent,lL,nN,z,0,0.9971515000215732,n,1,0.7672686000005342,RSVPLG01,0.94,2023-09-12-22:25:06,910,1,Experiment,2023-09-12_15h40.05.672,
1,local,local,0,7,11,95,0,101,exp,TYTFUSZEUHLYZHL,YHLNTHUYELSZEUT,4,N,absent,nN,nN,n,1,1.0967442000401206,n,1,0.1538111999980174,RSVPLG01,0.94,2023-09-12-22:25:06,910,1,Experiment,2023-09-12_15h40.05.672,
8,global,local,3,8,0,96,7,102,exp,ZUZFFSULEELYTHT,HZLLUNYFXTZUFEY,6,S,X,sS,yY,s,1,1.3763078000047244,y,1,0.36983719997806475,RSVPLG01,0.94,2023-09-12-22:25:06,910,1,Experiment,2023-09-12_15h40.05.672,
11,global,global,3,8,1,97,10,103,exp,SYYZLHFSXENLFTN,FYEZNUZYTNSFLLT,6,H,X,hH,yY,h,1,0.9638295999611728,n,0,0.29476189997512847,RSVPLG01,0.94,2023-09-12-22:25:06,910,1,Experiment,2023-09-12_15h40.05.672,
8,global,local,3,8,2,98,7,104,exp,SLEYNTFHSZLNEFT,ENLUZSXZFLSHTEN,4,Y,X,yY,yY,n,0,1.6191872999770567,n,0,0.34573090000776574,RSVPLG01,0.94,2023-09-12-22:25:06,910,1,Experiment,2023-09-12_15h40.05.672,
9,global,local,7,8,3,99,8,105,exp,TSSFNNTYLEUHYLH,TNHZEULSYLXUHNY,4,F,X,fF,yY,n,0,1.0360129000036977,n,0,0.44265700003597885,RSVPLG01,0.94,2023-09-12-22:25:06,910,1,Experiment,2023-09-12_15h40.05.672,
8,global,local,3,8,4,100,7,106,exp,NYUSTLNSETFFHHU,SYFHNZYEXUTFHUS,6,L,X,lL,yY,l,1,0.9972693000454456,n,0,0.2904819999821484,RSVPLG01,0.94,2023-09-12-22:25:06,910,1,Experiment,2023-09-12_15h40.05.672,
10,global,global,0,8,5,101,9,107,exp,ZYLHULFZTNSTNSH,FLZHEZHYNTNTSSF,5,U,absent,uU,nN,u,1,0.9828574999701232,n,1,0.2717408000025898,RSVPLG01,0.94,2023-09-12-22:25:06,910,1,Experiment,2023-09-12_15h40.05.672,
4,local,global,0,8,6,102,3,108,exp,ELEFLNUTFYUZZYH,YUEFHSETHLLZUYT,6,S,absent,sS,nN,n,0,2.9342979000066407,n,1,0.17116359999636188,RSVPLG01,0.94,2023-09-12-22:25:06,910,1,Experiment,2023-09-12_15h40.05.672,
4,local,global,0,8,7,103,3,109,exp,NZHFYHUNLUSZEFE,ZUHFTLFHNZSNLES,5,T,absent,tT,nN,y,0,1.1520704999566078,n,1,5.056683800008614,RSVPLG01,0.94,2023-09-12-22:25:06,910,1,Experiment,2023-09-12_15h40.05.672,
9,global,local,7,8,8,104,8,110,exp,YHFSTFZNZNHYULT,HYUEZFNUTNXLHTL,4,S,X,sS,yY,s,1,1.22883770003682,n,0,0.5198139999993145,RSVPLG01,0.94,2023-09-12-22:25:06,910,1,Experiment,2023-09-12_15h40.05.672,
12,global,global,7,8,9,105,11,111,exp,TUZSNYYEHTXHNLZ,TUTFHZYHNYULLEN,4,S,X,sS,yY,f,0,1.182514899992384,n,0,0.34341059997677803,RSVPLG01,0.94,2023-09-12-22:25:06,910,1,Experiment,2023-09-12_15h40.05.672,
9,global,local,7,8,10,106,8,112,exp,TULFZTUZHYSYHSN,SYLESUTNHZXTZNY,4,F,X,fF,yY,f,1,0.9821304000215605,y,1,0.1902773999609053,RSVPLG01,0.94,2023-09-12-22:25:06,910,1,Experiment,2023-09-12_15h40.05.672,
7,global,local,0,8,11,107,6,113,exp,NUNYHLHSEUSFZEL,ESHTEUUSNFLFZNH,4,Y,absent,yY,nN,y,1,1.0626494999742135,n,1,0.36727930000051856,RSVPLG01,0.94,2023-09-12-22:25:06,910,1,Experiment,2023-09-12_15h40.05.672,
9,global,local,7,9,0,108,8,114,exp,TEHZYEFZHTFNLLU,UELTSNFHFZZXTUH,5,Y,X,yY,yY,y,1,0.8549993999768049,y,1,0.20413410000037402,RSVPLG01,0.94,2023-09-12-22:25:06,910,1,Experiment,2023-09-12_15h40.05.672,
6,local,global,7,9,1,109,5,115,exp,LZUFTZSFSLNXHYY,HSLHEFZUNFYNZUS,5,E,X,eE,yY,e,1,1.1070108000421897,y,1,0.4172113999957219,RSVPLG01,0.94,2023-09-12-22:25:06,910,1,Experiment,2023-09-12_15h40.05.672,
10,global,global,0,9,2,110,9,116,exp,ZFLUSYLTEEZFYSH,YHHNLFSZLZTEYFS,4,U,absent,uU,nN,u,1,1.0774602000019513,y,0,0.17815809999592602,RSVPLG01,0.94,2023-09-12-22:25:06,910,1,Experiment,2023-09-12_15h40.05.672,
12,global,global,7,9,3,111,11,117,exp,UNZUFZNESSLXHTH,NELZYLUETSHTSHU,5,F,X,fF,yY,z,0,1.2095882999710739,n,0,0.4774825000204146,RSVPLG01,0.94,2023-09-12-22:25:06,910,1,Experiment,2023-09-12_15h40.05.672,
5,local,global,3,9,4,112,4,118,exp,ZYSLYTNFXSUFNEZ,UFSZYHNELNZLUSF,6,H,X,hH,yY,n,0,1.2270560000324622,y,1,0.23514210002031177,RSVPLG01,0.94,2023-09-12-22:25:06,910,1,Experiment,2023-09-12_15h40.05.672,
10,global,global,0,9,5,113,9,119,exp,ZUFTNZHYHYSESNU,SNFLZNYUUHSHEZE,4,T,absent,tT,nN,t,1,0.9356571999960579,n,1,0.299136699992232,RSVPLG01,0.94,2023-09-12-22:25:06,910,1,Experiment,2023-09-12_15h40.05.672,
7,global,local,0,9,6,114,6,120,exp,LSLTFYHHEUZUFEZ,LEHLFNTEFTHSUUZ,6,Y,absent,yY,nN,y,1,0.9197927000350319,y,0,0.09916149999480695,RSVPLG01,0.94,2023-09-12-22:25:06,910,1,Experiment,2023-09-12_15h40.05.672,
9,global,local,7,9,7,115,8,121,exp,NEYSUZTFLNTYFSE,YUTNNHELFYFSXUE,6,Z,X,zZ,yY,z,1,0.7941081000026315,y,1,0.24583390000043437,RSVPLG01,0.94,2023-09-12-22:25:06,910,1,Experiment,2023-09-12_15h40.05.672,
5,local,global,3,9,8,116,4,122,exp,YHLLTFNXEFZYNSS,ZYSLUHEFYLFZHEN,5,U,X,uU,yY,u,1,0.8072979999706149,y,1,0.08954900002572685,RSVPLG01,0.94,2023-09-12-22:25:06,910,1,Experiment,2023-09-12_15h40.05.672,
5,local,global,3,9,9,117,4,123,exp,LEHUZFUXTLSYESF,ULHENFLUEYSTTFY,5,N,X,nN,yY,n,1,0.7805137999821454,y,1,0.0824933999683708,RSVPLG01,0.94,2023-09-12-22:25:06,910,1,Experiment,2023-09-12_15h40.05.672,
1,local,local,0,9,10,118,0,124,exp,TZYELSTEYHHFZUL,YZFLYNTZUFTHULE,6,N,absent,nN,nN,n,1,1.0107551999972202,n,1,0.09013450000202283,RSVPLG01,0.94,2023-09-12-22:25:06,910,1,Experiment,2023-09-12_15h40.05.672,
2,local,local,3,9,11,119,1,125,exp,SYYNUEHSUTTLZZL,UNSLZFTUXYTHYHL,6,F,X,fF,yY,f,1,1.042964500025846,y,1,0.3331188000156544,RSVPLG01,0.94,2023-09-12-22:25:06,910,1,Experiment,2023-09-12_15h40.05.672,
8,global,local,3,10,0,120,7,126,exp,STTFYUUEELNNHLS,NYHZNUXLETTLUHS,4,F,X,fF,yY,f,1,1.0765689999680035,y,1,0.686821700015571,RSVPLG01,0.94,2023-09-12-22:25:06,910,1,Experiment,2023-09-12_15h40.05.672,
3,local,local,7,10,1,121,2,127,exp,EYSSLTNEHHYUNFT,SNNUZUYFETSXHFE,5,Z,X,zZ,yY,z,1,1.0430917000048794,n,0,0.31514109997078776,RSVPLG01,0.94,2023-09-12-22:25:06,910,1,Experiment,2023-09-12_15h40.05.672,
2,local,local,3,10,2,122,1,128,exp,FSHUNNYYFTHESZE,YZELNFXHZNYFEHS,4,L,X,lL,yY,l,1,1.0118211000226438,y,1,0.3517804999719374,RSVPLG01,0.94,2023-09-12-22:25:06,910,1,Experiment,2023-09-12_15h40.05.672,
4,local,global,0,10,3,123,3,129,exp,HLUEHYFUZSZLTTS,SSLNTTUZZLUHFYY,4,N,absent,nN,nN,n,1,1.1682487999787554,n,1,0.1936425999738276,RSVPLG01,0.94,2023-09-12-22:25:06,910,1,Experiment,2023-09-12_15h40.05.672,
5,local,global,3,10,4,124,4,130,exp,HELSLYXNZZHFETN,LZTUFNNHFETYYLH,4,U,X,uU,yY,u,1,0.8000566000118852,y,1,0.21305000002030283,RSVPLG01,0.94,2023-09-12-22:25:06,910,1,Experiment,2023-09-12_15h40.05.672,
12,global,global,7,10,5,125,11,131,exp,EFLZSYUHLHFUXET,TLHUENEZLFSSZFT,6,Y,X,yY,yY,n,0,3.1389162999694236,y,1,0.13000199996167794,RSVPLG01,0.94,2023-09-12-22:25:06,910,1,Experiment,2023-09-12_15h40.05.672,
5,local,global,3,10,6,126,4,132,exp,ZLFYHUTHXENLEYT,HTYFESNEZNYHLLF,6,S,X,sS,yY,s,1,1.1012282999581657,n,0,0.3085170999984257,RSVPLG01,0.94,2023-09-12-22:25:06,910,1,Experiment,2023-09-12_15h40.05.672,
10,global,global,0,10,7,127,9,133,exp,YFTSZHYEETULLHF,HELUNTSLTYYUFFE,5,Z,absent,zZ,nN,z,1,0.9812261999468319,n,1,0.9788946000044234,RSVPLG01,0.94,2023-09-12-22:25:06,910,1,Experiment,2023-09-12_15h40.05.672,
8,global,local,3,10,8,128,7,134,exp,NNFHUYEUZLEHSFZ,ZNUHUTFLXESZENH,6,Y,X,yY,yY,y,1,0.9523220999981277,n,0,0.16461989999515936,RSVPLG01,0.94,2023-09-12-22:25:06,910,1,Experiment,2023-09-12_15h40.05.672,
3,local,local,7,10,9,129,2,135,exp,ZFUNYTTEUFZLEHN,ZTTHSUHUELEXNFZ,5,S,X,sS,yY,s,1,0.8133538999827579,y,1,0.23647609999170527,RSVPLG01,0.94,2023-09-12-22:25:06,910,1,Experiment,2023-09-12_15h40.05.672,
9,global,local,7,10,10,130,8,136,exp,FYSNZHFSLZNULEY,EEFZYTLSZNSLXFU,6,H,X,hH,yY,h,1,0.8926467999699526,y,1,0.0750848000170663,RSVPLG01,0.94,2023-09-12-22:25:06,910,1,Experiment,2023-09-12_15h40.05.672,
1,local,local,0,10,11,131,0,137,exp,SEYFUHTLYEZTFZS,HTYENFLSFYZLTEZ,5,N,absent,nN,nN,n,1,1.763214499980677,y,0,0.08891530003165826,RSVPLG01,0.94,2023-09-12-22:25:06,910,1,Experiment,2023-09-12_15h40.05.672,
3,local,local,7,11,0,132,2,138,exp,EUYFZLNLTTENHYZ,HTESNYYEULXUTHZ,4,S,X,sS,yY,s,1,0.670745299954433,y,1,0.22285409999312833,RSVPLG01,0.94,2023-09-12-22:25:06,910,1,Experiment,2023-09-12_15h40.05.672,
8,global,local,3,11,1,133,7,139,exp,FFHLZNSSNTUELTH,HUNTYLNXUELSHFE,5,Z,X,zZ,yY,z,1,1.0687729000346735,n,0,0.40300849999766797,RSVPLG01,0.94,2023-09-12-22:25:06,910,1,Experiment,2023-09-12_15h40.05.672,
12,global,global,7,11,2,134,11,140,exp,LETUFZZNLHXSFTN,TEEYFZLTNNFHLSH,4,U,X,uU,yY,u,1,1.1174418000155129,n,0,0.22689019999234006,RSVPLG01,0.94,2023-09-12-22:25:06,910,1,Experiment,2023-09-12_15h40.05.672,
3,local,local,7,11,3,135,2,141,exp,ZSENTZUYEUFSHYH,SESLYYZTHFXETUU,4,L,X,lL,yY,l,1,1.09884490002878,y,1,0.4989433999871835,RSVPLG01,0.94,2023-09-12-22:25:06,910,1,Experiment,2023-09-12_15h40.05.672,
8,global,local,3,11,4,136,7,142,exp,TSYFEFNYHSZLHNZ,STZHUNYXTFZSNYL,5,E,X,eE,yY,f,0,0.9755480000167154,n,0,0.19591720000607893,RSVPLG01,0.94,2023-09-12-22:25:06,910,1,Experiment,2023-09-12_15h40.05.672,
10,global,global,0,11,5,137,9,143,exp,HSETUSTZLHYZLYF,ZSHFNYHLFTZTESE,5,U,absent,uU,nN,u,1,0.9195996000198647,n,1,0.017486299970187247,RSVPLG01,0.94,2023-09-12-22:25:06,910,1,Experiment,2023-09-12_15h40.05.672,
11,global,global,3,11,6,138,10,144,exp,ULUEZLXZTSYYNTF,ZFZHLUNSTTYNFUS,4,E,X,eE,yY,e,1,0.9517344000050798,n,0,0.3147025000071153,RSVPLG01,0.94,2023-09-12-22:25:06,910,1,Experiment,2023-09-12_15h40.05.672,
12,global,global,7,11,7,139,11,145,exp,LHZFUEFLSYNZXHN,NSZSYTLHNUYFFLZ,6,E,X,eE,yY,e,1,0.9969400999834761,n,0,0.335893000010401,RSVPLG01,0.94,2023-09-12-22:25:06,910,1,Experiment,2023-09-12_15h40.05.672,
12,global,global,7,11,8,140,11,146,exp,ZLLNFHETYUHXTNY,YNTNSUEHYTHELLU,5,F,X,fF,yY,f,1,0.874815099989064,n,0,0.2344736999948509,RSVPLG01,0.94,2023-09-12-22:25:06,910,1,Experiment,2023-09-12_15h40.05.672,
6,local,global,7,11,9,141,5,147,exp,HUETYNZFUSXSYNF,EYELUHSFSYZFUNN,4,L,X,lL,yY,l,1,0.9944853000342846,y,1,0.1795187999960035,RSVPLG01,0.94,2023-09-12-22:25:06,910,1,Experiment,2023-09-12_15h40.05.672,
5,local,global,3,11,10,142,4,148,exp,LEHZNTZXFUELHTF,YFHTSUUYEEZLHFL,5,S,X,sS,yY,s,1,0.682823000010103,y,1,0.33034839999163523,RSVPLG01,0.94,2023-09-12-22:25:06,910,1,Experiment,2023-09-12_15h40.05.672,
7,global,local,0,11,11,143,6,149,exp,THLHZFUNNSETSLE,LSHHYTEFTNNUFUL,5,Z,absent,zZ,nN,z,1,0.9710666000028141,n,1,0.40294999995967373,RSVPLG01,0.94,2023-09-12-22:25:06,910,1,Experiment,2023-09-12_15h40.05.672,
9,global,local,7,12,0,144,8,150,exp,LSNYNLEZTSUZTHE,TTSFHZLZULXEHSE,4,Y,X,yY,yY,n,0,1.8208919999888167,n,0,0.3385110999806784,RSVPLG01,0.94,2023-09-12-22:25:06,910,1,Experiment,2023-09-12_15h40.05.672,
3,local,local,7,12,1,145,2,151,exp,UNYHNZSTLUSZYLF,SZYELTZTSLXFNNF,4,E,X,eE,yY,e,1,0.7751216000178829,y,1,0.35066970001207665,RSVPLG01,0.94,2023-09-12-22:25:06,910,1,Experiment,2023-09-12_15h40.05.672,
4,local,global,0,12,2,146,3,152,exp,TNUHFLULZENSTZE,LUZHYHZTEELNTSS,5,Y,absent,yY,nN,y,1,1.1504357000230812,n,1,0.10548220004420727,RSVPLG01,0.94,2023-09-12-22:25:06,910,1,Experiment,2023-09-12_15h40.05.672,
7,global,local,0,12,3,147,6,153,exp,FSZEHYTULSFEUZL,SHFLUNZLSETUETH,6,Y,absent,yY,nN,n,0,1.495036699983757,n,1,0.12554280000040308,RSVPLG01,0.94,2023-09-12-22:25:06,910,1,Experiment,2023-09-12_15h40.05.672,
12,global,global,7,12,4,148,11,154,exp,YESUEHLNYSFLXNU,LSLEFTYYENNFUUZ,6,H,X,hH,yY,h,1,1.0825797999859788,n,0,0.10514850000618026,RSVPLG01,0.94,2023-09-12-22:25:06,910,1,Experiment,2023-09-12_15h40.05.672,
1,local,local,0,12,5,149,0,155,exp,LZTHEUSLSFNNTUZ,ZTFTYLFHZNUNSHU,5,Y,absent,yY,nN,y,1,1.2540523000061512,n,1,0.08967920002760366,RSVPLG01,0.94,2023-09-12-22:25:06,910,1,Experiment,2023-09-12_15h40.05.672,
10,global,global,0,12,6,150,9,156,exp,FZLESEHTNUZFHLU,ZZNTYHELFULNHEF,5,S,absent,sS,nN,s,1,0.9728421999607235,n,1,0.38862610002979636,RSVPLG01,0.94,2023-09-12-22:25:06,910,1,Experiment,2023-09-12_15h40.05.672,
4,local,global,0,12,7,151,3,157,exp,EZTLHFTNNFZUUSH,SFHYZFENSTHTUZN,4,Y,absent,yY,nN,y,1,0.6955769999767654,n,1,0.14561819995287806,RSVPLG01,0.94,2023-09-12-22:25:06,910,1,Experiment,2023-09-12_15h40.05.672,
7,global,local,0,12,8,152,6,158,exp,NHYSLZFUHNTUZYT,NHSFEZZYFHSTTNU,5,L,absent,lL,nN,l,1,0.9892497999826446,n,1,0.15490879997378215,RSVPLG01,0.94,2023-09-12-22:25:06,910,1,Experiment,2023-09-12_15h40.05.672,
7,global,local,0,12,9,153,6,159,exp,ELHUHZFETLSZNNF,EETYTZNHLFZLHSS,4,U,absent,uU,nN,u,1,0.7925903999712318,n,1,0.09406480001052842,RSVPLG01,0.94,2023-09-12-22:25:06,910,1,Experiment,2023-09-12_15h40.05.672,
11,global,global,3,12,10,154,10,160,exp,UHSSYLUTXFNFTYE,HYSEHZNTSFYNUUE,6,L,X,lL,yY,l,1,0.8679311000159942,n,0,0.17780130001483485,RSVPLG01,0.94,2023-09-12-22:25:06,910,1,Experiment,2023-09-12_15h40.05.672,
2,local,local,3,12,11,155,1,161,exp,FHNLUZHELSUENFT,HNHSTYEUXSTFLUL,6,Y,X,yY,yY,z,0,0.9217048999853432,n,0,0.3625406000064686,RSVPLG01,0.94,2023-09-12-22:25:06,910,1,Experiment,2023-09-12_15h40.05.672,
2,local,local,3,13,0,156,1,162,exp,YFELNSHZZFSYTTE,TNYUESXZHFNETHF,4,U,X,uU,yY,u,1,0.30574199999682605,n,0,0.0024090000079013407,RSVPLG01,0.94,2023-09-12-22:25:06,910,1,Experiment,2023-09-12_15h40.05.672,
12,global,global,7,13,1,157,11,163,exp,HZFLUZYSEYFXENS,LHEFTYHSSNLZEYF,5,U,X,uU,yY,u,1,0.5287363000097685,y,1,0.08992640004726127,RSVPLG01,0.94,2023-09-12-22:25:06,910,1,Experiment,2023-09-12_15h40.05.672,
2,local,local,3,13,2,158,1,164,exp,ZTHTSNHULZNEEUL,UNZEFTUXTHYEHLL,5,F,X,fF,yY,f,1,0.6641091000055894,y,1,0.08205759996781126,RSVPLG01,0.94,2023-09-12-22:25:06,910,1,Experiment,2023-09-12_15h40.05.672,
6,local,global,7,13,3,159,5,165,exp,HSTHEUYSLZTXLNN,UYTSFSZLTNYLHNZ,5,F,X,fF,yY,s,0,1.0774241000181064,n,0,0.29190799995558336,RSVPLG01,0.94,2023-09-12-22:25:06,910,1,Experiment,2023-09-12_15h40.05.672,
9,global,local,7,13,4,160,8,166,exp,NNSYUELZZSHELFF,HFLTFSNEUZXHLNU,4,Y,X,yY,yY,y,1,0.9018921999959275,n,0,0.025539499998558313,RSVPLG01,0.94,2023-09-12-22:25:06,910,1,Experiment,2023-09-12_15h40.05.672,
9,global,local,7,13,5,161,8,167,exp,YYULSTHHZNZLUFN,UUZFNENHYYLZXLS,6,T,X,tT,yY,f,0,2.4903284999891184,n,0,0.13923790003173053,RSVPLG01,0.94,2023-09-12-22:25:06,910,1,Experiment,2023-09-12_15h40.05.672,
7,global,local,0,13,6,162,6,168,exp,UZSLFNYUYNZEHLE,LENZTLYZUUHSHYE,5,F,absent,fF,nN,f,1,1.2510715000098571,n,1,1.3649452999816276,RSVPLG01,0.94,2023-09-12-22:25:06,910,1,Experiment,2023-09-12_15h40.05.672,
10,global,global,0,13,7,163,9,169,exp,NUZFSYLYSTNLZUE,YTZHUYNELSZULSE,4,F,absent,fF,nN,f,1,0.8998831000062637,n,1,1.134648000006564,RSVPLG01,0.94,2023-09-12-22:25:06,910,1,Experiment,2023-09-12_15h40.05.672,
1,local,local,0,13,8,164,0,170,exp,ZUFENYSSZTFLYTL,FLLHUNSYZFZTSNY,4,H,absent,hH,nN,h,1,1.1748288999660872,n,1,0.08090389997232705,RSVPLG01,0.94,2023-09-12-22:25:06,910,1,Experiment,2023-09-12_15h40.05.672,
7,global,local,0,13,9,165,6,171,exp,LZSTFNHHTLFUUZE,HEUUFYSTSLZHELT,6,N,absent,nN,nN,n,1,0.9975950000225566,n,1,0.039393700018990785,RSVPLG01,0.94,2023-09-12-22:25:06,910,1,Experiment,2023-09-12_15h40.05.672,
10,global,global,0,13,10,166,9,172,exp,NNTEFUTZEUSSLLY,UZNYHTLLYZUSEEN,5,F,absent,fF,nN,f,1,0.9641359000233933,n,1,0.7400294000399299,RSVPLG01,0.94,2023-09-12-22:25:06,910,1,Experiment,2023-09-12_15h40.05.672,
5,local,global,3,13,11,167,4,173,exp,SFSNTUXYHFZZTUE,EZFLTUTYYSHSZFU,4,L,X,lL,yY,l,1,0.9597251000232063,n,0,0.2184823999996297,RSVPLG01,0.94,2023-09-12-22:25:06,910,1,Experiment,2023-09-12_15h40.05.672,
2,local,local,3,14,0,168,1,174,exp,ZNYUFNZHYSSHLEL,ULUSTNHXLYSEZEY,5,T,X,tT,yY,l,0,0.8064216999919154,n,0,0.3238285999977961,RSVPLG01,0.94,2023-09-12-22:25:06,910,1,Experiment,2023-09-12_15h40.05.672,
3,local,local,7,14,1,169,2,175,exp,ESUNFHSYELYHNZL,ESUYTUENHHYXNZL,5,T,X,tT,yY,t,1,1.0006667000125162,y,1,1.0681566999992356,RSVPLG01,0.94,2023-09-12-22:25:06,910,1,Experiment,2023-09-12_15h40.05.672,
7,global,local,0,14,2,170,6,176,exp,ZLFHTYTUUNLEFHN,FTFEHSNUULLHNTZ,6,Y,absent,yY,nN,y,1,0.935571699985303,n,1,0.13546499999938533,RSVPLG01,0.94,2023-09-12-22:25:06,910,1,Experiment,2023-09-12_15h40.05.672,
6,local,global,7,14,3,171,5,177,exp,YFHUTZFTUHELXYN,LLFEYSENTNUYHTF,6,S,X,sS,yY,s,1,1.0091023999848403,n,0,0.08270939998328686,RSVPLG01,0.94,2023-09-12-22:25:06,910,1,Experiment,2023-09-12_15h40.05.672,
6,local,global,7,14,4,172,5,178,exp,FNTESHUTLLHXZNZ,LTEZYUFFNETULNH,5,Y,X,yY,yY,y,1,1.0112114999792539,y,1,0.25585259997751564,RSVPLG01,0.94,2023-09-12-22:25:06,910,1,Experiment,2023-09-12_15h40.05.672,
6,local,global,7,14,5,173,5,179,exp,HTLSEETNHLXUFNY,TYEZYFNTEFHLLNH,4,Z,X,zZ,yY,y,0,0.9050830000196584,n,0,0.08274320000782609,RSVPLG01,0.94,2023-09-12-22:25:06,910,1,Experiment,2023-09-12_15h40.05.672,
10,global,global,0,14,6,174,9,180,exp,YLYUHFTTZNELZNE,FZTNSNYEZUYLTLU,5,H,absent,hH,nN,h,1,0.9056422999710776,n,1,0.07075549999717623,RSVPLG01,0.94,2023-09-12-22:25:06,910,1,Experiment,2023-09-12_15h40.05.672,
11,global,global,3,14,7,175,10,181,exp,EEFLHFXZSNYTTHS,NFHUFYSTZYTZNEH,4,L,X,lL,yY,l,1,0.6971198000246659,n,0,0.3158456000383012,RSVPLG01,0.94,2023-09-12-22:25:06,910,1,Experiment,2023-09-12_15h40.05.672,
11,global,global,3,14,8,176,10,182,exp,EYUHNHYXZLLEUSZ,EHELTSYFLYUFHUS,5,N,X,nN,yY,n,1,0.9317182999802753,n,0,0.058689999976195395,RSVPLG01,0.94,2023-09-12-22:25:06,910,1,Experiment,2023-09-12_15h40.05.672,
3,local,local,7,14,9,177,2,183,exp,STEYFNYLEFLUZTU,LYSEFHZUYSTTXFE,6,H,X,hH,yY,h,1,1.0167525000288151,y,1,0.1283149000373669,RSVPLG01,0.94,2023-09-12-22:25:06,910,1,Experiment,2023-09-12_15h40.05.672,
8,global,local,3,14,10,178,7,184,exp,FSYNZESUHLUNEFH,NNYETSFXHSHEULU,5,Z,X,zZ,yY,z,1,1.1636371000204235,n,0,0.25271120003890246,RSVPLG01,0.94,2023-09-12-22:25:06,910,1,Experiment,2023-09-12_15h40.05.672,
10,global,global,0,14,11,179,9,185,exp,ZFESLTHEUUTHYZY,FZHTNYUEFHUETYS,5,L,absent,lL,nN,l,1,0.8937080000177957,n,1,0.5869653000263497,RSVPLG01,0.94,2023-09-12-22:25:06,910,1,Experiment,2023-09-12_15h40.05.672,
1,local,local,0,15,0,180,0,186,exp,SHFLEUEZYNFYZLH,SFNFETLLYZZHNHS,6,T,absent,tT,nN,t,1,0.8552889000275172,y,0,4.511820599960629,RSVPLG01,0.94,2023-09-12-22:25:06,910,1,Experiment,2023-09-12_15h40.05.672,
11,global,global,3,15,1,181,10,187,exp,LTSUFHYEXEZTSZY,YSEUENTFZZSLULT,6,H,X,hH,yY,n,0,0.9532653000205755,n,0,0.06139069999335334,RSVPLG01,0.94,2023-09-12-22:25:06,910,1,Experiment,2023-09-12_15h40.05.672,
8,global,local,3,15,2,182,7,188,exp,YSTEUEZLNZNHHYT,ZTYTFEHXSSZHNLE,5,U,X,uU,yY,f,0,0.9841026000212878,n,0,0.21840190002694726,RSVPLG01,0.94,2023-09-12-22:25:06,910,1,Experiment,2023-09-12_15h40.05.672,
11,global,global,3,15,3,183,10,189,exp,NTLUEZXEFZNTHHS,NTSYFEFZLTLHSHZ,4,U,X,uU,yY,u,1,1.0260296000051312,n,0,0.20992960000876337,RSVPLG01,0.94,2023-09-12-22:25:06,910,1,Experiment,2023-09-12_15h40.05.672,
11,global,global,3,15,4,184,10,190,exp,UFSTHFEXUSYELNN,SUNYZLTLTFFESYE,5,H,X,hH,yY,h,1,0.8186458999989554,y,1,0.2486971000325866,RSVPLG01,0.94,2023-09-12-22:25:06,910,1,Experiment,2023-09-12_15h40.05.672,
3,local,local,7,15,5,185,2,191,exp,NUTESLFLFHZZHTE,ENLHYFZFNTZXHUU,5,Y,X,yY,yY,y,1,0.8049149999860674,y,1,0.18064710003091022,RSVPLG01,0.94,2023-09-12-22:25:06,910,1,Experiment,2023-09-12_15h40.05.672,
10,global,global,0,15,6,186,9,192,exp,THZFLEEHZUUSSNL,NHNYTHUSELTELZZ,4,F,absent,fF,nN,f,1,1.4795572999864817,n,1,0.21289460000116378,RSVPLG01,0.94,2023-09-12-22:25:06,910,1,Experiment,2023-09-12_15h40.05.672,
5,local,global,3,15,7,187,4,193,exp,LTTEYHUFXSENLNY,ETLFSZLYUTNUFEY,6,Z,X,zZ,yY,s,0,0.8221066999831237,n,0,0.19004200003109872,RSVPLG01,0.94,2023-09-12-22:25:06,910,1,Experiment,2023-09-12_15h40.05.672,
1,local,local,0,15,8,188,0,194,exp,HNULFSEUTNFYTHE,YNULHZEHNFTFYLE,6,Z,absent,zZ,nN,z,1,1.000044499989599,n,1,0.17064209998352453,RSVPLG01,0.94,2023-09-12-22:25:06,910,1,Experiment,2023-09-12_15h40.05.672,
2,local,local,3,15,9,189,1,195,exp,STZTFUHHYFNYESE,FSHSTLFTXYNNHEZ,6,L,X,lL,yY,l,1,0.7945691000204533,y,1,0.2585271000280045,RSVPLG01,0.94,2023-09-12-22:25:06,910,1,Experiment,2023-09-12_15h40.05.672,
7,global,local,0,15,10,190,6,196,exp,FYNUSEFHHSLYULZ,UFNLLTZFNSHYZSH,6,E,absent,eE,nN,f,0,0.9306928999722004,n,1,0.21316460001980886,RSVPLG01,0.94,2023-09-12-22:25:06,910,1,Experiment,2023-09-12_15h40.05.672,
6,local,global,7,15,11,191,5,197,exp,NSLUHFZHELTEXTN,ZTHNHYNSLLUUSZE,6,Y,X,yY,yY,y,1,0.9216942000202835,n,0,0.18612929998198524,RSVPLG01,0.94,2023-09-12-22:25:06,910,1,Experiment,2023-09-12_15h40.05.672,
9,global,local,7,16,0,192,8,198,exp,SHETZYNLNZEFLFS,NNSUZLSYEHXEHFY,4,T,X,tT,yY,t,1,0.648792100022547,y,1,0.06880790001014248,RSVPLG01,0.94,2023-09-12-22:25:06,910,1,Experiment,2023-09-12_15h40.05.672,
9,global,local,7,16,1,193,8,199,exp,LUNNSEFYZEULFYZ,HLUZTUFHZFYXYNE,5,S,X,sS,yY,f,0,0.9984049000195228,y,1,0.0906154999975115,RSVPLG01,0.94,2023-09-12-22:25:06,910,1,Experiment,2023-09-12_15h40.05.672,
6,local,global,7,16,2,194,5,200,exp,ZUUFHFNYEYEXNZL,SYLSTFYEFNLNUEZ,5,T,X,tT,yY,t,1,0.860295100021176,y,1,0.07089219999033958,RSVPLG01,0.94,2023-09-12-22:25:06,910,1,Experiment,2023-09-12_15h40.05.672,
3,local,local,7,16,3,195,2,201,exp,ZUSFYTNEZESNLLT,YNZHLUUTEZXLSEY,4,H,X,hH,yY,h,1,0.5751389000215568,y,1,0.021274800004903227,RSVPLG01,0.94,2023-09-12-22:25:06,910,1,Experiment,2023-09-12_15h40.05.672,
11,global,global,3,16,4,196,10,202,exp,ZNYUTFHXZHFEUEN,HSYZLHSENNFUFYE,5,T,X,tT,yY,y,0,0.913322500011418,n,0,0.06594289996428415,RSVPLG01,0.94,2023-09-12-22:25:06,910,1,Experiment,2023-09-12_15h40.05.672,
2,local,local,3,16,5,197,1,203,exp,UTEHYZHYESNTFNU,HHFNFLNEXSYSYUT,6,L,X,lL,yY,l,1,1.0385179999866523,n,0,0.1376336000394076,RSVPLG01,0.94,2023-09-12-22:25:06,910,1,Experiment,2023-09-12_15h40.05.672,
12,global,global,7,16,6,198,11,204,exp,YLSUTEYNTUHHXZS,TSZLZFYTSHUNHLU,6,E,X,eE,yY,e,1,1.0454606999992393,n,0,0.43560740002430975,RSVPLG01,0.94,2023-09-12-22:25:06,910,1,Experiment,2023-09-12_15h40.05.672,
3,local,local,7,16,7,199,2,205,exp,TZNZYUFLSSTNLHH,HSUSENZFNTLXTHL,5,E,X,eE,yY,e,1,0.9812590999645181,y,1,0.292989999987185,RSVPLG01,0.94,2023-09-12-22:25:06,910,1,Experiment,2023-09-12_15h40.05.672,
5,local,global,3,16,8,200,4,206,exp,TYTZLHSYXUESLEU,SLZTFNSZYUEYEFL,6,N,X,nN,yY,h,0,1.037066999997478,n,0,0.09264689998235554,RSVPLG01,0.94,2023-09-12-22:25:06,910,1,Experiment,2023-09-12_15h40.05.672,
9,global,local,7,16,9,201,8,207,exp,NYYHTFSZLTEHNES,TYLHNUSZSZLHXYN,6,F,X,fF,yY,s,0,2.5733373000402935,n,0,0.3225840999512002,RSVPLG01,0.94,2023-09-12-22:25:06,910,1,Experiment,2023-09-12_15h40.05.672,
4,local,global,0,16,10,202,3,208,exp,NSTLLFZUTEHHUES,HNSHEYEZTUZLNTL,6,Y,absent,yY,nN,y,1,1.0882356999791227,n,1,0.1994371999753639,RSVPLG01,0.94,2023-09-12-22:25:06,910,1,Experiment,2023-09-12_15h40.05.672,
4,local,global,0,16,11,203,3,209,exp,NZYLHZSLFUFUTST,NTSUEZNULYFYZLS,5,E,absent,eE,nN,e,1,1.1397528999950737,y,0,0.31442969996714965,RSVPLG01,0.94,2023-09-12-22:25:06,910,1,Experiment,2023-09-12_15h40.05.672,
3,local,local,7,17,0,204,2,210,exp,YTZNLYUEZUEHSSN,NHSYFNHTZUTXYEU,5,F,X,fF,yY,f,1,2.140585299988743,n,0,0.4834087999770418,RSVPLG01,0.94,2023-09-12-22:25:06,910,1,Experiment,2023-09-12_15h40.05.672,
10,global,global,0,17,1,205,9,211,exp,ZLSETNZTYSUFUYF,ESELTHULFFZZYSU,6,N,absent,nN,nN,n,1,1.0500392999965698,n,1,0.1455827000318095,RSVPLG01,0.94,2023-09-12-22:25:06,910,1,Experiment,2023-09-12_15h40.05.672,
9,global,local,7,17,2,206,8,212,exp,UNEFHLFUZSSNTTE,TUFZEYFNZESTXHS,6,L,X,lL,yY,l,1,1.1226628000149503,n,0,0.2175881000002846,RSVPLG01,0.94,2023-09-12-22:25:06,910,1,Experiment,2023-09-12_15h40.05.672,
11,global,global,3,17,3,207,10,213,exp,NSFNEUSLXTEHYYF,TSNFYZETHLHSEFY,6,U,X,uU,yY,u,1,0.9839348999666981,n,0,0.05865069996798411,RSVPLG01,0.94,2023-09-12-22:25:06,910,1,Experiment,2023-09-12_15h40.05.672,
6,local,global,7,17,4,208,5,214,exp,LSHEFFYYZUXZHSN,NHSTNZHYFLLUZYF,4,T,X,tT,yY,t,1,0.8155533000244759,y,1,0.14697500003967434,RSVPLG01,0.94,2023-09-12-22:25:06,910,1,Experiment,2023-09-12_15h40.05.672,
5,local,global,3,17,5,209,4,215,exp,YZNEHLUZXSEHTUT,TSUYZFHYEENNTHS,6,F,X,fF,yY,f,1,1.0910979000036605,y,1,0.18781219999073073,RSVPLG01,0.94,2023-09-12-22:25:06,910,1,Experiment,2023-09-12_15h40.05.672,
5,local,global,3,17,6,210,4,216,exp,SFLFSUHZXNLEHYY,SZFNSTFHEYYHENL,6,T,X,tT,yY,t,1,1.0913250999874435,y,1,0.05486279999604449,RSVPLG01,0.94,2023-09-12-22:25:06,910,1,Experiment,2023-09-12_15h40.05.672,
12,global,global,7,17,7,211,11,217,exp,FNLSSHUZZFEEXLU,NLZFUYESFENTSZT,6,H,X,hH,yY,h,1,1.017957700008992,n,0,0.12587859999621287,RSVPLG01,0.94,2023-09-12-22:25:06,910,1,Experiment,2023-09-12_15h40.05.672,
6,local,global,7,17,8,212,5,218,exp,ELHEYFYTUSNTXUL,NEUYLZHLETSYUHS,6,Z,X,zZ,yY,z,1,0.7411550999968313,y,1,0.17899929999839514,RSVPLG01,0.94,2023-09-12-22:25:06,910,1,Experiment,2023-09-12_15h40.05.672,
1,local,local,0,17,9,213,0,219,exp,NTSSHUFTEZLNFLZ,LEETZYHFFNTSNSH,6,Y,absent,yY,nN,y,1,0.9459436999750324,n,1,0.08097020001150668,RSVPLG01,0.94,2023-09-12-22:25:06,910,1,Experiment,2023-09-12_15h40.05.672,
4,local,global,0,17,10,214,3,220,exp,ZUHFHYSZUELEFTL,TFESTNSLFZLHZUH,6,N,absent,nN,nN,n,1,1.0205475999973714,n,1,0.0751073999563232,RSVPLG01,0.94,2023-09-12-22:25:06,910,1,Experiment,2023-09-12_15h40.05.672,
3,local,local,7,17,11,215,2,221,exp,YFYUENNLHUTZTFH,TLLYSHYHNZFXZTN,5,S,X,sS,yY,s,1,0.9455678000231273,y,1,0.34071230003610253,RSVPLG01,0.94,2023-09-12-22:25:06,910,1,Experiment,2023-09-12_15h40.05.672,
8,global,local,3,18,0,216,7,222,exp,THSFLSEYTZNHNFE,YSFHUZEXZFTENST,5,L,X,lL,yY,l,1,1.0188304000184871,n,0,0.5809118000324816,RSVPLG01,0.94,2023-09-12-22:25:06,910,1,Experiment,2023-09-12_15h40.05.672,
1,local,local,0,18,1,217,0,223,exp,TZULSNFYYZUEESL,ZYUZYHLELSTFSTE,6,H,absent,hH,nN,h,1,1.056013100023847,y,0,0.27697130001615733,RSVPLG01,0.94,2023-09-12-22:25:06,910,1,Experiment,2023-09-12_15h40.05.672,
4,local,global,0,18,2,218,3,224,exp,HYNHLELTUYUSFFN,LHYFUZSNFTYNSTL,6,Z,absent,zZ,nN,u,0,1.2616175000439398,n,1,0.2194432999822311,RSVPLG01,0.94,2023-09-12-22:25:06,910,1,Experiment,2023-09-12_15h40.05.672,
1,local,local,0,18,3,219,0,225,exp,USFZTYENHYFNEUS,YENSLUHFSFNUZZY,5,L,absent,lL,nN,l,1,0.964424500009045,y,0,0.5466864999616519,RSVPLG01,0.94,2023-09-12-22:25:06,910,1,Experiment,2023-09-12_15h40.05.672,
4,local,global,0,18,4,220,3,226,exp,EYUZLTLNSSUEZFY,NNYZSHUFYULEZSF,6,H,absent,hH,nN,h,1,1.0502447999897413,n,1,0.0747550000087358,RSVPLG01,0.94,2023-09-12-22:25:06,910,1,Experiment,2023-09-12_15h40.05.672,
7,global,local,0,18,5,221,6,227,exp,FNYUFLEHLTTENZH,TZNSFHZNELFLTHE,4,U,absent,uU,nN,u,1,1.0453940999577753,y,0,0.12753329996485263,RSVPLG01,0.94,2023-09-12-22:25:06,910,1,Experiment,2023-09-12_15h40.05.672,
5,local,global,3,18,6,222,4,228,exp,SYFUULSZXYTFENT,UYESNHFNZSFYUZT,6,H,X,hH,yY,h,1,0.4766956999665126,y,1,0.048034400038886815,RSVPLG01,0.94,2023-09-12-22:25:06,910,1,Experiment,2023-09-12_15h40.05.672,
4,local,global,0,18,7,223,3,229,exp,NLYUEHTZZYHFFTN,ZNYSYFHHTLLFNEZ,4,S,absent,sS,nN,s,1,1.0235016999649815,y,0,0.13213360001100227,RSVPLG01,0.94,2023-09-12-22:25:06,910,1,Experiment,2023-09-12_15h40.05.672,
5,local,global,3,18,8,224,4,230,exp,TSTNUUXYLEYHFFH,UHLZLEFSYTEYHSF,4,Z,X,zZ,yY,z,1,0.9379233000217937,n,0,0.537369400030002,RSVPLG01,0.94,2023-09-12-22:25:06,910,1,Experiment,2023-09-12_15h40.05.672,
8,global,local,3,18,9,225,7,231,exp,LUNTZFHFHSEESLZ,HLEYUFXSLHNZFZE,4,T,X,tT,yY,t,1,1.0001741999876685,n,0,0.18604989995947108,RSVPLG01,0.94,2023-09-12-22:25:06,910,1,Experiment,2023-09-12_15h40.05.672,
6,local,global,7,18,10,226,5,232,exp,ZTUNYZSLLSEXHTU,HUNTFEZHTESLUNL,5,F,X,fF,yY,f,1,0.651815700053703,y,1,0.17563820001669228,RSVPLG01,0.94,2023-09-12-22:25:06,910,1,Experiment,2023-09-12_15h40.05.672,
8,global,local,3,18,11,227,7,233,exp,NHUYTYSLUEFSNLE,SFNHZUSXFYHYNLE,5,T,X,tT,yY,t,1,0.9945923999766819,n,0,0.15453550004167482,RSVPLG01,0.94,2023-09-12-22:25:06,910,1,Experiment,2023-09-12_15h40.05.672,
1,local,local,0,19,0,228,0,234,exp,FLNUEYUNSLZTTFY,STUUHNYTYFLLFSZ,5,H,absent,hH,nN,n,0,0.9364726000349037,y,0,0.09687549999216571,RSVPLG01,0.94,2023-09-12-22:25:06,910,1,Experiment,2023-09-12_15h40.05.672,
2,local,local,3,19,1,229,1,235,exp,ZUSNELETHZSHFFT,TESUZYNNXFHTFUZ,6,Y,X,yY,yY,z,0,1.9055150999920443,n,0,0.44128919998183846,RSVPLG01,0.94,2023-09-12-22:25:06,910,1,Experiment,2023-09-12_15h40.05.672,
9,global,local,7,19,2,230,8,236,exp,FNLUHZTNEYLFUTH,LNNEUSLHEUFYXTH,6,Z,X,zZ,yY,z,1,1.0361023000441492,y,1,0.443438199989032,RSVPLG01,0.94,2023-09-12-22:25:06,910,1,Experiment,2023-09-12_15h40.05.672,
8,global,local,3,19,3,231,7,237,exp,TTEYLZHLUFYUEHN,HYEFNSUEXHLLFUT,6,Z,X,zZ,yY,z,1,0.6815600999980234,y,1,0.5496596000157297,RSVPLG01,0.94,2023-09-12-22:25:06,910,1,Experiment,2023-09-12_15h40.05.672,
6,local,global,7,19,4,232,5,238,exp,HTFENSTNFLXHUYU,LNUZFLSYNSYTUHH,4,Z,X,zZ,yY,z,1,0.8010114000062458,n,0,0.4966130999964662,RSVPLG01,0.94,2023-09-12-22:25:06,910,1,Experiment,2023-09-12_15h40.05.672,
11,global,global,3,19,5,233,10,239,exp,ZTFSYULXSUHELZE,ZUEENTTUFHZSSFH,5,Y,X,yY,yY,y,1,0.5496788999880664,y,1,1.056889500003308,RSVPLG01,0.94,2023-09-12-22:25:06,910,1,Experiment,2023-09-12_15h40.05.672,
6,local,global,7,19,6,234,5,240,exp,FTSLNHEFNSTZXYE,TYTSNUNZLFYLEEZ,6,U,X,uU,yY,n,0,0.8075953000225127,y,1,0.10608550003962591,RSVPLG01,0.94,2023-09-12-22:25:06,910,1,Experiment,2023-09-12_15h40.05.672,
11,global,global,3,19,7,235,10,241,exp,TUSHNYLNXTZLSEZ,LLNNSFETHZEZUST,6,Y,X,yY,yY,y,1,0.8278164999792352,y,1,0.0026141999987885356,RSVPLG01,0.94,2023-09-12-22:25:06,910,1,Experiment,2023-09-12_15h40.05.672,
11,global,global,3,19,8,236,10,242,exp,LFETYHNXHSSNFTE,LUHFZSTSNEFNULT,5,Y,X,yY,yY,y,1,1.3667657999903895,y,1,0.1060439000139013,RSVPLG01,0.94,2023-09-12-22:25:06,910,1,Experiment,2023-09-12_15h40.05.672,
7,global,local,0,19,9,237,6,243,exp,THEHFNLZTZEYSYS,TFHYLUHLSFESETZ,6,N,absent,nN,nN,n,1,0.9465915000182576,n,1,0.23518649995094165,RSVPLG01,0.94,2023-09-12-22:25:06,910,1,Experiment,2023-09-12_15h40.05.672,
7,global,local,0,19,10,238,6,244,exp,NSLFEZFUUTLYTNS,TLEYNHSFUFNUEYS,6,Z,absent,zZ,nN,z,1,1.198936100001447,n,1,0.17754829995101318,RSVPLG01,0.94,2023-09-12-22:25:06,910,1,Experiment,2023-09-12_15h40.05.672,
2,local,local,3,19,11,239,1,245,exp,ZYUFLSUZYTHNSHN,HNHYETFXSSTUFYZ,5,E,X,eE,yY,e,1,0.6078372000483796,y,1,0.24216570000862703,RSVPLG01,0.94,2023-09-12-22:25:06,910,1,Experiment,2023-09-12_15h40.05.672,
