row,t1_level,t2_level,t2_lag,.thisRepN,.thisTrialN,.thisN,.thisIndex,thisRow.t,notes,trial,trial_type,global_letters,local_letters,t1_pos,t1,t2,t1_corr,t2_corr,t1_resp,t1_acc,t1_rt,t2_resp,t2_acc,t2_rt,exp,ver,mod-utc,sub,sess,blocktyp,datetime,
3,local,local,7,0,0,0,2,,,1,warmup,LLZNUTZFYHEYNFH,ZFLYHSEUNYNFXUH,6,S,X,sS,yY,s,1,1.867757999803871,y,1,0.2614980998914689,RSVPLG01,0.94,2023-09-12-22:27:18,9004,1,Experiment,2023-09-12_15h49.37.245,
8,global,local,3,0,1,1,7,,,2,warmup,USLLTHUZNEEFZNF,SNNSFYLTXTULEEF,6,H,X,hH,yY,t,0,1.611403299961239,n,0,0.21818199986591935,RSVPLG01,0.94,2023-09-12-22:27:18,9004,1,Experiment,2023-09-12_15h49.37.245,
1,local,local,0,0,2,2,0,,,3,warmup,EZYLEFHZSSUUTLH,LELEHNZSUYYHSZT,6,N,absent,nN,nN,n,1,1.273722000187263,y,0,0.8585409000515938,RSVPLG01,0.94,2023-09-12-22:27:18,9004,1,Experiment,2023-09-12_15h49.37.245,
10,global,global,0,0,3,3,9,,,4,warmup,SESEFYTNLHZFNTH,EFZLTULHHZETSNS,6,Y,absent,yY,nN,y,1,1.0425367997959256,n,1,0.4268722999840975,RSVPLG01,0.94,2023-09-12-22:27:18,9004,1,Experiment,2023-09-12_15h49.37.245,
9,global,local,7,0,4,4,8,,,5,warmup,EULYHHFFNLEZUNT,ULNSZHLETHXFUFZ,4,Y,X,yY,yY,y,1,2.362450100015849,y,1,0.18631749995984137,RSVPLG01,0.94,2023-09-12-22:27:18,9004,1,Experiment,2023-09-12_15h49.37.245,
7,global,local,0,0,0,0,6,,,6,exp,LTHEFUHNUTLSSYE,STHSZYUNLEEYUTL,5,F,absent,fF,nN,z,0,3.199001200031489,n,1,0.3183474000543356,RSVPLG01,0.94,2023-09-12-22:27:18,9004,1,Experiment,2023-09-12_15h49.37.245,
5,local,global,3,0,1,1,4,,,7,exp,FZNNHULTXZLFYEH,NEFHZSLFYYHTLTE,6,S,X,sS,yY,y,0,1.372232599882409,y,1,0.28639700007624924,RSVPLG01,0.94,2023-09-12-22:27:18,9004,1,Experiment,2023-09-12_15h49.37.245,
3,local,local,7,0,2,2,2,,,8,exp,NSFEHLLTHFYZZTN,NZYULYFZTLXSNTH,4,U,X,uU,yY,u,1,1.206211700104177,y,1,0.34923340007662773,RSVPLG01,0.94,2023-09-12-22:27:18,9004,1,Experiment,2023-09-12_15h49.37.245,
12,global,global,7,0,3,3,11,,,9,exp,HNZTEYTUFZUXSYF,UZTNLTHZFNHFYUS,5,E,X,eE,yY,t,0,1.890627499902621,y,1,0.07962149986997247,RSVPLG01,0.94,2023-09-12-22:27:18,9004,1,Experiment,2023-09-12_15h49.37.245,
7,global,local,0,0,4,4,6,,,10,exp,TNYFULEEHNZTZYF,ELFNSHZLETYNZHY,5,U,absent,uU,nN,u,1,1.1171778999269009,y,0,0.3303400999866426,RSVPLG01,0.94,2023-09-12-22:27:18,9004,1,Experiment,2023-09-12_15h49.37.245,
9,global,local,7,0,5,5,8,,,11,exp,EHFNULZTNHSZSEF,HELTYNTHSZFXZFL,5,U,X,uU,yY,y,0,2.9223849000409245,n,0,0.3495215999428183,RSVPLG01,0.94,2023-09-12-22:27:18,9004,1,Experiment,2023-09-12_15h49.37.245,
5,local,global,3,0,6,6,4,,,12,exp,UFZESYNXTYLFLUE,EUTUHYELZNFNLTF,5,H,X,hH,yY,h,1,1.214186100056395,n,0,0.6066767000593245,RSVPLG01,0.94,2023-09-12-22:27:18,9004,1,Experiment,2023-09-12_15h49.37.245,
7,global,local,0,0,7,7,6,,,13,exp,LHHFZYTTNYUZEEU,UZZSLYLYHETNEHN,4,F,absent,fF,nN,y,0,1.3580875999759883,n,1,0.044736700132489204,RSVPLG01,0.94,2023-09-12-22:27:18,9004,1,Experiment,2023-09-12_15h49.37.245,
8,global,local,3,0,8,8,7,,,14,exp,EFSLSEYTUNUFYNH,SSEZEFXNHYYFUNT,4,L,X,lL,yY,u,0,1.927406300092116,n,0,0.04346409998834133,RSVPLG01,0.94,2023-09-12-22:27:18,9004,1,Experiment,2023-09-12_15h49.37.245,
11,global,global,3,0,9,9,10,,,15,exp,UNZTUNXLHZEYSYE,ZEEFHLNYLZUYSUN,4,T,X,tT,yY,f,0,4.11139059998095,n,0,0.7001161999069154,RSVPLG01,0.94,2023-09-12-22:27:18,9004,1,Experiment,2023-09-12_15h49.37.245,
4,local,global,0,0,10,10,3,,,16,exp,LULHFTZEYZEHSSU,STYLNSHTUZEYZHL,5,N,absent,nN,nN,n,1,1.4600712000392377,y,0,0.2817039000801742,RSVPLG01,0.94,2023-09-12-22:27:18,9004,1,Experiment,2023-09-12_15h49.37.245,
2,local,local,3,0,11,11,1,,,17,exp,FYTHUHTZNSFEZNS,NEYFLSSXZYFNHHZ,5,L,X,lL,yY,l,1,1.5985896000638604,n,0,0.5047875000163913,RSVPLG01,0.94,2023-09-12-22:27:18,9004,1,Experiment,2023-09-12_15h49.37.245,
2,local,local,3,1,0,12,1,,,18,exp,LEZNSYTUEHTLSYU,EHUFHTXLEZTSSUY,4,F,X,fF,yY,f,1,1.1321370999794453,y,1,0.602348200045526,RSVPLG01,0.94,2023-09-12-22:27:18,9004,1,Experiment,2023-09-12_15h49.37.245,
4,local,global,0,1,1,13,3,,,19,exp,ETFFUNEHYHNTSYL,TYHEZSNYLETNSHF,5,Z,absent,zZ,nN,s,0,1.447662000078708,n,1,0.36163530009798706,RSVPLG01,0.94,2023-09-12-22:27:18,9004,1,Experiment,2023-09-12_15h49.37.245,
4,local,global,0,1,2,14,3,,,20,exp,ENZELFTUSTUZNSL,HSZNEYSLUENUHZL,6,Y,absent,yY,nN,y,1,1.1337939999066293,y,0,0.8283808000851423,RSVPLG01,0.94,2023-09-12-22:27:18,9004,1,Experiment,2023-09-12_15h49.37.245,
9,global,local,7,1,3,15,8,,,21,exp,HUHLNYZYFEULTFT,LHYYSTUZFFEXTHL,5,N,X,nN,yY,y,0,1.174832799937576,n,0,0.31358880014158785,RSVPLG01,0.94,2023-09-12-22:27:18,9004,1,Experiment,2023-09-12_15h49.37.245,
1,local,local,0,1,4,16,0,,,22,exp,YNETULZHZEHTFYU,FTYNESUEZFNTHHZ,6,S,absent,sS,nN,s,1,1.5726069000083953,n,1,0.45597160002216697,RSVPLG01,0.94,2023-09-12-22:27:18,9004,1,Experiment,2023-09-12_15h49.37.245,
7,global,local,0,1,5,17,6,,,23,exp,NTNESLFHLUFEZTU,FLUZYTEHNFZNUET,5,S,absent,sS,nN,s,1,1.6624160001520067,n,1,0.5051104000303894,RSVPLG01,0.94,2023-09-12-22:27:18,9004,1,Experiment,2023-09-12_15h49.37.245,
5,local,global,3,1,6,18,4,,,24,exp,NYFHELNXYUZTHUT,LZNLSTFHZUNUYTF,5,S,X,sS,yY,s,1,1.0028069999534637,y,1,1.0402494999580085,RSVPLG01,0.94,2023-09-12-22:27:18,9004,1,Experiment,2023-09-12_15h49.37.245,
10,global,global,0,1,7,19,9,,,25,exp,FSZZTYLEELUFHSU,HFEFTNHUTZUZSLE,6,Y,absent,yY,nN,y,1,1.1120422999374568,n,1,0.40893829986453056,RSVPLG01,0.94,2023-09-12-22:27:18,9004,1,Experiment,2023-09-12_15h49.37.245,
4,local,global,0,1,8,20,3,,,26,exp,NSFLESHZUHYZNFE,EHZTESYFSZNNHUF,4,T,absent,tT,nN,t,1,1.183556499890983,n,1,0.2970362000633031,RSVPLG01,0.94,2023-09-12-22:27:18,9004,1,Experiment,2023-09-12_15h49.37.245,
4,local,global,0,1,9,21,3,,,27,exp,LNSZUTYHETZNHSY,ZSELFLYHEZTNSYT,5,F,absent,fF,nN,f,1,1.2026776000857353,n,1,0.39366589998826385,RSVPLG01,0.94,2023-09-12-22:27:18,9004,1,Experiment,2023-09-12_15h49.37.245,
12,global,global,7,1,10,22,11,,,28,exp,ENNTZYSHFUEXYHS,SFFULEUTHEHTSNY,5,Z,X,zZ,yY,l,0,0.9861779999919236,y,1,0.681319700088352,RSVPLG01,0.94,2023-09-12-22:27:18,9004,1,Experiment,2023-09-12_15h49.37.245,
2,local,local,3,1,11,23,1,,,29,exp,NTULTFUSHSEEZHL,USZTHYSTXNHENUZ,6,Y,X,yY,yY,y,1,1.8331202999688685,y,1,0.9055458998773247,RSVPLG01,0.94,2023-09-12-22:27:18,9004,1,Experiment,2023-09-12_15h49.37.245,
5,local,global,3,2,0,24,4,,,30,exp,YLNZHLTXFSENYFT,SLSFUFEETZLNTZN,5,U,X,uU,yY,u,1,1.1206471000332385,n,0,0.941861700033769,RSVPLG01,0.94,2023-09-12-22:27:18,9004,1,Experiment,2023-09-12_15h49.37.245,
11,global,global,3,2,1,25,10,,,31,exp,YHLZYTXFSNFEHTL,FSNUYTNYEESFLHL,4,Z,X,zZ,yY,l,0,1.3019207001198083,n,0,0.44722569989971817,RSVPLG01,0.94,2023-09-12-22:27:18,9004,1,Experiment,2023-09-12_15h49.37.245,
4,local,global,0,2,2,26,3,,,32,exp,SYUZTEHFTNYUFNS,TTZHULFZSYNUHFY,6,L,absent,lL,nN,l,1,1.0234224000014365,n,1,0.37895200005732477,RSVPLG01,0.94,2023-09-12-22:27:18,9004,1,Experiment,2023-09-12_15h49.37.245,
7,global,local,0,2,3,27,6,,,33,exp,FNTLSEYZUSTNZFE,UYEHTETZSNYFUNS,4,L,absent,lL,nN,h,0,1.6690209999214858,n,1,1.6613306999206543,RSVPLG01,0.94,2023-09-12-22:27:18,9004,1,Experiment,2023-09-12_15h49.37.245,
8,global,local,3,2,4,28,7,,,34,exp,ZSFUHLTESEHFNUT,HNSZTYUFXTEZFHU,6,L,X,lL,yY,t,0,1.0818116997834295,y,1,1.3265670000109822,RSVPLG01,0.94,2023-09-12-22:27:18,9004,1,Experiment,2023-09-12_15h49.37.245,
10,global,global,0,2,5,29,9,,,35,exp,TSNUHZLEUFTFSEL,TEFLYTFZSSZUUNE,5,H,absent,hH,nN,h,1,1.2622042999137193,n,1,0.5061767001170665,RSVPLG01,0.94,2023-09-12-22:27:18,9004,1,Experiment,2023-09-12_15h49.37.245,
6,local,global,7,2,6,30,5,,,36,exp,SNELEUHSYHZYXTL,LNZZNFSESLHHYYE,6,F,X,fF,yY,f,1,1.3325218001846224,n,0,0.5557876999955624,RSVPLG01,0.94,2023-09-12-22:27:18,9004,1,Experiment,2023-09-12_15h49.37.245,
5,local,global,3,2,7,31,4,,,37,exp,UTTYHEUFXFSZSYZ,UZTHULZNFYSSFNH,6,L,X,lL,yY,l,1,1.4995070002041757,n,0,0.31338090007193387,RSVPLG01,0.94,2023-09-12-22:27:18,9004,1,Experiment,2023-09-12_15h49.37.245,
7,global,local,0,2,8,32,6,,,38,exp,HYYTLSFETUZHSUF,ZFFYNZHTYEUEHUS,5,L,absent,lL,nN,l,1,1.2289164999965578,n,1,0.29677870008163154,RSVPLG01,0.94,2023-09-12-22:27:18,9004,1,Experiment,2023-09-12_15h49.37.245,
9,global,local,7,2,9,33,8,,,39,exp,NNZHTZYETSUESFF,ETZLUNSZFYXSNTE,4,H,X,hH,yY,h,1,1.1779565999750048,y,1,0.4499458000063896,RSVPLG01,0.94,2023-09-12-22:27:18,9004,1,Experiment,2023-09-12_15h49.37.245,
2,local,local,3,2,10,34,1,,,40,exp,UNZFTLSSUYZHYHL,UHUEYTXLLNSTZHS,4,E,X,eE,yY,e,1,1.2485925999935716,y,1,0.32932849996723235,RSVPLG01,0.94,2023-09-12-22:27:18,9004,1,Experiment,2023-09-12_15h49.37.245,
1,local,local,0,2,11,35,0,,,41,exp,NFSHZHSNLEEFYUY,FLFSTYEHUSNUHLE,5,T,absent,tT,nN,t,1,1.3749518000986427,n,1,0.3851520998869091,RSVPLG01,0.94,2023-09-12-22:27:18,9004,1,Experiment,2023-09-12_15h49.37.245,
3,local,local,7,3,0,36,2,,,42,exp,FTFYSUNTNLUELSH,HLFZSEHFLSXNTEU,4,Z,X,zZ,yY,z,1,1.6016705001238734,y,1,0.3934903999324888,RSVPLG01,0.94,2023-09-12-22:27:18,9004,1,Experiment,2023-09-12_15h49.37.245,
10,global,global,0,3,1,37,9,,,43,exp,ZHLNLFYHYUSZENS,UYUZETNZLHSESHN,6,F,absent,fF,nN,t,0,9.5345960999839,n,1,0.1855816999450326,RSVPLG01,0.94,2023-09-12-22:27:18,9004,1,Experiment,2023-09-12_15h49.37.245,
7,global,local,0,3,2,38,6,,,44,exp,FZHNLYFSSTHTZEL,NEZFTULSNTHFELS,6,Y,absent,yY,nN,u,0,2.2328806000296026,n,1,0.7137884001713246,RSVPLG01,0.94,2023-09-12-22:27:18,9004,1,Experiment,2023-09-12_15h49.37.245,
12,global,global,7,3,3,39,11,,,45,exp,LEHFNTESUZXZNTS,ZLZYTUESTNSEHHN,4,F,X,fF,yY,y,0,0.8273529000580311,n,0,0.2825825000181794,RSVPLG01,0.94,2023-09-12-22:27:18,9004,1,Experiment,2023-09-12_15h49.37.245,
1,local,local,0,3,4,40,0,,,46,exp,NFZSYLLFUYEEZUH,YZUTNLLZYUHHEEF,4,T,absent,tT,nN,t,1,1.4009163998998702,n,1,0.3651092001236975,RSVPLG01,0.94,2023-09-12-22:27:18,9004,1,Experiment,2023-09-12_15h49.37.245,
8,global,local,3,3,5,41,7,,,47,exp,UHYFUTLZYHZFLNN,FUZENSUHXYFYLLH,6,T,X,tT,yY,s,0,2.1476278000045568,n,0,0.02599289990030229,RSVPLG01,0.94,2023-09-12-22:27:18,9004,1,Experiment,2023-09-12_15h49.37.245,
3,local,local,7,3,6,42,2,,,48,exp,YTLZENTUSYEZHHL,HYLESFESHZLYXTU,6,F,X,fF,yY,n,0,0.8700424002017826,y,1,1.0692431998904794,RSVPLG01,0.94,2023-09-12-22:27:18,9004,1,Experiment,2023-09-12_15h49.37.245,
1,local,local,0,3,7,43,0,,,49,exp,LESUFSHETHZLYTZ,ZEUENSHTTZLYSLY,5,N,absent,nN,nN,n,1,1.012321300106123,y,0,0.39416570006869733,RSVPLG01,0.94,2023-09-12-22:27:18,9004,1,Experiment,2023-09-12_15h49.37.245,
6,local,global,7,3,8,44,5,,,50,exp,LZHTFSSYNHXNFLY,ZLUENHFSHSULFZN,4,E,X,eE,yY,e,1,1.4288566000759602,n,0,0.3291080000344664,RSVPLG01,0.94,2023-09-12-22:27:18,9004,1,Experiment,2023-09-12_15h49.37.245,
6,local,global,7,3,9,45,5,,,51,exp,HYELSSYUFNXNZZH,HZYTUFYNSZEUFSE,4,T,X,tT,yY,t,1,1.652197499992326,n,0,0.2849504000041634,RSVPLG01,0.94,2023-09-12-22:27:18,9004,1,Experiment,2023-09-12_15h49.37.245,
6,local,global,7,3,10,46,5,,,52,exp,LFLNESYUFHTXHNY,YUFNZNTSLLUHFYH,5,Z,X,zZ,yY,z,1,2.7205129000358284,n,0,0.3788350000977516,RSVPLG01,0.94,2023-09-12-22:27:18,9004,1,Experiment,2023-09-12_15h49.37.245,
2,local,local,3,3,11,47,1,,,53,exp,UZYEFHNZYNSFSLL,LSFUETNEXUYNSZZ,6,T,X,tT,yY,t,1,1.5102752998936921,y,1,0.2363354000262916,RSVPLG01,0.94,2023-09-12-22:27:18,9004,1,Experiment,2023-09-12_15h49.37.245,
7,global,local,0,4,0,48,6,,,54,exp,UUYZTYSNSTLHFHL,HUNESTYLTSYLFHN,4,Z,absent,zZ,nN,z,1,1.9104698998853564,n,1,0.7020761000458151,RSVPLG01,0.94,2023-09-12-22:27:18,9004,1,Experiment,2023-09-12_15h49.37.245,
8,global,local,3,4,1,49,7,,,55,exp,NHZTHZLSUEEFLNU,HFNYLZXFUESSLZU,4,T,X,tT,yY,t,1,1.532518699998036,y,1,0.3179396002087742,RSVPLG01,0.94,2023-09-12-22:27:18,9004,1,Experiment,2023-09-12_15h49.37.245,
8,global,local,3,4,2,50,7,,,56,exp,FYNHLSLZHFYNEUU,NHUEZTEZXNLFULF,6,S,X,sS,yY,l,0,1.670719999819994,n,0,0.17493629991076887,RSVPLG01,0.94,2023-09-12-22:27:18,9004,1,Experiment,2023-09-12_15h49.37.245,
12,global,global,7,4,3,51,11,,,57,exp,NEYHFTSUNUXELFT,TUFZNTUYYFELSNS,4,H,X,hH,yY,h,1,1.3249073000624776,n,0,0.21840659994632006,RSVPLG01,0.94,2023-09-12-22:27:18,9004,1,Experiment,2023-09-12_15h49.37.245,
4,local,global,0,4,4,52,3,,,58,exp,YULFHENFNYSZZES,LYZLTSSENYFZENU,5,T,absent,tT,nN,t,1,1.598212799988687,n,1,0.3447761998977512,RSVPLG01,0.94,2023-09-12-22:27:18,9004,1,Experiment,2023-09-12_15h49.37.245,
12,global,global,7,4,5,53,11,,,59,exp,EUZLZNHFTLSHXFU,LTTSHYUFUEEHFLS,6,N,X,nN,yY,n,1,11.51571789989248,n,0,0.3470493000932038,RSVPLG01,0.94,2023-09-12-22:27:18,9004,1,Experiment,2023-09-12_15h49.37.245,
11,global,global,3,4,6,54,10,,,60,exp,ZZNSYLXFEUYEHFH,HELTZZFNUFYELYN,4,S,X,sS,yY,l,0,6.6850988999940455,y,1,0.7760008999612182,RSVPLG01,0.94,2023-09-12-22:27:18,9004,1,Experiment,2023-09-12_15h49.37.245,
11,global,global,3,4,7,55,10,,,61,exp,YTZHSNTEXUUESYF,EFHUYLHEZSTZSYF,6,N,X,nN,yY,n,1,1.3592601001728326,n,0,0.5369778999593109,RSVPLG01,0.94,2023-09-12-22:27:18,9004,1,Experiment,2023-09-12_15h49.37.245,
4,local,global,0,4,8,56,3,,,62,exp,NFLNSHSUZZTFEET,NFUFSYZNUTELTLS,6,Y,absent,yY,nN,y,1,1.157557199941948,n,1,1.0499226001556963,RSVPLG01,0.94,2023-09-12-22:27:18,9004,1,Experiment,2023-09-12_15h49.37.245,
7,global,local,0,4,9,57,6,,,63,exp,FNNEHSZYUSFUTZE,NTUZLFEFYSUZTSY,5,H,absent,hH,nN,l,0,1.0804696001578122,n,1,0.472792100161314,RSVPLG01,0.94,2023-09-12-22:27:18,9004,1,Experiment,2023-09-12_15h49.37.245,
7,global,local,0,4,10,58,6,,,64,exp,ENUFLHTUHNFESZS,UNTZYFNEFZETHUS,5,L,absent,lL,nN,l,1,1.0714483000338078,n,1,0.5552191000897437,RSVPLG01,0.94,2023-09-12-22:27:18,9004,1,Experiment,2023-09-12_15h49.37.245,
7,global,local,0,4,11,59,6,,,65,exp,ULUNTSHEESFHLYY,UUEZYHLTELFSHSY,4,N,absent,nN,nN,y,0,2.0220125999767333,n,1,0.6059119000565261,RSVPLG01,0.94,2023-09-12-22:27:18,9004,1,Experiment,2023-09-12_15h49.37.245,
11,global,global,3,5,0,60,10,,,66,exp,FSUTHYNTXLLNZZS,TSHTNEZLZFULFUS,6,Y,X,yY,yY,y,1,0.8984115999191999,n,0,0.32925870013423264,RSVPLG01,0.94,2023-09-12-22:27:18,9004,1,Experiment,2023-09-12_15h49.37.245,
10,global,global,0,5,1,61,9,,,67,exp,YHEFTZUELYNFLHN,HULLSZZHNNYEYUF,5,T,absent,tT,nN,t,1,1.1171055999584496,n,1,0.1533305998891592,RSVPLG01,0.94,2023-09-12-22:27:18,9004,1,Experiment,2023-09-12_15h49.37.245,
8,global,local,3,5,2,62,7,,,68,exp,SUULEYZZFYTHFTL,LLFUNSHXZUTFYTS,5,E,X,eE,yY,s,0,6.503686900017783,n,0,0.09143789997324347,RSVPLG01,0.94,2023-09-12-22:27:18,9004,1,Experiment,2023-09-12_15h49.37.245,
10,global,global,0,5,3,63,9,,,69,exp,NLUYENHZSFSFHZY,ZUULTSHHFYYZLNN,5,E,absent,eE,nN,t,0,2.0757377999834716,n,1,0.21706659998744726,RSVPLG01,0.94,2023-09-12-22:27:18,9004,1,Experiment,2023-09-12_15h49.37.245,
7,global,local,0,5,4,64,6,,,70,exp,FSTSHNYZUUFEEHZ,UUYTELZTYFHSHSZ,6,N,absent,nN,nN,n,1,1.0214623000938445,n,1,0.3316863998770714,RSVPLG01,0.94,2023-09-12-22:27:18,9004,1,Experiment,2023-09-12_15h49.37.245,
3,local,local,7,5,5,65,2,,,71,exp,FENTLESSZHHTYFN,SHTNUYSFTENXYFZ,5,U,X,uU,yY,y,0,0.9678315999917686,y,1,0.6963051001075655,RSVPLG01,0.94,2023-09-12-22:27:18,9004,1,Experiment,2023-09-12_15h49.37.245,
1,local,local,0,5,6,66,0,,,72,exp,YNHTUFLLZZEFEHT,FNHTSZFNTYLYHEZ,5,S,absent,sS,nN,s,1,1.2625557000283152,n,1,0.3190049999393523,RSVPLG01,0.94,2023-09-12-22:27:18,9004,1,Experiment,2023-09-12_15h49.37.245,
4,local,global,0,5,7,67,3,,,73,exp,ZHSYZNLFSFTLUNT,FUSEZHHNTFZTNSL,4,E,absent,eE,nN,e,1,1.5696328999474645,n,1,0.2813482000492513,RSVPLG01,0.94,2023-09-12-22:27:18,9004,1,Experiment,2023-09-12_15h49.37.245,
11,global,global,3,5,8,68,10,,,74,exp,FZFYESZHXUHNLNL,UEFYLTHUFHZENYN,6,S,X,sS,yY,s,1,2.4534430000931025,n,0,0.23338330001570284,RSVPLG01,0.94,2023-09-12-22:27:18,9004,1,Experiment,2023-09-12_15h49.37.245,
7,global,local,0,5,9,69,6,,,75,exp,YZEFESNLTZTFNLU,UUZTTHLLNFEYYFZ,6,S,absent,sS,nN,s,1,0.9253169000148773,n,1,0.29716780013404787,RSVPLG01,0.94,2023-09-12-22:27:18,9004,1,Experiment,2023-09-12_15h49.37.245,
9,global,local,7,5,10,70,8,,,76,exp,ZFHSTZLYLNFTYNE,FENUNYTZYLXHHLF,4,S,X,sS,yY,s,1,0.9017033998388797,y,1,0.2022578998003155,RSVPLG01,0.94,2023-09-12-22:27:18,9004,1,Experiment,2023-09-12_15h49.37.245,
6,local,global,7,5,11,71,5,,,77,exp,UYSHFNZYUSZEXLE,UYULHTFHZEESYSZ,6,T,X,tT,yY,t,1,1.5086525999940932,y,1,0.4758299000095576,RSVPLG01,0.94,2023-09-12-22:27:18,9004,1,Experiment,2023-09-12_15h49.37.245,
2,local,local,3,6,0,72,1,,,78,exp,UZETZEFLFYLHHNN,LLUSENXYFZZEHNF,4,S,X,sS,yY,s,1,0.8469525000546128,n,0,0.24957909993827343,RSVPLG01,0.94,2023-09-12-22:27:18,9004,1,Experiment,2023-09-12_15h49.37.245,
5,local,global,3,6,1,73,4,,,79,exp,LESUYFYSXNZTUTZ,YLESEHSUUTNZTZN,6,H,X,hH,yY,e,0,0.864543000003323,n,0,0.3470124998129904,RSVPLG01,0.94,2023-09-12-22:27:18,9004,1,Experiment,2023-09-12_15h49.37.245,
5,local,global,3,6,2,74,4,,,80,exp,THEZLYZXYHSTUFU,UFTENUHEYFZSHYZ,5,N,X,nN,yY,u,0,1.0239458000287414,n,0,0.34472039993852377,RSVPLG01,0.94,2023-09-12-22:27:18,9004,1,Experiment,2023-09-12_15h49.37.245,
5,local,global,3,6,3,75,4,,,81,exp,THSFTLXNUHNEUSY,THEZUYSNNELLHTU,4,Z,X,zZ,yY,z,1,1.7378827999345958,n,0,86.79330509994179,RSVPLG01,0.94,2023-09-12-22:27:18,9004,1,Experiment,2023-09-12_15h49.37.245,
9,global,local,7,6,4,76,8,,,82,exp,ZTUZESUYNYELFLF,FLLFUHUNEZYTXNZ,6,S,X,sS,yY,h,0,1.4610659999307245,n,0,0.09074830007739365,RSVPLG01,0.94,2023-09-12-22:27:18,9004,1,Experiment,2023-09-12_15h49.37.245,
4,local,global,0,6,5,77,3,,,83,exp,EUZTYNUHFZLHYFN,HLFSEYNHZFEYZLU,4,S,absent,sS,nN,s,1,0.9057369001675397,n,1,0.39413990010507405,RSVPLG01,0.94,2023-09-12-22:27:18,9004,1,Experiment,2023-09-12_15h49.37.245,
1,local,local,0,6,6,78,0,,,84,exp,SLSUNNTZLFEHFTE,STNYZTELFNZSHEH,4,Y,absent,yY,nN,y,1,0.9624620999675244,n,1,0.3489483001176268,RSVPLG01,0.94,2023-09-12-22:27:18,9004,1,Experiment,2023-09-12_15h49.37.245,
8,global,local,3,6,7,79,7,,,85,exp,LUUSYTFENSHYNHE,NSEFUZFHXLNYEHY,6,T,X,tT,yY,y,0,1.1114229999948293,n,0,0.4422812000848353,RSVPLG01,0.94,2023-09-12-22:27:18,9004,1,Experiment,2023-09-12_15h49.37.245,
12,global,global,7,6,8,80,11,,,86,exp,EYYUHTHZNNEZXLL,FYNZESLZNYLHUEU,6,T,X,tT,yY,y,0,1.9723686000797898,n,0,0.008992800023406744,RSVPLG01,0.94,2023-09-12-22:27:18,9004,1,Experiment,2023-09-12_15h49.37.245,
12,global,global,7,6,9,81,11,,,87,exp,TZEYLNSFEFXTSZN,ZLFUHLNEHNEZTFS,4,Y,X,yY,yY,y,1,0.8399409998673946,n,0,0.2663472001440823,RSVPLG01,0.94,2023-09-12-22:27:18,9004,1,Experiment,2023-09-12_15h49.37.245,
5,local,global,3,6,10,82,4,,,88,exp,YTYLEFNSXUUSLEH,YTLSUZTYHHLEUNN,6,Z,X,zZ,yY,u,0,1.2147024001460522,n,0,0.4919423998799175,RSVPLG01,0.94,2023-09-12-22:27:18,9004,1,Experiment,2023-09-12_15h49.37.245,
12,global,global,7,6,11,83,11,,,89,exp,FYNHLTTZLNXYUFZ,LTSENFFYLTZUZSU,4,H,X,hH,yY,h,1,1.4148843998555094,n,0,0.25080669997259974,RSVPLG01,0.94,2023-09-12-22:27:18,9004,1,Experiment,2023-09-12_15h49.37.245,
3,local,local,7,7,0,84,2,,,90,exp,LNTZEYSNZFHSTFH,SNHFULSZYHYXFNL,5,U,X,uU,yY,u,1,0.7174890998285264,y,1,0.5098888000939041,RSVPLG01,0.94,2023-09-12-22:27:18,9004,1,Experiment,2023-09-12_15h49.37.245,
8,global,local,3,7,1,85,7,,,91,exp,LZLFSYUTNTNSZUF,FZHNNEUTXSUTFSH,6,Y,X,yY,yY,y,1,1.0080062001943588,y,1,0.6815207998733968,RSVPLG01,0.94,2023-09-12-22:27:18,9004,1,Experiment,2023-09-12_15h49.37.245,
1,local,local,0,7,2,86,0,,,92,exp,LNEYHSLEUZTNZUH,HTEFLESULNUNZHS,4,F,absent,fF,nN,f,1,1.4743411999661475,n,1,0.3469808998052031,RSVPLG01,0.94,2023-09-12-22:27:18,9004,1,Experiment,2023-09-12_15h49.37.245,
12,global,global,7,7,3,87,11,,,93,exp,LTZYLFETUNUYXZN,TLELESHTNZUZHUY,6,F,X,fF,yY,e,0,1.495763200102374,n,0,0.3298634998500347,RSVPLG01,0.94,2023-09-12-22:27:18,9004,1,Experiment,2023-09-12_15h49.37.245,
9,global,local,7,7,4,88,8,,,94,exp,SNUFYTEELNZLFST,FLUTHUZSZSFXNNE,5,Y,X,yY,yY,y,1,0.8999397000297904,y,1,0.4576618999708444,RSVPLG01,0.94,2023-09-12-22:27:18,9004,1,Experiment,2023-09-12_15h49.37.245,
6,local,global,7,7,5,89,5,,,95,exp,ENSFZHNLLYTYXSE,SFSEEUZTLTLNFNY,6,U,X,uU,yY,e,0,1.2187631998676807,n,0,0.5537302999291569,RSVPLG01,0.94,2023-09-12-22:27:18,9004,1,Experiment,2023-09-12_15h49.37.245,
8,global,local,3,7,6,90,7,,,96,exp,FHLZSUTEFZHSYTL,YHHZSNLFXLESEFT,6,U,X,uU,yY,n,0,1.1713375998660922,n,0,0.42669150000438094,RSVPLG01,0.94,2023-09-12-22:27:18,9004,1,Experiment,2023-09-12_15h49.37.245,
12,global,global,7,7,7,91,11,,,97,exp,YESFTHUYLNXLUTS,TYEZUTUNLSHNESH,4,F,X,fF,yY,z,0,1.5210828999988735,n,0,0.42527240002527833,RSVPLG01,0.94,2023-09-12-22:27:18,9004,1,Experiment,2023-09-12_15h49.37.245,
4,local,global,0,7,8,92,3,,,98,exp,LHEUFYLTZESSZHU,ESLUNTUSYHZHEYL,5,N,absent,nN,nN,n,1,0.9049325999803841,n,1,0.411559300031513,RSVPLG01,0.94,2023-09-12-22:27:18,9004,1,Experiment,2023-09-12_15h49.37.245,
7,global,local,0,7,9,93,6,,,99,exp,YYNZTSSLUUFLFNH,UYZSEHLHFNSYLZF,5,T,absent,tT,nN,h,0,0.8366064000874758,n,1,1.2152178999967873,RSVPLG01,0.94,2023-09-12-22:27:18,9004,1,Experiment,2023-09-12_15h49.37.245,
3,local,local,7,7,10,94,2,,,100,exp,NLYEHYZTTFFHSSZ,YSNUNLTZTLXHFHZ,4,U,X,uU,yY,u,1,0.7131020999513566,y,1,0.4885491000022739,RSVPLG01,0.94,2023-09-12-22:27:18,9004,1,Experiment,2023-09-12_15h49.37.245,
6,local,global,7,7,11,95,5,,,101,exp,HYNFELZEUTYZXHU,NYHUTSZYFHUTZFE,6,S,X,sS,yY,s,1,1.4605743999127299,n,0,0.6706491000950336,RSVPLG01,0.94,2023-09-12-22:27:18,9004,1,Experiment,2023-09-12_15h49.37.245,
7,global,local,0,8,0,96,6,,,102,exp,TTSHFUZSEYNYZEU,ENYSLHZUETSNHTY,5,F,absent,fF,nN,l,0,1.1616730000823736,n,1,0.2815576000139117,RSVPLG01,0.94,2023-09-12-22:27:18,9004,1,Experiment,2023-09-12_15h49.37.245,
2,local,local,3,8,1,97,1,,,103,exp,HZUSSLUZFFNNYEY,SFFYHTNEXNZUZEU,6,T,X,tT,yY,t,1,1.3382266999688,y,1,0.40845240000635386,RSVPLG01,0.94,2023-09-12-22:27:18,9004,1,Experiment,2023-09-12_15h49.37.245,
9,global,local,7,8,2,98,8,,,104,exp,NYZYHSESEFUUFZT,FUTSLYZUYFEXNSE,5,H,X,hH,yY,l,0,0.9080707998946309,y,1,0.8429737000260502,RSVPLG01,0.94,2023-09-12-22:27:18,9004,1,Experiment,2023-09-12_15h49.37.245,
10,global,global,0,8,3,99,9,,,105,exp,LESZETFNUYUNTYL,UFTHYSNNLUYTFES,4,Z,absent,zZ,nN,h,0,1.661104700062424,n,1,0.2660975002218038,RSVPLG01,0.94,2023-09-12-22:27:18,9004,1,Experiment,2023-09-12_15h49.37.245,
3,local,local,7,8,4,100,2,,,106,exp,ZSNHYLTTULSZHNU,EZNSFHULEHUXNZL,5,F,X,fF,yY,f,1,1.3364470000378788,y,1,0.41079230001196265,RSVPLG01,0.94,2023-09-12-22:27:18,9004,1,Experiment,2023-09-12_15h49.37.245,
9,global,local,7,8,5,101,8,,,107,exp,UETEYHLTFSUSYFZ,FTFZYNTZULSSXUE,6,H,X,hH,yY,n,0,1.8802038999274373,y,1,0.4419316998682916,RSVPLG01,0.94,2023-09-12-22:27:18,9004,1,Experiment,2023-09-12_15h49.37.245,
1,local,local,0,8,6,102,0,,,108,exp,UEUSNZELYFLYNTT,LNUYUHNSELSFEYT,6,H,absent,hH,nN,h,1,1.3577689998783171,y,0,0.3498946998734027,RSVPLG01,0.94,2023-09-12-22:27:18,9004,1,Experiment,2023-09-12_15h49.37.245,
3,local,local,7,8,7,103,2,,,109,exp,YNSTZHEFNTEYFSU,HFHELUSYNNYXUES,5,L,X,lL,yY,l,1,1.0667725000530481,y,1,0.3925509999971837,RSVPLG01,0.94,2023-09-12-22:27:18,9004,1,Experiment,2023-09-12_15h49.37.245,
12,global,global,7,8,8,104,11,,,110,exp,SYEFNUFTYEZLXLT,ZFSTNHEYLLNFZYS,6,U,X,uU,yY,h,0,1.9063017000444233,y,1,0.010103699984028935,RSVPLG01,0.94,2023-09-12-22:27:18,9004,1,Experiment,2023-09-12_15h49.37.245,
8,global,local,3,8,9,105,7,,,111,exp,FLLSUHUZFSETYZT,ESYZZNTLXLEYUFT,6,H,X,hH,yY,h,1,1.1071226000785828,y,1,0.3973715999163687,RSVPLG01,0.94,2023-09-12-22:27:18,9004,1,Experiment,2023-09-12_15h49.37.245,
9,global,local,7,8,10,106,8,,,112,exp,ESZYUFNNTYHFSZT,FTETLSHZNENXZFY,5,U,X,uU,yY,y,0,0.9456552001647651,y,1,3.0508560000453144,RSVPLG01,0.94,2023-09-12-22:27:18,9004,1,Experiment,2023-09-12_15h49.37.245,
3,local,local,7,8,11,107,2,,,113,exp,ETNHLNSLTFSEFZU,LZSYNUFULTXFZNE,4,Y,X,yY,yY,y,1,0.7932370998896658,y,1,0.057954000076279044,RSVPLG01,0.94,2023-09-12-22:27:18,9004,1,Experiment,2023-09-12_15h49.37.245,
8,global,local,3,9,0,108,7,,,114,exp,TLUSTYUHZZYEHFL,FUHNZLXELYTYFZT,4,S,X,sS,yY,s,1,1.229511900106445,y,1,0.505005800165236,RSVPLG01,0.94,2023-09-12-22:27:18,9004,1,Experiment,2023-09-12_15h49.37.245,
9,global,local,7,9,1,109,8,,,115,exp,EYZTYNFLTEHZHFU,YUHFLSEZTUYLXEF,6,N,X,nN,yY,s,0,1.4717299998737872,y,1,0.2645401998888701,RSVPLG01,0.94,2023-09-12-22:27:18,9004,1,Experiment,2023-09-12_15h49.37.245,
10,global,global,0,9,2,110,9,,,116,exp,YFLHUTFSELEHTSZ,HFLENTYESFSZLHY,5,U,absent,uU,nN,h,0,2.0044148000888526,n,1,0.34760440001264215,RSVPLG01,0.94,2023-09-12-22:27:18,9004,1,Experiment,2023-09-12_15h49.37.245,
2,local,local,3,9,3,111,1,,,117,exp,ESNZTEHHYFFYSUN,HSNYLNHXUZZFYSF,5,L,X,lL,yY,l,1,1.3588441000320017,n,0,0.2653131999541074,RSVPLG01,0.94,2023-09-12-22:27:18,9004,1,Experiment,2023-09-12_15h49.37.245,
4,local,global,0,9,4,112,3,,,118,exp,FZYTZUFNSEELTSL,LYTSLHEFSETZNZY,6,H,absent,hH,nN,h,1,1.2160720000974834,n,1,0.36156700015999377,RSVPLG01,0.94,2023-09-12-22:27:18,9004,1,Experiment,2023-09-12_15h49.37.245,
5,local,global,3,9,5,113,4,,,119,exp,SNFLTUXYYTHSZFZ,TSUEYHNTHFFZNZS,4,E,X,eE,yY,e,1,1.9836595999076962,n,0,0.39288000017404556,RSVPLG01,0.94,2023-09-12-22:27:18,9004,1,Experiment,2023-09-12_15h49.37.245,
6,local,global,7,9,6,114,5,,,120,exp,LTZSFHTNNUHXESZ,LUUHYNSHTLTNZES,5,Y,X,yY,yY,u,0,1.7422625999897718,n,0,1.0840549999848008,RSVPLG01,0.94,2023-09-12-22:27:18,9004,1,Experiment,2023-09-12_15h49.37.245,
8,global,local,3,9,7,115,7,,,121,exp,EUSLYHZLTFTSFEU,UFSZENLZXSUFTYE,6,H,X,hH,yY,n,0,0.9533134999219328,n,0,0.6666800999082625,RSVPLG01,0.94,2023-09-12-22:27:18,9004,1,Experiment,2023-09-12_15h49.37.245,
4,local,global,0,9,8,116,3,,,122,exp,UEZFYTLNHLTFUZH,HUNTSEZHFLZUTLF,5,S,absent,sS,nN,s,1,2.1117553000804037,n,1,0.4280057998839766,RSVPLG01,0.94,2023-09-12-22:27:18,9004,1,Experiment,2023-09-12_15h49.37.245,
10,global,global,0,9,9,117,9,,,123,exp,SEENSZHYLULNTUH,LNYUTFHENYUTEHL,6,Z,absent,zZ,nN,f,0,1.2753301998600364,y,0,0.10580460005439818,RSVPLG01,0.94,2023-09-12-22:27:18,9004,1,Experiment,2023-09-12_15h49.37.245,
9,global,local,7,9,10,118,8,,,124,exp,SEFLTHTESUUYYHN,YSTZYEHNFNXUESH,4,L,X,lL,yY,s,0,2.1129395000170916,n,0,0.38243329990655184,RSVPLG01,0.94,2023-09-12-22:27:18,9004,1,Experiment,2023-09-12_15h49.37.245,
5,local,global,3,9,11,119,4,,,125,exp,EZFSUYXELLZFYNH,FHZTEYLULNZYENU,4,T,X,tT,yY,e,0,1.0511247001122683,y,1,0.4462349000386894,RSVPLG01,0.94,2023-09-12-22:27:18,9004,1,Experiment,2023-09-12_15h49.37.245,
11,global,global,3,10,0,120,10,,,126,exp,UHSYLNHSXZFFLUT,LHYTFETZLUFSZUY,6,N,X,nN,yY,e,0,1.1586223000194877,y,1,0.21760670002549887,RSVPLG01,0.94,2023-09-12-22:27:18,9004,1,Experiment,2023-09-12_15h49.37.245,
6,local,global,7,10,1,121,5,,,127,exp,LUFEFSNYELHYXZH,ELNUUTNZEYFZFHY,6,T,X,tT,yY,t,1,1.1694859000854194,y,1,1.3248877997975796,RSVPLG01,0.94,2023-09-12-22:27:18,9004,1,Experiment,2023-09-12_15h49.37.245,
10,global,global,0,10,2,122,9,,,128,exp,ZZHFSTTYLEENLNF,THYNUHLFELNYZZF,5,S,absent,sS,nN,s,1,5.638490499928594,n,1,0.938738500000909,RSVPLG01,0.94,2023-09-12-22:27:18,9004,1,Experiment,2023-09-12_15h49.37.245,
3,local,local,7,10,3,123,2,,,129,exp,HZULNEYFTHETNUY,EUYSYNEFTZXHZFN,4,S,X,sS,yY,s,1,0.8866038999985904,y,1,0.3989664001855999,RSVPLG01,0.94,2023-09-12-22:27:18,9004,1,Experiment,2023-09-12_15h49.37.245,
5,local,global,3,10,4,124,4,,,130,exp,UYEEFZYNXFSUHTN,STTUULYHFFESENH,6,L,X,lL,yY,l,1,2.2447453001514077,y,1,0.28012949996627867,RSVPLG01,0.94,2023-09-12-22:27:18,9004,1,Experiment,2023-09-12_15h49.37.245,
6,local,global,7,10,5,125,5,,,131,exp,YEZLFUETUTZXNSY,YTZTHESYNESLZLU,5,H,X,hH,yY,h,1,1.906225400045514,y,1,0.7640343999955803,RSVPLG01,0.94,2023-09-12-22:27:18,9004,1,Experiment,2023-09-12_15h49.37.245,
10,global,global,0,10,6,126,9,,,132,exp,NLNSZYSFTLFHHEY,EHTSULELHSFTNNF,5,Z,absent,zZ,nN,l,0,1.0938738000113517,n,1,0.6047896000090986,RSVPLG01,0.94,2023-09-12-22:27:18,9004,1,Experiment,2023-09-12_15h49.37.245,
5,local,global,3,10,7,127,4,,,133,exp,LESYSZXNNTUEFZF,TLSHNUZETUNZSFL,4,H,X,hH,yY,h,1,1.2610959999728948,y,1,0.041624599834904075,RSVPLG01,0.94,2023-09-12-22:27:18,9004,1,Experiment,2023-09-12_15h49.37.245,
8,global,local,3,10,8,128,7,,,134,exp,YENETZNYFSSHFHU,SFZULNEXYHNYEHF,5,T,X,tT,yY,t,1,11.76656850008294,n,0,0.5375957998912781,RSVPLG01,0.94,2023-09-12-22:27:18,9004,1,Experiment,2023-09-12_15h49.37.245,
4,local,global,0,10,9,129,3,,,135,exp,EFULNSEYHYNHSZF,UHSTZZENNYFUEHS,4,T,absent,tT,nN,t,1,1.0032764000352472,n,1,0.5525028000120074,RSVPLG01,0.94,2023-09-12-22:27:18,9004,1,Experiment,2023-09-12_15h49.37.245,
1,local,local,0,10,10,130,0,,,136,exp,ZNLYFHLEYTHNUEU,THYHSUNELZUZTYL,5,S,absent,sS,nN,s,1,1.5995022000279278,y,0,0.46166020003147423,RSVPLG01,0.94,2023-09-12-22:27:18,9004,1,Experiment,2023-09-12_15h49.37.245,
9,global,local,7,10,11,131,8,,,137,exp,HYHUYFESTUSLETN,TYLEUZUSYSHNXLN,6,F,X,fF,yY,u,0,1.0230418001301587,n,0,0.5860781001392752,RSVPLG01,0.94,2023-09-12-22:27:18,9004,1,Experiment,2023-09-12_15h49.37.245,
11,global,global,3,11,0,132,10,,,138,exp,HYNELFXZUZLSSFN,UFFTLZYYNHSNSHZ,4,E,X,eE,yY,y,0,2.0936040999367833,n,0,0.4878002000041306,RSVPLG01,0.94,2023-09-12-22:27:18,9004,1,Experiment,2023-09-12_15h49.37.245,
10,global,global,0,11,1,133,9,,,139,exp,LYNLZYNFEHETTHU,TLFESNHUEHYYNTL,5,Z,absent,zZ,nN,y,0,1.3783221999183297,n,1,0.4444814999587834,RSVPLG01,0.94,2023-09-12-22:27:18,9004,1,Experiment,2023-09-12_15h49.37.245,
3,local,local,7,11,2,134,2,,,140,exp,LEZYHENTFLSTHSN,ZSTUTFNLEHXHNLZ,4,U,X,uU,yY,u,1,1.1950910999439657,y,1,0.2817122999113053,RSVPLG01,0.94,2023-09-12-22:27:18,9004,1,Experiment,2023-09-12_15h49.37.245,
12,global,global,7,11,3,135,11,,,141,exp,LTSNELYSNUUXZHY,HSUTFYZNZLTNUYH,5,E,X,eE,yY,f,0,1.3739081001840532,n,0,0.3921276000328362,RSVPLG01,0.94,2023-09-12-22:27:18,9004,1,Experiment,2023-09-12_15h49.37.245,
6,local,global,7,11,4,136,5,,,142,exp,ZZUTLFSLHYESXEY,YTYHUNSUELZTSEH,6,N,X,nN,yY,n,1,2.0636328998953104,y,1,0.2336206000763923,RSVPLG01,0.94,2023-09-12-22:27:18,9004,1,Experiment,2023-09-12_15h49.37.245,
7,global,local,0,11,5,137,6,,,143,exp,SFFZEYZUSHYUNTT,HSHYLFUNSZYUTFN,5,E,absent,eE,nN,l,0,1.0589254000224173,n,1,0.33501299982890487,RSVPLG01,0.94,2023-09-12-22:27:18,9004,1,Experiment,2023-09-12_15h49.37.245,
9,global,local,7,11,6,138,8,,,144,exp,TESTFLUSZHYLEHU,YHUENLZSHUTXLYS,5,F,X,fF,yY,n,0,0.9960441999137402,y,1,0.12098930007778108,RSVPLG01,0.94,2023-09-12-22:27:18,9004,1,Experiment,2023-09-12_15h49.37.245,
6,local,global,7,11,7,139,5,,,145,exp,TTZHUNZYSSLLXFU,ULYYTEZHFUZLFTH,6,E,X,eE,yY,e,1,1.3701297000516206,y,1,0.30051150009967387,RSVPLG01,0.94,2023-09-12-22:27:18,9004,1,Experiment,2023-09-12_15h49.37.245,
2,local,local,3,11,8,140,1,,,146,exp,FNHZYTESLHLTSNF,FYNUFHXLSLTTHNY,4,U,X,uU,yY,u,1,0.8047573999501765,y,1,0.2491161001380533,RSVPLG01,0.94,2023-09-12-22:27:18,9004,1,Experiment,2023-09-12_15h49.37.245,
2,local,local,3,11,9,141,1,,,147,exp,YHYEEZNTLSNLTHS,HLNNSUYLXFHYSEF,6,U,X,uU,yY,u,1,0.935308399843052,y,1,0.17034329986199737,RSVPLG01,0.94,2023-09-12-22:27:18,9004,1,Experiment,2023-09-12_15h49.37.245,
10,global,global,0,11,10,142,9,,,148,exp,LZYHYTNUTNSSUEE,SLEFZYTLEUZSUTY,4,H,absent,hH,nN,h,1,1.5516534000635147,y,0,0.2552239999640733,RSVPLG01,0.94,2023-09-12-22:27:18,9004,1,Experiment,2023-09-12_15h49.37.245,
11,global,global,3,11,11,143,10,,,149,exp,STFYLZFEXLYETUN,YLUFNHESYTFUSLT,6,Z,X,zZ,yY,y,0,4.351217000046745,y,1,0.5891909999772906,RSVPLG01,0.94,2023-09-12-22:27:18,9004,1,Experiment,2023-09-12_15h49.37.245,
1,local,local,0,12,0,144,0,,,150,exp,TYLFHNLUSYTHZFS,ZLYUSELYFTHZFTU,6,E,absent,eE,nN,e,1,1.5920657000970095,n,1,0.3790972998831421,RSVPLG01,0.94,2023-09-12-22:27:18,9004,1,Experiment,2023-09-12_15h49.37.245,
9,global,local,7,12,1,145,8,,,151,exp,YNZESFUNEUTFTZL,EZLFHYNUFYZXLNU,5,S,X,sS,yY,h,0,1.4319428999442607,y,1,0.39354679989628494,RSVPLG01,0.94,2023-09-12-22:27:18,9004,1,Experiment,2023-09-12_15h49.37.245,
7,global,local,0,12,2,146,6,,,152,exp,ZHYLUUEHNEFSZSF,NSSTFZFEUYZHYHN,4,L,absent,lL,nN,t,0,1.1710562999360263,n,1,0.2493330999277532,RSVPLG01,0.94,2023-09-12-22:27:18,9004,1,Experiment,2023-09-12_15h49.37.245,
2,local,local,3,12,3,147,1,,,153,exp,UFUEYHLTZLHTNNZ,FULSTHXNTHYNLUY,4,S,X,sS,yY,s,1,0.6656851000152528,y,1,0.13729569991119206,RSVPLG01,0.94,2023-09-12-22:27:18,9004,1,Experiment,2023-09-12_15h49.37.245,
11,global,global,3,12,4,148,10,,,154,exp,HFFELZESXNSLTNU,ENTFSYUUFSHNTLL,6,Z,X,zZ,yY,e,0,2.2847832997795194,n,0,0.9549028999172151,RSVPLG01,0.94,2023-09-12-22:27:18,9004,1,Experiment,2023-09-12_15h49.37.245,
3,local,local,7,12,5,149,2,,,155,exp,FHZZLETUYTYNLHF,LFYYNSZTNHFHXTU,6,S,X,sS,yY,s,1,0.8962634999770671,y,1,0.09367700014263391,RSVPLG01,0.94,2023-09-12-22:27:18,9004,1,Experiment,2023-09-12_15h49.37.245,
12,global,global,7,12,6,150,11,,,156,exp,LTLHUTZSFYFXEEY,HYZYNEESTTLZFSF,5,U,X,uU,yY,h,0,1.515022899955511,n,0,0.08987869997508824,RSVPLG01,0.94,2023-09-12-22:27:18,9004,1,Experiment,2023-09-12_15h49.37.245,
5,local,global,3,12,7,151,4,,,157,exp,UEUHZTLYXHSYSFF,LZSUYNLFYUFHEZE,6,N,X,nN,yY,n,1,1.0069522000849247,n,0,0.05694689997471869,RSVPLG01,0.94,2023-09-12-22:27:18,9004,1,Experiment,2023-09-12_15h49.37.245,
6,local,global,7,12,8,152,5,,,158,exp,TNHFSNLTSEXHUYE,HLNZSETYYSHLNTE,4,Z,X,zZ,yY,z,1,1.855657699983567,y,1,0.3438573000021279,RSVPLG01,0.94,2023-09-12-22:27:18,9004,1,Experiment,2023-09-12_15h49.37.245,
12,global,global,7,12,9,153,11,,,159,exp,UETTHLYNNEYXSUF,UTFSZLYEYENFNLT,5,H,X,hH,yY,t,0,3.3381183999590576,n,0,0.32985359989106655,RSVPLG01,0.94,2023-09-12-22:27:18,9004,1,Experiment,2023-09-12_15h49.37.245,
10,global,global,0,12,10,154,9,,,160,exp,EEYLFHUNFLZUYNZ,ZFNUETSSYFEUYLL,6,H,absent,hH,nN,h,1,1.1888923000078648,n,1,0.20595410000532866,RSVPLG01,0.94,2023-09-12-22:27:18,9004,1,Experiment,2023-09-12_15h49.37.245,
4,local,global,0,12,11,155,3,,,161,exp,UTFSFLYYNEZUNSZ,NFNEYHYUSSZTZFU,6,H,absent,hH,nN,h,1,1.0319367998745292,y,0,0.29663929995149374,RSVPLG01,0.94,2023-09-12-22:27:18,9004,1,Experiment,2023-09-12_15h49.37.245,
10,global,global,0,13,0,156,9,,,162,exp,EELUTNFZZLNYYUH,FZHUSYLUZNENYHL,5,T,absent,tT,nN,s,0,1.2605869001708925,n,1,0.2406098002102226,RSVPLG01,0.94,2023-09-12-22:27:18,9004,1,Experiment,2023-09-12_15h49.37.245,
11,global,global,3,13,1,157,10,,,163,exp,NEFNYHEXSLLFHUS,LUNHTHELSFFUESZ,5,Y,X,yY,yY,t,0,2.2918090999592096,y,1,0.09502150001935661,RSVPLG01,0.94,2023-09-12-22:27:18,9004,1,Experiment,2023-09-12_15h49.37.245,
6,local,global,7,13,2,158,5,,,164,exp,FYLSZNHLYFUHXSZ,UUYEFTEZLFLSSHH,6,T,X,tT,yY,t,1,1.0518255999777466,n,0,0.8939654999412596,RSVPLG01,0.94,2023-09-12-22:27:18,9004,1,Experiment,2023-09-12_15h49.37.245,
4,local,global,0,13,3,159,3,,,165,exp,ZHFYHUFLTNTNLEU,FLESZUNHZENTLHU,4,S,absent,sS,nN,s,1,1.1203119000419974,n,1,0.27078309981152415,RSVPLG01,0.94,2023-09-12-22:27:18,9004,1,Experiment,2023-09-12_15h49.37.245,
12,global,global,7,13,4,160,11,,,166,exp,TENFYSTNLUXYSZZ,ZNYHYSUZTLENLES,4,F,X,fF,yY,f,1,1.0922453000675887,n,0,0.23333450010977685,RSVPLG01,0.94,2023-09-12-22:27:18,9004,1,Experiment,2023-09-12_15h49.37.245,
2,local,local,3,13,5,161,1,,,167,exp,NHYTZHULENYFUFL,HNNSYEXZFUEHUZL,4,S,X,sS,yY,s,1,0.5512626001145691,y,1,2.968673799885437,RSVPLG01,0.94,2023-09-12-22:27:18,9004,1,Experiment,2023-09-12_15h49.37.245,
5,local,global,3,13,6,162,4,,,168,exp,YYHEUZFXENZFSHN,SNNHLHZTTYFZSEY,5,L,X,lL,yY,l,1,1.7005719000007957,n,0,0.203052899800241,RSVPLG01,0.94,2023-09-12-22:27:18,9004,1,Experiment,2023-09-12_15h49.37.245,
10,global,global,0,13,7,163,9,,,169,exp,HFULYESTHFNSNTE,FEHSZULHFNNSTLE,5,Y,absent,yY,nN,y,1,1.1943018999882042,n,1,0.4623976999428123,RSVPLG01,0.94,2023-09-12-22:27:18,9004,1,Experiment,2023-09-12_15h49.37.245,
2,local,local,3,13,8,164,1,,,170,exp,UESTYHNNUFSZETZ,HTZNLFNXFZTUEHU,5,L,X,lL,yY,l,1,1.1718864999711514,y,1,0.21681510005146265,RSVPLG01,0.94,2023-09-12-22:27:18,9004,1,Experiment,2023-09-12_15h49.37.245,
11,global,global,3,13,9,165,10,,,171,exp,SYUZNTLXSEFZYFE,ESTTHZYZFLFLUSY,5,N,X,nN,yY,h,0,1.2932242001406848,n,0,0.11170280002988875,RSVPLG01,0.94,2023-09-12-22:27:18,9004,1,Experiment,2023-09-12_15h49.37.245,
1,local,local,0,13,10,166,0,,,172,exp,HZSHLUEFTENTNFL,LZFNLYENEHTZHFS,6,Y,absent,yY,nN,y,1,0.9580852000508457,n,1,0.39531369996257126,RSVPLG01,0.94,2023-09-12-22:27:18,9004,1,Experiment,2023-09-12_15h49.37.245,
7,global,local,0,13,11,167,6,,,173,exp,HTTZNEHUSSYYULL,LSHFUUENSHNYLYE,4,Z,absent,zZ,nN,t,0,1.433602700009942,n,1,0.29928839998319745,RSVPLG01,0.94,2023-09-12-22:27:18,9004,1,Experiment,2023-09-12_15h49.37.245,
8,global,local,3,14,0,168,7,,,174,exp,UULZHSYNELTYNTE,SHNFUTXLYHUETEN,4,Z,X,zZ,yY,z,1,1.232655000174418,n,0,0.3631134999450296,RSVPLG01,0.94,2023-09-12-22:27:18,9004,1,Experiment,2023-09-12_15h49.37.245,
8,global,local,3,14,1,169,7,,,175,exp,UFUYNZEFNEHSYHS,ETEHYLSFXSTNUNF,6,Z,X,zZ,yY,l,0,1.4589871999341995,n,0,0.23502840008586645,RSVPLG01,0.94,2023-09-12-22:27:18,9004,1,Experiment,2023-09-12_15h49.37.245,
3,local,local,7,14,2,170,2,,,176,exp,YFZTUSTZLHSNYLN,NHHSEZYTSYFXLTL,5,E,X,eE,yY,s,0,1.1708398999180645,y,1,0.8910760001745075,RSVPLG01,0.94,2023-09-12-22:27:18,9004,1,Experiment,2023-09-12_15h49.37.245,
8,global,local,3,14,3,171,7,,,177,exp,USNZSLUEYLEFTFY,NESHTSXLLYYUNEU,4,Z,X,zZ,yY,y,0,1.7851480999961495,n,0,1.2734895998146385,RSVPLG01,0.94,2023-09-12-22:27:18,9004,1,Experiment,2023-09-12_15h49.37.245,
8,global,local,3,14,4,172,7,,,178,exp,SUTLFYYZSEUNNTZ,SZSHYUXTFEFZUYN,4,L,X,lL,yY,l,1,1.4855960998684168,y,1,0.47448699991218746,RSVPLG01,0.94,2023-09-12-22:27:18,9004,1,Experiment,2023-09-12_15h49.37.245,
3,local,local,7,14,5,173,2,,,179,exp,ZNHEZTHUFYNYLLU,YLEFHSFZEUHLXYZ,6,S,X,sS,yY,s,1,1.1919656998943537,n,0,0.3484588998835534,RSVPLG01,0.94,2023-09-12-22:27:18,9004,1,Experiment,2023-09-12_15h49.37.245,
2,local,local,3,14,6,174,1,,,180,exp,TEUHFZTFZLUSYSL,YLLNFSXFUETUSYT,4,N,X,nN,yY,f,0,2.090125000104308,y,1,0.29729650006629527,RSVPLG01,0.94,2023-09-12-22:27:18,9004,1,Experiment,2023-09-12_15h49.37.245,
1,local,local,0,14,7,175,0,,,181,exp,UHLFELZFSSNUNZY,YYHLTFSFUZHULZN,5,T,absent,tT,nN,t,1,1.3022126001305878,n,1,0.3441037000156939,RSVPLG01,0.94,2023-09-12-22:27:18,9004,1,Experiment,2023-09-12_15h49.37.245,
7,global,local,0,14,8,176,6,,,182,exp,SFUZYTLTNSZHLNF,TSSNELNFUTUFZLH,5,Y,absent,yY,nN,y,1,1.2988759998697788,n,1,0.4899526999797672,RSVPLG01,0.94,2023-09-12-22:27:18,9004,1,Experiment,2023-09-12_15h49.37.245,
9,global,local,7,14,9,177,8,,,183,exp,TZSLUTFFHZHYNYS,THFEHSZZYFXNUYT,4,L,X,lL,yY,l,1,1.1371100000105798,y,1,0.2967459000647068,RSVPLG01,0.94,2023-09-12-22:27:18,9004,1,Experiment,2023-09-12_15h49.37.245,
10,global,global,0,14,10,178,9,,,184,exp,EYHLNUTYEFUTSSH,FUYYZSESFLUTHTH,5,N,absent,nN,nN,n,1,1.0790996998548508,n,1,0.49404029990546405,RSVPLG01,0.94,2023-09-12-22:27:18,9004,1,Experiment,2023-09-12_15h49.37.245,
11,global,global,3,14,11,179,10,,,185,exp,TFTSUZUEXHYEHLF,HYELFNEYUFTULTS,6,Z,X,zZ,yY,n,0,1.0826205001212656,n,0,0.5035334997810423,RSVPLG01,0.94,2023-09-12-22:27:18,9004,1,Experiment,2023-09-12_15h49.37.245,
1,local,local,0,15,0,180,0,,,186,exp,HSZUEYFLEYLFNSH,HEHTELFNSNZFLSZ,4,T,absent,tT,nN,t,1,1.1719582001678646,n,1,0.3309220999944955,RSVPLG01,0.94,2023-09-12-22:27:18,9004,1,Experiment,2023-09-12_15h49.37.245,
6,local,global,7,15,1,181,5,,,187,exp,ZYNSHZLETESXFTY,FSYEUNLELZTFYTS,5,U,X,uU,yY,u,1,1.2819340000860393,y,1,0.168072700034827,RSVPLG01,0.94,2023-09-12-22:27:18,9004,1,Experiment,2023-09-12_15h49.37.245,
2,local,local,3,15,2,182,1,,,188,exp,LYSETFUYFHHULSN,HYUZFUXLTYLFNSS,4,Z,X,zZ,yY,z,1,1.3184789000079036,y,1,0.33075179997831583,RSVPLG01,0.94,2023-09-12-22:27:18,9004,1,Experiment,2023-09-12_15h49.37.245,
1,local,local,0,15,3,183,0,,,189,exp,LYTZSUUFSTNEYLE,LNYHSTUUNLESFFE,4,H,absent,hH,nN,u,0,1.3943517999723554,n,1,0.13873589993454516,RSVPLG01,0.94,2023-09-12-22:27:18,9004,1,Experiment,2023-09-12_15h49.37.245,
4,local,global,0,15,4,184,3,,,190,exp,SLHUTFZLUYYNZST,TSNZSEYLZTLHUNU,6,E,absent,eE,nN,e,1,1.3407181999646127,n,1,0.3503121000248939,RSVPLG01,0.94,2023-09-12-22:27:18,9004,1,Experiment,2023-09-12_15h49.37.245,
7,global,local,0,15,5,185,6,,,191,exp,LHUFNHTYYETFLSE,UTHLZYUYHSLTEFE,5,N,absent,nN,nN,n,1,1.4463114000391215,n,1,0.3146890001371503,RSVPLG01,0.94,2023-09-12-22:27:18,9004,1,Experiment,2023-09-12_15h49.37.245,
10,global,global,0,15,6,186,9,,,192,exp,ESLULZHSEFTNNZF,LHSYTTFZFELNZSH,4,U,absent,uU,nN,l,0,0.9506437999662012,n,1,0.20319740008562803,RSVPLG01,0.94,2023-09-12-22:27:18,9004,1,Experiment,2023-09-12_15h49.37.245,
3,local,local,7,15,7,187,2,,,193,exp,FHYTZETSNFUYSNU,STHZNLHTUNFZXFS,6,L,X,lL,yY,l,1,0.9897242998704314,y,1,0.2014345999341458,RSVPLG01,0.94,2023-09-12-22:27:18,9004,1,Experiment,2023-09-12_15h49.37.245,
10,global,global,0,15,8,188,9,,,194,exp,HELFUEZHUZLYNYN,HENSTYTYZLZEUUH,4,F,absent,fF,nN,f,1,1.2712996997870505,n,1,0.39319149986840785,RSVPLG01,0.94,2023-09-12-22:27:18,9004,1,Experiment,2023-09-12_15h49.37.245,
6,local,global,7,15,9,189,5,,,195,exp,YFESTLLZTUXZUHF,HLTNHFZEZYETFLU,4,N,X,nN,yY,n,1,1.1171288001351058,y,1,0.2708465999457985,RSVPLG01,0.94,2023-09-12-22:27:18,9004,1,Experiment,2023-09-12_15h49.37.245,
11,global,global,3,15,10,190,10,,,196,exp,UFSNZFEXLNUTSEL,LTFYHSLNFEUNEUT,5,Z,X,zZ,yY,z,1,1.2296327999792993,n,0,0.3295605001039803,RSVPLG01,0.94,2023-09-12-22:27:18,9004,1,Experiment,2023-09-12_15h49.37.245,
2,local,local,3,15,11,191,1,,,197,exp,HSFTELNFHELZSZN,FEHUFLXNZHSYEZY,4,U,X,uU,yY,u,1,0.9850947000086308,y,1,0.3613875999581069,RSVPLG01,0.94,2023-09-12-22:27:18,9004,1,Experiment,2023-09-12_15h49.37.245,
12,global,global,7,16,0,192,11,,,198,exp,FNFLNYTLEHSHXEZ,TSSFNUENEFLHTHZ,6,Y,X,yY,yY,y,1,1.1524496001657099,n,0,0.4585530001204461,RSVPLG01,0.94,2023-09-12-22:27:18,9004,1,Experiment,2023-09-12_15h49.37.245,
8,global,local,3,16,1,193,7,,,199,exp,ETLNFSHUHTYLUFS,FTLZFEXHYLHSSYT,4,N,X,nN,yY,n,1,0.7270758000668138,y,1,0.2504040999338031,RSVPLG01,0.94,2023-09-12-22:27:18,9004,1,Experiment,2023-09-12_15h49.37.245,
6,local,global,7,16,2,194,5,,,200,exp,UNLLUYFNTTEFXES,ZUFTLHTNLFUSSZE,6,H,X,hH,yY,h,1,1.342349600046873,y,1,0.35129750007763505,RSVPLG01,0.94,2023-09-12-22:27:18,9004,1,Experiment,2023-09-12_15h49.37.245,
11,global,global,3,16,3,195,10,,,201,exp,TFYUSHNXTHENYFL,HETHZYFUUNLLYET,5,S,X,sS,yY,z,0,1.5627781001385301,n,0,0.1682575000450015,RSVPLG01,0.94,2023-09-12-22:27:18,9004,1,Experiment,2023-09-12_15h49.37.245,
5,local,global,3,16,4,196,4,,,202,exp,FYENTFXEYHHLLUZ,LHYSETTUZLHYFZF,4,S,X,sS,yY,s,1,1.1907596001401544,y,1,1.0826278999447823,RSVPLG01,0.94,2023-09-12-22:27:18,9004,1,Experiment,2023-09-12_15h49.37.245,
11,global,global,3,16,5,197,10,,,203,exp,UNTELUXTLHYNYSS,LNFZSHTSYTUYHLF,4,E,X,eE,yY,f,0,1.5310865000355989,n,0,1.1135639999993145,RSVPLG01,0.94,2023-09-12-22:27:18,9004,1,Experiment,2023-09-12_15h49.37.245,
4,local,global,0,16,6,198,3,,,204,exp,TFSLZFNHZTSYHYN,YYFEUNTSSUHZNZH,4,E,absent,eE,nN,e,1,1.3076426000334322,n,1,0.2549521999899298,RSVPLG01,0.94,2023-09-12-22:27:18,9004,1,Experiment,2023-09-12_15h49.37.245,
11,global,global,3,16,7,199,10,,,205,exp,NFZUYHYTXSZNSFL,LUYZYEZSNUNTFFS,6,H,X,hH,yY,h,1,1.1392626001033932,n,0,0.23778320010751486,RSVPLG01,0.94,2023-09-12-22:27:18,9004,1,Experiment,2023-09-12_15h49.37.245,
12,global,global,7,16,8,200,11,,,206,exp,TUHZENSHEUXYSNL,NTUFLSLSTHHEUYE,4,Z,X,zZ,yY,f,0,1.284656799864024,y,1,0.17024730006232858,RSVPLG01,0.94,2023-09-12-22:27:18,9004,1,Experiment,2023-09-12_15h49.37.245,
5,local,global,3,16,9,201,4,,,207,exp,LNSHZTUYXZYNSFF,NUYUHENLSFHSZZL,6,E,X,eE,yY,e,1,1.4598010000772774,n,0,0.1863317999523133,RSVPLG01,0.94,2023-09-12-22:27:18,9004,1,Experiment,2023-09-12_15h49.37.245,
1,local,local,0,16,10,202,0,,,208,exp,UYNHSEYNTZLZULT,TNYFUZENLYUSTSL,4,F,absent,fF,nN,f,1,0.8187538001220673,y,0,0.23428129986859858,RSVPLG01,0.94,2023-09-12-22:27:18,9004,1,Experiment,2023-09-12_15h49.37.245,
9,global,local,7,16,11,203,8,,,209,exp,SFHEYLYHUZESNZU,FYZENTZUHFSUXSY,6,L,X,lL,yY,t,0,1.3506245999597013,y,1,0.010199100011959672,RSVPLG01,0.94,2023-09-12-22:27:18,9004,1,Experiment,2023-09-12_15h49.37.245,
5,local,global,3,17,0,204,4,,,210,exp,YHFTSNXNFYSLEZE,LSEUFELHZYYNSFZ,4,U,X,uU,yY,u,1,1.030997000169009,n,0,0.17509749997407198,RSVPLG01,0.94,2023-09-12-22:27:18,9004,1,Experiment,2023-09-12_15h49.37.245,
5,local,global,3,17,1,205,4,,,211,exp,FYENSEFXUZUHYLL,ELHZTYNUUFFENYL,5,T,X,tT,yY,u,0,1.2716997999232262,n,0,0.16879689996130764,RSVPLG01,0.94,2023-09-12-22:27:18,9004,1,Experiment,2023-09-12_15h49.37.245,
9,global,local,7,17,2,206,8,,,212,exp,TZZUFYHTLUHSSNN,FFZLZESHHLUNXTT,6,Y,X,yY,yY,y,1,1.1737529998645186,n,0,0.18567939987406135,RSVPLG01,0.94,2023-09-12-22:27:18,9004,1,Experiment,2023-09-12_15h49.37.245,
4,local,global,0,17,3,207,3,,,213,exp,HHLTESZUNUNSTFZ,LNZUYTHFNSLHTUZ,5,Y,absent,yY,nN,y,1,0.8771762999240309,n,1,0.5054230000823736,RSVPLG01,0.94,2023-09-12-22:27:18,9004,1,Experiment,2023-09-12_15h49.37.245,
9,global,local,7,17,4,208,8,,,214,exp,NHHYSZSETTFLFEZ,STZUFLFTHEXHNSN,4,Y,X,yY,yY,y,1,1.0936676999554038,y,1,0.7774620000272989,RSVPLG01,0.94,2023-09-12-22:27:18,9004,1,Experiment,2023-09-12_15h49.37.245,
2,local,local,3,17,5,209,1,,,215,exp,SNLNUHUSZYYZTLT,STFLFESUXNUZLNY,6,E,X,eE,yY,e,1,1.2251957000698894,y,1,0.18381890002638102,RSVPLG01,0.94,2023-09-12-22:27:18,9004,1,Experiment,2023-09-12_15h49.37.245,
2,local,local,3,17,6,210,1,,,216,exp,ZLFFTLUNSEHUENS,NFUZYLSXULHHFSZ,5,Y,X,yY,yY,y,1,1.0790250001009554,y,1,0.31353949988260865,RSVPLG01,0.94,2023-09-12-22:27:18,9004,1,Experiment,2023-09-12_15h49.37.245,
1,local,local,0,17,7,211,0,,,217,exp,TFHZLNZYSYELFTS,FTZTHUELHYYSFLZ,6,U,absent,uU,nN,u,1,1.4594509000889957,y,0,0.2650913998950273,RSVPLG01,0.94,2023-09-12-22:27:18,9004,1,Experiment,2023-09-12_15h49.37.245,
3,local,local,7,17,8,212,2,,,218,exp,ZLNFZLESEHUYUNH,NUZTLHZENYXUHYL,4,T,X,tT,yY,t,1,1.2885879001114517,y,1,0.3013887999113649,RSVPLG01,0.94,2023-09-12-22:27:18,9004,1,Experiment,2023-09-12_15h49.37.245,
1,local,local,0,17,9,213,0,,,219,exp,ZLHYFEEZHULTTNN,LZENSTUYUTYENZL,5,S,absent,sS,nN,s,1,3.4873858001083136,y,0,0.13774930010549724,RSVPLG01,0.94,2023-09-12-22:27:18,9004,1,Experiment,2023-09-12_15h49.37.245,
12,global,global,7,17,10,214,11,,,220,exp,ZNZHULLSESHXFFY,FZNSTYNYHFSLZEE,5,U,X,uU,yY,u,1,0.9468941001687199,n,0,0.3620732999406755,RSVPLG01,0.94,2023-09-12-22:27:18,9004,1,Experiment,2023-09-12_15h49.37.245,
1,local,local,0,17,11,215,0,,,221,exp,STNYETULYSNLZHU,LTZHFYYNHTZNSSU,5,F,absent,fF,nN,f,1,1.1983868000097573,n,1,0.1366481001023203,RSVPLG01,0.94,2023-09-12-22:27:18,9004,1,Experiment,2023-09-12_15h49.37.245,
2,local,local,3,18,0,216,1,,,222,exp,HESTYNUNUELFTLF,TUNUZNTXSLHLHEF,5,Z,X,zZ,yY,z,1,0.8865018000360578,y,1,0.24947579996660352,RSVPLG01,0.94,2023-09-12-22:27:18,9004,1,Experiment,2023-09-12_15h49.37.245,
3,local,local,7,18,1,217,2,,,223,exp,YENHTUZTFEZNFLL,TNEHZSYLEHFLXZT,6,S,X,sS,yY,z,0,1.0119604000356048,y,1,1.3530437999870628,RSVPLG01,0.94,2023-09-12-22:27:18,9004,1,Experiment,2023-09-12_15h49.37.245,
6,local,global,7,18,2,218,5,,,224,exp,YUHTYZELUFHLXES,UTHLLNYEFSFTHSY,6,N,X,nN,yY,n,1,1.435980300186202,n,0,0.8879545999225229,RSVPLG01,0.94,2023-09-12-22:27:18,9004,1,Experiment,2023-09-12_15h49.37.245,
2,local,local,3,18,3,219,1,,,225,exp,EULTYSHUEFLHFTY,FYHUFNYEXUHTTZL,6,N,X,nN,yY,n,1,0.8145061999093741,y,1,1.0072435999754816,RSVPLG01,0.94,2023-09-12-22:27:18,9004,1,Experiment,2023-09-12_15h49.37.245,
1,local,local,0,18,4,220,0,,,226,exp,HTLSNZUFUNEZHFT,ENFYFLTZLHHNUTZ,4,Y,absent,yY,nN,y,1,0.874735499965027,n,1,0.184447200037539,RSVPLG01,0.94,2023-09-12-22:27:18,9004,1,Experiment,2023-09-12_15h49.37.245,
8,global,local,3,18,5,221,7,,,227,exp,UHLFLHEZYNUZNES,LEZTZHXLEUNNSSH,4,F,X,fF,yY,t,0,0.832242000149563,y,1,0.4095247997902334,RSVPLG01,0.94,2023-09-12-22:27:18,9004,1,Experiment,2023-09-12_15h49.37.245,
6,local,global,7,18,6,222,5,,,228,exp,STNFSEYLLZXYZTE,LLEHUUYZSTNTESZ,4,H,X,hH,yY,u,0,0.973230900010094,y,1,0.5739098000340164,RSVPLG01,0.94,2023-09-12-22:27:18,9004,1,Experiment,2023-09-12_15h49.37.245,
11,global,global,3,18,7,223,10,,,229,exp,LFTSLUTNXSNFEZH,HTLNNYTHFFEZSSL,6,U,X,uU,yY,u,1,0.9918780999723822,n,0,0.10491209989413619,RSVPLG01,0.94,2023-09-12-22:27:18,9004,1,Experiment,2023-09-12_15h49.37.245,
10,global,global,0,18,8,224,9,,,230,exp,THYNFUHLLUEYNST,NTELZSSYHULEHTN,5,F,absent,fF,nN,f,1,1.1141615000087768,n,1,0.14318299992009997,RSVPLG01,0.94,2023-09-12-22:27:18,9004,1,Experiment,2023-09-12_15h49.37.245,
3,local,local,7,18,9,225,2,,,231,exp,LEYYZHFTZLTFNUU,NYTUFSTYUZLZXNE,6,S,X,sS,yY,s,1,1.0070298998616636,y,1,0.6657819000538439,RSVPLG01,0.94,2023-09-12-22:27:18,9004,1,Experiment,2023-09-12_15h49.37.245,
10,global,global,0,18,10,226,9,,,232,exp,TYZULEHNTZHNFFL,ZNZSTFFNTYEEHHL,4,U,absent,uU,nN,s,0,1.1185986998025328,y,0,0.10592700005508959,RSVPLG01,0.94,2023-09-12-22:27:18,9004,1,Experiment,2023-09-12_15h49.37.245,
9,global,local,7,18,11,227,8,,,233,exp,THUNYNZTFZHLFEE,FLLTSZTNEUZXHHU,5,Y,X,yY,yY,s,0,1.1320986999198794,y,1,0.18527000001631677,RSVPLG01,0.94,2023-09-12-22:27:18,9004,1,Experiment,2023-09-12_15h49.37.245,
1,local,local,0,19,0,228,0,,,234,exp,NLSTFZYSUNEEYZU,SUEHSFZUEFYNNZY,4,H,absent,hH,nN,h,1,1.4628620001021773,y,0,0.71167719992809,RSVPLG01,0.94,2023-09-12-22:27:18,9004,1,Experiment,2023-09-12_15h49.37.245,
3,local,local,7,19,1,229,2,,,235,exp,HNFYFSLYTEHZTZE,ZEYLFULNFHETXTZ,6,U,X,uU,yY,y,0,1.0404407000169158,y,1,0.2499371999874711,RSVPLG01,0.94,2023-09-12-22:27:18,9004,1,Experiment,2023-09-12_15h49.37.245,
11,global,global,3,19,2,230,10,,,236,exp,TENFLUXSHYHNYES,NSTZULHYEYTUHSL,4,F,X,fF,yY,f,1,1.110693900147453,y,1,0.5372588001191616,RSVPLG01,0.94,2023-09-12-22:27:18,9004,1,Experiment,2023-09-12_15h49.37.245,
6,local,global,7,19,3,231,5,,,237,exp,ZTESTHEUNYXHNZF,ENFLEHTYUHTYUZZ,4,L,X,lL,yY,l,1,1.351477000163868,y,1,0.2544938998762518,RSVPLG01,0.94,2023-09-12-22:27:18,9004,1,Experiment,2023-09-12_15h49.37.245,
11,global,global,3,19,4,232,10,,,238,exp,LEYYSHUUXFLSTEZ,FFULTNESZYSYULE,6,H,X,hH,yY,n,0,0.9891629999037832,y,1,0.40928769996389747,RSVPLG01,0.94,2023-09-12-22:27:18,9004,1,Experiment,2023-09-12_15h49.37.245,
5,local,global,3,19,5,233,4,,,239,exp,SELUNSXHTNEFTFZ,HZSYZFLLSNTEEFT,4,Y,X,yY,yY,y,1,1.0927691000979394,y,1,0.17427269998006523,RSVPLG01,0.94,2023-09-12-22:27:18,9004,1,Experiment,2023-09-12_15h49.37.245,
8,global,local,3,19,6,234,7,,,240,exp,FNTYULTYHSSLFZN,YTYZEHLXHNSTFLZ,5,U,X,uU,yY,u,1,1.7704583001323044,y,1,0.2654824999626726,RSVPLG01,0.94,2023-09-12-22:27:18,9004,1,Experiment,2023-09-12_15h49.37.245,
12,global,global,7,19,7,235,11,,,241,exp,UENYFTSTZEXHNHU,HSULNNEFSTHTZEU,4,Y,X,yY,yY,y,1,1.067552899941802,n,0,0.47335799993015826,RSVPLG01,0.94,2023-09-12-22:27:18,9004,1,Experiment,2023-09-12_15h49.37.245,
12,global,global,7,19,8,236,11,,,242,exp,NHFLYHEUSSXFUEZ,SSYTENZNUYFZFUH,4,L,X,lL,yY,l,1,1.210731399944052,y,1,0.30257289996370673,RSVPLG01,0.94,2023-09-12-22:27:18,9004,1,Experiment,2023-09-12_15h49.37.245,
9,global,local,7,19,9,237,8,,,243,exp,EULZEYFUSHFLSHY,HFENLHFYLYXUTSU,4,Z,X,zZ,yY,y,0,1.1045107000973076,y,1,2.840260500088334,RSVPLG01,0.94,2023-09-12-22:27:18,9004,1,Experiment,2023-09-12_15h49.37.245,
4,local,global,0,19,10,238,3,,,244,exp,YSSFZUHTFTULHEL,LFESNYFHTTHSUEL,5,N,absent,nN,nN,n,1,1.4783397000283003,n,1,0.04178700014017522,RSVPLG01,0.94,2023-09-12-22:27:18,9004,1,Experiment,2023-09-12_15h49.37.245,
3,local,local,7,19,11,239,2,,,245,exp,NZYTELEHYNSHFLF,HLLUNZNYHFXYSFZ,4,U,X,uU,yY,u,1,0.9429903998970985,y,1,0.2664187999907881,RSVPLG01,0.94,2023-09-12-22:27:18,9004,1,Experiment,2023-09-12_15h49.37.245,
