row,t1_level,t2_level,t2_lag,.thisRepN,.thisTrialN,.thisN,.thisIndex,thisRow.t,notes,trial,trial_type,global_letters,local_letters,t1_pos,t1,t2,t1_corr,t2_corr,t1_resp,t1_acc,t1_rt,t2_resp,t2_acc,t2_rt,exp,ver,mod-utc,sub,sess,blocktyp,datetime,
1,local,local,0,0,0,0,0,,,1,warmup,ZNSUTEHYLHUEZSY,YULNFNESUSEHYHZ,5,F,absent,fF,nN,e,0,0.9731380000000627,y,0,0.7417648999999074,RSVPLG01,0.94,2023-09-12-22:47:28,908,1,Experiment,2023-09-12_16h02.59.572,
7,global,local,0,0,1,1,6,,,2,warmup,FSEYTUSNFHTYLHN,LTSSEZYNFHTLNHY,6,U,absent,uU,nN,u,1,0.8560900999998466,y,0,0.6831257999999707,RSVPLG01,0.94,2023-09-12-22:47:28,908,1,Experiment,2023-09-12_16h02.59.572,
3,local,local,7,0,2,2,2,,,3,warmup,HTULSNYUSYFFZHZ,YTZEFUHSHSXFUTN,4,E,X,eE,yY,e,1,0.7614230000001498,y,1,0.14937699999995857,RSVPLG01,0.94,2023-09-12-22:47:28,908,1,Experiment,2023-09-12_16h02.59.572,
2,local,local,3,0,3,3,1,,,4,warmup,NTZULNYSHLTEHEY,SHNFTSXLTNZEHYL,4,F,X,fF,yY,l,0,0.8238028000000668,y,1,0.1168536000000131,RSVPLG01,0.94,2023-09-12-22:47:28,908,1,Experiment,2023-09-12_16h02.59.572,
10,global,global,0,0,4,4,9,,,5,warmup,NZESHLHULNFFYEZ,ZUUTLZYFELHNNEF,4,S,absent,sS,nN,s,1,1.359311899999966,n,1,0.9277554000000237,RSVPLG01,0.94,2023-09-12-22:47:28,908,1,Experiment,2023-09-12_16h02.59.572,
9,global,local,7,0,0,0,8,,,6,exp,FTSHUSUNFZLTNYZ,SZTEFYYSULXTULN,4,H,X,hH,yY,h,1,0.9113932000000204,y,1,0.2647899999999481,RSVPLG01,0.94,2023-09-12-22:47:28,908,1,Experiment,2023-09-12_16h02.59.572,
12,global,global,7,0,1,1,11,,,7,exp,FSFEYNYZUNXLZSU,FFSHUZYZNULTYTS,4,E,X,eE,yY,f,0,0.9765738999999485,y,1,0.2006584999999177,RSVPLG01,0.94,2023-09-12-22:47:28,908,1,Experiment,2023-09-12_16h02.59.572,
12,global,global,7,0,2,2,11,,,8,exp,YZELUFLNYHHXZES,YEEHTNNZFZFYLSS,5,U,X,uU,yY,u,1,0.836165899999969,y,1,0.12264500000014777,RSVPLG01,0.94,2023-09-12-22:47:28,908,1,Experiment,2023-09-12_16h02.59.572,
4,local,global,0,0,3,3,3,,,9,exp,LSEYNUTEHFHFTLU,LSNZFFTSNHUEHTE,4,Z,absent,zZ,nN,y,0,0.9527789000001121,n,1,0.5242270999999619,RSVPLG01,0.94,2023-09-12-22:47:28,908,1,Experiment,2023-09-12_16h02.59.572,
12,global,global,7,0,4,4,11,,,10,exp,FZEHULEUSZYNXSF,FUUZETNSZYHHNFE,6,L,X,lL,yY,l,1,1.169697099999894,y,1,0.3302467000000888,RSVPLG01,0.94,2023-09-12-22:47:28,908,1,Experiment,2023-09-12_16h02.59.572,
7,global,local,0,0,5,5,6,,,11,exp,LLFUYHTFZZEHEUN,NTZESEULHZHNFTU,5,Y,absent,yY,nN,y,1,0.9128995000000941,n,1,0.24230370000009316,RSVPLG01,0.94,2023-09-12-22:47:28,908,1,Experiment,2023-09-12_16h02.59.572,
1,local,local,0,0,6,6,0,,,12,exp,ZELTYFUYEHULHTS,STTHHNEZSEUYLZL,6,N,absent,nN,nN,e,0,0.8659798000001047,y,0,0.004617800000005445,RSVPLG01,0.94,2023-09-12-22:47:28,908,1,Experiment,2023-09-12_16h02.59.572,
10,global,global,0,0,7,7,9,,,13,exp,SNYZZFLUYSNHLHU,EULLSTSHEHNNYZZ,6,F,absent,fF,nN,f,1,0.959373400000004,y,0,0.1510640000001331,RSVPLG01,0.94,2023-09-12-22:47:28,908,1,Experiment,2023-09-12_16h02.59.572,
2,local,local,3,0,8,8,1,,,14,exp,TSHYFEZLTZHEYNN,ZESYUNEXTHNSLYL,5,U,X,uU,yY,u,1,0.9581969999999274,y,1,0.08610060000000885,RSVPLG01,0.94,2023-09-12-22:47:28,908,1,Experiment,2023-09-12_16h02.59.572,
4,local,global,0,0,9,9,3,,,15,exp,USTFLHTYEYLENNS,TSFLFZYUNELTESN,6,Z,absent,zZ,nN,z,1,0.9165887999999995,n,1,0.4170784000000367,RSVPLG01,0.94,2023-09-12-22:47:28,908,1,Experiment,2023-09-12_16h02.59.572,
10,global,global,0,0,10,10,9,,,16,exp,UUEFTNFLZNLZSEY,SELUHEYNNFUZSYZ,5,T,absent,tT,nN,l,0,1.2116049999999632,y,0,0.25714689999995244,RSVPLG01,0.94,2023-09-12-22:47:28,908,1,Experiment,2023-09-12_16h02.59.572,
1,local,local,0,0,11,11,0,,,17,exp,TYNZYEHNTHFUSSU,EYSLFNTTEUNHUYH,4,L,absent,lL,nN,l,1,4.118143599999939,n,1,0.9137495999998464,RSVPLG01,0.94,2023-09-12-22:47:28,908,1,Experiment,2023-09-12_16h02.59.572,
1,local,local,0,1,0,12,0,,,18,exp,EYLZUTLHYZUFHFE,SLEHYNEZSFUFZHL,6,N,absent,nN,nN,s,0,1.5268566999998257,y,0,0.3496430000000146,RSVPLG01,0.94,2023-09-12-22:47:28,908,1,Experiment,2023-09-12_16h02.59.572,
4,local,global,0,1,1,13,3,,,19,exp,TYTLUZEYHULNHNE,ETYYNFNUSHHTESL,6,F,absent,fF,nN,z,0,0.8313496000000669,n,1,0.3176677000001291,RSVPLG01,0.94,2023-09-12-22:47:28,908,1,Experiment,2023-09-12_16h02.59.572,
2,local,local,3,1,2,14,1,,,20,exp,TLSLNUSNZFHTHYF,TLZSFESLXHHYTZY,6,E,X,eE,yY,s,0,0.7709000999998352,y,1,0.20246050000014293,RSVPLG01,0.94,2023-09-12-22:47:28,908,1,Experiment,2023-09-12_16h02.59.572,
5,local,global,3,1,3,15,4,,,21,exp,FLTNEUHXFYLYNTH,UTNHSFNFYYUZZLH,5,S,X,sS,yY,s,1,0.7246889000000465,y,1,0.5625635999999758,RSVPLG01,0.94,2023-09-12-22:47:28,908,1,Experiment,2023-09-12_16h02.59.572,
8,global,local,3,1,4,16,7,,,22,exp,EYZUZHTFNLHYTLE,HTYSZLXHNEENYFF,4,U,X,uU,yY,u,1,0.8309494999998606,y,1,0.8491624999999203,RSVPLG01,0.94,2023-09-12-22:47:28,908,1,Experiment,2023-09-12_16h02.59.572,
7,global,local,0,1,5,17,6,,,23,exp,UFTFZLTSHSYHYUL,TLLUNHEHUFYTESS,5,Z,absent,zZ,nN,z,1,0.9043891999999687,y,0,0.18813420000014958,RSVPLG01,0.94,2023-09-12-22:47:28,908,1,Experiment,2023-09-12_16h02.59.572,
5,local,global,3,1,6,18,4,,,24,exp,NUFNYHTLXSYEEUS,NTTESZFYLUSYLNF,6,Z,X,zZ,yY,z,1,3.266448500000024,n,0,0.04367170000000442,RSVPLG01,0.94,2023-09-12-22:47:28,908,1,Experiment,2023-09-12_16h02.59.572,
7,global,local,0,1,7,19,6,,,25,exp,UFZLNFUYTTHEEYZ,TYESZHFFUUTZYHE,4,L,absent,lL,nN,l,1,1.3938838999997643,y,0,1.3201279999998405,RSVPLG01,0.94,2023-09-12-22:47:28,908,1,Experiment,2023-09-12_16h02.59.572,
4,local,global,0,1,8,20,3,,,26,exp,YUENZHLSFLEHZFS,YYSTLLEFFZUZSUE,4,T,absent,tT,nN,n,0,1.0754045000003316,y,0,0.15333559999999125,RSVPLG01,0.94,2023-09-12-22:47:28,908,1,Experiment,2023-09-12_16h02.59.572,
4,local,global,0,1,9,21,3,,,27,exp,TESYEZSFZLNULNT,UTFHZLLSZEFSNTU,4,H,absent,hH,nN,y,0,0.8640998000000764,y,0,0.16935999999986961,RSVPLG01,0.94,2023-09-12-22:47:28,908,1,Experiment,2023-09-12_16h02.59.572,
10,global,global,0,1,10,22,9,,,28,exp,FNENHSUTLZFZTLE,UZNLFYEFEHTHNLZ,6,S,absent,sS,nN,s,1,1.1241198999996413,y,0,0.34635679999973945,RSVPLG01,0.94,2023-09-12-22:47:28,908,1,Experiment,2023-09-12_16h02.59.572,
2,local,local,3,1,11,23,1,,,29,exp,SNTYZFHESHUTYNE,TSETULYHXYNNSEZ,6,L,X,lL,yY,l,1,0.8812603999999737,y,1,0.25941910000028656,RSVPLG01,0.94,2023-09-12-22:47:28,908,1,Experiment,2023-09-12_16h02.59.572,
6,local,global,7,2,0,24,5,,,30,exp,STLHENFTSUZXULN,FTHSYFHLNUUTSZZ,5,Y,X,yY,yY,s,0,0.6877602999998089,y,1,0.18591289999994842,RSVPLG01,0.94,2023-09-12-22:47:28,908,1,Experiment,2023-09-12_16h02.59.572,
5,local,global,3,2,1,25,4,,,31,exp,LYTHZEFXNHETUYN,ETUYSLYNETFNUHF,5,S,X,sS,yY,s,1,0.8097104000003128,n,0,0.23576550000007046,RSVPLG01,0.94,2023-09-12-22:47:28,908,1,Experiment,2023-09-12_16h02.59.572,
2,local,local,3,2,2,26,1,,,32,exp,FEYHNSLZYHLTTEN,ZEENYUFLXTTHZYN,6,U,X,uU,yY,u,1,0.8357203999999001,n,0,0.7553048999998282,RSVPLG01,0.94,2023-09-12-22:47:28,908,1,Experiment,2023-09-12_16h02.59.572,
12,global,global,7,2,3,27,11,,,33,exp,YFUSHTLYNLEXSUE,LEULZSNUFETTYNS,5,H,X,hH,yY,h,1,0.8668706000003112,y,1,0.23480079999990267,RSVPLG01,0.94,2023-09-12-22:47:28,908,1,Experiment,2023-09-12_16h02.59.572,
3,local,local,7,2,4,28,2,,,34,exp,FUSEZTFLLUYSNTZ,NSSHTFNZYUXFLZU,4,H,X,hH,yY,h,1,0.9046169000002919,y,1,0.05171939999991082,RSVPLG01,0.94,2023-09-12-22:47:28,908,1,Experiment,2023-09-12_16h02.59.572,
3,local,local,7,2,5,29,2,,,35,exp,HLFUTZESLUYHYFS,HYZSNLFYEEHXZUL,5,N,X,nN,yY,t,0,1.095830400000068,y,1,1.0821177000002535,RSVPLG01,0.94,2023-09-12-22:47:28,908,1,Experiment,2023-09-12_16h02.59.572,
10,global,global,0,2,6,30,9,,,36,exp,NZLHHUSTTEZLYNE,TNZZYFNHESYLEHS,6,U,absent,uU,nN,u,1,1.1401473000000806,y,0,0.2875097999999525,RSVPLG01,0.94,2023-09-12-22:47:28,908,1,Experiment,2023-09-12_16h02.59.572,
9,global,local,7,2,7,31,8,,,37,exp,ZFYEUHEFSNNSZHL,ZEYZTLHFHLEXYSS,5,U,X,uU,yY,u,1,1.5858487999998943,n,0,0.6324018999998771,RSVPLG01,0.94,2023-09-12-22:47:28,908,1,Experiment,2023-09-12_16h02.59.572,
1,local,local,0,2,8,32,0,,,38,exp,LNUFNZLTYFHSSHU,SFSFUEHYTULNHLT,6,E,absent,eE,nN,e,1,0.9509918000003381,y,0,0.241077199999836,RSVPLG01,0.94,2023-09-12-22:47:28,908,1,Experiment,2023-09-12_16h02.59.572,
12,global,global,7,2,9,33,11,,,39,exp,NFNFZTHSTEEXSUL,ELSEYTLFHFUNNHU,5,Z,X,zZ,yY,z,1,0.8475939999998445,n,0,1.2977049000000989,RSVPLG01,0.94,2023-09-12-22:47:28,908,1,Experiment,2023-09-12_16h02.59.572,
6,local,global,7,2,10,34,5,,,40,exp,YSLFLZEEUHXHNSN,ENSTEHUYUZSLYHZ,4,T,X,tT,yY,s,0,0.45283400000016627,y,1,0.15980380000019068,RSVPLG01,0.94,2023-09-12-22:47:28,908,1,Experiment,2023-09-12_16h02.59.572,
5,local,global,3,2,11,35,4,,,41,exp,NTTNUZLXLFEEZFS,FZFTHSYLNNSYEEL,5,H,X,hH,yY,l,0,0.8668686999999409,y,1,0.13281969999979992,RSVPLG01,0.94,2023-09-12-22:47:28,908,1,Experiment,2023-09-12_16h02.59.572,
10,global,global,0,3,0,36,9,,,42,exp,LUNSFHSFEZNTZTE,ELLZTYZENSFFTSU,6,H,absent,hH,nN,s,0,0.7494503999996596,y,0,0.1296016999999665,RSVPLG01,0.94,2023-09-12-22:47:28,908,1,Experiment,2023-09-12_16h02.59.572,
3,local,local,7,3,1,37,2,,,43,exp,HTNLFYUYSTUZFSH,ZYTEUNNHTHXSYUS,4,E,X,eE,yY,z,0,4.850580899999841,y,1,0.2665401999997812,RSVPLG01,0.94,2023-09-12-22:47:28,908,1,Experiment,2023-09-12_16h02.59.572,
12,global,global,7,3,2,38,11,,,44,exp,ZSTEHUFETUFXNSN,TLLZYESTUNNFZSE,5,H,X,hH,yY,h,1,0.6149027999999817,y,1,0.09261519999972734,RSVPLG01,0.94,2023-09-12-22:47:28,908,1,Experiment,2023-09-12_16h02.59.572,
9,global,local,7,3,3,39,8,,,45,exp,ZSUYTTNNZUFLSEE,ZNFHSZLNTEXLUES,4,Y,X,yY,yY,y,1,0.7902180999999473,y,1,0.6117321000001539,RSVPLG01,0.94,2023-09-12-22:47:28,908,1,Experiment,2023-09-12_16h02.59.572,
6,local,global,7,3,4,40,5,,,46,exp,LZFETNNSHZXHTLU,TSZYNFUZNFUHHLS,4,Y,X,yY,yY,y,1,0.5528064000000086,y,1,0.04161930000009306,RSVPLG01,0.94,2023-09-12-22:47:28,908,1,Experiment,2023-09-12_16h02.59.572,
8,global,local,3,3,5,41,7,,,47,exp,UZFZYLEEHTSUTLH,HHSUNEEXLLSZFFT,5,Y,X,yY,yY,y,1,1.2210817999998653,n,0,0.2015414000002238,RSVPLG01,0.94,2023-09-12-22:47:28,908,1,Experiment,2023-09-12_16h02.59.572,
2,local,local,3,3,6,42,1,,,48,exp,TNNLTUHFZZYUHFY,TNESZZXUFYEFUNY,4,S,X,sS,yY,s,1,0.8111981000001833,y,1,0.16947970000001078,RSVPLG01,0.94,2023-09-12-22:47:28,908,1,Experiment,2023-09-12_16h02.59.572,
10,global,global,0,3,7,43,9,,,49,exp,SFNNZTEYELTLHFY,YTTEUFSENLYNSHL,5,Z,absent,zZ,nN,z,1,1.6934117999999216,n,1,0.6422932000000401,RSVPLG01,0.94,2023-09-12-22:47:28,908,1,Experiment,2023-09-12_16h02.59.572,
8,global,local,3,3,8,44,7,,,50,exp,NZUHZELYSNTLUTY,LYUZNFZSXHLSUTY,6,E,X,eE,yY,e,1,1.2885172000001148,n,0,0.37989720000041416,RSVPLG01,0.94,2023-09-12-22:47:28,908,1,Experiment,2023-09-12_16h02.59.572,
1,local,local,0,3,9,45,0,,,51,exp,TUEELYZUNSTNSYF,ETSNHYFZUNZUTSF,5,H,absent,hH,nN,u,0,1.767831699999988,n,1,0.17917239999997037,RSVPLG01,0.94,2023-09-12-22:47:28,908,1,Experiment,2023-09-12_16h02.59.572,
9,global,local,7,3,10,46,8,,,52,exp,FSYUFZELNEHYNLS,NYFHFTUSLNYEXUL,6,Z,X,zZ,yY,z,1,0.8668619999998555,y,1,0.2117167999999765,RSVPLG01,0.94,2023-09-12-22:47:28,908,1,Experiment,2023-09-12_16h02.59.572,
3,local,local,7,3,11,47,2,,,53,exp,ESLNFLUUHSHYTYT,TULLZNTNYSUXESE,5,Z,X,zZ,yY,l,0,2.54415999999992,y,1,0.6182776000000558,RSVPLG01,0.94,2023-09-12-22:47:28,908,1,Experiment,2023-09-12_16h02.59.572,
3,local,local,7,4,0,48,2,,,54,exp,EUSEFYNSNTTZLLY,ZLZUHSULSTEXENT,5,H,X,hH,yY,s,0,1.146344400000089,y,1,0.21097580000014204,RSVPLG01,0.94,2023-09-12-22:47:28,908,1,Experiment,2023-09-12_16h02.59.572,
2,local,local,3,4,1,49,1,,,55,exp,UYZLFSTNHZLHTYN,ZFNFZEYYXTUHTLH,6,E,X,eE,yY,e,1,1.0224604,y,1,0.1716879999999037,RSVPLG01,0.94,2023-09-12-22:47:28,908,1,Experiment,2023-09-12_16h02.59.572,
11,global,global,3,4,2,50,10,,,56,exp,YFENLTXTFEHLUZU,EUFSZLFZYUETHYH,4,N,X,nN,yY,n,1,0.9304259000000457,y,1,0.09515989999999874,RSVPLG01,0.94,2023-09-12-22:47:28,908,1,Experiment,2023-09-12_16h02.59.572,
4,local,global,0,4,3,51,3,,,57,exp,EHEFHYLNFLUSTTS,TLHULZTSHFNNEEF,6,Z,absent,zZ,nN,z,1,1.0169004999997924,y,0,0.1865735000001223,RSVPLG01,0.94,2023-09-12-22:47:28,908,1,Experiment,2023-09-12_16h02.59.572,
3,local,local,7,4,4,52,2,,,58,exp,TNHHLZNTUSZUSEE,NFHZYHFZNTTXEUU,5,Y,X,yY,yY,z,0,0.8737790000000132,n,0,0.22433520000004137,RSVPLG01,0.94,2023-09-12-22:47:28,908,1,Experiment,2023-09-12_16h02.59.572,
3,local,local,7,4,5,53,2,,,59,exp,ZHFEYNSLLHUYUZN,FNLTZHHYULXNFSY,4,T,X,tT,yY,t,1,0.9503150999998979,y,1,0.03050810000013371,RSVPLG01,0.94,2023-09-12-22:47:28,908,1,Experiment,2023-09-12_16h02.59.572,
7,global,local,0,4,6,54,6,,,60,exp,SUHLZYLTEZSNUNH,NTSUHFLZSTELEZH,6,Y,absent,yY,nN,y,1,0.953257399999984,n,1,0.19335789999968256,RSVPLG01,0.94,2023-09-12-22:47:28,908,1,Experiment,2023-09-12_16h02.59.572,
5,local,global,3,4,7,55,4,,,61,exp,ETYHTFXZNFZUEYU,NLNSTUEYEUYLTFZ,4,S,X,sS,yY,s,1,0.7837705000001733,y,1,0.17121840000027078,RSVPLG01,0.94,2023-09-12-22:47:28,908,1,Experiment,2023-09-12_16h02.59.572,
4,local,global,0,4,8,56,3,,,62,exp,ZNFELUHHYZNFLTT,YNLSHNHZFUTYUTZ,4,S,absent,sS,nN,s,1,1.0521469000000252,n,1,0.21074039999984961,RSVPLG01,0.94,2023-09-12-22:47:28,908,1,Experiment,2023-09-12_16h02.59.572,
10,global,global,0,4,9,57,9,,,63,exp,NFHTSZLETEZULFH,EHHUYLFNTNEZZLF,5,S,absent,sS,nN,s,1,1.0178003999999419,n,1,0.22721199999978126,RSVPLG01,0.94,2023-09-12-22:47:28,908,1,Experiment,2023-09-12_16h02.59.572,
4,local,global,0,4,10,58,3,,,64,exp,SLTESZFUZLNUYFN,LUYHNZTZNLTSUFF,4,H,absent,hH,nN,n,0,0.8451878000000761,n,1,0.21955209999987346,RSVPLG01,0.94,2023-09-12-22:47:28,908,1,Experiment,2023-09-12_16h02.59.572,
3,local,local,7,4,11,59,2,,,65,exp,SEEFHTTNZSHUYNU,UTNLNUSEEHXHYZT,4,L,X,lL,yY,l,1,0.8493904999995721,y,1,0.18658999999979642,RSVPLG01,0.94,2023-09-12-22:47:28,908,1,Experiment,2023-09-12_16h02.59.572,
8,global,local,3,5,0,60,7,,,66,exp,SSZFNENUFZLHLYY,HFSSUTNYXNLHLZF,6,E,X,eE,yY,e,1,0.9063467999999375,y,1,0.12288250000028711,RSVPLG01,0.94,2023-09-12-22:47:28,908,1,Experiment,2023-09-12_16h02.59.572,
10,global,global,0,5,1,61,9,,,67,exp,ELTFYUUSZLYSZHT,UESNZYTUTZHYESH,4,F,absent,fF,nN,f,1,1.0309196000002885,y,0,0.04090540000015608,RSVPLG01,0.94,2023-09-12-22:47:28,908,1,Experiment,2023-09-12_16h02.59.572,
4,local,global,0,5,2,62,3,,,68,exp,HULLTYNUSSHNTEF,HTSUEZNELFLHNUF,6,Z,absent,zZ,nN,e,0,0.8856962999998359,y,0,0.10120400000005247,RSVPLG01,0.94,2023-09-12-22:47:28,908,1,Experiment,2023-09-12_16h02.59.572,
7,global,local,0,5,3,63,6,,,69,exp,ELHTZHSLNYZFFSY,ENEUFLYYZHZSHSL,4,T,absent,tT,nN,t,1,0.7989594999999099,y,0,0.04369090000000142,RSVPLG01,0.94,2023-09-12-22:47:28,908,1,Experiment,2023-09-12_16h02.59.572,
12,global,global,7,5,4,64,11,,,70,exp,FYNEYZHLUHELXUN,LUFTYSNHFTEEUNH,6,Z,X,zZ,yY,u,0,0.9090747000000192,y,1,0.016757899999902293,RSVPLG01,0.94,2023-09-12-22:47:28,908,1,Experiment,2023-09-12_16h02.59.572,
9,global,local,7,5,5,65,8,,,71,exp,TNFNSYETEULUZLF,FEEUHLZYTFNXLZU,5,S,X,sS,yY,s,1,0.8810750000002372,y,1,0.15330479999965974,RSVPLG01,0.94,2023-09-12-22:47:28,908,1,Experiment,2023-09-12_16h02.59.572,
11,global,global,3,5,6,66,10,,,72,exp,NHSTLZZXFNUYFUH,ZYTHEUSHUSNZFYN,5,L,X,lL,yY,l,1,1.395028899999943,y,1,0.21146600000020044,RSVPLG01,0.94,2023-09-12-22:47:28,908,1,Experiment,2023-09-12_16h02.59.572,
3,local,local,7,5,7,67,2,,,73,exp,TLZYENHZUFFEYLT,FHELFSHZUYTYXLU,6,S,X,sS,yY,s,1,0.9726034999998774,y,1,0.15344740000000456,RSVPLG01,0.94,2023-09-12-22:47:28,908,1,Experiment,2023-09-12_16h02.59.572,
5,local,global,3,5,8,68,4,,,74,exp,FSFUYLXHTNETSEY,HTYZYTESNHENLSF,4,Z,X,zZ,yY,u,0,0.9713240999999471,y,1,0.29216859999996814,RSVPLG01,0.94,2023-09-12-22:47:28,908,1,Experiment,2023-09-12_16h02.59.572,
10,global,global,0,5,9,69,9,,,75,exp,SEHSLTUEYZZNYNU,LNYLNFESYSHUEHZ,6,T,absent,tT,nN,t,1,0.9612444000003961,y,0,1.0272344999998495,RSVPLG01,0.94,2023-09-12-22:47:28,908,1,Experiment,2023-09-12_16h02.59.572,
8,global,local,3,5,10,70,7,,,76,exp,NLUFTESUHLZZFEN,EZFFYUHXSNLSENZ,5,T,X,tT,yY,t,1,1.0052511000003506,n,0,0.36853480000036143,RSVPLG01,0.94,2023-09-12-22:47:28,908,1,Experiment,2023-09-12_16h02.59.572,
11,global,global,3,5,11,71,10,,,77,exp,YSUEHLXNTNLFTHS,NFSZNUHYFTSLUYT,4,E,X,eE,yY,e,1,0.9906339999997726,y,1,0.16892700000016703,RSVPLG01,0.94,2023-09-12-22:47:28,908,1,Experiment,2023-09-12_16h02.59.572,
9,global,local,7,6,0,72,8,,,78,exp,LUHYZEFFEUSLTHT,SHHNUZSFLLXUTEE,4,Y,X,yY,yY,y,1,0.9218949999999495,n,0,0.3315418000001955,RSVPLG01,0.94,2023-09-12-22:47:28,908,1,Experiment,2023-09-12_16h02.59.572,
7,global,local,0,6,1,73,6,,,79,exp,FHFSTZUNLNHEZET,TETYFNFLUUHLZZH,4,S,absent,sS,nN,s,1,1.1929822000001877,n,1,0.28871540000000095,RSVPLG01,0.94,2023-09-12-22:47:28,908,1,Experiment,2023-09-12_16h02.59.572,
3,local,local,7,6,2,74,2,,,80,exp,FLEUHZLFEHYTZST,FZENFYHYSLXZTHL,4,N,X,nN,yY,n,1,0.5109705999998368,y,1,0.1296732000000702,RSVPLG01,0.94,2023-09-12-22:47:28,908,1,Experiment,2023-09-12_16h02.59.572,
9,global,local,7,6,3,75,8,,,81,exp,LLZSYUZSHEHENYF,ZSYZLTNESHNEXLH,6,U,X,uU,yY,u,1,0.8014898000001267,y,1,0.20439160000023548,RSVPLG01,0.94,2023-09-12-22:47:28,908,1,Experiment,2023-09-12_16h02.59.572,
2,local,local,3,6,4,76,1,,,82,exp,YLSZUYUEHTETHSF,LUUNYEXHTLSTEYF,4,N,X,nN,yY,z,0,0.717266500000278,y,1,0.12097360000007029,RSVPLG01,0.94,2023-09-12-22:47:28,908,1,Experiment,2023-09-12_16h02.59.572,
2,local,local,3,6,5,77,1,,,83,exp,EZFFYSUHZLTLUST,FUTHNETXFEHZZUS,5,N,X,nN,yY,y,0,0.7807139000001371,y,1,0.10633069999994404,RSVPLG01,0.94,2023-09-12-22:47:28,908,1,Experiment,2023-09-12_16h02.59.572,
7,global,local,0,6,6,78,6,,,84,exp,LNTUZYUSZTFNELE,EELUTHLZFFNNUSS,6,Y,absent,yY,nN,y,1,0.8595991000001959,n,1,0.12677430000030654,RSVPLG01,0.94,2023-09-12-22:47:28,908,1,Experiment,2023-09-12_16h02.59.572,
3,local,local,7,6,7,79,2,,,85,exp,NZLLHYSFNZEUEFU,SZLNTSFUEELXFNY,5,T,X,tT,yY,y,0,0.8319453999997677,n,0,0.2102996999997231,RSVPLG01,0.94,2023-09-12-22:47:28,908,1,Experiment,2023-09-12_16h02.59.572,
8,global,local,3,6,8,80,7,,,86,exp,NUSTYENYEFFSULZ,ZSSHYEXFLYUZEUL,4,T,X,tT,yY,y,0,1.7052005999998983,n,0,0.20941930000026332,RSVPLG01,0.94,2023-09-12-22:47:28,908,1,Experiment,2023-09-12_16h02.59.572,
5,local,global,3,6,9,81,4,,,87,exp,YFFSULSXZTNYHLZ,LFZZEFNYYTLNSST,5,E,X,eE,yY,e,1,0.38961209999979474,y,1,0.6416737999998077,RSVPLG01,0.94,2023-09-12-22:47:28,908,1,Experiment,2023-09-12_16h02.59.572,
8,global,local,3,6,10,82,7,,,88,exp,LETFSYZLHNYHETZ,ENFZUHTXZFTLLNY,5,S,X,sS,yY,s,1,0.9152088000000731,y,1,0.1547258000000511,RSVPLG01,0.94,2023-09-12-22:47:28,908,1,Experiment,2023-09-12_16h02.59.572,
3,local,local,7,6,11,83,2,,,89,exp,ZHNTHSZLUTEEUYY,UHLZHFZEYELUXTN,6,F,X,fF,yY,f,1,0.7818947999999182,y,1,0.3049985999996352,RSVPLG01,0.94,2023-09-12-22:47:28,908,1,Experiment,2023-09-12_16h02.59.572,
6,local,global,7,7,0,84,5,,,90,exp,SFSUYEZHLEUXLFZ,UHESTSNFUZFHENL,5,T,X,tT,yY,y,0,0.4800116000001253,y,1,0.11280720000013389,RSVPLG01,0.94,2023-09-12-22:47:28,908,1,Experiment,2023-09-12_16h02.59.572,
5,local,global,3,7,1,85,4,,,91,exp,UNSTFUYXZTYHZNL,ZZTTESYHLNNHLSU,5,E,X,eE,yY,s,0,0.7219992000000275,y,1,0.20059330000003683,RSVPLG01,0.94,2023-09-12-22:47:28,908,1,Experiment,2023-09-12_16h02.59.572,
5,local,global,3,7,2,86,4,,,92,exp,EZNLHLUXSSUZFFE,NZLNTZFLYFSESUY,5,T,X,tT,yY,t,1,0.792551800000183,y,1,0.2502764000000752,RSVPLG01,0.94,2023-09-12-22:47:28,908,1,Experiment,2023-09-12_16h02.59.572,
9,global,local,7,7,3,87,8,,,93,exp,EEZFLTNSZNLSFYU,ZENZSHFLLNUFXEU,6,T,X,tT,yY,n,0,0.7341177000002972,y,1,0.1624323999999433,RSVPLG01,0.94,2023-09-12-22:47:28,908,1,Experiment,2023-09-12_16h02.59.572,
7,global,local,0,7,4,88,6,,,94,exp,YTZEFUSZUFHHYST,FHYNSLHUSUZTLTY,4,E,absent,eE,nN,f,0,0.8361673000003975,y,0,0.21078309999984413,RSVPLG01,0.94,2023-09-12-22:47:28,908,1,Experiment,2023-09-12_16h02.59.572,
12,global,global,7,7,5,89,11,,,95,exp,TFFENSYUUHXNSYL,LHSZTNYLUNUFFSH,4,E,X,eE,yY,y,0,2.2613021000001936,y,1,1.2094245999996929,RSVPLG01,0.94,2023-09-12-22:47:28,908,1,Experiment,2023-09-12_16h02.59.572,
8,global,local,3,7,6,90,7,,,96,exp,SSHFUTNZEHTYFEZ,SHFTLEHXZNTSZNY,5,U,X,uU,yY,u,1,0.8156200000003082,y,1,0.20892120000007708,RSVPLG01,0.94,2023-09-12-22:47:28,908,1,Experiment,2023-09-12_16h02.59.572,
1,local,local,0,7,7,91,0,,,97,exp,UZEUNTYSZFSEHHF,UTEZLFYHTUFSHEY,5,L,absent,lL,nN,l,1,0.7512002000003122,y,0,0.16142779999972845,RSVPLG01,0.94,2023-09-12-22:47:28,908,1,Experiment,2023-09-12_16h02.59.572,
1,local,local,0,7,8,92,0,,,98,exp,NULFZENTYSZTFLU,FFULSHZUTLZTSNN,6,H,absent,hH,nN,s,0,0.6827711000000818,y,0,0.17733840000028067,RSVPLG01,0.94,2023-09-12-22:47:28,908,1,Experiment,2023-09-12_16h02.59.572,
12,global,global,7,7,9,93,11,,,99,exp,YNLESHUZTHNXTUE,UTZLFNTEEHNHZLU,5,S,X,sS,yY,s,1,0.8538654999997561,y,1,0.1742965999997068,RSVPLG01,0.94,2023-09-12-22:47:28,908,1,Experiment,2023-09-12_16h02.59.572,
4,local,global,0,7,10,94,3,,,100,exp,FEFTZSTHZHEULLY,FELLUNZUYZTYHHT,6,N,absent,nN,nN,u,0,0.889591499999824,n,1,0.39530439999998634,RSVPLG01,0.94,2023-09-12-22:47:28,908,1,Experiment,2023-09-12_16h02.59.572,
3,local,local,7,7,11,95,2,,,101,exp,EFZTUNYFNHLEHTZ,LYNTSHNZEFYXTEL,5,S,X,sS,yY,s,1,0.9381647999998677,y,1,0.12888539999994464,RSVPLG01,0.94,2023-09-12-22:47:28,908,1,Experiment,2023-09-12_16h02.59.572,
10,global,global,0,8,0,96,9,,,102,exp,SYHZLHUTLTSUEYE,EHYNSSFFLUYETHU,4,Z,absent,zZ,nN,z,1,0.8460817000000134,n,1,0.23421270000017103,RSVPLG01,0.94,2023-09-12-22:47:28,908,1,Experiment,2023-09-12_16h02.59.572,
1,local,local,0,8,1,97,0,,,103,exp,TUTHSFYUENLELSN,LNTZLFYSEETUSUN,4,Z,absent,zZ,nN,z,1,0.930930200000148,y,0,0.19268379999994067,RSVPLG01,0.94,2023-09-12-22:47:28,908,1,Experiment,2023-09-12_16h02.59.572,
5,local,global,3,8,2,98,4,,,104,exp,ULUZSYXEFNNLFYH,YHUTUSFLFHNLEYS,4,T,X,tT,yY,u,0,0.8176996000001964,y,1,0.42146920000004684,RSVPLG01,0.94,2023-09-12-22:47:28,908,1,Experiment,2023-09-12_16h02.59.572,
8,global,local,3,8,3,99,7,,,105,exp,TEHENUZZYTLSYNH,EZNSLFYNXESLYZT,6,U,X,uU,yY,u,1,0.7923075000003337,y,1,2.4036152999997284,RSVPLG01,0.94,2023-09-12-22:47:28,908,1,Experiment,2023-09-12_16h02.59.572,
11,global,global,3,8,4,100,10,,,106,exp,ZEENLYHSXFTNTSH,HSELLUENNSZFZFH,6,Y,X,yY,yY,u,0,1.5181760000000395,y,1,0.5362417000001187,RSVPLG01,0.94,2023-09-12-22:47:28,908,1,Experiment,2023-09-12_16h02.59.572,
2,local,local,3,8,5,101,1,,,107,exp,TZHFYLESNSNHZTF,NTZTUEEXLZNHFFH,5,U,X,uU,yY,u,1,0.7173726999999417,y,1,0.2899355999998079,RSVPLG01,0.94,2023-09-12-22:47:28,908,1,Experiment,2023-09-12_16h02.59.572,
4,local,global,0,8,6,102,3,,,108,exp,NNSUTEZSHYFEZTY,NZSLTZHNTFEHEYY,4,L,absent,lL,nN,l,1,0.693782100000135,y,0,0.36582759999964765,RSVPLG01,0.94,2023-09-12-22:47:28,908,1,Experiment,2023-09-12_16h02.59.572,
4,local,global,0,8,7,103,3,,,109,exp,NUZELUSNHZSYFLH,UZLTSUFNYLSYHNZ,4,T,absent,tT,nN,t,1,0.5814408999999614,y,0,0.10568990000001577,RSVPLG01,0.94,2023-09-12-22:47:28,908,1,Experiment,2023-09-12_16h02.59.572,
2,local,local,3,8,8,104,1,,,110,exp,ZYTNTSSYEFLUULZ,UYLHSFXEZUFYZTS,4,H,X,hH,yY,n,0,0.7083698999999797,y,1,0.1932833999999275,RSVPLG01,0.94,2023-09-12-22:47:28,908,1,Experiment,2023-09-12_16h02.59.572,
10,global,global,0,8,9,105,9,,,111,exp,UEYFYTSTEUNHNZH,USELHUYZYSZENTN,4,F,absent,fF,nN,y,0,0.759973500000342,y,0,0.1958780999998453,RSVPLG01,0.94,2023-09-12-22:47:28,908,1,Experiment,2023-09-12_16h02.59.572,
8,global,local,3,8,10,106,7,,,112,exp,HSEHFNULETTLNYS,NYUEZLSXHULENSY,5,F,X,fF,yY,f,1,0.976073699999688,n,0,0.33706800000027215,RSVPLG01,0.94,2023-09-12-22:47:28,908,1,Experiment,2023-09-12_16h02.59.572,
4,local,global,0,8,11,107,3,,,113,exp,UZTNLSYHFLHTZUS,LHYELZSTTFYSUUZ,4,E,absent,eE,nN,e,1,0.6674434000001384,y,0,0.5473696999997628,RSVPLG01,0.94,2023-09-12-22:47:28,908,1,Experiment,2023-09-12_16h02.59.572,
6,local,global,7,9,0,108,5,,,114,exp,NLUUTFSNSHLXEEH,YULEZFHLHNUNFES,5,Z,X,zZ,yY,f,0,0.6559035999998741,y,1,0.8891716000002816,RSVPLG01,0.94,2023-09-12-22:47:28,908,1,Experiment,2023-09-12_16h02.59.572,
5,local,global,3,9,1,109,4,,,115,exp,YFEHLSFXTYZZSHN,ZTHHUTNSENFYYES,5,U,X,uU,yY,u,1,0.8092143999997461,y,1,0.2969828000000234,RSVPLG01,0.94,2023-09-12-22:47:28,908,1,Experiment,2023-09-12_16h02.59.572,
7,global,local,0,9,2,110,6,,,116,exp,NUUTLLNHZYEHSYZ,NESFLEYSNULZUZH,4,T,absent,tT,nN,l,0,0.6803967000000739,y,0,0.16285689999995157,RSVPLG01,0.94,2023-09-12-22:47:28,908,1,Experiment,2023-09-12_16h02.59.572,
9,global,local,7,9,3,111,8,,,117,exp,UNHUEYYTNFLTSHF,HUYNZLUTSFFXTYS,5,E,X,eE,yY,e,1,0.7139679000001706,n,0,0.2444348999997601,RSVPLG01,0.94,2023-09-12-22:47:28,908,1,Experiment,2023-09-12_16h02.59.572,
2,local,local,3,9,4,112,1,,,118,exp,TYUTLESHLYUNSNF,STSYLZNHXYUNHFF,6,Z,X,zZ,yY,e,0,0.697435100000348,y,1,0.24134579999963535,RSVPLG01,0.94,2023-09-12-22:47:28,908,1,Experiment,2023-09-12_16h02.59.572,
10,global,global,0,9,5,113,9,,,119,exp,TESFNUELTHSYHUY,YSHZLNHTUYESUET,4,F,absent,fF,nN,n,0,0.8453275000001668,y,0,0.22087349999992512,RSVPLG01,0.94,2023-09-12-22:47:28,908,1,Experiment,2023-09-12_16h02.59.572,
2,local,local,3,9,6,114,1,,,120,exp,ZNYNTLYHHEZUTSS,YTSYNFUEXZHZTNE,6,F,X,fF,yY,e,0,0.9057662999998684,y,1,0.8234128999997665,RSVPLG01,0.94,2023-09-12-22:47:28,908,1,Experiment,2023-09-12_16h02.59.572,
1,local,local,0,9,7,115,0,,,121,exp,ZNFHLSSZYLUUEFY,ZNSTZUYFFLELUYS,4,T,absent,tT,nN,t,1,0.8557519999999386,y,0,0.20986050000010437,RSVPLG01,0.94,2023-09-12-22:47:28,908,1,Experiment,2023-09-12_16h02.59.572,
7,global,local,0,9,8,116,6,,,122,exp,YHUEFTHLFSNELYN,HENSHZYSNFELLUF,6,T,absent,tT,nN,t,1,0.7979500000001281,n,1,0.11395069999980478,RSVPLG01,0.94,2023-09-12-22:47:28,908,1,Experiment,2023-09-12_16h02.59.572,
2,local,local,3,9,9,117,1,,,123,exp,NULFSHSTZTEZEUN,HTEYZSXZEUTUSHL,4,Y,X,yY,yY,y,1,0.8332628999996814,y,1,0.5295712000001913,RSVPLG01,0.94,2023-09-12-22:47:28,908,1,Experiment,2023-09-12_16h02.59.572,
1,local,local,0,9,10,118,0,,,124,exp,NTSEFZLUFLZNTSU,YSUHFNYNTFLUTZZ,4,H,absent,hH,nN,h,1,0.7223607000000811,y,0,0.27261360000011337,RSVPLG01,0.94,2023-09-12-22:47:28,908,1,Experiment,2023-09-12_16h02.59.572,
11,global,global,3,9,11,119,10,,,125,exp,LSUZSHXFNNYLYUE,NFHTSYLYUNFLEUH,4,Z,X,zZ,yY,z,1,0.4268950999999106,y,1,0.06891480000012962,RSVPLG01,0.94,2023-09-12-22:47:28,908,1,Experiment,2023-09-12_16h02.59.572,
6,local,global,7,10,0,120,5,,,126,exp,TYTUFHLZHNEXNLE,ZTEESYNLUTHLUNH,5,S,X,sS,yY,s,1,0.5686531000001196,y,1,0.09812690000035218,RSVPLG01,0.94,2023-09-12-22:47:28,908,1,Experiment,2023-09-12_16h02.59.572,
6,local,global,7,10,1,121,5,,,127,exp,SFETYSHZFUXYZUE,NHHLFNYUUESSYZF,4,L,X,lL,yY,l,1,0.3671908000001167,y,1,0.5073635000003378,RSVPLG01,0.94,2023-09-12-22:47:28,908,1,Experiment,2023-09-12_16h02.59.572,
2,local,local,3,10,2,122,1,,,128,exp,SEZHESLFFNYUZYU,LLETUFXFNYYNUZS,4,T,X,tT,yY,e,0,0.9345158999999512,n,0,0.16258160000006683,RSVPLG01,0.94,2023-09-12-22:47:28,908,1,Experiment,2023-09-12_16h02.59.572,
12,global,global,7,10,3,123,11,,,129,exp,ZLNEYHFSUHFXNLE,FHZUTHLUESENSZL,5,Y,X,yY,yY,y,1,0.5937210000001869,y,1,0.26118829999995796,RSVPLG01,0.94,2023-09-12-22:47:28,908,1,Experiment,2023-09-12_16h02.59.572,
7,global,local,0,10,4,124,6,,,130,exp,ZEEUZYLTSHULHFS,FLFUENTHHUSTZEZ,6,Y,absent,yY,nN,y,1,0.737281300000177,n,1,0.2677773000000343,RSVPLG01,0.94,2023-09-12-22:47:28,908,1,Experiment,2023-09-12_16h02.59.572,
4,local,global,0,10,5,125,3,,,131,exp,NFSFETNHSLLHUTU,TYNLZLSHUNSFHYF,5,Z,absent,zZ,nN,z,1,0.8477633000002243,n,1,0.2220196999996915,RSVPLG01,0.94,2023-09-12-22:47:28,908,1,Experiment,2023-09-12_16h02.59.572,
11,global,global,3,10,6,126,10,,,132,exp,NZSYEFYEXLHHTZL,SSYTYUHZNTZNLLH,6,F,X,fF,yY,u,0,0.7986956999998256,n,0,0.6197956000000886,RSVPLG01,0.94,2023-09-12-22:47:28,908,1,Experiment,2023-09-12_16h02.59.572,
5,local,global,3,10,7,127,4,,,133,exp,NYHFELXUTYZNZTH,HZHSENTTZULYLNY,4,S,X,sS,yY,s,1,0.6524128999999448,y,1,0.09701739999991332,RSVPLG01,0.94,2023-09-12-22:47:28,908,1,Experiment,2023-09-12_16h02.59.572,
5,local,global,3,10,8,128,4,,,134,exp,SSUHYFELXLNUNHY,YUYLLTSNNZESZHH,6,T,X,tT,yY,l,0,0.8186654999999519,y,1,0.13769700000011653,RSVPLG01,0.94,2023-09-12-22:47:28,908,1,Experiment,2023-09-12_16h02.59.572,
1,local,local,0,10,9,129,0,,,135,exp,YNLELSZFSZTUTUN,FYTHSUYSZUNZFLL,4,H,absent,hH,nN,h,1,0.8374706000004153,y,0,0.15230280000014318,RSVPLG01,0.94,2023-09-12-22:47:28,908,1,Experiment,2023-09-12_16h02.59.572,
9,global,local,7,10,10,130,8,,,136,exp,YEFUHLYZNSSNZFH,LFSTZYYHLFXZEES,4,U,X,uU,yY,s,0,1.6089837999998053,n,0,0.8346851000001152,RSVPLG01,0.94,2023-09-12-22:47:28,908,1,Experiment,2023-09-12_16h02.59.572,
10,global,global,0,10,11,131,9,,,137,exp,HFSSZYHZNEFTLEL,FNNZEUFZSEHLLHS,6,Y,absent,yY,nN,y,1,1.174033000000236,n,1,0.843240600000172,RSVPLG01,0.94,2023-09-12-22:47:28,908,1,Experiment,2023-09-12_16h02.59.572,
10,global,global,0,11,0,132,9,,,138,exp,NLHUZHYSFYTUNST,UFHTEUHLYSSYLFN,5,Z,absent,zZ,nN,z,1,0.8150408999999854,y,0,0.10496610000018336,RSVPLG01,0.94,2023-09-12-22:47:28,908,1,Experiment,2023-09-12_16h02.59.572,
4,local,global,0,11,1,133,3,,,139,exp,FNUESUYLLYTZZEN,NZYEHYTZULTFNUE,5,H,absent,hH,nN,h,1,0.7785069000001386,y,0,0.2028490999996393,RSVPLG01,0.94,2023-09-12-22:47:28,908,1,Experiment,2023-09-12_16h02.59.572,
11,global,global,3,11,2,134,10,,,140,exp,NEZSFEXTZNUUHFY,EHYLTZNZEHNTFUU,4,S,X,sS,yY,s,1,1.1589997999999468,y,1,0.09539360000007946,RSVPLG01,0.94,2023-09-12-22:47:28,908,1,Experiment,2023-09-12_16h02.59.572,
5,local,global,3,11,3,135,4,,,141,exp,SSNHLELFXTTZUZN,FTSLHYLHSUNZUFN,6,Y,X,yY,yY,y,1,0.7166649000000689,y,1,0.17521469999974215,RSVPLG01,0.94,2023-09-12-22:47:28,908,1,Experiment,2023-09-12_16h02.59.572,
11,global,global,3,11,4,136,10,,,142,exp,FSLYETNXUYFZTLU,FYLUHZNFTLTNSYZ,5,E,X,eE,yY,e,1,1.820080400000279,y,1,0.23070180000013352,RSVPLG01,0.94,2023-09-12-22:47:28,908,1,Experiment,2023-09-12_16h02.59.572,
10,global,global,0,11,5,137,9,,,143,exp,UYFETHYNSTNZSHZ,FHYLTZFUSYNHZUT,4,E,absent,eE,nN,t,0,0.9990158999999039,y,0,0.0496330000000853,RSVPLG01,0.94,2023-09-12-22:47:28,908,1,Experiment,2023-09-12_16h02.59.572,
8,global,local,3,11,6,138,7,,,144,exp,YHZNFSUTENSHEUZ,ZZYYLTSXHTHSENN,5,F,X,fF,yY,s,0,1.1071256000000176,y,1,0.2881380999997418,RSVPLG01,0.94,2023-09-12-22:47:28,908,1,Experiment,2023-09-12_16h02.59.572,
1,local,local,0,11,7,139,0,,,145,exp,HULFZYEFSNYLENS,LNSUTNFHLYFSYEU,5,T,absent,tT,nN,u,0,0.7238544000001639,y,0,0.2705212000000756,RSVPLG01,0.94,2023-09-12-22:47:28,908,1,Experiment,2023-09-12_16h02.59.572,
12,global,global,7,11,8,140,11,,,146,exp,TTNSYUNZSHUXZLF,UHFNETZLUSNZFST,5,Y,X,yY,yY,y,1,0.48648110000021916,y,1,0.11829499999976179,RSVPLG01,0.94,2023-09-12-22:47:28,908,1,Experiment,2023-09-12_16h02.59.572,
9,global,local,7,11,9,141,8,,,147,exp,EUSNZESTTFFLLYN,ETNLHFUFYNSXLET,5,Z,X,zZ,yY,z,1,1.1027019000002838,y,1,0.24169149999988804,RSVPLG01,0.94,2023-09-12-22:47:28,908,1,Experiment,2023-09-12_16h02.59.572,
4,local,global,0,11,10,142,3,,,148,exp,EHZNYNUSHLLTUSE,NZLEFHHLSNZTUSU,5,F,absent,fF,nN,f,1,0.9126624000000447,y,0,0.146273199999996,RSVPLG01,0.94,2023-09-12-22:47:28,908,1,Experiment,2023-09-12_16h02.59.572,
12,global,global,7,11,11,143,11,,,149,exp,TNFSYHFULHZXZTU,THNUENSZFSHFLLT,5,Y,X,yY,yY,y,1,0.791581099999803,y,1,0.23464789999979985,RSVPLG01,0.94,2023-09-12-22:47:28,908,1,Experiment,2023-09-12_16h02.59.572,
5,local,global,3,12,0,144,4,,,150,exp,LLZUEYFNXUFSSEN,TEULFHSZNSLFZUT,6,H,X,hH,yY,f,0,0.8315839000001688,y,1,0.09840159999976095,RSVPLG01,0.94,2023-09-12-22:47:28,908,1,Experiment,2023-09-12_16h02.59.572,
10,global,global,0,12,1,145,9,,,151,exp,TNZFHNZYYHSESTU,TZNLYTUENSYZSEH,4,F,absent,fF,nN,f,1,0.6978367000001526,y,0,0.6345891000000847,RSVPLG01,0.94,2023-09-12-22:47:28,908,1,Experiment,2023-09-12_16h02.59.572,
3,local,local,7,12,2,146,2,,,152,exp,YHLYLFEUSUNNSZE,EYZZUTSYESNHXUH,6,T,X,tT,yY,s,0,1.027775400000337,y,1,0.19131049999987226,RSVPLG01,0.94,2023-09-12-22:47:28,908,1,Experiment,2023-09-12_16h02.59.572,
8,global,local,3,12,3,147,7,,,153,exp,ZUUNHFLETYYTFLH,HEFSZZXTUEHUFYT,4,N,X,nN,yY,n,1,0.5905314999999973,y,1,0.21865870000010545,RSVPLG01,0.94,2023-09-12-22:47:28,908,1,Experiment,2023-09-12_16h02.59.572,
7,global,local,0,12,4,148,6,,,154,exp,HTUYSUHFESZTNNE,ZNHLEFHSUTFSZUN,4,Y,absent,yY,nN,y,1,0.8528414000002158,y,0,0.3072877999998127,RSVPLG01,0.94,2023-09-12-22:47:28,908,1,Experiment,2023-09-12_16h02.59.572,
6,local,global,7,12,5,149,5,,,155,exp,HULNEZTZYUXHSLE,YEUFHZLUSLEYZST,4,F,X,fF,yY,h,0,0.9673643999999513,y,1,0.16981560000022,RSVPLG01,0.94,2023-09-12-22:47:28,908,1,Experiment,2023-09-12_16h02.59.572,
11,global,global,3,12,6,150,10,,,156,exp,UUNTZSXSNHLYHZE,HSNFEESHZNUZLYY,4,T,X,tT,yY,e,0,1.0473889999998391,y,1,0.13863879999962592,RSVPLG01,0.94,2023-09-12-22:47:28,908,1,Experiment,2023-09-12_16h02.59.572,
11,global,global,3,12,7,151,10,,,157,exp,HLFLSUFTXNEZSNE,LNHFSYFELTHZZEN,6,U,X,uU,yY,u,1,0.9872485999999299,y,1,0.8189791999998306,RSVPLG01,0.94,2023-09-12-22:47:28,908,1,Experiment,2023-09-12_16h02.59.572,
11,global,global,3,12,8,152,10,,,158,exp,TEHSNUXHFFLYTYE,EFUZLTYLNFNUTEH,4,S,X,sS,yY,n,0,0.7480200999998488,y,1,0.3143454999999449,RSVPLG01,0.94,2023-09-12-22:47:28,908,1,Experiment,2023-09-12_16h02.59.572,
7,global,local,0,12,9,153,6,,,159,exp,HTTSFEZZNHYELLY,FEEUYLHYTNHZFNL,4,S,absent,sS,nN,s,1,1.2224037999999382,n,1,0.7621030000000246,RSVPLG01,0.94,2023-09-12-22:47:28,908,1,Experiment,2023-09-12_16h02.59.572,
11,global,global,3,12,10,154,10,,,160,exp,YTSTLZSXFYHENZE,FFYNUTHEHNESSTZ,5,L,X,lL,yY,z,0,0.9463285000001633,n,0,0.5063372000004165,RSVPLG01,0.94,2023-09-12-22:47:28,908,1,Experiment,2023-09-12_16h02.59.572,
6,local,global,7,12,11,155,5,,,161,exp,THFFZESELYLXYST,TYSSULFHHETYFEN,5,U,X,uU,yY,u,1,0.4983916999999565,y,1,0.6503759000001992,RSVPLG01,0.94,2023-09-12-22:47:28,908,1,Experiment,2023-09-12_16h02.59.572,
3,local,local,7,13,0,156,2,,,162,exp,ELTTNFNYZUZELHH,ZUNHHSYLNLEEXTT,6,S,X,sS,yY,s,1,0.847211100000095,n,0,0.5853560000000471,RSVPLG01,0.94,2023-09-12-22:47:28,908,1,Experiment,2023-09-12_16h02.59.572,
8,global,local,3,13,1,157,7,,,163,exp,HLLUYFSNSEHNUZE,FLZETNFXUHEHUSN,5,Y,X,yY,yY,y,1,0.8539433000000827,n,0,0.7972554000002674,RSVPLG01,0.94,2023-09-12-22:47:28,908,1,Experiment,2023-09-12_16h02.59.572,
3,local,local,7,13,2,158,2,,,164,exp,FFSTHSNEZZHEUNY,UHELHZFNNYXSFSY,4,L,X,lL,yY,z,0,0.8755145999998604,y,1,0.2977224000001115,RSVPLG01,0.94,2023-09-12-22:47:28,908,1,Experiment,2023-09-12_16h02.59.572,
4,local,global,0,13,3,159,3,,,165,exp,HSTEUFYEUSZZTLH,YSUZHNYLEEUSZTL,6,N,absent,nN,nN,n,1,0.7662445999999363,y,0,0.4099452000000383,RSVPLG01,0.94,2023-09-12-22:47:28,908,1,Experiment,2023-09-12_16h02.59.572,
2,local,local,3,13,4,160,1,,,166,exp,HZFEYTFZNUHTLUN,YNNSTFXZYLHZULT,4,S,X,sS,yY,s,1,1.1505686999998943,n,0,0.3320459000001392,RSVPLG01,0.94,2023-09-12-22:47:28,908,1,Experiment,2023-09-12_16h02.59.572,
1,local,local,0,13,5,161,0,,,167,exp,YENUFUSETHZSNZT,UEYHLSYSTHZUTNE,5,L,absent,lL,nN,l,1,0.7676071000000775,y,0,0.20625010000003385,RSVPLG01,0.94,2023-09-12-22:47:28,908,1,Experiment,2023-09-12_16h02.59.572,
6,local,global,7,13,6,162,5,,,168,exp,ZFUZULTYNHHFXNY,SNTTFEYZUNSYZFU,6,E,X,eE,yY,e,1,0.8735053000000335,y,1,0.25372239999978774,RSVPLG01,0.94,2023-09-12-22:47:28,908,1,Experiment,2023-09-12_16h02.59.572,
4,local,global,0,13,7,163,3,,,169,exp,FYYHZUZNSEETHTS,SSHNZLTNHYEFTEF,6,L,absent,lL,nN,l,1,1.0292813000000933,n,1,0.5903983000002881,RSVPLG01,0.94,2023-09-12-22:47:28,908,1,Experiment,2023-09-12_16h02.59.572,
2,local,local,3,13,8,164,1,,,170,exp,EFTUHZHSFLTYZES,SFLNZTXZEYSHFEH,4,N,X,nN,yY,y,0,3.076297000000068,n,0,1.2589241000000584,RSVPLG01,0.94,2023-09-12-22:47:28,908,1,Experiment,2023-09-12_16h02.59.572,
1,local,local,0,13,9,165,0,,,171,exp,ZFYNYTLTUHLFZUS,FLYEFSHYSUZZHTL,4,E,absent,eE,nN,e,1,1.0376168000002508,y,0,0.20901950000006764,RSVPLG01,0.94,2023-09-12-22:47:28,908,1,Experiment,2023-09-12_16h02.59.572,
6,local,global,7,13,10,166,5,,,172,exp,HUTFTNYLLEYUXFH,YSEEUZLHFHTLYFS,6,Z,X,zZ,yY,z,1,0.7267697000002045,y,1,0.2588436000000911,RSVPLG01,0.94,2023-09-12-22:47:28,908,1,Experiment,2023-09-12_16h02.59.572,
12,global,global,7,13,11,167,11,,,173,exp,ZUZENNFUTSXTSLY,ZNNHYZUFSUYTLST,4,E,X,eE,yY,n,0,0.5273560999999063,y,1,0.30689639999991414,RSVPLG01,0.94,2023-09-12-22:47:28,908,1,Experiment,2023-09-12_16h02.59.572,
10,global,global,0,14,0,168,9,,,174,exp,HLFUFSNYZLZYTUN,NZYNHEFUTYHZTUL,6,S,absent,sS,nN,s,1,0.778223700000126,n,1,0.3534725000004073,RSVPLG01,0.94,2023-09-12-22:47:28,908,1,Experiment,2023-09-12_16h02.59.572,
9,global,local,7,14,1,169,8,,,175,exp,TEHZFNLFTZHSULE,TFFUZYETHSULXEL,6,N,X,nN,yY,y,0,2.5276833000002625,n,0,0.8541724000001523,RSVPLG01,0.94,2023-09-12-22:47:28,908,1,Experiment,2023-09-12_16h02.59.572,
5,local,global,3,14,2,170,4,,,176,exp,SFUZNTXTEELNSHF,UTUYSNEHLESFFHL,4,Y,X,yY,yY,y,1,0.8550769000003129,n,0,0.21700509999982387,RSVPLG01,0.94,2023-09-12-22:47:28,908,1,Experiment,2023-09-12_16h02.59.572,
9,global,local,7,14,3,171,8,,,177,exp,LYEUZTYHTHNFENU,FTYFSHUTNHNXUEY,5,Z,X,zZ,yY,t,0,1.5253050000001167,y,1,0.7029428999999254,RSVPLG01,0.94,2023-09-12-22:47:28,908,1,Experiment,2023-09-12_16h02.59.572,
4,local,global,0,14,4,172,3,,,178,exp,HSLLYEZZYHFNTTS,TTSZNUSNLFLZYYH,6,U,absent,uU,nN,u,1,0.9146351999997933,y,0,0.27355900000020483,RSVPLG01,0.94,2023-09-12-22:47:28,908,1,Experiment,2023-09-12_16h02.59.572,
6,local,global,7,14,5,173,5,,,179,exp,NEYUNSFFLZLZXTE,TZYFUHNNFYZELUT,6,H,X,hH,yY,n,0,0.7236831999998685,y,1,0.24267630000031204,RSVPLG01,0.94,2023-09-12-22:47:28,908,1,Experiment,2023-09-12_16h02.59.572,
5,local,global,3,14,6,174,4,,,180,exp,LFTZLHSSXUYNYNT,SFTLNEUSLUYNZYZ,6,E,X,eE,yY,e,1,0.38801069999999527,y,1,0.5236735999997109,RSVPLG01,0.94,2023-09-12-22:47:28,908,1,Experiment,2023-09-12_16h02.59.572,
9,global,local,7,14,7,175,8,,,181,exp,TNZLYYUFTSNFSEZ,FTYHSNNESEXTUZZ,4,L,X,lL,yY,y,0,1.3349137000000155,y,1,0.47174059999997553,RSVPLG01,0.94,2023-09-12-22:47:28,908,1,Experiment,2023-09-12_16h02.59.572,
5,local,global,3,14,8,176,4,,,182,exp,UNYSYZXEZTEFTUF,UEHLYNTYZFTNZFU,4,L,X,lL,yY,l,1,0.8362802999999985,y,1,0.7618299000000661,RSVPLG01,0.94,2023-09-12-22:47:28,908,1,Experiment,2023-09-12_16h02.59.572,
12,global,global,7,14,9,177,11,,,183,exp,LZLHEFNNHUUYXEY,SNZYUTEUHSYHLLZ,6,F,X,fF,yY,n,0,0.6696833999999399,y,1,0.6561381999999867,RSVPLG01,0.94,2023-09-12-22:47:28,908,1,Experiment,2023-09-12_16h02.59.572,
6,local,global,7,14,10,178,5,,,184,exp,YFTZNETLFELXSZS,FUZSHUEYFLSLZEY,5,H,X,hH,yY,u,0,0.6908201999999619,y,1,0.38601939999989554,RSVPLG01,0.94,2023-09-12-22:47:28,908,1,Experiment,2023-09-12_16h02.59.572,
8,global,local,3,14,11,179,7,,,185,exp,UNSNLZUTFZHFTYH,UTYSEUNXSHTZYZH,5,L,X,lL,yY,l,1,0.7150129000001471,y,1,0.2976300000000265,RSVPLG01,0.94,2023-09-12-22:47:28,908,1,Experiment,2023-09-12_16h02.59.572,
8,global,local,3,15,0,180,7,,,186,exp,STHFYLFYEUTEUSN,SUYHFZYFXNUHETT,6,L,X,lL,yY,l,1,0.9672633999998652,n,0,0.2667586000002302,RSVPLG01,0.94,2023-09-12-22:47:28,908,1,Experiment,2023-09-12_16h02.59.572,
3,local,local,7,15,1,181,2,,,187,exp,YFUZTHEUNHNFYTL,TUUSHHEFYYXFELN,4,S,X,sS,yY,s,1,0.8452066999998351,y,1,0.30496739999989586,RSVPLG01,0.94,2023-09-12-22:47:28,908,1,Experiment,2023-09-12_16h02.59.572,
7,global,local,0,15,2,182,6,,,188,exp,ZSEFHYZFTSLUUET,SZSUFNTHFLZUELH,6,Y,absent,yY,nN,y,1,1.1571767999998883,n,1,0.6614670000003571,RSVPLG01,0.94,2023-09-12-22:47:28,908,1,Experiment,2023-09-12_16h02.59.572,
9,global,local,7,15,3,183,8,,,189,exp,ESLUHYEZNHSFYLF,ZYSTEHFSNHXELYL,4,U,X,uU,yY,u,1,0.8184038999997938,y,1,0.26663280000002487,RSVPLG01,0.94,2023-09-12-22:47:28,908,1,Experiment,2023-09-12_16h02.59.572,
5,local,global,3,15,4,184,4,,,190,exp,SELHZFXZSFLETNN,FTYULNLYFNSZESE,4,U,X,uU,yY,u,1,0.9686719999999696,y,1,0.9882709999997132,RSVPLG01,0.94,2023-09-12-22:47:28,908,1,Experiment,2023-09-12_16h02.59.572,
2,local,local,3,15,5,185,1,,,191,exp,UFZTLNUNEELYZSS,NEYHYNXUSEZFSLL,4,H,X,hH,yY,t,0,0.8301998000001731,y,1,0.2426263000002109,RSVPLG01,0.94,2023-09-12-22:47:28,908,1,Experiment,2023-09-12_16h02.59.572,
3,local,local,7,15,6,186,2,,,192,exp,NNUHFFLSZTLUZST,TEUYSTULFLXSNEF,4,Y,X,yY,yY,y,1,0.5842287999998916,y,1,0.24110139999993407,RSVPLG01,0.94,2023-09-12-22:47:28,908,1,Experiment,2023-09-12_16h02.59.572,
2,local,local,3,15,7,187,1,,,193,exp,NYLFUZYZNUESTTS,YUEHUNXESZLTNYZ,4,H,X,hH,yY,h,1,0.8352072000002408,y,1,0.27283340000030876,RSVPLG01,0.94,2023-09-12-22:47:28,908,1,Experiment,2023-09-12_16h02.59.572,
11,global,global,3,15,8,188,10,,,194,exp,ZTFENUFXSEUTLLH,ZSLSYFHFHEUULZT,5,N,X,nN,yY,n,1,0.8442595999999867,n,0,0.5584436999997706,RSVPLG01,0.94,2023-09-12-22:47:28,908,1,Experiment,2023-09-12_16h02.59.572,
7,global,local,0,15,9,189,6,,,195,exp,NTLHZEZYLYHTSNU,TSLNSFYZZULHHUN,6,E,absent,eE,nN,e,1,1.0128539999996065,y,0,0.3631107000001066,RSVPLG01,0.94,2023-09-12-22:47:28,908,1,Experiment,2023-09-12_16h02.59.572,
12,global,global,7,15,10,190,11,,,196,exp,EHFUEYNSHZNTXFU,NHSFTLHUZUEFEZT,6,Y,X,yY,yY,y,1,0.8519428999998127,y,1,0.2265081000000464,RSVPLG01,0.94,2023-09-12-22:47:28,908,1,Experiment,2023-09-12_16h02.59.572,
11,global,global,3,15,11,191,10,,,197,exp,USNSEYZZXFUNEFH,HZLNLTNUUEHFESZ,6,Y,X,yY,yY,y,1,0.8685946000000513,n,0,0.2990559999998368,RSVPLG01,0.94,2023-09-12-22:47:28,908,1,Experiment,2023-09-12_16h02.59.572,
8,global,local,3,16,0,192,7,,,198,exp,HLZLYSZETFFHTUE,TUHTNFFXZLULSEZ,5,Y,X,yY,yY,y,1,0.8866348000001381,n,0,0.2482161000002634,RSVPLG01,0.94,2023-09-12-22:47:28,908,1,Experiment,2023-09-12_16h02.59.572,
8,global,local,3,16,1,193,7,,,199,exp,ZNNLHSYTFTYFESE,YTYUZEXFSZSNHFE,4,L,X,lL,yY,l,1,1.0113884000002145,y,1,0.24453770000036457,RSVPLG01,0.94,2023-09-12-22:47:28,908,1,Experiment,2023-09-12_16h02.59.572,
12,global,global,7,16,2,194,11,,,200,exp,UHHFNLYEUYXTNTE,YUNSNELZLYUTTZH,4,F,X,fF,yY,f,1,0.725956799999949,y,1,0.3316632999999456,RSVPLG01,0.94,2023-09-12-22:47:28,908,1,Experiment,2023-09-12_16h02.59.572,
7,global,local,0,16,3,195,6,,,201,exp,FNZYETSFLHTYHNZ,LSYFUYFHNNLSZHZ,5,E,absent,eE,nN,f,0,1.6062850999996954,y,0,1.109695599999668,RSVPLG01,0.94,2023-09-12-22:47:28,908,1,Experiment,2023-09-12_16h02.59.572,
9,global,local,7,16,4,196,8,,,202,exp,NLHNHYSTUFLEEFU,NETEHZUFLLHUXFS,6,Y,X,yY,yY,y,1,0.9472224999999526,y,1,0.489024900000004,RSVPLG01,0.94,2023-09-12-22:47:28,908,1,Experiment,2023-09-12_16h02.59.572,
7,global,local,0,16,5,197,6,,,203,exp,NLUYHLTSTNUZESE,SHNFLTSEZUHUENZ,4,Y,absent,yY,nN,y,1,0.7967318999999407,n,1,0.5615201999999044,RSVPLG01,0.94,2023-09-12-22:47:28,908,1,Experiment,2023-09-12_16h02.59.572,
3,local,local,7,16,6,198,2,,,204,exp,HHUTSSZFEYELLZY,EYSNYZLUHEXFFLH,4,N,X,nN,yY,s,0,0.8588155000002189,y,1,0.33663690000003044,RSVPLG01,0.94,2023-09-12-22:47:28,908,1,Experiment,2023-09-12_16h02.59.572,
8,global,local,3,16,7,199,7,,,205,exp,HZTUNSLUENTLHFZ,LZEFLYNTXUHHEZT,6,S,X,sS,yY,s,1,0.8701200999998946,y,1,0.8570748000001913,RSVPLG01,0.94,2023-09-12-22:47:28,908,1,Experiment,2023-09-12_16h02.59.572,
11,global,global,3,16,8,200,10,,,206,exp,YNLUFFXSHZEYSNE,SYETZNLNHEFHFYS,4,U,X,uU,yY,u,1,0.3652126000001772,y,1,0.22593520000009448,RSVPLG01,0.94,2023-09-12-22:47:28,908,1,Experiment,2023-09-12_16h02.59.572,
9,global,local,7,16,9,201,8,,,207,exp,SYHEFNTZTSUFUZH,YNNLTUTSUHXFYZZ,4,E,X,eE,yY,f,0,0.7350016000000323,y,1,0.22032360000002882,RSVPLG01,0.94,2023-09-12-22:47:28,908,1,Experiment,2023-09-12_16h02.59.572,
2,local,local,3,16,10,202,1,,,208,exp,UNTELZYNYLSHSZT,UYSFZTXLSLUNYZH,4,F,X,fF,yY,f,1,0.8485411000001477,y,1,0.2264021999999386,RSVPLG01,0.94,2023-09-12-22:47:28,908,1,Experiment,2023-09-12_16h02.59.572,
12,global,global,7,16,11,203,11,,,209,exp,SNNEFYUSTULFXTH,EEUSFZFNHNTSULT,6,Y,X,yY,yY,y,1,0.826101799999833,n,0,0.210519999999633,RSVPLG01,0.94,2023-09-12-22:47:28,908,1,Experiment,2023-09-12_16h02.59.572,
8,global,local,3,17,0,204,7,,,210,exp,ZSYESUTHZULFTHL,HYSNTTXYFFLLSZH,4,E,X,eE,yY,y,0,3.057909500000278,n,0,0.8176509999998416,RSVPLG01,0.94,2023-09-12-22:47:28,908,1,Experiment,2023-09-12_16h02.59.572,
6,local,global,7,17,1,205,5,,,211,exp,NZFSFYTUTEXELLY,FLFHYEEUZTYUTZL,4,H,X,hH,yY,h,1,0.51172570000017,y,1,0.30572410000013406,RSVPLG01,0.94,2023-09-12-22:47:28,908,1,Experiment,2023-09-12_16h02.59.572,
3,local,local,7,17,2,206,2,,,212,exp,TNFSEEZHLUZFLUN,FHUYLNHUZTXELZF,4,Y,X,yY,yY,y,1,0.8512549999995827,n,0,0.2986728000000767,RSVPLG01,0.94,2023-09-12-22:47:28,908,1,Experiment,2023-09-12_16h02.59.572,
9,global,local,7,17,3,207,8,,,213,exp,SNZLNHUHUFTZSYT,ZUHESHUZNTXYTSF,4,L,X,lL,yY,l,1,0.8199638000000959,y,1,0.21720669999967868,RSVPLG01,0.94,2023-09-12-22:47:28,908,1,Experiment,2023-09-12_16h02.59.572,
1,local,local,0,17,4,208,0,,,214,exp,ZYENLFUTEZUSNFS,UZSUHTFFEYNZENS,5,H,absent,hH,nN,t,0,1.1583181999999397,y,0,0.2335981000001084,RSVPLG01,0.94,2023-09-12-22:47:28,908,1,Experiment,2023-09-12_16h02.59.572,
9,global,local,7,17,5,209,8,,,215,exp,TYYHUSZULFZESTE,LTSNZEFYLUXZTYU,4,H,X,hH,yY,h,1,0.7568750999998883,y,1,0.2665102000000843,RSVPLG01,0.94,2023-09-12-22:47:28,908,1,Experiment,2023-09-12_16h02.59.572,
12,global,global,7,17,6,210,11,,,216,exp,HFZLNSFYEUYXSZL,UELZTFSZHSLYEHF,5,N,X,nN,yY,n,1,0.8542002999997749,y,1,0.1850720000002184,RSVPLG01,0.94,2023-09-12-22:47:28,908,1,Experiment,2023-09-12_16h02.59.572,
1,local,local,0,17,7,211,0,,,217,exp,TYTZELHSFESUZYU,STTEHNUHEUYZFFY,6,N,absent,nN,nN,n,1,0.6541532999999617,y,0,0.14304459999993924,RSVPLG01,0.94,2023-09-12-22:47:28,908,1,Experiment,2023-09-12_16h02.59.572,
6,local,global,7,17,8,212,5,,,218,exp,LLTZSFUYTZEYXHE,YYTUENLLSZUHSZH,6,N,X,nN,yY,n,1,0.6981574000001274,y,1,0.1615563000000293,RSVPLG01,0.94,2023-09-12-22:47:28,908,1,Experiment,2023-09-12_16h02.59.572,
1,local,local,0,17,9,213,0,,,219,exp,SUHNENYLUHTFLSY,USYLZHNNFFTHTYS,5,Z,absent,zZ,nN,z,1,0.7582330000000184,y,0,0.28974890000017695,RSVPLG01,0.94,2023-09-12-22:47:28,908,1,Experiment,2023-09-12_16h02.59.572,
11,global,global,3,17,10,214,10,,,220,exp,FFYLNHXZEUTYHZN,ZFESYFYZTUNNHTU,4,L,X,lL,yY,l,1,0.8237411000000066,n,0,0.1975380000003497,RSVPLG01,0.94,2023-09-12-22:47:28,908,1,Experiment,2023-09-12_16h02.59.572,
1,local,local,0,17,11,215,0,,,221,exp,FYENHZFTSLNSZYE,FTENUFLSZELYYTZ,5,U,absent,uU,nN,u,1,0.7852920000000267,n,1,0.19694650000019465,RSVPLG01,0.94,2023-09-12-22:47:28,908,1,Experiment,2023-09-12_16h02.59.572,
6,local,global,7,18,0,216,5,,,222,exp,SHLFYLZSUTZXEFT,ZUHHNELSFSEZTLF,5,N,X,nN,yY,e,0,0.6417427999999745,y,1,0.14574760000004972,RSVPLG01,0.94,2023-09-12-22:47:28,908,1,Experiment,2023-09-12_16h02.59.572,
4,local,global,0,18,1,217,3,,,223,exp,TTLSNHNLEYUSZZU,LZTUTFSYYNZULES,6,F,absent,fF,nN,f,1,0.8375534000001608,y,0,0.13046940000003815,RSVPLG01,0.94,2023-09-12-22:47:28,908,1,Experiment,2023-09-12_16h02.59.572,
7,global,local,0,18,2,218,6,,,224,exp,ZSTLTFULEYNZNYE,TLNEZHULSYYESZT,6,F,absent,fF,nN,f,1,1.5269843999999466,y,0,0.8028328999998848,RSVPLG01,0.94,2023-09-12-22:47:28,908,1,Experiment,2023-09-12_16h02.59.572,
6,local,global,7,18,3,219,5,,,225,exp,ZSNTULTYESHNXEU,SNEYTFUSHEYHZUZ,6,F,X,fF,yY,f,1,0.8500239999998485,y,1,0.6926447000000735,RSVPLG01,0.94,2023-09-12-22:47:28,908,1,Experiment,2023-09-12_16h02.59.572,
12,global,global,7,18,4,220,11,,,226,exp,YTFUSENELLHXHNT,THFLZLUEUNFYTYE,5,S,X,sS,yY,s,1,0.6745287000003373,y,1,0.19532640000034007,RSVPLG01,0.94,2023-09-12-22:47:28,908,1,Experiment,2023-09-12_16h02.59.572,
11,global,global,3,18,5,221,10,,,227,exp,SNLZUEYYXFHZUFL,SHYYSTUNZUZLNHF,6,E,X,eE,yY,e,1,0.7592654999998558,y,1,0.2699320000001535,RSVPLG01,0.94,2023-09-12-22:47:28,908,1,Experiment,2023-09-12_16h02.59.572,
7,global,local,0,18,6,222,6,,,228,exp,NYYFLHSNELTSUTH,LHEZTSUYYTLNESN,4,F,absent,fF,nN,f,1,0.8431008000002294,n,1,0.29155249999985244,RSVPLG01,0.94,2023-09-12-22:47:28,908,1,Experiment,2023-09-12_16h02.59.572,
5,local,global,3,18,7,223,4,,,229,exp,NSUTEZLNXYSTYHE,HYEYSFUNLHSUNLE,6,F,X,fF,yY,f,1,0.8181961000000229,n,0,0.26307230000020354,RSVPLG01,0.94,2023-09-12-22:47:28,908,1,Experiment,2023-09-12_16h02.59.572,
6,local,global,7,18,8,224,5,,,230,exp,EYSUTHNNFZXEZTY,SNFLFYNEHTZTZHS,4,L,X,lL,yY,l,1,0.5677121999997325,y,1,0.21830420000014783,RSVPLG01,0.94,2023-09-12-22:47:28,908,1,Experiment,2023-09-12_16h02.59.572,
6,local,global,7,18,9,225,5,,,231,exp,ZLNTUYLHFNFZXEE,NEHTLSZNUTHLEUF,6,S,X,sS,yY,s,1,0.6546727999998438,y,1,0.17111260000001494,RSVPLG01,0.94,2023-09-12-22:47:28,908,1,Experiment,2023-09-12_16h02.59.572,
8,global,local,3,18,10,226,7,,,232,exp,NEUHSFYYTSLLETF,TFSZELXSNFUYTLU,4,H,X,hH,yY,h,1,0.690339799999947,y,1,0.12285900000006222,RSVPLG01,0.94,2023-09-12-22:47:28,908,1,Experiment,2023-09-12_16h02.59.572,
10,global,global,0,18,11,227,9,,,233,exp,LFUZEHLTNUYEYFT,NYFSTHLUFLNYTEE,4,Z,absent,zZ,nN,z,1,0.5803112999997211,y,0,0.22669189999987793,RSVPLG01,0.94,2023-09-12-22:47:28,908,1,Experiment,2023-09-12_16h02.59.572,
11,global,global,3,19,0,228,10,,,234,exp,FFLHTESXZNEZSUL,HEUUYSSNELHNZFF,5,T,X,tT,yY,t,1,0.8233562000000347,y,1,0.06288180000001375,RSVPLG01,0.94,2023-09-12-22:47:28,908,1,Experiment,2023-09-12_16h02.59.572,
12,global,global,7,19,1,229,11,,,235,exp,ZSSLYFTEUEUXFNL,FNSUHTLELZSUFTZ,5,Y,X,yY,yY,y,1,0.5359768000002987,y,1,0.1616455000003043,RSVPLG01,0.94,2023-09-12-22:47:28,908,1,Experiment,2023-09-12_16h02.59.572,
10,global,global,0,19,2,230,9,,,236,exp,FTEYUZLSENNSFZY,ZTZTHSLFSYFEENL,5,U,absent,uU,nN,u,1,0.7096334000002571,y,0,0.0653704999999718,RSVPLG01,0.94,2023-09-12-22:47:28,908,1,Experiment,2023-09-12_16h02.59.572,
11,global,global,3,19,3,231,10,,,237,exp,FUYHLUXZSNYESNZ,FSFTSEZYENZUYNL,4,H,X,hH,yY,h,1,0.6572094999996807,n,0,0.13850529999990613,RSVPLG01,0.94,2023-09-12-22:47:28,908,1,Experiment,2023-09-12_16h02.59.572,
11,global,global,3,19,4,232,10,,,238,exp,LHYETFZXSLYSEUZ,LSFENYHYUEZHZSF,5,T,X,tT,yY,t,1,0.5750379999999495,y,1,0.08130359999995562,RSVPLG01,0.94,2023-09-12-22:47:28,908,1,Experiment,2023-09-12_16h02.59.572,
1,local,local,0,19,5,233,0,,,239,exp,HLNSYLHENZZTSET,HSLZUNFHZTNESTF,5,U,absent,uU,nN,u,1,0.6566385999999511,y,0,0.0985169999999016,RSVPLG01,0.94,2023-09-12-22:47:28,908,1,Experiment,2023-09-12_16h02.59.572,
10,global,global,0,19,6,234,9,,,240,exp,ZSULUHYESTEYTHN,NENFHUETTZSZYUY,4,L,absent,lL,nN,l,1,0.6523024000002806,y,0,0.22719540000025518,RSVPLG01,0.94,2023-09-12-22:47:28,908,1,Experiment,2023-09-12_16h02.59.572,
6,local,global,7,19,7,235,5,,,241,exp,TUUENLLHZHFXEFT,HZFUYFUTSSLEELH,5,Y,X,yY,yY,y,1,0.546804599999632,y,1,0.15166240000007747,RSVPLG01,0.94,2023-09-12-22:47:28,908,1,Experiment,2023-09-12_16h02.59.572,
7,global,local,0,19,8,236,6,,,242,exp,TFLEUHNUZLFTSNZ,TTLSNYFSEFUZUZL,6,H,absent,hH,nN,h,1,0.781576199999563,y,0,0.09750309999981255,RSVPLG01,0.94,2023-09-12-22:47:28,908,1,Experiment,2023-09-12_16h02.59.572,
9,global,local,7,19,9,237,8,,,243,exp,ZEHHEUFTTNFLLSS,ELLTHYZZHNSFXEN,6,U,X,uU,yY,u,1,0.8572060999999849,n,0,0.17869410000002972,RSVPLG01,0.94,2023-09-12-22:47:28,908,1,Experiment,2023-09-12_16h02.59.572,
1,local,local,0,19,10,238,0,,,244,exp,YYLEHFHSUNFTUNL,SYYZLNFUHHTLTFN,4,Z,absent,zZ,nN,z,1,0.6808803999997508,n,1,0.2584532999999283,RSVPLG01,0.94,2023-09-12-22:47:28,908,1,Experiment,2023-09-12_16h02.59.572,
2,local,local,3,19,11,239,1,,,245,exp,ZEFNTZTUFEUSSHL,LFHYTZXEUESZHSL,4,Y,X,yY,yY,n,0,0.8707143999999971,n,0,0.33722480000005817,RSVPLG01,0.94,2023-09-12-22:47:28,908,1,Experiment,2023-09-12_16h02.59.572,
