row,t1_level,t2_level,t2_lag,.thisRepN,.thisTrialN,.thisN,.thisIndex,thisRow.t,notes,trial,trial_type,global_letters,local_letters,t1_pos,t1,t2,t1_corr,t2_corr,t1_resp,t1_acc,t1_rt,t2_resp,t2_acc,t2_rt,exp,ver,mod-utc,sub,sess,blocktyp,datetime
11,global,global,3,0,0,0,10,,,1,warmup,ZHZSYFEXHUUETNS,TSZULNSNFHEETZU,5,Y,X,yY,yY,y,1,1.2874488,n,0,0.8314966,RSVPLG01,0.94,2023-09-12-22:25:06,910,1,Experiment,2023-09-12_15h40.05.672
4,local,global,0,0,1,1,3,,,2,warmup,TELYSNNLZFZTUUF,FTNHSNSEUZFZTUE,4,H,absent,hH,nN,h,1,1.1868345,n,1,0.6596719,RSVPLG01,0.94,2023-09-12-22:25:06,910,1,Experiment,2023-09-12_15h40.05.672
7,global,local,0,0,2,2,6,,,3,warmup,NFUYSTLHZNHZUFY,FSZZHESLFYNHUUY,6,T,absent,tT,nN,u,0,2.9797613,n,1,0.7259152,RSVPLG01,0.94,2023-09-12-22:25:06,910,1,Experiment,2023-09-12_15h40.05.672
8,global,local,3,0,3,3,7,,,4,warmup,SLYUFLHSTEZZTUE,HTLUNHEXLZSUEYT,5,F,X,fF,yY,f,1,1.0590496,n,0,0.6946798,RSVPLG01,0.94,2023-09-12-22:25:06,910,1,Experiment,2023-09-12_15h40.05.672
10,global,global,0,0,4,4,9,,,5,warmup,NLTZHZNLFTFEYYE,LENLSTUZUEYYTNF,5,H,absent,hH,nN,h,1,4.2034183,n,1,0.9324307,RSVPLG01,0.94,2023-09-12-22:25:06,910,1,Experiment,2023-09-12_15h40.05.672
2,local,local,3,0,0,0,1,,,6,exp,UHSYNFUSLFYLETH,USYLZFEXHETLYTH,5,Z,X,zZ,yY,z,1,1.3324253,y,1,1.8476883,RSVPLG01,0.94,2023-09-12-22:25:06,910,1,Experiment,2023-09-12_15h40.05.672
9,global,local,7,0,1,1,8,,,7,exp,LSTLZYETSEHFUHU,EYHFNUHETLUXYTF,5,Z,X,zZ,yY,z,1,1.2612642,n,0,0.6183587,RSVPLG01,0.94,2023-09-12-22:25:06,910,1,Experiment,2023-09-12_15h40.05.672
6,local,global,7,0,2,2,5,,,8,exp,FSNYSTHNZHXFTUL,SLTELSZUHNFZFUT,4,E,X,eE,yY,e,1,1.1393761,n,0,0.9276479,RSVPLG01,0.94,2023-09-12-22:25:06,910,1,Experiment,2023-09-12_15h40.05.672
2,local,local,3,0,3,3,1,,,9,exp,YZYZHEFEFSNUSNL,NLZZTUEXUENSYSL,5,T,X,tT,yY,t,1,1.0556592,n,0,0.5278599,RSVPLG01,0.94,2023-09-12-22:25:06,910,1,Experiment,2023-09-12_15h40.05.672
12,global,global,7,0,4,4,11,,,10,exp,LHSTYYUUHSXLZFF,HLLEHFYFYNNUZSU,4,T,X,tT,yY,t,1,0.9525401,n,0,0.3867396,RSVPLG01,0.94,2023-09-12-22:25:06,910,1,Experiment,2023-09-12_15h40.05.672
8,global,local,3,0,5,5,7,,,11,exp,UENFZLHLHFSNUET,FHNFYETXLSLTNHS,5,Z,X,zZ,yY,z,1,0.9077855,y,1,2.0011614,RSVPLG01,0.94,2023-09-12-22:25:06,910,1,Experiment,2023-09-12_15h40.05.672
1,local,local,0,0,6,6,0,,,12,exp,NFSUHTTZNHESYZE,TSFLHTNYZHSFYNE,4,L,absent,lL,nN,t,0,1.1865142,n,1,0.5083493,RSVPLG01,0.94,2023-09-12-22:25:06,910,1,Experiment,2023-09-12_15h40.05.672
2,local,local,3,0,7,7,1,,,13,exp,YSUFZZESTHHEYLL,HEZNYYXLHSZLESU,4,N,X,nN,yY,n,1,1.0987292,n,0,0.3640386,RSVPLG01,0.94,2023-09-12-22:25:06,910,1,Experiment,2023-09-12_15h40.05.672
1,local,local,0,0,8,8,0,,,14,exp,SESNZTNHYUUHETY,EUYFLNSHTNUSYTH,5,L,absent,lL,nN,f,0,1.9874308,n,1,0.4966388,RSVPLG01,0.94,2023-09-12-22:25:06,910,1,Experiment,2023-09-12_15h40.05.672
2,local,local,3,0,9,9,1,,,15,exp,NHLTEFLUUZHETZN,NLTENSULXUEYZHZ,6,S,X,sS,yY,s,1,1.2806893,n,0,0.4707331,RSVPLG01,0.94,2023-09-12-22:25:06,910,1,Experiment,2023-09-12_15h40.05.672
11,global,global,3,0,10,10,10,,,16,exp,LUHSZEXUFFYYHEZ,HFFNZTYLEYUETUL,4,S,X,sS,yY,s,1,1.0162794,n,0,0.4344619,RSVPLG01,0.94,2023-09-12-22:25:06,910,1,Experiment,2023-09-12_15h40.05.672
5,local,global,3,0,11,11,4,,,17,exp,YZNYTFLXSUUZFLN,SZYFEFZLHUYNSLH,5,E,X,eE,yY,e,1,1.110731,n,0,0.3769041,RSVPLG01,0.94,2023-09-12-22:25:06,910,1,Experiment,2023-09-12_15h40.05.672
8,global,local,3,1,0,12,7,,,18,exp,YUFZNHYUTSNFESE,FUHLNSXTEYHNEYS,4,Z,X,zZ,yY,z,1,2.3946757,n,0,0.2905293,RSVPLG01,0.94,2023-09-12-22:25:06,910,1,Experiment,2023-09-12_15h40.05.672
12,global,global,7,1,1,13,11,,,19,exp,HUFLSLNYUHEXZNZ,EHFZTLFHZNUULYY,5,S,X,sS,yY,s,1,1.4977973,n,0,0.2430358,RSVPLG01,0.94,2023-09-12-22:25:06,910,1,Experiment,2023-09-12_15h40.05.672
4,local,global,0,1,2,14,3,,,20,exp,NEZTYSUUSZHFYEH,SUULFNHYENSHZEF,4,L,absent,lL,nN,l,1,1.092418,n,1,0.3111887,RSVPLG01,0.94,2023-09-12-22:25:06,910,1,Experiment,2023-09-12_15h40.05.672
5,local,global,3,1,3,15,4,,,21,exp,ESHFZTZHXSYFNLL,HYSFZUNELYLEHNZ,6,U,X,uU,yY,u,1,1.076373,n,0,0.3971837,RSVPLG01,0.94,2023-09-12-22:25:06,910,1,Experiment,2023-09-12_15h40.05.672
5,local,global,3,1,4,16,4,,,22,exp,ZNEHLSFEXTYTNZY,FLTZHUNEFZTYLHN,6,U,X,uU,yY,u,1,1.0322,n,0,0.1065713,RSVPLG01,0.94,2023-09-12-22:25:06,910,1,Experiment,2023-09-12_15h40.05.672
3,local,local,7,1,5,17,2,,,23,exp,TFYLHUSNFESHLNE,ESLHNZYNLYHSXFT,6,Z,X,zZ,yY,z,1,0.9376099,n,0,0.4583849,RSVPLG01,0.94,2023-09-12-22:25:06,910,1,Experiment,2023-09-12_15h40.05.672
10,global,global,0,1,6,18,9,,,24,exp,NSYHZFLLSHZUNYU,SUHYNTZLEEUYZNH,6,F,absent,fF,nN,f,1,1.0875592,n,1,0.3535166,RSVPLG01,0.94,2023-09-12-22:25:06,910,1,Experiment,2023-09-12_15h40.05.672
11,global,global,3,1,7,19,10,,,25,exp,NFTYHUEXZZLYFEN,EYUNSLFZTLTNEYZ,5,H,X,hH,yY,h,1,0.9433745,n,0,0.3143725,RSVPLG01,0.94,2023-09-12-22:25:06,910,1,Experiment,2023-09-12_15h40.05.672
10,global,global,0,1,8,20,9,,,26,exp,TUZYNLUFHYZTHNF,YHZYFENFUTHSNSU,6,L,absent,lL,nN,l,1,1.5757836,n,1,0.4802073,RSVPLG01,0.94,2023-09-12-22:25:06,910,1,Experiment,2023-09-12_15h40.05.672
4,local,global,0,1,9,21,3,,,27,exp,SEYTNSTHYZUUHLZ,HHTUFYLULSEZZTS,5,F,absent,fF,nN,f,1,0.9668096,n,1,0.3944947,RSVPLG01,0.94,2023-09-12-22:25:06,910,1,Experiment,2023-09-12_15h40.05.672
12,global,global,7,1,10,22,11,,,28,exp,NEYTHUYTUZNXFES,TEYFLZNSZSFNUEY,5,H,X,hH,yY,h,1,1.774381,n,0,1.1888312,RSVPLG01,0.94,2023-09-12-22:25:06,910,1,Experiment,2023-09-12_15h40.05.672
12,global,global,7,1,11,23,11,,,29,exp,LUSZSNFTNHXLEFE,SFLYETEUHTFSLNN,4,Z,X,zZ,yY,z,1,0.8893136,n,0,0.306219,RSVPLG01,0.94,2023-09-12-22:25:06,910,1,Experiment,2023-09-12_15h40.05.672
3,local,local,7,2,0,24,2,,,30,exp,FLNEYTLUEUZHNTF,TLFZSFEULZNXUET,5,S,X,sS,yY,s,1,1.111085,y,1,20.8825594,RSVPLG01,0.94,2023-09-12-22:25:06,910,1,Experiment,2023-09-12_15h40.05.672
10,global,global,0,2,1,25,9,,,31,exp,EULLYSZSFNUNHZE,ZHLZTNLHSFFNEEU,5,Y,absent,yY,nN,y,1,1.1774355,n,1,0.1862108,RSVPLG01,0.94,2023-09-12-22:25:06,910,1,Experiment,2023-09-12_15h40.05.672
5,local,global,3,2,2,26,4,,,32,exp,SNLFEUXLTZEUZNH,TLUYSZZEHHNEUTS,4,Y,X,yY,yY,y,1,0.8140128,n,0,0.2573906,RSVPLG01,0.94,2023-09-12-22:25:06,910,1,Experiment,2023-09-12_15h40.05.672
11,global,global,3,2,3,27,10,,,33,exp,ELUNLYXZTUHTZFH,YEZSLUHELUZTFYT,4,N,X,nN,yY,n,1,1.0976507,n,0,0.3714528,RSVPLG01,0.94,2023-09-12-22:25:06,910,1,Experiment,2023-09-12_15h40.05.672
2,local,local,3,2,4,28,1,,,34,exp,YSSEFNTZELTHZFL,YFEHLUETXTZSFLH,6,U,X,uU,yY,u,1,8.1681574,y,1,0.3023695,RSVPLG01,0.94,2023-09-12-22:25:06,910,1,Experiment,2023-09-12_15h40.05.672
5,local,global,3,2,5,29,4,,,35,exp,UYTSNESNXZLZHHL,ZYNHYFUSLSULNTH,6,F,X,fF,yY,y,0,1.3170888,n,0,0.4095295,RSVPLG01,0.94,2023-09-12-22:25:06,910,1,Experiment,2023-09-12_15h40.05.672
1,local,local,0,2,6,30,0,,,36,exp,ELNHLUUTNSTFSZZ,TLZYZEUFSNUTFSL,4,Y,absent,yY,nN,y,1,0.9782781,n,1,0.3069566,RSVPLG01,0.94,2023-09-12-22:25:06,910,1,Experiment,2023-09-12_15h40.05.672
7,global,local,0,2,7,31,6,,,37,exp,EHESUHTFLYNTYFS,TEHLZHNYFNLEFSY,5,U,absent,uU,nN,u,1,0.9223032,n,1,0.2289185,RSVPLG01,0.94,2023-09-12-22:25:06,910,1,Experiment,2023-09-12_15h40.05.672
12,global,global,7,2,8,32,11,,,38,exp,NLHSLENEHZXTTUU,TZEYEFNUZUFLNLH,4,S,X,sS,yY,s,1,0.7423354,n,0,0.4742736,RSVPLG01,0.94,2023-09-12-22:25:06,910,1,Experiment,2023-09-12_15h40.05.672
8,global,local,3,2,9,33,7,,,39,exp,HTESYNFLHFEZLTN,ESTNUZFXZLETFHN,5,Y,X,yY,yY,y,1,1.0213463,n,0,0.1379795,RSVPLG01,0.94,2023-09-12-22:25:06,910,1,Experiment,2023-09-12_15h40.05.672
1,local,local,0,2,10,34,0,,,40,exp,UETNZELYUHYTNSL,HLYSFTTSEHYNNLU,5,F,absent,fF,nN,z,0,0.9161419,n,1,0.4789792,RSVPLG01,0.94,2023-09-12-22:25:06,910,1,Experiment,2023-09-12_15h40.05.672
2,local,local,3,2,11,35,1,,,41,exp,YNZLULFNHZEHTEY,YLZFSNHXTZHTFYE,5,S,X,sS,yY,s,1,0.749588,y,1,0.4419295,RSVPLG01,0.94,2023-09-12-22:25:06,910,1,Experiment,2023-09-12_15h40.05.672
10,global,global,0,3,0,36,9,,,42,exp,UNYSLFEHUTEYHTL,EFUZENHTLHYLTUY,4,S,absent,sS,nN,s,1,1.1182097,n,1,0.5911286,RSVPLG01,0.94,2023-09-12-22:25:06,910,1,Experiment,2023-09-12_15h40.05.672
7,global,local,0,3,1,37,6,,,43,exp,HSZHYEZTTFENFUS,HNSELFTUNUFESTH,5,Y,absent,yY,nN,y,1,0.8973844,n,1,0.2997911,RSVPLG01,0.94,2023-09-12-22:25:06,910,1,Experiment,2023-09-12_15h40.05.672
9,global,local,7,3,2,38,8,,,44,exp,UEESYNSHZUTLHZN,EHHZFTEUNNLXSTS,5,Y,X,yY,yY,y,1,0.9190392,y,1,0.4098745,RSVPLG01,0.94,2023-09-12-22:25:06,910,1,Experiment,2023-09-12_15h40.05.672
9,global,local,7,3,3,39,8,,,45,exp,YTNZTEZUUFYSHNH,ZHYNTLUSYUTNXHF,6,E,X,eE,yY,e,1,0.9745837,y,1,0.2970517,RSVPLG01,0.94,2023-09-12-22:25:06,910,1,Experiment,2023-09-12_15h40.05.672
8,global,local,3,3,4,40,7,,,46,exp,TTUZNLEZEFYHHYF,TFFTESNUXHZHEYY,6,L,X,lL,yY,l,1,1.2027124,y,1,0.4854725,RSVPLG01,0.94,2023-09-12-22:25:06,910,1,Experiment,2023-09-12_15h40.05.672
5,local,global,3,3,5,41,4,,,47,exp,EFSUNHUEXLNTLZT,UTUSSYZFZLENLET,6,Y,X,yY,yY,y,1,0.9815504,n,0,0.250199,RSVPLG01,0.94,2023-09-12-22:25:06,910,1,Experiment,2023-09-12_15h40.05.672
8,global,local,3,3,6,42,7,,,48,exp,YNTULYEZHZNTSSE,UZHYFSTXZHTUENS,5,L,X,lL,yY,l,1,1.2398713,n,0,0.2424755,RSVPLG01,0.94,2023-09-12-22:25:06,910,1,Experiment,2023-09-12_15h40.05.672
12,global,global,7,3,7,43,11,,,49,exp,ZYTHLNLTFFXYZNU,SFYENZTZLUSNYUT,4,H,X,hH,yY,h,1,0.8425443,y,1,0.1542386,RSVPLG01,0.94,2023-09-12-22:25:06,910,1,Experiment,2023-09-12_15h40.05.672
11,global,global,3,3,8,44,10,,,50,exp,FNUEZTFZXENHSYH,UEUNHLHSFNEFZYS,6,T,X,tT,yY,t,1,1.1275033,n,0,0.3142213,RSVPLG01,0.94,2023-09-12-22:25:06,910,1,Experiment,2023-09-12_15h40.05.672
10,global,global,0,3,9,45,9,,,51,exp,ZTETYNLZHYUUHLS,YHZSEFUUZHLSTEY,6,N,absent,nN,nN,n,1,1.0685576,n,1,0.1854972,RSVPLG01,0.94,2023-09-12-22:25:06,910,1,Experiment,2023-09-12_15h40.05.672
4,local,global,0,3,10,46,3,,,52,exp,YZHNHEFZYSTTEUF,YZSLFSFHEUHTYZE,4,L,absent,lL,nN,l,1,1.0546086,n,1,0.2176932,RSVPLG01,0.94,2023-09-12-22:25:06,910,1,Experiment,2023-09-12_15h40.05.672
6,local,global,7,3,11,47,5,,,53,exp,LTFZEHYYUSXLUFE,SLFNLUHFUYTETSE,4,N,X,nN,yY,l,0,1.4818584,n,0,0.2903208,RSVPLG01,0.94,2023-09-12-22:25:06,910,1,Experiment,2023-09-12_15h40.05.672
8,global,local,3,4,0,48,7,,,54,exp,FUNTLHSUHNZFLSZ,NZHEUUXFSLNYFHY,4,T,X,tT,yY,t,1,0.9881645,n,0,0.2349021,RSVPLG01,0.94,2023-09-12-22:25:06,910,1,Experiment,2023-09-12_15h40.05.672
3,local,local,7,4,1,49,2,,,55,exp,HYEUETZZNFULHNL,YEFLHSYZNUEUXFH,6,S,X,sS,yY,s,1,0.9146116,y,1,0.4344291,RSVPLG01,0.94,2023-09-12-22:25:06,910,1,Experiment,2023-09-12_15h40.05.672
12,global,global,7,4,2,50,11,,,56,exp,ZLHFHUUYNTXELET,NZLSHYEZNUTETHL,4,F,X,fF,yY,f,1,0.8210016,y,1,0.5930773,RSVPLG01,0.94,2023-09-12-22:25:06,910,1,Experiment,2023-09-12_15h40.05.672
7,global,local,0,4,3,51,6,,,57,exp,NNUFTYEZUTLESFL,ELESNHTLSUUNZFF,6,Y,absent,yY,nN,y,1,0.8633281,n,1,0.2051977,RSVPLG01,0.94,2023-09-12-22:25:06,910,1,Experiment,2023-09-12_15h40.05.672
4,local,global,0,4,4,52,3,,,58,exp,ENEHSLNYUTHUTLF,LUEFZELHYTTUHYN,5,Z,absent,zZ,nN,z,1,0.9707585,n,1,0.3613857,RSVPLG01,0.94,2023-09-12-22:25:06,910,1,Experiment,2023-09-12_15h40.05.672
3,local,local,7,4,5,53,2,,,59,exp,HULSZEUYFNSYENH,HUHSTLULNYFXSFE,5,T,X,tT,yY,l,0,0.918916,n,0,0.2582347,RSVPLG01,0.94,2023-09-12-22:25:06,910,1,Experiment,2023-09-12_15h40.05.672
7,global,local,0,4,6,54,6,,,60,exp,ZYNEEFHUUZSTHNT,YEUZELHSNUYSTZH,6,F,absent,fF,nN,f,1,0.9210589,n,1,0.3240466,RSVPLG01,0.94,2023-09-12-22:25:06,910,1,Experiment,2023-09-12_15h40.05.672
1,local,local,0,4,7,55,0,,,61,exp,UNHSFYZNEUEZYST,UEYSLHTENTUZHZS,5,L,absent,lL,nN,l,1,0.9076832,n,1,0.1859176,RSVPLG01,0.94,2023-09-12-22:25:06,910,1,Experiment,2023-09-12_15h40.05.672
2,local,local,3,4,8,56,1,,,62,exp,TFNZYUEYLHLENHT,FLYEESZHXFZTTNL,6,S,X,sS,yY,s,1,0.9371996,n,0,0.3950451,RSVPLG01,0.94,2023-09-12-22:25:06,910,1,Experiment,2023-09-12_15h40.05.672
3,local,local,7,4,9,57,2,,,63,exp,HYFLZFNTUTYULEN,UHUFSNEYLTYXHET,5,S,X,sS,yY,s,1,0.650885,y,1,0.5679817,RSVPLG01,0.94,2023-09-12-22:25:06,910,1,Experiment,2023-09-12_15h40.05.672
10,global,global,0,4,10,58,9,,,64,exp,ZYUTUFZTNEEHSNY,NUSZYLYHNTEESHT,6,F,absent,fF,nN,f,1,0.966708,n,1,0.2339309,RSVPLG01,0.94,2023-09-12-22:25:06,910,1,Experiment,2023-09-12_15h40.05.672
1,local,local,0,4,11,59,0,,,65,exp,ZUEYLETHZNSTSUN,ZHUSFHSTUYYZEET,5,F,absent,fF,nN,h,0,1.0100638,y,0,0.049454,RSVPLG01,0.94,2023-09-12-22:25:06,910,1,Experiment,2023-09-12_15h40.05.672
3,local,local,7,5,0,60,2,,,66,exp,TZLLEUFSTZSHFYH,ZUZLNSHFLSHXTYU,5,N,X,nN,yY,s,0,0.8558396,y,1,0.3694491,RSVPLG01,0.94,2023-09-12-22:25:06,910,1,Experiment,2023-09-12_15h40.05.672
1,local,local,0,5,1,61,0,,,67,exp,HYSYLEUFZTZHSTE,YZZUNTSEFHHSEYU,5,N,absent,nN,nN,y,0,0.6290391,n,1,2.8354381,RSVPLG01,0.94,2023-09-12-22:25:06,910,1,Experiment,2023-09-12_15h40.05.672
12,global,global,7,5,2,62,11,,,68,exp,SSNZYHZUFHFXETN,FEUULETFZNHSZNH,5,Y,X,yY,yY,y,1,0.8594134,n,0,0.0513187,RSVPLG01,0.94,2023-09-12-22:25:06,910,1,Experiment,2023-09-12_15h40.05.672
2,local,local,3,5,3,63,1,,,69,exp,EUNLYESUZYHTTZS,YTZFNHXUNUSSTEZ,4,F,X,fF,yY,f,1,1.3369446,y,1,1.6688146,RSVPLG01,0.94,2023-09-12-22:25:06,910,1,Experiment,2023-09-12_15h40.05.672
2,local,local,3,5,4,64,1,,,70,exp,SLZTZUNEYNSTHLH,LZLESFNHXHTTSNE,6,F,X,fF,yY,f,1,0.9587698,n,0,0.2860669,RSVPLG01,0.94,2023-09-12-22:25:06,910,1,Experiment,2023-09-12_15h40.05.672
7,global,local,0,5,5,65,6,,,71,exp,TNZSYLTFUSYEEUN,TYNEEHYZFUTNUZS,6,L,absent,lL,nN,l,1,1.0341912,n,1,0.2820343,RSVPLG01,0.94,2023-09-12-22:25:06,910,1,Experiment,2023-09-12_15h40.05.672
9,global,local,7,5,6,66,8,,,72,exp,YYSHTZSEFHULTEF,LUYUENLSHTFSXEF,6,Z,X,zZ,yY,z,1,0.8460844,y,1,0.2623239,RSVPLG01,0.94,2023-09-12-22:25:06,910,1,Experiment,2023-09-12_15h40.05.672
6,local,global,7,5,7,67,5,,,73,exp,ZLUUTNYFZLTSXES,YLZSFHSETUFUYEL,6,H,X,hH,yY,h,1,1.1454363,y,1,0.0264804,RSVPLG01,0.94,2023-09-12-22:25:06,910,1,Experiment,2023-09-12_15h40.05.672
11,global,global,3,5,8,68,10,,,74,exp,NTYSLSFXUYHZZNH,HYZTENSUTSFNYHF,5,L,X,lL,yY,l,1,0.9276853,y,1,0.5225173,RSVPLG01,0.94,2023-09-12-22:25:06,910,1,Experiment,2023-09-12_15h40.05.672
9,global,local,7,5,9,69,8,,,75,exp,LHLFEZZYTYUHTSS,HYLNZLEZETXUSTY,4,F,X,fF,yY,f,1,0.8822157,y,1,0.2012028,RSVPLG01,0.94,2023-09-12-22:25:06,910,1,Experiment,2023-09-12_15h40.05.672
11,global,global,3,5,10,70,10,,,76,exp,TLFYEFXEHSHNNUU,SUUZFFLNSEEHLTT,4,Y,X,yY,yY,y,1,1.0567998,n,0,0.2021467,RSVPLG01,0.94,2023-09-12-22:25:06,910,1,Experiment,2023-09-12_15h40.05.672
10,global,global,0,5,11,71,9,,,77,exp,TTSHLFUSLUENEZF,UTNYLSFEESFZNZT,4,H,absent,hH,nN,h,1,0.8472564,n,1,0.1710902,RSVPLG01,0.94,2023-09-12-22:25:06,910,1,Experiment,2023-09-12_15h40.05.672
4,local,global,0,6,0,72,3,,,78,exp,ZLSTUYESUNLHNTH,SHZULFUHETELSNT,6,F,absent,fF,nN,f,1,0.9925798,n,1,0.2340567,RSVPLG01,0.94,2023-09-12-22:25:06,910,1,Experiment,2023-09-12_15h40.05.672
6,local,global,7,6,1,73,5,,,79,exp,YSTHZEFFLYNXSNT,EETSUHNNSFTFYLL,5,U,X,uU,yY,u,1,1.075251,n,0,0.0975253,RSVPLG01,0.94,2023-09-12-22:25:06,910,1,Experiment,2023-09-12_15h40.05.672
6,local,global,7,6,2,74,5,,,80,exp,ZFTLUSFUEYXSYEZ,UEYHFYFUZTTSSEN,4,H,X,hH,yY,h,1,1.1695181,n,0,0.136676,RSVPLG01,0.94,2023-09-12-22:25:06,910,1,Experiment,2023-09-12_15h40.05.672
4,local,global,0,6,3,75,3,,,81,exp,NHLUSFNLYUHTYFE,TYNEZNHFYLFEUUH,5,Z,absent,zZ,nN,f,0,0.9077262,n,1,0.2033194,RSVPLG01,0.94,2023-09-12-22:25:06,910,1,Experiment,2023-09-12_15h40.05.672
12,global,global,7,6,4,76,11,,,82,exp,FSYHUZYNHZFXETE,EEFZLYSTSZNFYNH,5,U,X,uU,yY,u,1,1.006761,n,0,0.1950669,RSVPLG01,0.94,2023-09-12-22:25:06,910,1,Experiment,2023-09-12_15h40.05.672
12,global,global,7,6,5,77,11,,,83,exp,FTZSUYHNYSEXHFE,TYSZLFNHYENEFSZ,5,U,X,uU,yY,u,1,0.7530293,n,0,0.0175841,RSVPLG01,0.94,2023-09-12-22:25:06,910,1,Experiment,2023-09-12_15h40.05.672
3,local,local,7,6,6,78,2,,,84,exp,LZNHYTUEUZYFFNH,ZLYUNSFLZNHEXFU,6,S,X,sS,yY,s,1,1.1899798,y,1,0.1941911,RSVPLG01,0.94,2023-09-12-22:25:06,910,1,Experiment,2023-09-12_15h40.05.672
5,local,global,3,6,7,79,4,,,85,exp,UZUNFLTSXHNFZHT,FSHTYEHUNUZTZYS,6,E,X,eE,yY,e,1,1.3529461,y,1,0.3523301,RSVPLG01,0.94,2023-09-12-22:25:06,910,1,Experiment,2023-09-12_15h40.05.672
6,local,global,7,6,8,80,5,,,86,exp,NSUNTHEHYLEXFFU,SLNFZEFSNHHYEUU,5,Z,X,zZ,yY,f,0,0.9206926,y,1,0.2201234,RSVPLG01,0.94,2023-09-12-22:25:06,910,1,Experiment,2023-09-12_15h40.05.672
11,global,global,3,6,9,81,10,,,87,exp,SEULTYZSXZHEHUT,SESFUNZLHZLHTTF,6,Y,X,yY,yY,y,1,0.8675264,n,0,0.0937734,RSVPLG01,0.94,2023-09-12-22:25:06,910,1,Experiment,2023-09-12_15h40.05.672
1,local,local,0,6,10,82,0,,,88,exp,YLFHTFHSZESEULY,LYFYNEESUUFHZSL,5,N,absent,nN,nN,n,1,1.1047444,n,1,0.1816851,RSVPLG01,0.94,2023-09-12-22:25:06,910,1,Experiment,2023-09-12_15h40.05.672
3,local,local,7,6,11,83,2,,,89,exp,STEEULZYSTNLFFY,NZLYHFYETNEXFLS,5,H,X,hH,yY,h,1,1.0743166,y,1,0.0429564,RSVPLG01,0.94,2023-09-12-22:25:06,910,1,Experiment,2023-09-12_15h40.05.672
6,local,global,7,7,0,84,5,,,90,exp,HTUNLEFLZFXHZSS,ZLTYUEHLSHFZUTE,4,Y,X,yY,yY,y,1,1.0028808,n,0,0.2583212,RSVPLG01,0.94,2023-09-12-22:25:06,910,1,Experiment,2023-09-12_15h40.05.672
1,local,local,0,7,1,85,0,,,91,exp,ESHSNYLNLFETUUT,LFFULZHTEEUSNHN,6,Z,absent,zZ,nN,y,0,0.9626814,y,0,0.4329581,RSVPLG01,0.94,2023-09-12-22:25:06,910,1,Experiment,2023-09-12_15h40.05.672
10,global,global,0,7,2,86,9,,,92,exp,YELUFNHHNSZYFES,ZZYTNFHYSHLELFE,4,U,absent,uU,nN,u,1,0.5281782,n,1,0.2596127,RSVPLG01,0.94,2023-09-12-22:25:06,910,1,Experiment,2023-09-12_15h40.05.672
4,local,global,0,7,3,87,3,,,93,exp,YZSLTESUUHYNTZN,NHUFETYUESZSHYZ,4,F,absent,fF,nN,f,1,1.3443043,n,1,1.4068085,RSVPLG01,0.94,2023-09-12-22:25:06,910,1,Experiment,2023-09-12_15h40.05.672
4,local,global,0,7,4,88,3,,,94,exp,LHNEFSHLTTZYNYF,NTFULHSNYHZFYSZ,4,U,absent,uU,nN,u,1,1.3938093,y,0,0.5749253,RSVPLG01,0.94,2023-09-12-22:25:06,910,1,Experiment,2023-09-12_15h40.05.672
8,global,local,3,7,5,89,7,,,95,exp,NLYTYLSFSUNHZHZ,YSNEUSXLHUZYFZH,4,T,X,tT,yY,t,1,1.1308285,y,1,0.3696642,RSVPLG01,0.94,2023-09-12-22:25:06,910,1,Experiment,2023-09-12_15h40.05.672
2,local,local,3,7,6,90,1,,,96,exp,FFUYZSZLNUSTLEN,ULNHLZXZETTFEFS,4,H,X,hH,yY,y,0,1.4364831,n,0,0.955977,RSVPLG01,0.94,2023-09-12-22:25:06,910,1,Experiment,2023-09-12_15h40.05.672
9,global,local,7,7,7,91,8,,,97,exp,LTFLZNUTESSUNFH,NNSLYUTLEHUXTFF,5,Z,X,zZ,yY,l,0,1.8632595,n,0,0.1465167,RSVPLG01,0.94,2023-09-12-22:25:06,910,1,Experiment,2023-09-12_15h40.05.672
7,global,local,0,7,8,92,6,,,98,exp,FTEHSEUYNSUNFLT,YFFZSLTTNNEEUUS,4,H,absent,hH,nN,h,1,0.8300134,n,1,0.2232455,RSVPLG01,0.94,2023-09-12-22:25:06,910,1,Experiment,2023-09-12_15h40.05.672
4,local,global,0,7,9,93,3,,,99,exp,FEHYNZUSHULFYSL,EFHLTLYZEUZHYSS,5,T,absent,tT,nN,t,1,1.1525927,n,1,0.2005472,RSVPLG01,0.94,2023-09-12-22:25:06,910,1,Experiment,2023-09-12_15h40.05.672
7,global,local,0,7,10,94,6,,,100,exp,FNSLZSTTZHNEEUU,ENZYUTUFTNSZFSH,4,L,absent,lL,nN,z,0,0.9971515,n,1,0.7672686,RSVPLG01,0.94,2023-09-12-22:25:06,910,1,Experiment,2023-09-12_15h40.05.672
1,local,local,0,7,11,95,0,,,101,exp,TYTFUSZEUHLYZHL,YHLNTHUYELSZEUT,4,N,absent,nN,nN,n,1,1.0967442,n,1,0.1538112,RSVPLG01,0.94,2023-09-12-22:25:06,910,1,Experiment,2023-09-12_15h40.05.672
8,global,local,3,8,0,96,7,,,102,exp,ZUZFFSULEELYTHT,HZLLUNYFXTZUFEY,6,S,X,sS,yY,s,1,1.3763078,y,1,0.3698372,RSVPLG01,0.94,2023-09-12-22:25:06,910,1,Experiment,2023-09-12_15h40.05.672
11,global,global,3,8,1,97,10,,,103,exp,SYYZLHFSXENLFTN,FYEZNUZYTNSFLLT,6,H,X,hH,yY,h,1,0.9638296,n,0,0.2947619,RSVPLG01,0.94,2023-09-12-22:25:06,910,1,Experiment,2023-09-12_15h40.05.672
8,global,local,3,8,2,98,7,,,104,exp,SLEYNTFHSZLNEFT,ENLUZSXZFLSHTEN,4,Y,X,yY,yY,n,0,1.6191873,n,0,0.3457309,RSVPLG01,0.94,2023-09-12-22:25:06,910,1,Experiment,2023-09-12_15h40.05.672
9,global,local,7,8,3,99,8,,,105,exp,TSSFNNTYLEUHYLH,TNHZEULSYLXUHNY,4,F,X,fF,yY,n,0,1.0360129,n,0,0.442657,RSVPLG01,0.94,2023-09-12-22:25:06,910,1,Experiment,2023-09-12_15h40.05.672
8,global,local,3,8,4,100,7,,,106,exp,NYUSTLNSETFFHHU,SYFHNZYEXUTFHUS,6,L,X,lL,yY,l,1,0.9972693,n,0,0.290482,RSVPLG01,0.94,2023-09-12-22:25:06,910,1,Experiment,2023-09-12_15h40.05.672
10,global,global,0,8,5,101,9,,,107,exp,ZYLHULFZTNSTNSH,FLZHEZHYNTNTSSF,5,U,absent,uU,nN,u,1,0.9828575,n,1,0.2717408,RSVPLG01,0.94,2023-09-12-22:25:06,910,1,Experiment,2023-09-12_15h40.05.672
4,local,global,0,8,6,102,3,,,108,exp,ELEFLNUTFYUZZYH,YUEFHSETHLLZUYT,6,S,absent,sS,nN,n,0,2.9342979,n,1,0.1711636,RSVPLG01,0.94,2023-09-12-22:25:06,910,1,Experiment,2023-09-12_15h40.05.672
4,local,global,0,8,7,103,3,,,109,exp,NZHFYHUNLUSZEFE,ZUHFTLFHNZSNLES,5,T,absent,tT,nN,y,0,1.1520705,n,1,5.0566838,RSVPLG01,0.94,2023-09-12-22:25:06,910,1,Experiment,2023-09-12_15h40.05.672
9,global,local,7,8,8,104,8,,,110,exp,YHFSTFZNZNHYULT,HYUEZFNUTNXLHTL,4,S,X,sS,yY,s,1,1.2288377,n,0,0.519814,RSVPLG01,0.94,2023-09-12-22:25:06,910,1,Experiment,2023-09-12_15h40.05.672
12,global,global,7,8,9,105,11,,,111,exp,TUZSNYYEHTXHNLZ,TUTFHZYHNYULLEN,4,S,X,sS,yY,f,0,1.1825149,n,0,0.3434106,RSVPLG01,0.94,2023-09-12-22:25:06,910,1,Experiment,2023-09-12_15h40.05.672
9,global,local,7,8,10,106,8,,,112,exp,TULFZTUZHYSYHSN,SYLESUTNHZXTZNY,4,F,X,fF,yY,f,1,0.9821304,y,1,0.1902774,RSVPLG01,0.94,2023-09-12-22:25:06,910,1,Experiment,2023-09-12_15h40.05.672
7,global,local,0,8,11,107,6,,,113,exp,NUNYHLHSEUSFZEL,ESHTEUUSNFLFZNH,4,Y,absent,yY,nN,y,1,1.0626495,n,1,0.3672793,RSVPLG01,0.94,2023-09-12-22:25:06,910,1,Experiment,2023-09-12_15h40.05.672
9,global,local,7,9,0,108,8,,,114,exp,TEHZYEFZHTFNLLU,UELTSNFHFZZXTUH,5,Y,X,yY,yY,y,1,0.8549994,y,1,0.2041341,RSVPLG01,0.94,2023-09-12-22:25:06,910,1,Experiment,2023-09-12_15h40.05.672
6,local,global,7,9,1,109,5,,,115,exp,LZUFTZSFSLNXHYY,HSLHEFZUNFYNZUS,5,E,X,eE,yY,e,1,1.1070108,y,1,0.4172114,RSVPLG01,0.94,2023-09-12-22:25:06,910,1,Experiment,2023-09-12_15h40.05.672
10,global,global,0,9,2,110,9,,,116,exp,ZFLUSYLTEEZFYSH,YHHNLFSZLZTEYFS,4,U,absent,uU,nN,u,1,1.0774602,y,0,0.1781581,RSVPLG01,0.94,2023-09-12-22:25:06,910,1,Experiment,2023-09-12_15h40.05.672
12,global,global,7,9,3,111,11,,,117,exp,UNZUFZNESSLXHTH,NELZYLUETSHTSHU,5,F,X,fF,yY,z,0,1.2095883,n,0,0.4774825,RSVPLG01,0.94,2023-09-12-22:25:06,910,1,Experiment,2023-09-12_15h40.05.672
5,local,global,3,9,4,112,4,,,118,exp,ZYSLYTNFXSUFNEZ,UFSZYHNELNZLUSF,6,H,X,hH,yY,n,0,1.227056,y,1,0.2351421,RSVPLG01,0.94,2023-09-12-22:25:06,910,1,Experiment,2023-09-12_15h40.05.672
10,global,global,0,9,5,113,9,,,119,exp,ZUFTNZHYHYSESNU,SNFLZNYUUHSHEZE,4,T,absent,tT,nN,t,1,0.9356572,n,1,0.2991367,RSVPLG01,0.94,2023-09-12-22:25:06,910,1,Experiment,2023-09-12_15h40.05.672
7,global,local,0,9,6,114,6,,,120,exp,LSLTFYHHEUZUFEZ,LEHLFNTEFTHSUUZ,6,Y,absent,yY,nN,y,1,0.9197927,y,0,0.0991615,RSVPLG01,0.94,2023-09-12-22:25:06,910,1,Experiment,2023-09-12_15h40.05.672
9,global,local,7,9,7,115,8,,,121,exp,NEYSUZTFLNTYFSE,YUTNNHELFYFSXUE,6,Z,X,zZ,yY,z,1,0.7941081,y,1,0.2458339,RSVPLG01,0.94,2023-09-12-22:25:06,910,1,Experiment,2023-09-12_15h40.05.672
5,local,global,3,9,8,116,4,,,122,exp,YHLLTFNXEFZYNSS,ZYSLUHEFYLFZHEN,5,U,X,uU,yY,u,1,0.807298,y,1,0.089549,RSVPLG01,0.94,2023-09-12-22:25:06,910,1,Experiment,2023-09-12_15h40.05.672
5,local,global,3,9,9,117,4,,,123,exp,LEHUZFUXTLSYESF,ULHENFLUEYSTTFY,5,N,X,nN,yY,n,1,0.7805138,y,1,0.0824934,RSVPLG01,0.94,2023-09-12-22:25:06,910,1,Experiment,2023-09-12_15h40.05.672
1,local,local,0,9,10,118,0,,,124,exp,TZYELSTEYHHFZUL,YZFLYNTZUFTHULE,6,N,absent,nN,nN,n,1,1.0107552,n,1,0.0901345,RSVPLG01,0.94,2023-09-12-22:25:06,910,1,Experiment,2023-09-12_15h40.05.672
2,local,local,3,9,11,119,1,,,125,exp,SYYNUEHSUTTLZZL,UNSLZFTUXYTHYHL,6,F,X,fF,yY,f,1,1.0429645,y,1,0.3331188,RSVPLG01,0.94,2023-09-12-22:25:06,910,1,Experiment,2023-09-12_15h40.05.672
8,global,local,3,10,0,120,7,,,126,exp,STTFYUUEELNNHLS,NYHZNUXLETTLUHS,4,F,X,fF,yY,f,1,1.076569,y,1,0.6868217,RSVPLG01,0.94,2023-09-12-22:25:06,910,1,Experiment,2023-09-12_15h40.05.672
3,local,local,7,10,1,121,2,,,127,exp,EYSSLTNEHHYUNFT,SNNUZUYFETSXHFE,5,Z,X,zZ,yY,z,1,1.0430917,n,0,0.3151411,RSVPLG01,0.94,2023-09-12-22:25:06,910,1,Experiment,2023-09-12_15h40.05.672
2,local,local,3,10,2,122,1,,,128,exp,FSHUNNYYFTHESZE,YZELNFXHZNYFEHS,4,L,X,lL,yY,l,1,1.0118211,y,1,0.3517805,RSVPLG01,0.94,2023-09-12-22:25:06,910,1,Experiment,2023-09-12_15h40.05.672
4,local,global,0,10,3,123,3,,,129,exp,HLUEHYFUZSZLTTS,SSLNTTUZZLUHFYY,4,N,absent,nN,nN,n,1,1.1682488,n,1,0.1936426,RSVPLG01,0.94,2023-09-12-22:25:06,910,1,Experiment,2023-09-12_15h40.05.672
5,local,global,3,10,4,124,4,,,130,exp,HELSLYXNZZHFETN,LZTUFNNHFETYYLH,4,U,X,uU,yY,u,1,0.8000566,y,1,0.21305,RSVPLG01,0.94,2023-09-12-22:25:06,910,1,Experiment,2023-09-12_15h40.05.672
12,global,global,7,10,5,125,11,,,131,exp,EFLZSYUHLHFUXET,TLHUENEZLFSSZFT,6,Y,X,yY,yY,n,0,3.1389163,y,1,0.130002,RSVPLG01,0.94,2023-09-12-22:25:06,910,1,Experiment,2023-09-12_15h40.05.672
5,local,global,3,10,6,126,4,,,132,exp,ZLFYHUTHXENLEYT,HTYFESNEZNYHLLF,6,S,X,sS,yY,s,1,1.1012283,n,0,0.3085171,RSVPLG01,0.94,2023-09-12-22:25:06,910,1,Experiment,2023-09-12_15h40.05.672
10,global,global,0,10,7,127,9,,,133,exp,YFTSZHYEETULLHF,HELUNTSLTYYUFFE,5,Z,absent,zZ,nN,z,1,0.9812262,n,1,0.9788946,RSVPLG01,0.94,2023-09-12-22:25:06,910,1,Experiment,2023-09-12_15h40.05.672
8,global,local,3,10,8,128,7,,,134,exp,NNFHUYEUZLEHSFZ,ZNUHUTFLXESZENH,6,Y,X,yY,yY,y,1,0.9523221,n,0,0.1646199,RSVPLG01,0.94,2023-09-12-22:25:06,910,1,Experiment,2023-09-12_15h40.05.672
3,local,local,7,10,9,129,2,,,135,exp,ZFUNYTTEUFZLEHN,ZTTHSUHUELEXNFZ,5,S,X,sS,yY,s,1,0.8133539,y,1,0.2364761,RSVPLG01,0.94,2023-09-12-22:25:06,910,1,Experiment,2023-09-12_15h40.05.672
9,global,local,7,10,10,130,8,,,136,exp,FYSNZHFSLZNULEY,EEFZYTLSZNSLXFU,6,H,X,hH,yY,h,1,0.8926468,y,1,0.0750848,RSVPLG01,0.94,2023-09-12-22:25:06,910,1,Experiment,2023-09-12_15h40.05.672
1,local,local,0,10,11,131,0,,,137,exp,SEYFUHTLYEZTFZS,HTYENFLSFYZLTEZ,5,N,absent,nN,nN,n,1,1.7632145,y,0,0.0889153,RSVPLG01,0.94,2023-09-12-22:25:06,910,1,Experiment,2023-09-12_15h40.05.672
3,local,local,7,11,0,132,2,,,138,exp,EUYFZLNLTTENHYZ,HTESNYYEULXUTHZ,4,S,X,sS,yY,s,1,0.6707453,y,1,0.2228541,RSVPLG01,0.94,2023-09-12-22:25:06,910,1,Experiment,2023-09-12_15h40.05.672
8,global,local,3,11,1,133,7,,,139,exp,FFHLZNSSNTUELTH,HUNTYLNXUELSHFE,5,Z,X,zZ,yY,z,1,1.0687729,n,0,0.4030085,RSVPLG01,0.94,2023-09-12-22:25:06,910,1,Experiment,2023-09-12_15h40.05.672
12,global,global,7,11,2,134,11,,,140,exp,LETUFZZNLHXSFTN,TEEYFZLTNNFHLSH,4,U,X,uU,yY,u,1,1.1174418,n,0,0.2268902,RSVPLG01,0.94,2023-09-12-22:25:06,910,1,Experiment,2023-09-12_15h40.05.672
3,local,local,7,11,3,135,2,,,141,exp,ZSENTZUYEUFSHYH,SESLYYZTHFXETUU,4,L,X,lL,yY,l,1,1.0988449,y,1,0.4989434,RSVPLG01,0.94,2023-09-12-22:25:06,910,1,Experiment,2023-09-12_15h40.05.672
8,global,local,3,11,4,136,7,,,142,exp,TSYFEFNYHSZLHNZ,STZHUNYXTFZSNYL,5,E,X,eE,yY,f,0,0.975548,n,0,0.1959172,RSVPLG01,0.94,2023-09-12-22:25:06,910,1,Experiment,2023-09-12_15h40.05.672
10,global,global,0,11,5,137,9,,,143,exp,HSETUSTZLHYZLYF,ZSHFNYHLFTZTESE,5,U,absent,uU,nN,u,1,0.9195996,n,1,0.0174863,RSVPLG01,0.94,2023-09-12-22:25:06,910,1,Experiment,2023-09-12_15h40.05.672
11,global,global,3,11,6,138,10,,,144,exp,ULUEZLXZTSYYNTF,ZFZHLUNSTTYNFUS,4,E,X,eE,yY,e,1,0.9517344,n,0,0.3147025,RSVPLG01,0.94,2023-09-12-22:25:06,910,1,Experiment,2023-09-12_15h40.05.672
12,global,global,7,11,7,139,11,,,145,exp,LHZFUEFLSYNZXHN,NSZSYTLHNUYFFLZ,6,E,X,eE,yY,e,1,0.9969401,n,0,0.335893,RSVPLG01,0.94,2023-09-12-22:25:06,910,1,Experiment,2023-09-12_15h40.05.672
12,global,global,7,11,8,140,11,,,146,exp,ZLLNFHETYUHXTNY,YNTNSUEHYTHELLU,5,F,X,fF,yY,f,1,0.8748151,n,0,0.2344737,RSVPLG01,0.94,2023-09-12-22:25:06,910,1,Experiment,2023-09-12_15h40.05.672
6,local,global,7,11,9,141,5,,,147,exp,HUETYNZFUSXSYNF,EYELUHSFSYZFUNN,4,L,X,lL,yY,l,1,0.9944853,y,1,0.1795188,RSVPLG01,0.94,2023-09-12-22:25:06,910,1,Experiment,2023-09-12_15h40.05.672
5,local,global,3,11,10,142,4,,,148,exp,LEHZNTZXFUELHTF,YFHTSUUYEEZLHFL,5,S,X,sS,yY,s,1,0.682823,y,1,0.3303484,RSVPLG01,0.94,2023-09-12-22:25:06,910,1,Experiment,2023-09-12_15h40.05.672
7,global,local,0,11,11,143,6,,,149,exp,THLHZFUNNSETSLE,LSHHYTEFTNNUFUL,5,Z,absent,zZ,nN,z,1,0.9710666,n,1,0.40295,RSVPLG01,0.94,2023-09-12-22:25:06,910,1,Experiment,2023-09-12_15h40.05.672
9,global,local,7,12,0,144,8,,,150,exp,LSNYNLEZTSUZTHE,TTSFHZLZULXEHSE,4,Y,X,yY,yY,n,0,1.820892,n,0,0.3385111,RSVPLG01,0.94,2023-09-12-22:25:06,910,1,Experiment,2023-09-12_15h40.05.672
3,local,local,7,12,1,145,2,,,151,exp,UNYHNZSTLUSZYLF,SZYELTZTSLXFNNF,4,E,X,eE,yY,e,1,0.7751216,y,1,0.3506697,RSVPLG01,0.94,2023-09-12-22:25:06,910,1,Experiment,2023-09-12_15h40.05.672
4,local,global,0,12,2,146,3,,,152,exp,TNUHFLULZENSTZE,LUZHYHZTEELNTSS,5,Y,absent,yY,nN,y,1,1.1504357,n,1,0.1054822,RSVPLG01,0.94,2023-09-12-22:25:06,910,1,Experiment,2023-09-12_15h40.05.672
7,global,local,0,12,3,147,6,,,153,exp,FSZEHYTULSFEUZL,SHFLUNZLSETUETH,6,Y,absent,yY,nN,n,0,1.4950367,n,1,0.1255428,RSVPLG01,0.94,2023-09-12-22:25:06,910,1,Experiment,2023-09-12_15h40.05.672
12,global,global,7,12,4,148,11,,,154,exp,YESUEHLNYSFLXNU,LSLEFTYYENNFUUZ,6,H,X,hH,yY,h,1,1.0825798,n,0,0.1051485,RSVPLG01,0.94,2023-09-12-22:25:06,910,1,Experiment,2023-09-12_15h40.05.672
1,local,local,0,12,5,149,0,,,155,exp,LZTHEUSLSFNNTUZ,ZTFTYLFHZNUNSHU,5,Y,absent,yY,nN,y,1,1.2540523,n,1,0.0896792,RSVPLG01,0.94,2023-09-12-22:25:06,910,1,Experiment,2023-09-12_15h40.05.672
10,global,global,0,12,6,150,9,,,156,exp,FZLESEHTNUZFHLU,ZZNTYHELFULNHEF,5,S,absent,sS,nN,s,1,0.9728422,n,1,0.3886261,RSVPLG01,0.94,2023-09-12-22:25:06,910,1,Experiment,2023-09-12_15h40.05.672
4,local,global,0,12,7,151,3,,,157,exp,EZTLHFTNNFZUUSH,SFHYZFENSTHTUZN,4,Y,absent,yY,nN,y,1,0.695577,n,1,0.1456182,RSVPLG01,0.94,2023-09-12-22:25:06,910,1,Experiment,2023-09-12_15h40.05.672
7,global,local,0,12,8,152,6,,,158,exp,NHYSLZFUHNTUZYT,NHSFEZZYFHSTTNU,5,L,absent,lL,nN,l,1,0.9892498,n,1,0.1549088,RSVPLG01,0.94,2023-09-12-22:25:06,910,1,Experiment,2023-09-12_15h40.05.672
7,global,local,0,12,9,153,6,,,159,exp,ELHUHZFETLSZNNF,EETYTZNHLFZLHSS,4,U,absent,uU,nN,u,1,0.7925904,n,1,0.0940648,RSVPLG01,0.94,2023-09-12-22:25:06,910,1,Experiment,2023-09-12_15h40.05.672
11,global,global,3,12,10,154,10,,,160,exp,UHSSYLUTXFNFTYE,HYSEHZNTSFYNUUE,6,L,X,lL,yY,l,1,0.8679311,n,0,0.1778013,RSVPLG01,0.94,2023-09-12-22:25:06,910,1,Experiment,2023-09-12_15h40.05.672
2,local,local,3,12,11,155,1,,,161,exp,FHNLUZHELSUENFT,HNHSTYEUXSTFLUL,6,Y,X,yY,yY,z,0,0.9217049,n,0,0.3625406,RSVPLG01,0.94,2023-09-12-22:25:06,910,1,Experiment,2023-09-12_15h40.05.672
2,local,local,3,13,0,156,1,,,162,exp,YFELNSHZZFSYTTE,TNYUESXZHFNETHF,4,U,X,uU,yY,u,1,0.305742,n,0,0.002409,RSVPLG01,0.94,2023-09-12-22:25:06,910,1,Experiment,2023-09-12_15h40.05.672
12,global,global,7,13,1,157,11,,,163,exp,HZFLUZYSEYFXENS,LHEFTYHSSNLZEYF,5,U,X,uU,yY,u,1,0.5287363,y,1,0.0899264,RSVPLG01,0.94,2023-09-12-22:25:06,910,1,Experiment,2023-09-12_15h40.05.672
2,local,local,3,13,2,158,1,,,164,exp,ZTHTSNHULZNEEUL,UNZEFTUXTHYEHLL,5,F,X,fF,yY,f,1,0.6641091,y,1,0.0820576,RSVPLG01,0.94,2023-09-12-22:25:06,910,1,Experiment,2023-09-12_15h40.05.672
6,local,global,7,13,3,159,5,,,165,exp,HSTHEUYSLZTXLNN,UYTSFSZLTNYLHNZ,5,F,X,fF,yY,s,0,1.0774241,n,0,0.291908,RSVPLG01,0.94,2023-09-12-22:25:06,910,1,Experiment,2023-09-12_15h40.05.672
9,global,local,7,13,4,160,8,,,166,exp,NNSYUELZZSHELFF,HFLTFSNEUZXHLNU,4,Y,X,yY,yY,y,1,0.9018922,n,0,0.0255395,RSVPLG01,0.94,2023-09-12-22:25:06,910,1,Experiment,2023-09-12_15h40.05.672
9,global,local,7,13,5,161,8,,,167,exp,YYULSTHHZNZLUFN,UUZFNENHYYLZXLS,6,T,X,tT,yY,f,0,2.4903285,n,0,0.1392379,RSVPLG01,0.94,2023-09-12-22:25:06,910,1,Experiment,2023-09-12_15h40.05.672
7,global,local,0,13,6,162,6,,,168,exp,UZSLFNYUYNZEHLE,LENZTLYZUUHSHYE,5,F,absent,fF,nN,f,1,1.2510715,n,1,1.3649453,RSVPLG01,0.94,2023-09-12-22:25:06,910,1,Experiment,2023-09-12_15h40.05.672
10,global,global,0,13,7,163,9,,,169,exp,NUZFSYLYSTNLZUE,YTZHUYNELSZULSE,4,F,absent,fF,nN,f,1,0.8998831,n,1,1.134648,RSVPLG01,0.94,2023-09-12-22:25:06,910,1,Experiment,2023-09-12_15h40.05.672
1,local,local,0,13,8,164,0,,,170,exp,ZUFENYSSZTFLYTL,FLLHUNSYZFZTSNY,4,H,absent,hH,nN,h,1,1.1748289,n,1,0.0809039,RSVPLG01,0.94,2023-09-12-22:25:06,910,1,Experiment,2023-09-12_15h40.05.672
7,global,local,0,13,9,165,6,,,171,exp,LZSTFNHHTLFUUZE,HEUUFYSTSLZHELT,6,N,absent,nN,nN,n,1,0.997595,n,1,0.0393937,RSVPLG01,0.94,2023-09-12-22:25:06,910,1,Experiment,2023-09-12_15h40.05.672
10,global,global,0,13,10,166,9,,,172,exp,NNTEFUTZEUSSLLY,UZNYHTLLYZUSEEN,5,F,absent,fF,nN,f,1,0.9641359,n,1,0.7400294,RSVPLG01,0.94,2023-09-12-22:25:06,910,1,Experiment,2023-09-12_15h40.05.672
5,local,global,3,13,11,167,4,,,173,exp,SFSNTUXYHFZZTUE,EZFLTUTYYSHSZFU,4,L,X,lL,yY,l,1,0.9597251,n,0,0.2184824,RSVPLG01,0.94,2023-09-12-22:25:06,910,1,Experiment,2023-09-12_15h40.05.672
2,local,local,3,14,0,168,1,,,174,exp,ZNYUFNZHYSSHLEL,ULUSTNHXLYSEZEY,5,T,X,tT,yY,l,0,0.8064217,n,0,0.3238286,RSVPLG01,0.94,2023-09-12-22:25:06,910,1,Experiment,2023-09-12_15h40.05.672
3,local,local,7,14,1,169,2,,,175,exp,ESUNFHSYELYHNZL,ESUYTUENHHYXNZL,5,T,X,tT,yY,t,1,1.0006667,y,1,1.0681567,RSVPLG01,0.94,2023-09-12-22:25:06,910,1,Experiment,2023-09-12_15h40.05.672
7,global,local,0,14,2,170,6,,,176,exp,ZLFHTYTUUNLEFHN,FTFEHSNUULLHNTZ,6,Y,absent,yY,nN,y,1,0.9355717,n,1,0.135465,RSVPLG01,0.94,2023-09-12-22:25:06,910,1,Experiment,2023-09-12_15h40.05.672
6,local,global,7,14,3,171,5,,,177,exp,YFHUTZFTUHELXYN,LLFEYSENTNUYHTF,6,S,X,sS,yY,s,1,1.0091024,n,0,0.0827094,RSVPLG01,0.94,2023-09-12-22:25:06,910,1,Experiment,2023-09-12_15h40.05.672
6,local,global,7,14,4,172,5,,,178,exp,FNTESHUTLLHXZNZ,LTEZYUFFNETULNH,5,Y,X,yY,yY,y,1,1.0112115,y,1,0.2558526,RSVPLG01,0.94,2023-09-12-22:25:06,910,1,Experiment,2023-09-12_15h40.05.672
6,local,global,7,14,5,173,5,,,179,exp,HTLSEETNHLXUFNY,TYEZYFNTEFHLLNH,4,Z,X,zZ,yY,y,0,0.905083,n,0,0.0827432,RSVPLG01,0.94,2023-09-12-22:25:06,910,1,Experiment,2023-09-12_15h40.05.672
10,global,global,0,14,6,174,9,,,180,exp,YLYUHFTTZNELZNE,FZTNSNYEZUYLTLU,5,H,absent,hH,nN,h,1,0.9056423,n,1,0.0707555,RSVPLG01,0.94,2023-09-12-22:25:06,910,1,Experiment,2023-09-12_15h40.05.672
11,global,global,3,14,7,175,10,,,181,exp,EEFLHFXZSNYTTHS,NFHUFYSTZYTZNEH,4,L,X,lL,yY,l,1,0.6971198,n,0,0.3158456,RSVPLG01,0.94,2023-09-12-22:25:06,910,1,Experiment,2023-09-12_15h40.05.672
11,global,global,3,14,8,176,10,,,182,exp,EYUHNHYXZLLEUSZ,EHELTSYFLYUFHUS,5,N,X,nN,yY,n,1,0.9317183,n,0,0.05869,RSVPLG01,0.94,2023-09-12-22:25:06,910,1,Experiment,2023-09-12_15h40.05.672
3,local,local,7,14,9,177,2,,,183,exp,STEYFNYLEFLUZTU,LYSEFHZUYSTTXFE,6,H,X,hH,yY,h,1,1.0167525,y,1,0.1283149,RSVPLG01,0.94,2023-09-12-22:25:06,910,1,Experiment,2023-09-12_15h40.05.672
8,global,local,3,14,10,178,7,,,184,exp,FSYNZESUHLUNEFH,NNYETSFXHSHEULU,5,Z,X,zZ,yY,z,1,1.1636371,n,0,0.2527112,RSVPLG01,0.94,2023-09-12-22:25:06,910,1,Experiment,2023-09-12_15h40.05.672
10,global,global,0,14,11,179,9,,,185,exp,ZFESLTHEUUTHYZY,FZHTNYUEFHUETYS,5,L,absent,lL,nN,l,1,0.893708,n,1,0.5869653,RSVPLG01,0.94,2023-09-12-22:25:06,910,1,Experiment,2023-09-12_15h40.05.672
1,local,local,0,15,0,180,0,,,186,exp,SHFLEUEZYNFYZLH,SFNFETLLYZZHNHS,6,T,absent,tT,nN,t,1,0.8552889,y,0,4.5118206,RSVPLG01,0.94,2023-09-12-22:25:06,910,1,Experiment,2023-09-12_15h40.05.672
11,global,global,3,15,1,181,10,,,187,exp,LTSUFHYEXEZTSZY,YSEUENTFZZSLULT,6,H,X,hH,yY,n,0,0.9532653,n,0,0.0613907,RSVPLG01,0.94,2023-09-12-22:25:06,910,1,Experiment,2023-09-12_15h40.05.672
8,global,local,3,15,2,182,7,,,188,exp,YSTEUEZLNZNHHYT,ZTYTFEHXSSZHNLE,5,U,X,uU,yY,f,0,0.9841026,n,0,0.2184019,RSVPLG01,0.94,2023-09-12-22:25:06,910,1,Experiment,2023-09-12_15h40.05.672
11,global,global,3,15,3,183,10,,,189,exp,NTLUEZXEFZNTHHS,NTSYFEFZLTLHSHZ,4,U,X,uU,yY,u,1,1.0260296,n,0,0.2099296,RSVPLG01,0.94,2023-09-12-22:25:06,910,1,Experiment,2023-09-12_15h40.05.672
11,global,global,3,15,4,184,10,,,190,exp,UFSTHFEXUSYELNN,SUNYZLTLTFFESYE,5,H,X,hH,yY,h,1,0.8186459,y,1,0.2486971,RSVPLG01,0.94,2023-09-12-22:25:06,910,1,Experiment,2023-09-12_15h40.05.672
3,local,local,7,15,5,185,2,,,191,exp,NUTESLFLFHZZHTE,ENLHYFZFNTZXHUU,5,Y,X,yY,yY,y,1,0.804915,y,1,0.1806471,RSVPLG01,0.94,2023-09-12-22:25:06,910,1,Experiment,2023-09-12_15h40.05.672
10,global,global,0,15,6,186,9,,,192,exp,THZFLEEHZUUSSNL,NHNYTHUSELTELZZ,4,F,absent,fF,nN,f,1,1.4795573,n,1,0.2128946,RSVPLG01,0.94,2023-09-12-22:25:06,910,1,Experiment,2023-09-12_15h40.05.672
5,local,global,3,15,7,187,4,,,193,exp,LTTEYHUFXSENLNY,ETLFSZLYUTNUFEY,6,Z,X,zZ,yY,s,0,0.8221067,n,0,0.190042,RSVPLG01,0.94,2023-09-12-22:25:06,910,1,Experiment,2023-09-12_15h40.05.672
1,local,local,0,15,8,188,0,,,194,exp,HNULFSEUTNFYTHE,YNULHZEHNFTFYLE,6,Z,absent,zZ,nN,z,1,1.0000445,n,1,0.1706421,RSVPLG01,0.94,2023-09-12-22:25:06,910,1,Experiment,2023-09-12_15h40.05.672
2,local,local,3,15,9,189,1,,,195,exp,STZTFUHHYFNYESE,FSHSTLFTXYNNHEZ,6,L,X,lL,yY,l,1,0.7945691,y,1,0.2585271,RSVPLG01,0.94,2023-09-12-22:25:06,910,1,Experiment,2023-09-12_15h40.05.672
7,global,local,0,15,10,190,6,,,196,exp,FYNUSEFHHSLYULZ,UFNLLTZFNSHYZSH,6,E,absent,eE,nN,f,0,0.9306929,n,1,0.2131646,RSVPLG01,0.94,2023-09-12-22:25:06,910,1,Experiment,2023-09-12_15h40.05.672
6,local,global,7,15,11,191,5,,,197,exp,NSLUHFZHELTEXTN,ZTHNHYNSLLUUSZE,6,Y,X,yY,yY,y,1,0.9216942,n,0,0.1861293,RSVPLG01,0.94,2023-09-12-22:25:06,910,1,Experiment,2023-09-12_15h40.05.672
9,global,local,7,16,0,192,8,,,198,exp,SHETZYNLNZEFLFS,NNSUZLSYEHXEHFY,4,T,X,tT,yY,t,1,0.6487921,y,1,0.0688079,RSVPLG01,0.94,2023-09-12-22:25:06,910,1,Experiment,2023-09-12_15h40.05.672
9,global,local,7,16,1,193,8,,,199,exp,LUNNSEFYZEULFYZ,HLUZTUFHZFYXYNE,5,S,X,sS,yY,f,0,0.9984049,y,1,0.0906155,RSVPLG01,0.94,2023-09-12-22:25:06,910,1,Experiment,2023-09-12_15h40.05.672
6,local,global,7,16,2,194,5,,,200,exp,ZUUFHFNYEYEXNZL,SYLSTFYEFNLNUEZ,5,T,X,tT,yY,t,1,0.8602951,y,1,0.0708922,RSVPLG01,0.94,2023-09-12-22:25:06,910,1,Experiment,2023-09-12_15h40.05.672
3,local,local,7,16,3,195,2,,,201,exp,ZUSFYTNEZESNLLT,YNZHLUUTEZXLSEY,4,H,X,hH,yY,h,1,0.5751389,y,1,0.0212748,RSVPLG01,0.94,2023-09-12-22:25:06,910,1,Experiment,2023-09-12_15h40.05.672
11,global,global,3,16,4,196,10,,,202,exp,ZNYUTFHXZHFEUEN,HSYZLHSENNFUFYE,5,T,X,tT,yY,y,0,0.9133225,n,0,0.0659429,RSVPLG01,0.94,2023-09-12-22:25:06,910,1,Experiment,2023-09-12_15h40.05.672
2,local,local,3,16,5,197,1,,,203,exp,UTEHYZHYESNTFNU,HHFNFLNEXSYSYUT,6,L,X,lL,yY,l,1,1.038518,n,0,0.1376336,RSVPLG01,0.94,2023-09-12-22:25:06,910,1,Experiment,2023-09-12_15h40.05.672
12,global,global,7,16,6,198,11,,,204,exp,YLSUTEYNTUHHXZS,TSZLZFYTSHUNHLU,6,E,X,eE,yY,e,1,1.0454607,n,0,0.4356074,RSVPLG01,0.94,2023-09-12-22:25:06,910,1,Experiment,2023-09-12_15h40.05.672
3,local,local,7,16,7,199,2,,,205,exp,TZNZYUFLSSTNLHH,HSUSENZFNTLXTHL,5,E,X,eE,yY,e,1,0.9812591,y,1,0.29299,RSVPLG01,0.94,2023-09-12-22:25:06,910,1,Experiment,2023-09-12_15h40.05.672
5,local,global,3,16,8,200,4,,,206,exp,TYTZLHSYXUESLEU,SLZTFNSZYUEYEFL,6,N,X,nN,yY,h,0,1.037067,n,0,0.0926469,RSVPLG01,0.94,2023-09-12-22:25:06,910,1,Experiment,2023-09-12_15h40.05.672
9,global,local,7,16,9,201,8,,,207,exp,NYYHTFSZLTEHNES,TYLHNUSZSZLHXYN,6,F,X,fF,yY,s,0,2.5733373,n,0,0.3225841,RSVPLG01,0.94,2023-09-12-22:25:06,910,1,Experiment,2023-09-12_15h40.05.672
4,local,global,0,16,10,202,3,,,208,exp,NSTLLFZUTEHHUES,HNSHEYEZTUZLNTL,6,Y,absent,yY,nN,y,1,1.0882357,n,1,0.1994372,RSVPLG01,0.94,2023-09-12-22:25:06,910,1,Experiment,2023-09-12_15h40.05.672
4,local,global,0,16,11,203,3,,,209,exp,NZYLHZSLFUFUTST,NTSUEZNULYFYZLS,5,E,absent,eE,nN,e,1,1.1397529,y,0,0.3144297,RSVPLG01,0.94,2023-09-12-22:25:06,910,1,Experiment,2023-09-12_15h40.05.672
3,local,local,7,17,0,204,2,,,210,exp,YTZNLYUEZUEHSSN,NHSYFNHTZUTXYEU,5,F,X,fF,yY,f,1,2.1405853,n,0,0.4834088,RSVPLG01,0.94,2023-09-12-22:25:06,910,1,Experiment,2023-09-12_15h40.05.672
10,global,global,0,17,1,205,9,,,211,exp,ZLSETNZTYSUFUYF,ESELTHULFFZZYSU,6,N,absent,nN,nN,n,1,1.0500393,n,1,0.1455827,RSVPLG01,0.94,2023-09-12-22:25:06,910,1,Experiment,2023-09-12_15h40.05.672
9,global,local,7,17,2,206,8,,,212,exp,UNEFHLFUZSSNTTE,TUFZEYFNZESTXHS,6,L,X,lL,yY,l,1,1.1226628,n,0,0.2175881,RSVPLG01,0.94,2023-09-12-22:25:06,910,1,Experiment,2023-09-12_15h40.05.672
11,global,global,3,17,3,207,10,,,213,exp,NSFNEUSLXTEHYYF,TSNFYZETHLHSEFY,6,U,X,uU,yY,u,1,0.9839349,n,0,0.0586507,RSVPLG01,0.94,2023-09-12-22:25:06,910,1,Experiment,2023-09-12_15h40.05.672
6,local,global,7,17,4,208,5,,,214,exp,LSHEFFYYZUXZHSN,NHSTNZHYFLLUZYF,4,T,X,tT,yY,t,1,0.8155533,y,1,0.146975,RSVPLG01,0.94,2023-09-12-22:25:06,910,1,Experiment,2023-09-12_15h40.05.672
5,local,global,3,17,5,209,4,,,215,exp,YZNEHLUZXSEHTUT,TSUYZFHYEENNTHS,6,F,X,fF,yY,f,1,1.0910979,y,1,0.1878122,RSVPLG01,0.94,2023-09-12-22:25:06,910,1,Experiment,2023-09-12_15h40.05.672
5,local,global,3,17,6,210,4,,,216,exp,SFLFSUHZXNLEHYY,SZFNSTFHEYYHENL,6,T,X,tT,yY,t,1,1.0913251,y,1,0.0548628,RSVPLG01,0.94,2023-09-12-22:25:06,910,1,Experiment,2023-09-12_15h40.05.672
12,global,global,7,17,7,211,11,,,217,exp,FNLSSHUZZFEEXLU,NLZFUYESFENTSZT,6,H,X,hH,yY,h,1,1.0179577,n,0,0.1258786,RSVPLG01,0.94,2023-09-12-22:25:06,910,1,Experiment,2023-09-12_15h40.05.672
6,local,global,7,17,8,212,5,,,218,exp,ELHEYFYTUSNTXUL,NEUYLZHLETSYUHS,6,Z,X,zZ,yY,z,1,0.7411551,y,1,0.1789993,RSVPLG01,0.94,2023-09-12-22:25:06,910,1,Experiment,2023-09-12_15h40.05.672
1,local,local,0,17,9,213,0,,,219,exp,NTSSHUFTEZLNFLZ,LEETZYHFFNTSNSH,6,Y,absent,yY,nN,y,1,0.9459437,n,1,0.0809702,RSVPLG01,0.94,2023-09-12-22:25:06,910,1,Experiment,2023-09-12_15h40.05.672
4,local,global,0,17,10,214,3,,,220,exp,ZUHFHYSZUELEFTL,TFESTNSLFZLHZUH,6,N,absent,nN,nN,n,1,1.0205476,n,1,0.0751074,RSVPLG01,0.94,2023-09-12-22:25:06,910,1,Experiment,2023-09-12_15h40.05.672
3,local,local,7,17,11,215,2,,,221,exp,YFYUENNLHUTZTFH,TLLYSHYHNZFXZTN,5,S,X,sS,yY,s,1,0.9455678,y,1,0.3407123,RSVPLG01,0.94,2023-09-12-22:25:06,910,1,Experiment,2023-09-12_15h40.05.672
8,global,local,3,18,0,216,7,,,222,exp,THSFLSEYTZNHNFE,YSFHUZEXZFTENST,5,L,X,lL,yY,l,1,1.0188304,n,0,0.5809118,RSVPLG01,0.94,2023-09-12-22:25:06,910,1,Experiment,2023-09-12_15h40.05.672
1,local,local,0,18,1,217,0,,,223,exp,TZULSNFYYZUEESL,ZYUZYHLELSTFSTE,6,H,absent,hH,nN,h,1,1.0560131,y,0,0.2769713,RSVPLG01,0.94,2023-09-12-22:25:06,910,1,Experiment,2023-09-12_15h40.05.672
4,local,global,0,18,2,218,3,,,224,exp,HYNHLELTUYUSFFN,LHYFUZSNFTYNSTL,6,Z,absent,zZ,nN,u,0,1.2616175,n,1,0.2194433,RSVPLG01,0.94,2023-09-12-22:25:06,910,1,Experiment,2023-09-12_15h40.05.672
1,local,local,0,18,3,219,0,,,225,exp,USFZTYENHYFNEUS,YENSLUHFSFNUZZY,5,L,absent,lL,nN,l,1,0.9644245,y,0,0.5466865,RSVPLG01,0.94,2023-09-12-22:25:06,910,1,Experiment,2023-09-12_15h40.05.672
4,local,global,0,18,4,220,3,,,226,exp,EYUZLTLNSSUEZFY,NNYZSHUFYULEZSF,6,H,absent,hH,nN,h,1,1.0502448,n,1,0.074755,RSVPLG01,0.94,2023-09-12-22:25:06,910,1,Experiment,2023-09-12_15h40.05.672
7,global,local,0,18,5,221,6,,,227,exp,FNYUFLEHLTTENZH,TZNSFHZNELFLTHE,4,U,absent,uU,nN,u,1,1.0453941,y,0,0.1275333,RSVPLG01,0.94,2023-09-12-22:25:06,910,1,Experiment,2023-09-12_15h40.05.672
5,local,global,3,18,6,222,4,,,228,exp,SYFUULSZXYTFENT,UYESNHFNZSFYUZT,6,H,X,hH,yY,h,1,0.4766957,y,1,0.0480344,RSVPLG01,0.94,2023-09-12-22:25:06,910,1,Experiment,2023-09-12_15h40.05.672
4,local,global,0,18,7,223,3,,,229,exp,NLYUEHTZZYHFFTN,ZNYSYFHHTLLFNEZ,4,S,absent,sS,nN,s,1,1.0235017,y,0,0.1321336,RSVPLG01,0.94,2023-09-12-22:25:06,910,1,Experiment,2023-09-12_15h40.05.672
5,local,global,3,18,8,224,4,,,230,exp,TSTNUUXYLEYHFFH,UHLZLEFSYTEYHSF,4,Z,X,zZ,yY,z,1,0.9379233,n,0,0.5373694,RSVPLG01,0.94,2023-09-12-22:25:06,910,1,Experiment,2023-09-12_15h40.05.672
8,global,local,3,18,9,225,7,,,231,exp,LUNTZFHFHSEESLZ,HLEYUFXSLHNZFZE,4,T,X,tT,yY,t,1,1.0001742,n,0,0.1860499,RSVPLG01,0.94,2023-09-12-22:25:06,910,1,Experiment,2023-09-12_15h40.05.672
6,local,global,7,18,10,226,5,,,232,exp,ZTUNYZSLLSEXHTU,HUNTFEZHTESLUNL,5,F,X,fF,yY,f,1,0.6518157,y,1,0.1756382,RSVPLG01,0.94,2023-09-12-22:25:06,910,1,Experiment,2023-09-12_15h40.05.672
8,global,local,3,18,11,227,7,,,233,exp,NHUYTYSLUEFSNLE,SFNHZUSXFYHYNLE,5,T,X,tT,yY,t,1,0.9945924,n,0,0.1545355,RSVPLG01,0.94,2023-09-12-22:25:06,910,1,Experiment,2023-09-12_15h40.05.672
1,local,local,0,19,0,228,0,,,234,exp,FLNUEYUNSLZTTFY,STUUHNYTYFLLFSZ,5,H,absent,hH,nN,n,0,0.9364726,y,0,0.0968755,RSVPLG01,0.94,2023-09-12-22:25:06,910,1,Experiment,2023-09-12_15h40.05.672
2,local,local,3,19,1,229,1,,,235,exp,ZUSNELETHZSHFFT,TESUZYNNXFHTFUZ,6,Y,X,yY,yY,z,0,1.9055151,n,0,0.4412892,RSVPLG01,0.94,2023-09-12-22:25:06,910,1,Experiment,2023-09-12_15h40.05.672
9,global,local,7,19,2,230,8,,,236,exp,FNLUHZTNEYLFUTH,LNNEUSLHEUFYXTH,6,Z,X,zZ,yY,z,1,1.0361023,y,1,0.4434382,RSVPLG01,0.94,2023-09-12-22:25:06,910,1,Experiment,2023-09-12_15h40.05.672
8,global,local,3,19,3,231,7,,,237,exp,TTEYLZHLUFYUEHN,HYEFNSUEXHLLFUT,6,Z,X,zZ,yY,z,1,0.6815601,y,1,0.5496596,RSVPLG01,0.94,2023-09-12-22:25:06,910,1,Experiment,2023-09-12_15h40.05.672
6,local,global,7,19,4,232,5,,,238,exp,HTFENSTNFLXHUYU,LNUZFLSYNSYTUHH,4,Z,X,zZ,yY,z,1,0.8010114,n,0,0.4966131,RSVPLG01,0.94,2023-09-12-22:25:06,910,1,Experiment,2023-09-12_15h40.05.672
11,global,global,3,19,5,233,10,,,239,exp,ZTFSYULXSUHELZE,ZUEENTTUFHZSSFH,5,Y,X,yY,yY,y,1,0.5496789,y,1,1.0568895,RSVPLG01,0.94,2023-09-12-22:25:06,910,1,Experiment,2023-09-12_15h40.05.672
6,local,global,7,19,6,234,5,,,240,exp,FTSLNHEFNSTZXYE,TYTSNUNZLFYLEEZ,6,U,X,uU,yY,n,0,0.8075953,y,1,0.1060855,RSVPLG01,0.94,2023-09-12-22:25:06,910,1,Experiment,2023-09-12_15h40.05.672
11,global,global,3,19,7,235,10,,,241,exp,TUSHNYLNXTZLSEZ,LLNNSFETHZEZUST,6,Y,X,yY,yY,y,1,0.8278165,y,1,0.0026142,RSVPLG01,0.94,2023-09-12-22:25:06,910,1,Experiment,2023-09-12_15h40.05.672
11,global,global,3,19,8,236,10,,,242,exp,LFETYHNXHSSNFTE,LUHFZSTSNEFNULT,5,Y,X,yY,yY,y,1,1.3667658,y,1,0.1060439,RSVPLG01,0.94,2023-09-12-22:25:06,910,1,Experiment,2023-09-12_15h40.05.672
7,global,local,0,19,9,237,6,,,243,exp,THEHFNLZTZEYSYS,TFHYLUHLSFESETZ,6,N,absent,nN,nN,n,1,0.9465915,n,1,0.2351865,RSVPLG01,0.94,2023-09-12-22:25:06,910,1,Experiment,2023-09-12_15h40.05.672
7,global,local,0,19,10,238,6,,,244,exp,NSLFEZFUUTLYTNS,TLEYNHSFUFNUEYS,6,Z,absent,zZ,nN,z,1,1.1989361,n,1,0.1775483,RSVPLG01,0.94,2023-09-12-22:25:06,910,1,Experiment,2023-09-12_15h40.05.672
2,local,local,3,19,11,239,1,,,245,exp,ZYUFLSUZYTHNSHN,HNHYETFXSSTUFYZ,5,E,X,eE,yY,e,1,0.6078372,y,1,0.2421657,RSVPLG01,0.94,2023-09-12-22:25:06,910,1,Experiment,2023-09-12_15h40.05.672