row,t1_level,t2_level,t2_lag,.thisRepN,.thisTrialN,.thisN,.thisIndex,thisRow.t,notes,trial,trial_type,global_letters,local_letters,t1_pos,t1,t2,t1_corr,t2_corr,t1_resp,t1_acc,t1_rt,t2_resp,t2_acc,t2_rt,exp,ver,mod-utc,sub,sess,blocktyp,datetime,
1,local,local,0,0,0,0,0,,,1,warmup,NSZFHZLTYUULNTH,NNLEUHZSYZYUSLH,4,E,absent,eE,nN,e,1,0.38088250000009793,y,0,0.726388199999974,RSVPLG01,0.94,2023-09-12-22:25:03,913,1,Experiment,2023-09-12_15h37.41.403,
11,global,global,3,0,1,1,10,,,2,warmup,HFEZULXHLTTYSEF,LLTNUHYTHUSEESF,4,Z,X,zZ,yY,z,1,0.5542854000000261,n,0,0.41658269999993536,RSVPLG01,0.94,2023-09-12-22:25:03,913,1,Experiment,2023-09-12_15h37.41.403,
12,global,global,7,0,2,2,11,,,3,warmup,USTYZFFHSNXTNUL,FTTENZLZSNSLHUF,4,Y,X,yY,yY,y,1,1.0351963000000524,y,1,0.4354906999999457,RSVPLG01,0.94,2023-09-12-22:25:03,913,1,Experiment,2023-09-12_15h37.41.403,
3,local,local,7,0,3,3,2,,,4,warmup,LTFYLUZZSFHSUET,UFLNETTHLZXFUZS,4,N,X,nN,yY,n,1,0.6179454000000533,y,1,0.8343141999998807,RSVPLG01,0.94,2023-09-12-22:25:03,913,1,Experiment,2023-09-12_15h37.41.403,
6,local,global,7,0,4,4,5,,,5,warmup,ULTHEZNEUSLFXST,HNUEFYFSNTLLTEH,6,Y,X,yY,yY,y,1,1.3164404000001468,y,1,0.4182290000001103,RSVPLG01,0.94,2023-09-12-22:25:03,913,1,Experiment,2023-09-12_15h37.41.403,
6,local,global,7,0,0,0,5,,,6,exp,SFLULYEZHHTUXET,FZULHNSTSFUEHTZ,6,N,X,nN,yY,n,1,0.5032679000000826,y,1,0.711206600000196,RSVPLG01,0.94,2023-09-12-22:25:03,913,1,Experiment,2023-09-12_15h37.41.403,
7,global,local,0,0,1,1,6,,,7,exp,EZESFUTHHSNYNYF,FZZTHLENTNFSYES,6,U,absent,uU,nN,u,1,1.1441505000000234,n,1,0.40990290000013374,RSVPLG01,0.94,2023-09-12-22:25:03,913,1,Experiment,2023-09-12_15h37.41.403,
1,local,local,0,0,2,2,0,,,8,exp,NELHYZFHFSZSTNT,LFLHUFSNZTETZHS,5,U,absent,uU,nN,u,1,0.9950940999999602,n,1,0.3992659000000458,RSVPLG01,0.94,2023-09-12-22:25:03,913,1,Experiment,2023-09-12_15h37.41.403,
7,global,local,0,0,3,3,6,,,9,exp,ELTULNZTHFUHFSS,EHHTLYFZFSEUUST,6,N,absent,nN,nN,n,1,1.6514439000000039,y,0,0.623134299999947,RSVPLG01,0.94,2023-09-12-22:25:03,913,1,Experiment,2023-09-12_15h37.41.403,
10,global,global,0,0,4,4,9,,,10,exp,NYLSTLHSFNYEFZZ,ZYYFUNLEHNFEZSS,5,T,absent,tT,nN,y,0,0.4902961000000232,y,0,0.43102520000002187,RSVPLG01,0.94,2023-09-12-22:25:03,913,1,Experiment,2023-09-12_15h37.41.403,
10,global,global,0,0,5,5,9,,,11,exp,SNSFTEHTULHYEUY,EUUZYHNSHTNYTLE,4,F,absent,fF,nN,f,1,0.5455034000001433,n,1,0.350152099999832,RSVPLG01,0.94,2023-09-12-22:25:03,913,1,Experiment,2023-09-12_15h37.41.403,
5,local,global,3,0,6,6,4,,,12,exp,YSFZLUHXSTZFEYE,HHETNFZFYSUETSZ,5,N,X,nN,yY,u,0,0.7010264999998981,y,1,0.487797799999953,RSVPLG01,0.94,2023-09-12-22:25:03,913,1,Experiment,2023-09-12_15h37.41.403,
9,global,local,7,0,7,7,8,,,13,exp,NUUSHNEZYZYTSET,ZNYNLFESTYEXUSZ,5,H,X,hH,yY,h,1,0.965704100000039,y,1,0.30665259999977934,RSVPLG01,0.94,2023-09-12-22:25:03,913,1,Experiment,2023-09-12_15h37.41.403,
5,local,global,3,0,8,8,4,,,14,exp,EYHTNEXFYHUSUSZ,UUZLSFZHYNNFYEH,4,L,X,lL,yY,l,1,0.7569719999999052,y,1,0.2874601999999413,RSVPLG01,0.94,2023-09-12-22:25:03,913,1,Experiment,2023-09-12_15h37.41.403,
4,local,global,0,0,9,9,3,,,15,exp,TFUFHYSZZUSHLNN,HUUNTEHFLFSSNZT,6,E,absent,eE,nN,e,1,0.6130344000000605,n,1,0.37603359999980057,RSVPLG01,0.94,2023-09-12-22:25:03,913,1,Experiment,2023-09-12_15h37.41.403,
11,global,global,3,0,10,10,10,,,16,exp,FNLZTYEXFLHHNES,ZHNSUFSEYEHNFLL,5,T,X,tT,yY,t,1,0.4715905999998995,n,0,0.3438926999999694,RSVPLG01,0.94,2023-09-12-22:25:03,913,1,Experiment,2023-09-12_15h37.41.403,
3,local,local,7,0,11,11,2,,,17,exp,EUSYLTZLFYZUNSN,LUNYFHZFZNYSXUE,6,H,X,hH,yY,h,1,0.42100010000012844,y,1,0.6791634999999587,RSVPLG01,0.94,2023-09-12-22:25:03,913,1,Experiment,2023-09-12_15h37.41.403,
10,global,global,0,1,0,12,9,,,18,exp,UUYSHZFZHELETTL,FEYNUZHYELTZFUL,4,S,absent,sS,nN,s,1,0.48169000000007145,y,0,0.6378113999999186,RSVPLG01,0.94,2023-09-12-22:25:03,913,1,Experiment,2023-09-12_15h37.41.403,
11,global,global,3,1,1,13,10,,,19,exp,YTLNFSFEXHYZNLE,FHNZNUEZTLHLYYT,6,S,X,sS,yY,s,1,0.8389924999999039,y,1,0.42622159999996256,RSVPLG01,0.94,2023-09-12-22:25:03,913,1,Experiment,2023-09-12_15h37.41.403,
4,local,global,0,1,2,14,3,,,20,exp,YEFEZSSLYUUTHLF,UTYTNSFEHUSFELY,5,N,absent,nN,nN,z,0,0.8070067999999537,n,1,0.4343054000000848,RSVPLG01,0.94,2023-09-12-22:25:03,913,1,Experiment,2023-09-12_15h37.41.403,
10,global,global,0,1,3,15,9,,,21,exp,UZLHEFTTLZYSUHY,SUHLZNUSHYZYEEL,6,F,absent,fF,nN,e,0,0.4176990000000842,y,0,0.33384780000005776,RSVPLG01,0.94,2023-09-12-22:25:03,913,1,Experiment,2023-09-12_15h37.41.403,
1,local,local,0,1,4,16,0,,,22,exp,UEZHFTESZNSLHUL,SFNHLYZEZSUFNEH,6,Y,absent,yY,nN,t,0,0.6185706999999638,n,1,0.2733493000000635,RSVPLG01,0.94,2023-09-12-22:25:03,913,1,Experiment,2023-09-12_15h37.41.403,
8,global,local,3,1,5,17,7,,,23,exp,UYTNELSEYSZFZUL,ZUEHYSXYLESTFLF,4,N,X,nN,yY,n,1,0.5584023999999772,n,0,0.4081919000000198,RSVPLG01,0.94,2023-09-12-22:25:03,913,1,Experiment,2023-09-12_15h37.41.403,
9,global,local,7,1,6,18,8,,,24,exp,UYETNZSHLYELUST,TLEHFZUHELZXSST,5,N,X,nN,yY,n,1,0.4452755000002071,y,1,0.7046293999999307,RSVPLG01,0.94,2023-09-12-22:25:03,913,1,Experiment,2023-09-12_15h37.41.403,
3,local,local,7,1,7,19,2,,,25,exp,ZNLYSEZYUFLTNTE,FYTEHFLZTLNXZUN,5,H,X,hH,yY,f,0,0.6332993999999417,y,1,0.625900399999864,RSVPLG01,0.94,2023-09-12-22:25:03,913,1,Experiment,2023-09-12_15h37.41.403,
4,local,global,0,1,8,20,3,,,26,exp,ULYLEFHNHSYEUNS,TLENEZSUHLHYYST,6,Z,absent,zZ,nN,z,1,0.5328718999999182,n,1,0.5141446000000087,RSVPLG01,0.94,2023-09-12-22:25:03,913,1,Experiment,2023-09-12_15h37.41.403,
4,local,global,0,1,9,21,3,,,27,exp,LLNZFSHHYUFSNTT,LNYEUNHLFYUTSTF,4,E,absent,eE,nN,e,1,0.5547125999999025,n,1,0.23348250000003645,RSVPLG01,0.94,2023-09-12-22:25:03,913,1,Experiment,2023-09-12_15h37.41.403,
1,local,local,0,1,10,22,0,,,28,exp,HSZZHEUFNFYNYSL,YHNFZTSUFZYLNHU,6,T,absent,tT,nN,t,1,0.32439179999983025,n,1,1.1690519999999651,RSVPLG01,0.94,2023-09-12-22:25:03,913,1,Experiment,2023-09-12_15h37.41.403,
4,local,global,0,1,11,23,3,,,29,exp,EYUNZZYLHHSELFU,LHZTYEFZYUUSLHE,4,T,absent,tT,nN,t,1,0.3457120999999006,n,1,0.3048899000000347,RSVPLG01,0.94,2023-09-12-22:25:03,913,1,Experiment,2023-09-12_15h37.41.403,
9,global,local,7,2,0,24,8,,,30,exp,HSTZFNNYHZESUYU,TENHLNHYYZUXSUS,5,F,X,fF,yY,f,1,0.4357444999998279,y,1,0.6789294000000154,RSVPLG01,0.94,2023-09-12-22:25:03,913,1,Experiment,2023-09-12_15h37.41.403,
5,local,global,3,2,1,25,4,,,31,exp,TEUFLNHXZFSZHUN,HETUYFNEHSNZTSF,5,Y,X,yY,yY,l,0,0.4600467000000208,y,1,0.24152300000014293,RSVPLG01,0.94,2023-09-12-22:25:03,913,1,Experiment,2023-09-12_15h37.41.403,
12,global,global,7,2,2,26,11,,,32,exp,ZHLSELTTZNXFNEY,LNTUZNFYTEZLHHE,4,S,X,sS,yY,s,1,0.5679365000000871,y,1,0.12880330000007234,RSVPLG01,0.94,2023-09-12-22:25:03,913,1,Experiment,2023-09-12_15h37.41.403,
3,local,local,7,2,3,27,2,,,33,exp,LNYHHTSUSFUZNYZ,LZNZHENYHLYSXUF,6,E,X,eE,yY,e,1,0.4207152000001315,y,1,0.28313630000002377,RSVPLG01,0.94,2023-09-12-22:25:03,913,1,Experiment,2023-09-12_15h37.41.403,
7,global,local,0,2,4,28,6,,,34,exp,SEHHUNLSETTNFLZ,THSNYLZTSFNHFEZ,5,U,absent,uU,nN,u,1,0.5468726999999944,n,1,0.2755833999999595,RSVPLG01,0.94,2023-09-12-22:25:03,913,1,Experiment,2023-09-12_15h37.41.403,
12,global,global,7,2,5,29,11,,,35,exp,ZESFHFYTSTLXLYN,LFETUELNYNTSSZF,5,H,X,hH,yY,h,1,0.5798511000000417,y,1,0.8306757999998808,RSVPLG01,0.94,2023-09-12-22:25:03,913,1,Experiment,2023-09-12_15h37.41.403,
6,local,global,7,2,6,30,5,,,36,exp,EELHYNUHFTSXNSF,TFEHZSTULNSHLEF,5,Z,X,zZ,yY,t,0,0.46552040000005945,y,1,0.40346450000015466,RSVPLG01,0.94,2023-09-12-22:25:03,913,1,Experiment,2023-09-12_15h37.41.403,
3,local,local,7,2,7,31,2,,,37,exp,ENSUUFSYZHNEZTY,YTUTZLHYUSHNXEN,6,L,X,lL,yY,l,1,0.6288273999998637,y,1,0.6573246999998901,RSVPLG01,0.94,2023-09-12-22:25:03,913,1,Experiment,2023-09-12_15h37.41.403,
7,global,local,0,2,8,32,6,,,38,exp,LTUFNHZZEUTLHFE,ZEZUYSFTHFLHUTE,5,N,absent,nN,nN,n,1,0.6138511999999992,n,1,0.42580199999997603,RSVPLG01,0.94,2023-09-12-22:25:03,913,1,Experiment,2023-09-12_15h37.41.403,
7,global,local,0,2,9,33,6,,,39,exp,SUTNYHLEYTNUFEL,ETFYSZFSUTNEULL,6,H,absent,hH,nN,h,1,0.6393464999998741,n,1,0.24119130000008226,RSVPLG01,0.94,2023-09-12-22:25:03,913,1,Experiment,2023-09-12_15h37.41.403,
9,global,local,7,2,10,34,8,,,40,exp,YLZNTUEFYUFLTEZ,HFZSYHYUFLXETUT,4,N,X,nN,yY,n,1,0.8261085999999978,y,1,0.25122609999993983,RSVPLG01,0.94,2023-09-12-22:25:03,913,1,Experiment,2023-09-12_15h37.41.403,
2,local,local,3,2,11,35,1,,,41,exp,HFLYYUNZTTFHSLN,SNTZNEZFXYTFHYL,6,E,X,eE,yY,e,1,0.5010616999998092,n,0,1.4933319000001575,RSVPLG01,0.94,2023-09-12-22:25:03,913,1,Experiment,2023-09-12_15h37.41.403,
8,global,local,3,3,0,36,7,,,42,exp,EHSZTZNFESYNYLF,FESHUELXNNZFLHS,5,T,X,tT,yY,t,1,0.3659353000000465,y,1,0.5914048999998158,RSVPLG01,0.94,2023-09-12-22:25:03,913,1,Experiment,2023-09-12_15h37.41.403,
2,local,local,3,3,1,37,1,,,43,exp,FNSTLNFYHELEHSY,LYEZHYXUNSHLUEF,4,Z,X,zZ,yY,z,1,0.4913973000000169,y,1,0.7041741000000457,RSVPLG01,0.94,2023-09-12-22:25:03,913,1,Experiment,2023-09-12_15h37.41.403,
12,global,global,7,3,2,38,11,,,44,exp,LFSELFYSTYXHTHN,YZTUHNLLHSTYFFS,4,E,X,eE,yY,e,1,0.39801230000011856,n,0,0.49195540000005167,RSVPLG01,0.94,2023-09-12-22:25:03,913,1,Experiment,2023-09-12_15h37.41.403,
3,local,local,7,3,3,39,2,,,45,exp,FYZHSSYNUFTENZT,TZFLYTNSYEXSUUZ,4,L,X,lL,yY,l,1,0.7778129000000717,y,1,0.17891899999995076,RSVPLG01,0.94,2023-09-12-22:25:03,913,1,Experiment,2023-09-12_15h37.41.403,
9,global,local,7,3,4,40,8,,,46,exp,UUTSYTHZZHELNLE,UEYFHNETZTXZYLU,4,S,X,sS,yY,s,1,1.0888621999999941,y,1,0.13367420000008678,RSVPLG01,0.94,2023-09-12-22:25:03,913,1,Experiment,2023-09-12_15h37.41.403,
12,global,global,7,3,5,41,11,,,47,exp,EHTUNFUHESZXTYY,HUYZLYHESTZFFUE,5,N,X,nN,yY,n,1,0.8697414000000663,y,1,0.2735216000000946,RSVPLG01,0.94,2023-09-12-22:25:03,913,1,Experiment,2023-09-12_15h37.41.403,
9,global,local,7,3,6,42,8,,,48,exp,ZEHUFSNENFUTHZY,FYHZELEUNFUTXHY,6,S,X,sS,yY,h,0,2.0445168000001104,y,1,0.7670835999999781,RSVPLG01,0.94,2023-09-12-22:25:03,913,1,Experiment,2023-09-12_15h37.41.403,
11,global,global,3,3,7,43,10,,,49,exp,HNZTHFYZXNLUYSL,SSYUNEHNTZLZLHT,6,F,X,fF,yY,e,0,0.5775736000000506,y,1,0.930127400000174,RSVPLG01,0.94,2023-09-12-22:25:03,913,1,Experiment,2023-09-12_15h37.41.403,
8,global,local,3,3,8,44,7,,,50,exp,TYLLTZNEYSEFUFS,SLEFUHYNXTLYNTS,6,Z,X,zZ,yY,z,1,0.5563290000000052,y,1,0.7062977000000501,RSVPLG01,0.94,2023-09-12-22:25:03,913,1,Experiment,2023-09-12_15h37.41.403,
3,local,local,7,3,9,45,2,,,51,exp,ZNSLHFTUTUEZHEN,UTLNLYEEUSZSXHH,6,Y,X,yY,yY,y,1,2.2812764000000243,y,1,0.06610500000010688,RSVPLG01,0.94,2023-09-12-22:25:03,913,1,Experiment,2023-09-12_15h37.41.403,
10,global,global,0,3,10,46,9,,,52,exp,NFZSLLYTYUEENFZ,EFLHFUNUEYYTZTZ,4,S,absent,sS,nN,s,1,0.4658598000000893,n,1,0.2903983999999582,RSVPLG01,0.94,2023-09-12-22:25:03,913,1,Experiment,2023-09-12_15h37.41.403,
11,global,global,3,3,11,47,10,,,53,exp,NLEHULXTESUTNSF,LULZNEUTFNYSYTS,4,H,X,hH,yY,h,1,0.48396739999998317,n,0,0.2816537999999582,RSVPLG01,0.94,2023-09-12-22:25:03,913,1,Experiment,2023-09-12_15h37.41.403,
11,global,global,3,4,0,48,10,,,54,exp,TNLESHFYXLZTYES,NSESFUZZYTELLNY,6,H,X,hH,yY,h,1,0.893692000000101,y,1,0.28049989999999525,RSVPLG01,0.94,2023-09-12-22:25:03,913,1,Experiment,2023-09-12_15h37.41.403,
3,local,local,7,4,1,49,2,,,55,exp,TFYNZELULHUHTYF,EZTSFYFUHHXUTLY,4,S,X,sS,yY,s,1,0.6376318000000083,y,1,0.2664925999999923,RSVPLG01,0.94,2023-09-12-22:25:03,913,1,Experiment,2023-09-12_15h37.41.403,
4,local,global,0,4,2,50,3,,,56,exp,ZNTHFYLSFLEHTZE,FNSLLUNEFEHSTTH,6,U,absent,uU,nN,u,1,0.5314309000000321,n,1,0.31445000000007894,RSVPLG01,0.94,2023-09-12-22:25:03,913,1,Experiment,2023-09-12_15h37.41.403,
8,global,local,3,4,3,51,7,,,57,exp,HUUZLSTLZTNFNHF,HUTFZEHNXYUNLZF,6,S,X,sS,yY,s,1,0.42943179999997483,y,1,0.6031183000000055,RSVPLG01,0.94,2023-09-12-22:25:03,913,1,Experiment,2023-09-12_15h37.41.403,
1,local,local,0,4,4,52,0,,,58,exp,NZTZUFLESSTULYY,LTLTYHSZNYUZESN,6,H,absent,hH,nN,h,1,0.4716379000001325,y,0,0.5930201999999554,RSVPLG01,0.94,2023-09-12-22:25:03,913,1,Experiment,2023-09-12_15h37.41.403,
11,global,global,3,4,5,53,10,,,59,exp,HUFFLTSNXZLHZYY,LHZYSEHZYNNFUSF,6,T,X,tT,yY,t,1,0.34972799999991366,y,1,0.3095183000000361,RSVPLG01,0.94,2023-09-12-22:25:03,913,1,Experiment,2023-09-12_15h37.41.403,
3,local,local,7,4,6,54,2,,,60,exp,FTLEZLUENFSHSTH,TSNNYLFLHUUXHFE,5,Y,X,yY,yY,z,0,0.3797066999998151,y,1,0.2586381999999503,RSVPLG01,0.94,2023-09-12-22:25:03,913,1,Experiment,2023-09-12_15h37.41.403,
2,local,local,3,4,7,55,1,,,61,exp,SEYEHSNFFTNYUZU,FSEFLTUXENYTZNY,5,L,X,lL,yY,l,1,0.6963382999999794,y,1,0.834699799999953,RSVPLG01,0.94,2023-09-12-22:25:03,913,1,Experiment,2023-09-12_15h37.41.403,
9,global,local,7,4,8,56,8,,,62,exp,SULYNZHHUFFNZES,UUETNHLFLNXFSHE,4,Y,X,yY,yY,y,1,0.7843407000000298,y,1,0.30023929999993015,RSVPLG01,0.94,2023-09-12-22:25:03,913,1,Experiment,2023-09-12_15h37.41.403,
2,local,local,3,4,9,57,1,,,63,exp,LESNHYZLTZFHETF,HYTUSEXLZTZSYHE,4,U,X,uU,yY,u,1,1.0431042000000161,y,1,0.15840529999991304,RSVPLG01,0.94,2023-09-12-22:25:03,913,1,Experiment,2023-09-12_15h37.41.403,
7,global,local,0,4,10,58,6,,,64,exp,NFLSHYUNZSTTZFL,FTSNEUZFLYZYSNU,5,H,absent,hH,nN,h,1,0.5446790000000874,n,1,0.9256601999998111,RSVPLG01,0.94,2023-09-12-22:25:03,913,1,Experiment,2023-09-12_15h37.41.403,
4,local,global,0,4,11,59,3,,,65,exp,EHHZSTEUUNLLFSZ,LLUSZYZUSNHHEFE,6,Y,absent,yY,nN,y,1,1.064779499999986,n,1,0.09784500000000662,RSVPLG01,0.94,2023-09-12-22:25:03,913,1,Experiment,2023-09-12_15h37.41.403,
3,local,local,7,5,0,60,2,,,66,exp,HNFTEZSFNULSHEZ,NNSYZFEHHZXUFLE,4,Y,X,yY,yY,y,1,2.4589191999998548,y,1,0.4636012999999366,RSVPLG01,0.94,2023-09-12-22:25:03,913,1,Experiment,2023-09-12_15h37.41.403,
5,local,global,3,5,1,61,4,,,67,exp,HLNYEUXUHENZFLZ,SLFTSUEHUZNENLZ,4,T,X,tT,yY,t,1,0.6762644000000364,y,1,0.4180535000000418,RSVPLG01,0.94,2023-09-12-22:25:03,913,1,Experiment,2023-09-12_15h37.41.403,
10,global,global,0,5,2,62,9,,,68,exp,HUHEYYLZLSFZFST,FYSNSLYTUFTZHZH,4,E,absent,eE,nN,e,1,0.5398725000000013,n,1,0.24228680000010172,RSVPLG01,0.94,2023-09-12-22:25:03,913,1,Experiment,2023-09-12_15h37.41.403,
3,local,local,7,5,3,63,2,,,69,exp,HLHENTFUYNSFSEY,UHELFZSFLSYYXNH,6,Z,X,zZ,yY,z,1,0.518888699999934,y,1,0.2746714999998403,RSVPLG01,0.94,2023-09-12-22:25:03,913,1,Experiment,2023-09-12_15h37.41.403,
6,local,global,7,5,4,64,5,,,70,exp,EHSHZNLUUSFXYFL,NLHUTYYSFESHNEU,5,T,X,tT,yY,u,0,0.8755455999998958,y,1,0.13318739999999707,RSVPLG01,0.94,2023-09-12-22:25:03,913,1,Experiment,2023-09-12_15h37.41.403,
10,global,global,0,5,5,65,9,,,71,exp,NTLHSNTFZFYLHZU,UYUYELFNZHHTFNT,5,S,absent,sS,nN,s,1,0.6086339999999382,y,0,0.11234160000003612,RSVPLG01,0.94,2023-09-12-22:25:03,913,1,Experiment,2023-09-12_15h37.41.403,
4,local,global,0,5,6,66,3,,,72,exp,ETFUYZYSFSEHNTZ,FYNLZHESTFTEHSN,4,L,absent,lL,nN,l,1,0.5524503999999979,y,0,0.21831279999992148,RSVPLG01,0.94,2023-09-12-22:25:03,913,1,Experiment,2023-09-12_15h37.41.403,
5,local,global,3,5,7,67,4,,,73,exp,LETSHYXUYHZNLZN,TYEFZYLHLZTNHUE,4,F,X,fF,yY,e,0,0.4398793000000296,n,0,0.20205170000008366,RSVPLG01,0.94,2023-09-12-22:25:03,913,1,Experiment,2023-09-12_15h37.41.403,
7,global,local,0,5,8,68,6,,,74,exp,ZZETHYLUYFHFUSE,LEYNSZHULEUHZFS,4,T,absent,tT,nN,t,1,0.38079259999994974,n,1,0.23796619999984614,RSVPLG01,0.94,2023-09-12-22:25:03,913,1,Experiment,2023-09-12_15h37.41.403,
10,global,global,0,5,9,69,9,,,75,exp,TUHSEHNYNYZSFUF,HHYSLFUYFTSUNZT,5,E,absent,eE,nN,e,1,0.43937659999983225,n,1,0.27529600000002574,RSVPLG01,0.94,2023-09-12-22:25:03,913,1,Experiment,2023-09-12_15h37.41.403,
9,global,local,7,5,10,70,8,,,76,exp,ZFHTLEZLUNYYUTF,TNTHYSUZLULYXFH,6,E,X,eE,yY,e,1,0.49715450000007877,y,1,0.34268219999989924,RSVPLG01,0.94,2023-09-12-22:25:03,913,1,Experiment,2023-09-12_15h37.41.403,
1,local,local,0,5,11,71,0,,,77,exp,EYZTZFFESNYNULL,SNUHZEFFNEYZYLU,4,H,absent,hH,nN,h,1,0.7729471999998623,y,0,0.2499393999999029,RSVPLG01,0.94,2023-09-12-22:25:03,913,1,Experiment,2023-09-12_15h37.41.403,
9,global,local,7,6,0,72,8,,,78,exp,UFTHNZSLTYULFYZ,YZTEYLZFSNXSNUU,4,H,X,hH,yY,h,1,0.5857335000000603,y,1,0.2502364999998008,RSVPLG01,0.94,2023-09-12-22:25:03,913,1,Experiment,2023-09-12_15h37.41.403,
6,local,global,7,6,1,73,5,,,79,exp,EHTUFZTELLSXZUH,EYUTNSEYULHZZTH,5,N,X,nN,yY,f,0,0.8310649000000012,y,1,0.2904292999999143,RSVPLG01,0.94,2023-09-12-22:25:03,913,1,Experiment,2023-09-12_15h37.41.403,
11,global,global,3,6,2,74,10,,,80,exp,NHNEFUTZXYHYSFT,YZTHZLNESYFHNTE,6,U,X,uU,yY,u,1,0.7844481000001906,y,1,0.2826363000001493,RSVPLG01,0.94,2023-09-12-22:25:03,913,1,Experiment,2023-09-12_15h37.41.403,
10,global,global,0,6,3,75,9,,,81,exp,LFUZNTEUNHFYHZE,ZLHUHSENFEFYNUZ,6,T,absent,tT,nN,t,1,0.34909590000006574,n,1,0.21915599999965707,RSVPLG01,0.94,2023-09-12-22:25:03,913,1,Experiment,2023-09-12_15h37.41.403,
7,global,local,0,6,4,76,6,,,82,exp,ULEHNYLYHZEFTUT,ZYHUSLETLUTZEYF,5,N,absent,nN,nN,n,1,0.44748100000015256,n,1,0.2399967999999717,RSVPLG01,0.94,2023-09-12-22:25:03,913,1,Experiment,2023-09-12_15h37.41.403,
4,local,global,0,6,5,77,3,,,83,exp,UTFEYEHTUHNLNSS,NSHTZEHLUTLFSFN,5,Z,absent,zZ,nN,z,1,0.6304768999998487,y,0,0.7305089000001317,RSVPLG01,0.94,2023-09-12-22:25:03,913,1,Experiment,2023-09-12_15h37.41.403,
10,global,global,0,6,6,78,9,,,84,exp,NHFTFUHSENUZYSE,HHULYFSFNZEENYU,4,T,absent,tT,nN,t,1,0.3629566000004161,y,0,0.26833009999973,RSVPLG01,0.94,2023-09-12-22:25:03,913,1,Experiment,2023-09-12_15h37.41.403,
3,local,local,7,6,7,79,2,,,85,exp,ETLEHZFNSSUFZUL,EEZLYNLFUFSXZUN,5,Y,X,yY,yY,y,1,0.6313603999997213,y,1,0.010397399999874324,RSVPLG01,0.94,2023-09-12-22:25:03,913,1,Experiment,2023-09-12_15h37.41.403,
5,local,global,3,6,8,80,4,,,86,exp,ZNSUYLETXFNFSZU,NENETHZFUYSYZTS,6,H,X,hH,yY,h,1,0.9078466000000844,y,1,0.6030028000000129,RSVPLG01,0.94,2023-09-12-22:25:03,913,1,Experiment,2023-09-12_15h37.41.403,
2,local,local,3,6,9,81,1,,,87,exp,YFUHSZUZETTFENN,NEHULYYXTNHFEUT,5,L,X,lL,yY,z,0,0.9804625999995551,n,0,0.2335451999997531,RSVPLG01,0.94,2023-09-12-22:25:03,913,1,Experiment,2023-09-12_15h37.41.403,
5,local,global,3,6,10,82,4,,,88,exp,ZTHYFUEXULYNZEN,EZNLSTLHUEYZHNT,5,S,X,sS,yY,s,1,0.8407311000000846,y,1,0.2911842999997134,RSVPLG01,0.94,2023-09-12-22:25:03,913,1,Experiment,2023-09-12_15h37.41.403,
3,local,local,7,6,11,83,2,,,89,exp,UTFLEUZFSZTLYSY,LSULHZZFNTUXYNT,5,H,X,hH,yY,h,1,1.1085320000001957,y,1,0.04719489999979487,RSVPLG01,0.94,2023-09-12-22:25:03,913,1,Experiment,2023-09-12_15h37.41.403,
12,global,global,7,7,0,84,11,,,90,exp,EYFZHEHYLUXSSTU,UYENTETHUSLHLSF,4,Z,X,zZ,yY,z,1,0.9502161999998862,y,1,0.5443786999999247,RSVPLG01,0.94,2023-09-12-22:25:03,913,1,Experiment,2023-09-12_15h37.41.403,
12,global,global,7,7,1,85,11,,,91,exp,ULHSFTENYUYSXLE,HSYUNZHSULEFFEL,6,T,X,tT,yY,t,1,1.0964440000002469,y,1,0.14000279999982013,RSVPLG01,0.94,2023-09-12-22:25:03,913,1,Experiment,2023-09-12_15h37.41.403,
8,global,local,3,7,2,86,7,,,92,exp,EYULFNZSNYTZUET,NZFHSFXYEZEUUTN,4,L,X,lL,yY,l,1,2.130985799999962,y,1,0.7382806999999048,RSVPLG01,0.94,2023-09-12-22:25:03,913,1,Experiment,2023-09-12_15h37.41.403,
10,global,global,0,7,3,87,9,,,93,exp,HUTEZLSHLSNZYYN,NTLFSTSUYHZZYUH,4,E,absent,eE,nN,h,0,0.9990581999995811,y,0,0.26559240000005957,RSVPLG01,0.94,2023-09-12-22:25:03,913,1,Experiment,2023-09-12_15h37.41.403,
11,global,global,3,7,4,88,10,,,94,exp,ZUFLHSEXLTSTEZU,TZLUYLUFZTENSFS,5,H,X,hH,yY,h,1,0.9169732999998814,y,1,0.1758292999998048,RSVPLG01,0.94,2023-09-12-22:25:03,913,1,Experiment,2023-09-12_15h37.41.403,
10,global,global,0,7,5,89,9,,,95,exp,HSTYSEZLNYFHZFL,FHHTSUNYSFLZYLN,6,E,absent,eE,nN,e,1,1.0677494000001388,y,0,0.4250635000003058,RSVPLG01,0.94,2023-09-12-22:25:03,913,1,Experiment,2023-09-12_15h37.41.403,
7,global,local,0,7,6,90,6,,,96,exp,ULZLFESUTYHZETH,YSETNZSYLUZHLUE,5,F,absent,fF,nN,f,1,0.9279053999998723,n,1,0.5454785000001721,RSVPLG01,0.94,2023-09-12-22:25:03,913,1,Experiment,2023-09-12_15h37.41.403,
6,local,global,7,7,7,91,5,,,97,exp,FSNELYSYNZXHUUZ,FSHTNLUSUHNZFYZ,4,T,X,tT,yY,t,1,0.8352881000000707,y,1,0.033229600000140636,RSVPLG01,0.94,2023-09-12-22:25:03,913,1,Experiment,2023-09-12_15h37.41.403,
8,global,local,3,7,8,92,7,,,98,exp,SFZYEULNYZFSTNL,UUNTHFZXYLTZNSY,5,E,X,eE,yY,e,1,0.7755772000000434,y,1,0.5445810999999594,RSVPLG01,0.94,2023-09-12-22:25:03,913,1,Experiment,2023-09-12_15h37.41.403,
4,local,global,0,7,9,93,3,,,99,exp,YFLUSTLHTEYNNES,NESZYFYENHTLLSH,4,Z,absent,zZ,nN,z,1,0.9624179000002187,n,1,0.3776035000000775,RSVPLG01,0.94,2023-09-12-22:25:03,913,1,Experiment,2023-09-12_15h37.41.403,
8,global,local,3,7,10,94,7,,,100,exp,EYUTSLHLZNNSZYU,HYEFZUXNLEYLSUZ,4,T,X,tT,yY,t,1,0.9803728000001684,y,1,0.24608419999958642,RSVPLG01,0.94,2023-09-12-22:25:03,913,1,Experiment,2023-09-12_15h37.41.403,
5,local,global,3,7,11,95,4,,,101,exp,LESUYNTXLZSUEZT,EHZNFNSLSHTELTZ,5,F,X,fF,yY,f,1,0.9425089000001208,y,1,0.15392149999979665,RSVPLG01,0.94,2023-09-12-22:25:03,913,1,Experiment,2023-09-12_15h37.41.403,
7,global,local,0,8,0,96,6,,,102,exp,SEUFZYLZEHLNUSN,ULELNTEHSFUZFHZ,6,Y,absent,yY,nN,t,0,0.37928680000004533,n,1,0.29724499999974796,RSVPLG01,0.94,2023-09-12-22:25:03,913,1,Experiment,2023-09-12_15h37.41.403,
1,local,local,0,8,1,97,0,,,103,exp,FTLUHUEZENFNLZY,TYUYSFNTNLUEZZL,5,S,absent,sS,nN,s,1,0.5207789999999477,n,1,0.10136310000007143,RSVPLG01,0.94,2023-09-12-22:25:03,913,1,Experiment,2023-09-12_15h37.41.403,
2,local,local,3,8,2,98,1,,,104,exp,ETHUYLEHNZSUNST,ZYSETFUHXNHUEZT,6,F,X,fF,yY,f,1,0.3604054000002179,y,1,0.8423315000000002,RSVPLG01,0.94,2023-09-12-22:25:03,913,1,Experiment,2023-09-12_15h37.41.403,
6,local,global,7,8,3,99,5,,,105,exp,NYHTZLFFYLXZEUN,FYUSYLNZUZLEENF,4,S,X,sS,yY,s,1,0.8981081000001723,y,1,0.18160959999977422,RSVPLG01,0.94,2023-09-12-22:25:03,913,1,Experiment,2023-09-12_15h37.41.403,
7,global,local,0,8,4,100,6,,,106,exp,UYTFUNLYTSSHZHL,LFFTUESZZHYTUHL,6,N,absent,nN,nN,n,1,0.47076590000006036,n,1,0.1727891999998974,RSVPLG01,0.94,2023-09-12-22:25:03,913,1,Experiment,2023-09-12_15h37.41.403,
5,local,global,3,8,5,101,4,,,107,exp,NHZNTLTUXZHFYYE,ZTZHNSTUYEUEYFN,6,S,X,sS,yY,s,1,0.5009209999998347,y,1,0.3221447000000808,RSVPLG01,0.94,2023-09-12-22:25:03,913,1,Experiment,2023-09-12_15h37.41.403,
2,local,local,3,8,6,102,1,,,108,exp,SNESFHTNEZFZLUT,SFUZUYSEXNNELLF,6,Y,X,yY,yY,y,1,0.9430089000002226,y,1,0.30598409999993237,RSVPLG01,0.94,2023-09-12-22:25:03,913,1,Experiment,2023-09-12_15h37.41.403,
10,global,global,0,8,7,103,9,,,109,exp,FTTYNFZLSUNLZSE,FSFHZZTELENTLNU,4,Y,absent,yY,nN,y,1,0.7725439000000733,n,1,0.5554708999998184,RSVPLG01,0.94,2023-09-12-22:25:03,913,1,Experiment,2023-09-12_15h37.41.403,
1,local,local,0,8,8,104,0,,,110,exp,ZSSYNUZFUETEYFT,EFZTHLFUSLYTZUY,5,H,absent,hH,nN,n,0,0.46784000000025117,y,0,0.5206587999996373,RSVPLG01,0.94,2023-09-12-22:25:03,913,1,Experiment,2023-09-12_15h37.41.403,
3,local,local,7,8,9,105,2,,,111,exp,LHLUTETFFYSSYZU,HSSUZNFUYTHLXYF,6,N,X,nN,yY,n,1,0.4014259000000493,y,1,0.35354499999994005,RSVPLG01,0.94,2023-09-12-22:25:03,913,1,Experiment,2023-09-12_15h37.41.403,
8,global,local,3,8,10,106,7,,,112,exp,HUZSZYTTUFNHFNE,FTYLETXZEUUHFNH,4,S,X,sS,yY,z,0,1.319844699999976,y,1,0.5848974999998973,RSVPLG01,0.94,2023-09-12-22:25:03,913,1,Experiment,2023-09-12_15h37.41.403,
5,local,global,3,8,11,107,4,,,113,exp,TYSSFHEXUNHYELL,TTUHZLENSNYSEUY,5,Z,X,zZ,yY,z,1,0.45884750000004715,y,1,0.28296910000017306,RSVPLG01,0.94,2023-09-12-22:25:03,913,1,Experiment,2023-09-12_15h37.41.403,
9,global,local,7,9,0,108,8,,,114,exp,NUNSLFYZUSYLEEH,SNZELTEUSYNUXZY,6,F,X,fF,yY,e,0,0.5822173000001385,n,0,0.23439120000011826,RSVPLG01,0.94,2023-09-12-22:25:03,913,1,Experiment,2023-09-12_15h37.41.403,
12,global,global,7,9,1,109,11,,,115,exp,ZESULHUHYNTXZEY,SZHUFTYSTZNEHUE,5,L,X,lL,yY,l,1,0.5745334000002913,y,1,0.1618122999998377,RSVPLG01,0.94,2023-09-12-22:25:03,913,1,Experiment,2023-09-12_15h37.41.403,
2,local,local,3,9,2,110,1,,,116,exp,THUNTLSYUEEYHFN,SHFTNZNYXTSEUHE,6,Z,X,zZ,yY,n,0,0.4393337999999858,y,1,0.2752944999997453,RSVPLG01,0.94,2023-09-12-22:25:03,913,1,Experiment,2023-09-12_15h37.41.403,
1,local,local,0,9,3,111,0,,,117,exp,ZYFFTUTNZESSHNY,YSEHFLTHNSNFZYE,6,L,absent,lL,nN,l,1,0.6456130999999914,n,1,0.2537232999998196,RSVPLG01,0.94,2023-09-12-22:25:03,913,1,Experiment,2023-09-12_15h37.41.403,
2,local,local,3,9,4,112,1,,,118,exp,UHYLHSEYUTZTZEN,ZHEFEUXHSUNYSNT,4,F,X,fF,yY,f,1,0.49468419999993785,y,1,0.369472400000177,RSVPLG01,0.94,2023-09-12-22:25:03,913,1,Experiment,2023-09-12_15h37.41.403,
8,global,local,3,9,5,113,7,,,119,exp,FHTZUNNEELUFYYT,FEYSHTXULYNLUEN,4,Z,X,zZ,yY,z,1,0.4400180000002365,y,1,0.9957223999999769,RSVPLG01,0.94,2023-09-12-22:25:03,913,1,Experiment,2023-09-12_15h37.41.403,
3,local,local,7,9,6,114,2,,,120,exp,FZENYLTZFLUSSTN,SULZHESTFUFXZEN,5,H,X,hH,yY,h,1,0.45004599999992934,y,1,0.7536468000002969,RSVPLG01,0.94,2023-09-12-22:25:03,913,1,Experiment,2023-09-12_15h37.41.403,
4,local,global,0,9,7,115,3,,,121,exp,EHLNEFNYZZUSLHY,SEEUHTNLZZUYHSN,6,T,absent,tT,nN,n,0,1.0361117000002196,y,0,0.17419539999991684,RSVPLG01,0.94,2023-09-12-22:25:03,913,1,Experiment,2023-09-12_15h37.41.403,
4,local,global,0,9,8,116,3,,,122,exp,HHLFYENETNLZSZT,SZSUTLHYNHEEYNL,4,U,absent,uU,nN,u,1,0.9730054000001473,y,0,0.04932359999975233,RSVPLG01,0.94,2023-09-12-22:25:03,913,1,Experiment,2023-09-12_15h37.41.403,
4,local,global,0,9,9,117,3,,,123,exp,TTYESHHNZFEYUZF,EFTELYUZYHNTUZH,5,L,absent,lL,nN,l,1,0.9270464999999604,y,0,0.353255199999694,RSVPLG01,0.94,2023-09-12-22:25:03,913,1,Experiment,2023-09-12_15h37.41.403,
9,global,local,7,9,10,118,8,,,124,exp,YTHUYFFTHNZSEEN,ETYLFNSHTYXEFNH,4,U,X,uU,yY,u,1,0.944041499999912,y,1,0.7688127000001259,RSVPLG01,0.94,2023-09-12-22:25:03,913,1,Experiment,2023-09-12_15h37.41.403,
4,local,global,0,9,11,119,3,,,125,exp,NFZUULYYTESTEZN,UTSFTHYZFSEZNEU,6,H,absent,hH,nN,h,1,1.0100553000002037,n,1,0.49772699999994074,RSVPLG01,0.94,2023-09-12-22:25:03,913,1,Experiment,2023-09-12_15h37.41.403,
5,local,global,3,10,0,120,4,,,126,exp,TSNELTXSNULZHZF,HTZYFNLHSLUUSTF,4,Y,X,yY,yY,y,1,0.9330660000000535,y,1,0.05351359999986016,RSVPLG01,0.94,2023-09-12-22:25:03,913,1,Experiment,2023-09-12_15h37.41.403,
7,global,local,0,10,1,121,6,,,127,exp,ZUZLTHFFSTEUEYL,ZUULSNYLEFTSFTE,6,H,absent,hH,nN,h,1,0.9230115999998816,n,1,0.049673299999994924,RSVPLG01,0.94,2023-09-12-22:25:03,913,1,Experiment,2023-09-12_15h37.41.403,
11,global,global,3,10,2,122,10,,,128,exp,FLLSHNXTTZHENYY,ZEFUNHYLEYNTTLH,4,S,X,sS,yY,s,1,1.1289752000002409,n,0,0.3123768000000382,RSVPLG01,0.94,2023-09-12-22:25:03,913,1,Experiment,2023-09-12_15h37.41.403,
5,local,global,3,10,3,123,4,,,129,exp,SUEFHTFXLNSTLYU,FNETZTLNYYFUULE,5,Z,X,zZ,yY,z,1,0.40574430000015127,y,1,0.3083873999999014,RSVPLG01,0.94,2023-09-12-22:25:03,913,1,Experiment,2023-09-12_15h37.41.403,
12,global,global,7,10,4,124,11,,,130,exp,YFTLYUZHNSXZNFU,ZUSEFNYHHNZTFYS,4,L,X,lL,yY,l,1,0.3845688000001246,y,1,0.14423459999989063,RSVPLG01,0.94,2023-09-12-22:25:03,913,1,Experiment,2023-09-12_15h37.41.403,
7,global,local,0,10,5,125,6,,,131,exp,TENLFYLFZSEUZUN,SNTZZHTLEFUNFSL,6,Y,absent,yY,nN,y,1,0.7642349000002469,n,1,0.2503100999997514,RSVPLG01,0.94,2023-09-12-22:25:03,913,1,Experiment,2023-09-12_15h37.41.403,
11,global,global,3,10,6,126,10,,,132,exp,UNYTZSLZXFELNUT,NTYZYHFUTFZLLNE,6,S,X,sS,yY,t,0,2.056861399999889,y,1,0.018847899999855144,RSVPLG01,0.94,2023-09-12-22:25:03,913,1,Experiment,2023-09-12_15h37.41.403,
9,global,local,7,10,7,127,8,,,133,exp,LFNHTYEFZUZEUHL,YLZFSEUELNFXNUH,5,T,X,tT,yY,t,1,0.4225779000003058,n,0,0.23674649999975372,RSVPLG01,0.94,2023-09-12-22:25:03,913,1,Experiment,2023-09-12_15h37.41.403,
11,global,global,3,10,8,128,10,,,134,exp,TLHFEUFEXNSSLNY,HNSYFZYEHTSLFLN,6,U,X,uU,yY,u,1,0.4576320000001033,y,1,0.03422229999978299,RSVPLG01,0.94,2023-09-12-22:25:03,913,1,Experiment,2023-09-12_15h37.41.403,
5,local,global,3,10,9,129,4,,,135,exp,LLSUTZEXNZEHSYU,UNZUFZNHYLSESEY,5,F,X,fF,yY,f,1,0.9835815999999795,y,1,0.10720119999996314,RSVPLG01,0.94,2023-09-12-22:25:03,913,1,Experiment,2023-09-12_15h37.41.403,
6,local,global,7,10,10,130,5,,,136,exp,ZNFSYTNSHHLXEFT,TNZEUFSZNHETFLS,5,U,X,uU,yY,u,1,0.8122244000001047,y,1,0.12333250000028784,RSVPLG01,0.94,2023-09-12-22:25:03,913,1,Experiment,2023-09-12_15h37.41.403,
2,local,local,3,10,11,131,1,,,137,exp,UEEZNTHLLSFSNHU,FUUYTHXNHTNFLES,4,Y,X,yY,yY,z,0,2.038927700000386,y,1,0.6256376999999702,RSVPLG01,0.94,2023-09-12-22:25:03,913,1,Experiment,2023-09-12_15h37.41.403,
1,local,local,0,11,0,132,0,,,138,exp,LSNZHESYNZFHLUU,ZNLYLTUUFZYSHFN,6,T,absent,tT,nN,t,1,0.4328252000000248,y,0,0.3067971000000398,RSVPLG01,0.94,2023-09-12-22:25:03,913,1,Experiment,2023-09-12_15h37.41.403,
9,global,local,7,11,1,133,8,,,139,exp,LUEZHFTYHUYENLN,ENLSFHTNYUXUTLH,4,Z,X,zZ,yY,z,1,0.3834507000001395,y,1,0.2937709000002542,RSVPLG01,0.94,2023-09-12-22:25:03,913,1,Experiment,2023-09-12_15h37.41.403,
11,global,global,3,11,2,134,10,,,140,exp,SYZUTHXTNHFLNFS,THYEZLFYSZHTSNF,4,U,X,uU,yY,u,1,0.813669199999822,n,0,0.3065172999999959,RSVPLG01,0.94,2023-09-12-22:25:03,913,1,Experiment,2023-09-12_15h37.41.403,
7,global,local,0,11,3,135,6,,,141,exp,EHLNYFTHZNLZYEU,ZHYLNSLUNETEHUZ,6,F,absent,fF,nN,f,1,0.5595616999999038,y,0,0.5934604999997646,RSVPLG01,0.94,2023-09-12-22:25:03,913,1,Experiment,2023-09-12_15h37.41.403,
5,local,global,3,11,4,136,4,,,142,exp,NHELEYFZXHSSTNL,EEHLSULNHFTSZZN,6,U,X,uU,yY,y,0,0.6920661999997719,n,0,0.2096787000000404,RSVPLG01,0.94,2023-09-12-22:25:03,913,1,Experiment,2023-09-12_15h37.41.403,
2,local,local,3,11,5,137,1,,,143,exp,UZSHSNYZLELETYT,ZYHHLFTTXZYELSS,6,F,X,fF,yY,f,1,0.47291020000011486,y,1,0.3066326000002846,RSVPLG01,0.94,2023-09-12-22:25:03,913,1,Experiment,2023-09-12_15h37.41.403,
7,global,local,0,11,6,138,6,,,144,exp,HUZLTYSLFZSHFTU,LNTHSEUNZFTLHZF,6,Y,absent,yY,nN,y,1,0.7929804999998851,n,1,0.3221429000000171,RSVPLG01,0.94,2023-09-12-22:25:03,913,1,Experiment,2023-09-12_15h37.41.403,
4,local,global,0,11,7,139,3,,,145,exp,HESULYUZZSNHYNE,EZYSFSZUEHNNTUH,5,F,absent,fF,nN,l,0,0.49979609999991226,y,0,0.25021949999973003,RSVPLG01,0.94,2023-09-12-22:25:03,913,1,Experiment,2023-09-12_15h37.41.403,
2,local,local,3,11,8,140,1,,,146,exp,TESSYZFNUEHYHUN,TSFYNLHEXEUFSTY,6,L,X,lL,yY,z,0,0.3489403999997194,y,1,0.21760019999965152,RSVPLG01,0.94,2023-09-12-22:25:03,913,1,Experiment,2023-09-12_15h37.41.403,
8,global,local,3,11,9,141,7,,,147,exp,FHUSLUEYYNNHTSF,NUUSZETXYYHNFFT,5,L,X,lL,yY,l,1,0.46826659999987896,n,0,0.2723518000002514,RSVPLG01,0.94,2023-09-12-22:25:03,913,1,Experiment,2023-09-12_15h37.41.403,
7,global,local,0,11,10,142,6,,,148,exp,TLNSUYTYFFUHHZL,UYHENNZTLFUYFLZ,4,S,absent,sS,nN,s,1,0.5205735999998069,y,0,0.21771190000026763,RSVPLG01,0.94,2023-09-12-22:25:03,913,1,Experiment,2023-09-12_15h37.41.403,
8,global,local,3,11,11,143,7,,,149,exp,SLFTYZHEFYSHUEZ,FESNHUXSZYLEHUF,4,T,X,tT,yY,t,1,0.36264770000025237,y,1,0.15180969999983063,RSVPLG01,0.94,2023-09-12-22:25:03,913,1,Experiment,2023-09-12_15h37.41.403,
6,local,global,7,12,0,144,5,,,150,exp,HUYYHLNTENSTXEZ,STUYHFZNHYSZUET,6,F,X,fF,yY,f,1,0.6396647000001394,y,1,0.1943169000001035,RSVPLG01,0.94,2023-09-12-22:25:03,913,1,Experiment,2023-09-12_15h37.41.403,
7,global,local,0,12,1,145,6,,,151,exp,NHLLYZNHEZTUTFE,HUFTSFULNLTEZZH,5,Y,absent,yY,nN,y,1,0.6407015999998293,n,1,0.19254769999997734,RSVPLG01,0.94,2023-09-12-22:25:03,913,1,Experiment,2023-09-12_15h37.41.403,
4,local,global,0,12,2,146,3,,,152,exp,UFSYEZHTUTZHSNF,ZTFLHNUFNEZSTUS,4,L,absent,lL,nN,t,0,0.5595694999997249,n,1,0.474529099999927,RSVPLG01,0.94,2023-09-12-22:25:03,913,1,Experiment,2023-09-12_15h37.41.403,
5,local,global,3,12,3,147,4,,,153,exp,TLSUFNXYTFLSEHH,EFTZHSFEYNHTYSL,4,Z,X,zZ,yY,n,0,0.5475283000000672,n,0,0.226485700000012,RSVPLG01,0.94,2023-09-12-22:25:03,913,1,Experiment,2023-09-12_15h37.41.403,
6,local,global,7,12,4,148,5,,,154,exp,LNTTSFLUYYHXEUH,YEYLZFTHUNUHFTE,5,Z,X,zZ,yY,z,1,0.4539458999997805,y,1,0.20375109999986307,RSVPLG01,0.94,2023-09-12-22:25:03,913,1,Experiment,2023-09-12_15h37.41.403,
10,global,global,0,12,5,149,9,,,155,exp,ZTFNLHYHUFEUNET,EYUHSUFZFNNTZYH,5,L,absent,lL,nN,l,1,0.3788558000001103,n,1,0.36119860000007975,RSVPLG01,0.94,2023-09-12-22:25:03,913,1,Experiment,2023-09-12_15h37.41.403,
12,global,global,7,12,6,150,11,,,156,exp,TUFSNUFLEEXLHYT,FLHZYETFYLUETUN,4,S,X,sS,yY,s,1,0.4322999000000891,y,1,0.16208440000036717,RSVPLG01,0.94,2023-09-12-22:25:03,913,1,Experiment,2023-09-12_15h37.41.403,
6,local,global,7,12,7,151,5,,,157,exp,SYUUTYFSLLEXZFZ,SZLYHEFENFYSZUU,5,H,X,hH,yY,h,1,0.44910669999990205,y,1,0.19359839999970063,RSVPLG01,0.94,2023-09-12-22:25:03,913,1,Experiment,2023-09-12_15h37.41.403,
3,local,local,7,12,8,152,2,,,158,exp,FULZNYYLSEEFHSZ,FHUZTEEZSULXLYY,5,T,X,tT,yY,n,0,2.238423000000239,y,1,0.08162670000001526,RSVPLG01,0.94,2023-09-12-22:25:03,913,1,Experiment,2023-09-12_15h37.41.403,
2,local,local,3,12,9,153,1,,,159,exp,ETLYSLZNFESFNUU,TFEHNNXTLZEUSUF,4,H,X,hH,yY,h,1,0.8229274999998779,y,1,0.22537229999988995,RSVPLG01,0.94,2023-09-12-22:25:03,913,1,Experiment,2023-09-12_15h37.41.403,
9,global,local,7,12,10,154,8,,,160,exp,HHSUNTSFNFYELET,HSNZFFLHTLXYENS,4,U,X,uU,yY,u,1,0.8376693000000159,y,1,0.13751400000001013,RSVPLG01,0.94,2023-09-12-22:25:03,913,1,Experiment,2023-09-12_15h37.41.403,
1,local,local,0,12,11,155,0,,,161,exp,NLZSUNEYSLEFZFH,NESLTFHYEZNHFZY,5,T,absent,tT,nN,t,1,0.4279919999999038,y,0,0.14339749999999185,RSVPLG01,0.94,2023-09-12-22:25:03,913,1,Experiment,2023-09-12_15h37.41.403,
8,global,local,3,13,0,156,7,,,162,exp,LHEULHEYSSZYNNF,LEETNYXLHYSZFFZ,4,U,X,uU,yY,u,1,0.4682596000002377,n,0,0.23124090000010256,RSVPLG01,0.94,2023-09-12-22:25:03,913,1,Experiment,2023-09-12_15h37.41.403,
1,local,local,0,13,1,157,0,,,163,exp,ENYZNUTLLSEFFST,ELSHETYSLFNUNYU,4,H,absent,hH,nN,h,1,0.9952871000000414,y,0,0.057253099999797996,RSVPLG01,0.94,2023-09-12-22:25:03,913,1,Experiment,2023-09-12_15h37.41.403,
3,local,local,7,13,2,158,2,,,164,exp,UNZNLEZSTTHHFSU,SNZHYESFEFZXTTH,5,Y,X,yY,yY,y,1,0.9084588000000622,y,1,0.06525949999968361,RSVPLG01,0.94,2023-09-12-22:25:03,913,1,Experiment,2023-09-12_15h37.41.403,
10,global,global,0,13,3,159,9,,,165,exp,NZUFYHZHSLNTLSF,ZUTUEZLSNHLTHSN,5,Y,absent,yY,nN,y,1,0.5690191999997296,n,1,0.10821519999990414,RSVPLG01,0.94,2023-09-12-22:25:03,913,1,Experiment,2023-09-12_15h37.41.403,
1,local,local,0,13,4,160,0,,,166,exp,FHNLZFHSELUNESY,HUHFTLSYSLENFEN,5,T,absent,tT,nN,t,1,0.3611463000002004,y,0,0.22172890000001644,RSVPLG01,0.94,2023-09-12-22:25:03,913,1,Experiment,2023-09-12_15h37.41.403,
6,local,global,7,13,5,161,5,,,167,exp,FSUENLTTHHXZLSN,FSUYNZHTTSNLZHU,4,Y,X,yY,yY,y,1,0.866128099999969,y,1,0.08398699999997916,RSVPLG01,0.94,2023-09-12-22:25:03,913,1,Experiment,2023-09-12_15h37.41.403,
6,local,global,7,13,6,162,5,,,168,exp,HYZTLYFUUZXEEFN,ZZNSEYULULHHYFN,4,S,X,sS,yY,s,1,0.7026228999998239,y,1,0.17540310000003956,RSVPLG01,0.94,2023-09-12-22:25:03,913,1,Experiment,2023-09-12_15h37.41.403,
4,local,global,0,13,7,163,3,,,169,exp,TTULNEYESHUYZHS,NYEFSZUHNTYZTEH,4,F,absent,fF,nN,f,1,0.43777529999988474,y,0,0.815306899999996,RSVPLG01,0.94,2023-09-12-22:25:03,913,1,Experiment,2023-09-12_15h37.41.403,
1,local,local,0,13,8,164,0,,,170,exp,FUYZUNFTSZTELSE,SSEUTHFLTYLFYEZ,6,H,absent,hH,nN,h,1,1.2979550999998537,n,1,0.11891800000012154,RSVPLG01,0.94,2023-09-12-22:25:03,913,1,Experiment,2023-09-12_15h37.41.403,
9,global,local,7,13,9,165,8,,,171,exp,NTSYZLFHUSNYUFL,TYLTELFSUHYXUSN,5,Z,X,zZ,yY,z,1,0.3545690000000832,y,1,0.2506646000001638,RSVPLG01,0.94,2023-09-12-22:25:03,913,1,Experiment,2023-09-12_15h37.41.403,
8,global,local,3,13,10,166,7,,,172,exp,NNULHYEZUFZFSLH,FNNELTSSXEZUFHZ,6,Y,X,yY,yY,y,1,0.8160499000000527,y,1,0.20788930000026085,RSVPLG01,0.94,2023-09-12-22:25:03,913,1,Experiment,2023-09-12_15h37.41.403,
5,local,global,3,13,11,167,4,,,173,exp,EZFTLHXEFLUSUHN,EULYZNUSFZHNLSE,4,Y,X,yY,yY,y,1,0.9994070000002466,y,1,0.3264451000000008,RSVPLG01,0.94,2023-09-12-22:25:03,913,1,Experiment,2023-09-12_15h37.41.403,
3,local,local,7,14,0,168,2,,,174,exp,UESHNYTFZUFHTSE,HUEHLFTTUYEXZSF,5,L,X,lL,yY,l,1,0.6030596999999034,y,1,0.2701567999997678,RSVPLG01,0.94,2023-09-12-22:25:03,913,1,Experiment,2023-09-12_15h37.41.403,
6,local,global,7,14,1,169,5,,,175,exp,SFZHSTNYLELNXZF,NZEFEUNSHZYHFLS,6,U,X,uU,yY,u,1,0.9858859000000848,y,1,0.3105462000003172,RSVPLG01,0.94,2023-09-12-22:25:03,913,1,Experiment,2023-09-12_15h37.41.403,
1,local,local,0,14,2,170,0,,,176,exp,LHSZETFNHNFSEUU,FFHYNUETLNTSHSL,4,Y,absent,yY,nN,y,1,0.5210024000002704,n,1,0.6881234000002223,RSVPLG01,0.94,2023-09-12-22:25:03,913,1,Experiment,2023-09-12_15h37.41.403,
8,global,local,3,14,3,171,7,,,177,exp,ZYUNTSHEFUZFHYE,ZUFLTZXYSHTUESY,4,N,X,nN,yY,n,1,0.44417120000025534,y,1,0.6981756999998652,RSVPLG01,0.94,2023-09-12-22:25:03,913,1,Experiment,2023-09-12_15h37.41.403,
6,local,global,7,14,4,172,5,,,178,exp,YFLEZSUSHYXNLFU,HZNTSSUHFZUYLYN,4,T,X,tT,yY,t,1,0.3200606999998854,y,1,0.45010439999987284,RSVPLG01,0.94,2023-09-12-22:25:03,913,1,Experiment,2023-09-12_15h37.41.403,
11,global,global,3,14,5,173,10,,,179,exp,SUFLNZTXELEYTSZ,SZTFHSFEUZULLYY,5,N,X,nN,yY,n,1,0.6558029000002534,y,1,0.6576067999999395,RSVPLG01,0.94,2023-09-12-22:25:03,913,1,Experiment,2023-09-12_15h37.41.403,
12,global,global,7,14,6,174,11,,,180,exp,THZUNYHSZFTXSYE,ZFTSLTEZUYSEHUY,5,N,X,nN,yY,n,1,0.5245755000000827,y,1,0.624000100000103,RSVPLG01,0.94,2023-09-12-22:25:03,913,1,Experiment,2023-09-12_15h37.41.403,
6,local,global,7,14,7,175,5,,,181,exp,HEZHTFNUZEYXFUY,HNFNSEUYULYLHZF,5,S,X,sS,yY,s,1,0.7609471000000667,y,1,1.3144366000001355,RSVPLG01,0.94,2023-09-12-22:25:03,913,1,Experiment,2023-09-12_15h37.41.403,
3,local,local,7,14,8,176,2,,,182,exp,UNHZUSHLENFTETF,ENULFYTHFZHTXNE,6,Y,X,yY,yY,y,1,0.7322454000000107,y,1,0.21166790000006586,RSVPLG01,0.94,2023-09-12-22:25:03,913,1,Experiment,2023-09-12_15h37.41.403,
6,local,global,7,14,9,177,5,,,183,exp,YYFHNZHELSZXUFE,EEFHTZYSUZLFHYS,5,T,X,tT,yY,n,0,1.1080245999996805,y,1,0.834704899999906,RSVPLG01,0.94,2023-09-12-22:25:03,913,1,Experiment,2023-09-12_15h37.41.403,
10,global,global,0,14,10,178,9,,,184,exp,UHEZSYZEFHUTFLT,SSFLZNLFHUTEUEZ,6,Y,absent,yY,nN,y,1,0.9298914999999397,n,1,0.5699168999999529,RSVPLG01,0.94,2023-09-12-22:25:03,913,1,Experiment,2023-09-12_15h37.41.403,
2,local,local,3,14,11,179,1,,,185,exp,SYYLUTSZZHFFNHT,NSZTENTXHZHLLYY,5,E,X,eE,yY,e,1,0.4069409999997333,y,1,0.36983379999992394,RSVPLG01,0.94,2023-09-12-22:25:03,913,1,Experiment,2023-09-12_15h37.41.403,
8,global,local,3,15,0,180,7,,,186,exp,STEZTFYHNNHYFUS,EFELFNXYUHUYTHS,4,Z,X,zZ,yY,z,1,0.4041127000000415,y,1,0.4340243999999984,RSVPLG01,0.94,2023-09-12-22:25:03,913,1,Experiment,2023-09-12_15h37.41.403,
12,global,global,7,15,1,181,11,,,187,exp,HTFHNYEFUULXSSY,HUFTZSSFUEHTELY,5,N,X,nN,yY,n,1,0.44724300000007133,y,1,0.1798236999998153,RSVPLG01,0.94,2023-09-12-22:25:03,913,1,Experiment,2023-09-12_15h37.41.403,
8,global,local,3,15,2,182,7,,,188,exp,HSUZLSFNUYYTNTH,TYFFEHZXNUNZUTY,5,L,X,lL,yY,l,1,0.4216292000000976,y,1,0.31477040000027046,RSVPLG01,0.94,2023-09-12-22:25:03,913,1,Experiment,2023-09-12_15h37.41.403,
8,global,local,3,15,3,183,7,,,189,exp,UFYFEUSLHZLYZTH,FUSUNYTXHFZLTLZ,5,E,X,eE,yY,e,1,0.4348488000000543,y,1,0.4169654000002083,RSVPLG01,0.94,2023-09-12-22:25:03,913,1,Experiment,2023-09-12_15h37.41.403,
7,global,local,0,15,4,184,6,,,190,exp,NZTFEULYFETHNYL,NFTNLSFELZHZHYY,6,U,absent,uU,nN,u,1,0.598209400000087,y,0,0.20259310000028563,RSVPLG01,0.94,2023-09-12-22:25:03,913,1,Experiment,2023-09-12_15h37.41.403,
10,global,global,0,15,5,185,9,,,191,exp,THYSZYFTSUNNFEE,NYSNLUFFUTTYHSH,5,Z,absent,zZ,nN,z,1,0.47658129999990706,n,1,0.33770730000014737,RSVPLG01,0.94,2023-09-12-22:25:03,913,1,Experiment,2023-09-12_15h37.41.403,
5,local,global,3,15,6,186,4,,,192,exp,EHZNUNSXLLTSZFT,HLTEYFSTZEZFHLN,5,Y,X,yY,yY,y,1,0.7590822000001936,n,0,0.32306210000024294,RSVPLG01,0.94,2023-09-12-22:25:03,913,1,Experiment,2023-09-12_15h37.41.403,
4,local,global,0,15,7,187,3,,,193,exp,LEZSTNSLYEHFFHZ,ZLEHUFYYNSSNHEZ,5,U,absent,uU,nN,u,1,0.6072950999996465,n,1,0.24971000000005006,RSVPLG01,0.94,2023-09-12-22:25:03,913,1,Experiment,2023-09-12_15h37.41.403,
10,global,global,0,15,8,188,9,,,194,exp,TSZFUYZSEETFLNU,ZNTLEHETZLSSUFF,6,Y,absent,yY,nN,y,1,0.4955019000003631,n,1,0.38544369999999617,RSVPLG01,0.94,2023-09-12-22:25:03,913,1,Experiment,2023-09-12_15h37.41.403,
9,global,local,7,15,9,189,8,,,195,exp,EFLYZELNSTTSYUN,UYUEHYSFTEFXSTN,5,Z,X,zZ,yY,z,1,0.3757528999999522,y,1,0.22865790000014385,RSVPLG01,0.94,2023-09-12-22:25:03,913,1,Experiment,2023-09-12_15h37.41.403,
12,global,global,7,15,10,190,11,,,196,exp,SLTHNFHEENSUXLY,NTSHYZUYLLETSEU,6,F,X,fF,yY,f,1,0.5165524999997615,y,1,0.22756059999983336,RSVPLG01,0.94,2023-09-12-22:25:03,913,1,Experiment,2023-09-12_15h37.41.403,
8,global,local,3,15,11,191,7,,,197,exp,SYUZENHNHULSEFF,YFNTNEXYUULFSLH,4,Z,X,zZ,yY,z,1,0.3296243999998296,y,1,0.27557560000013837,RSVPLG01,0.94,2023-09-12-22:25:03,913,1,Experiment,2023-09-12_15h37.41.403,
12,global,global,7,16,0,192,11,,,198,exp,HSFZEUSYNFXELUL,YULTLSFUFHHNEYS,4,Z,X,zZ,yY,z,1,0.3327017999999953,y,1,0.27541459999974904,RSVPLG01,0.94,2023-09-12-22:25:03,913,1,Experiment,2023-09-12_15h37.41.403,
1,local,local,0,16,1,193,0,,,199,exp,ZHYYUFLHZLNSESE,ZULNETSSEHZUHYY,6,T,absent,tT,nN,f,0,0.6429316000003382,n,1,0.3852417000002788,RSVPLG01,0.94,2023-09-12-22:25:03,913,1,Experiment,2023-09-12_15h37.41.403,
12,global,global,7,16,2,194,11,,,200,exp,NYFLESUFULTYXEN,ETYFUZTHENNYLHU,6,S,X,sS,yY,s,1,0.3812156999997569,y,1,0.09907639999983076,RSVPLG01,0.94,2023-09-12-22:25:03,913,1,Experiment,2023-09-12_15h37.41.403,
6,local,global,7,16,3,195,5,,,201,exp,NUTLNYFTSLZSXUH,STHFUEZLFLNTUHN,6,E,X,eE,yY,e,1,0.38507160000017393,y,1,0.2608671999996659,RSVPLG01,0.94,2023-09-12-22:25:03,913,1,Experiment,2023-09-12_15h37.41.403,
2,local,local,3,16,4,196,1,,,202,exp,YZZNSFYTHEHETFS,HEHUEZXTYLFYSTF,4,U,X,uU,yY,u,1,0.3908561000002919,y,1,0.330795500000022,RSVPLG01,0.94,2023-09-12-22:25:03,913,1,Experiment,2023-09-12_15h37.41.403,
12,global,global,7,16,5,197,11,,,203,exp,ZSYLNFTHSZYXHFT,SUYZETFSTLHFLYU,5,N,X,nN,yY,n,1,0.9176048999997874,y,1,0.30773279999993974,RSVPLG01,0.94,2023-09-12-22:25:03,913,1,Experiment,2023-09-12_15h37.41.403,
1,local,local,0,16,6,198,0,,,204,exp,FEEFLSHUTYZUTZY,ZTTSNYZYEFHEHSU,5,N,absent,nN,nN,l,0,0.49996729999975287,y,0,0.09659410000040225,RSVPLG01,0.94,2023-09-12-22:25:03,913,1,Experiment,2023-09-12_15h37.41.403,
10,global,global,0,16,7,199,9,,,205,exp,HFTESZUNUFTNSEH,HNYFTLEYFSEUSNT,6,Z,absent,zZ,nN,z,1,0.3995969000002333,n,1,0.7375569000000723,RSVPLG01,0.94,2023-09-12-22:25:03,913,1,Experiment,2023-09-12_15h37.41.403,
2,local,local,3,16,8,200,1,,,206,exp,ZLLYZUTHSSTUEHE,ZUTFTNXUHESHLZS,4,F,X,fF,yY,t,0,1.366136600000118,n,0,0.37019329999975525,RSVPLG01,0.94,2023-09-12-22:25:03,913,1,Experiment,2023-09-12_15h37.41.403,
12,global,global,7,16,9,201,11,,,207,exp,HTENLYUFSNHXFYU,NUENZETUTYSHYFH,5,L,X,lL,yY,l,1,0.5884424000000763,y,1,0.20280199999979232,RSVPLG01,0.94,2023-09-12-22:25:03,913,1,Experiment,2023-09-12_15h37.41.403,
1,local,local,0,16,10,202,0,,,208,exp,FZHEUUYTYTNFHNS,HFTLUSYTNUYZHZS,4,L,absent,lL,nN,l,1,0.4826023999999052,y,0,0.2428845999997975,RSVPLG01,0.94,2023-09-12-22:25:03,913,1,Experiment,2023-09-12_15h37.41.403,
4,local,global,0,16,11,203,3,,,209,exp,SFLTUYHHYFEZSZU,FYSNZHSLLFUEHUZ,4,N,absent,nN,nN,s,0,0.3775948000002245,y,0,0.17804369999976188,RSVPLG01,0.94,2023-09-12-22:25:03,913,1,Experiment,2023-09-12_15h37.41.403,
12,global,global,7,17,0,204,11,,,210,exp,HZFLHEZUNTXUESS,UTZYSESZTNEFFHN,4,L,X,lL,yY,l,1,0.46594069999991916,y,1,0.600881599999866,RSVPLG01,0.94,2023-09-12-22:25:03,913,1,Experiment,2023-09-12_15h37.41.403,
9,global,local,7,17,1,205,8,,,211,exp,FNUSYZFULLEYNHE,FYUTNELZFHXZULH,4,S,X,sS,yY,y,0,0.7433264999999665,y,1,0.07437849999996615,RSVPLG01,0.94,2023-09-12-22:25:03,913,1,Experiment,2023-09-12_15h37.41.403,
5,local,global,3,17,2,206,4,,,212,exp,ZSULEUFXTLYNFZS,UZTYHLSFNFUYLNZ,5,H,X,hH,yY,h,1,0.8910728000000745,n,0,0.24948670000003403,RSVPLG01,0.94,2023-09-12-22:25:03,913,1,Experiment,2023-09-12_15h37.41.403,
11,global,global,3,17,3,207,10,,,213,exp,FLYZEUXSTEHFSTY,SFLNSUHHFTLUYEY,4,Z,X,zZ,yY,z,1,0.416691400000218,y,1,0.6362758000000213,RSVPLG01,0.94,2023-09-12-22:25:03,913,1,Experiment,2023-09-12_15h37.41.403,
6,local,global,7,17,4,208,5,,,214,exp,YELHZSFSENXNFLT,NFSULZTZETYNSFE,4,U,X,uU,yY,u,1,0.8165299999996023,y,1,0.25332109999999375,RSVPLG01,0.94,2023-09-12-22:25:03,913,1,Experiment,2023-09-12_15h37.41.403,
1,local,local,0,17,5,209,0,,,215,exp,YLUZUHSFTLFTYSH,TFLEUNUYNHYHLSF,4,E,absent,eE,nN,e,1,0.40350779999971564,y,0,0.2752878999999666,RSVPLG01,0.94,2023-09-12-22:25:03,913,1,Experiment,2023-09-12_15h37.41.403,
7,global,local,0,17,6,210,6,,,216,exp,HNSFTUUEZSLELNH,UELFYZNHSZLFNEU,5,T,absent,tT,nN,t,1,0.33725360000016735,n,1,0.16515849999996135,RSVPLG01,0.94,2023-09-12-22:25:03,913,1,Experiment,2023-09-12_15h37.41.403,
7,global,local,0,17,7,211,6,,,217,exp,TZZFLYUNHUTLEHF,ULTLZSNFEHZUNTH,6,Y,absent,yY,nN,y,1,0.7687003999999433,n,1,0.43788590000031036,RSVPLG01,0.94,2023-09-12-22:25:03,913,1,Experiment,2023-09-12_15h37.41.403,
11,global,global,3,17,8,212,10,,,218,exp,FLUHESLXFZZSUTN,NLTZYZSHUSHFFTL,5,E,X,eE,yY,e,1,0.31290919999992184,y,1,0.20084099999985483,RSVPLG01,0.94,2023-09-12-22:25:03,913,1,Experiment,2023-09-12_15h37.41.403,
2,local,local,3,17,9,213,1,,,219,exp,UZFLHZFYELSUSYN,LSFLTFSXENZZUNE,5,T,X,tT,yY,t,1,0.33209720000013476,y,1,0.06078690000003917,RSVPLG01,0.94,2023-09-12-22:25:03,913,1,Experiment,2023-09-12_15h37.41.403,
8,global,local,3,17,10,214,7,,,220,exp,HSUHZEUFNFTSNZT,FZLNHYTSXLZFSUN,6,E,X,eE,yY,h,0,0.5087577999997848,y,1,0.2997636000000057,RSVPLG01,0.94,2023-09-12-22:25:03,913,1,Experiment,2023-09-12_15h37.41.403,
2,local,local,3,17,11,215,1,,,221,exp,FYNLSETUHUYENST,EUTZHYXSYSUHEFF,4,Z,X,zZ,yY,l,0,0.3991919999998572,n,0,0.2492747999999665,RSVPLG01,0.94,2023-09-12-22:25:03,913,1,Experiment,2023-09-12_15h37.41.403,
3,local,local,7,18,0,216,2,,,222,exp,SYFZNNEYSUUHLLH,SEUTHFFYSEXLUYN,4,T,X,tT,yY,t,1,0.7584454000002552,y,1,0.042198800000278425,RSVPLG01,0.94,2023-09-12-22:25:03,913,1,Experiment,2023-09-12_15h37.41.403,
12,global,global,7,18,1,217,11,,,223,exp,ZHFSTESUEHYXNUF,SSENLZFYEHFHUNZ,5,T,X,tT,yY,t,1,0.3142551999999341,y,1,0.27245019999963915,RSVPLG01,0.94,2023-09-12-22:25:03,913,1,Experiment,2023-09-12_15h37.41.403,
11,global,global,3,18,2,218,10,,,224,exp,NYLFHYXTNUSUSET,STEZHUSNENULHYY,4,F,X,fF,yY,h,0,0.45277889999988474,n,0,0.2572416000002704,RSVPLG01,0.94,2023-09-12-22:25:03,913,1,Experiment,2023-09-12_15h37.41.403,
4,local,global,0,18,3,219,3,,,225,exp,HEFYLFYUZUNZSHE,YEEUTUZHSNFFZHY,5,T,absent,tT,nN,t,1,0.5825743999998849,n,1,0.32293669999990016,RSVPLG01,0.94,2023-09-12-22:25:03,913,1,Experiment,2023-09-12_15h37.41.403,
2,local,local,3,18,4,220,1,,,226,exp,ENFESTHZHLYLYTN,ENHTULYXTZFFZYL,5,U,X,uU,yY,u,1,0.7864469999999528,y,1,0.6419426000002204,RSVPLG01,0.94,2023-09-12-22:25:03,913,1,Experiment,2023-09-12_15h37.41.403,
12,global,global,7,18,5,221,11,,,227,exp,SYSLFEYUUFZTXTZ,YZTTFHLNZYUNUFL,6,E,X,eE,yY,e,1,0.5143066000000545,y,1,0.24183300000004238,RSVPLG01,0.94,2023-09-12-22:25:03,913,1,Experiment,2023-09-12_15h37.41.403,
6,local,global,7,18,6,222,5,,,228,exp,LUSYEUZFYFSXTTH,HUTYNFYLZSLFSTH,5,N,X,nN,yY,e,0,0.36576789999980974,y,1,0.3540800999999192,RSVPLG01,0.94,2023-09-12-22:25:03,913,1,Experiment,2023-09-12_15h37.41.403,
1,local,local,0,18,7,223,0,,,229,exp,YNNHETZLSYFZTFS,EELUSFYZFZLYTSN,4,U,absent,uU,nN,u,1,0.7258260000003247,n,1,0.2189186000000518,RSVPLG01,0.94,2023-09-12-22:25:03,913,1,Experiment,2023-09-12_15h37.41.403,
10,global,global,0,18,8,224,9,,,230,exp,YNHHEUTNZZSSTEF,HFYSYLTNNZSFHZE,6,U,absent,uU,nN,u,1,0.49481340000011187,n,1,0.28940349999993487,RSVPLG01,0.94,2023-09-12-22:25:03,913,1,Experiment,2023-09-12_15h37.41.403,
11,global,global,3,18,9,225,10,,,231,exp,SUSTEZNHXHEFYNT,SEEFYLHHTUUNYFN,6,Z,X,zZ,yY,z,1,0.42853669999976773,y,1,0.38945689999991373,RSVPLG01,0.94,2023-09-12-22:25:03,913,1,Experiment,2023-09-12_15h37.41.403,
12,global,global,7,18,10,226,11,,,232,exp,HZTNEFYTYSXEUZF,EHHLTFUFYZTZESY,4,N,X,nN,yY,n,1,0.8031811000000744,y,1,0.28559039999981906,RSVPLG01,0.94,2023-09-12-22:25:03,913,1,Experiment,2023-09-12_15h37.41.403,
9,global,local,7,18,11,227,8,,,233,exp,LTZFNUYLZHSHNYT,YNSEUSLTHTXZHYL,4,F,X,fF,yY,f,1,0.4087787000003118,y,1,0.2430845999997473,RSVPLG01,0.94,2023-09-12-22:25:03,913,1,Experiment,2023-09-12_15h37.41.403,
5,local,global,3,19,0,228,4,,,234,exp,STFFSNTYXZYLHUU,HYZFTEFYSLLHUUT,6,E,X,eE,yY,e,1,0.37695120000034876,y,1,0.31302880000021105,RSVPLG01,0.94,2023-09-12-22:25:03,913,1,Experiment,2023-09-12_15h37.41.403,
5,local,global,3,19,1,229,4,,,235,exp,SELFNUXTNSHELYT,ULEZHELNNHSTYUY,4,Z,X,zZ,yY,z,1,0.5120402999996259,n,0,0.4074845000000096,RSVPLG01,0.94,2023-09-12-22:25:03,913,1,Experiment,2023-09-12_15h37.41.403,
8,global,local,3,19,2,230,7,,,236,exp,SLLESFZUZUHNHYF,FSUTHYXZLLNFNZU,4,E,X,eE,yY,e,1,0.5271786999996948,y,1,0.2982443000000785,RSVPLG01,0.94,2023-09-12-22:25:03,913,1,Experiment,2023-09-12_15h37.41.403,
9,global,local,7,19,3,231,8,,,237,exp,LHFYFUESLSTZEZH,FZENLLUZTUXFEHS,4,Y,X,yY,yY,y,1,0.435476799999833,y,1,0.10501109999995606,RSVPLG01,0.94,2023-09-12-22:25:03,913,1,Experiment,2023-09-12_15h37.41.403,
9,global,local,7,19,4,232,8,,,238,exp,ZLUHNSEEFFTHZUS,SEEHYTUHZLTXZSL,5,N,X,nN,yY,n,1,0.6779219999998531,y,1,0.18250829999988127,RSVPLG01,0.94,2023-09-12-22:25:03,913,1,Experiment,2023-09-12_15h37.41.403,
11,global,global,3,19,5,233,10,,,239,exp,TSTHZUNFXNZHLLY,FTLNSEYLZHYFZST,6,U,X,uU,yY,u,1,0.7733023000000685,y,1,0.130457799999931,RSVPLG01,0.94,2023-09-12-22:25:03,913,1,Experiment,2023-09-12_15h37.41.403,
2,local,local,3,19,6,234,1,,,240,exp,NSZYYTNFEEFUSUH,YUSZFLYHXSEUFNN,6,L,X,lL,yY,l,1,0.4614115999997921,y,1,0.6822981000000254,RSVPLG01,0.94,2023-09-12-22:25:03,913,1,Experiment,2023-09-12_15h37.41.403,
3,local,local,7,19,7,235,2,,,241,exp,YEUHUZLTNFTHFNL,HYFFTSELTELUXNU,6,S,X,sS,yY,s,1,0.37232240000003003,y,1,0.2450487000000976,RSVPLG01,0.94,2023-09-12-22:25:03,913,1,Experiment,2023-09-12_15h37.41.403,
6,local,global,7,19,8,236,5,,,242,exp,YLYTNSEZFULTXUF,LFNYUHFLNUEZEZT,6,H,X,hH,yY,h,1,0.4630902999997488,y,1,0.36561319999964326,RSVPLG01,0.94,2023-09-12-22:25:03,913,1,Experiment,2023-09-12_15h37.41.403,
11,global,global,3,19,9,237,10,,,243,exp,NTEFYUTFXSHYHLL,EYLTEZYFSFNNLTH,6,U,X,uU,yY,u,1,0.7051547000000937,y,1,0.3625170000000253,RSVPLG01,0.94,2023-09-12-22:25:03,913,1,Experiment,2023-09-12_15h37.41.403,
1,local,local,0,19,10,238,0,,,244,exp,FYTYHZZTLUSSNNF,TTZNELSFSYUUZNF,5,E,absent,eE,nN,e,1,0.5252645000000484,n,1,0.36333109999986846,RSVPLG01,0.94,2023-09-12-22:25:03,913,1,Experiment,2023-09-12_15h37.41.403,
11,global,global,3,19,11,239,10,,,245,exp,FFSTEZYXZUHHTSY,YFLSNYZSFLZUUHT,5,E,X,eE,yY,e,1,0.3864085000000159,y,1,0.4680763000001207,RSVPLG01,0.94,2023-09-12-22:25:03,913,1,Experiment,2023-09-12_15h37.41.403,
