row,t1_level,t2_level,t2_lag,.thisRepN,.thisTrialN,.thisN,.thisIndex,thisRow.t,notes,trial,trial_type,global_letters,local_letters,t1_pos,t1,t2,t1_corr,t2_corr,t1_resp,t1_acc,t1_rt,t2_resp,t2_acc,t2_rt,exp,ver,mod-utc,sub,sess,blocktyp,datetime
10,global,global,0,0,0,0,9,,,1,warmup,NHZNETUYEZFHYUF,YHFUFSLENNEZLYZ,6,T,absent,tT,nN,t,1,1.091457,n,1,1.0280197,RSVPLG01,0.94,2023-09-12-22:23:06,905,1,Experiment,2023-09-12_15h38.54.378
3,local,local,7,0,1,1,2,,,2,warmup,HENNUYFTLHTLSFE,USHNSZFLNFHTXLE,6,Z,X,zZ,yY,z,1,1.208847,y,1,0.6252039,RSVPLG01,0.94,2023-09-12-22:23:06,905,1,Experiment,2023-09-12_15h38.54.378
6,local,global,7,0,2,2,5,,,3,warmup,HZELTSFYUTXYEUZ,ZEUNFTYFYTHUSES,4,N,X,nN,yY,y,0,0.6886538,y,1,0.2096544,RSVPLG01,0.94,2023-09-12-22:23:06,905,1,Experiment,2023-09-12_15h38.54.378
2,local,local,3,0,3,3,1,,,4,warmup,TYLNTZHSEYEHUSN,YLEHTFNSXTLYSUN,6,F,X,fF,yY,f,1,0.4007268,y,1,0.6051647,RSVPLG01,0.94,2023-09-12-22:23:06,905,1,Experiment,2023-09-12_15h38.54.378
12,global,global,7,0,4,4,11,,,5,warmup,ZZHHSLUYUENXFNE,UNFYTZYUHZLHEEF,5,S,X,sS,yY,s,1,0.6749107,y,1,0.3948277,RSVPLG01,0.94,2023-09-12-22:23:06,905,1,Experiment,2023-09-12_15h38.54.378
7,global,local,0,0,0,0,6,,,6,exp,TYHNEYUZLETHZSL,HHEFLYYLUSSEZZT,4,N,absent,nN,nN,n,1,0.7019133,n,1,0.2548185,RSVPLG01,0.94,2023-09-12-22:23:06,905,1,Experiment,2023-09-12_15h38.54.378
9,global,local,7,0,1,1,8,,,7,exp,NFESLHHEUYSTTYF,ETNSZYUFEHUXNHS,5,L,X,lL,yY,l,1,0.6639282,y,1,0.2531585,RSVPLG01,0.94,2023-09-12-22:23:06,905,1,Experiment,2023-09-12_15h38.54.378
6,local,global,7,0,2,2,5,,,8,exp,EYYFEHSUSNXHNTZ,HYZLZUHYSETENUN,4,L,X,lL,yY,f,0,0.7269225,y,1,0.3019699,RSVPLG01,0.94,2023-09-12-22:23:06,905,1,Experiment,2023-09-12_15h38.54.378
2,local,local,3,0,3,3,1,,,9,exp,SNETNUZSTZLEYHL,NLNSHFZEXTLEYSZ,6,F,X,fF,yY,h,0,0.6085179,y,1,0.0916396,RSVPLG01,0.94,2023-09-12-22:23:06,905,1,Experiment,2023-09-12_15h38.54.378
9,global,local,7,0,4,4,8,,,10,exp,SUYFTLFNHYHLSNZ,HYULEHFLZSYXNFU,5,T,X,tT,yY,t,1,0.5273068,y,1,0.2468473,RSVPLG01,0.94,2023-09-12-22:23:06,905,1,Experiment,2023-09-12_15h38.54.378
12,global,global,7,0,5,5,11,,,11,exp,STSFULYYNEUEXZF,UFENZHTSYFZNUSE,6,L,X,lL,yY,l,1,0.8071717,y,1,0.2337548,RSVPLG01,0.94,2023-09-12-22:23:06,905,1,Experiment,2023-09-12_15h38.54.378
9,global,local,7,0,6,6,8,,,12,exp,HSFLYUZEHTFYZTL,TSEFZNYHTZLFXLY,6,U,X,uU,yY,u,1,0.5906815,y,1,0.6668406,RSVPLG01,0.94,2023-09-12-22:23:06,905,1,Experiment,2023-09-12_15h38.54.378
7,global,local,0,0,7,7,6,,,13,exp,NHLNUSZFEFUYYHL,ZYUNUTHZENLYELH,6,S,absent,sS,nN,s,1,0.7925136,n,1,0.1934218,RSVPLG01,0.94,2023-09-12-22:23:06,905,1,Experiment,2023-09-12_15h38.54.378
6,local,global,7,0,8,8,5,,,14,exp,NFTZTLYUUEXLNFE,LYNHUYFNLETSTFU,4,H,X,hH,yY,h,1,0.6734247,n,0,0.0668967,RSVPLG01,0.94,2023-09-12-22:23:06,905,1,Experiment,2023-09-12_15h38.54.378
8,global,local,3,0,9,9,7,,,15,exp,UTZZNFTHULYSHLS,NYZULESYXTLTHZN,6,F,X,fF,yY,f,1,0.5493761,y,1,0.2615167,RSVPLG01,0.94,2023-09-12-22:23:06,905,1,Experiment,2023-09-12_15h38.54.378
3,local,local,7,0,10,10,2,,,16,exp,HULYETZHENZUSTL,UZTFULNZETXSHLE,4,F,X,fF,yY,f,1,0.5710687,y,1,0.3953249,RSVPLG01,0.94,2023-09-12-22:23:06,905,1,Experiment,2023-09-12_15h38.54.378
5,local,global,3,0,11,11,4,,,17,exp,HLNUTNXESTZYLZH,SYTFTZSZNHLELNH,4,F,X,fF,yY,f,1,1.0134259,n,0,0.4063517,RSVPLG01,0.94,2023-09-12-22:23:06,905,1,Experiment,2023-09-12_15h38.54.378
11,global,global,3,1,0,12,10,,,18,exp,HLHNUZXSFESELUZ,ZESYTFUEHFTZLUH,4,N,X,nN,yY,n,1,0.7742598,n,0,0.2710485,RSVPLG01,0.94,2023-09-12-22:23:06,905,1,Experiment,2023-09-12_15h38.54.378
12,global,global,7,1,1,13,11,,,19,exp,ETSHYLSFYNTEXFZ,SYFZEUHSHTFNNYE,6,L,X,lL,yY,l,1,0.9836444,y,1,0.2733717,RSVPLG01,0.94,2023-09-12-22:23:06,905,1,Experiment,2023-09-12_15h38.54.378
1,local,local,0,1,2,14,0,,,20,exp,NTLSUZLYNYHZEUT,LTYFELNZUNTUHHY,4,F,absent,fF,nN,f,1,0.6915702,n,1,0.4463871,RSVPLG01,0.94,2023-09-12-22:23:06,905,1,Experiment,2023-09-12_15h38.54.378
2,local,local,3,1,3,15,1,,,21,exp,LYUSUZNFETNYSFT,LULYFHUNXNSTEST,6,H,X,hH,yY,h,1,1.1540923,y,1,0.2342117,RSVPLG01,0.94,2023-09-12-22:23:06,905,1,Experiment,2023-09-12_15h38.54.378
9,global,local,7,1,4,16,8,,,22,exp,FFZHYSTZLNNLTHU,UZZLHEYTHYNFXTL,6,S,X,sS,yY,s,1,1.4019365,y,1,0.3215038,RSVPLG01,0.94,2023-09-12-22:23:06,905,1,Experiment,2023-09-12_15h38.54.378
6,local,global,7,1,5,17,5,,,23,exp,NUSYHYZZLFFXLSE,UNSLTEEZLYZUSFN,5,T,X,tT,yY,t,1,0.5383214,y,1,0.8254219,RSVPLG01,0.94,2023-09-12-22:23:06,905,1,Experiment,2023-09-12_15h38.54.378
7,global,local,0,1,6,18,6,,,24,exp,HLNEZLUNUFEYYFS,LSELTHNYUHFSUNF,5,Z,absent,zZ,nN,z,1,0.8597507,n,1,0.3105176,RSVPLG01,0.94,2023-09-12-22:23:06,905,1,Experiment,2023-09-12_15h38.54.378
1,local,local,0,1,7,19,0,,,25,exp,HEZTLSUZFYUFSTE,FZESNTUEHFYUSTH,5,N,absent,nN,nN,n,1,0.7136751,n,1,0.0255315,RSVPLG01,0.94,2023-09-12-22:23:06,905,1,Experiment,2023-09-12_15h38.54.378
1,local,local,0,1,8,20,0,,,26,exp,EUZEFHLYNTNZLTF,ULFNZSNFZUELYTY,6,S,absent,sS,nN,s,1,0.765588,y,0,0.2438831,RSVPLG01,0.94,2023-09-12-22:23:06,905,1,Experiment,2023-09-12_15h38.54.378
6,local,global,7,1,9,21,5,,,27,exp,NHHZTYLSUELEXZN,TNZHEFLSSNEUTUZ,6,F,X,fF,yY,f,1,1.1418819,y,1,0.3387137,RSVPLG01,0.94,2023-09-12-22:23:06,905,1,Experiment,2023-09-12_15h38.54.378
1,local,local,0,1,10,22,0,,,28,exp,FTZYLFEUYSZNSNT,NNZTHSEFTUUSFYE,5,H,absent,hH,nN,h,1,0.7083085,n,1,0.2940075,RSVPLG01,0.94,2023-09-12-22:23:06,905,1,Experiment,2023-09-12_15h38.54.378
8,global,local,3,1,11,23,7,,,29,exp,TUFEHSHEFZYTUNZ,EFNYULTZXHZHUYF,6,S,X,sS,yY,s,1,0.9525832,y,1,0.196417,RSVPLG01,0.94,2023-09-12-22:23:06,905,1,Experiment,2023-09-12_15h38.54.378
1,local,local,0,2,0,24,0,,,30,exp,SENUSZYEFFYLUTL,ENLTYHSYFEUNFTS,6,H,absent,hH,nN,h,1,0.6785238,n,1,0.0823915,RSVPLG01,0.94,2023-09-12-22:23:06,905,1,Experiment,2023-09-12_15h38.54.378
3,local,local,7,2,1,25,2,,,31,exp,SUYTFZLLSHHEEUY,YUHSLNFFEYHSXEU,6,N,X,nN,yY,n,1,0.6262426,y,1,0.1185703,RSVPLG01,0.94,2023-09-12-22:23:06,905,1,Experiment,2023-09-12_15h38.54.378
9,global,local,7,2,2,26,8,,,32,exp,LFSUNUFHZYTTZSH,ZHYYESZUFHFXLTU,5,N,X,nN,yY,n,1,0.6780655,n,0,0.054272,RSVPLG01,0.94,2023-09-12-22:23:06,905,1,Experiment,2023-09-12_15h38.54.378
6,local,global,7,2,3,27,5,,,33,exp,TTEZSYNYFZUXUNE,YEYELTNNFFUHZUZ,5,L,X,lL,yY,s,0,0.4902977,y,1,0.0766654,RSVPLG01,0.94,2023-09-12-22:23:06,905,1,Experiment,2023-09-12_15h38.54.378
6,local,global,7,2,4,28,5,,,34,exp,YHSFTLTNSEUNXHY,HSTEHZUETSUFNYN,6,Z,X,zZ,yY,z,1,1.0639696,y,1,0.1032265,RSVPLG01,0.94,2023-09-12-22:23:06,905,1,Experiment,2023-09-12_15h38.54.378
10,global,global,0,2,5,29,9,,,35,exp,SZYSFEFUTZLYLUT,ULSZYHUFSFTLZYN,6,E,absent,eE,nN,e,1,0.735329,n,1,0.0497532,RSVPLG01,0.94,2023-09-12-22:23:06,905,1,Experiment,2023-09-12_15h38.54.378
5,local,global,3,2,6,30,4,,,36,exp,YTLFESYXLHSZTNZ,LYHLUSZHYNTTSNZ,5,U,X,uU,yY,u,1,0.5198739,y,1,0.0242442,RSVPLG01,0.94,2023-09-12-22:23:06,905,1,Experiment,2023-09-12_15h38.54.378
6,local,global,7,2,7,31,5,,,37,exp,HLNUFELZZUYXNHT,ULELSUZTYZNNEHT,5,S,X,sS,yY,s,1,0.8223115,y,1,0.1327492,RSVPLG01,0.94,2023-09-12-22:23:06,905,1,Experiment,2023-09-12_15h38.54.378
10,global,global,0,2,8,32,9,,,38,exp,YUFEUZLHFTTNZNY,UYYSZLNHTFLUNFH,4,E,absent,eE,nN,e,1,0.9251283,n,1,0.3035846,RSVPLG01,0.94,2023-09-12-22:23:06,905,1,Experiment,2023-09-12_15h38.54.378
3,local,local,7,2,9,33,2,,,39,exp,FUFNETUYTHNSYSL,HLSUZNYYULTXTNH,5,Z,X,zZ,yY,z,1,0.6156162,y,1,0.2405427,RSVPLG01,0.94,2023-09-12-22:23:06,905,1,Experiment,2023-09-12_15h38.54.378
6,local,global,7,2,10,34,5,,,40,exp,YHSFTNEUHEZXUSY,HEZULFUZHNFEYSN,5,L,X,lL,yY,l,1,0.5380779,y,1,0.5526433,RSVPLG01,0.94,2023-09-12-22:23:06,905,1,Experiment,2023-09-12_15h38.54.378
12,global,global,7,2,11,35,11,,,41,exp,YUYZHSETNUXFHTS,UENLYSNSEFYHTFU,4,Z,X,zZ,yY,z,1,0.5410252,y,1,1.1674458,RSVPLG01,0.94,2023-09-12-22:23:06,905,1,Experiment,2023-09-12_15h38.54.378
7,global,local,0,3,0,36,6,,,42,exp,FUYYETSHHTZFSLL,UZSFNLYSHFLTUHY,5,E,absent,eE,nN,e,1,0.6682147,n,1,0.0877855,RSVPLG01,0.94,2023-09-12-22:23:06,905,1,Experiment,2023-09-12_15h38.54.378
2,local,local,3,3,1,37,1,,,43,exp,NETSHZNTFULSLEU,USSNUYELXHTFFHN,6,Y,X,yY,yY,y,1,0.4142419,y,1,0.2293207,RSVPLG01,0.94,2023-09-12-22:23:06,905,1,Experiment,2023-09-12_15h38.54.378
9,global,local,7,3,2,38,8,,,44,exp,FSYNTZNYSLETUUF,FNLYTHENFSTUXYU,6,Z,X,zZ,yY,z,1,0.7495843,y,1,1.0878167,RSVPLG01,0.94,2023-09-12-22:23:06,905,1,Experiment,2023-09-12_15h38.54.378
5,local,global,3,3,3,39,4,,,45,exp,FYHFTNEXSUSELNU,LNYEZSHNUYESUFH,5,Z,X,zZ,yY,z,1,0.3991032,y,1,0.1382154,RSVPLG01,0.94,2023-09-12-22:23:06,905,1,Experiment,2023-09-12_15h38.54.378
12,global,global,7,3,4,40,11,,,46,exp,HFTNUTEZFZLXYEY,TLEZSNZEHYTFYLN,5,U,X,uU,yY,u,1,0.6783987,y,1,0.3879019,RSVPLG01,0.94,2023-09-12-22:23:06,905,1,Experiment,2023-09-12_15h38.54.378
6,local,global,7,3,5,41,5,,,47,exp,TNYSYLUTFEXLZZN,YNLHTEZZEUFNYUT,4,H,X,hH,yY,h,1,0.5586827,y,1,0.2137882,RSVPLG01,0.94,2023-09-12-22:23:06,905,1,Experiment,2023-09-12_15h38.54.378
12,global,global,7,3,6,42,11,,,48,exp,SNYZZHEUTSELXNT,NSLNYFTYEZSELZU,6,H,X,hH,yY,h,1,0.5927623,y,1,0.1281329,RSVPLG01,0.94,2023-09-12-22:23:06,905,1,Experiment,2023-09-12_15h38.54.378
1,local,local,0,3,7,43,0,,,49,exp,NYLLFSNEHSUUZHY,LHZYTEELHNZUUYS,5,T,absent,tT,nN,t,1,0.8034503,n,1,0.0857801,RSVPLG01,0.94,2023-09-12-22:23:06,905,1,Experiment,2023-09-12_15h38.54.378
1,local,local,0,3,8,44,0,,,50,exp,UFSYYLHNEFEZUHS,ENUYETNHFZUYFSH,6,T,absent,tT,nN,t,1,0.7218354,n,1,0.2601031,RSVPLG01,0.94,2023-09-12-22:23:06,905,1,Experiment,2023-09-12_15h38.54.378
12,global,global,7,3,9,45,11,,,51,exp,YTFLUESFYTHLXNH,SSULLZYNUNFFHHT,6,E,X,eE,yY,e,1,0.7689538,y,1,0.145225,RSVPLG01,0.94,2023-09-12-22:23:06,905,1,Experiment,2023-09-12_15h38.54.378
3,local,local,7,3,10,46,2,,,52,exp,TEUEYLNTHZUHLSN,ZUSEFSLEHLTXZNH,5,F,X,fF,yY,f,1,0.5621353,y,1,0.2249644,RSVPLG01,0.94,2023-09-12-22:23:06,905,1,Experiment,2023-09-12_15h38.54.378
4,local,global,0,3,11,47,3,,,53,exp,HYUELSZFUFYEHZT,ZTFUNSFYZHSUTHY,5,N,absent,nN,nN,n,1,0.6489722,y,0,0.2767204,RSVPLG01,0.94,2023-09-12-22:23:06,905,1,Experiment,2023-09-12_15h38.54.378
2,local,local,3,4,0,48,1,,,54,exp,FHLZUEFNNSULTHE,FUTYLTXENHHFLUE,4,Y,X,yY,yY,y,1,0.6153418,y,1,0.067646,RSVPLG01,0.94,2023-09-12-22:23:06,905,1,Experiment,2023-09-12_15h38.54.378
11,global,global,3,4,1,49,10,,,55,exp,NTUSETXLEZNHUYZ,ZLZFUTHLYETHENN,4,S,X,sS,yY,s,1,0.4297059,n,0,0.2282058,RSVPLG01,0.94,2023-09-12-22:23:06,905,1,Experiment,2023-09-12_15h38.54.378
9,global,local,7,4,2,50,8,,,56,exp,NYFHUYTEENZUSZS,SEULYTUTFZXYFNE,4,H,X,hH,yY,h,1,0.3754149,y,1,0.0355457,RSVPLG01,0.94,2023-09-12-22:23:06,905,1,Experiment,2023-09-12_15h38.54.378
9,global,local,7,4,3,51,8,,,57,exp,FHFYELZNNTETSZS,ESZUNTHFLZXSTEN,4,Y,X,yY,yY,y,1,0.7235921,y,1,0.3856951,RSVPLG01,0.94,2023-09-12-22:23:06,905,1,Experiment,2023-09-12_15h38.54.378
8,global,local,3,4,4,52,7,,,58,exp,FNZYLHELSHNUEZU,SUETHEXZHZLFSLN,4,Y,X,yY,yY,y,1,0.7549036,n,0,3.0700839,RSVPLG01,0.94,2023-09-12-22:23:06,905,1,Experiment,2023-09-12_15h38.54.378
7,global,local,0,4,5,53,6,,,59,exp,NEHZNYTUTYLFHEF,HTNSUUNFYLEYLFE,4,Z,absent,zZ,nN,z,1,0.6001696,n,1,0.1091744,RSVPLG01,0.94,2023-09-12-22:23:06,905,1,Experiment,2023-09-12_15h38.54.378
12,global,global,7,4,6,54,11,,,60,exp,LEUYTZHSUESXHFZ,LZLSNUZYEEFUSHF,5,T,X,tT,yY,t,1,0.8972314,y,1,0.4983491,RSVPLG01,0.94,2023-09-12-22:23:06,905,1,Experiment,2023-09-12_15h38.54.378
11,global,global,3,4,7,55,10,,,61,exp,FLELYSZXUSNFUNT,LFESHTEUZSNZFTU,5,Y,X,yY,yY,y,1,0.5920436,y,1,0.0810667,RSVPLG01,0.94,2023-09-12-22:23:06,905,1,Experiment,2023-09-12_15h38.54.378
1,local,local,0,4,8,56,0,,,62,exp,NHFTHEYNSUYLUSL,YUUZNHHNFLLYFES,4,Z,absent,zZ,nN,z,1,1.0102328,n,1,0.0541794,RSVPLG01,0.94,2023-09-12-22:23:06,905,1,Experiment,2023-09-12_15h38.54.378
12,global,global,7,4,9,57,11,,,63,exp,TFTZFLSENUHSXUE,TZSHHYZUSENFFNT,6,L,X,lL,yY,l,1,21.0212688,n,0,0.9843661,RSVPLG01,0.94,2023-09-12-22:23:06,905,1,Experiment,2023-09-12_15h38.54.378
10,global,global,0,4,10,58,9,,,64,exp,TFTSFUNZNELHSHL,FZNTZYESHSLNTHL,6,U,absent,uU,nN,u,1,0.9615763,n,1,0.0567605,RSVPLG01,0.94,2023-09-12-22:23:06,905,1,Experiment,2023-09-12_15h38.54.378
10,global,global,0,4,11,59,9,,,65,exp,TSSYZLNHLHEUNTE,ETZFSUSLELZTUNN,4,Y,absent,yY,nN,y,1,0.5573365,n,1,0.1345306,RSVPLG01,0.94,2023-09-12-22:23:06,905,1,Experiment,2023-09-12_15h38.54.378
11,global,global,3,5,0,60,10,,,66,exp,UYENSTEXNZLUZYL,TZUFHTNUFYLZYEE,5,S,X,sS,yY,s,1,0.3115485,y,1,0.1050465,RSVPLG01,0.94,2023-09-12-22:23:06,905,1,Experiment,2023-09-12_15h38.54.378
8,global,local,3,5,1,61,7,,,67,exp,HFYTEHZSLEUFZLY,SELNYHXSUFYELZZ,4,T,X,tT,yY,t,1,0.4407912,y,1,0.0687167,RSVPLG01,0.94,2023-09-12-22:23:06,905,1,Experiment,2023-09-12_15h38.54.378
6,local,global,7,5,2,62,5,,,68,exp,HFTYZTFLNESXELH,NFFYUSSELHTTYNH,5,U,X,uU,yY,u,1,0.5871697,y,1,3.2997839,RSVPLG01,0.94,2023-09-12-22:23:06,905,1,Experiment,2023-09-12_15h38.54.378
4,local,global,0,5,3,63,3,,,69,exp,FTUFNSUZTESYHEY,HFUSLYUESZTFTEY,5,L,absent,lL,nN,l,1,0.5871506,y,0,1.642489,RSVPLG01,0.94,2023-09-12-22:23:06,905,1,Experiment,2023-09-12_15h38.54.378
1,local,local,0,5,4,64,0,,,70,exp,FZZYESNHSFULNHL,YFHUTSLSZNLUZFN,5,T,absent,tT,nN,t,1,0.9377138,n,1,0.517521,RSVPLG01,0.94,2023-09-12-22:23:06,905,1,Experiment,2023-09-12_15h38.54.378
12,global,global,7,5,5,65,11,,,71,exp,SLTNZHHFSLXUUTY,FSSEULYFHTZZHYU,4,N,X,nN,yY,n,1,0.4306557,y,1,0.2043036,RSVPLG01,0.94,2023-09-12-22:23:06,905,1,Experiment,2023-09-12_15h38.54.378
7,global,local,0,5,6,66,6,,,72,exp,FNEYSUTTSEHHUNL,FFTZSSLNEHUHLUN,4,Y,absent,yY,nN,y,1,0.7796602,n,1,0.1160996,RSVPLG01,0.94,2023-09-12-22:23:06,905,1,Experiment,2023-09-12_15h38.54.378
1,local,local,0,5,7,67,0,,,73,exp,ELHNSZTYTFYLEHS,HYETTUNESFFLHYN,6,U,absent,uU,nN,u,1,0.5095482,n,1,0.0791923,RSVPLG01,0.94,2023-09-12-22:23:06,905,1,Experiment,2023-09-12_15h38.54.378
10,global,global,0,5,8,68,9,,,74,exp,HZUUSZYLHYTTLFE,YLTUNZHETFHFZLU,5,S,absent,sS,nN,s,1,0.4654174,n,1,0.8088258,RSVPLG01,0.94,2023-09-12-22:23:06,905,1,Experiment,2023-09-12_15h38.54.378
4,local,global,0,5,9,69,3,,,75,exp,NTLSFEHTUYULHYF,YHYSHZTFLLNUUFN,6,Z,absent,zZ,nN,z,1,0.4797639,n,1,0.5886757,RSVPLG01,0.94,2023-09-12-22:23:06,905,1,Experiment,2023-09-12_15h38.54.378
12,global,global,7,5,10,70,11,,,76,exp,NZFUSLYYUENXHHF,UEUFTHLNZNEFHYZ,5,S,X,sS,yY,s,1,0.6595916,y,1,0.0647644,RSVPLG01,0.94,2023-09-12-22:23:06,905,1,Experiment,2023-09-12_15h38.54.378
8,global,local,3,5,11,71,7,,,77,exp,UYFTTEHYHLUSSFL,YNTLFZFUXYNTHSL,6,E,X,eE,yY,e,1,0.3501775,y,1,0.5499532,RSVPLG01,0.94,2023-09-12-22:23:06,905,1,Experiment,2023-09-12_15h38.54.378
6,local,global,7,6,0,72,5,,,78,exp,YFUYHTFZETNXEUS,NFZZLSYFSUUTEYE,5,L,X,lL,yY,l,1,0.6856023,y,1,0.2931213,RSVPLG01,0.94,2023-09-12-22:23:06,905,1,Experiment,2023-09-12_15h38.54.378
12,global,global,7,6,1,73,11,,,79,exp,ZHZTFYSFHNETXSU,NFSSELZNFTUUHTE,6,Y,X,yY,yY,y,1,0.9185641,y,1,0.6460491,RSVPLG01,0.94,2023-09-12-22:23:06,905,1,Experiment,2023-09-12_15h38.54.378
12,global,global,7,6,2,74,11,,,80,exp,ZNLHLEFYHUSZXNU,FNNHUTLZSSZLUFY,6,E,X,eE,yY,e,1,0.959226,y,1,0.1807193,RSVPLG01,0.94,2023-09-12-22:23:06,905,1,Experiment,2023-09-12_15h38.54.378
5,local,global,3,6,3,75,4,,,81,exp,HTFELNXYUUSHFNL,SYTZUUSLFYTNFHL,4,Z,X,zZ,yY,z,1,0.3901573,y,1,0.0618757,RSVPLG01,0.94,2023-09-12-22:23:06,905,1,Experiment,2023-09-12_15h38.54.378
6,local,global,7,6,4,76,5,,,82,exp,LSZHSENYTNTLXHY,LLZSHUNTSNYZTFY,6,U,X,uU,yY,u,1,0.6541212,y,1,0.1782643,RSVPLG01,0.94,2023-09-12-22:23:06,905,1,Experiment,2023-09-12_15h38.54.378
5,local,global,3,6,5,77,4,,,83,exp,FENZLTUXSHZTNSE,SENHYZZESFTNFUH,5,Y,X,yY,yY,z,0,1.4807006,n,0,0.5429807,RSVPLG01,0.94,2023-09-12-22:23:06,905,1,Experiment,2023-09-12_15h38.54.378
11,global,global,3,6,6,78,10,,,84,exp,HZUSEYELXSZHNTT,UTNLSFZLUHTHSZE,6,Y,X,yY,yY,y,1,0.4446911,y,1,0.1177251,RSVPLG01,0.94,2023-09-12-22:23:06,905,1,Experiment,2023-09-12_15h38.54.378
5,local,global,3,6,7,79,4,,,85,exp,ZSUYNFLLXENZYUE,EYSTTHZEUULYNNZ,6,H,X,hH,yY,h,1,0.4625565,n,0,0.1986106,RSVPLG01,0.94,2023-09-12-22:23:06,905,1,Experiment,2023-09-12_15h38.54.378
3,local,local,7,6,8,80,2,,,86,exp,FSFTHZLENYTNLES,LSESTUNYTFYNXLE,6,U,X,uU,yY,u,1,1.0366985,y,1,2.0164204,RSVPLG01,0.94,2023-09-12-22:23:06,905,1,Experiment,2023-09-12_15h38.54.378
4,local,global,0,6,9,81,3,,,87,exp,YHSELLUNTTSNYFH,NYUZLHSYFTTLUNS,4,Z,absent,zZ,nN,z,1,0.7584384,n,1,0.4090001,RSVPLG01,0.94,2023-09-12-22:23:06,905,1,Experiment,2023-09-12_15h38.54.378
10,global,global,0,6,10,82,9,,,88,exp,ZYZFNFUELYUSHSE,YHLYTZHSFUSZEEF,5,N,absent,nN,nN,n,1,0.7238889,n,1,0.2271783,RSVPLG01,0.94,2023-09-12-22:23:06,905,1,Experiment,2023-09-12_15h38.54.378
9,global,local,7,6,11,83,8,,,89,exp,NSEYULNETZHZTSH,SHTNFSEYNLEXHLY,5,U,X,uU,yY,u,1,0.5509833,y,1,0.1364128,RSVPLG01,0.94,2023-09-12-22:23:06,905,1,Experiment,2023-09-12_15h38.54.378
5,local,global,3,7,0,84,4,,,90,exp,YHZSSUETXTZNFYF,ZSEHTLSFENTYFZY,6,L,X,lL,yY,l,1,0.3581685,y,1,0.050051,RSVPLG01,0.94,2023-09-12-22:23:06,905,1,Experiment,2023-09-12_15h38.54.378
3,local,local,7,7,1,85,2,,,91,exp,ULFEZYTFLNYSNSU,NSSYHFETNUFXEUL,5,H,X,hH,yY,y,0,2.4233037,n,0,0.0780282,RSVPLG01,0.94,2023-09-12-22:23:06,905,1,Experiment,2023-09-12_15h38.54.378
8,global,local,3,7,2,86,7,,,92,exp,SETHYUFTHLFLSEU,UNNEZLLXTHFSFEU,5,Y,X,yY,yY,y,1,0.2885819,y,1,0.1162878,RSVPLG01,0.94,2023-09-12-22:23:06,905,1,Experiment,2023-09-12_15h38.54.378
9,global,local,7,7,3,87,8,,,93,exp,TNEZHTELLHYNUSY,SNTFHHLNSLXUYEU,4,Z,X,zZ,yY,z,1,0.4143361,y,1,0.6197466,RSVPLG01,0.94,2023-09-12-22:23:06,905,1,Experiment,2023-09-12_15h38.54.378
9,global,local,7,7,4,88,8,,,94,exp,FTYHYSZFELTSLZN,ESNUFYETLLXTFYZ,4,H,X,hH,yY,h,1,0.4946479,y,1,0.2002056,RSVPLG01,0.94,2023-09-12-22:23:06,905,1,Experiment,2023-09-12_15h38.54.378
1,local,local,0,7,5,89,0,,,95,exp,ZHELYTNUELSUTHZ,ETNLFZEHSZHSTUL,5,F,absent,fF,nN,f,1,1.4350857,y,0,0.226725,RSVPLG01,0.94,2023-09-12-22:23:06,905,1,Experiment,2023-09-12_15h38.54.378
3,local,local,7,7,6,90,2,,,96,exp,STNFHZEEYYLHNLZ,LNZUELHHTYXSTES,4,U,X,uU,yY,u,1,0.4354717,y,1,0.2298704,RSVPLG01,0.94,2023-09-12-22:23:06,905,1,Experiment,2023-09-12_15h38.54.378
7,global,local,0,7,7,91,6,,,97,exp,TLEELUFTSFHZSNZ,LLSTHYNSEFZTNFH,6,U,absent,uU,nN,u,1,0.8075699,n,1,0.1411221,RSVPLG01,0.94,2023-09-12-22:23:06,905,1,Experiment,2023-09-12_15h38.54.378
1,local,local,0,7,8,92,0,,,98,exp,SZYUFSTEHLHEYFT,SFLNHTZELTHYSZF,4,N,absent,nN,nN,h,0,1.7013917,n,1,0.0926053,RSVPLG01,0.94,2023-09-12-22:23:06,905,1,Experiment,2023-09-12_15h38.54.378
10,global,global,0,7,9,93,9,,,99,exp,HTHSEFNLULTUYNY,NTFZEELYNUHHFUY,4,S,absent,sS,nN,s,1,0.5564565,y,0,0.1186464,RSVPLG01,0.94,2023-09-12-22:23:06,905,1,Experiment,2023-09-12_15h38.54.378
2,local,local,3,7,10,94,1,,,100,exp,TYUHFETUZYNENLF,TTUSEZXYLLZNFUY,4,S,X,sS,yY,s,1,0.2547111,y,1,0.1333965,RSVPLG01,0.94,2023-09-12-22:23:06,905,1,Experiment,2023-09-12_15h38.54.378
8,global,local,3,7,11,95,7,,,101,exp,TLSHLETYEZNZUNY,YNUFYLXULTZEZST,4,H,X,hH,yY,h,1,0.2921321,y,1,0.2131703,RSVPLG01,0.94,2023-09-12-22:23:06,905,1,Experiment,2023-09-12_15h38.54.378
11,global,global,3,8,0,96,10,,,102,exp,STLUZYEXYLNTFSU,UNEEHYLFYUSLSTT,5,Z,X,zZ,yY,z,1,0.298106,y,1,0.0655562,RSVPLG01,0.94,2023-09-12-22:23:06,905,1,Experiment,2023-09-12_15h38.54.378
2,local,local,3,8,1,97,1,,,103,exp,HULSZNYYLSTTFHF,SLUTYEFHXSZHFTZ,6,E,X,eE,yY,e,1,0.5158416,y,1,0.3098336,RSVPLG01,0.94,2023-09-12-22:23:06,905,1,Experiment,2023-09-12_15h38.54.378
12,global,global,7,8,2,98,11,,,104,exp,YLNUZEFHFYEXSLU,HLFETYLUFHSNSYU,5,Z,X,zZ,yY,z,1,0.551195,n,0,0.1279218,RSVPLG01,0.94,2023-09-12-22:23:06,905,1,Experiment,2023-09-12_15h38.54.378
9,global,local,7,8,3,99,8,,,105,exp,THSHZLNNYYLUUSE,SNHLFEHSYYTXUTN,5,Z,X,zZ,yY,z,1,0.4481401,y,1,0.039281,RSVPLG01,0.94,2023-09-12-22:23:06,905,1,Experiment,2023-09-12_15h38.54.378
2,local,local,3,8,4,100,1,,,106,exp,USYHESLENTUFNYF,UTTZEYXSNNFUYEL,4,Z,X,zZ,yY,z,1,0.5776996,n,0,0.0420613,RSVPLG01,0.94,2023-09-12-22:23:06,905,1,Experiment,2023-09-12_15h38.54.378
12,global,global,7,8,5,101,11,,,107,exp,EYELTUZSFUHXHYZ,YZHFNYHZUSUSFEL,5,T,X,tT,yY,t,1,0.4578063,y,1,0.2275055,RSVPLG01,0.94,2023-09-12-22:23:06,905,1,Experiment,2023-09-12_15h38.54.378
6,local,global,7,8,6,102,5,,,108,exp,TZLNTSYHHUXYEEZ,YYEFTLHSULSZTUH,4,F,X,fF,yY,f,1,0.3628687,y,1,0.0151041,RSVPLG01,0.94,2023-09-12-22:23:06,905,1,Experiment,2023-09-12_15h38.54.378
2,local,local,3,8,7,103,1,,,109,exp,FHYFLSETUZTEZLU,YEZLHNHTXZYFUTE,6,N,X,nN,yY,n,1,0.5868237,n,0,0.0528585,RSVPLG01,0.94,2023-09-12-22:23:06,905,1,Experiment,2023-09-12_15h38.54.378
4,local,global,0,8,8,104,3,,,110,exp,TZFSHNLNLTUYYUS,YFZUEULNSTSNLTF,5,E,absent,eE,nN,e,1,0.5902945,n,1,0.0565537,RSVPLG01,0.94,2023-09-12-22:23:06,905,1,Experiment,2023-09-12_15h38.54.378
2,local,local,3,8,9,105,1,,,111,exp,YSLELZEFUYNFUSH,EYUSNTFHXNSUELF,6,T,X,tT,yY,t,1,0.5278997,n,0,0.0830517,RSVPLG01,0.94,2023-09-12-22:23:06,905,1,Experiment,2023-09-12_15h38.54.378
7,global,local,0,8,10,106,6,,,112,exp,HUTZUYHLTNSLSZE,EZHTUFNUTNEZSLL,6,Y,absent,yY,nN,y,1,0.8848521,n,1,0.4394067,RSVPLG01,0.94,2023-09-12-22:23:06,905,1,Experiment,2023-09-12_15h38.54.378
4,local,global,0,8,11,107,3,,,113,exp,HHNFYUZNSLSTUZL,LZSEHZUYULSHNTT,4,E,absent,eE,nN,e,1,0.5606561,n,1,0.1033725,RSVPLG01,0.94,2023-09-12-22:23:06,905,1,Experiment,2023-09-12_15h38.54.378
4,local,global,0,9,0,108,3,,,114,exp,USTNESFNFYYLHUL,SNHUZFFTUSTHYYL,5,Z,absent,zZ,nN,s,0,1.6978083,n,1,0.4526756,RSVPLG01,0.94,2023-09-12-22:23:06,905,1,Experiment,2023-09-12_15h38.54.378
7,global,local,0,9,1,109,6,,,115,exp,UESNULFTTYFHSHE,SUYZTLUEHFFEYHS,4,N,absent,nN,nN,n,1,0.5530662,n,1,0.1754423,RSVPLG01,0.94,2023-09-12-22:23:06,905,1,Experiment,2023-09-12_15h38.54.378
11,global,global,3,9,2,110,10,,,116,exp,SYFZNHHXTEFZSYE,ZTSULHTEEYUHFFY,5,N,X,nN,yY,n,1,0.6745577,n,0,0.0889993,RSVPLG01,0.94,2023-09-12-22:23:06,905,1,Experiment,2023-09-12_15h38.54.378
4,local,global,0,9,3,111,3,,,117,exp,SUTFENSNTZLZUYL,UTEHZZNYTYULNLS,4,H,absent,hH,nN,h,1,0.5456203,n,1,0.08899,RSVPLG01,0.94,2023-09-12-22:23:06,905,1,Experiment,2023-09-12_15h38.54.378
5,local,global,3,9,4,112,4,,,118,exp,NELNUSTXTYESHHY,TYHYFTNELSNZZHS,5,F,X,fF,yY,f,1,0.4132129,y,1,0.0391411,RSVPLG01,0.94,2023-09-12-22:23:06,905,1,Experiment,2023-09-12_15h38.54.378
11,global,global,3,9,5,113,10,,,119,exp,YUNZEFNXHHTFTSU,UFHULNZTYFZTSSY,5,E,X,eE,yY,e,1,0.5249007,n,0,0.0787194,RSVPLG01,0.94,2023-09-12-22:23:06,905,1,Experiment,2023-09-12_15h38.54.378
6,local,global,7,9,6,114,5,,,120,exp,EFSLLUFETHHNXYN,LTYHFZENHSNSFET,6,Z,X,zZ,yY,z,1,0.4196898,y,1,0.5243155,RSVPLG01,0.94,2023-09-12-22:23:06,905,1,Experiment,2023-09-12_15h38.54.378
10,global,global,0,9,7,115,9,,,121,exp,ETYHZTNFUYEFNUS,YETULHYTFUESNHN,5,Z,absent,zZ,nN,z,1,0.9653945,y,0,0.5995456,RSVPLG01,0.94,2023-09-12-22:23:06,905,1,Experiment,2023-09-12_15h38.54.378
11,global,global,3,9,8,116,10,,,122,exp,ZSZYNEUXYSTUTHE,LEZYFUYUSTLEZHT,5,N,X,nN,yY,n,1,0.3964783,y,1,0.3203171,RSVPLG01,0.94,2023-09-12-22:23:06,905,1,Experiment,2023-09-12_15h38.54.378
10,global,global,0,9,9,117,9,,,123,exp,HENULSLHTTSYYEZ,YENFTSHHLTZZNYE,4,U,absent,uU,nN,u,1,0.8247087,n,1,0.6211558,RSVPLG01,0.94,2023-09-12-22:23:06,905,1,Experiment,2023-09-12_15h38.54.378
4,local,global,0,9,10,118,3,,,124,exp,HTULZNYZHFUEENT,ZETSZYTHNFUYNHU,4,S,absent,sS,nN,s,1,0.4892835,n,1,0.2991767,RSVPLG01,0.94,2023-09-12-22:23:06,905,1,Experiment,2023-09-12_15h38.54.378
3,local,local,7,9,11,119,2,,,125,exp,LTYFSNENEZTHHSZ,ESZUHNLLHNXTESZ,4,U,X,uU,yY,u,1,0.4105219,y,1,0.213256,RSVPLG01,0.94,2023-09-12-22:23:06,905,1,Experiment,2023-09-12_15h38.54.378
8,global,local,3,10,0,120,7,,,126,exp,TNUEZYYTSUSLNLH,LSUNFNUXHYETTES,5,Z,X,zZ,yY,z,1,0.2856643,y,1,0.1432326,RSVPLG01,0.94,2023-09-12-22:23:06,905,1,Experiment,2023-09-12_15h38.54.378
8,global,local,3,10,1,121,7,,,127,exp,LHHTNNLZSFZESFY,YEZUHLXNHLEZYSN,4,T,X,tT,yY,t,1,0.9620236,n,0,0.1577665,RSVPLG01,0.94,2023-09-12-22:23:06,905,1,Experiment,2023-09-12_15h38.54.378
4,local,global,0,10,2,122,3,,,128,exp,LNZZTHSLEHSYYEF,EFLSUZSEHYHZFNL,5,U,absent,uU,nN,u,1,0.4826712,n,1,0.1234902,RSVPLG01,0.94,2023-09-12-22:23:06,905,1,Experiment,2023-09-12_15h38.54.378
1,local,local,0,10,3,123,0,,,129,exp,FNSHFTNZYUSTZEY,EYTLFSUZNNFETSZ,4,L,absent,lL,nN,l,1,0.4122049,n,1,0.2728058,RSVPLG01,0.94,2023-09-12-22:23:06,905,1,Experiment,2023-09-12_15h38.54.378
6,local,global,7,10,4,124,5,,,130,exp,YSNUESHNFUYXFHT,HTFFZTUYNULYSLS,5,Z,X,zZ,yY,z,1,0.3220027,y,1,0.0338286,RSVPLG01,0.94,2023-09-12-22:23:06,905,1,Experiment,2023-09-12_15h38.54.378
4,local,global,0,10,5,125,3,,,131,exp,FHUUSLLTYNFYENT,EUHFZEYHLYNNFTL,5,Z,absent,zZ,nN,z,1,0.6188163,n,1,0.2878481,RSVPLG01,0.94,2023-09-12-22:23:06,905,1,Experiment,2023-09-12_15h38.54.378
2,local,local,3,10,6,126,1,,,132,exp,LZSHYUZTNUFFNTL,TLHNESZXUSFLFNZ,5,E,X,eE,yY,e,1,0.4272371,y,1,0.8062484,RSVPLG01,0.94,2023-09-12-22:23:06,905,1,Experiment,2023-09-12_15h38.54.378
11,global,global,3,10,7,127,10,,,133,exp,HEZEFYZXUHNUYTL,YTUZSLLEHNTZUHE,5,F,X,fF,yY,s,0,0.3043336,y,1,0.1781345,RSVPLG01,0.94,2023-09-12-22:23:06,905,1,Experiment,2023-09-12_15h38.54.378
10,global,global,0,10,8,128,9,,,134,exp,SLSFEHEZLUZTUNH,TZLYSNLHHZUNEUT,4,F,absent,fF,nN,f,1,0.4734441,n,1,0.1062515,RSVPLG01,0.94,2023-09-12-22:23:06,905,1,Experiment,2023-09-12_15h38.54.378
11,global,global,3,10,9,129,10,,,135,exp,ZTSHLHTXFNNYSEF,FYTZUNEHYESHFTZ,5,L,X,lL,yY,l,1,0.3077557,y,1,0.1110252,RSVPLG01,0.94,2023-09-12-22:23:06,905,1,Experiment,2023-09-12_15h38.54.378
1,local,local,0,10,10,130,0,,,136,exp,ZNTHETFLZYNEYFS,SFLUTFEYSTZNLNY,4,U,absent,uU,nN,u,1,0.5840131,n,1,0.1095503,RSVPLG01,0.94,2023-09-12-22:23:06,905,1,Experiment,2023-09-12_15h38.54.378
3,local,local,7,10,11,131,2,,,137,exp,YLYTLFZUHSNHZUS,USFEYLUYZSXHNLF,4,E,X,eE,yY,e,1,0.5057272,y,1,0.1408246,RSVPLG01,0.94,2023-09-12-22:23:06,905,1,Experiment,2023-09-12_15h38.54.378
8,global,local,3,11,0,132,7,,,138,exp,YEUZFYHTNSTEFHS,THNLSUXNFTUSYEE,4,Z,X,zZ,yY,z,1,0.2314448,y,1,0.1852582,RSVPLG01,0.94,2023-09-12-22:23:06,905,1,Experiment,2023-09-12_15h38.54.378
7,global,local,0,11,1,133,6,,,139,exp,ZNZHNUFYTLYLFEE,NETYTSFNZYELHFL,6,U,absent,uU,nN,u,1,0.5946364,n,1,0.1200845,RSVPLG01,0.94,2023-09-12-22:23:06,905,1,Experiment,2023-09-12_15h38.54.378
5,local,global,3,11,2,134,4,,,140,exp,ULSTELXFFYYZSNN,YLNHSZFUSZFEENL,4,H,X,hH,yY,h,1,0.5524461,n,0,0.0541787,RSVPLG01,0.94,2023-09-12-22:23:06,905,1,Experiment,2023-09-12_15h38.54.378
4,local,global,0,11,3,135,3,,,141,exp,ZLHLNUHNFFEYZYS,EYSZZTNFLYHNFSE,6,T,absent,tT,nN,t,1,0.6935515,n,1,0.1456949,RSVPLG01,0.94,2023-09-12-22:23:06,905,1,Experiment,2023-09-12_15h38.54.378
2,local,local,3,11,4,136,1,,,142,exp,USFELHLUZYYZSNH,SHNTUUXLHYZLSNY,4,T,X,tT,yY,t,1,0.3941013,y,1,0.0732842,RSVPLG01,0.94,2023-09-12-22:23:06,905,1,Experiment,2023-09-12_15h38.54.378
12,global,global,7,11,5,137,11,,,143,exp,SEULNYFSEHHZXFL,FHLLSTEFZHNSZNU,6,Y,X,yY,yY,y,1,0.544353,y,1,0.037594,RSVPLG01,0.94,2023-09-12-22:23:06,905,1,Experiment,2023-09-12_15h38.54.378
4,local,global,0,11,6,138,3,,,144,exp,FZHUYLTHNTEEFUZ,FEELSUTFUHTZNZH,5,S,absent,sS,nN,s,1,0.4024346,n,1,0.1715489,RSVPLG01,0.94,2023-09-12-22:23:06,905,1,Experiment,2023-09-12_15h38.54.378
11,global,global,3,11,7,139,10,,,145,exp,ZUYEHZFXYENFTNT,UZZULYNESTFYTSF,5,H,X,hH,yY,h,1,0.4395431,y,1,0.0690876,RSVPLG01,0.94,2023-09-12-22:23:06,905,1,Experiment,2023-09-12_15h38.54.378
12,global,global,7,11,8,140,11,,,146,exp,NYYSFLFZHEXLEUZ,ENNTHLUFLEZZYUY,4,S,X,sS,yY,s,1,0.343703,y,1,0.0816244,RSVPLG01,0.94,2023-09-12-22:23:06,905,1,Experiment,2023-09-12_15h38.54.378
3,local,local,7,11,9,141,2,,,147,exp,TUSHFSENZNZYFTE,TYULFESZSEXFNUN,4,L,X,lL,yY,l,1,0.4004895,y,1,0.0883789,RSVPLG01,0.94,2023-09-12-22:23:06,905,1,Experiment,2023-09-12_15h38.54.378
11,global,global,3,11,10,142,10,,,148,exp,HSFTZUYZXLYFSLT,YHHTENTZFSEFSLZ,6,U,X,uU,yY,u,1,0.3493419,y,1,0.0659493,RSVPLG01,0.94,2023-09-12-22:23:06,905,1,Experiment,2023-09-12_15h38.54.378
3,local,local,7,11,11,143,2,,,149,exp,ZUNSETZYTHSHUYN,UFHTLNYTUSZXSHF,5,L,X,lL,yY,l,1,0.4318026,y,1,0.0524233,RSVPLG01,0.94,2023-09-12-22:23:06,905,1,Experiment,2023-09-12_15h38.54.378
9,global,local,7,12,0,144,8,,,150,exp,ZFTTLFYNEZHEHNU,UNHZSHFUTYEXYZE,5,L,X,lL,yY,l,1,0.3896232,y,1,0.0721898,RSVPLG01,0.94,2023-09-12-22:23:06,905,1,Experiment,2023-09-12_15h38.54.378
8,global,local,3,12,1,145,7,,,151,exp,EUZEHLNTNFUFZTS,USEZZYNHXEUFTTH,6,L,X,lL,yY,l,1,0.4654089,y,1,0.1002346,RSVPLG01,0.94,2023-09-12-22:23:06,905,1,Experiment,2023-09-12_15h38.54.378
11,global,global,3,12,2,146,10,,,152,exp,EEFNUZTUXNFHTLY,UYNTLSNELFFHHYE,6,Z,X,zZ,yY,z,1,0.2879364,y,1,0.1135205,RSVPLG01,0.94,2023-09-12-22:23:06,905,1,Experiment,2023-09-12_15h38.54.378
6,local,global,7,12,3,147,5,,,153,exp,ZTTNYLSFENLXUEF,SFNSHUTFEULEZNZ,5,H,X,hH,yY,h,1,0.3781908,y,1,0.6533809,RSVPLG01,0.94,2023-09-12-22:23:06,905,1,Experiment,2023-09-12_15h38.54.378
11,global,global,3,12,4,148,10,,,154,exp,SZFYZETNXHLSYHT,FHNSNUYLYLZZSFT,6,E,X,eE,yY,e,1,0.3706282,y,1,0.1183258,RSVPLG01,0.94,2023-09-12-22:23:06,905,1,Experiment,2023-09-12_15h38.54.378
10,global,global,0,12,5,149,9,,,155,exp,ULNEZHHEFSFSNLY,EYUETFNFHLYUSNL,5,Z,absent,zZ,nN,z,1,0.8029997,n,1,0.0752353,RSVPLG01,0.94,2023-09-12-22:23:06,905,1,Experiment,2023-09-12_15h38.54.378
3,local,local,7,12,6,150,2,,,156,exp,SNLFHFTUUSYEYLE,UTSFZFUNYYEXTNE,5,Z,X,zZ,yY,z,1,0.4644601,n,0,0.0369666,RSVPLG01,0.94,2023-09-12-22:23:06,905,1,Experiment,2023-09-12_15h38.54.378
7,global,local,0,12,7,151,6,,,157,exp,UZFEHUFTLZTEYSL,ZTUUNEEYLFZFTLS,5,H,absent,hH,nN,h,1,0.5325168,n,1,0.1411117,RSVPLG01,0.94,2023-09-12-22:23:06,905,1,Experiment,2023-09-12_15h38.54.378
5,local,global,3,12,8,152,4,,,158,exp,YNFSYZEEXLFHHNT,FENSTULYHHFEYNS,6,U,X,uU,yY,u,1,0.27797,y,1,0.4978896,RSVPLG01,0.94,2023-09-12-22:23:06,905,1,Experiment,2023-09-12_15h38.54.378
5,local,global,3,12,9,153,4,,,159,exp,TZTELYXNFFZHNYU,HLTSNYYZFUHTZNU,4,S,X,sS,yY,s,1,0.2520627,y,1,0.1286855,RSVPLG01,0.94,2023-09-12-22:23:06,905,1,Experiment,2023-09-12_15h38.54.378
3,local,local,7,12,10,154,2,,,160,exp,STHEENSYZTHZUFY,EFSHULHYESTZXTU,6,L,X,lL,yY,n,0,0.4526441,n,0,0.0192233,RSVPLG01,0.94,2023-09-12-22:23:06,905,1,Experiment,2023-09-12_15h38.54.378
6,local,global,7,12,11,155,5,,,161,exp,FHTUESNYNZZUXEY,NTFUYLFNZEEZTHH,6,L,X,lL,yY,l,1,0.774701,y,1,0.112044,RSVPLG01,0.94,2023-09-12-22:23:06,905,1,Experiment,2023-09-12_15h38.54.378
9,global,local,7,13,0,156,8,,,162,exp,TLUEZFSHFUZYSHT,HTLNUSYZHTXLYSF,4,E,X,eE,yY,e,1,0.4413141,y,1,0.1112157,RSVPLG01,0.94,2023-09-12-22:23:06,905,1,Experiment,2023-09-12_15h38.54.378
3,local,local,7,13,1,157,2,,,163,exp,FESTUHFTNYNZSEU,NFZUSLSFUNYTXTZ,6,L,X,lL,yY,l,1,0.6206955,n,0,0.0822762,RSVPLG01,0.94,2023-09-12-22:23:06,905,1,Experiment,2023-09-12_15h38.54.378
7,global,local,0,13,2,158,6,,,164,exp,EEFUTFZHSLHULYS,USSUNZLELHZYFHF,5,T,absent,tT,nN,t,1,0.7018593,n,1,0.6551978,RSVPLG01,0.94,2023-09-12-22:23:06,905,1,Experiment,2023-09-12_15h38.54.378
10,global,global,0,13,3,159,9,,,165,exp,LTHUZENHYNZYLST,ESTFNLNLZZHHSYT,4,U,absent,uU,nN,u,1,0.6476179,n,1,0.1531903,RSVPLG01,0.94,2023-09-12-22:23:06,905,1,Experiment,2023-09-12_15h38.54.378
6,local,global,7,13,4,160,5,,,166,exp,LHSFEUYEUNXZLNS,ZNUTELUHLSEYSYN,4,T,X,tT,yY,t,1,0.3481525,y,1,0.1731762,RSVPLG01,0.94,2023-09-12-22:23:06,905,1,Experiment,2023-09-12_15h38.54.378
4,local,global,0,13,5,161,3,,,167,exp,FESYLHTUSZZYEUL,ZEETUNFZYYLSUSL,6,N,absent,nN,nN,n,1,0.4844872,n,1,0.1826052,RSVPLG01,0.94,2023-09-12-22:23:06,905,1,Experiment,2023-09-12_15h38.54.378
10,global,global,0,13,6,162,9,,,168,exp,LHYETNNFSZYHLSZ,HHYUYSSZLFNZTTL,4,E,absent,eE,nN,e,1,0.4805676,n,1,0.1511756,RSVPLG01,0.94,2023-09-12-22:23:06,905,1,Experiment,2023-09-12_15h38.54.378
6,local,global,7,13,7,163,5,,,169,exp,TTYELFZEHSYHXSN,TEYHEUHSZZLSNYL,6,U,X,uU,yY,u,1,0.5173632,y,1,0.0289801,RSVPLG01,0.94,2023-09-12-22:23:06,905,1,Experiment,2023-09-12_15h38.54.378
8,global,local,3,13,8,164,7,,,170,exp,HFLEUNFSEZZUSYH,SSLUHTEFXEYUFHL,6,N,X,nN,yY,n,1,0.3367713,y,1,0.1222798,RSVPLG01,0.94,2023-09-12-22:23:06,905,1,Experiment,2023-09-12_15h38.54.378
9,global,local,7,13,9,165,8,,,171,exp,ZSTUTNFLHFSZNLH,NTSYTSLLNFXEHFZ,4,U,X,uU,yY,u,1,0.4406406,y,1,0.0408261,RSVPLG01,0.94,2023-09-12-22:23:06,905,1,Experiment,2023-09-12_15h38.54.378
2,local,local,3,13,10,166,1,,,172,exp,LUTFENLFUSZSTYN,ZSNUHNUXFSYLTLZ,5,H,X,hH,yY,e,0,0.6614218,n,0,0.549978,RSVPLG01,0.94,2023-09-12-22:23:06,905,1,Experiment,2023-09-12_15h38.54.378
3,local,local,7,13,11,167,2,,,173,exp,TNZSHFHTSYLZUUL,ZNHTTELUYLNSXZY,6,E,X,eE,yY,e,1,0.4642957,y,1,0.2457837,RSVPLG01,0.94,2023-09-12-22:23:06,905,1,Experiment,2023-09-12_15h38.54.378
12,global,global,7,14,0,168,11,,,174,exp,LEFTENYFNYXLSHS,YLNUZSSYEFLEZNH,4,T,X,tT,yY,t,1,0.6218816,n,0,0.1872423,RSVPLG01,0.94,2023-09-12-22:23:06,905,1,Experiment,2023-09-12_15h38.54.378
3,local,local,7,14,1,169,2,,,175,exp,NTNSEFYUZFZTUEY,HUELTFNNHTXUFEZ,4,L,X,lL,yY,l,1,0.333555,y,1,0.1925776,RSVPLG01,0.94,2023-09-12-22:23:06,905,1,Experiment,2023-09-12_15h38.54.378
7,global,local,0,14,2,170,6,,,176,exp,YSHELFUSULFTHTY,FZLNTTUYSHSZUHL,4,E,absent,eE,nN,e,1,0.7467446,n,1,0.1924179,RSVPLG01,0.94,2023-09-12-22:23:06,905,1,Experiment,2023-09-12_15h38.54.378
1,local,local,0,14,3,171,0,,,177,exp,YNZZSLESEFHUUHN,EZNHHTSFYFEUNZY,6,T,absent,tT,nN,t,1,0.5996018,n,1,0.1683486,RSVPLG01,0.94,2023-09-12-22:23:06,905,1,Experiment,2023-09-12_15h38.54.378
7,global,local,0,14,4,172,6,,,178,exp,LFUTYSLNTYHUZNH,YHNFTELTHYUZNZF,6,S,absent,sS,nN,s,1,0.4222814,n,1,0.1562495,RSVPLG01,0.94,2023-09-12-22:23:06,905,1,Experiment,2023-09-12_15h38.54.378
5,local,global,3,14,5,173,4,,,179,exp,ETYFUHLXTZFHESY,TFSFNYETSZLHEHY,5,N,X,nN,yY,y,0,0.450143,n,0,0.1871671,RSVPLG01,0.94,2023-09-12-22:23:06,905,1,Experiment,2023-09-12_15h38.54.378
2,local,local,3,14,6,174,1,,,180,exp,NZLTFEYUEHZLHTY,LZEUSTHXZHLYNUT,5,S,X,sS,yY,s,1,0.2725416,y,1,0.3486564,RSVPLG01,0.94,2023-09-12-22:23:06,905,1,Experiment,2023-09-12_15h38.54.378
3,local,local,7,14,7,175,2,,,181,exp,SYHFSZUTLFTLUHE,SHYSLNTEEFUYXLU,6,N,X,nN,yY,n,1,0.4886107,y,1,0.4357126,RSVPLG01,0.94,2023-09-12-22:23:06,905,1,Experiment,2023-09-12_15h38.54.378
7,global,local,0,14,8,176,6,,,182,exp,LLZYEFTNZHUEHTY,NEYYTSLHZHUEULT,6,F,absent,fF,nN,f,1,0.563545,n,1,0.1454087,RSVPLG01,0.94,2023-09-12-22:23:06,905,1,Experiment,2023-09-12_15h38.54.378
10,global,global,0,14,9,177,9,,,183,exp,ETFYESNZLULTZUF,LZTEUHETUNFYYZF,6,S,absent,sS,nN,s,1,0.4798758,n,1,0.1076676,RSVPLG01,0.94,2023-09-12-22:23:06,905,1,Experiment,2023-09-12_15h38.54.378
1,local,local,0,14,10,178,0,,,184,exp,YYNTSEUNZEFFLLZ,NULZHZTYUTELYNF,5,H,absent,hH,nN,h,1,0.5448659,n,1,0.1557598,RSVPLG01,0.94,2023-09-12-22:23:06,905,1,Experiment,2023-09-12_15h38.54.378
8,global,local,3,14,11,179,7,,,185,exp,FHSTZENEYHYFNUU,ZYULUHXSNSYFEZE,4,T,X,tT,yY,t,1,0.4736397,n,0,0.1772177,RSVPLG01,0.94,2023-09-12-22:23:06,905,1,Experiment,2023-09-12_15h38.54.378
9,global,local,7,15,0,180,8,,,186,exp,SUUZEFHHLZSLEYY,SYYHZNLLZUETXUH,6,F,X,fF,yY,f,1,0.405366,y,1,0.1107556,RSVPLG01,0.94,2023-09-12-22:23:06,905,1,Experiment,2023-09-12_15h38.54.378
4,local,global,0,15,1,181,3,,,187,exp,YHTUEULSTYNFSFH,YNFTZSUTLLFYNSU,5,Z,absent,zZ,nN,z,1,0.4669689,n,1,0.1451212,RSVPLG01,0.94,2023-09-12-22:23:06,905,1,Experiment,2023-09-12_15h38.54.378
4,local,global,0,15,2,182,3,,,188,exp,FFTLUNSESLZEZTH,TSFUZYZTHESLFUE,6,Y,absent,yY,nN,y,1,0.5696461,n,1,0.1931292,RSVPLG01,0.94,2023-09-12-22:23:06,905,1,Experiment,2023-09-12_15h38.54.378
4,local,global,0,15,3,183,3,,,189,exp,TLEHFSZZSLNHTEU,HHUSYZEZTTLNLES,5,Y,absent,yY,nN,y,1,0.4684001,n,1,0.1254559,RSVPLG01,0.94,2023-09-12-22:23:06,905,1,Experiment,2023-09-12_15h38.54.378
5,local,global,3,15,4,184,4,,,190,exp,UFHTSEZXZUTFYLE,FELUNUHYZHZFLEY,5,N,X,nN,yY,n,1,0.5038139,n,0,0.1535045,RSVPLG01,0.94,2023-09-12-22:23:06,905,1,Experiment,2023-09-12_15h38.54.378
7,global,local,0,15,5,185,6,,,191,exp,FSLNSTHYZUFULTZ,FLLEUTHSFZUTHYY,4,N,absent,nN,nN,n,1,0.4999818,n,1,0.1957513,RSVPLG01,0.94,2023-09-12-22:23:06,905,1,Experiment,2023-09-12_15h38.54.378
8,global,local,3,15,6,186,7,,,192,exp,FULNTHLSTZZEUES,ZFTYSSXLZTUFULE,4,N,X,nN,yY,n,1,0.3890664,y,1,0.1597785,RSVPLG01,0.94,2023-09-12-22:23:06,905,1,Experiment,2023-09-12_15h38.54.378
5,local,global,3,15,7,187,4,,,193,exp,EUNSTNXFYHZZEHU,ETULYFNNZUFTEHH,4,L,X,lL,yY,l,1,0.3582669,n,0,0.198258,RSVPLG01,0.94,2023-09-12-22:23:06,905,1,Experiment,2023-09-12_15h38.54.378
10,global,global,0,15,8,188,9,,,194,exp,UZSNHUHLEELYTSY,LHZFYUSYZTHESUL,4,N,absent,nN,nN,n,1,0.5874125,n,1,0.2235999,RSVPLG01,0.94,2023-09-12-22:23:06,905,1,Experiment,2023-09-12_15h38.54.378
10,global,global,0,15,9,189,9,,,195,exp,ULNZYEFUHHSYSFL,HFSTUNEFYYULHSE,4,Z,absent,zZ,nN,z,1,0.581034,n,1,0.1752955,RSVPLG01,0.94,2023-09-12-22:23:06,905,1,Experiment,2023-09-12_15h38.54.378
5,local,global,3,15,10,190,4,,,196,exp,NLNLSUESXZFFYYT,NETFYHZLFTSZEYL,6,H,X,hH,yY,h,1,0.5441337,n,0,0.1619083,RSVPLG01,0.94,2023-09-12-22:23:06,905,1,Experiment,2023-09-12_15h38.54.378
10,global,global,0,15,11,191,9,,,197,exp,HNLFHUESUSLENZY,UYUTZNEHYSEHLNL,4,F,absent,fF,nN,f,1,0.5864562,n,1,0.1455752,RSVPLG01,0.94,2023-09-12-22:23:06,905,1,Experiment,2023-09-12_15h38.54.378
8,global,local,3,16,0,192,7,,,198,exp,HNHUSTUYFEENZZT,THFTLEZXYNUNZEF,5,S,X,sS,yY,s,1,0.1491676,y,1,0.1162813,RSVPLG01,0.94,2023-09-12-22:23:06,905,1,Experiment,2023-09-12_15h38.54.378
1,local,local,0,16,1,193,0,,,199,exp,TLNEUTFHNSLUYFH,YSTZNHNUUFYFHST,4,Z,absent,zZ,nN,z,1,0.3609092,n,1,0.216774,RSVPLG01,0.94,2023-09-12-22:23:06,905,1,Experiment,2023-09-12_15h38.54.378
7,global,local,0,16,2,194,6,,,200,exp,FYHTESSZZYLHLTN,NSSYULHLTZFNFHT,5,E,absent,eE,nN,u,0,0.5104985,n,1,0.1353004,RSVPLG01,0.94,2023-09-12-22:23:06,905,1,Experiment,2023-09-12_15h38.54.378
7,global,local,0,16,3,195,6,,,201,exp,EHSSZFLNEULUYHF,SUEHTEYFFSLHLNN,5,Z,absent,zZ,nN,z,1,0.4282473,n,1,0.1946353,RSVPLG01,0.94,2023-09-12-22:23:06,905,1,Experiment,2023-09-12_15h38.54.378
5,local,global,3,16,4,196,4,,,202,exp,YSUNELTXYLHZTHZ,HULTFLHNNTUZZYS,5,F,X,fF,yY,f,1,0.2648151,y,1,0.1073743,RSVPLG01,0.94,2023-09-12-22:23:06,905,1,Experiment,2023-09-12_15h38.54.378
5,local,global,3,16,5,197,4,,,203,exp,SHHTZYUXTSFLUFL,YLTFNSLUHSTEUHY,5,N,X,nN,yY,n,1,0.3088272,y,1,0.1816336,RSVPLG01,0.94,2023-09-12-22:23:06,905,1,Experiment,2023-09-12_15h38.54.378
10,global,global,0,16,6,198,9,,,204,exp,TSLNLFSZZHETFHU,TLSYHFTHZEEZFSL,4,N,absent,nN,nN,n,1,0.4010447,n,1,0.1449409,RSVPLG01,0.94,2023-09-12-22:23:06,905,1,Experiment,2023-09-12_15h38.54.378
2,local,local,3,16,7,199,1,,,205,exp,ZHFNELSTFSZUTHU,FTUYLHXZUSEELTZ,4,Y,X,yY,yY,n,0,0.1396204,n,0,0.0954874,RSVPLG01,0.94,2023-09-12-22:23:06,905,1,Experiment,2023-09-12_15h38.54.378
8,global,local,3,16,8,200,7,,,206,exp,UNFZHLFTYTYSSNU,UYFENSXTYHLNFUT,4,Z,X,zZ,yY,z,1,0.1692479,y,1,0.2366444,RSVPLG01,0.94,2023-09-12-22:23:06,905,1,Experiment,2023-09-12_15h38.54.378
4,local,global,0,16,9,201,3,,,207,exp,ZFFELUNZHLYTNYT,ULYSFTNHHYZUNZT,4,S,absent,sS,nN,s,1,0.2878669,n,1,0.1537357,RSVPLG01,0.94,2023-09-12-22:23:06,905,1,Experiment,2023-09-12_15h38.54.378
2,local,local,3,16,10,202,1,,,208,exp,YZTFSYLNFHUHNTZ,FNHZEZYXYHTULUN,5,E,X,eE,yY,e,1,0.2862638,y,1,0.1051803,RSVPLG01,0.94,2023-09-12-22:23:06,905,1,Experiment,2023-09-12_15h38.54.378
12,global,global,7,16,11,203,11,,,209,exp,NLYYTSHEZZETXFN,HTFEYUFHZNLNEZL,6,S,X,sS,yY,s,1,0.4346963,y,1,0.0968814,RSVPLG01,0.94,2023-09-12-22:23:06,905,1,Experiment,2023-09-12_15h38.54.378
2,local,local,3,17,0,204,1,,,210,exp,EUTTLUESFNYNYZF,ZTUZHFFXESNUENY,5,H,X,hH,yY,h,1,0.2982159,y,1,0.146838,RSVPLG01,0.94,2023-09-12-22:23:06,905,1,Experiment,2023-09-12_15h38.54.378
9,global,local,7,17,1,205,8,,,211,exp,FLTNUSELTFSZEZY,LLYTHFZFTNSXSEE,5,U,X,uU,yY,u,1,0.3347854,y,1,0.0867055,RSVPLG01,0.94,2023-09-12-22:23:06,905,1,Experiment,2023-09-12_15h38.54.378
1,local,local,0,17,2,206,0,,,212,exp,UTZYSNLTZLNSFEE,SLFHSNFLTUETEZZ,4,H,absent,hH,nN,h,1,0.3728744,n,1,0.1518855,RSVPLG01,0.94,2023-09-12-22:23:06,905,1,Experiment,2023-09-12_15h38.54.378
8,global,local,3,17,3,207,7,,,213,exp,YUSFHTTELHLZSEZ,YHZNELXSUZSTYTL,4,F,X,fF,yY,f,1,0.2619899,y,1,0.0531947,RSVPLG01,0.94,2023-09-12-22:23:06,905,1,Experiment,2023-09-12_15h38.54.378
6,local,global,7,17,4,208,5,,,214,exp,FSLZNUTLHSZXUEE,LZFTYSEZFSUTEHH,5,Y,X,yY,yY,y,1,0.4844559,y,1,0.1462913,RSVPLG01,0.94,2023-09-12-22:23:06,905,1,Experiment,2023-09-12_15h38.54.378
9,global,local,7,17,5,209,8,,,215,exp,LUYLZFYNSHNSTUT,UHYTEUNFLNHXSSF,5,Z,X,zZ,yY,z,1,0.4158549,y,1,0.0317479,RSVPLG01,0.94,2023-09-12-22:23:06,905,1,Experiment,2023-09-12_15h38.54.378
12,global,global,7,17,6,210,11,,,216,exp,ZTYTZSHUUNLYXLN,YTENUFLHEZZHTUN,6,S,X,sS,yY,s,1,0.3915302,y,1,0.0584871,RSVPLG01,0.94,2023-09-12-22:23:06,905,1,Experiment,2023-09-12_15h38.54.378
2,local,local,3,17,7,211,1,,,217,exp,UEFNSZTFLELTYUZ,FZYHTYXULTEFZLE,4,H,X,hH,yY,h,1,0.3377367,y,1,0.1693737,RSVPLG01,0.94,2023-09-12-22:23:06,905,1,Experiment,2023-09-12_15h38.54.378
9,global,local,7,17,8,212,8,,,218,exp,UHHZYETNENYTSSL,EYTFSYENTHXNSUH,4,Z,X,zZ,yY,z,1,0.237112,y,1,0.0644856,RSVPLG01,0.94,2023-09-12-22:23:06,905,1,Experiment,2023-09-12_15h38.54.378
11,global,global,3,17,9,213,10,,,219,exp,EYLNTFYTXNUZEHZ,NYUEZSTHZTUNLLY,6,F,X,fF,yY,f,1,0.3734247,y,1,0.039704,RSVPLG01,0.94,2023-09-12-22:23:06,905,1,Experiment,2023-09-12_15h38.54.378
3,local,local,7,17,10,214,2,,,220,exp,TYTSLEHFNNHFLZZ,FZEUFEZYTNXHNLH,4,U,X,uU,yY,u,1,0.3992523,y,1,0.1258088,RSVPLG01,0.94,2023-09-12-22:23:06,905,1,Experiment,2023-09-12_15h38.54.378
12,global,global,7,17,11,215,11,,,221,exp,LZYSHFNHTNXULFY,UUTEFNFLYHYNZZH,4,S,X,sS,yY,h,0,0.316715,y,1,0.0932591,RSVPLG01,0.94,2023-09-12-22:23:06,905,1,Experiment,2023-09-12_15h38.54.378
5,local,global,3,18,0,216,4,,,222,exp,TLTSYNFHXHULSEY,EUYLEZHFYTLTUSH,6,Z,X,zZ,yY,z,1,0.2968774,y,1,0.1128388,RSVPLG01,0.94,2023-09-12-22:23:06,905,1,Experiment,2023-09-12_15h38.54.378
11,global,global,3,18,1,217,10,,,223,exp,HFETSUFXZUTHNEN,UUELYNLZHNTZEFF,5,S,X,sS,yY,s,1,0.3764923,y,1,0.0572573,RSVPLG01,0.94,2023-09-12-22:23:06,905,1,Experiment,2023-09-12_15h38.54.378
5,local,global,3,18,2,218,4,,,224,exp,HHFFZNYXNSUTTYS,HYSTENUNHFSYLUT,5,E,X,eE,yY,e,1,0.2929073,y,1,0.0417505,RSVPLG01,0.94,2023-09-12-22:23:06,905,1,Experiment,2023-09-12_15h38.54.378
4,local,global,0,18,3,219,3,,,225,exp,TTLEYSYNEZFFNUU,LYFUYHLUTNFTEEZ,6,H,absent,hH,nN,h,1,0.4058814,y,0,0.0465455,RSVPLG01,0.94,2023-09-12-22:23:06,905,1,Experiment,2023-09-12_15h38.54.378
3,local,local,7,18,4,220,2,,,226,exp,EFLYTLUUEHHFSSN,UUHNZSHSFLEXFYL,5,Z,X,zZ,yY,z,1,0.525875,n,0,0.0994024,RSVPLG01,0.94,2023-09-12-22:23:06,905,1,Experiment,2023-09-12_15h38.54.378
4,local,global,0,18,5,221,3,,,227,exp,STYYHFLSEUTHZLE,HUEZUNLELHTYSZY,6,N,absent,nN,nN,n,1,0.6007245,n,1,0.1841619,RSVPLG01,0.94,2023-09-12-22:23:06,905,1,Experiment,2023-09-12_15h38.54.378
8,global,local,3,18,6,222,7,,,228,exp,SEFTZHFLESUZYTL,ZSFUENYEXLTYUZL,6,H,X,hH,yY,h,1,0.392672,y,1,0.1162197,RSVPLG01,0.94,2023-09-12-22:23:06,905,1,Experiment,2023-09-12_15h38.54.378
11,global,global,3,18,7,223,10,,,229,exp,NYEHETFZXUYFHSZ,HZUNHLFEZSEFSNY,6,T,X,tT,yY,t,1,0.2130478,y,1,0.0597069,RSVPLG01,0.94,2023-09-12-22:23:06,905,1,Experiment,2023-09-12_15h38.54.378
10,global,global,0,18,8,224,9,,,230,exp,FSUNYHETLYELTNF,YEFULZTNNLTSUES,6,H,absent,hH,nN,h,1,0.439158,n,1,0.127982,RSVPLG01,0.94,2023-09-12-22:23:06,905,1,Experiment,2023-09-12_15h38.54.378
7,global,local,0,18,9,225,6,,,231,exp,YTSNUUZFEYZLFLE,TZUHSFLEELSUZTY,4,N,absent,nN,nN,n,1,0.5527121,n,1,0.0998145,RSVPLG01,0.94,2023-09-12-22:23:06,905,1,Experiment,2023-09-12_15h38.54.378
10,global,global,0,18,10,226,9,,,232,exp,EYLFUZSHUTZTESY,HYLNTTSZZESHYLU,4,F,absent,fF,nN,f,1,0.2794861,n,1,0.0509475,RSVPLG01,0.94,2023-09-12-22:23:06,905,1,Experiment,2023-09-12_15h38.54.378
11,global,global,3,18,11,227,10,,,233,exp,NNHFYZXLLYUSTST,YUTEZYHLULZNNSH,4,F,X,fF,yY,f,1,0.0921392,n,0,0.0581394,RSVPLG01,0.94,2023-09-12-22:23:06,905,1,Experiment,2023-09-12_15h38.54.378
1,local,local,0,19,0,228,0,,,234,exp,YEHUNYEFTLFZTZN,NENSHYZEHLTFYLF,4,S,absent,sS,nN,s,1,0.3314286,n,1,0.0260936,RSVPLG01,0.94,2023-09-12-22:23:06,905,1,Experiment,2023-09-12_15h38.54.378
5,local,global,3,19,1,229,4,,,235,exp,EZEYFSXHULTFLHT,FUSNEHTFZLHLSUZ,4,N,X,nN,yY,n,1,0.3029155,y,1,0.0696178,RSVPLG01,0.94,2023-09-12-22:23:06,905,1,Experiment,2023-09-12_15h38.54.378
9,global,local,7,19,2,230,8,,,236,exp,ZLNESZSFHTLFUTU,FNTYZULLSTXFNHS,4,E,X,eE,yY,e,1,0.3541684,y,1,0.0022705,RSVPLG01,0.94,2023-09-12-22:23:06,905,1,Experiment,2023-09-12_15h38.54.378
2,local,local,3,19,3,231,1,,,237,exp,TFLEUZLYFYNESTS,TLTEHYEXNYFZFNS,5,H,X,hH,yY,h,1,0.2707992,y,1,0.0287863,RSVPLG01,0.94,2023-09-12-22:23:06,905,1,Experiment,2023-09-12_15h38.54.378
11,global,global,3,19,4,232,10,,,238,exp,SUSNFLXTZZTFEEU,ZUYHUFSYTZTLFSL,4,N,X,nN,yY,n,1,0.3189595,y,1,0.2008587,RSVPLG01,0.94,2023-09-12-22:23:06,905,1,Experiment,2023-09-12_15h38.54.378
1,local,local,0,19,5,233,0,,,239,exp,YZLSUUNTZLFHFHY,NHTEYUFHTYZLFZL,4,E,absent,eE,nN,e,1,0.2605851,n,1,0.0475654,RSVPLG01,0.94,2023-09-12-22:23:06,905,1,Experiment,2023-09-12_15h38.54.378
3,local,local,7,19,6,234,2,,,240,exp,NTEUEYZLFZNTFSY,ETSHSTNEYYXZFFL,4,H,X,hH,yY,h,1,0.2786283,y,1,0.0047291,RSVPLG01,0.94,2023-09-12-22:23:06,905,1,Experiment,2023-09-12_15h38.54.378
8,global,local,3,19,7,235,7,,,241,exp,LTYZLFHENHZEUTY,LHNEZSTUXLTHNYE,6,F,X,fF,yY,f,1,0.35382,y,1,0.0146005,RSVPLG01,0.94,2023-09-12-22:23:06,905,1,Experiment,2023-09-12_15h38.54.378
2,local,local,3,19,8,236,1,,,242,exp,ENYTZLUEUNHHFLY,YFLSFHXLEUHUEZN,4,S,X,sS,yY,s,1,0.2902919,y,1,0.0464401,RSVPLG01,0.94,2023-09-12-22:23:06,905,1,Experiment,2023-09-12_15h38.54.378
7,global,local,0,19,9,237,6,,,243,exp,UEFYZFSUHTLYLEH,EYHFNELLFHSUTTS,5,Z,absent,zZ,nN,z,1,0.6024649,n,1,0.131491,RSVPLG01,0.94,2023-09-12-22:23:06,905,1,Experiment,2023-09-12_15h38.54.378
8,global,local,3,19,10,238,7,,,244,exp,UYLEFSYHNNFSTHU,HULZLFXFNSYSNTT,4,E,X,eE,yY,e,1,0.312175,y,1,0.0627199,RSVPLG01,0.94,2023-09-12-22:23:06,905,1,Experiment,2023-09-12_15h38.54.378
2,local,local,3,19,11,239,1,,,245,exp,SHSYTFZLHNTNFEL,SELUNEXLSHZTTNH,4,U,X,uU,yY,u,1,0.6350511,y,1,0.0457646,RSVPLG01,0.94,2023-09-12-22:23:06,905,1,Experiment,2023-09-12_15h38.54.378