row,t1_level,t2_level,t2_lag,.thisRepN,.thisTrialN,.thisN,.thisIndex,thisRow.t,notes,trial,trial_type,global_letters,local_letters,t1_pos,t1,t2,t1_corr,t2_corr,t1_resp,t1_acc,t1_rt,t2_resp,t2_acc,t2_rt,exp,ver,mod-utc,sub,sess,blocktyp,datetime,
10,global,global,0,0,0,0,9,,,1,warmup,NHZNETUYEZFHYUF,YHFUFSLENNEZLYZ,6,T,absent,tT,nN,t,1,1.091457000002265,n,1,1.0280197000247426,RSVPLG01,0.94,2023-09-12-22:23:06,905,1,Experiment,2023-09-12_15h38.54.378,
3,local,local,7,0,1,1,2,,,2,warmup,HENNUYFTLHTLSFE,USHNSZFLNFHTXLE,6,Z,X,zZ,yY,z,1,1.208846999972593,y,1,0.6252038999809884,RSVPLG01,0.94,2023-09-12-22:23:06,905,1,Experiment,2023-09-12_15h38.54.378,
6,local,global,7,0,2,2,5,,,3,warmup,HZELTSFYUTXYEUZ,ZEUNFTYFYTHUSES,4,N,X,nN,yY,y,0,0.6886537999962457,y,1,0.20965439995052293,RSVPLG01,0.94,2023-09-12-22:23:06,905,1,Experiment,2023-09-12_15h38.54.378,
2,local,local,3,0,3,3,1,,,4,warmup,TYLNTZHSEYEHUSN,YLEHTFNSXTLYSUN,6,F,X,fF,yY,f,1,0.40072680002776906,y,1,0.6051647000131197,RSVPLG01,0.94,2023-09-12-22:23:06,905,1,Experiment,2023-09-12_15h38.54.378,
12,global,global,7,0,4,4,11,,,5,warmup,ZZHHSLUYUENXFNE,UNFYTZYUHZLHEEF,5,S,X,sS,yY,s,1,0.6749107000068761,y,1,0.3948276999872178,RSVPLG01,0.94,2023-09-12-22:23:06,905,1,Experiment,2023-09-12_15h38.54.378,
7,global,local,0,0,0,0,6,,,6,exp,TYHNEYUZLETHZSL,HHEFLYYLUSSEZZT,4,N,absent,nN,nN,n,1,0.7019132999703288,n,1,0.25481850001960993,RSVPLG01,0.94,2023-09-12-22:23:06,905,1,Experiment,2023-09-12_15h38.54.378,
9,global,local,7,0,1,1,8,,,7,exp,NFESLHHEUYSTTYF,ETNSZYUFEHUXNHS,5,L,X,lL,yY,l,1,0.6639281999669038,y,1,0.25315850001061335,RSVPLG01,0.94,2023-09-12-22:23:06,905,1,Experiment,2023-09-12_15h38.54.378,
6,local,global,7,0,2,2,5,,,8,exp,EYYFEHSUSNXHNTZ,HYZLZUHYSETENUN,4,L,X,lL,yY,f,0,0.7269225000054576,y,1,0.3019699000287801,RSVPLG01,0.94,2023-09-12-22:23:06,905,1,Experiment,2023-09-12_15h38.54.378,
2,local,local,3,0,3,3,1,,,9,exp,SNETNUZSTZLEYHL,NLNSHFZEXTLEYSZ,6,F,X,fF,yY,h,0,0.6085178999928758,y,1,0.0916395999956876,RSVPLG01,0.94,2023-09-12-22:23:06,905,1,Experiment,2023-09-12_15h38.54.378,
9,global,local,7,0,4,4,8,,,10,exp,SUYFTLFNHYHLSNZ,HYULEHFLZSYXNFU,5,T,X,tT,yY,t,1,0.5273068000096828,y,1,0.2468473000335507,RSVPLG01,0.94,2023-09-12-22:23:06,905,1,Experiment,2023-09-12_15h38.54.378,
12,global,global,7,0,5,5,11,,,11,exp,STSFULYYNEUEXZF,UFENZHTSYFZNUSE,6,L,X,lL,yY,l,1,0.8071716999984346,y,1,0.23375479999231175,RSVPLG01,0.94,2023-09-12-22:23:06,905,1,Experiment,2023-09-12_15h38.54.378,
9,global,local,7,0,6,6,8,,,12,exp,HSFLYUZEHTFYZTL,TSEFZNYHTZLFXLY,6,U,X,uU,yY,u,1,0.5906814999761991,y,1,0.6668405999662355,RSVPLG01,0.94,2023-09-12-22:23:06,905,1,Experiment,2023-09-12_15h38.54.378,
7,global,local,0,0,7,7,6,,,13,exp,NHLNUSZFEFUYYHL,ZYUNUTHZENLYELH,6,S,absent,sS,nN,s,1,0.792513600026723,n,1,0.19342179998056963,RSVPLG01,0.94,2023-09-12-22:23:06,905,1,Experiment,2023-09-12_15h38.54.378,
6,local,global,7,0,8,8,5,,,14,exp,NFTZTLYUUEXLNFE,LYNHUYFNLETSTFU,4,H,X,hH,yY,h,1,0.6734246999840252,n,0,0.06689670000923797,RSVPLG01,0.94,2023-09-12-22:23:06,905,1,Experiment,2023-09-12_15h38.54.378,
8,global,local,3,0,9,9,7,,,15,exp,UTZZNFTHULYSHLS,NYZULESYXTLTHZN,6,F,X,fF,yY,f,1,0.5493760999524966,y,1,0.2615166999748908,RSVPLG01,0.94,2023-09-12-22:23:06,905,1,Experiment,2023-09-12_15h38.54.378,
3,local,local,7,0,10,10,2,,,16,exp,HULYETZHENZUSTL,UZTFULNZETXSHLE,4,F,X,fF,yY,f,1,0.5710686999955215,y,1,0.3953249000478536,RSVPLG01,0.94,2023-09-12-22:23:06,905,1,Experiment,2023-09-12_15h38.54.378,
5,local,global,3,0,11,11,4,,,17,exp,HLNUTNXESTZYLZH,SYTFTZSZNHLELNH,4,F,X,fF,yY,f,1,1.013425900018774,n,0,0.4063516999594867,RSVPLG01,0.94,2023-09-12-22:23:06,905,1,Experiment,2023-09-12_15h38.54.378,
11,global,global,3,1,0,12,10,,,18,exp,HLHNUZXSFESELUZ,ZESYTFUEHFTZLUH,4,N,X,nN,yY,n,1,0.7742598000331782,n,0,0.2710485000279732,RSVPLG01,0.94,2023-09-12-22:23:06,905,1,Experiment,2023-09-12_15h38.54.378,
12,global,global,7,1,1,13,11,,,19,exp,ETSHYLSFYNTEXFZ,SYFZEUHSHTFNNYE,6,L,X,lL,yY,l,1,0.9836443999665789,y,1,0.2733716999646276,RSVPLG01,0.94,2023-09-12-22:23:06,905,1,Experiment,2023-09-12_15h38.54.378,
1,local,local,0,1,2,14,0,,,20,exp,NTLSUZLYNYHZEUT,LTYFELNZUNTUHHY,4,F,absent,fF,nN,f,1,0.6915702000260353,n,1,0.44638710003346205,RSVPLG01,0.94,2023-09-12-22:23:06,905,1,Experiment,2023-09-12_15h38.54.378,
2,local,local,3,1,3,15,1,,,21,exp,LYUSUZNFETNYSFT,LULYFHUNXNSTEST,6,H,X,hH,yY,h,1,1.154092299984768,y,1,0.2342116999789141,RSVPLG01,0.94,2023-09-12-22:23:06,905,1,Experiment,2023-09-12_15h38.54.378,
9,global,local,7,1,4,16,8,,,22,exp,FFZHYSTZLNNLTHU,UZZLHEYTHYNFXTL,6,S,X,sS,yY,s,1,1.4019364999840036,y,1,0.3215038000489585,RSVPLG01,0.94,2023-09-12-22:23:06,905,1,Experiment,2023-09-12_15h38.54.378,
6,local,global,7,1,5,17,5,,,23,exp,NUSYHYZZLFFXLSE,UNSLTEEZLYZUSFN,5,T,X,tT,yY,t,1,0.5383214000030421,y,1,0.8254219000227749,RSVPLG01,0.94,2023-09-12-22:23:06,905,1,Experiment,2023-09-12_15h38.54.378,
7,global,local,0,1,6,18,6,,,24,exp,HLNEZLUNUFEYYFS,LSELTHNYUHFSUNF,5,Z,absent,zZ,nN,z,1,0.8597507000085898,n,1,0.3105175999808125,RSVPLG01,0.94,2023-09-12-22:23:06,905,1,Experiment,2023-09-12_15h38.54.378,
1,local,local,0,1,7,19,0,,,25,exp,HEZTLSUZFYUFSTE,FZESNTUEHFYUSTH,5,N,absent,nN,nN,n,1,0.7136751000070944,n,1,0.025531499995850027,RSVPLG01,0.94,2023-09-12-22:23:06,905,1,Experiment,2023-09-12_15h38.54.378,
1,local,local,0,1,8,20,0,,,26,exp,EUZEFHLYNTNZLTF,ULFNZSNFZUELYTY,6,S,absent,sS,nN,s,1,0.765588000009302,y,0,0.24388309998903424,RSVPLG01,0.94,2023-09-12-22:23:06,905,1,Experiment,2023-09-12_15h38.54.378,
6,local,global,7,1,9,21,5,,,27,exp,NHHZTYLSUELEXZN,TNZHEFLSSNEUTUZ,6,F,X,fF,yY,f,1,1.1418818999663927,y,1,0.3387137000099756,RSVPLG01,0.94,2023-09-12-22:23:06,905,1,Experiment,2023-09-12_15h38.54.378,
1,local,local,0,1,10,22,0,,,28,exp,FTZYLFEUYSZNSNT,NNZTHSEFTUUSFYE,5,H,absent,hH,nN,h,1,0.7083085000049323,n,1,0.2940074999933131,RSVPLG01,0.94,2023-09-12-22:23:06,905,1,Experiment,2023-09-12_15h38.54.378,
8,global,local,3,1,11,23,7,,,29,exp,TUFEHSHEFZYTUNZ,EFNYULTZXHZHUYF,6,S,X,sS,yY,s,1,0.9525831999490038,y,1,0.1964169999700971,RSVPLG01,0.94,2023-09-12-22:23:06,905,1,Experiment,2023-09-12_15h38.54.378,
1,local,local,0,2,0,24,0,,,30,exp,SENUSZYEFFYLUTL,ENLTYHSYFEUNFTS,6,H,absent,hH,nN,h,1,0.6785237999865785,n,1,0.08239150000736117,RSVPLG01,0.94,2023-09-12-22:23:06,905,1,Experiment,2023-09-12_15h38.54.378,
3,local,local,7,2,1,25,2,,,31,exp,SUYTFZLLSHHEEUY,YUHSLNFFEYHSXEU,6,N,X,nN,yY,n,1,0.6262426000321284,y,1,0.1185702999937348,RSVPLG01,0.94,2023-09-12-22:23:06,905,1,Experiment,2023-09-12_15h38.54.378,
9,global,local,7,2,2,26,8,,,32,exp,LFSUNUFHZYTTZSH,ZHYYESZUFHFXLTU,5,N,X,nN,yY,n,1,0.6780655000475235,n,0,0.054272000037599355,RSVPLG01,0.94,2023-09-12-22:23:06,905,1,Experiment,2023-09-12_15h38.54.378,
6,local,global,7,2,3,27,5,,,33,exp,TTEZSYNYFZUXUNE,YEYELTNNFFUHZUZ,5,L,X,lL,yY,s,0,0.4902976999874227,y,1,0.07666540000354871,RSVPLG01,0.94,2023-09-12-22:23:06,905,1,Experiment,2023-09-12_15h38.54.378,
6,local,global,7,2,4,28,5,,,34,exp,YHSFTLTNSEUNXHY,HSTEHZUETSUFNYN,6,Z,X,zZ,yY,z,1,1.0639696000143886,y,1,0.10322649998124689,RSVPLG01,0.94,2023-09-12-22:23:06,905,1,Experiment,2023-09-12_15h38.54.378,
10,global,global,0,2,5,29,9,,,35,exp,SZYSFEFUTZLYLUT,ULSZYHUFSFTLZYN,6,E,absent,eE,nN,e,1,0.7353289999882691,n,1,0.04975319997174665,RSVPLG01,0.94,2023-09-12-22:23:06,905,1,Experiment,2023-09-12_15h38.54.378,
5,local,global,3,2,6,30,4,,,36,exp,YTLFESYXLHSZTNZ,LYHLUSZHYNTTSNZ,5,U,X,uU,yY,u,1,0.5198738999897614,y,1,0.024244199972599745,RSVPLG01,0.94,2023-09-12-22:23:06,905,1,Experiment,2023-09-12_15h38.54.378,
6,local,global,7,2,7,31,5,,,37,exp,HLNUFELZZUYXNHT,ULELSUZTYZNNEHT,5,S,X,sS,yY,s,1,0.8223115000291727,y,1,0.13274919998366386,RSVPLG01,0.94,2023-09-12-22:23:06,905,1,Experiment,2023-09-12_15h38.54.378,
10,global,global,0,2,8,32,9,,,38,exp,YUFEUZLHFTTNZNY,UYYSZLNHTFLUNFH,4,E,absent,eE,nN,e,1,0.9251282999757677,n,1,0.3035846000420861,RSVPLG01,0.94,2023-09-12-22:23:06,905,1,Experiment,2023-09-12_15h38.54.378,
3,local,local,7,2,9,33,2,,,39,exp,FUFNETUYTHNSYSL,HLSUZNYYULTXTNH,5,Z,X,zZ,yY,z,1,0.615616199967917,y,1,0.2405426999903284,RSVPLG01,0.94,2023-09-12-22:23:06,905,1,Experiment,2023-09-12_15h38.54.378,
6,local,global,7,2,10,34,5,,,40,exp,YHSFTNEUHEZXUSY,HEZULFUZHNFEYSN,5,L,X,lL,yY,l,1,0.5380779000115581,y,1,0.5526433000341058,RSVPLG01,0.94,2023-09-12-22:23:06,905,1,Experiment,2023-09-12_15h38.54.378,
12,global,global,7,2,11,35,11,,,41,exp,YUYZHSETNUXFHTS,UENLYSNSEFYHTFU,4,Z,X,zZ,yY,z,1,0.5410251999855973,y,1,1.1674457999761216,RSVPLG01,0.94,2023-09-12-22:23:06,905,1,Experiment,2023-09-12_15h38.54.378,
7,global,local,0,3,0,36,6,,,42,exp,FUYYETSHHTZFSLL,UZSFNLYSHFLTUHY,5,E,absent,eE,nN,e,1,0.6682147000101395,n,1,0.0877854999853298,RSVPLG01,0.94,2023-09-12-22:23:06,905,1,Experiment,2023-09-12_15h38.54.378,
2,local,local,3,3,1,37,1,,,43,exp,NETSHZNTFULSLEU,USSNUYELXHTFFHN,6,Y,X,yY,yY,y,1,0.41424189996905625,y,1,0.22932069998933002,RSVPLG01,0.94,2023-09-12-22:23:06,905,1,Experiment,2023-09-12_15h38.54.378,
9,global,local,7,3,2,38,8,,,44,exp,FSYNTZNYSLETUUF,FNLYTHENFSTUXYU,6,Z,X,zZ,yY,z,1,0.7495843000360765,y,1,1.0878166999900714,RSVPLG01,0.94,2023-09-12-22:23:06,905,1,Experiment,2023-09-12_15h38.54.378,
5,local,global,3,3,3,39,4,,,45,exp,FYHFTNEXSUSELNU,LNYEZSHNUYESUFH,5,Z,X,zZ,yY,z,1,0.39910320000490174,y,1,0.13821539998752996,RSVPLG01,0.94,2023-09-12-22:23:06,905,1,Experiment,2023-09-12_15h38.54.378,
12,global,global,7,3,4,40,11,,,46,exp,HFTNUTEZFZLXYEY,TLEZSNZEHYTFYLN,5,U,X,uU,yY,u,1,0.6783987000235356,y,1,0.3879018999869004,RSVPLG01,0.94,2023-09-12-22:23:06,905,1,Experiment,2023-09-12_15h38.54.378,
6,local,global,7,3,5,41,5,,,47,exp,TNYSYLUTFEXLZZN,YNLHTEZZEUFNYUT,4,H,X,hH,yY,h,1,0.5586826999788173,y,1,0.21378819999517873,RSVPLG01,0.94,2023-09-12-22:23:06,905,1,Experiment,2023-09-12_15h38.54.378,
12,global,global,7,3,6,42,11,,,48,exp,SNYZZHEUTSELXNT,NSLNYFTYEZSELZU,6,H,X,hH,yY,h,1,0.5927622999879532,y,1,0.1281328999903053,RSVPLG01,0.94,2023-09-12-22:23:06,905,1,Experiment,2023-09-12_15h38.54.378,
1,local,local,0,3,7,43,0,,,49,exp,NYLLFSNEHSUUZHY,LHZYTEELHNZUUYS,5,T,absent,tT,nN,t,1,0.8034503000089899,n,1,0.08578010002383962,RSVPLG01,0.94,2023-09-12-22:23:06,905,1,Experiment,2023-09-12_15h38.54.378,
1,local,local,0,3,8,44,0,,,50,exp,UFSYYLHNEFEZUHS,ENUYETNHFZUYFSH,6,T,absent,tT,nN,t,1,0.7218354000360705,n,1,0.26010309997946024,RSVPLG01,0.94,2023-09-12-22:23:06,905,1,Experiment,2023-09-12_15h38.54.378,
12,global,global,7,3,9,45,11,,,51,exp,YTFLUESFYTHLXNH,SSULLZYNUNFFHHT,6,E,X,eE,yY,e,1,0.768953800026793,y,1,0.14522499998565763,RSVPLG01,0.94,2023-09-12-22:23:06,905,1,Experiment,2023-09-12_15h38.54.378,
3,local,local,7,3,10,46,2,,,52,exp,TEUEYLNTHZUHLSN,ZUSEFSLEHLTXZNH,5,F,X,fF,yY,f,1,0.562135300016962,y,1,0.22496439999667928,RSVPLG01,0.94,2023-09-12-22:23:06,905,1,Experiment,2023-09-12_15h38.54.378,
4,local,global,0,3,11,47,3,,,53,exp,HYUELSZFUFYEHZT,ZTFUNSFYZHSUTHY,5,N,absent,nN,nN,n,1,0.6489721999969333,y,0,0.27672040002653375,RSVPLG01,0.94,2023-09-12-22:23:06,905,1,Experiment,2023-09-12_15h38.54.378,
2,local,local,3,4,0,48,1,,,54,exp,FHLZUEFNNSULTHE,FUTYLTXENHHFLUE,4,Y,X,yY,yY,y,1,0.6153418000321835,y,1,0.06764600001042709,RSVPLG01,0.94,2023-09-12-22:23:06,905,1,Experiment,2023-09-12_15h38.54.378,
11,global,global,3,4,1,49,10,,,55,exp,NTUSETXLEZNHUYZ,ZLZFUTHLYETHENN,4,S,X,sS,yY,s,1,0.42970590002369136,n,0,0.22820579999824986,RSVPLG01,0.94,2023-09-12-22:23:06,905,1,Experiment,2023-09-12_15h38.54.378,
9,global,local,7,4,2,50,8,,,56,exp,NYFHUYTEENZUSZS,SEULYTUTFZXYFNE,4,H,X,hH,yY,h,1,0.3754149000160396,y,1,0.035545699996873736,RSVPLG01,0.94,2023-09-12-22:23:06,905,1,Experiment,2023-09-12_15h38.54.378,
9,global,local,7,4,3,51,8,,,57,exp,FHFYELZNNTETSZS,ESZUNTHFLZXSTEN,4,Y,X,yY,yY,y,1,0.7235920999664813,y,1,0.3856951000052504,RSVPLG01,0.94,2023-09-12-22:23:06,905,1,Experiment,2023-09-12_15h38.54.378,
8,global,local,3,4,4,52,7,,,58,exp,FNZYLHELSHNUEZU,SUETHEXZHZLFSLN,4,Y,X,yY,yY,y,1,0.7549035999691114,n,0,3.0700839000055566,RSVPLG01,0.94,2023-09-12-22:23:06,905,1,Experiment,2023-09-12_15h38.54.378,
7,global,local,0,4,5,53,6,,,59,exp,NEHZNYTUTYLFHEF,HTNSUUNFYLEYLFE,4,Z,absent,zZ,nN,z,1,0.6001695999875665,n,1,0.10917439998593181,RSVPLG01,0.94,2023-09-12-22:23:06,905,1,Experiment,2023-09-12_15h38.54.378,
12,global,global,7,4,6,54,11,,,60,exp,LEUYTZHSUESXHFZ,LZLSNUZYEEFUSHF,5,T,X,tT,yY,t,1,0.89723140001297,y,1,0.49834910000208765,RSVPLG01,0.94,2023-09-12-22:23:06,905,1,Experiment,2023-09-12_15h38.54.378,
11,global,global,3,4,7,55,10,,,61,exp,FLELYSZXUSNFUNT,LFESHTEUZSNZFTU,5,Y,X,yY,yY,y,1,0.5920435999869369,y,1,0.0810666999896057,RSVPLG01,0.94,2023-09-12-22:23:06,905,1,Experiment,2023-09-12_15h38.54.378,
1,local,local,0,4,8,56,0,,,62,exp,NHFTHEYNSUYLUSL,YUUZNHHNFLLYFES,4,Z,absent,zZ,nN,z,1,1.0102328000357375,n,1,0.05417939997278154,RSVPLG01,0.94,2023-09-12-22:23:06,905,1,Experiment,2023-09-12_15h38.54.378,
12,global,global,7,4,9,57,11,,,63,exp,TFTZFLSENUHSXUE,TZSHHYZUSENFFNT,6,L,X,lL,yY,l,1,21.021268800017424,n,0,0.9843660999904387,RSVPLG01,0.94,2023-09-12-22:23:06,905,1,Experiment,2023-09-12_15h38.54.378,
10,global,global,0,4,10,58,9,,,64,exp,TFTSFUNZNELHSHL,FZNTZYESHSLNTHL,6,U,absent,uU,nN,u,1,0.9615762999746948,n,1,0.05676049995236099,RSVPLG01,0.94,2023-09-12-22:23:06,905,1,Experiment,2023-09-12_15h38.54.378,
10,global,global,0,4,11,59,9,,,65,exp,TSSYZLNHLHEUNTE,ETZFSUSLELZTUNN,4,Y,absent,yY,nN,y,1,0.5573365000309423,n,1,0.13453059998573735,RSVPLG01,0.94,2023-09-12-22:23:06,905,1,Experiment,2023-09-12_15h38.54.378,
11,global,global,3,5,0,60,10,,,66,exp,UYENSTEXNZLUZYL,TZUFHTNUFYLZYEE,5,S,X,sS,yY,s,1,0.3115485000307672,y,1,0.10504650004440919,RSVPLG01,0.94,2023-09-12-22:23:06,905,1,Experiment,2023-09-12_15h38.54.378,
8,global,local,3,5,1,61,7,,,67,exp,HFYTEHZSLEUFZLY,SELNYHXSUFYELZZ,4,T,X,tT,yY,t,1,0.4407911999733187,y,1,0.06871669995598495,RSVPLG01,0.94,2023-09-12-22:23:06,905,1,Experiment,2023-09-12_15h38.54.378,
6,local,global,7,5,2,62,5,,,68,exp,HFTYZTFLNESXELH,NFFYUSSELHTTYNH,5,U,X,uU,yY,u,1,0.5871697000111453,y,1,3.299783899972681,RSVPLG01,0.94,2023-09-12-22:23:06,905,1,Experiment,2023-09-12_15h38.54.378,
4,local,global,0,5,3,63,3,,,69,exp,FTUFNSUZTESYHEY,HFUSLYUESZTFTEY,5,L,absent,lL,nN,l,1,0.5871505999821238,y,0,1.6424889999907464,RSVPLG01,0.94,2023-09-12-22:23:06,905,1,Experiment,2023-09-12_15h38.54.378,
1,local,local,0,5,4,64,0,,,70,exp,FZZYESNHSFULNHL,YFHUTSLSZNLUZFN,5,T,absent,tT,nN,t,1,0.9377137999981642,n,1,0.5175210000015795,RSVPLG01,0.94,2023-09-12-22:23:06,905,1,Experiment,2023-09-12_15h38.54.378,
12,global,global,7,5,5,65,11,,,71,exp,SLTNZHHFSLXUUTY,FSSEULYFHTZZHYU,4,N,X,nN,yY,n,1,0.43065569997997954,y,1,0.2043036000104621,RSVPLG01,0.94,2023-09-12-22:23:06,905,1,Experiment,2023-09-12_15h38.54.378,
7,global,local,0,5,6,66,6,,,72,exp,FNEYSUTTSEHHUNL,FFTZSSLNEHUHLUN,4,Y,absent,yY,nN,y,1,0.7796602000016719,n,1,0.11609959998168051,RSVPLG01,0.94,2023-09-12-22:23:06,905,1,Experiment,2023-09-12_15h38.54.378,
1,local,local,0,5,7,67,0,,,73,exp,ELHNSZTYTFYLEHS,HYETTUNESFFLHYN,6,U,absent,uU,nN,u,1,0.5095482000033371,n,1,0.0791923000360839,RSVPLG01,0.94,2023-09-12-22:23:06,905,1,Experiment,2023-09-12_15h38.54.378,
10,global,global,0,5,8,68,9,,,74,exp,HZUUSZYLHYTTLFE,YLTUNZHETFHFZLU,5,S,absent,sS,nN,s,1,0.46541740000247955,n,1,0.8088257999625057,RSVPLG01,0.94,2023-09-12-22:23:06,905,1,Experiment,2023-09-12_15h38.54.378,
4,local,global,0,5,9,69,3,,,75,exp,NTLSFEHTUYULHYF,YHYSHZTFLLNUUFN,6,Z,absent,zZ,nN,z,1,0.47976389998802915,n,1,0.5886757000116631,RSVPLG01,0.94,2023-09-12-22:23:06,905,1,Experiment,2023-09-12_15h38.54.378,
12,global,global,7,5,10,70,11,,,76,exp,NZFUSLYYUENXHHF,UEUFTHLNZNEFHYZ,5,S,X,sS,yY,s,1,0.6595915999496356,y,1,0.06476440001279116,RSVPLG01,0.94,2023-09-12-22:23:06,905,1,Experiment,2023-09-12_15h38.54.378,
8,global,local,3,5,11,71,7,,,77,exp,UYFTTEHYHLUSSFL,YNTLFZFUXYNTHSL,6,E,X,eE,yY,e,1,0.35017750004772097,y,1,0.5499532000394538,RSVPLG01,0.94,2023-09-12-22:23:06,905,1,Experiment,2023-09-12_15h38.54.378,
6,local,global,7,6,0,72,5,,,78,exp,YFUYHTFZETNXEUS,NFZZLSYFSUUTEYE,5,L,X,lL,yY,l,1,0.6856023000436835,y,1,0.29312129999743775,RSVPLG01,0.94,2023-09-12-22:23:06,905,1,Experiment,2023-09-12_15h38.54.378,
12,global,global,7,6,1,73,11,,,79,exp,ZHZTFYSFHNETXSU,NFSSELZNFTUUHTE,6,Y,X,yY,yY,y,1,0.9185640999930911,y,1,0.6460491000325419,RSVPLG01,0.94,2023-09-12-22:23:06,905,1,Experiment,2023-09-12_15h38.54.378,
12,global,global,7,6,2,74,11,,,80,exp,ZNLHLEFYHUSZXNU,FNNHUTLZSSZLUFY,6,E,X,eE,yY,e,1,0.9592260000063106,y,1,0.18071929999860004,RSVPLG01,0.94,2023-09-12-22:23:06,905,1,Experiment,2023-09-12_15h38.54.378,
5,local,global,3,6,3,75,4,,,81,exp,HTFELNXYUUSHFNL,SYTZUUSLFYTNFHL,4,Z,X,zZ,yY,z,1,0.39015729998936877,y,1,0.061875700019299984,RSVPLG01,0.94,2023-09-12-22:23:06,905,1,Experiment,2023-09-12_15h38.54.378,
6,local,global,7,6,4,76,5,,,82,exp,LSZHSENYTNTLXHY,LLZSHUNTSNYZTFY,6,U,X,uU,yY,u,1,0.6541212000302039,y,1,0.17826430004788563,RSVPLG01,0.94,2023-09-12-22:23:06,905,1,Experiment,2023-09-12_15h38.54.378,
5,local,global,3,6,5,77,4,,,83,exp,FENZLTUXSHZTNSE,SENHYZZESFTNFUH,5,Y,X,yY,yY,z,0,1.4807006000191905,n,0,0.5429806999745779,RSVPLG01,0.94,2023-09-12-22:23:06,905,1,Experiment,2023-09-12_15h38.54.378,
11,global,global,3,6,6,78,10,,,84,exp,HZUSEYELXSZHNTT,UTNLSFZLUHTHSZE,6,Y,X,yY,yY,y,1,0.44469109998317435,y,1,0.11772510001901537,RSVPLG01,0.94,2023-09-12-22:23:06,905,1,Experiment,2023-09-12_15h38.54.378,
5,local,global,3,6,7,79,4,,,85,exp,ZSUYNFLLXENZYUE,EYSTTHZEUULYNNZ,6,H,X,hH,yY,h,1,0.4625565000460483,n,0,0.19861059996765107,RSVPLG01,0.94,2023-09-12-22:23:06,905,1,Experiment,2023-09-12_15h38.54.378,
3,local,local,7,6,8,80,2,,,86,exp,FSFTHZLENYTNLES,LSESTUNYTFYNXLE,6,U,X,uU,yY,u,1,1.0366985000437126,y,1,2.0164204000029713,RSVPLG01,0.94,2023-09-12-22:23:06,905,1,Experiment,2023-09-12_15h38.54.378,
4,local,global,0,6,9,81,3,,,87,exp,YHSELLUNTTSNYFH,NYUZLHSYFTTLUNS,4,Z,absent,zZ,nN,z,1,0.7584383999928832,n,1,0.4090000999858603,RSVPLG01,0.94,2023-09-12-22:23:06,905,1,Experiment,2023-09-12_15h38.54.378,
10,global,global,0,6,10,82,9,,,88,exp,ZYZFNFUELYUSHSE,YHLYTZHSFUSZEEF,5,N,absent,nN,nN,n,1,0.7238889000145718,n,1,0.22717830003239214,RSVPLG01,0.94,2023-09-12-22:23:06,905,1,Experiment,2023-09-12_15h38.54.378,
9,global,local,7,6,11,83,8,,,89,exp,NSEYULNETZHZTSH,SHTNFSEYNLEXHLY,5,U,X,uU,yY,u,1,0.5509833000251092,y,1,0.1364127999986522,RSVPLG01,0.94,2023-09-12-22:23:06,905,1,Experiment,2023-09-12_15h38.54.378,
5,local,global,3,7,0,84,4,,,90,exp,YHZSSUETXTZNFYF,ZSEHTLSFENTYFZY,6,L,X,lL,yY,l,1,0.3581684999517165,y,1,0.050051000027451664,RSVPLG01,0.94,2023-09-12-22:23:06,905,1,Experiment,2023-09-12_15h38.54.378,
3,local,local,7,7,1,85,2,,,91,exp,ULFEZYTFLNYSNSU,NSSYHFETNUFXEUL,5,H,X,hH,yY,y,0,2.423303699993994,n,0,0.07802820001961663,RSVPLG01,0.94,2023-09-12-22:23:06,905,1,Experiment,2023-09-12_15h38.54.378,
8,global,local,3,7,2,86,7,,,92,exp,SETHYUFTHLFLSEU,UNNEZLLXTHFSFEU,5,Y,X,yY,yY,y,1,0.2885819000075571,y,1,0.1162878000177443,RSVPLG01,0.94,2023-09-12-22:23:06,905,1,Experiment,2023-09-12_15h38.54.378,
9,global,local,7,7,3,87,8,,,93,exp,TNEZHTELLHYNUSY,SNTFHHLNSLXUYEU,4,Z,X,zZ,yY,z,1,0.4143360999878496,y,1,0.6197465999866836,RSVPLG01,0.94,2023-09-12-22:23:06,905,1,Experiment,2023-09-12_15h38.54.378,
9,global,local,7,7,4,88,8,,,94,exp,FTYHYSZFELTSLZN,ESNUFYETLLXTFYZ,4,H,X,hH,yY,h,1,0.4946478999918327,y,1,0.20020560000557452,RSVPLG01,0.94,2023-09-12-22:23:06,905,1,Experiment,2023-09-12_15h38.54.378,
1,local,local,0,7,5,89,0,,,95,exp,ZHELYTNUELSUTHZ,ETNLFZEHSZHSTUL,5,F,absent,fF,nN,f,1,1.4350857000099495,y,0,0.2267250000149943,RSVPLG01,0.94,2023-09-12-22:23:06,905,1,Experiment,2023-09-12_15h38.54.378,
3,local,local,7,7,6,90,2,,,96,exp,STNFHZEEYYLHNLZ,LNZUELHHTYXSTES,4,U,X,uU,yY,u,1,0.43547169998055324,y,1,0.2298704000422731,RSVPLG01,0.94,2023-09-12-22:23:06,905,1,Experiment,2023-09-12_15h38.54.378,
7,global,local,0,7,7,91,6,,,97,exp,TLEELUFTSFHZSNZ,LLSTHYNSEFZTNFH,6,U,absent,uU,nN,u,1,0.8075699000037275,n,1,0.1411221000016667,RSVPLG01,0.94,2023-09-12-22:23:06,905,1,Experiment,2023-09-12_15h38.54.378,
1,local,local,0,7,8,92,0,,,98,exp,SZYUFSTEHLHEYFT,SFLNHTZELTHYSZF,4,N,absent,nN,nN,h,0,1.7013917000149377,n,1,0.09260530001483858,RSVPLG01,0.94,2023-09-12-22:23:06,905,1,Experiment,2023-09-12_15h38.54.378,
10,global,global,0,7,9,93,9,,,99,exp,HTHSEFNLULTUYNY,NTFZEELYNUHHFUY,4,S,absent,sS,nN,s,1,0.5564564999658614,y,0,0.11864639999112114,RSVPLG01,0.94,2023-09-12-22:23:06,905,1,Experiment,2023-09-12_15h38.54.378,
2,local,local,3,7,10,94,1,,,100,exp,TYUHFETUZYNENLF,TTUSEZXYLLZNFUY,4,S,X,sS,yY,s,1,0.2547111000167206,y,1,0.13339649996487424,RSVPLG01,0.94,2023-09-12-22:23:06,905,1,Experiment,2023-09-12_15h38.54.378,
8,global,local,3,7,11,95,7,,,101,exp,TLSHLETYEZNZUNY,YNUFYLXULTZEZST,4,H,X,hH,yY,h,1,0.29213209997396916,y,1,0.2131703000050038,RSVPLG01,0.94,2023-09-12-22:23:06,905,1,Experiment,2023-09-12_15h38.54.378,
11,global,global,3,8,0,96,10,,,102,exp,STLUZYEXYLNTFSU,UNEEHYLFYUSLSTT,5,Z,X,zZ,yY,z,1,0.29810600000200793,y,1,0.06555619998835027,RSVPLG01,0.94,2023-09-12-22:23:06,905,1,Experiment,2023-09-12_15h38.54.378,
2,local,local,3,8,1,97,1,,,103,exp,HULSZNYYLSTTFHF,SLUTYEFHXSZHFTZ,6,E,X,eE,yY,e,1,0.5158416000194848,y,1,0.30983360001118854,RSVPLG01,0.94,2023-09-12-22:23:06,905,1,Experiment,2023-09-12_15h38.54.378,
12,global,global,7,8,2,98,11,,,104,exp,YLNUZEFHFYEXSLU,HLFETYLUFHSNSYU,5,Z,X,zZ,yY,z,1,0.5511950000072829,n,0,0.12792180001270026,RSVPLG01,0.94,2023-09-12-22:23:06,905,1,Experiment,2023-09-12_15h38.54.378,
9,global,local,7,8,3,99,8,,,105,exp,THSHZLNNYYLUUSE,SNHLFEHSYYTXUTN,5,Z,X,zZ,yY,z,1,0.4481400999939069,y,1,0.039281000033952296,RSVPLG01,0.94,2023-09-12-22:23:06,905,1,Experiment,2023-09-12_15h38.54.378,
2,local,local,3,8,4,100,1,,,106,exp,USYHESLENTUFNYF,UTTZEYXSNNFUYEL,4,Z,X,zZ,yY,z,1,0.5776996000204235,n,0,0.04206130001693964,RSVPLG01,0.94,2023-09-12-22:23:06,905,1,Experiment,2023-09-12_15h38.54.378,
12,global,global,7,8,5,101,11,,,107,exp,EYELTUZSFUHXHYZ,YZHFNYHZUSUSFEL,5,T,X,tT,yY,t,1,0.45780630002263933,y,1,0.22750550002092496,RSVPLG01,0.94,2023-09-12-22:23:06,905,1,Experiment,2023-09-12_15h38.54.378,
6,local,global,7,8,6,102,5,,,108,exp,TZLNTSYHHUXYEEZ,YYEFTLHSULSZTUH,4,F,X,fF,yY,f,1,0.36286870000185445,y,1,0.015104099991731346,RSVPLG01,0.94,2023-09-12-22:23:06,905,1,Experiment,2023-09-12_15h38.54.378,
2,local,local,3,8,7,103,1,,,109,exp,FHYFLSETUZTEZLU,YEZLHNHTXZYFUTE,6,N,X,nN,yY,n,1,0.5868236999958754,n,0,0.052858499984722584,RSVPLG01,0.94,2023-09-12-22:23:06,905,1,Experiment,2023-09-12_15h38.54.378,
4,local,global,0,8,8,104,3,,,110,exp,TZFSHNLNLTUYYUS,YFZUEULNSTSNLTF,5,E,absent,eE,nN,e,1,0.5902944999979809,n,1,0.056553700007498264,RSVPLG01,0.94,2023-09-12-22:23:06,905,1,Experiment,2023-09-12_15h38.54.378,
2,local,local,3,8,9,105,1,,,111,exp,YSLELZEFUYNFUSH,EYUSNTFHXNSUELF,6,T,X,tT,yY,t,1,0.5278996999841183,n,0,0.08305170002859086,RSVPLG01,0.94,2023-09-12-22:23:06,905,1,Experiment,2023-09-12_15h38.54.378,
7,global,local,0,8,10,106,6,,,112,exp,HUTZUYHLTNSLSZE,EZHTUFNUTNEZSLL,6,Y,absent,yY,nN,y,1,0.8848520999890752,n,1,0.4394066999666393,RSVPLG01,0.94,2023-09-12-22:23:06,905,1,Experiment,2023-09-12_15h38.54.378,
4,local,global,0,8,11,107,3,,,113,exp,HHNFYUZNSLSTUZL,LZSEHZUYULSHNTT,4,E,absent,eE,nN,e,1,0.560656099987682,n,1,0.10337249998701736,RSVPLG01,0.94,2023-09-12-22:23:06,905,1,Experiment,2023-09-12_15h38.54.378,
4,local,global,0,9,0,108,3,,,114,exp,USTNESFNFYYLHUL,SNHUZFFTUSTHYYL,5,Z,absent,zZ,nN,s,0,1.697808300028555,n,1,0.4526756000122987,RSVPLG01,0.94,2023-09-12-22:23:06,905,1,Experiment,2023-09-12_15h38.54.378,
7,global,local,0,9,1,109,6,,,115,exp,UESNULFTTYFHSHE,SUYZTLUEHFFEYHS,4,N,absent,nN,nN,n,1,0.553066199994646,n,1,0.1754423000384122,RSVPLG01,0.94,2023-09-12-22:23:06,905,1,Experiment,2023-09-12_15h38.54.378,
11,global,global,3,9,2,110,10,,,116,exp,SYFZNHHXTEFZSYE,ZTSULHTEEYUHFFY,5,N,X,nN,yY,n,1,0.6745576999965124,n,0,0.08899929997278377,RSVPLG01,0.94,2023-09-12-22:23:06,905,1,Experiment,2023-09-12_15h38.54.378,
4,local,global,0,9,3,111,3,,,117,exp,SUTFENSNTZLZUYL,UTEHZZNYTYULNLS,4,H,absent,hH,nN,h,1,0.5456202999921516,n,1,0.08899000001838431,RSVPLG01,0.94,2023-09-12-22:23:06,905,1,Experiment,2023-09-12_15h38.54.378,
5,local,global,3,9,4,112,4,,,118,exp,NELNUSTXTYESHHY,TYHYFTNELSNZZHS,5,F,X,fF,yY,f,1,0.4132128999917768,y,1,0.03914109995821491,RSVPLG01,0.94,2023-09-12-22:23:06,905,1,Experiment,2023-09-12_15h38.54.378,
11,global,global,3,9,5,113,10,,,119,exp,YUNZEFNXHHTFTSU,UFHULNZTYFZTSSY,5,E,X,eE,yY,e,1,0.5249007000238635,n,0,0.07871939998585731,RSVPLG01,0.94,2023-09-12-22:23:06,905,1,Experiment,2023-09-12_15h38.54.378,
6,local,global,7,9,6,114,5,,,120,exp,EFSLLUFETHHNXYN,LTYHFZENHSNSFET,6,Z,X,zZ,yY,z,1,0.4196898000082001,y,1,0.5243154999916442,RSVPLG01,0.94,2023-09-12-22:23:06,905,1,Experiment,2023-09-12_15h38.54.378,
10,global,global,0,9,7,115,9,,,121,exp,ETYHZTNFUYEFNUS,YETULHYTFUESNHN,5,Z,absent,zZ,nN,z,1,0.9653945000027306,y,0,0.5995456000091508,RSVPLG01,0.94,2023-09-12-22:23:06,905,1,Experiment,2023-09-12_15h38.54.378,
11,global,global,3,9,8,116,10,,,122,exp,ZSZYNEUXYSTUTHE,LEZYFUYUSTLEZHT,5,N,X,nN,yY,n,1,0.39647830004105344,y,1,0.320317099976819,RSVPLG01,0.94,2023-09-12-22:23:06,905,1,Experiment,2023-09-12_15h38.54.378,
10,global,global,0,9,9,117,9,,,123,exp,HENULSLHTTSYYEZ,YENFTSHHLTZZNYE,4,U,absent,uU,nN,u,1,0.8247087000054307,n,1,0.621155800006818,RSVPLG01,0.94,2023-09-12-22:23:06,905,1,Experiment,2023-09-12_15h38.54.378,
4,local,global,0,9,10,118,3,,,124,exp,HTULZNYZHFUEENT,ZETSZYTHNFUYNHU,4,S,absent,sS,nN,s,1,0.48928349994821474,n,1,0.29917670000577345,RSVPLG01,0.94,2023-09-12-22:23:06,905,1,Experiment,2023-09-12_15h38.54.378,
3,local,local,7,9,11,119,2,,,125,exp,LTYFSNENEZTHHSZ,ESZUHNLLHNXTESZ,4,U,X,uU,yY,u,1,0.4105218999902718,y,1,0.21325600001728162,RSVPLG01,0.94,2023-09-12-22:23:06,905,1,Experiment,2023-09-12_15h38.54.378,
8,global,local,3,10,0,120,7,,,126,exp,TNUEZYYTSUSLNLH,LSUNFNUXHYETTES,5,Z,X,zZ,yY,z,1,0.2856642999686301,y,1,0.14323260000674054,RSVPLG01,0.94,2023-09-12-22:23:06,905,1,Experiment,2023-09-12_15h38.54.378,
8,global,local,3,10,1,121,7,,,127,exp,LHHTNNLZSFZESFY,YEZUHLXNHLEZYSN,4,T,X,tT,yY,t,1,0.9620236000046134,n,0,0.15776650002226233,RSVPLG01,0.94,2023-09-12-22:23:06,905,1,Experiment,2023-09-12_15h38.54.378,
4,local,global,0,10,2,122,3,,,128,exp,LNZZTHSLEHSYYEF,EFLSUZSEHYHZFNL,5,U,absent,uU,nN,u,1,0.4826712000067346,n,1,0.12349020002875477,RSVPLG01,0.94,2023-09-12-22:23:06,905,1,Experiment,2023-09-12_15h38.54.378,
1,local,local,0,10,3,123,0,,,129,exp,FNSHFTNZYUSTZEY,EYTLFSUZNNFETSZ,4,L,absent,lL,nN,l,1,0.4122048999997787,n,1,0.2728058000211604,RSVPLG01,0.94,2023-09-12-22:23:06,905,1,Experiment,2023-09-12_15h38.54.378,
6,local,global,7,10,4,124,5,,,130,exp,YSNUESHNFUYXFHT,HTFFZTUYNULYSLS,5,Z,X,zZ,yY,z,1,0.32200270000612363,y,1,0.033828600018750876,RSVPLG01,0.94,2023-09-12-22:23:06,905,1,Experiment,2023-09-12_15h38.54.378,
4,local,global,0,10,5,125,3,,,131,exp,FHUUSLLTYNFYENT,EUHFZEYHLYNNFTL,5,Z,absent,zZ,nN,z,1,0.618816300004255,n,1,0.28784810000797734,RSVPLG01,0.94,2023-09-12-22:23:06,905,1,Experiment,2023-09-12_15h38.54.378,
2,local,local,3,10,6,126,1,,,132,exp,LZSHYUZTNUFFNTL,TLHNESZXUSFLFNZ,5,E,X,eE,yY,e,1,0.42723709996789694,y,1,0.8062483999528922,RSVPLG01,0.94,2023-09-12-22:23:06,905,1,Experiment,2023-09-12_15h38.54.378,
11,global,global,3,10,7,127,10,,,133,exp,HEZEFYZXUHNUYTL,YTUZSLLEHNTZUHE,5,F,X,fF,yY,s,0,0.3043335999827832,y,1,0.17813450004905462,RSVPLG01,0.94,2023-09-12-22:23:06,905,1,Experiment,2023-09-12_15h38.54.378,
10,global,global,0,10,8,128,9,,,134,exp,SLSFEHEZLUZTUNH,TZLYSNLHHZUNEUT,4,F,absent,fF,nN,f,1,0.4734441000036895,n,1,0.10625149996485561,RSVPLG01,0.94,2023-09-12-22:23:06,905,1,Experiment,2023-09-12_15h38.54.378,
11,global,global,3,10,9,129,10,,,135,exp,ZTSHLHTXFNNYSEF,FYTZUNEHYESHFTZ,5,L,X,lL,yY,l,1,0.30775569996330887,y,1,0.1110251999925822,RSVPLG01,0.94,2023-09-12-22:23:06,905,1,Experiment,2023-09-12_15h38.54.378,
1,local,local,0,10,10,130,0,,,136,exp,ZNTHETFLZYNEYFS,SFLUTFEYSTZNLNY,4,U,absent,uU,nN,u,1,0.5840131000149995,n,1,0.10955029999604449,RSVPLG01,0.94,2023-09-12-22:23:06,905,1,Experiment,2023-09-12_15h38.54.378,
3,local,local,7,10,11,131,2,,,137,exp,YLYTLFZUHSNHZUS,USFEYLUYZSXHNLF,4,E,X,eE,yY,e,1,0.5057271999539807,y,1,0.1408246000064537,RSVPLG01,0.94,2023-09-12-22:23:06,905,1,Experiment,2023-09-12_15h38.54.378,
8,global,local,3,11,0,132,7,,,138,exp,YEUZFYHTNSTEFHS,THNLSUXNFTUSYEE,4,Z,X,zZ,yY,z,1,0.23144480003975332,y,1,0.18525820004288107,RSVPLG01,0.94,2023-09-12-22:23:06,905,1,Experiment,2023-09-12_15h38.54.378,
7,global,local,0,11,1,133,6,,,139,exp,ZNZHNUFYTLYLFEE,NETYTSFNZYELHFL,6,U,absent,uU,nN,u,1,0.5946363999973983,n,1,0.1200844999984838,RSVPLG01,0.94,2023-09-12-22:23:06,905,1,Experiment,2023-09-12_15h38.54.378,
5,local,global,3,11,2,134,4,,,140,exp,ULSTELXFFYYZSNN,YLNHSZFUSZFEENL,4,H,X,hH,yY,h,1,0.5524460999877192,n,0,0.054178700025659055,RSVPLG01,0.94,2023-09-12-22:23:06,905,1,Experiment,2023-09-12_15h38.54.378,
4,local,global,0,11,3,135,3,,,141,exp,ZLHLNUHNFFEYZYS,EYSZZTNFLYHNFSE,6,T,absent,tT,nN,t,1,0.6935514999786392,n,1,0.14569490001304075,RSVPLG01,0.94,2023-09-12-22:23:06,905,1,Experiment,2023-09-12_15h38.54.378,
2,local,local,3,11,4,136,1,,,142,exp,USFELHLUZYYZSNH,SHNTUUXLHYZLSNY,4,T,X,tT,yY,t,1,0.3941012999857776,y,1,0.07328419998520985,RSVPLG01,0.94,2023-09-12-22:23:06,905,1,Experiment,2023-09-12_15h38.54.378,
12,global,global,7,11,5,137,11,,,143,exp,SEULNYFSEHHZXFL,FHLLSTEFZHNSZNU,6,Y,X,yY,yY,y,1,0.5443530000047758,y,1,0.03759399999398738,RSVPLG01,0.94,2023-09-12-22:23:06,905,1,Experiment,2023-09-12_15h38.54.378,
4,local,global,0,11,6,138,3,,,144,exp,FZHUYLTHNTEEFUZ,FEELSUTFUHTZNZH,5,S,absent,sS,nN,s,1,0.4024345999932848,n,1,0.17154890001984313,RSVPLG01,0.94,2023-09-12-22:23:06,905,1,Experiment,2023-09-12_15h38.54.378,
11,global,global,3,11,7,139,10,,,145,exp,ZUYEHZFXYENFTNT,UZZULYNESTFYTSF,5,H,X,hH,yY,h,1,0.4395430999575183,y,1,0.06908760004444048,RSVPLG01,0.94,2023-09-12-22:23:06,905,1,Experiment,2023-09-12_15h38.54.378,
12,global,global,7,11,8,140,11,,,146,exp,NYYSFLFZHEXLEUZ,ENNTHLUFLEZZYUY,4,S,X,sS,yY,s,1,0.3437029999913648,y,1,0.0816243999870494,RSVPLG01,0.94,2023-09-12-22:23:06,905,1,Experiment,2023-09-12_15h38.54.378,
3,local,local,7,11,9,141,2,,,147,exp,TUSHFSENZNZYFTE,TYULFESZSEXFNUN,4,L,X,lL,yY,l,1,0.40048950002528727,y,1,0.08837890002178028,RSVPLG01,0.94,2023-09-12-22:23:06,905,1,Experiment,2023-09-12_15h38.54.378,
11,global,global,3,11,10,142,10,,,148,exp,HSFTZUYZXLYFSLT,YHHTENTZFSEFSLZ,6,U,X,uU,yY,u,1,0.3493418999714777,y,1,0.06594929995480925,RSVPLG01,0.94,2023-09-12-22:23:06,905,1,Experiment,2023-09-12_15h38.54.378,
3,local,local,7,11,11,143,2,,,149,exp,ZUNSETZYTHSHUYN,UFHTLNYTUSZXSHF,5,L,X,lL,yY,l,1,0.4318026000401005,y,1,0.05242329998873174,RSVPLG01,0.94,2023-09-12-22:23:06,905,1,Experiment,2023-09-12_15h38.54.378,
9,global,local,7,12,0,144,8,,,150,exp,ZFTTLFYNEZHEHNU,UNHZSHFUTYEXYZE,5,L,X,lL,yY,l,1,0.3896231999970041,y,1,0.07218980003381148,RSVPLG01,0.94,2023-09-12-22:23:06,905,1,Experiment,2023-09-12_15h38.54.378,
8,global,local,3,12,1,145,7,,,151,exp,EUZEHLNTNFUFZTS,USEZZYNHXEUFTTH,6,L,X,lL,yY,l,1,0.465408899995964,y,1,0.10023460001684725,RSVPLG01,0.94,2023-09-12-22:23:06,905,1,Experiment,2023-09-12_15h38.54.378,
11,global,global,3,12,2,146,10,,,152,exp,EEFNUZTUXNFHTLY,UYNTLSNELFFHHYE,6,Z,X,zZ,yY,z,1,0.28793639998184517,y,1,0.11352049995912239,RSVPLG01,0.94,2023-09-12-22:23:06,905,1,Experiment,2023-09-12_15h38.54.378,
6,local,global,7,12,3,147,5,,,153,exp,ZTTNYLSFENLXUEF,SFNSHUTFEULEZNZ,5,H,X,hH,yY,h,1,0.3781907999655232,y,1,0.6533808999811299,RSVPLG01,0.94,2023-09-12-22:23:06,905,1,Experiment,2023-09-12_15h38.54.378,
11,global,global,3,12,4,148,10,,,154,exp,SZFYZETNXHLSYHT,FHNSNUYLYLZZSFT,6,E,X,eE,yY,e,1,0.3706282000057399,y,1,0.11832579999463633,RSVPLG01,0.94,2023-09-12-22:23:06,905,1,Experiment,2023-09-12_15h38.54.378,
10,global,global,0,12,5,149,9,,,155,exp,ULNEZHHEFSFSNLY,EYUETFNFHLYUSNL,5,Z,absent,zZ,nN,z,1,0.8029997000121512,n,1,0.07523529999889433,RSVPLG01,0.94,2023-09-12-22:23:06,905,1,Experiment,2023-09-12_15h38.54.378,
3,local,local,7,12,6,150,2,,,156,exp,SNLFHFTUUSYEYLE,UTSFZFUNYYEXTNE,5,Z,X,zZ,yY,z,1,0.46446009998908266,n,0,0.036966599989682436,RSVPLG01,0.94,2023-09-12-22:23:06,905,1,Experiment,2023-09-12_15h38.54.378,
7,global,local,0,12,7,151,6,,,157,exp,UZFEHUFTLZTEYSL,ZTUUNEEYLFZFTLS,5,H,absent,hH,nN,h,1,0.5325167999835685,n,1,0.14111169998068362,RSVPLG01,0.94,2023-09-12-22:23:06,905,1,Experiment,2023-09-12_15h38.54.378,
5,local,global,3,12,8,152,4,,,158,exp,YNFSYZEEXLFHHNT,FENSTULYHHFEYNS,6,U,X,uU,yY,u,1,0.2779699999955483,y,1,0.4978895999956876,RSVPLG01,0.94,2023-09-12-22:23:06,905,1,Experiment,2023-09-12_15h38.54.378,
5,local,global,3,12,9,153,4,,,159,exp,TZTELYXNFFZHNYU,HLTSNYYZFUHTZNU,4,S,X,sS,yY,s,1,0.2520627000485547,y,1,0.12868550000712276,RSVPLG01,0.94,2023-09-12-22:23:06,905,1,Experiment,2023-09-12_15h38.54.378,
3,local,local,7,12,10,154,2,,,160,exp,STHEENSYZTHZUFY,EFSHULHYESTZXTU,6,L,X,lL,yY,n,0,0.4526441000052728,n,0,0.019223300041630864,RSVPLG01,0.94,2023-09-12-22:23:06,905,1,Experiment,2023-09-12_15h38.54.378,
6,local,global,7,12,11,155,5,,,161,exp,FHTUESNYNZZUXEY,NTFUYLFNZEEZTHH,6,L,X,lL,yY,l,1,0.7747009999584407,y,1,0.11204400000860915,RSVPLG01,0.94,2023-09-12-22:23:06,905,1,Experiment,2023-09-12_15h38.54.378,
9,global,local,7,13,0,156,8,,,162,exp,TLUEZFSHFUZYSHT,HTLNUSYZHTXLYSF,4,E,X,eE,yY,e,1,0.44131409999681637,y,1,0.11121569998795167,RSVPLG01,0.94,2023-09-12-22:23:06,905,1,Experiment,2023-09-12_15h38.54.378,
3,local,local,7,13,1,157,2,,,163,exp,FESTUHFTNYNZSEU,NFZUSLSFUNYTXTZ,6,L,X,lL,yY,l,1,0.6206954999943264,n,0,0.082276200002525,RSVPLG01,0.94,2023-09-12-22:23:06,905,1,Experiment,2023-09-12_15h38.54.378,
7,global,local,0,13,2,158,6,,,164,exp,EEFUTFZHSLHULYS,USSUNZLELHZYFHF,5,T,absent,tT,nN,t,1,0.7018592999665998,n,1,0.6551977999624796,RSVPLG01,0.94,2023-09-12-22:23:06,905,1,Experiment,2023-09-12_15h38.54.378,
10,global,global,0,13,3,159,9,,,165,exp,LTHUZENHYNZYLST,ESTFNLNLZZHHSYT,4,U,absent,uU,nN,u,1,0.647617899987381,n,1,0.153190299984999,RSVPLG01,0.94,2023-09-12-22:23:06,905,1,Experiment,2023-09-12_15h38.54.378,
6,local,global,7,13,4,160,5,,,166,exp,LHSFEUYEUNXZLNS,ZNUTELUHLSEYSYN,4,T,X,tT,yY,t,1,0.34815250005340204,y,1,0.17317620001267642,RSVPLG01,0.94,2023-09-12-22:23:06,905,1,Experiment,2023-09-12_15h38.54.378,
4,local,global,0,13,5,161,3,,,167,exp,FESYLHTUSZZYEUL,ZEETUNFZYYLSUSL,6,N,absent,nN,nN,n,1,0.48448719998123124,n,1,0.1826052000396885,RSVPLG01,0.94,2023-09-12-22:23:06,905,1,Experiment,2023-09-12_15h38.54.378,
10,global,global,0,13,6,162,9,,,168,exp,LHYETNNFSZYHLSZ,HHYUYSSZLFNZTTL,4,E,absent,eE,nN,e,1,0.4805675999959931,n,1,0.1511756000109017,RSVPLG01,0.94,2023-09-12-22:23:06,905,1,Experiment,2023-09-12_15h38.54.378,
6,local,global,7,13,7,163,5,,,169,exp,TTYELFZEHSYHXSN,TEYHEUHSZZLSNYL,6,U,X,uU,yY,u,1,0.5173631999641657,y,1,0.02898010000353679,RSVPLG01,0.94,2023-09-12-22:23:06,905,1,Experiment,2023-09-12_15h38.54.378,
8,global,local,3,13,8,164,7,,,170,exp,HFLEUNFSEZZUSYH,SSLUHTEFXEYUFHL,6,N,X,nN,yY,n,1,0.33677130000432953,y,1,0.12227979995077476,RSVPLG01,0.94,2023-09-12-22:23:06,905,1,Experiment,2023-09-12_15h38.54.378,
9,global,local,7,13,9,165,8,,,171,exp,ZSTUTNFLHFSZNLH,NTSYTSLLNFXEHFZ,4,U,X,uU,yY,u,1,0.44064059999072924,y,1,0.040826099982950836,RSVPLG01,0.94,2023-09-12-22:23:06,905,1,Experiment,2023-09-12_15h38.54.378,
2,local,local,3,13,10,166,1,,,172,exp,LUTFENLFUSZSTYN,ZSNUHNUXFSYLTLZ,5,H,X,hH,yY,e,0,0.6614217999740504,n,0,0.5499779999954626,RSVPLG01,0.94,2023-09-12-22:23:06,905,1,Experiment,2023-09-12_15h38.54.378,
3,local,local,7,13,11,167,2,,,173,exp,TNZSHFHTSYLZUUL,ZNHTTELUYLNSXZY,6,E,X,eE,yY,e,1,0.4642957000178285,y,1,0.24578370002564043,RSVPLG01,0.94,2023-09-12-22:23:06,905,1,Experiment,2023-09-12_15h38.54.378,
12,global,global,7,14,0,168,11,,,174,exp,LEFTENYFNYXLSHS,YLNUZSSYEFLEZNH,4,T,X,tT,yY,t,1,0.6218816000036895,n,0,0.18724230001680553,RSVPLG01,0.94,2023-09-12-22:23:06,905,1,Experiment,2023-09-12_15h38.54.378,
3,local,local,7,14,1,169,2,,,175,exp,NTNSEFYUZFZTUEY,HUELTFNNHTXUFEZ,4,L,X,lL,yY,l,1,0.33355500001925975,y,1,0.1925776000134647,RSVPLG01,0.94,2023-09-12-22:23:06,905,1,Experiment,2023-09-12_15h38.54.378,
7,global,local,0,14,2,170,6,,,176,exp,YSHELFUSULFTHTY,FZLNTTUYSHSZUHL,4,E,absent,eE,nN,e,1,0.7467445999500342,n,1,0.19241789996158332,RSVPLG01,0.94,2023-09-12-22:23:06,905,1,Experiment,2023-09-12_15h38.54.378,
1,local,local,0,14,3,171,0,,,177,exp,YNZZSLESEFHUUHN,EZNHHTSFYFEUNZY,6,T,absent,tT,nN,t,1,0.599601799971424,n,1,0.16834859998198226,RSVPLG01,0.94,2023-09-12-22:23:06,905,1,Experiment,2023-09-12_15h38.54.378,
7,global,local,0,14,4,172,6,,,178,exp,LFUTYSLNTYHUZNH,YHNFTELTHYUZNZF,6,S,absent,sS,nN,s,1,0.4222813999513164,n,1,0.15624949999619275,RSVPLG01,0.94,2023-09-12-22:23:06,905,1,Experiment,2023-09-12_15h38.54.378,
5,local,global,3,14,5,173,4,,,179,exp,ETYFUHLXTZFHESY,TFSFNYETSZLHEHY,5,N,X,nN,yY,y,0,0.4501429999945685,n,0,0.18716710002627224,RSVPLG01,0.94,2023-09-12-22:23:06,905,1,Experiment,2023-09-12_15h38.54.378,
2,local,local,3,14,6,174,1,,,180,exp,NZLTFEYUEHZLHTY,LZEUSTHXZHLYNUT,5,S,X,sS,yY,s,1,0.2725415999884717,y,1,0.34865639999043196,RSVPLG01,0.94,2023-09-12-22:23:06,905,1,Experiment,2023-09-12_15h38.54.378,
3,local,local,7,14,7,175,2,,,181,exp,SYHFSZUTLFTLUHE,SHYSLNTEEFUYXLU,6,N,X,nN,yY,n,1,0.4886107000056654,y,1,0.4357126000104472,RSVPLG01,0.94,2023-09-12-22:23:06,905,1,Experiment,2023-09-12_15h38.54.378,
7,global,local,0,14,8,176,6,,,182,exp,LLZYEFTNZHUEHTY,NEYYTSLHZHUEULT,6,F,absent,fF,nN,f,1,0.563544999982696,n,1,0.14540870004566386,RSVPLG01,0.94,2023-09-12-22:23:06,905,1,Experiment,2023-09-12_15h38.54.378,
10,global,global,0,14,9,177,9,,,183,exp,ETFYESNZLULTZUF,LZTEUHETUNFYYZF,6,S,absent,sS,nN,s,1,0.4798758000251837,n,1,0.1076675999793224,RSVPLG01,0.94,2023-09-12-22:23:06,905,1,Experiment,2023-09-12_15h38.54.378,
1,local,local,0,14,10,178,0,,,184,exp,YYNTSEUNZEFFLLZ,NULZHZTYUTELYNF,5,H,absent,hH,nN,h,1,0.5448659000103362,n,1,0.15575979999266565,RSVPLG01,0.94,2023-09-12-22:23:06,905,1,Experiment,2023-09-12_15h38.54.378,
8,global,local,3,14,11,179,7,,,185,exp,FHSTZENEYHYFNUU,ZYULUHXSNSYFEZE,4,T,X,tT,yY,t,1,0.47363969997968525,n,0,0.17721769999479875,RSVPLG01,0.94,2023-09-12-22:23:06,905,1,Experiment,2023-09-12_15h38.54.378,
9,global,local,7,15,0,180,8,,,186,exp,SUUZEFHHLZSLEYY,SYYHZNLLZUETXUH,6,F,X,fF,yY,f,1,0.40536599996266887,y,1,0.11075559997698292,RSVPLG01,0.94,2023-09-12-22:23:06,905,1,Experiment,2023-09-12_15h38.54.378,
4,local,global,0,15,1,181,3,,,187,exp,YHTUEULSTYNFSFH,YNFTZSUTLLFYNSU,5,Z,absent,zZ,nN,z,1,0.46696890000021085,n,1,0.14512120001018047,RSVPLG01,0.94,2023-09-12-22:23:06,905,1,Experiment,2023-09-12_15h38.54.378,
4,local,global,0,15,2,182,3,,,188,exp,FFTLUNSESLZEZTH,TSFUZYZTHESLFUE,6,Y,absent,yY,nN,y,1,0.5696460999897681,n,1,0.19312920002266765,RSVPLG01,0.94,2023-09-12-22:23:06,905,1,Experiment,2023-09-12_15h38.54.378,
4,local,global,0,15,3,183,3,,,189,exp,TLEHFSZZSLNHTEU,HHUSYZEZTTLNLES,5,Y,absent,yY,nN,y,1,0.46840010001324117,n,1,0.12545590003719553,RSVPLG01,0.94,2023-09-12-22:23:06,905,1,Experiment,2023-09-12_15h38.54.378,
5,local,global,3,15,4,184,4,,,190,exp,UFHTSEZXZUTFYLE,FELUNUHYZHZFLEY,5,N,X,nN,yY,n,1,0.5038138999952935,n,0,0.15350449999095872,RSVPLG01,0.94,2023-09-12-22:23:06,905,1,Experiment,2023-09-12_15h38.54.378,
7,global,local,0,15,5,185,6,,,191,exp,FSLNSTHYZUFULTZ,FLLEUTHSFZUTHYY,4,N,absent,nN,nN,n,1,0.49998179997783154,n,1,0.19575130002340302,RSVPLG01,0.94,2023-09-12-22:23:06,905,1,Experiment,2023-09-12_15h38.54.378,
8,global,local,3,15,6,186,7,,,192,exp,FULNTHLSTZZEUES,ZFTYSSXLZTUFULE,4,N,X,nN,yY,n,1,0.38906640000641346,y,1,0.15977849997580051,RSVPLG01,0.94,2023-09-12-22:23:06,905,1,Experiment,2023-09-12_15h38.54.378,
5,local,global,3,15,7,187,4,,,193,exp,EUNSTNXFYHZZEHU,ETULYFNNZUFTEHH,4,L,X,lL,yY,l,1,0.35826690000249073,n,0,0.19825800001854077,RSVPLG01,0.94,2023-09-12-22:23:06,905,1,Experiment,2023-09-12_15h38.54.378,
10,global,global,0,15,8,188,9,,,194,exp,UZSNHUHLEELYTSY,LHZFYUSYZTHESUL,4,N,absent,nN,nN,n,1,0.5874124999972992,n,1,0.22359990002587438,RSVPLG01,0.94,2023-09-12-22:23:06,905,1,Experiment,2023-09-12_15h38.54.378,
10,global,global,0,15,9,189,9,,,195,exp,ULNZYEFUHHSYSFL,HFSTUNEFYYULHSE,4,Z,absent,zZ,nN,z,1,0.5810339999734424,n,1,0.17529549996834248,RSVPLG01,0.94,2023-09-12-22:23:06,905,1,Experiment,2023-09-12_15h38.54.378,
5,local,global,3,15,10,190,4,,,196,exp,NLNLSUESXZFFYYT,NETFYHZLFTSZEYL,6,H,X,hH,yY,h,1,0.5441337000229396,n,0,0.16190830001141876,RSVPLG01,0.94,2023-09-12-22:23:06,905,1,Experiment,2023-09-12_15h38.54.378,
10,global,global,0,15,11,191,9,,,197,exp,HNLFHUESUSLENZY,UYUTZNEHYSEHLNL,4,F,absent,fF,nN,f,1,0.5864562000497244,n,1,0.14557520003290847,RSVPLG01,0.94,2023-09-12-22:23:06,905,1,Experiment,2023-09-12_15h38.54.378,
8,global,local,3,16,0,192,7,,,198,exp,HNHUSTUYFEENZZT,THFTLEZXYNUNZEF,5,S,X,sS,yY,s,1,0.14916759997140616,y,1,0.11628130002645776,RSVPLG01,0.94,2023-09-12-22:23:06,905,1,Experiment,2023-09-12_15h38.54.378,
1,local,local,0,16,1,193,0,,,199,exp,TLNEUTFHNSLUYFH,YSTZNHNUUFYFHST,4,Z,absent,zZ,nN,z,1,0.3609091999824159,n,1,0.21677399997133762,RSVPLG01,0.94,2023-09-12-22:23:06,905,1,Experiment,2023-09-12_15h38.54.378,
7,global,local,0,16,2,194,6,,,200,exp,FYHTESSZZYLHLTN,NSSYULHLTZFNFHT,5,E,absent,eE,nN,u,0,0.5104984999634326,n,1,0.1353003999684006,RSVPLG01,0.94,2023-09-12-22:23:06,905,1,Experiment,2023-09-12_15h38.54.378,
7,global,local,0,16,3,195,6,,,201,exp,EHSSZFLNEULUYHF,SUEHTEYFFSLHLNN,5,Z,absent,zZ,nN,z,1,0.4282472999766469,n,1,0.19463529996573925,RSVPLG01,0.94,2023-09-12-22:23:06,905,1,Experiment,2023-09-12_15h38.54.378,
5,local,global,3,16,4,196,4,,,202,exp,YSUNELTXYLHZTHZ,HULTFLHNNTUZZYS,5,F,X,fF,yY,f,1,0.2648151000030339,y,1,0.10737430001609027,RSVPLG01,0.94,2023-09-12-22:23:06,905,1,Experiment,2023-09-12_15h38.54.378,
5,local,global,3,16,5,197,4,,,203,exp,SHHTZYUXTSFLUFL,YLTFNSLUHSTEUHY,5,N,X,nN,yY,n,1,0.30882720003137365,y,1,0.18163359997561201,RSVPLG01,0.94,2023-09-12-22:23:06,905,1,Experiment,2023-09-12_15h38.54.378,
10,global,global,0,16,6,198,9,,,204,exp,TSLNLFSZZHETFHU,TLSYHFTHZEEZFSL,4,N,absent,nN,nN,n,1,0.40104470000369474,n,1,0.14494089997606352,RSVPLG01,0.94,2023-09-12-22:23:06,905,1,Experiment,2023-09-12_15h38.54.378,
2,local,local,3,16,7,199,1,,,205,exp,ZHFNELSTFSZUTHU,FTUYLHXZUSEELTZ,4,Y,X,yY,yY,n,0,0.13962039997568354,n,0,0.09548740001628175,RSVPLG01,0.94,2023-09-12-22:23:06,905,1,Experiment,2023-09-12_15h38.54.378,
8,global,local,3,16,8,200,7,,,206,exp,UNFZHLFTYTYSSNU,UYFENSXTYHLNFUT,4,Z,X,zZ,yY,z,1,0.16924789996119216,y,1,0.23664439999265596,RSVPLG01,0.94,2023-09-12-22:23:06,905,1,Experiment,2023-09-12_15h38.54.378,
4,local,global,0,16,9,201,3,,,207,exp,ZFFELUNZHLYTNYT,ULYSFTNHHYZUNZT,4,S,absent,sS,nN,s,1,0.2878669000347145,n,1,0.15373570000519976,RSVPLG01,0.94,2023-09-12-22:23:06,905,1,Experiment,2023-09-12_15h38.54.378,
2,local,local,3,16,10,202,1,,,208,exp,YZTFSYLNFHUHNTZ,FNHZEZYXYHTULUN,5,E,X,eE,yY,e,1,0.2862637999933213,y,1,0.1051803000154905,RSVPLG01,0.94,2023-09-12-22:23:06,905,1,Experiment,2023-09-12_15h38.54.378,
12,global,global,7,16,11,203,11,,,209,exp,NLYYTSHEZZETXFN,HTFEYUFHZNLNEZL,6,S,X,sS,yY,s,1,0.4346963000134565,y,1,0.09688139997888356,RSVPLG01,0.94,2023-09-12-22:23:06,905,1,Experiment,2023-09-12_15h38.54.378,
2,local,local,3,17,0,204,1,,,210,exp,EUTTLUESFNYNYZF,ZTUZHFFXESNUENY,5,H,X,hH,yY,h,1,0.2982159000239335,y,1,0.14683799998601899,RSVPLG01,0.94,2023-09-12-22:23:06,905,1,Experiment,2023-09-12_15h38.54.378,
9,global,local,7,17,1,205,8,,,211,exp,FLTNUSELTFSZEZY,LLYTHFZFTNSXSEE,5,U,X,uU,yY,u,1,0.334785400016699,y,1,0.08670549996895716,RSVPLG01,0.94,2023-09-12-22:23:06,905,1,Experiment,2023-09-12_15h38.54.378,
1,local,local,0,17,2,206,0,,,212,exp,UTZYSNLTZLNSFEE,SLFHSNFLTUETEZZ,4,H,absent,hH,nN,h,1,0.3728743999963626,n,1,0.15188550000311807,RSVPLG01,0.94,2023-09-12-22:23:06,905,1,Experiment,2023-09-12_15h38.54.378,
8,global,local,3,17,3,207,7,,,213,exp,YUSFHTTELHLZSEZ,YHZNELXSUZSTYTL,4,F,X,fF,yY,f,1,0.26198990002740175,y,1,0.053194699983578175,RSVPLG01,0.94,2023-09-12-22:23:06,905,1,Experiment,2023-09-12_15h38.54.378,
6,local,global,7,17,4,208,5,,,214,exp,FSLZNUTLHSZXUEE,LZFTYSEZFSUTEHH,5,Y,X,yY,yY,y,1,0.48445589997572824,y,1,0.14629130001412705,RSVPLG01,0.94,2023-09-12-22:23:06,905,1,Experiment,2023-09-12_15h38.54.378,
9,global,local,7,17,5,209,8,,,215,exp,LUYLZFYNSHNSTUT,UHYTEUNFLNHXSSF,5,Z,X,zZ,yY,z,1,0.4158548999694176,y,1,0.03174789994955063,RSVPLG01,0.94,2023-09-12-22:23:06,905,1,Experiment,2023-09-12_15h38.54.378,
12,global,global,7,17,6,210,11,,,216,exp,ZTYTZSHUUNLYXLN,YTENUFLHEZZHTUN,6,S,X,sS,yY,s,1,0.3915302000241354,y,1,0.058487100002821535,RSVPLG01,0.94,2023-09-12-22:23:06,905,1,Experiment,2023-09-12_15h38.54.378,
2,local,local,3,17,7,211,1,,,217,exp,UEFNSZTFLELTYUZ,FZYHTYXULTEFZLE,4,H,X,hH,yY,h,1,0.3377366999629885,y,1,0.16937369998777285,RSVPLG01,0.94,2023-09-12-22:23:06,905,1,Experiment,2023-09-12_15h38.54.378,
9,global,local,7,17,8,212,8,,,218,exp,UHHZYETNENYTSSL,EYTFSYENTHXNSUH,4,Z,X,zZ,yY,z,1,0.23711200000252575,y,1,0.0644855999853462,RSVPLG01,0.94,2023-09-12-22:23:06,905,1,Experiment,2023-09-12_15h38.54.378,
11,global,global,3,17,9,213,10,,,219,exp,EYLNTFYTXNUZEHZ,NYUEZSTHZTUNLLY,6,F,X,fF,yY,f,1,0.37342469999566674,y,1,0.03970399999525398,RSVPLG01,0.94,2023-09-12-22:23:06,905,1,Experiment,2023-09-12_15h38.54.378,
3,local,local,7,17,10,214,2,,,220,exp,TYTSLEHFNNHFLZZ,FZEUFEZYTNXHNLH,4,U,X,uU,yY,u,1,0.39925230003427714,y,1,0.12580880004679784,RSVPLG01,0.94,2023-09-12-22:23:06,905,1,Experiment,2023-09-12_15h38.54.378,
12,global,global,7,17,11,215,11,,,221,exp,LZYSHFNHTNXULFY,UUTEFNFLYHYNZZH,4,S,X,sS,yY,h,0,0.31671499996446073,y,1,0.09325910004554316,RSVPLG01,0.94,2023-09-12-22:23:06,905,1,Experiment,2023-09-12_15h38.54.378,
5,local,global,3,18,0,216,4,,,222,exp,TLTSYNFHXHULSEY,EUYLEZHFYTLTUSH,6,Z,X,zZ,yY,z,1,0.2968773999600671,y,1,0.11283880000701174,RSVPLG01,0.94,2023-09-12-22:23:06,905,1,Experiment,2023-09-12_15h38.54.378,
11,global,global,3,18,1,217,10,,,223,exp,HFETSUFXZUTHNEN,UUELYNLZHNTZEFF,5,S,X,sS,yY,s,1,0.3764923000126146,y,1,0.057257299951743335,RSVPLG01,0.94,2023-09-12-22:23:06,905,1,Experiment,2023-09-12_15h38.54.378,
5,local,global,3,18,2,218,4,,,224,exp,HHFFZNYXNSUTTYS,HYSTENUNHFSYLUT,5,E,X,eE,yY,e,1,0.29290729999775067,y,1,0.04175049997866154,RSVPLG01,0.94,2023-09-12-22:23:06,905,1,Experiment,2023-09-12_15h38.54.378,
4,local,global,0,18,3,219,3,,,225,exp,TTLEYSYNEZFFNUU,LYFUYHLUTNFTEEZ,6,H,absent,hH,nN,h,1,0.40588139998726547,y,0,0.046545499993953854,RSVPLG01,0.94,2023-09-12-22:23:06,905,1,Experiment,2023-09-12_15h38.54.378,
3,local,local,7,18,4,220,2,,,226,exp,EFLYTLUUEHHFSSN,UUHNZSHSFLEXFYL,5,Z,X,zZ,yY,z,1,0.5258749999920838,n,0,0.09940239996649325,RSVPLG01,0.94,2023-09-12-22:23:06,905,1,Experiment,2023-09-12_15h38.54.378,
4,local,global,0,18,5,221,3,,,227,exp,STYYHFLSEUTHZLE,HUEZUNLELHTYSZY,6,N,absent,nN,nN,n,1,0.6007244999636896,n,1,0.1841619000188075,RSVPLG01,0.94,2023-09-12-22:23:06,905,1,Experiment,2023-09-12_15h38.54.378,
8,global,local,3,18,6,222,7,,,228,exp,SEFTZHFLESUZYTL,ZSFUENYEXLTYUZL,6,H,X,hH,yY,h,1,0.3926719999872148,y,1,0.11621969996485859,RSVPLG01,0.94,2023-09-12-22:23:06,905,1,Experiment,2023-09-12_15h38.54.378,
11,global,global,3,18,7,223,10,,,229,exp,NYEHETFZXUYFHSZ,HZUNHLFEZSEFSNY,6,T,X,tT,yY,t,1,0.21304780000355095,y,1,0.0597068999777548,RSVPLG01,0.94,2023-09-12-22:23:06,905,1,Experiment,2023-09-12_15h38.54.378,
10,global,global,0,18,8,224,9,,,230,exp,FSUNYHETLYELTNF,YEFULZTNNLTSUES,6,H,absent,hH,nN,h,1,0.4391579999937676,n,1,0.12798200000543147,RSVPLG01,0.94,2023-09-12-22:23:06,905,1,Experiment,2023-09-12_15h38.54.378,
7,global,local,0,18,9,225,6,,,231,exp,YTSNUUZFEYZLFLE,TZUHSFLEELSUZTY,4,N,absent,nN,nN,n,1,0.552712100034114,n,1,0.09981450001941994,RSVPLG01,0.94,2023-09-12-22:23:06,905,1,Experiment,2023-09-12_15h38.54.378,
10,global,global,0,18,10,226,9,,,232,exp,EYLFUZSHUTZTESY,HYLNTTSZZESHYLU,4,F,absent,fF,nN,f,1,0.2794861000147648,n,1,0.050947500043548644,RSVPLG01,0.94,2023-09-12-22:23:06,905,1,Experiment,2023-09-12_15h38.54.378,
11,global,global,3,18,11,227,10,,,233,exp,NNHFYZXLLYUSTST,YUTEZYHLULZNNSH,4,F,X,fF,yY,f,1,0.09213920001639053,n,0,0.05813939997460693,RSVPLG01,0.94,2023-09-12-22:23:06,905,1,Experiment,2023-09-12_15h38.54.378,
1,local,local,0,19,0,228,0,,,234,exp,YEHUNYEFTLFZTZN,NENSHYZEHLTFYLF,4,S,absent,sS,nN,s,1,0.3314286000095308,n,1,0.026093600026797503,RSVPLG01,0.94,2023-09-12-22:23:06,905,1,Experiment,2023-09-12_15h38.54.378,
5,local,global,3,19,1,229,4,,,235,exp,EZEYFSXHULTFLHT,FUSNEHTFZLHLSUZ,4,N,X,nN,yY,n,1,0.3029155000112951,y,1,0.0696178000071086,RSVPLG01,0.94,2023-09-12-22:23:06,905,1,Experiment,2023-09-12_15h38.54.378,
9,global,local,7,19,2,230,8,,,236,exp,ZLNESZSFHTLFUTU,FNTYZULLSTXFNHS,4,E,X,eE,yY,e,1,0.3541683999937959,y,1,0.0022705000010319054,RSVPLG01,0.94,2023-09-12-22:23:06,905,1,Experiment,2023-09-12_15h38.54.378,
2,local,local,3,19,3,231,1,,,237,exp,TFLEUZLYFYNESTS,TLTEHYEXNYFZFNS,5,H,X,hH,yY,h,1,0.27079919999232516,y,1,0.0287862999830395,RSVPLG01,0.94,2023-09-12-22:23:06,905,1,Experiment,2023-09-12_15h38.54.378,
11,global,global,3,19,4,232,10,,,238,exp,SUSNFLXTZZTFEEU,ZUYHUFSYTZTLFSL,4,N,X,nN,yY,n,1,0.31895950000034645,y,1,0.20085870003094897,RSVPLG01,0.94,2023-09-12-22:23:06,905,1,Experiment,2023-09-12_15h38.54.378,
1,local,local,0,19,5,233,0,,,239,exp,YZLSUUNTZLFHFHY,NHTEYUFHTYZLFZL,4,E,absent,eE,nN,e,1,0.2605850999825634,n,1,0.04756539996014908,RSVPLG01,0.94,2023-09-12-22:23:06,905,1,Experiment,2023-09-12_15h38.54.378,
3,local,local,7,19,6,234,2,,,240,exp,NTEUEYZLFZNTFSY,ETSHSTNEYYXZFFL,4,H,X,hH,yY,h,1,0.2786283000023104,y,1,0.004729099979158491,RSVPLG01,0.94,2023-09-12-22:23:06,905,1,Experiment,2023-09-12_15h38.54.378,
8,global,local,3,19,7,235,7,,,241,exp,LTYZLFHENHZEUTY,LHNEZSTUXLTHNYE,6,F,X,fF,yY,f,1,0.35381999996025115,y,1,0.014600499998778105,RSVPLG01,0.94,2023-09-12-22:23:06,905,1,Experiment,2023-09-12_15h38.54.378,
2,local,local,3,19,8,236,1,,,242,exp,ENYTZLUEUNHHFLY,YFLSFHXLEUHUEZN,4,S,X,sS,yY,s,1,0.29029189998982474,y,1,0.046440100006293505,RSVPLG01,0.94,2023-09-12-22:23:06,905,1,Experiment,2023-09-12_15h38.54.378,
7,global,local,0,19,9,237,6,,,243,exp,UEFYZFSUHTLYLEH,EYHFNELLFHSUTTS,5,Z,absent,zZ,nN,z,1,0.6024649000028148,n,1,0.13149100000737235,RSVPLG01,0.94,2023-09-12-22:23:06,905,1,Experiment,2023-09-12_15h38.54.378,
8,global,local,3,19,10,238,7,,,244,exp,UYLEFSYHNNFSTHU,HULZLFXFNSYSNTT,4,E,X,eE,yY,e,1,0.3121749999700114,y,1,0.06271990004461259,RSVPLG01,0.94,2023-09-12-22:23:06,905,1,Experiment,2023-09-12_15h38.54.378,
2,local,local,3,19,11,239,1,,,245,exp,SHSYTFZLHNTNFEL,SELUNEXLSHZTTNH,4,U,X,uU,yY,u,1,0.6350510999909602,y,1,0.045764599984977394,RSVPLG01,0.94,2023-09-12-22:23:06,905,1,Experiment,2023-09-12_15h38.54.378,
