row,t1_level,t2_level,t2_lag,.thisRepN,.thisTrialN,.thisN,.thisIndex,thisRow.t,notes,trial,trial_type,global_letters,local_letters,t1_pos,t1,t2,t1_corr,t2_corr,t1_resp,t1_acc,t1_rt,t2_resp,t2_acc,t2_rt,exp,ver,mod-utc,sub,sess,blocktyp,datetime
10,global,global,0,0,0,0,9,,,1,warmup,HLUTESYYZUSNNHL,NHEFUSZYEHZULNY,4,T,absent,tT,nN,t,1,0.3922052,n,1,0.3757539,RSVPLG01,0.94,2023-09-13-22:05:05,972,1,Experiment,2023-09-13_15h12.08.588
3,local,local,7,0,1,1,2,,,2,warmup,HTYLHNESETUZYUZ,EHTYEFUHUTZYXLS,6,F,X,fF,yY,f,1,0.481383,y,1,0.3141258,RSVPLG01,0.94,2023-09-13-22:05:05,972,1,Experiment,2023-09-13_15h12.08.588
7,global,local,0,0,2,2,6,,,3,warmup,TTNSEZEUFFHLZHU,THLYUFUHENELFZN,4,S,absent,sS,nN,e,0,0.4157456,n,1,0.2809891,RSVPLG01,0.94,2023-09-13-22:05:05,972,1,Experiment,2023-09-13_15h12.08.588
11,global,global,3,0,3,3,10,,,4,warmup,LTHNSSXFTZFLUEU,LFTYSHEZESUTUFH,4,N,X,nN,yY,n,1,0.5432547,n,0,0.299212,RSVPLG01,0.94,2023-09-13-22:05:05,972,1,Experiment,2023-09-13_15h12.08.588
9,global,local,7,0,4,4,8,,,5,warmup,UFLLESHTFTHYUZY,UZLFYNFUZHTTXHY,6,S,X,sS,yY,s,1,0.4159467,y,1,0.2560852,RSVPLG01,0.94,2023-09-13-22:05:05,972,1,Experiment,2023-09-13_15h12.08.588
2,local,local,3,0,0,0,1,,,6,exp,TFHZYUSSEULHEZL,STEZNTFXLUHSUEZ,5,N,X,nN,yY,n,1,0.5211219,n,0,0.3143379,RSVPLG01,0.94,2023-09-13-22:05:05,972,1,Experiment,2023-09-13_15h12.08.588
11,global,global,3,0,1,1,10,,,7,exp,TTYELULYXENHSHZ,YZTYEFZNNLETHLS,6,U,X,uU,yY,u,1,0.6897149,n,0,0.730881,RSVPLG01,0.94,2023-09-13-22:05:05,972,1,Experiment,2023-09-13_15h12.08.588
6,local,global,7,0,2,2,5,,,8,exp,NZHZTESHSUYUXFT,TNUHYLSZFYZFUNS,6,L,X,lL,yY,l,1,0.4049134,y,1,0.2184332,RSVPLG01,0.94,2023-09-13-22:05:05,972,1,Experiment,2023-09-13_15h12.08.588
9,global,local,7,0,3,3,8,,,9,exp,TUSEHFNTLSNEHLZ,NEZUTYNSTLEHXSZ,6,F,X,fF,yY,n,0,0.5137714,n,0,0.2341638,RSVPLG01,0.94,2023-09-13-22:05:05,972,1,Experiment,2023-09-13_15h12.08.588
8,global,local,3,0,4,4,7,,,10,exp,ELSLFTNEYHZYFZS,YNYESUNHXFFLLZE,6,T,X,tT,yY,t,1,0.7764427,y,1,0.1278644,RSVPLG01,0.94,2023-09-13-22:05:05,972,1,Experiment,2023-09-13_15h12.08.588
2,local,local,3,0,5,5,1,,,11,exp,NLLENUYHSUFSFYZ,NHLTUNXZSUFZHYY,4,T,X,tT,yY,t,1,0.8346315,y,1,0.0578408,RSVPLG01,0.94,2023-09-13-22:05:05,972,1,Experiment,2023-09-13_15h12.08.588
2,local,local,3,0,6,6,1,,,12,exp,TZYSLFFEYUSUHZE,FHYENEUXTFHTSZU,5,N,X,nN,yY,e,0,0.4568753,n,0,0.2044552,RSVPLG01,0.94,2023-09-13-22:05:05,972,1,Experiment,2023-09-13_15h12.08.588
11,global,global,3,0,7,7,10,,,13,exp,LZNYUENSXZFHFUS,SSFUHTLNLFNYUYH,6,E,X,eE,yY,e,1,0.6100966,y,1,0.0898277,RSVPLG01,0.94,2023-09-13-22:05:05,972,1,Experiment,2023-09-13_15h12.08.588
4,local,global,0,0,8,8,3,,,14,exp,NUZLSFZTUSNHYFT,ZTHEUUYZFSTNHNF,4,E,absent,eE,nN,e,1,0.3686759,n,1,0.1222387,RSVPLG01,0.94,2023-09-13-22:05:05,972,1,Experiment,2023-09-13_15h12.08.588
9,global,local,7,0,9,9,8,,,15,exp,NZNSLULFHUTFHYY,ZFUEYHLYNZXLTHT,4,S,X,sS,yY,s,1,0.8229796,y,1,0.0588482,RSVPLG01,0.94,2023-09-13-22:05:05,972,1,Experiment,2023-09-13_15h12.08.588
10,global,global,0,0,10,10,9,,,16,exp,YLHZEYTFUSFUZTS,YLTLNUTFYFSUZHZ,5,E,absent,eE,nN,e,1,0.3946022,n,1,0.1705062,RSVPLG01,0.94,2023-09-13-22:05:05,972,1,Experiment,2023-09-13_15h12.08.588
7,global,local,0,0,11,11,6,,,17,exp,HSNUYHNZZLFSEEL,ESNLTHNZUHFZFSE,5,Y,absent,yY,nN,y,1,0.8173727,n,1,0.3307348,RSVPLG01,0.94,2023-09-13-22:05:05,972,1,Experiment,2023-09-13_15h12.08.588
9,global,local,7,1,0,12,8,,,18,exp,FULNSZYFSLHHUNE,HNYFFTYUENSSXLH,6,Z,X,zZ,yY,z,1,0.9630023,y,1,0.12093,RSVPLG01,0.94,2023-09-13-22:05:05,972,1,Experiment,2023-09-13_15h12.08.588
6,local,global,7,1,1,13,5,,,19,exp,HYYLFSTHESXFTNZ,EHFUNYZZSTSFTEH,4,U,X,uU,yY,u,1,0.6694505,y,1,0.1713803,RSVPLG01,0.94,2023-09-13-22:05:05,972,1,Experiment,2023-09-13_15h12.08.588
11,global,global,3,1,2,14,10,,,20,exp,UYZSHLEXZSFFUNL,UUNSTFLYYLENSEZ,5,H,X,hH,yY,h,1,0.7308909,n,0,0.0915708,RSVPLG01,0.94,2023-09-13-22:05:05,972,1,Experiment,2023-09-13_15h12.08.588
9,global,local,7,1,3,15,8,,,21,exp,UYZTLEZHNFUYETF,YHHZSEUTUZTXENN,5,L,X,lL,yY,l,1,0.4474301,y,1,0.1722886,RSVPLG01,0.94,2023-09-13-22:05:05,972,1,Experiment,2023-09-13_15h12.08.588
7,global,local,0,1,4,16,6,,,22,exp,UEFYZELZTFSUSHL,SULNEFTHEFLTZHS,4,Y,absent,yY,nN,y,1,0.7183916,n,1,0.09222,RSVPLG01,0.94,2023-09-13-22:05:05,972,1,Experiment,2023-09-13_15h12.08.588
3,local,local,7,1,5,17,2,,,23,exp,EHFFNHZEYYUZTUT,LUYHSEUTZETXZYF,5,S,X,sS,yY,s,1,0.5548758,y,1,0.138178,RSVPLG01,0.94,2023-09-13-22:05:05,972,1,Experiment,2023-09-13_15h12.08.588
7,global,local,0,1,6,18,6,,,24,exp,NTLLSTZUHZNFHFU,UTLHYTNZLEHUZFN,5,S,absent,sS,nN,s,1,0.3858234,n,1,0.201779,RSVPLG01,0.94,2023-09-13-22:05:05,972,1,Experiment,2023-09-13_15h12.08.588
7,global,local,0,1,7,19,6,,,25,exp,EYLTSULTEYHZNNZ,ZZNUFTHTELYNLYE,5,S,absent,sS,nN,s,1,0.4415768,n,1,0.1708673,RSVPLG01,0.94,2023-09-13-22:05:05,972,1,Experiment,2023-09-13_15h12.08.588
10,global,global,0,1,8,20,9,,,26,exp,TYTSENNLLYHSZHF,TFSZUSLLHFYZNTN,5,E,absent,eE,nN,e,1,0.7000079,n,1,0.1546627,RSVPLG01,0.94,2023-09-13-22:05:05,972,1,Experiment,2023-09-13_15h12.08.588
3,local,local,7,1,9,21,2,,,27,exp,NNFTUELYUTSYFZZ,TNYSZHSYULTZXUF,6,H,X,hH,yY,h,1,0.7013202,y,1,0.0949544,RSVPLG01,0.94,2023-09-13-22:05:05,972,1,Experiment,2023-09-13_15h12.08.588
8,global,local,3,1,10,22,7,,,28,exp,UFTZZNSUHFELSTH,FUHESYLZXLHFZEU,6,N,X,nN,yY,n,1,0.5112155,n,0,0.2184421,RSVPLG01,0.94,2023-09-13-22:05:05,972,1,Experiment,2023-09-13_15h12.08.588
3,local,local,7,1,11,23,2,,,29,exp,FEZHNTELHUSTUZF,ELZHYHTSLZUXUTF,5,Y,X,yY,yY,y,1,0.645546,y,1,0.0745251,RSVPLG01,0.94,2023-09-13-22:05:05,972,1,Experiment,2023-09-13_15h12.08.588
12,global,global,7,2,0,24,11,,,30,exp,FYLETZUTYHESXLU,LHYEENHUTULFYSF,6,Z,X,zZ,yY,z,1,0.3704506,n,0,0.2835399,RSVPLG01,0.94,2023-09-13-22:05:05,972,1,Experiment,2023-09-13_15h12.08.588
2,local,local,3,2,1,25,1,,,31,exp,NTHSZHEUNFEUTYF,FSUSLTTXEEUYNHY,5,L,X,lL,yY,z,0,0.5349931,n,0,0.1222979,RSVPLG01,0.94,2023-09-13-22:05:05,972,1,Experiment,2023-09-13_15h12.08.588
11,global,global,3,2,2,26,10,,,32,exp,SZSNZEHTXTLYFLY,FZHHTUZSNLLYNTF,6,E,X,eE,yY,h,0,0.738485,n,0,0.1220365,RSVPLG01,0.94,2023-09-13-22:05:05,972,1,Experiment,2023-09-13_15h12.08.588
1,local,local,0,2,3,27,0,,,33,exp,ELEUSTTLFSZZHYY,LYFNESTZFLTYHZH,4,N,absent,nN,nN,n,1,0.4232662,n,1,0.249375,RSVPLG01,0.94,2023-09-13-22:05:05,972,1,Experiment,2023-09-13_15h12.08.588
8,global,local,3,2,4,28,7,,,34,exp,SSYZULTZFYFTEHE,SETZNFEXZFHLYHL,5,U,X,uU,yY,u,1,0.5314575,y,1,0.0461953,RSVPLG01,0.94,2023-09-13-22:05:05,972,1,Experiment,2023-09-13_15h12.08.588
3,local,local,7,2,5,29,2,,,35,exp,YTESNUZLUYEFFZS,LUEFHZZUSTYXTYE,5,H,X,hH,yY,h,1,0.6688317,n,0,0.2660291,RSVPLG01,0.94,2023-09-13-22:05:05,972,1,Experiment,2023-09-13_15h12.08.588
11,global,global,3,2,6,30,10,,,36,exp,NELYEZFNXYUFSSH,NFLYHTYSHNUFSEL,6,Z,X,zZ,yY,z,1,0.5129482,n,0,0.1546593,RSVPLG01,0.94,2023-09-13-22:05:05,972,1,Experiment,2023-09-13_15h12.08.588
7,global,local,0,2,7,31,6,,,37,exp,UYTLHZYNLFETNZU,NLNFSYLTUYEUZTZ,5,H,absent,hH,nN,h,1,0.5611626,n,1,0.2037224,RSVPLG01,0.94,2023-09-13-22:05:05,972,1,Experiment,2023-09-13_15h12.08.588
10,global,global,0,2,8,32,9,,,38,exp,YUSZSHFEZNNFYUL,NFNSETLLYUUYFZZ,6,H,absent,hH,nN,h,1,0.7078168,n,1,0.0416867,RSVPLG01,0.94,2023-09-13-22:05:05,972,1,Experiment,2023-09-13_15h12.08.588
5,local,global,3,2,9,33,4,,,39,exp,NTZFEYXNZYHUHTL,ULTSYETZHENHUZL,4,S,X,sS,yY,s,1,0.4777163,y,1,0.0908261,RSVPLG01,0.94,2023-09-13-22:05:05,972,1,Experiment,2023-09-13_15h12.08.588
7,global,local,0,2,10,34,6,,,40,exp,EYLFYUZLUNSNTET,NEZHUTZTLYLESYN,4,F,absent,fF,nN,f,1,0.4033528,n,1,0.1550028,RSVPLG01,0.94,2023-09-13-22:05:05,972,1,Experiment,2023-09-13_15h12.08.588
1,local,local,0,2,11,35,0,,,41,exp,NUTFSTZLZEELFUN,EUFTYNZHZHUNLEF,5,Y,absent,yY,nN,y,1,0.8959036,n,1,0.3626138,RSVPLG01,0.94,2023-09-13-22:05:05,972,1,Experiment,2023-09-13_15h12.08.588
6,local,global,7,3,0,36,5,,,42,exp,USTLENNZFFXTZEY,FTZHENENSUYFZYT,4,H,X,hH,yY,e,0,0.3570908,n,0,0.1712264,RSVPLG01,0.94,2023-09-13-22:05:05,972,1,Experiment,2023-09-13_15h12.08.588
6,local,global,7,3,1,37,5,,,43,exp,NSSNEZHYUFLXUYZ,SLUYTNZHFUFSLYZ,5,T,X,tT,yY,t,1,0.6221946,y,1,0.0108762,RSVPLG01,0.94,2023-09-13-22:05:05,972,1,Experiment,2023-09-13_15h12.08.588
9,global,local,7,3,2,38,8,,,44,exp,NELUSZYTSNFLEYT,SNEHLZTEFSXNTYF,4,U,X,uU,yY,u,1,1.2401852,y,1,0.0297572,RSVPLG01,0.94,2023-09-13-22:05:05,972,1,Experiment,2023-09-13_15h12.08.588
11,global,global,3,3,3,39,10,,,45,exp,EFUHZNHZXYSLEYS,ZSYHYTLUZLFESHE,6,N,X,nN,yY,h,0,0.7696934,n,0,0.2669212,RSVPLG01,0.94,2023-09-13-22:05:05,972,1,Experiment,2023-09-13_15h12.08.588
9,global,local,7,3,4,40,8,,,46,exp,YULNFSEYEHZSUNL,HZNETLULHNUXYEY,5,F,X,fF,yY,e,0,0.5023132,n,0,0.2017837,RSVPLG01,0.94,2023-09-13-22:05:05,972,1,Experiment,2023-09-13_15h12.08.588
2,local,local,3,3,5,41,1,,,47,exp,ZLTZELNFSNSUFYU,FLUNHYNXTZSUFSY,5,H,X,hH,yY,h,1,1.0140301,n,0,0.3473317,RSVPLG01,0.94,2023-09-13-22:05:05,972,1,Experiment,2023-09-13_15h12.08.588
7,global,local,0,3,6,42,6,,,48,exp,UULHTSEYZNHTEZL,THEZNFYTLELUZYH,6,S,absent,sS,nN,s,1,0.5639917,n,1,0.1696898,RSVPLG01,0.94,2023-09-13-22:05:05,972,1,Experiment,2023-09-13_15h12.08.588
10,global,global,0,3,7,43,9,,,49,exp,UTZNHENLFZYHULF,YLHHLSYNUFFUZTN,6,E,absent,eE,nN,e,1,0.4289926,n,1,0.1073515,RSVPLG01,0.94,2023-09-13-22:05:05,972,1,Experiment,2023-09-13_15h12.08.588
10,global,global,0,3,8,44,9,,,50,exp,NLYZEZYHSUNFSUH,YYUSTSHNZFUFZHN,5,E,absent,eE,nN,e,1,0.3162711,n,1,0.0744722,RSVPLG01,0.94,2023-09-13-22:05:05,972,1,Experiment,2023-09-13_15h12.08.588
3,local,local,7,3,9,45,2,,,51,exp,SEZTLYFYNHEFZTS,HSYTUFENSNZXZTF,5,U,X,uU,yY,y,0,0.6591455,n,0,0.2347123,RSVPLG01,0.94,2023-09-13-22:05:05,972,1,Experiment,2023-09-13_15h12.08.588
9,global,local,7,3,10,46,8,,,52,exp,UYSHYFZLEFSZLEU,NSSTEZFUUNXYLEL,4,H,X,hH,yY,h,1,0.7571676,y,1,0.0738399,RSVPLG01,0.94,2023-09-13-22:05:05,972,1,Experiment,2023-09-13_15h12.08.588
3,local,local,7,3,11,47,2,,,53,exp,FUTEZLTESHSHLFU,HTNLYEHUEFUXSNT,5,Y,X,yY,yY,y,1,0.7908912,y,1,0.0610739,RSVPLG01,0.94,2023-09-13-22:05:05,972,1,Experiment,2023-09-13_15h12.08.588
6,local,global,7,4,0,48,5,,,54,exp,ZETTLZHEUUYXSNN,TZTHFYNENUUSEZY,5,F,X,fF,yY,f,1,0.7615195,y,1,0.0582024,RSVPLG01,0.94,2023-09-13-22:05:05,972,1,Experiment,2023-09-13_15h12.08.588
9,global,local,7,4,1,49,8,,,55,exp,LTNUFYTHHZNELEF,ZNHLTSTNUUFHXZL,6,Y,X,yY,yY,y,1,0.8286771,y,1,0.0911056,RSVPLG01,0.94,2023-09-13-22:05:05,972,1,Experiment,2023-09-13_15h12.08.588
10,global,global,0,4,2,50,9,,,56,exp,YSNFHEYTUENHUZS,NTHLHTEYZUZYSEU,4,F,absent,fF,nN,f,1,0.3910437,n,1,0.074771,RSVPLG01,0.94,2023-09-13-22:05:05,972,1,Experiment,2023-09-13_15h12.08.588
1,local,local,0,4,3,51,0,,,57,exp,SYHEUZFTSEHNNUT,NYNTSLUSEFEHFTY,6,L,absent,lL,nN,l,1,0.3336846,n,1,0.0954303,RSVPLG01,0.94,2023-09-13-22:05:05,972,1,Experiment,2023-09-13_15h12.08.588
9,global,local,7,4,4,52,8,,,58,exp,YUYLSZTTHUFLFEH,YEYTTNHEFSSUXLH,6,Z,X,zZ,yY,z,1,0.8986684,y,1,0.0436769,RSVPLG01,0.94,2023-09-13-22:05:05,972,1,Experiment,2023-09-13_15h12.08.588
11,global,global,3,4,5,53,10,,,59,exp,LYZNSHFXNFZEEHL,ENZYUNEZTHLFYFH,5,S,X,sS,yY,h,0,2.4751195,n,0,0.7790269,RSVPLG01,0.94,2023-09-13-22:05:05,972,1,Experiment,2023-09-13_15h12.08.588
7,global,local,0,4,6,54,6,,,60,exp,LNZNSTZTEHEUUFL,LLNUYHFZEZETTFU,5,S,absent,sS,nN,z,0,0.7276893,n,1,0.2663238,RSVPLG01,0.94,2023-09-13-22:05:05,972,1,Experiment,2023-09-13_15h12.08.588
3,local,local,7,4,7,55,2,,,61,exp,SYTLZUFHFNYZTLN,YLZFFETHSSTZXNY,6,E,X,eE,yY,e,1,0.7705755,y,1,0.0569917,RSVPLG01,0.94,2023-09-13-22:05:05,972,1,Experiment,2023-09-13_15h12.08.588
6,local,global,7,4,8,56,5,,,62,exp,HEZTEFHNFYXZULL,NUYSZFZEHYFEHLN,4,S,X,sS,yY,s,1,0.5879568,y,1,0.1056819,RSVPLG01,0.94,2023-09-13-22:05:05,972,1,Experiment,2023-09-13_15h12.08.588
8,global,local,3,4,9,57,7,,,63,exp,LHSUHSFFYZTTNNZ,SNZEYFXHLFHTNLS,4,U,X,uU,yY,u,1,0.585076,y,1,0.0256844,RSVPLG01,0.94,2023-09-13-22:05:05,972,1,Experiment,2023-09-13_15h12.08.588
9,global,local,7,4,10,58,8,,,64,exp,THFZENTYUYLLEFZ,EEZUZSTUFTHYXHL,6,N,X,nN,yY,n,1,0.7443048,y,1,0.1856228,RSVPLG01,0.94,2023-09-13-22:05:05,972,1,Experiment,2023-09-13_15h12.08.588
2,local,local,3,4,11,59,1,,,65,exp,HTYSHEUTUSNLZYZ,NYLUYFSHXTTZZUH,6,F,X,fF,yY,f,1,0.4743793,y,1,0.0428546,RSVPLG01,0.94,2023-09-13-22:05:05,972,1,Experiment,2023-09-13_15h12.08.588
1,local,local,0,5,0,60,0,,,66,exp,ENELULZYNSZFSTT,LSEYHNYLZFNEFTZ,5,H,absent,hH,nN,h,1,0.3943335,n,1,0.1053293,RSVPLG01,0.94,2023-09-13-22:05:05,972,1,Experiment,2023-09-13_15h12.08.588
2,local,local,3,5,1,61,1,,,67,exp,LSZEUNYLEYTTZFN,YFYNHTZXTEFSZEL,5,H,X,hH,yY,h,1,0.6484171,y,1,0.0274253,RSVPLG01,0.94,2023-09-13-22:05:05,972,1,Experiment,2023-09-13_15h12.08.588
9,global,local,7,5,2,62,8,,,68,exp,LLZFTYSNFYZSNUE,NYZSHUFZFYEXUNS,5,T,X,tT,yY,t,1,0.7844529,n,0,0.0590307,RSVPLG01,0.94,2023-09-13-22:05:05,972,1,Experiment,2023-09-13_15h12.08.588
3,local,local,7,5,3,63,2,,,69,exp,NLLYSHTTEUZSEZN,NNEZYFLUULEYXTT,6,F,X,fF,yY,f,1,0.5315785,y,1,0.0270712,RSVPLG01,0.94,2023-09-13-22:05:05,972,1,Experiment,2023-09-13_15h12.08.588
7,global,local,0,5,4,64,6,,,70,exp,HLESZTLNENFUFTH,LFEYNTNUUZZFTLE,4,S,absent,sS,nN,s,1,0.5260528,n,1,0.1700931,RSVPLG01,0.94,2023-09-13-22:05:05,972,1,Experiment,2023-09-13_15h12.08.588
6,local,global,7,5,5,65,5,,,71,exp,SUZNUELHTNLTXZS,TSSUNFYTNHZYHZU,6,F,X,fF,yY,f,1,0.3786549,y,1,0.0740591,RSVPLG01,0.94,2023-09-13-22:05:05,972,1,Experiment,2023-09-13_15h12.08.588
11,global,global,3,5,6,66,10,,,72,exp,SFHHLYZXUNTFTSN,ZFHYEYSTUZTHUNS,5,L,X,lL,yY,e,0,0.292135,y,1,0.1061024,RSVPLG01,0.94,2023-09-13-22:05:05,972,1,Experiment,2023-09-13_15h12.08.588
8,global,local,3,5,7,67,7,,,73,exp,FLSFZEHULTNZSHT,ZNHTTYUSXSFFZLL,6,E,X,eE,yY,z,0,0.3723467,n,0,0.1865165,RSVPLG01,0.94,2023-09-13-22:05:05,972,1,Experiment,2023-09-13_15h12.08.588
5,local,global,3,5,8,68,4,,,74,exp,LTSTZSEXFUYNELY,ESSNHLLYUETYFTF,5,H,X,hH,yY,z,0,0.4575323,n,0,0.2026679,RSVPLG01,0.94,2023-09-13-22:05:05,972,1,Experiment,2023-09-13_15h12.08.588
6,local,global,7,5,9,69,5,,,75,exp,ESYTFNHTLYHXNSZ,ZZYHUESHTNSETLL,5,U,X,uU,yY,u,1,0.5878563,y,1,0.0424002,RSVPLG01,0.94,2023-09-13-22:05:05,972,1,Experiment,2023-09-13_15h12.08.588
10,global,global,0,5,10,70,9,,,76,exp,NHFNTYYLLEUUZHF,ZNLFSENHYEZYULH,5,T,absent,tT,nN,t,1,0.7438623,n,1,0.0779975,RSVPLG01,0.94,2023-09-13-22:05:05,972,1,Experiment,2023-09-13_15h12.08.588
11,global,global,3,5,11,71,10,,,77,exp,ETYLUNXFUTNYSHH,TFHZUSYETYHSNNU,4,L,X,lL,yY,u,0,0.3375182,n,0,0.1223734,RSVPLG01,0.94,2023-09-13-22:05:05,972,1,Experiment,2023-09-13_15h12.08.588
12,global,global,7,6,0,72,11,,,78,exp,HUUZLNHSFEXYYSE,EYNTHUYSNEFSFHL,4,Z,X,zZ,yY,z,1,0.3504958,n,0,0.1374019,RSVPLG01,0.94,2023-09-13-22:05:05,972,1,Experiment,2023-09-13_15h12.08.588
12,global,global,7,6,1,73,11,,,79,exp,LTSNYSFFENLXUZU,FLNEHFUUSEZTNLZ,5,Y,X,yY,yY,y,1,0.6581457,y,1,0.0264413,RSVPLG01,0.94,2023-09-13-22:05:05,972,1,Experiment,2023-09-13_15h12.08.588
4,local,global,0,6,2,74,3,,,80,exp,ENZLHYTENFFSTZY,SSFNUYZELFNTZYE,5,U,absent,uU,nN,u,1,0.7024613,n,1,0.0578907,RSVPLG01,0.94,2023-09-13-22:05:05,972,1,Experiment,2023-09-13_15h12.08.588
1,local,local,0,6,3,75,0,,,81,exp,HSLHTENFUNYSLEU,YEFLZULNYNSFSHH,5,Z,absent,zZ,nN,n,0,0.3749525,n,1,0.1376778,RSVPLG01,0.94,2023-09-13-22:05:05,972,1,Experiment,2023-09-13_15h12.08.588
10,global,global,0,6,4,76,9,,,82,exp,ZULNTUNYSFSHLHY,NFHSEZSLNYULZUY,5,T,absent,tT,nN,t,1,0.37453,n,1,0.2026678,RSVPLG01,0.94,2023-09-13-22:05:05,972,1,Experiment,2023-09-13_15h12.08.588
4,local,global,0,6,5,77,3,,,83,exp,ZYSUSELLTUTHHFF,FUHLHNFSTZUSLYZ,6,N,absent,nN,nN,n,1,0.4814429,n,1,0.186717,RSVPLG01,0.94,2023-09-13-22:05:05,972,1,Experiment,2023-09-13_15h12.08.588
7,global,local,0,6,6,78,6,,,84,exp,ESFTUZLNEZLUSHN,ELHYFHNLESZUZFN,4,T,absent,tT,nN,t,1,0.3156179,n,1,0.0733092,RSVPLG01,0.94,2023-09-13-22:05:05,972,1,Experiment,2023-09-13_15h12.08.588
7,global,local,0,6,7,79,6,,,85,exp,HLEUYTHFSSNUELF,YNFHHZSLULFUEES,6,T,absent,tT,nN,t,1,0.4172865,n,1,0.138429,RSVPLG01,0.94,2023-09-13-22:05:05,972,1,Experiment,2023-09-13_15h12.08.588
4,local,global,0,6,8,80,3,,,86,exp,UYLTFHELUYNSNTF,NYFTTZYSFUEUNSE,6,Z,absent,zZ,nN,n,0,1.514013,n,1,0.2179689,RSVPLG01,0.94,2023-09-13-22:05:05,972,1,Experiment,2023-09-13_15h12.08.588
2,local,local,3,6,9,81,1,,,87,exp,EHLYZTENSSNZLUH,ZHUYLFELXSENZUS,6,F,X,fF,yY,e,0,0.4112562,n,0,0.1549756,RSVPLG01,0.94,2023-09-13-22:05:05,972,1,Experiment,2023-09-13_15h12.08.588
5,local,global,3,6,10,82,4,,,88,exp,NTEHEFYLXUNZZYU,HZUYYSLETUNNLHZ,6,S,X,sS,yY,s,1,0.3067343,y,1,0.0433602,RSVPLG01,0.94,2023-09-13-22:05:05,972,1,Experiment,2023-09-13_15h12.08.588
8,global,local,3,6,11,83,7,,,89,exp,FEHLTNZSYYFEHZN,YNLLUEFXSSFEHZZ,5,T,X,tT,yY,t,1,0.3048337,n,0,0.1113209,RSVPLG01,0.94,2023-09-13-22:05:05,972,1,Experiment,2023-09-13_15h12.08.588
8,global,local,3,7,0,84,7,,,90,exp,ZTHYSUEZFNYEFNH,YEYTHLSZXSETZNH,6,U,X,uU,yY,u,1,0.4023304,n,0,0.0947161,RSVPLG01,0.94,2023-09-13-22:05:05,972,1,Experiment,2023-09-13_15h12.08.588
9,global,local,7,7,1,85,8,,,91,exp,SUFUHEZZLNSTNET,SEZFYNELLSZXTTU,5,H,X,hH,yY,h,1,0.4286809,y,1,0.079255,RSVPLG01,0.94,2023-09-13-22:05:05,972,1,Experiment,2023-09-13_15h12.08.588
7,global,local,0,7,2,86,6,,,92,exp,EFZELYTUYHFUZNN,ZYFNSNHYUTHEZUT,5,L,absent,lL,nN,l,1,0.3789304,n,1,0.1089936,RSVPLG01,0.94,2023-09-13-22:05:05,972,1,Experiment,2023-09-13_15h12.08.588
8,global,local,3,7,3,87,7,,,93,exp,LNZSUYHTTFHZUSF,LTNFTEFHXZNZUHS,6,Y,X,yY,yY,y,1,0.5907455,y,1,0.0103104,RSVPLG01,0.94,2023-09-13-22:05:05,972,1,Experiment,2023-09-13_15h12.08.588
8,global,local,3,7,4,88,7,,,94,exp,TUFSNZFHYZUTLYH,TFSYEZFXUHZLUST,5,N,X,nN,yY,n,1,0.383762,n,0,0.2185637,RSVPLG01,0.94,2023-09-13-22:05:05,972,1,Experiment,2023-09-13_15h12.08.588
2,local,local,3,7,5,89,1,,,95,exp,FTYUZFSEYHNZNHE,EZNLZFXHTFTSEYH,4,L,X,lL,yY,l,1,0.5422216,n,0,0.2347986,RSVPLG01,0.94,2023-09-13-22:05:05,972,1,Experiment,2023-09-13_15h12.08.588
2,local,local,3,7,6,90,1,,,96,exp,FLTHZELUFUSETYY,YETTNULXSEFLYSH,5,N,X,nN,yY,z,0,0.3676739,n,0,0.1556076,RSVPLG01,0.94,2023-09-13-22:05:05,972,1,Experiment,2023-09-13_15h12.08.588
6,local,global,7,7,7,91,5,,,97,exp,NEZHZUSTUTXNFES,FTZYLSTFLNUZSEE,4,Y,X,yY,yY,y,1,0.5879924,y,1,0.0271489,RSVPLG01,0.94,2023-09-13-22:05:05,972,1,Experiment,2023-09-13_15h12.08.588
3,local,local,7,7,8,92,2,,,98,exp,FZFUTLLSZENUNES,FLEFHZUESYLXNNS,5,H,X,hH,yY,h,1,0.7418956,n,0,0.0102674,RSVPLG01,0.94,2023-09-13-22:05:05,972,1,Experiment,2023-09-13_15h12.08.588
7,global,local,0,7,9,93,6,,,99,exp,ZEFYNTYTLZHFHLS,TFSZUYLSTZYHLEE,5,N,absent,nN,nN,n,1,0.4492945,n,1,0.155775,RSVPLG01,0.94,2023-09-13-22:05:05,972,1,Experiment,2023-09-13_15h12.08.588
6,local,global,7,7,10,94,5,,,100,exp,EYYUNTNHFUHFXZZ,YUNZSLNFEHFZHEU,6,L,X,lL,yY,t,0,0.6879183,y,1,0.0098939,RSVPLG01,0.94,2023-09-13-22:05:05,972,1,Experiment,2023-09-13_15h12.08.588
12,global,global,7,7,11,95,11,,,101,exp,LYHFLUUSYTXEEZZ,EHTNYULTSUEYHSL,4,F,X,fF,yY,f,1,0.6159396,y,1,0.0747792,RSVPLG01,0.94,2023-09-13-22:05:05,972,1,Experiment,2023-09-13_15h12.08.588
5,local,global,3,8,0,96,4,,,102,exp,EYENTSXSYHUHLUZ,YEEFTHTSLLHUZUS,4,F,X,fF,yY,f,1,0.4389154,y,1,0.2185716,RSVPLG01,0.94,2023-09-13-22:05:05,972,1,Experiment,2023-09-13_15h12.08.588
1,local,local,0,8,1,97,0,,,103,exp,SHUSFNYUYZHTNTZ,USEZLHHUSTZYYET,5,L,absent,lL,nN,l,1,0.4639135,y,0,0.1541914,RSVPLG01,0.94,2023-09-13-22:05:05,972,1,Experiment,2023-09-13_15h12.08.588
4,local,global,0,8,2,98,3,,,104,exp,USETHFFYLHUSEZZ,UEFNZLSZUYHYESL,4,N,absent,nN,nN,n,1,0.5391286,n,1,0.1529694,RSVPLG01,0.94,2023-09-13-22:05:05,972,1,Experiment,2023-09-13_15h12.08.588
11,global,global,3,8,3,99,10,,,105,exp,YNYFZTNXUHHSSLF,FFUTETHLNUYHYSL,5,Z,X,zZ,yY,z,1,0.6256672,y,1,0.0576244,RSVPLG01,0.94,2023-09-13-22:05:05,972,1,Experiment,2023-09-13_15h12.08.588
5,local,global,3,8,4,100,4,,,106,exp,LTZUETFXNSSUNYZ,TUSUHFYNLYZFNLS,5,H,X,hH,yY,h,1,0.5591368,y,1,0.0263169,RSVPLG01,0.94,2023-09-13-22:05:05,972,1,Experiment,2023-09-13_15h12.08.588
8,global,local,3,8,5,101,7,,,107,exp,ZNLFEHYSUFNSYHL,HZUSTYHXLFZUYFN,5,E,X,eE,yY,h,0,0.7811489,n,0,0.2830572,RSVPLG01,0.94,2023-09-13-22:05:05,972,1,Experiment,2023-09-13_15h12.08.588
4,local,global,0,8,6,102,3,,,108,exp,HSLNUEZFTLZESUH,SHTYZHETSUFLFZL,4,Y,absent,yY,nN,y,1,0.7043375,n,1,0.1391705,RSVPLG01,0.94,2023-09-13-22:05:05,972,1,Experiment,2023-09-13_15h12.08.588
4,local,global,0,8,7,103,3,,,109,exp,FLTUYSNELNYSHHE,ENNZLHYEFSSYFTL,4,Z,absent,zZ,nN,l,0,0.400161,n,1,0.0420828,RSVPLG01,0.94,2023-09-13-22:05:05,972,1,Experiment,2023-09-13_15h12.08.588
1,local,local,0,8,8,104,0,,,110,exp,ZTETYHUULLZFNFN,LNNFZSTFYEEYZTU,6,S,absent,sS,nN,s,1,0.3772814,n,1,0.139489,RSVPLG01,0.94,2023-09-13-22:05:05,972,1,Experiment,2023-09-13_15h12.08.588
8,global,local,3,8,9,105,7,,,111,exp,YTTNSFZELEUFULS,YLZHEUXTLFSSZEF,4,N,X,nN,yY,n,1,0.3877106,y,1,0.0909482,RSVPLG01,0.94,2023-09-13-22:05:05,972,1,Experiment,2023-09-13_15h12.08.588
10,global,global,0,8,10,106,9,,,112,exp,HEUFYNLUEHSTLTY,LUYHFZTHTUYELSE,6,N,absent,nN,nN,n,1,0.450071,n,1,0.1709341,RSVPLG01,0.94,2023-09-13-22:05:05,972,1,Experiment,2023-09-13_15h12.08.588
6,local,global,7,8,11,107,5,,,113,exp,NHNSHLUSUZEFXTE,TZZNSYNUUFSEHHT,6,Y,X,yY,yY,y,1,0.4141111,y,1,0.3781135,RSVPLG01,0.94,2023-09-13-22:05:05,972,1,Experiment,2023-09-13_15h12.08.588
8,global,local,3,9,0,108,7,,,114,exp,NELHETTLYUFUFNS,LUSZEYXLNNUTSFY,4,H,X,hH,yY,y,0,0.3652556,n,0,0.1224065,RSVPLG01,0.94,2023-09-13-22:05:05,972,1,Experiment,2023-09-13_15h12.08.588
12,global,global,7,9,1,109,11,,,115,exp,LHYTYZENLUXEZFF,NYESLZZLUHEFFUY,4,T,X,tT,yY,t,1,0.6212131,y,1,0.0891668,RSVPLG01,0.94,2023-09-13-22:05:05,972,1,Experiment,2023-09-13_15h12.08.588
12,global,global,7,9,2,110,11,,,116,exp,ETNSHULNZLTXSYU,YSNZFEUYESTZLLT,5,H,X,hH,yY,h,1,0.5730519,y,1,0.0261848,RSVPLG01,0.94,2023-09-13-22:05:05,972,1,Experiment,2023-09-13_15h12.08.588
6,local,global,7,9,3,111,5,,,117,exp,FEUYLUNEZHXZFTN,NZFSHUEHZENTTUL,4,S,X,sS,yY,s,1,0.3888227,y,1,0.0899855,RSVPLG01,0.94,2023-09-13-22:05:05,972,1,Experiment,2023-09-13_15h12.08.588
6,local,global,7,9,4,112,5,,,118,exp,NFZFLTHTUSNXZEU,NUSNYEEFTUZZHHS,5,Y,X,yY,yY,y,1,0.5489563,y,1,0.1069908,RSVPLG01,0.94,2023-09-13-22:05:05,972,1,Experiment,2023-09-13_15h12.08.588
12,global,global,7,9,5,113,11,,,119,exp,NTUYSFUEYTZXNZE,YZNULENHUYFHTZE,5,S,X,sS,yY,s,1,0.4041377,y,1,0.1377154,RSVPLG01,0.94,2023-09-13-22:05:05,972,1,Experiment,2023-09-13_15h12.08.588
12,global,global,7,9,6,114,11,,,120,exp,SYNNLFSTUELUXZY,YESTZHLNNUEUYSL,6,F,X,fF,yY,f,1,0.4804071,y,1,0.0722573,RSVPLG01,0.94,2023-09-13-22:05:05,972,1,Experiment,2023-09-13_15h12.08.588
6,local,global,7,9,7,115,5,,,121,exp,UTSELHYFLFXYNNT,HNFZLUNUHLSSFTY,4,Z,X,zZ,yY,z,1,0.4754456,y,1,0.0753596,RSVPLG01,0.94,2023-09-13-22:05:05,972,1,Experiment,2023-09-13_15h12.08.588
4,local,global,0,9,8,116,3,,,122,exp,NYNUZUFTLEHHTFY,LTENSYUFNHUHLTF,5,S,absent,sS,nN,s,1,0.4780601,n,1,0.1395868,RSVPLG01,0.94,2023-09-13-22:05:05,972,1,Experiment,2023-09-13_15h12.08.588
12,global,global,7,9,9,117,11,,,123,exp,FLHLSEEYZUZXFNH,NZUFTLYNHUEYHLZ,5,S,X,sS,yY,s,1,0.3396445,y,1,0.1071121,RSVPLG01,0.94,2023-09-13-22:05:05,972,1,Experiment,2023-09-13_15h12.08.588
4,local,global,0,9,10,118,3,,,124,exp,FLYZHEEYFNNHTTL,YETSUFUFYTHNNLL,4,S,absent,sS,nN,s,1,0.4230299,n,1,0.2191627,RSVPLG01,0.94,2023-09-13-22:05:05,972,1,Experiment,2023-09-13_15h12.08.588
5,local,global,3,9,11,119,4,,,125,exp,LFESNZFLXTHUSTE,STEFSYNNHELTUHU,6,Y,X,yY,yY,y,1,0.6988504,n,0,1.0016241,RSVPLG01,0.94,2023-09-13-22:05:05,972,1,Experiment,2023-09-13_15h12.08.588
2,local,local,3,10,0,120,1,,,126,exp,TSSHEULTEUNFYFL,FNYZSYXELUFLTNE,4,Z,X,zZ,yY,z,1,0.4919621,y,1,0.1104839,RSVPLG01,0.94,2023-09-13-22:05:05,972,1,Experiment,2023-09-13_15h12.08.588
1,local,local,0,10,1,121,0,,,127,exp,NLUHETZYZHFEFYN,LNFULSENHYUZEFZ,6,S,absent,sS,nN,s,1,0.5033439,n,1,0.1877444,RSVPLG01,0.94,2023-09-13-22:05:05,972,1,Experiment,2023-09-13_15h12.08.588
6,local,global,7,10,2,122,5,,,128,exp,NTZUFYUZLSNXYSL,SNSNEUTHYHLLZUT,5,E,X,eE,yY,e,1,0.4504671,y,1,0.1537121,RSVPLG01,0.94,2023-09-13-22:05:05,972,1,Experiment,2023-09-13_15h12.08.588
5,local,global,3,10,3,123,4,,,129,exp,TENUYHLXTFZHFZN,TELHSETFLFNZZUN,5,S,X,sS,yY,s,1,0.3769222,y,1,0.0586268,RSVPLG01,0.94,2023-09-13-22:05:05,972,1,Experiment,2023-09-13_15h12.08.588
4,local,global,0,10,4,124,3,,,130,exp,HSUULTZYLEEHNYS,ENLNEFYZUSZSUHH,6,F,absent,fF,nN,f,1,0.3965469,n,1,0.1387587,RSVPLG01,0.94,2023-09-13-22:05:05,972,1,Experiment,2023-09-13_15h12.08.588
12,global,global,7,10,5,125,11,,,131,exp,ZSZLFNYSUTFEXUT,STYYFHLSZTFUZUL,6,N,X,nN,yY,n,1,0.9467934,n,0,0.6353692,RSVPLG01,0.94,2023-09-13-22:05:05,972,1,Experiment,2023-09-13_15h12.08.588
10,global,global,0,10,6,126,9,,,132,exp,EZTNFZULEUSHTFH,SFFYHTZLUHESLZU,4,N,absent,nN,nN,n,1,0.3741568,n,1,0.2347944,RSVPLG01,0.94,2023-09-13-22:05:05,972,1,Experiment,2023-09-13_15h12.08.588
1,local,local,0,10,7,127,0,,,133,exp,FEHYTSNUHYUENSZ,UYSNLZEYZUFHHNF,5,L,absent,lL,nN,l,1,0.3854499,y,0,0.2184286,RSVPLG01,0.94,2023-09-13-22:05:05,972,1,Experiment,2023-09-13_15h12.08.588
3,local,local,7,10,8,128,2,,,134,exp,YTUZNHZSHUETSLE,TTYYFHUZEELXLZH,5,F,X,fF,yY,f,1,0.382808,y,1,0.2073246,RSVPLG01,0.94,2023-09-13-22:05:05,972,1,Experiment,2023-09-13_15h12.08.588
5,local,global,3,10,9,129,4,,,135,exp,UNLZESXHUFLEHYY,ELNTNFSUUHHYLYS,4,T,X,tT,yY,z,0,0.4389878,n,0,0.187253,RSVPLG01,0.94,2023-09-13-22:05:05,972,1,Experiment,2023-09-13_15h12.08.588
11,global,global,3,10,10,130,10,,,136,exp,FLFSNZXHHUNLYYZ,UNZTZYNHUHYLFFE,4,S,X,sS,yY,n,0,0.3234581,n,0,0.1717314,RSVPLG01,0.94,2023-09-13-22:05:05,972,1,Experiment,2023-09-13_15h12.08.588
2,local,local,3,10,11,131,1,,,137,exp,FSYTNFHZHEZTLSE,ZHHLUYTXTEZEFSF,5,U,X,uU,yY,u,1,0.4075013,n,0,0.1541676,RSVPLG01,0.94,2023-09-13-22:05:05,972,1,Experiment,2023-09-13_15h12.08.588
12,global,global,7,11,0,132,11,,,138,exp,TZSYEULHFTLXHYS,SZFYNUYHLHSZLUF,5,E,X,eE,yY,e,1,0.6661145,y,1,0.0737714,RSVPLG01,0.94,2023-09-13-22:05:05,972,1,Experiment,2023-09-13_15h12.08.588
10,global,global,0,11,1,133,9,,,139,exp,YHFNSHUTLFUSEYL,THFZLSSEYHUUTYL,4,N,absent,nN,nN,e,0,2.173831,n,1,0.3144507,RSVPLG01,0.94,2023-09-13-22:05:05,972,1,Experiment,2023-09-13_15h12.08.588
1,local,local,0,11,2,134,0,,,140,exp,ZLZTSYHLHFUUTES,TSFLFNZUTHLZEHS,6,N,absent,nN,nN,n,1,0.3737962,n,1,0.1210797,RSVPLG01,0.94,2023-09-13-22:05:05,972,1,Experiment,2023-09-13_15h12.08.588
11,global,global,3,11,3,135,10,,,141,exp,SENEUFZXSTLFYNL,YETYHLSLNFFZZNS,5,U,X,uU,yY,u,1,0.3583557,n,0,0.1060049,RSVPLG01,0.94,2023-09-13-22:05:05,972,1,Experiment,2023-09-13_15h12.08.588
4,local,global,0,11,4,136,3,,,142,exp,TNENEYSZZSLUTUF,EUUSFHLNZFTLNSZ,6,H,absent,hH,nN,h,1,0.4820476,n,1,0.1055156,RSVPLG01,0.94,2023-09-13-22:05:05,972,1,Experiment,2023-09-13_15h12.08.588
7,global,local,0,11,5,137,6,,,143,exp,NEUTNSYTYFUHEZH,NFZTELUYEYNZTUH,6,S,absent,sS,nN,y,0,1.1330518,n,1,0.2825188,RSVPLG01,0.94,2023-09-13-22:05:05,972,1,Experiment,2023-09-13_15h12.08.588
9,global,local,7,11,6,138,8,,,144,exp,NFFUUTSNSEZHZYY,HZEFYLUEFUSSXHY,6,T,X,tT,yY,t,1,0.4437947,y,1,0.1215151,RSVPLG01,0.94,2023-09-13-22:05:05,972,1,Experiment,2023-09-13_15h12.08.588
1,local,local,0,11,7,139,0,,,145,exp,HENNEFZTSZTHYYU,HTUYNLEHNUZEZYS,6,L,absent,lL,nN,l,1,0.4858504,n,1,0.2652417,RSVPLG01,0.94,2023-09-13-22:05:05,972,1,Experiment,2023-09-13_15h12.08.588
3,local,local,7,11,8,140,2,,,146,exp,FYLELZYUHNSHUFN,NLYEFTSUSNHHXLY,6,T,X,tT,yY,t,1,0.3661708,n,0,0.0599108,RSVPLG01,0.94,2023-09-13-22:05:05,972,1,Experiment,2023-09-13_15h12.08.588
2,local,local,3,11,9,141,1,,,147,exp,NNFYUFSHEEZHSZT,SNFNLTEXTFZZEHH,5,L,X,lL,yY,l,1,0.3529356,n,0,0.1218704,RSVPLG01,0.94,2023-09-13-22:05:05,972,1,Experiment,2023-09-13_15h12.08.588
9,global,local,7,11,10,142,8,,,148,exp,LYHNFULZHZNEYET,NYLNZSLTFETZXFH,6,U,X,uU,yY,u,1,0.6904411,y,1,0.0434713,RSVPLG01,0.94,2023-09-13-22:05:05,972,1,Experiment,2023-09-13_15h12.08.588
4,local,global,0,11,11,143,3,,,149,exp,SYNUFEUETLTHLYH,SLYLZNNHUEUETTH,5,Z,absent,zZ,nN,n,0,0.3935878,n,1,0.1547462,RSVPLG01,0.94,2023-09-13-22:05:05,972,1,Experiment,2023-09-13_15h12.08.588
5,local,global,3,12,0,144,4,,,150,exp,ETZNHEXYFTSFYUU,YUULHEZFTSFSYET,4,L,X,lL,yY,l,1,0.4539396,y,1,0.1234833,RSVPLG01,0.94,2023-09-13-22:05:05,972,1,Experiment,2023-09-13_15h12.08.588
8,global,local,3,12,1,145,7,,,151,exp,LYZSEEZLNUYFFUT,NFLHNFXTEULYEUY,4,S,X,sS,yY,s,1,0.3688252,n,0,0.154289,RSVPLG01,0.94,2023-09-13-22:05:05,972,1,Experiment,2023-09-13_15h12.08.588
12,global,global,7,12,2,146,11,,,152,exp,NLZSHZFLFSYXUUY,SNZLEZUSYNLFFYU,5,H,X,hH,yY,h,1,0.3482882,n,0,0.1401149,RSVPLG01,0.94,2023-09-13-22:05:05,972,1,Experiment,2023-09-13_15h12.08.588
4,local,global,0,12,3,147,3,,,153,exp,FFUYZYUTLSNHTLS,HFUYESSYFTHNUTN,5,E,absent,eE,nN,e,1,0.3825343,n,1,0.1541131,RSVPLG01,0.94,2023-09-13-22:05:05,972,1,Experiment,2023-09-13_15h12.08.588
1,local,local,0,12,4,148,0,,,154,exp,ZNSZTLUESHFFEUN,EEHNTYZZFTSFNHS,6,Y,absent,yY,nN,y,1,1.2508236,n,1,0.2666092,RSVPLG01,0.94,2023-09-13-22:05:05,972,1,Experiment,2023-09-13_15h12.08.588
12,global,global,7,12,5,149,11,,,155,exp,ZTFLZUFNHNLTXYS,ZTLFFENYNSHHZYT,6,U,X,uU,yY,u,1,0.5190369,y,1,0.0777406,RSVPLG01,0.94,2023-09-13-22:05:05,972,1,Experiment,2023-09-13_15h12.08.588
4,local,global,0,12,6,150,3,,,156,exp,YZTHZESFSUTFUHL,ZFHTLNUYFSUSTYZ,6,N,absent,nN,nN,n,1,0.4126348,n,1,0.1543477,RSVPLG01,0.94,2023-09-13-22:05:05,972,1,Experiment,2023-09-13_15h12.08.588
8,global,local,3,12,7,151,7,,,157,exp,YTHLZSYUNUSFHZT,YTZEFHXUZTYSUNF,4,L,X,lL,yY,l,1,0.2806575,n,0,0.1864778,RSVPLG01,0.94,2023-09-13-22:05:05,972,1,Experiment,2023-09-13_15h12.08.588
12,global,global,7,12,8,152,11,,,158,exp,YFSENHFEYLHXUUS,SHEUZTYYHFLLSEF,5,N,X,nN,yY,n,1,0.5028439,y,1,0.1542421,RSVPLG01,0.94,2023-09-13-22:05:05,972,1,Experiment,2023-09-13_15h12.08.588
2,local,local,3,12,9,153,1,,,159,exp,NLLFTSNZUUSZEEY,FEFLHSZXLEYSNNU,5,H,X,hH,yY,h,1,0.5234188,y,1,0.0096912,RSVPLG01,0.94,2023-09-13-22:05:05,972,1,Experiment,2023-09-13_15h12.08.588
6,local,global,7,12,10,154,5,,,160,exp,NUHZFHFSLTXEEUL,TUNYTFSFSHUEHLN,4,Y,X,yY,yY,z,0,0.7150505,y,1,0.1536637,RSVPLG01,0.94,2023-09-13-22:05:05,972,1,Experiment,2023-09-13_15h12.08.588
2,local,local,3,12,11,155,1,,,161,exp,LHSFTLSYETUHUZZ,USYNHYXZLLESZET,4,N,X,nN,yY,n,1,0.427567,n,0,0.2178989,RSVPLG01,0.94,2023-09-13-22:05:05,972,1,Experiment,2023-09-13_15h12.08.588
5,local,global,3,13,0,156,4,,,162,exp,EEHLFYZXYNHZNTT,YHTYSLEZZLUTUEN,5,S,X,sS,yY,s,1,0.3162138,y,1,0.0580752,RSVPLG01,0.94,2023-09-13-22:05:05,972,1,Experiment,2023-09-13_15h12.08.588
3,local,local,7,13,1,157,2,,,163,exp,ULFNEHFYTTHSUSN,TNLFZTHYNYUXSLS,5,Z,X,zZ,yY,z,1,0.4518063,y,1,0.1866675,RSVPLG01,0.94,2023-09-13-22:05:05,972,1,Experiment,2023-09-13_15h12.08.588
4,local,global,0,13,2,158,3,,,164,exp,ZFHETSUUHTYENFN,ZHEHTLUFNUNTZEY,6,L,absent,lL,nN,l,1,0.3535942,n,1,0.1264102,RSVPLG01,0.94,2023-09-13-22:05:05,972,1,Experiment,2023-09-13_15h12.08.588
3,local,local,7,13,3,159,2,,,165,exp,LUZUEZHSYTLNSTH,TUULFYNZSHLXHNT,5,F,X,fF,yY,f,1,0.4557201,y,1,0.1054168,RSVPLG01,0.94,2023-09-13-22:05:05,972,1,Experiment,2023-09-13_15h12.08.588
8,global,local,3,13,4,160,7,,,166,exp,NLUEHFLZEUYYZHT,YUELNSEZXTZNHHY,6,F,X,fF,yY,f,1,0.4014768,n,0,0.2504512,RSVPLG01,0.94,2023-09-13-22:05:05,972,1,Experiment,2023-09-13_15h12.08.588
11,global,global,3,13,5,161,10,,,167,exp,YELSSUFFXLYETTH,LFHFTZYNSNHLTEE,6,U,X,uU,yY,u,1,0.4325001,y,1,0.027226,RSVPLG01,0.94,2023-09-13-22:05:05,972,1,Experiment,2023-09-13_15h12.08.588
7,global,local,0,13,6,162,6,,,168,exp,SLYTHUSLZZTFYNU,TSZFEYLZFYLUSTN,5,H,absent,hH,nN,h,1,0.4848381,n,1,0.0741794,RSVPLG01,0.94,2023-09-13-22:05:05,972,1,Experiment,2023-09-13_15h12.08.588
5,local,global,3,13,7,163,4,,,169,exp,YTYELHXFNFNTLZZ,FYLSZTHNZFYUNTU,4,S,X,sS,yY,s,1,0.3041136,y,1,0.0591982,RSVPLG01,0.94,2023-09-13-22:05:05,972,1,Experiment,2023-09-13_15h12.08.588
2,local,local,3,13,8,164,1,,,170,exp,SZNYTFLHYNSLHET,HNLEZUZSXNLYYTH,6,U,X,uU,yY,f,0,0.2938791,y,1,0.1707701,RSVPLG01,0.94,2023-09-13-22:05:05,972,1,Experiment,2023-09-13_15h12.08.588
6,local,global,7,13,9,165,5,,,171,exp,FHLZSTFYHLXNNUT,NTFEYNTLUHLSHSF,4,E,X,eE,yY,e,1,0.4187563,y,1,0.0580817,RSVPLG01,0.94,2023-09-13-22:05:05,972,1,Experiment,2023-09-13_15h12.08.588
7,global,local,0,13,10,166,6,,,172,exp,ZEEYULLUSZFNFNH,ELNTLHSZUUEHZFN,4,Y,absent,yY,nN,y,1,0.7490621,n,1,0.075495,RSVPLG01,0.94,2023-09-13-22:05:05,972,1,Experiment,2023-09-13_15h12.08.588
1,local,local,0,13,11,167,0,,,173,exp,LTHNUZSEHUTSFNE,LSNTLYFNTUFEUHE,6,Y,absent,yY,nN,z,0,0.3782613,n,1,0.1544411,RSVPLG01,0.94,2023-09-13-22:05:05,972,1,Experiment,2023-09-13_15h12.08.588
7,global,local,0,14,0,168,6,,,174,exp,EELSYTUUSHNZLHN,USHZYFUYESLHENZ,6,T,absent,tT,nN,t,1,0.3158325,n,1,0.1533412,RSVPLG01,0.94,2023-09-13-22:05:05,972,1,Experiment,2023-09-13_15h12.08.588
2,local,local,3,14,1,169,1,,,175,exp,TENELFNTSHSYYFZ,ZYSNUFSXYHNTFTZ,5,U,X,uU,yY,u,1,0.3783081,y,1,0.0743785,RSVPLG01,0.94,2023-09-13-22:05:05,972,1,Experiment,2023-09-13_15h12.08.588
10,global,global,0,14,2,170,9,,,176,exp,ETFSHYFZSHUTZNE,TZTSELFZNHUEUNF,6,Y,absent,yY,nN,y,1,0.7250775,n,1,0.2183622,RSVPLG01,0.94,2023-09-13-22:05:05,972,1,Experiment,2023-09-13_15h12.08.588
5,local,global,3,14,3,171,4,,,177,exp,ZUNSNEZLXYFFHLS,HFSSHTNNYZLUFZU,6,T,X,tT,yY,t,1,0.3661063,y,1,0.0109912,RSVPLG01,0.94,2023-09-13-22:05:05,972,1,Experiment,2023-09-13_15h12.08.588
3,local,local,7,14,4,172,2,,,178,exp,YNLTFHNTSFYEEUS,ETUNSZYTEFYUXFL,6,Z,X,zZ,yY,s,0,0.4330482,n,0,0.1233921,RSVPLG01,0.94,2023-09-13-22:05:05,972,1,Experiment,2023-09-13_15h12.08.588
9,global,local,7,14,5,173,8,,,179,exp,LYLUFEUSSHZTHYF,LZFSLNSYHHFTXTU,6,E,X,eE,yY,e,1,0.9953103,y,1,0.1378414,RSVPLG01,0.94,2023-09-13-22:05:05,972,1,Experiment,2023-09-13_15h12.08.588
12,global,global,7,14,6,174,11,,,180,exp,FHNTNYHSZYXFLLU,SUZEFZNFHLULHSY,4,T,X,tT,yY,t,1,0.508642,y,1,0.0267662,RSVPLG01,0.94,2023-09-13-22:05:05,972,1,Experiment,2023-09-13_15h12.08.588
11,global,global,3,14,7,175,10,,,181,exp,LNZUYZUXTSTHLSE,SUTZFENZNETLHUS,5,Y,X,yY,yY,y,1,0.6720605,n,0,0.1231746,RSVPLG01,0.94,2023-09-13-22:05:05,972,1,Experiment,2023-09-13_15h12.08.588
2,local,local,3,14,8,176,1,,,182,exp,NNSHYLZFZSUYFHT,FYUTNEZHXTSHSFN,6,E,X,eE,yY,e,1,0.4244496,y,1,0.1531677,RSVPLG01,0.94,2023-09-13-22:05:05,972,1,Experiment,2023-09-13_15h12.08.588
12,global,global,7,14,9,177,11,,,183,exp,ZSFNYLSULZXEHFU,UZSTESYZFHFHEYL,4,N,X,nN,yY,y,0,0.5109927,y,1,0.170967,RSVPLG01,0.94,2023-09-13-22:05:05,972,1,Experiment,2023-09-13_15h12.08.588
3,local,local,7,14,10,178,2,,,184,exp,YENSZFNHHULEUZY,NFYTEUZNZLXLUEH,4,T,X,tT,yY,t,1,0.4152767,y,1,0.1393914,RSVPLG01,0.94,2023-09-13-22:05:05,972,1,Experiment,2023-09-13_15h12.08.588
11,global,global,3,14,11,179,10,,,185,exp,HYSUZFEUXLTTZSE,YZTSUNHEYSLETZU,6,F,X,fF,yY,f,1,0.4591034,n,0,0.1858784,RSVPLG01,0.94,2023-09-13-22:05:05,972,1,Experiment,2023-09-13_15h12.08.588
1,local,local,0,15,0,180,0,,,186,exp,EYYELFHTZZTHSLS,LZYUENZLHTTSHUE,6,N,absent,nN,nN,n,1,0.2905036,n,1,0.1216896,RSVPLG01,0.94,2023-09-13-22:05:05,972,1,Experiment,2023-09-13_15h12.08.588
3,local,local,7,15,1,181,2,,,187,exp,EUETZSUSNYTLHLN,ENEYFTSNTSHXLHU,5,F,X,fF,yY,z,0,0.4017445,y,1,0.1225193,RSVPLG01,0.94,2023-09-13-22:05:05,972,1,Experiment,2023-09-13_15h12.08.588
12,global,global,7,15,2,182,11,,,188,exp,TUFHLLETSYXFNYE,TTLZSUYENLFUSYN,4,H,X,hH,yY,h,1,0.6942657,y,1,0.059367,RSVPLG01,0.94,2023-09-13-22:05:05,972,1,Experiment,2023-09-13_15h12.08.588
12,global,global,7,15,3,183,11,,,189,exp,HZTEFULSYFLYXSE,EFTYENHYFHZSSLZ,6,U,X,uU,yY,u,1,0.6670944,y,1,0.0569307,RSVPLG01,0.94,2023-09-13-22:05:05,972,1,Experiment,2023-09-13_15h12.08.588
8,global,local,3,15,4,184,7,,,190,exp,HENLTULSZNFZETH,HTEZSYLHXLZNEST,6,U,X,uU,yY,u,1,0.6102933,y,1,0.0591925,RSVPLG01,0.94,2023-09-13-22:05:05,972,1,Experiment,2023-09-13_15h12.08.588
11,global,global,3,15,5,185,10,,,191,exp,UNEHYZHXFLTLUZT,FUTESTLFZHHUELZ,5,Y,X,yY,yY,y,1,1.0602289,y,1,0.2987791,RSVPLG01,0.94,2023-09-13-22:05:05,972,1,Experiment,2023-09-13_15h12.08.588
1,local,local,0,15,6,186,0,,,192,exp,EUZZSNUYHLLHEFN,UNHHTFLUEENZYLZ,5,T,absent,tT,nN,t,1,0.7674736,n,1,0.0424929,RSVPLG01,0.94,2023-09-13-22:05:05,972,1,Experiment,2023-09-13_15h12.08.588
9,global,local,7,15,7,187,8,,,193,exp,FLEUYTLZHEHYUFS,FHSEYNLSHZFUXZU,6,T,X,tT,yY,t,1,0.6536445,y,1,0.0916548,RSVPLG01,0.94,2023-09-13-22:05:05,972,1,Experiment,2023-09-13_15h12.08.588
10,global,global,0,15,8,188,9,,,194,exp,TSLNUUFETYFZZLY,TZEHSFESTUYLUZL,4,N,absent,nN,nN,n,1,1.8159502,n,1,0.3617407,RSVPLG01,0.94,2023-09-13-22:05:05,972,1,Experiment,2023-09-13_15h12.08.588
5,local,global,3,15,9,189,4,,,195,exp,TLYUYNXTZESSHZL,ZHEFTNSEHNZSLYY,4,F,X,fF,yY,f,1,0.3777067,n,0,0.137178,RSVPLG01,0.94,2023-09-13-22:05:05,972,1,Experiment,2023-09-13_15h12.08.588
3,local,local,7,15,10,190,2,,,196,exp,TSFZENSLNFYYHTE,ENTUSYSYHFXTELF,4,U,X,uU,yY,u,1,0.5430598,y,1,0.0260513,RSVPLG01,0.94,2023-09-13-22:05:05,972,1,Experiment,2023-09-13_15h12.08.588
2,local,local,3,15,11,191,1,,,197,exp,ZZTNFYHUTNSSEUH,HEZELUNXNYTHZSY,5,L,X,lL,yY,y,0,0.468358,n,0,0.1068617,RSVPLG01,0.94,2023-09-13-22:05:05,972,1,Experiment,2023-09-13_15h12.08.588
4,local,global,0,16,0,192,3,,,198,exp,HEUTUFZLNLSSNZE,ZHSYUESLLZFNFEN,4,Y,absent,yY,nN,y,1,0.7375456,n,1,0.1386176,RSVPLG01,0.94,2023-09-13-22:05:05,972,1,Experiment,2023-09-13_15h12.08.588
11,global,global,3,16,1,193,10,,,199,exp,EFZYUZNXLNYETLH,THNTSFZNLLYEEHY,5,U,X,uU,yY,u,1,0.4025615,y,1,0.0431789,RSVPLG01,0.94,2023-09-13-22:05:05,972,1,Experiment,2023-09-13_15h12.08.588
12,global,global,7,16,2,194,11,,,200,exp,HLHYTEZZFFXLUUN,ZHHSNEETFLNZUUT,4,Y,X,yY,yY,y,1,0.7574527,y,1,0.0592841,RSVPLG01,0.94,2023-09-13-22:05:05,972,1,Experiment,2023-09-13_15h12.08.588
8,global,local,3,16,3,195,7,,,201,exp,ZTENYHFLEZSYNTL,SNYLNUZYXESLZTT,6,H,X,hH,yY,f,0,1.0026369,n,0,0.2834999,RSVPLG01,0.94,2023-09-13-22:05:05,972,1,Experiment,2023-09-13_15h12.08.588
3,local,local,7,16,4,196,2,,,202,exp,HTUULNEEZHNZFYF,ENTHSTEUYFYXNFH,5,S,X,sS,yY,s,1,0.4222852,y,1,0.12277,RSVPLG01,0.94,2023-09-13-22:05:05,972,1,Experiment,2023-09-13_15h12.08.588
5,local,global,3,16,5,197,4,,,203,exp,YHLSFNXYTEUFHET,NFLZHLYTYFENUHE,4,Z,X,zZ,yY,z,1,0.7750466,y,1,0.1052293,RSVPLG01,0.94,2023-09-13-22:05:05,972,1,Experiment,2023-09-13_15h12.08.588
10,global,global,0,16,6,198,9,,,204,exp,ETSLNTHHSFZYELZ,HFSEUHZSFYELTZY,5,N,absent,nN,nN,n,1,0.4386805,n,1,0.2351933,RSVPLG01,0.94,2023-09-13-22:05:05,972,1,Experiment,2023-09-13_15h12.08.588
1,local,local,0,16,7,199,0,,,205,exp,EHZSLYNHLTFYFET,ZEFUHENZLLYTYNT,4,U,absent,uU,nN,u,1,0.6724286,n,1,0.2504702,RSVPLG01,0.94,2023-09-13-22:05:05,972,1,Experiment,2023-09-13_15h12.08.588
12,global,global,7,16,8,200,11,,,206,exp,HNFUZSEHNTXLFSE,TNEYZELFLNZSHTF,4,U,X,uU,yY,u,1,0.3758254,y,1,0.0430193,RSVPLG01,0.94,2023-09-13-22:05:05,972,1,Experiment,2023-09-13_15h12.08.588
9,global,local,7,16,9,201,8,,,207,exp,ZUUTYFLEFEHHYNL,ELNSUYYNHZXEFFZ,4,T,X,tT,yY,t,1,0.4565403,y,1,0.1057389,RSVPLG01,0.94,2023-09-13-22:05:05,972,1,Experiment,2023-09-13_15h12.08.588
10,global,global,0,16,10,202,9,,,208,exp,USNLFHZSTNZYHUY,LUYSENYTNSLHZUH,5,F,absent,fF,nN,e,0,0.3715038,n,1,0.1382336,RSVPLG01,0.94,2023-09-13-22:05:05,972,1,Experiment,2023-09-13_15h12.08.588
1,local,local,0,16,11,203,0,,,209,exp,FNSUYZSNUFLLHHZ,TSUZENFHNHLSFTU,5,E,absent,eE,nN,e,1,0.4036402,n,1,0.1213558,RSVPLG01,0.94,2023-09-13-22:05:05,972,1,Experiment,2023-09-13_15h12.08.588
6,local,global,7,17,0,204,5,,,210,exp,SZENUYZHSLXLYUH,UYETSHULLFZYHSE,4,T,X,tT,yY,t,1,0.4093313,y,1,0.0599651,RSVPLG01,0.94,2023-09-13-22:05:05,972,1,Experiment,2023-09-13_15h12.08.588
8,global,local,3,17,1,205,7,,,211,exp,EFFHEULTYNLUYZN,LYTSLZXNFYUZENU,4,H,X,hH,yY,h,1,0.5723242,y,1,0.0270922,RSVPLG01,0.94,2023-09-13-22:05:05,972,1,Experiment,2023-09-13_15h12.08.588
7,global,local,0,17,2,206,6,,,212,exp,ULEYZTYLFFUTEHN,EENYSFUFLYHLTTH,5,Z,absent,zZ,nN,n,0,0.6627673,n,1,1.1471671,RSVPLG01,0.94,2023-09-13-22:05:05,972,1,Experiment,2023-09-13_15h12.08.588
10,global,global,0,17,3,207,9,,,213,exp,YUFNHLSSYZEULNZ,FYSZTLUEYNLZFSU,5,H,absent,hH,nN,h,1,1.005034,n,1,0.137261,RSVPLG01,0.94,2023-09-13-22:05:05,972,1,Experiment,2023-09-13_15h12.08.588
5,local,global,3,17,4,208,4,,,214,exp,FEUTNFXZNLZHYEY,YUZSEHUHZFLELNN,4,S,X,sS,yY,s,1,0.3833922,y,1,0.0749088,RSVPLG01,0.94,2023-09-13-22:05:05,972,1,Experiment,2023-09-13_15h12.08.588
6,local,global,7,17,5,209,5,,,215,exp,HEESNYFZTUXNFUH,TFNLTZHYUEFYUNE,4,L,X,lL,yY,n,0,0.4637496,y,1,0.1542902,RSVPLG01,0.94,2023-09-13-22:05:05,972,1,Experiment,2023-09-13_15h12.08.588
4,local,global,0,17,6,210,3,,,216,exp,THHUSEZSYULZTFY,HZTLLNYUTSZSUFH,6,N,absent,nN,nN,n,1,0.6711636,n,1,0.0935258,RSVPLG01,0.94,2023-09-13-22:05:05,972,1,Experiment,2023-09-13_15h12.08.588
10,global,global,0,17,7,211,9,,,217,exp,ZLHEFYNNEUZTTFU,UULZFSHNZNTHFET,6,Y,absent,yY,nN,y,1,0.7042261,n,1,0.0745025,RSVPLG01,0.94,2023-09-13-22:05:05,972,1,Experiment,2023-09-13_15h12.08.588
9,global,local,7,17,8,212,8,,,218,exp,LLTFSSNTHUUNHZY,NYHEYHSZSTXLUNU,4,F,X,fF,yY,f,1,0.2058113,y,1,0.3137877,RSVPLG01,0.94,2023-09-13-22:05:05,972,1,Experiment,2023-09-13_15h12.08.588
5,local,global,3,17,9,213,4,,,219,exp,ZHUEENUZXFSYFYT,FTZHTLEUEHSZYSF,6,L,X,lL,yY,l,1,0.4115133,y,1,0.0903166,RSVPLG01,0.94,2023-09-13-22:05:05,972,1,Experiment,2023-09-13_15h12.08.588
2,local,local,3,17,10,214,1,,,220,exp,FHUEHLYYTFTSESZ,UEFSZNHTXSYEHZU,6,N,X,nN,yY,n,1,0.6164768,y,1,0.1222539,RSVPLG01,0.94,2023-09-13-22:05:05,972,1,Experiment,2023-09-13_15h12.08.588
11,global,global,3,17,11,215,10,,,221,exp,TEYSSHEFXULZFYL,UTYLUNZFFSELEYS,6,H,X,hH,yY,h,1,0.7681401,n,0,0.1393617,RSVPLG01,0.94,2023-09-13-22:05:05,972,1,Experiment,2023-09-13_15h12.08.588
11,global,global,3,18,0,216,10,,,222,exp,TYEESHTYXLLNNZF,YFETSUNFZZNEYLS,6,H,X,hH,yY,h,1,0.6822791,n,0,0.058767,RSVPLG01,0.94,2023-09-13-22:05:05,972,1,Experiment,2023-09-13_15h12.08.588
1,local,local,0,18,1,217,0,,,223,exp,UHFZNLLNSSFHYUE,YNHTESYUHNSFUFL,4,T,absent,tT,nN,z,0,1.27452,n,1,0.1229063,RSVPLG01,0.94,2023-09-13-22:05:05,972,1,Experiment,2023-09-13_15h12.08.588
7,global,local,0,18,2,218,6,,,224,exp,UNHEYSZHYZUTENF,ZHYFULHUNZNTTEY,6,S,absent,sS,nN,z,0,0.4193362,n,1,0.1058594,RSVPLG01,0.94,2023-09-13-22:05:05,972,1,Experiment,2023-09-13_15h12.08.588
1,local,local,0,18,3,219,0,,,225,exp,ZNTSELNHZUTHLSU,HZTSYTFUSNNLUFH,5,Y,absent,yY,nN,y,1,0.7395572,n,1,0.0890035,RSVPLG01,0.94,2023-09-13-22:05:05,972,1,Experiment,2023-09-13_15h12.08.588
9,global,local,7,18,4,220,8,,,226,exp,FSNNUYEZZYHTSHT,SSZFLEYTNHNXHFZ,5,U,X,uU,yY,n,0,1.5266378,n,0,0.3162815,RSVPLG01,0.94,2023-09-13-22:05:05,972,1,Experiment,2023-09-13_15h12.08.588
4,local,global,0,18,5,221,3,,,227,exp,UNYZZSNLFLTFHTU,NFYULELYTUFTNZZ,6,E,absent,eE,nN,e,1,0.4181163,n,1,0.153746,RSVPLG01,0.94,2023-09-13-22:05:05,972,1,Experiment,2023-09-13_15h12.08.588
10,global,global,0,18,6,222,9,,,228,exp,ELNETYYFZHNUFUH,FNUESLNUZYHEHZY,5,T,absent,tT,nN,y,0,0.8725513,n,1,0.1391274,RSVPLG01,0.94,2023-09-13-22:05:05,972,1,Experiment,2023-09-13_15h12.08.588
5,local,global,3,18,7,223,4,,,229,exp,ZYEYLUSZXESFFNN,FFEZETZNYYLHNSS,6,T,X,tT,yY,u,0,0.3251775,n,0,0.170378,RSVPLG01,0.94,2023-09-13-22:05:05,972,1,Experiment,2023-09-13_15h12.08.588
5,local,global,3,18,8,224,4,,,230,exp,LNFHTZNTXSHYSEF,HFSHEUFTLYYNESN,6,U,X,uU,yY,u,1,0.4658969,y,1,0.0592576,RSVPLG01,0.94,2023-09-13-22:05:05,972,1,Experiment,2023-09-13_15h12.08.588
4,local,global,0,18,9,225,3,,,231,exp,LHSFSNYZTEYTNZH,EHNUSTZLTEYSZHY,4,U,absent,uU,nN,u,1,0.4050586,n,1,0.1386043,RSVPLG01,0.94,2023-09-13-22:05:05,972,1,Experiment,2023-09-13_15h12.08.588
6,local,global,7,18,10,226,5,,,232,exp,ZFNEUTZFSYXTSNL,ZZSHYLFUTSNLFNY,4,H,X,hH,yY,h,1,0.595735,y,1,0.040909,RSVPLG01,0.94,2023-09-13-22:05:05,972,1,Experiment,2023-09-13_15h12.08.588
4,local,global,0,18,11,227,3,,,233,exp,LTYNHULSZYEESUZ,YNUYFTSSEZTZUEL,5,F,absent,fF,nN,f,1,0.4461641,n,1,0.6034391,RSVPLG01,0.94,2023-09-13-22:05:05,972,1,Experiment,2023-09-13_15h12.08.588
8,global,local,3,19,0,228,7,,,234,exp,ESETSLFUFZUHLNN,ESNYZUXFNSUFZLE,4,T,X,tT,yY,y,0,0.6205267,n,0,0.1384886,RSVPLG01,0.94,2023-09-13-22:05:05,972,1,Experiment,2023-09-13_15h12.08.588
1,local,local,0,19,1,229,0,,,235,exp,FHUYSEFTLUHNSTE,LSSZFFTHNHEUELU,4,Z,absent,zZ,nN,z,1,0.397427,n,1,0.219134,RSVPLG01,0.94,2023-09-13-22:05:05,972,1,Experiment,2023-09-13_15h12.08.588
8,global,local,3,19,2,230,7,,,236,exp,TYZFUHSTHESFEZY,SHYHNFZXFTYZLLE,5,U,X,uU,yY,u,1,0.5235825,n,0,0.2170264,RSVPLG01,0.94,2023-09-13-22:05:05,972,1,Experiment,2023-09-13_15h12.08.588
5,local,global,3,19,3,231,4,,,237,exp,ENNLZYFXTTSLSYF,FNTSUEELYHNHYFT,5,U,X,uU,yY,u,1,0.4252424,y,1,0.0262425,RSVPLG01,0.94,2023-09-13-22:05:05,972,1,Experiment,2023-09-13_15h12.08.588
5,local,global,3,19,4,232,4,,,238,exp,UHZZESSXUYLLNTY,ZLNYFHUTLSSNHTU,5,F,X,fF,yY,f,1,0.3992705,y,1,0.0895622,RSVPLG01,0.94,2023-09-13-22:05:05,972,1,Experiment,2023-09-13_15h12.08.588
10,global,global,0,19,5,233,9,,,239,exp,UTHTNLHYYEFSEUF,YEUFUZNSENTSYHF,6,L,absent,lL,nN,l,1,0.3785924,n,1,0.0901366,RSVPLG01,0.94,2023-09-13-22:05:05,972,1,Experiment,2023-09-13_15h12.08.588
3,local,local,7,19,6,234,2,,,240,exp,ENZLHFZFSUHETNT,THNYFZTHNSXFEEZ,4,Y,X,yY,yY,z,0,0.3284893,y,1,0.1372943,RSVPLG01,0.94,2023-09-13-22:05:05,972,1,Experiment,2023-09-13_15h12.08.588
7,global,local,0,19,7,235,6,,,241,exp,YNYHNUFEZLFZUTL,NFYSLTYLZUFTEZU,4,H,absent,hH,nN,h,1,0.3886992,n,1,0.0600156,RSVPLG01,0.94,2023-09-13-22:05:05,972,1,Experiment,2023-09-13_15h12.08.588
11,global,global,3,19,8,236,10,,,242,exp,TLFYUHYXZLSEHET,HYLENLSFZFHSTYZ,5,U,X,uU,yY,u,1,0.3778497,n,0,0.1876245,RSVPLG01,0.94,2023-09-13-22:05:05,972,1,Experiment,2023-09-13_15h12.08.588
3,local,local,7,19,9,237,2,,,243,exp,YFEHNUTUNLYSSLF,TYEZFYFLTEXNSLU,4,Z,X,zZ,yY,z,1,0.4238243,y,1,0.1540066,RSVPLG01,0.94,2023-09-13-22:05:05,972,1,Experiment,2023-09-13_15h12.08.588
10,global,global,0,19,10,238,9,,,244,exp,SENZTTFUYYFELNS,LNTHYUFLEETSYNF,4,Z,absent,zZ,nN,z,1,0.3907585,n,1,0.1059141,RSVPLG01,0.94,2023-09-13-22:05:05,972,1,Experiment,2023-09-13_15h12.08.588
9,global,local,7,19,11,239,8,,,245,exp,UYLEZTTUFSSZYNF,YSFHNFUSYNXLLTZ,4,E,X,eE,yY,y,0,0.7089587,y,1,0.9697736,RSVPLG01,0.94,2023-09-13-22:05:05,972,1,Experiment,2023-09-13_15h12.08.588