row,t1_level,t2_level,t2_lag,.thisRepN,.thisTrialN,.thisN,.thisIndex,thisRow.t,notes,trial,trial_type,global_letters,local_letters,t1_pos,t1,t2,t1_corr,t2_corr,t1_resp,t1_acc,t1_rt,t2_resp,t2_acc,t2_rt,exp,ver,mod-utc,sub,sess,blocktyp,datetime
9,global,local,7,0,0,0,8,,,1,warmup,THFUYEFUTSSLEHL,SHLTNZUFULEXSHE,5,Y,X,yY,yY,y,1,0.3249765,n,0,4.360076375,RSVPLG01,0.94,2023-09-12-22:46:04,907,1,Experiment,2023-09-12_15h59.54.758
5,local,global,3,0,1,1,4,,,2,warmup,ZHSTHEXUZFELUNL,ZNEYFLHSHFUZUSN,4,Y,X,yY,yY,y,1,0.322432125,y,1,0.620297291,RSVPLG01,0.94,2023-09-12-22:46:04,907,1,Experiment,2023-09-12_15h59.54.758
6,local,global,7,0,2,2,5,,,3,warmup,FNLNHZUSEHYUXFE,NHFHLTYFNSLESEY,6,T,X,tT,yY,t,1,0.536143084,y,1,0.959299708,RSVPLG01,0.94,2023-09-12-22:46:04,907,1,Experiment,2023-09-12_15h59.54.758
7,global,local,0,0,3,3,6,,,4,warmup,ULYLYHTNSTSENZE,NNUZEFLTTSZYYUE,6,H,absent,hH,nN,h,1,0.92363975,n,1,0.566139625,RSVPLG01,0.94,2023-09-12-22:46:04,907,1,Experiment,2023-09-12_15h59.54.758
10,global,global,0,0,4,4,9,,,5,warmup,YSFHTUSEYZLTZEH,FFETZNYYSLTLEHH,6,U,absent,uU,nN,u,1,0.896547167,n,1,0.479401791,RSVPLG01,0.94,2023-09-12-22:46:04,907,1,Experiment,2023-09-12_15h59.54.758
2,local,local,3,0,0,0,1,,,6,exp,TZTHUNENLUYSSZL,NZSFLYXESTUNLYE,4,F,X,fF,yY,e,0,0.749808333,y,1,0.996251209,RSVPLG01,0.94,2023-09-12-22:46:04,907,1,Experiment,2023-09-12_15h59.54.758
10,global,global,0,0,1,1,9,,,7,exp,ZLENSTTUZHYELNU,LYUUFZYTHNNEEZT,5,S,absent,sS,nN,z,0,1.027038458,n,1,0.270254958,RSVPLG01,0.94,2023-09-12-22:46:04,907,1,Experiment,2023-09-12_15h59.54.758
11,global,global,3,0,2,2,10,,,8,exp,ENSLTFHLXUZHSEN,EHHSUYNLTZZUTNS,6,F,X,fF,yY,f,1,1.171934917,n,0,0.5100235,RSVPLG01,0.94,2023-09-12-22:46:04,907,1,Experiment,2023-09-12_15h59.54.758
12,global,global,7,0,3,3,11,,,9,exp,YSYUHLZFZTXHFST,SZFNEHZYTETLLFH,4,U,X,uU,yY,u,1,0.96602825,y,1,0.283666375,RSVPLG01,0.94,2023-09-12-22:46:04,907,1,Experiment,2023-09-12_15h59.54.758
6,local,global,7,0,4,4,5,,,10,exp,EFNLZYNUHZXSFSE,FHFTNSHUEZYZUSN,4,T,X,tT,yY,t,1,0.564668917,y,1,0.232380625,RSVPLG01,0.94,2023-09-12-22:46:04,907,1,Experiment,2023-09-12_15h59.54.758
11,global,global,3,0,5,5,10,,,11,exp,UTTYSHZXNZLLFYH,FUTLETZZNHYFUYH,5,S,X,sS,yY,s,1,0.921569958,n,0,0.380351542,RSVPLG01,0.94,2023-09-12-22:46:04,907,1,Experiment,2023-09-12_15h59.54.758
5,local,global,3,0,6,6,4,,,12,exp,YSLTZUEXNYFNTLE,ELSUHNNUTTSELYF,5,H,X,hH,yY,h,1,0.599460417,y,1,0.232392125,RSVPLG01,0.94,2023-09-12-22:46:04,907,1,Experiment,2023-09-12_15h59.54.758
1,local,local,0,0,7,7,0,,,13,exp,NFNHZEUYTHUFYTL,HYHNSUFLELTNYTF,5,S,absent,sS,nN,s,1,0.605766042,y,0,2.67623,RSVPLG01,0.94,2023-09-12-22:46:04,907,1,Experiment,2023-09-12_15h59.54.758
7,global,local,0,0,8,8,6,,,14,exp,UHZFESHTYENUFYZ,NTZEULHFZUNYHFT,6,S,absent,sS,nN,s,1,1.085816541,n,1,0.234621959,RSVPLG01,0.94,2023-09-12-22:46:04,907,1,Experiment,2023-09-12_15h59.54.758
2,local,local,3,0,9,9,1,,,15,exp,SLFHHETNYFTUUSY,SHFHUZFLXYLTYTS,6,Z,X,zZ,yY,z,1,0.5701385,y,1,0.295966459,RSVPLG01,0.94,2023-09-12-22:46:04,907,1,Experiment,2023-09-12_15h59.54.758
5,local,global,3,0,10,10,4,,,16,exp,SUTHNEXZTZLNYUE,NYSFSLENTEZLTUZ,4,F,X,fF,yY,f,1,0.392689333,y,1,0.047325167,RSVPLG01,0.94,2023-09-12-22:46:04,907,1,Experiment,2023-09-12_15h59.54.758
12,global,global,7,0,11,11,11,,,17,exp,UTYZUHSEHEXNLTY,HSSFTEYLTUNHELY,4,Z,X,zZ,yY,z,1,0.724951875,y,1,0.131384584,RSVPLG01,0.94,2023-09-12-22:46:04,907,1,Experiment,2023-09-12_15h59.54.758
9,global,local,7,1,0,12,8,,,18,exp,HLZETFFYUHELNNU,ZHYFSELFZNHXUEY,5,T,X,tT,yY,t,1,2.332666875,y,1,0.3731905,RSVPLG01,0.94,2023-09-12-22:46:04,907,1,Experiment,2023-09-12_15h59.54.758
1,local,local,0,1,1,13,0,,,19,exp,ULSEFZTYNFETULY,SSYETHLTUNYNULE,6,H,absent,hH,nN,h,1,0.938669334,n,1,0.141507375,RSVPLG01,0.94,2023-09-12-22:46:04,907,1,Experiment,2023-09-12_15h59.54.758
12,global,global,7,1,2,14,11,,,20,exp,TNYLFHZYTUXEZUH,YHZSFUEHNETNTFZ,4,L,X,lL,yY,l,1,0.862275458,y,1,0.208390792,RSVPLG01,0.94,2023-09-12-22:46:04,907,1,Experiment,2023-09-12_15h59.54.758
5,local,global,3,1,3,15,4,,,21,exp,SZTFYNXYTHNEELS,NTZUEELHLHSYZSY,4,U,X,uU,yY,u,1,0.414056584,y,1,0.208922208,RSVPLG01,0.94,2023-09-12-22:46:04,907,1,Experiment,2023-09-12_15h59.54.758
5,local,global,3,1,4,16,4,,,22,exp,ZHZLTUTHXNEYNEF,ZYLFNSYHFZTLEHN,6,S,X,sS,yY,s,1,0.508074792,y,1,0.229329625,RSVPLG01,0.94,2023-09-12-22:46:04,907,1,Experiment,2023-09-12_15h59.54.758
12,global,global,7,1,5,17,11,,,23,exp,EEUUNYFFZHTSXST,NEUZTLHSNUFESTF,6,Y,X,yY,yY,y,1,1.541851875,y,1,0.363111583,RSVPLG01,0.94,2023-09-12-22:46:04,907,1,Experiment,2023-09-12_15h59.54.758
7,global,local,0,1,6,18,6,,,24,exp,NYLHSZEENUHYFUF,NFYNHTYELULSSUH,6,Z,absent,zZ,nN,z,1,0.892456041,n,1,0.767272292,RSVPLG01,0.94,2023-09-12-22:46:04,907,1,Experiment,2023-09-12_15h59.54.758
4,local,global,0,1,7,19,3,,,25,exp,ZLYUFHSNYSNLHFZ,NYSTFZEESHYNLZL,4,T,absent,tT,nN,t,1,0.984698667,n,1,0.295960666,RSVPLG01,0.94,2023-09-12-22:46:04,907,1,Experiment,2023-09-12_15h59.54.758
6,local,global,7,1,8,20,5,,,26,exp,UHEFUZZYSLXLTTS,SSLNTZLYHEEYZUT,4,N,X,nN,yY,n,1,1.182484417,n,0,0.088048042,RSVPLG01,0.94,2023-09-12-22:46:04,907,1,Experiment,2023-09-12_15h59.54.758
2,local,local,3,1,9,21,1,,,27,exp,TUYFHENNYLESUTS,YYTZENXEHSNSULT,4,Z,X,zZ,yY,z,1,0.896102875,n,0,0.219984417,RSVPLG01,0.94,2023-09-12-22:46:04,907,1,Experiment,2023-09-12_15h59.54.758
10,global,global,0,1,10,22,9,,,28,exp,ETLFTLESHZHUYZS,UYYNSHZLEHLUEST,4,F,absent,fF,nN,f,1,0.9133175,n,1,0.223833417,RSVPLG01,0.94,2023-09-12-22:46:04,907,1,Experiment,2023-09-12_15h59.54.758
2,local,local,3,1,11,23,1,,,29,exp,HNHYELTZFUZYUFT,UZUTHSZYXTFEHNN,6,S,X,sS,yY,s,1,0.891399375,n,0,0.297151208,RSVPLG01,0.94,2023-09-12-22:46:04,907,1,Experiment,2023-09-12_15h59.54.758
8,global,local,3,2,0,24,7,,,30,exp,SZTTLFZYSEFEUHY,ZYUYNZEXEFUTHSS,5,L,X,lL,yY,l,1,0.495901917,y,1,0.15430925,RSVPLG01,0.94,2023-09-12-22:46:04,907,1,Experiment,2023-09-12_15h59.54.758
1,local,local,0,2,1,25,0,,,31,exp,UHTZLHSYZSENUEN,ESYYFHHEUTZSNZU,5,F,absent,fF,nN,h,0,0.856497625,n,1,0.121921916,RSVPLG01,0.94,2023-09-12-22:46:04,907,1,Experiment,2023-09-12_15h59.54.758
3,local,local,7,2,2,26,2,,,32,exp,YSYHEHLNNTSFULT,NUNYZFSTHLFXULH,5,Z,X,zZ,yY,e,0,1.492852208,n,0,0.054657583,RSVPLG01,0.94,2023-09-12-22:46:04,907,1,Experiment,2023-09-12_15h59.54.758
3,local,local,7,2,3,27,2,,,33,exp,FHTUSLLEFYTYZZE,TZFYNHYFEZUXLHU,5,N,X,nN,yY,n,1,2.992233208,n,0,0.009998958,RSVPLG01,0.94,2023-09-12-22:46:04,907,1,Experiment,2023-09-12_15h59.54.758
6,local,global,7,2,4,28,5,,,34,exp,NUEZYHSUEFSZXTN,YNSFTLENUYUFZTS,6,L,X,lL,yY,l,1,1.733015625,n,0,1.094058042,RSVPLG01,0.94,2023-09-12-22:46:04,907,1,Experiment,2023-09-12_15h59.54.758
12,global,global,7,2,5,29,11,,,35,exp,LNSSEHTFTUYEXLU,ETSLYZTEUNLUFSY,6,H,X,hH,yY,h,1,0.866093,y,1,0.36608875,RSVPLG01,0.94,2023-09-12-22:46:04,907,1,Experiment,2023-09-12_15h59.54.758
1,local,local,0,2,6,30,0,,,36,exp,SZLHUFFUTYSTNZL,NULEUZTSTYLNYFZ,4,E,absent,eE,nN,e,1,1.105412083,n,1,0.372617167,RSVPLG01,0.94,2023-09-12-22:46:04,907,1,Experiment,2023-09-12_15h59.54.758
10,global,global,0,2,7,31,9,,,37,exp,YYLEZSEHHFNNFLS,FEHHTNEUYSULLNF,5,Z,absent,zZ,nN,z,1,0.843402334,n,1,0.29523175,RSVPLG01,0.94,2023-09-12-22:46:04,907,1,Experiment,2023-09-12_15h59.54.758
2,local,local,3,2,8,32,1,,,38,exp,ZFLYNHFUSUELYES,LYFZTEZXSUFSHLE,5,T,X,tT,yY,t,1,1.534162083,n,0,0.147160917,RSVPLG01,0.94,2023-09-12-22:46:04,907,1,Experiment,2023-09-12_15h59.54.758
8,global,local,3,2,9,33,7,,,39,exp,LFYEHUETLNHYTSF,ESFNTZYLXSLHFYH,6,U,X,uU,yY,u,1,0.96828175,n,0,0.113054792,RSVPLG01,0.94,2023-09-12-22:46:04,907,1,Experiment,2023-09-12_15h59.54.758
4,local,global,0,2,10,34,3,,,40,exp,ZEEUYFZHLHSUSLF,ZUEUTSHHFLSENZL,5,T,absent,tT,nN,t,1,0.7095305,y,0,0.211041041,RSVPLG01,0.94,2023-09-12-22:46:04,907,1,Experiment,2023-09-12_15h59.54.758
12,global,global,7,2,11,35,11,,,41,exp,HELULNTYHEXZSYZ,SEYFNHSTZLHYZLN,4,U,X,uU,yY,u,1,0.634694333,y,1,0.110123541,RSVPLG01,0.94,2023-09-12-22:46:04,907,1,Experiment,2023-09-12_15h59.54.758
10,global,global,0,3,0,36,9,,,42,exp,YFLSNLYUUHHTFSZ,FUSFEYTHYLHTSLZ,5,N,absent,nN,nN,n,1,1.01469225,n,1,0.572460833,RSVPLG01,0.94,2023-09-12-22:46:04,907,1,Experiment,2023-09-12_15h59.54.758
12,global,global,7,3,1,37,11,,,43,exp,LUSZELYFSZTXUHF,FUYTNTFLYSHUZLS,5,E,X,eE,yY,e,1,0.982952625,y,1,0.228903708,RSVPLG01,0.94,2023-09-12-22:46:04,907,1,Experiment,2023-09-12_15h59.54.758
8,global,local,3,3,2,38,7,,,44,exp,EYSULNHNEFZLSYZ,FLZTELXHNFZYNSE,4,U,X,uU,yY,u,1,1.259631084,y,1,0.2967335,RSVPLG01,0.94,2023-09-12-22:46:04,907,1,Experiment,2023-09-12_15h59.54.758
10,global,global,0,3,3,39,9,,,45,exp,TENLFHSZUTLNUHZ,NLNHYEZUSSHTETZ,5,F,absent,fF,nN,f,1,1.112615875,n,1,0.739304916,RSVPLG01,0.94,2023-09-12-22:46:04,907,1,Experiment,2023-09-12_15h59.54.758
5,local,global,3,3,4,40,4,,,46,exp,HELUSZEXNYZFYUN,UYUNTZZHEEHFNLL,5,T,X,tT,yY,t,1,0.477910791,y,1,0.155226667,RSVPLG01,0.94,2023-09-12-22:46:04,907,1,Experiment,2023-09-12_15h59.54.758
7,global,local,0,3,5,41,6,,,47,exp,FENYTUFYZESZULL,YLUSHEYFZSNFELZ,5,T,absent,tT,nN,t,1,0.42159775,y,0,0.229269542,RSVPLG01,0.94,2023-09-12-22:46:04,907,1,Experiment,2023-09-12_15h59.54.758
3,local,local,7,3,6,42,2,,,48,exp,FZHYLUHFNEZYLSS,NNYESTYHHSEZXFZ,6,T,X,tT,yY,t,1,1.438843,n,0,0.1676125,RSVPLG01,0.94,2023-09-12-22:46:04,907,1,Experiment,2023-09-12_15h59.54.758
4,local,global,0,3,7,43,3,,,49,exp,HNZSYUEZTNFYTFE,TEHLFYYENZTZNUH,4,L,absent,lL,nN,l,1,0.501084208,y,0,0.211367209,RSVPLG01,0.94,2023-09-12-22:46:04,907,1,Experiment,2023-09-12_15h59.54.758
9,global,local,7,3,8,44,8,,,50,exp,SLHFYEYTLNSUHUT,THNZENUUYSXLLYE,4,F,X,fF,yY,f,1,0.460396083,y,1,0.100302083,RSVPLG01,0.94,2023-09-12-22:46:04,907,1,Experiment,2023-09-12_15h59.54.758
3,local,local,7,3,9,45,2,,,51,exp,TFLUSYFNYTUNHLZ,NZTNEYHFLHYXZLU,5,E,X,eE,yY,e,1,0.531396792,y,1,0.194234792,RSVPLG01,0.94,2023-09-12-22:46:04,907,1,Experiment,2023-09-12_15h59.54.758
1,local,local,0,3,10,46,0,,,52,exp,TEZLTSZHEHNLUNU,NNYLTFHETUZZLHY,6,F,absent,fF,nN,f,1,0.802244458,y,0,0.03708875,RSVPLG01,0.94,2023-09-12-22:46:04,907,1,Experiment,2023-09-12_15h59.54.758
9,global,local,7,3,11,47,8,,,53,exp,YUYLNZLHTTENFEH,UENLFSTTHHYLXEU,6,Z,X,zZ,yY,z,1,0.91895,y,1,1.133156917,RSVPLG01,0.94,2023-09-12-22:46:04,907,1,Experiment,2023-09-12_15h59.54.758
12,global,global,7,4,0,48,11,,,54,exp,TZEYHLHSFFUSXYU,ZEHHUNSFTFUZTYE,6,L,X,lL,yY,l,1,0.804159125,y,1,0.252410708,RSVPLG01,0.94,2023-09-12-22:46:04,907,1,Experiment,2023-09-12_15h59.54.758
6,local,global,7,4,1,49,5,,,55,exp,TLZHNNTYFUXFELU,ZYZSYNUNEUTFFLE,4,S,X,sS,yY,s,1,0.593213666,y,1,0.62536075,RSVPLG01,0.94,2023-09-12-22:46:04,907,1,Experiment,2023-09-12_15h59.54.758
3,local,local,7,4,2,50,2,,,56,exp,LNESTLSZEUFYUYF,LYUZHUNNZEEXLYS,5,H,X,hH,yY,h,1,1.387674917,y,1,0.026579666,RSVPLG01,0.94,2023-09-12-22:46:04,907,1,Experiment,2023-09-12_15h59.54.758
6,local,global,7,4,3,51,5,,,57,exp,NSTYEUFLELXZUSN,STUHFNLLTZNSEEU,4,H,X,hH,yY,h,1,0.441161417,y,1,0.13619575,RSVPLG01,0.94,2023-09-12-22:46:04,907,1,Experiment,2023-09-12_15h59.54.758
1,local,local,0,4,4,52,0,,,58,exp,SFZNHEZUYUNFTTS,FTUYSLYSZNHHTZU,6,L,absent,lL,nN,l,1,0.734245041,y,0,0.287449458,RSVPLG01,0.94,2023-09-12-22:46:04,907,1,Experiment,2023-09-12_15h59.54.758
6,local,global,7,4,5,53,5,,,59,exp,FHZYTUYHFNLSXTL,YSHZTEFNLHNSYTL,6,E,X,eE,yY,e,1,1.278086833,y,1,0.177102708,RSVPLG01,0.94,2023-09-12-22:46:04,907,1,Experiment,2023-09-12_15h59.54.758
10,global,global,0,4,6,54,9,,,60,exp,FUTLSHNZNZESTFU,SFZYNFHUUTSENHZ,4,L,absent,lL,nN,l,1,0.847688209,n,1,0.290383208,RSVPLG01,0.94,2023-09-12-22:46:04,907,1,Experiment,2023-09-12_15h59.54.758
8,global,local,3,4,7,55,7,,,61,exp,YLFNSENZSFTUTUZ,NSZFUHTLXSYNFUT,6,E,X,eE,yY,e,1,1.145264292,n,0,0.287866459,RSVPLG01,0.94,2023-09-12-22:46:04,907,1,Experiment,2023-09-12_15h59.54.758
2,local,local,3,4,8,56,1,,,62,exp,UTFZYFLNSUNSLZE,ZELEHNFXLTZNUST,5,H,X,hH,yY,h,1,0.66404475,n,0,0.831095959,RSVPLG01,0.94,2023-09-12-22:46:04,907,1,Experiment,2023-09-12_15h59.54.758
5,local,global,3,4,9,57,4,,,63,exp,LFLNHTYZXFESEYZ,EENZLUYFZSHHSFY,6,U,X,uU,yY,u,1,0.721124875,y,1,0.211353333,RSVPLG01,0.94,2023-09-12-22:46:04,907,1,Experiment,2023-09-12_15h59.54.758
11,global,global,3,4,10,58,10,,,64,exp,LSYHFEXTSTEZLFN,FLZUNZNYSTFSYEE,4,H,X,hH,yY,h,1,0.561807833,y,1,0.580225917,RSVPLG01,0.94,2023-09-12-22:46:04,907,1,Experiment,2023-09-12_15h59.54.758
1,local,local,0,4,11,59,0,,,65,exp,EYSFTHLEYZLUSZH,ZYESNUUEHSFLLYH,5,N,absent,nN,nN,n,1,1.135481833,y,0,0.360299042,RSVPLG01,0.94,2023-09-12-22:46:04,907,1,Experiment,2023-09-12_15h59.54.758
3,local,local,7,5,0,60,2,,,66,exp,TULELZYYTNFNZFS,SFTHLLFZYNXUZYT,4,H,X,hH,yY,h,1,0.917294375,n,0,0.020121125,RSVPLG01,0.94,2023-09-12-22:46:04,907,1,Experiment,2023-09-12_15h59.54.758
9,global,local,7,5,1,61,8,,,67,exp,NYTSHEUZZYLNTUS,USYEFNLZNLTXZET,5,H,X,hH,yY,h,1,0.712694541,n,0,0.153413833,RSVPLG01,0.94,2023-09-12-22:46:04,907,1,Experiment,2023-09-12_15h59.54.758
9,global,local,7,5,2,62,8,,,68,exp,HYNUSZFTLULHNFZ,FHUYEZULTYFXNLZ,5,S,X,sS,yY,s,1,2.660222375,n,0,0.3973045,RSVPLG01,0.94,2023-09-12-22:46:04,907,1,Experiment,2023-09-12_15h59.54.758
8,global,local,3,5,3,63,7,,,69,exp,YZYHNFETSUUNZTE,NHZSYLUSXYEEHTN,6,F,X,fF,yY,f,1,0.932633542,n,0,0.151324042,RSVPLG01,0.94,2023-09-12-22:46:04,907,1,Experiment,2023-09-12_15h59.54.758
9,global,local,7,5,4,64,8,,,70,exp,LNNZYEUHTTHLUSZ,ZLZTNFNYSUYUXLT,6,E,X,eE,yY,e,1,0.766713292,n,0,0.324198709,RSVPLG01,0.94,2023-09-12-22:46:04,907,1,Experiment,2023-09-12_15h59.54.758
9,global,local,7,5,5,65,8,,,71,exp,HNTSYZHLLETENUU,EZSEFHTTSHUXZLU,5,Y,X,yY,yY,y,1,0.898336959,y,1,0.248406083,RSVPLG01,0.94,2023-09-12-22:46:04,907,1,Experiment,2023-09-12_15h59.54.758
1,local,local,0,5,6,66,0,,,72,exp,LZUNYLZTHSUETHS,UULFSZHESEZYTTY,4,F,absent,fF,nN,s,0,0.940515709,n,1,0.27027725,RSVPLG01,0.94,2023-09-12-22:46:04,907,1,Experiment,2023-09-12_15h59.54.758
6,local,global,7,5,7,67,5,,,73,exp,YSZELUNLYHXHNFU,USNTFZSYHFULLYN,4,T,X,tT,yY,t,1,0.649766334,y,1,0.181375,RSVPLG01,0.94,2023-09-12-22:46:04,907,1,Experiment,2023-09-12_15h59.54.758
11,global,global,3,5,8,68,10,,,74,exp,HTFYNTXHLULSUZS,NUNELFLTFHZUTSS,4,Y,X,yY,yY,y,1,0.356712125,y,1,0.126109875,RSVPLG01,0.94,2023-09-12-22:46:04,907,1,Experiment,2023-09-12_15h59.54.758
2,local,local,3,5,9,69,1,,,75,exp,NNTYUTHLSFZSHLU,TFHELSXZUTNSNZU,4,E,X,eE,yY,e,1,0.938696958,n,0,0.289059292,RSVPLG01,0.94,2023-09-12-22:46:04,907,1,Experiment,2023-09-12_15h59.54.758
9,global,local,7,5,10,70,8,,,76,exp,EUESFHYTZFTHULY,LHYNFTELZFXTZUH,4,S,X,sS,yY,s,1,0.347346334,y,1,0.298293,RSVPLG01,0.94,2023-09-12-22:46:04,907,1,Experiment,2023-09-12_15h59.54.758
12,global,global,7,5,11,71,11,,,77,exp,HYUHFSTLZNLXNTU,SZUSEUHTZHYTNLN,5,F,X,fF,yY,f,1,0.740479208,y,1,0.115331709,RSVPLG01,0.94,2023-09-12-22:46:04,907,1,Experiment,2023-09-12_15h59.54.758
10,global,global,0,6,0,72,9,,,78,exp,HFUZYSLTZLNSNUH,SZTLEFHSNHNUTUF,5,Y,absent,yY,nN,y,1,0.833764667,n,1,0.273368458,RSVPLG01,0.94,2023-09-12-22:46:04,907,1,Experiment,2023-09-12_15h59.54.758
3,local,local,7,6,1,73,2,,,79,exp,SYZUFSULLNHNHTY,LUNHESHLSZTXYNT,5,E,X,eE,yY,e,1,0.911579292,y,1,0.250530917,RSVPLG01,0.94,2023-09-12-22:46:04,907,1,Experiment,2023-09-12_15h59.54.758
11,global,global,3,6,2,74,10,,,80,exp,NYSZULFZXFNTYTS,TTSFYEHYZUFNSZN,6,L,X,lL,yY,l,1,0.534470292,y,1,0.193782958,RSVPLG01,0.94,2023-09-12-22:46:04,907,1,Experiment,2023-09-12_15h59.54.758
9,global,local,7,6,3,75,8,,,81,exp,UNZEYTZFELLTHFN,UZHLSNFEHZTXNTU,5,Y,X,yY,yY,y,1,0.791190542,n,0,0.437994292,RSVPLG01,0.94,2023-09-12-22:46:04,907,1,Experiment,2023-09-12_15h59.54.758
12,global,global,7,6,4,76,11,,,82,exp,UHFNZTEHLLSXTEU,ELUTYHSTLENUFNH,5,Z,X,zZ,yY,z,1,0.841312375,y,1,0.366074583,RSVPLG01,0.94,2023-09-12-22:46:04,907,1,Experiment,2023-09-12_15h59.54.758
12,global,global,7,6,5,77,11,,,83,exp,NELSFHNTEYXZZHT,LNFUTNYLEEYTZHZ,4,S,X,sS,yY,s,1,0.5064205,y,1,0.232342375,RSVPLG01,0.94,2023-09-12-22:46:04,907,1,Experiment,2023-09-12_15h59.54.758
2,local,local,3,6,6,78,1,,,84,exp,ZSTFYEUNUHNSZTY,YYNHSLFZXZUUHTF,6,L,X,lL,yY,l,1,1.030748625,n,0,0.149219667,RSVPLG01,0.94,2023-09-12-22:46:04,907,1,Experiment,2023-09-12_15h59.54.758
9,global,local,7,6,7,79,8,,,85,exp,NTHFNYESHETUSLF,STTULZESNHHUXFL,6,Y,X,yY,yY,y,1,0.763318667,n,0,0.183285416,RSVPLG01,0.94,2023-09-12-22:46:04,907,1,Experiment,2023-09-12_15h59.54.758
1,local,local,0,6,8,80,0,,,86,exp,FETZEHYNTYSFZLS,TSNEYUYTLFNFZEL,6,U,absent,uU,nN,u,1,0.523067583,y,0,1.935298958,RSVPLG01,0.94,2023-09-12-22:46:04,907,1,Experiment,2023-09-12_15h59.54.758
3,local,local,7,6,9,81,2,,,87,exp,TNLYHLZZUHEFNTF,TNZSUUELETXFHFH,4,S,X,sS,yY,s,1,0.783592084,n,0,0.702418916,RSVPLG01,0.94,2023-09-12-22:46:04,907,1,Experiment,2023-09-12_15h59.54.758
8,global,local,3,6,10,82,7,,,88,exp,YHTZTLFUZNHSYFU,USHZTETUXHYZFNF,6,L,X,lL,yY,l,1,0.657563291,n,0,0.311368125,RSVPLG01,0.94,2023-09-12-22:46:04,907,1,Experiment,2023-09-12_15h59.54.758
2,local,local,3,6,11,83,1,,,89,exp,FYEZHNTNTSEZYFL,TTSFULYXZNLYZSF,5,U,X,uU,yY,u,1,0.49528,y,1,0.259543042,RSVPLG01,0.94,2023-09-12-22:46:04,907,1,Experiment,2023-09-12_15h59.54.758
9,global,local,7,7,0,84,8,,,90,exp,TNEZHYYSLNFFLSZ,TYSNUZFFNLEXLTS,5,H,X,hH,yY,h,1,0.784288166,n,0,0.261262583,RSVPLG01,0.94,2023-09-12-22:46:04,907,1,Experiment,2023-09-12_15h59.54.758
3,local,local,7,7,1,85,2,,,91,exp,NTFNYSFEUTZZYLE,EFNUZHTLNYYZXEF,6,H,X,hH,yY,s,0,1.11616575,n,0,0.314430958,RSVPLG01,0.94,2023-09-12-22:46:04,907,1,Experiment,2023-09-12_15h59.54.758
9,global,local,7,7,2,86,8,,,92,exp,ZZLUTESYSNLNTYF,SFLHNFYZSYXLTNE,4,U,X,uU,yY,u,1,0.387493667,y,1,0.369424209,RSVPLG01,0.94,2023-09-12-22:46:04,907,1,Experiment,2023-09-12_15h59.54.758
2,local,local,3,7,3,87,1,,,93,exp,SLEFZESNTNHFHYL,TLTNUHYXEFFSLHY,5,U,X,uU,yY,u,1,0.839367375,n,0,0.14786575,RSVPLG01,0.94,2023-09-12-22:46:04,907,1,Experiment,2023-09-12_15h59.54.758
6,local,global,7,7,4,88,5,,,94,exp,EHTNEZFUFUXZTSH,STLYHFUHTFZELSZ,4,Y,X,yY,yY,n,0,0.849127708,y,1,0.066937041,RSVPLG01,0.94,2023-09-12-22:46:04,907,1,Experiment,2023-09-12_15h59.54.758
4,local,global,0,7,5,89,3,,,95,exp,YSLHUFUTYFELSEZ,FLZNLYUTESFEZSU,4,N,absent,nN,nN,n,1,0.721575167,n,1,0.179460916,RSVPLG01,0.94,2023-09-12-22:46:04,907,1,Experiment,2023-09-12_15h59.54.758
7,global,local,0,7,6,90,6,,,96,exp,YSFUYTTZEFZHHSE,ESHNFTFSLYZTYLZ,4,U,absent,uU,nN,u,1,0.544380041,n,1,0.388422042,RSVPLG01,0.94,2023-09-12-22:46:04,907,1,Experiment,2023-09-12_15h59.54.758
5,local,global,3,7,7,91,4,,,97,exp,ZESLNTSXEYTHFHF,THYSUTEFYEFLZLH,5,U,X,uU,yY,u,1,0.543386542,y,1,0.235397125,RSVPLG01,0.94,2023-09-12-22:46:04,907,1,Experiment,2023-09-12_15h59.54.758
1,local,local,0,7,8,92,0,,,98,exp,UHZYETUFLSEHFSL,EFHNZEHFUSTUSLT,4,N,absent,nN,nN,n,1,0.924894833,n,1,0.091305083,RSVPLG01,0.94,2023-09-12-22:46:04,907,1,Experiment,2023-09-12_15h59.54.758
8,global,local,3,7,9,93,7,,,99,exp,YSTLSYETFUZZHHU,TSFNYUXHUYZHETZ,4,L,X,lL,yY,l,1,0.929137959,n,0,0.11347875,RSVPLG01,0.94,2023-09-12-22:46:04,907,1,Experiment,2023-09-12_15h59.54.758
6,local,global,7,7,10,94,5,,,100,exp,HUFTYHZSNSXUEFE,ESELUUHNZFZNYFY,4,L,X,lL,yY,l,1,0.961793167,n,0,0.143463083,RSVPLG01,0.94,2023-09-12-22:46:04,907,1,Experiment,2023-09-12_15h59.54.758
5,local,global,3,7,11,95,4,,,101,exp,FTYZHSUUXEFLYLT,ZZLUFNULTYFYHTE,6,N,X,nN,yY,n,1,0.52283825,y,1,0.073409667,RSVPLG01,0.94,2023-09-12-22:46:04,907,1,Experiment,2023-09-12_15h59.54.758
7,global,local,0,8,0,96,6,,,102,exp,HUFNLUYYTTFEHNS,EHNEZNFYTYTHFUU,5,L,absent,lL,nN,l,1,0.697130167,y,0,0.144187875,RSVPLG01,0.94,2023-09-12-22:46:04,907,1,Experiment,2023-09-12_15h59.54.758
10,global,global,0,8,1,97,9,,,103,exp,ZYYNELUFLFHUHTE,TLHSELEUZUHTYYZ,4,N,absent,nN,nN,u,0,1.787859917,y,0,0.654500833,RSVPLG01,0.94,2023-09-12-22:46:04,907,1,Experiment,2023-09-12_15h59.54.758
6,local,global,7,8,2,98,5,,,104,exp,HNSLZTHTSYXFNYU,USFEYTHZNNTZFYS,4,E,X,eE,yY,e,1,0.634124167,y,1,0.097229083,RSVPLG01,0.94,2023-09-12-22:46:04,907,1,Experiment,2023-09-12_15h59.54.758
4,local,global,0,8,3,99,3,,,105,exp,FZZHTNLFYNLSYEH,ZYZSUFSHNHENLFE,5,U,absent,uU,nN,u,1,0.40988325,y,0,0.022413458,RSVPLG01,0.94,2023-09-12-22:46:04,907,1,Experiment,2023-09-12_15h59.54.758
12,global,global,7,8,4,100,11,,,106,exp,SULYTNUSLHEXEYN,HLZYFLNUHEEZSSY,5,T,X,tT,yY,t,1,0.5594095,y,1,0.012095875,RSVPLG01,0.94,2023-09-12-22:46:04,907,1,Experiment,2023-09-12_15h59.54.758
6,local,global,7,8,5,101,5,,,107,exp,YLUZHNUYLNXETFT,ELUSTYHNUNFTYEH,4,S,X,sS,yY,s,1,0.521310875,y,1,0.00704275,RSVPLG01,0.94,2023-09-12-22:46:04,907,1,Experiment,2023-09-12_15h59.54.758
3,local,local,7,8,6,102,2,,,108,exp,SHYZTFUFLSHZEEU,EFLUNLFSZHUXEYZ,5,N,X,nN,yY,n,1,0.490524625,y,1,0.04014825,RSVPLG01,0.94,2023-09-12-22:46:04,907,1,Experiment,2023-09-12_15h59.54.758
5,local,global,3,8,7,103,4,,,109,exp,LNETFYXZELSZSYN,ULZHZLUFYFEENNS,4,H,X,hH,yY,h,1,0.372496667,y,1,0.017267458,RSVPLG01,0.94,2023-09-12-22:46:04,907,1,Experiment,2023-09-12_15h59.54.758
6,local,global,7,8,8,104,5,,,110,exp,NSYFELLYNZUXFHZ,NYSFTLUZLZNYHSH,5,T,X,tT,yY,t,1,0.752329166,y,1,0.020447,RSVPLG01,0.94,2023-09-12-22:46:04,907,1,Experiment,2023-09-12_15h59.54.758
4,local,global,0,8,9,105,3,,,111,exp,UTNLYNSESEHHTYZ,NTHFUNSYTZZEUEY,4,F,absent,fF,nN,h,0,0.858636584,n,1,0.034077083,RSVPLG01,0.94,2023-09-12-22:46:04,907,1,Experiment,2023-09-12_15h59.54.758
3,local,local,7,8,10,106,2,,,112,exp,EFLNUTFSSLHYUHT,HFFZEYTUESXLHTS,4,Z,X,zZ,yY,z,1,0.89043775,y,1,0.022331916,RSVPLG01,0.94,2023-09-12-22:46:04,907,1,Experiment,2023-09-12_15h59.54.758
7,global,local,0,8,11,107,6,,,113,exp,UNYLTZHSFFHTLSY,SYTFNEFNTSHHLYU,6,Z,absent,zZ,nN,e,0,0.956781083,n,1,0.204411416,RSVPLG01,0.94,2023-09-12-22:46:04,907,1,Experiment,2023-09-12_15h59.54.758
10,global,global,0,9,0,108,9,,,114,exp,LSNYYTUNZZLUHFS,NYUSYEHZZLHULFS,6,T,absent,tT,nN,t,1,0.593476792,n,1,0.085001292,RSVPLG01,0.94,2023-09-12-22:46:04,907,1,Experiment,2023-09-12_15h59.54.758
2,local,local,3,9,1,109,1,,,115,exp,TLTYZFHFEUEYNNU,HEFTSTFXYEUULHY,5,S,X,sS,yY,s,1,0.913244208,n,0,0.201272333,RSVPLG01,0.94,2023-09-12-22:46:04,907,1,Experiment,2023-09-12_15h59.54.758
4,local,global,0,9,2,110,3,,,116,exp,ZSLYULUHENTETSZ,USLFNLHZNSZTHTE,4,F,absent,fF,nN,f,1,1.083878125,y,0,0.368057875,RSVPLG01,0.94,2023-09-12-22:46:04,907,1,Experiment,2023-09-12_15h59.54.758
4,local,global,0,9,3,111,3,,,117,exp,LTZSFLTZNEHUNEH,EUUZYTLTZNHLSHN,5,Y,absent,yY,nN,y,1,0.780661583,n,1,0.011422458,RSVPLG01,0.94,2023-09-12-22:46:04,907,1,Experiment,2023-09-12_15h59.54.758
5,local,global,3,9,4,112,4,,,118,exp,THSHUFZXEFYYSZL,FTSTNESZYHHLYZE,5,N,X,nN,yY,n,1,0.395592792,y,1,0.03611875,RSVPLG01,0.94,2023-09-12-22:46:04,907,1,Experiment,2023-09-12_15h59.54.758
4,local,global,0,9,5,113,3,,,119,exp,SYELFNTNFHUHTSY,EEUZUFHNHFYSTYT,4,Z,absent,zZ,nN,z,1,0.747296292,y,0,1.201361416,RSVPLG01,0.94,2023-09-12-22:46:04,907,1,Experiment,2023-09-12_15h59.54.758
9,global,local,7,9,6,114,8,,,120,exp,ZSYNHSHELFTFTEZ,FYZUHZEESYXSLTT,4,N,X,nN,yY,n,1,1.043266333,n,0,0.025560833,RSVPLG01,0.94,2023-09-12-22:46:04,907,1,Experiment,2023-09-12_15h59.54.758
12,global,global,7,9,7,115,11,,,121,exp,YSETZNLHEUXNZUH,HULFZHYZNEYSUSE,4,T,X,tT,yY,t,1,0.381422,y,1,0.494506458,RSVPLG01,0.94,2023-09-12-22:46:04,907,1,Experiment,2023-09-12_15h59.54.758
8,global,local,3,9,8,116,7,,,122,exp,TTYSESYNZUHNFFZ,NYTHLFSXTSZZUUN,5,E,X,eE,yY,s,0,0.996495084,n,0,0.457998625,RSVPLG01,0.94,2023-09-12-22:46:04,907,1,Experiment,2023-09-12_15h59.54.758
11,global,global,3,9,9,117,10,,,123,exp,FFLZENXYHNLTESH,YYEUENHFTSFHNLT,4,Z,X,zZ,yY,z,1,0.427090041,y,1,0.227234792,RSVPLG01,0.94,2023-09-12-22:46:04,907,1,Experiment,2023-09-12_15h59.54.758
11,global,global,3,9,10,118,10,,,124,exp,EYUFUZNSXFSNEHT,FEEFTLTYYHUSNSU,6,Z,X,zZ,yY,z,1,0.643007375,y,1,1.548408,RSVPLG01,0.94,2023-09-12-22:46:04,907,1,Experiment,2023-09-12_15h59.54.758
10,global,global,0,9,11,119,9,,,125,exp,ZLUSTEFLNTHNFZH,FENYEHNLTUTLFZU,4,S,absent,sS,nN,s,1,0.76280375,y,0,0.094025917,RSVPLG01,0.94,2023-09-12-22:46:04,907,1,Experiment,2023-09-12_15h59.54.758
5,local,global,3,10,0,120,4,,,126,exp,ZUYHTLXSSNFLUTY,NFZELLSFUSTNYUY,4,E,X,eE,yY,e,1,0.927399458,n,0,0.171144916,RSVPLG01,0.94,2023-09-12-22:46:04,907,1,Experiment,2023-09-12_15h59.54.758
3,local,local,7,10,1,121,2,,,127,exp,SHZNYFNHLEETSLZ,ZNSHUNHSZFFXLTE,5,U,X,uU,yY,u,1,0.758403417,y,1,0.049412542,RSVPLG01,0.94,2023-09-12-22:46:04,907,1,Experiment,2023-09-12_15h59.54.758
3,local,local,7,10,2,122,2,,,128,exp,ZUUFNYLLEHHSYFS,YEUETYUHSLFXZLH,5,T,X,tT,yY,t,1,0.637592584,n,0,0.0553875,RSVPLG01,0.94,2023-09-12-22:46:04,907,1,Experiment,2023-09-12_15h59.54.758
11,global,global,3,10,3,123,10,,,129,exp,NEUHUEXYSSZTFTN,EFFLSETTUZYUZSN,4,H,X,hH,yY,h,1,0.7629595,n,0,0.040041958,RSVPLG01,0.94,2023-09-12-22:46:04,907,1,Experiment,2023-09-12_15h59.54.758
6,local,global,7,10,4,124,5,,,130,exp,SULHTZULFSENXEN,HTULEYUTHFLSNFE,6,Y,X,yY,yY,y,1,0.716826792,y,1,0.251391,RSVPLG01,0.94,2023-09-12-22:46:04,907,1,Experiment,2023-09-12_15h59.54.758
12,global,global,7,10,5,125,11,,,131,exp,NNYSHZUHTUEEXYS,UEFNTLHNYYSSHUF,6,Z,X,zZ,yY,z,1,1.208659625,y,1,0.917412916,RSVPLG01,0.94,2023-09-12-22:46:04,907,1,Experiment,2023-09-12_15h59.54.758
3,local,local,7,10,6,126,2,,,132,exp,FUTZHEZUFNYNYTS,HNTTULUFFYNYXZS,6,L,X,lL,yY,l,1,1.358234416,y,1,0.056292333,RSVPLG01,0.94,2023-09-12-22:46:04,907,1,Experiment,2023-09-12_15h59.54.758
5,local,global,3,10,7,127,4,,,133,exp,HNLYTSXFFSELZZT,NHLUSZTFLFSHEET,4,U,X,uU,yY,u,1,0.42379975,y,1,0.035419417,RSVPLG01,0.94,2023-09-12-22:46:04,907,1,Experiment,2023-09-12_15h59.54.758
2,local,local,3,10,8,128,1,,,134,exp,SEUFLZTULYFNEYT,LFTETHYNXUYFESN,6,H,X,hH,yY,h,1,0.612647583,n,0,0.304123084,RSVPLG01,0.94,2023-09-12-22:46:04,907,1,Experiment,2023-09-12_15h59.54.758
8,global,local,3,10,9,129,7,,,135,exp,LHFUYLZYSNEFHNZ,YFLTLSXZNEHSZYH,4,U,X,uU,yY,u,1,0.7785135,n,0,0.173623208,RSVPLG01,0.94,2023-09-12-22:46:04,907,1,Experiment,2023-09-12_15h59.54.758
7,global,local,0,10,10,130,6,,,136,exp,HTZYFNSELLYFHST,ZZFLYUETSEHFYLS,6,N,absent,nN,nN,n,1,0.720847584,n,1,0.336322791,RSVPLG01,0.94,2023-09-12-22:46:04,907,1,Experiment,2023-09-12_15h59.54.758
2,local,local,3,10,11,131,1,,,137,exp,TEUUYEHSZHSNTNZ,LZHTFLHXSEESNUU,5,F,X,fF,yY,f,1,0.480585083,y,1,0.400173875,RSVPLG01,0.94,2023-09-12-22:46:04,907,1,Experiment,2023-09-12_15h59.54.758
12,global,global,7,11,0,132,11,,,138,exp,TTYLZSUNUYLZXFE,UFLTEHYYLNEZNFU,6,S,X,sS,yY,h,0,0.639493375,n,0,0.3493765,RSVPLG01,0.94,2023-09-12-22:46:04,907,1,Experiment,2023-09-12_15h59.54.758
7,global,local,0,11,1,133,6,,,139,exp,UYUELHFNTFZZYTN,LHFSFUTZUHZYLNT,4,E,absent,eE,nN,e,1,0.78717875,n,1,0.331412583,RSVPLG01,0.94,2023-09-12-22:46:04,907,1,Experiment,2023-09-12_15h59.54.758
7,global,local,0,11,2,134,6,,,140,exp,FLZFSTLSNZUNHEU,NFFUNYHSESHEZLZ,6,T,absent,tT,nN,t,1,0.701961125,n,1,0.293173959,RSVPLG01,0.94,2023-09-12-22:46:04,907,1,Experiment,2023-09-12_15h59.54.758
5,local,global,3,11,3,135,4,,,141,exp,HLZSNYXFFHEUYNZ,FUUTENYELHLYZNZ,4,T,X,tT,yY,t,1,0.465663708,y,1,0.072331375,RSVPLG01,0.94,2023-09-12-22:46:04,907,1,Experiment,2023-09-12_15h59.54.758
1,local,local,0,11,4,136,0,,,142,exp,LELTHUZFHSEYFTZ,SFEZYNESTFLHLZH,6,N,absent,nN,nN,u,0,0.953718917,y,0,0.032010208,RSVPLG01,0.94,2023-09-12-22:46:04,907,1,Experiment,2023-09-12_15h59.54.758
2,local,local,3,11,5,137,1,,,143,exp,FHNTHEUYLZULTNY,NHTYZSLFXHTNUUZ,6,S,X,sS,yY,s,1,0.794328875,n,0,0.283213166,RSVPLG01,0.94,2023-09-12-22:46:04,907,1,Experiment,2023-09-12_15h59.54.758
11,global,global,3,11,6,138,10,,,144,exp,NNUZTSXLEFESFTU,UFSHUYYENNELTTF,4,Z,X,zZ,yY,z,1,0.596376917,y,1,0.196503083,RSVPLG01,0.94,2023-09-12-22:46:04,907,1,Experiment,2023-09-12_15h59.54.758
11,global,global,3,11,7,139,10,,,145,exp,FHSTNUSZXLZYTYL,NSZYTEZNYLHTFLS,6,U,X,uU,yY,u,1,0.330833917,y,1,0.352195333,RSVPLG01,0.94,2023-09-12-22:46:04,907,1,Experiment,2023-09-12_15h59.54.758
2,local,local,3,11,8,140,1,,,146,exp,YSHNLZTHEZFSYEN,SFZEUHTXYFHTNYZ,5,U,X,uU,yY,u,1,0.463060625,y,1,0.295370792,RSVPLG01,0.94,2023-09-12-22:46:04,907,1,Experiment,2023-09-12_15h59.54.758
7,global,local,0,11,9,141,6,,,147,exp,ZSETLHLNHNSEFYY,YNFUZHESYHZEFSN,4,T,absent,tT,nN,t,1,0.631483875,n,1,0.298465291,RSVPLG01,0.94,2023-09-12-22:46:04,907,1,Experiment,2023-09-12_15h59.54.758
9,global,local,7,11,10,142,8,,,148,exp,UZFTTLNUYEZHFHY,ZTUFYSTZUFHHXEN,6,L,X,lL,yY,l,1,0.471055416,y,1,0.193456708,RSVPLG01,0.94,2023-09-12-22:46:04,907,1,Experiment,2023-09-12_15h59.54.758
8,global,local,3,11,11,143,7,,,149,exp,SZHNFHZLUTUSYLY,FYHEYLXZZTLSHTU,4,N,X,nN,yY,n,1,0.37795625,y,1,0.281449208,RSVPLG01,0.94,2023-09-12-22:46:04,907,1,Experiment,2023-09-12_15h59.54.758
5,local,global,3,12,0,144,4,,,150,exp,FETZNESXFSHZYLH,FETYUTZHSYSHLFZ,5,U,X,uU,yY,u,1,0.353648666,y,1,0.356416334,RSVPLG01,0.94,2023-09-12-22:46:04,907,1,Experiment,2023-09-12_15h59.54.758
3,local,local,7,12,1,145,2,,,151,exp,EZLSZETYHYNNTLH,YNLUTZTHEZXFELN,4,U,X,uU,yY,u,1,0.288128041,y,1,0.318417667,RSVPLG01,0.94,2023-09-12-22:46:04,907,1,Experiment,2023-09-12_15h59.54.758
7,global,local,0,12,2,146,6,,,152,exp,HUUYLENTHFSTFNY,FHTNZSHYNUUEEFY,5,L,absent,lL,nN,l,1,0.411363667,y,0,0.235228625,RSVPLG01,0.94,2023-09-12-22:46:04,907,1,Experiment,2023-09-12_15h59.54.758
9,global,local,7,12,3,147,8,,,153,exp,ZHLFHETUNZSTSUN,THLNZYHUFUSSXTZ,6,E,X,eE,yY,e,1,0.512438,y,1,0.334372709,RSVPLG01,0.94,2023-09-12-22:46:04,907,1,Experiment,2023-09-12_15h59.54.758
2,local,local,3,12,4,148,1,,,154,exp,UUTYEHNTSLZLHZS,SZNFHSXLHULTZNT,4,F,X,fF,yY,f,1,0.43678975,y,1,0.119314292,RSVPLG01,0.94,2023-09-12-22:46:04,907,1,Experiment,2023-09-12_15h59.54.758
11,global,global,3,12,5,149,10,,,155,exp,ZLFZEHFXLTYNHNS,NLSFUNLYYTSZFZH,5,E,X,eE,yY,e,1,0.297778625,y,1,0.683330375,RSVPLG01,0.94,2023-09-12-22:46:04,907,1,Experiment,2023-09-12_15h59.54.758
3,local,local,7,12,6,150,2,,,156,exp,UTHZSLNFULZEFNE,ZZLUYTENHFEXULH,5,Y,X,yY,yY,y,1,0.325150542,y,1,0.417336209,RSVPLG01,0.94,2023-09-12-22:46:04,907,1,Experiment,2023-09-12_15h59.54.758
11,global,global,3,12,7,151,10,,,157,exp,NFZLFUXNHSUHYYT,FNYEHZNTSYUUFST,4,L,X,lL,yY,l,1,0.368630375,y,1,0.131320584,RSVPLG01,0.94,2023-09-12-22:46:04,907,1,Experiment,2023-09-12_15h59.54.758
8,global,local,3,12,8,152,7,,,158,exp,SSFYTYEZNLEHFNZ,LEYFUZNXZEYSHSF,5,T,X,tT,yY,t,1,0.354893458,y,1,0.257400708,RSVPLG01,0.94,2023-09-12-22:46:04,907,1,Experiment,2023-09-12_15h59.54.758
8,global,local,3,12,9,153,7,,,159,exp,SLSYYTUZHELZEUH,NLYEHFUSXHZSYNE,6,T,X,tT,yY,t,1,0.313963,y,1,0.336153375,RSVPLG01,0.94,2023-09-12-22:46:04,907,1,Experiment,2023-09-12_15h59.54.758
10,global,global,0,12,10,154,9,,,160,exp,SFUETLUYYHNENST,UYNHFZTTFEYSSNU,6,L,absent,lL,nN,l,1,0.536570208,n,1,0.246404834,RSVPLG01,0.94,2023-09-12-22:46:04,907,1,Experiment,2023-09-12_15h59.54.758
5,local,global,3,12,11,155,4,,,161,exp,NUSZLSXYNHTELTE,TSYFLEHNTLEUSUN,4,F,X,fF,yY,f,1,0.131650042,y,1,0.2722745,RSVPLG01,0.94,2023-09-12-22:46:04,907,1,Experiment,2023-09-12_15h59.54.758
6,local,global,7,13,0,156,5,,,162,exp,YTNSFLZLZNXTYFH,LHEUZYTTNLFYFZN,4,U,X,uU,yY,u,1,0.388606375,y,1,0.248442167,RSVPLG01,0.94,2023-09-12-22:46:04,907,1,Experiment,2023-09-12_15h59.54.758
5,local,global,3,13,1,157,4,,,163,exp,EYTSZNLUXEHLSZY,EUZTYFSHLZUEHTL,6,F,X,fF,yY,f,1,0.346521917,y,1,0.270210166,RSVPLG01,0.94,2023-09-12-22:46:04,907,1,Experiment,2023-09-12_15h59.54.758
5,local,global,3,13,2,158,4,,,164,exp,ESTHZFXUUFENSYN,EYSLNYTFUEZTSFU,4,L,X,lL,yY,l,1,0.347631083,y,1,0.214388208,RSVPLG01,0.94,2023-09-12-22:46:04,907,1,Experiment,2023-09-12_15h59.54.758
8,global,local,3,13,3,159,7,,,165,exp,EHHLTEFYSTZYZSU,ZHUNEHXEZFFSSYY,4,L,X,lL,yY,l,1,0.504009958,y,1,0.273435458,RSVPLG01,0.94,2023-09-12-22:46:04,907,1,Experiment,2023-09-12_15h59.54.758
11,global,global,3,13,4,160,10,,,166,exp,LETSFLXTENNZZYH,TZHUETLLEYZFFHN,4,S,X,sS,yY,s,1,0.313084,y,1,0.276314417,RSVPLG01,0.94,2023-09-12-22:46:04,907,1,Experiment,2023-09-12_15h59.54.758
7,global,local,0,13,5,161,6,,,167,exp,ZLSHETYZTYNLFEN,LNSUSYTEZYNZELF,4,H,absent,hH,nN,h,1,0.35758025,y,0,0.453291167,RSVPLG01,0.94,2023-09-12-22:46:04,907,1,Experiment,2023-09-12_15h59.54.758
1,local,local,0,13,6,162,0,,,168,exp,EZHTNYNZLUYULES,NUSFHZYENYLHUEZ,4,F,absent,fF,nN,f,1,0.648960667,y,0,0.263053375,RSVPLG01,0.94,2023-09-12-22:46:04,907,1,Experiment,2023-09-12_15h59.54.758
12,global,global,7,13,7,163,11,,,169,exp,USYZUEHSTLTZXFH,SLTSTNHULZUZFHY,6,E,X,eE,yY,e,1,0.67566025,y,1,0.334533292,RSVPLG01,0.94,2023-09-12-22:46:04,907,1,Experiment,2023-09-12_15h59.54.758
4,local,global,0,13,8,164,3,,,170,exp,LNENUZHUYFFLSSE,HNNYFTESLFYUSLU,6,T,absent,tT,nN,t,1,0.786669667,n,1,0.2514115,RSVPLG01,0.94,2023-09-12-22:46:04,907,1,Experiment,2023-09-12_15h59.54.758
7,global,local,0,13,9,165,6,,,171,exp,FSUYELEUSNTYNTF,FHTTYZSEHYESUNU,6,L,absent,lL,nN,l,1,0.644405,n,1,0.279366041,RSVPLG01,0.94,2023-09-12-22:46:04,907,1,Experiment,2023-09-12_15h59.54.758
11,global,global,3,13,10,166,10,,,172,exp,HFETNLXYFUSSHNU,FLSZSYEFYNEHUNU,4,T,X,tT,yY,t,1,0.016962458,y,1,0.477320583,RSVPLG01,0.94,2023-09-12-22:46:04,907,1,Experiment,2023-09-12_15h59.54.758
7,global,local,0,13,11,167,6,,,173,exp,ZHUESTZLHLEFFNN,SUZELYLSFENHHNF,6,T,absent,tT,nN,t,1,0.616322625,n,1,0.216487542,RSVPLG01,0.94,2023-09-12-22:46:04,907,1,Experiment,2023-09-12_15h59.54.758
1,local,local,0,14,0,168,0,,,174,exp,HTHYUFZNLSNTSFL,NLTHETYSYLZHZFS,5,E,absent,eE,nN,e,1,0.339770417,y,0,0.136353958,RSVPLG01,0.94,2023-09-12-22:46:04,907,1,Experiment,2023-09-12_15h59.54.758
10,global,global,0,14,1,169,9,,,175,exp,SNHFYLHYZNUSLTT,SHUEZSYZNHTTYNL,4,F,absent,fF,nN,f,1,0.617255708,n,1,0.2843955,RSVPLG01,0.94,2023-09-12-22:46:04,907,1,Experiment,2023-09-12_15h59.54.758
10,global,global,0,14,2,170,9,,,176,exp,YSZYFLSUFNHNZTU,HSUTZEZSYTYFHNF,6,L,absent,lL,nN,l,1,0.593157584,n,1,0.320467083,RSVPLG01,0.94,2023-09-12-22:46:04,907,1,Experiment,2023-09-12_15h59.54.758
11,global,global,3,14,3,171,10,,,177,exp,NZFTUSETXLFLUZY,NUTZLHFUNEFTYZY,6,S,X,sS,yY,s,1,0.418134334,y,1,0.229359084,RSVPLG01,0.94,2023-09-12-22:46:04,907,1,Experiment,2023-09-12_15h59.54.758
8,global,local,3,14,4,172,7,,,178,exp,NETHYHFUTNZULZF,FNUZSHEXTFELTUZ,5,Y,X,yY,yY,y,1,0.595205083,n,0,0.237206875,RSVPLG01,0.94,2023-09-12-22:46:04,907,1,Experiment,2023-09-12_15h59.54.758
3,local,local,7,14,5,173,2,,,179,exp,ULZESNYYUHZHTNL,YUZFTHLNLZXTHUN,4,F,X,fF,yY,f,1,0.345989666,y,1,0.234242833,RSVPLG01,0.94,2023-09-12-22:46:04,907,1,Experiment,2023-09-12_15h59.54.758
11,global,global,3,14,6,174,10,,,180,exp,STFHEZUFXNEULSL,SLNTHYSFUFTLHEN,6,Z,X,zZ,yY,y,0,0.594824166,n,0,0.344031125,RSVPLG01,0.94,2023-09-12-22:46:04,907,1,Experiment,2023-09-12_15h59.54.758
3,local,local,7,14,7,175,2,,,181,exp,ZTUYFYSULNENLES,ZYEYHETUUSNXTSL,5,H,X,hH,yY,h,1,0.64846275,n,0,0.324383792,RSVPLG01,0.94,2023-09-12-22:46:04,907,1,Experiment,2023-09-12_15h59.54.758
4,local,global,0,14,8,176,3,,,182,exp,SFUFHTZNHUYZYES,NEFUHLSHSUFZYNE,6,L,absent,lL,nN,l,1,0.771319625,n,1,0.262395958,RSVPLG01,0.94,2023-09-12-22:46:04,907,1,Experiment,2023-09-12_15h59.54.758
5,local,global,3,14,9,177,4,,,183,exp,LHZSUEFXNLSNZYF,HELZTHYNYFSNEZF,5,T,X,tT,yY,t,1,0.289663291,y,1,0.292425916,RSVPLG01,0.94,2023-09-12-22:46:04,907,1,Experiment,2023-09-12_15h59.54.758
8,global,local,3,14,10,178,7,,,184,exp,LFSEEUYZZLTYSFT,FLYSYHEZXLZETNS,6,U,X,uU,yY,u,1,0.534682542,n,0,0.327291541,RSVPLG01,0.94,2023-09-12-22:46:04,907,1,Experiment,2023-09-12_15h59.54.758
2,local,local,3,14,11,179,1,,,185,exp,UNFYUSTHHNLLZFS,NNFEZUXTHUTZSHF,4,E,X,eE,yY,e,1,0.653237917,n,0,0.279469708,RSVPLG01,0.94,2023-09-12-22:46:04,907,1,Experiment,2023-09-12_15h59.54.758
4,local,global,0,15,0,180,3,,,186,exp,YUYHZNEFLZENULS,SZNTFUZLYEESFUY,4,T,absent,tT,nN,t,1,0.551433083,n,1,0.218379958,RSVPLG01,0.94,2023-09-12-22:46:04,907,1,Experiment,2023-09-12_15h59.54.758
9,global,local,7,15,1,181,8,,,187,exp,LEFYSUULSHZZNEH,HEFTZFNUSUXLNZH,4,Y,X,yY,yY,y,1,0.726524833,n,0,0.287296416,RSVPLG01,0.94,2023-09-12-22:46:04,907,1,Experiment,2023-09-12_15h59.54.758
12,global,global,7,15,2,182,11,,,188,exp,EESNZHLUYTNXSHY,SULYFSNYEELNUTH,5,Z,X,zZ,yY,z,1,0.628759458,y,1,0.227981042,RSVPLG01,0.94,2023-09-12-22:46:04,907,1,Experiment,2023-09-12_15h59.54.758
7,global,local,0,15,3,183,6,,,189,exp,HZETYSNLUNUTEHY,EZYLUFHTUEYHNTZ,6,S,absent,sS,nN,s,1,0.666402167,n,1,0.32135075,RSVPLG01,0.94,2023-09-12-22:46:04,907,1,Experiment,2023-09-12_15h59.54.758
8,global,local,3,15,4,184,7,,,190,exp,LLUUFYSTNFHSEHT,UTFTEZESXFNHSHN,6,Y,X,yY,yY,y,1,0.788714917,n,0,0.110385167,RSVPLG01,0.94,2023-09-12-22:46:04,907,1,Experiment,2023-09-12_15h59.54.758
4,local,global,0,15,5,185,3,,,191,exp,SSYUNHELULFZNYZ,FUESLTNLUFNZYSZ,6,T,absent,tT,nN,t,1,0.617138375,y,0,0.408395709,RSVPLG01,0.94,2023-09-12-22:46:04,907,1,Experiment,2023-09-12_15h59.54.758
1,local,local,0,15,6,186,0,,,192,exp,HSFYLNNSFTEZEYH,EYHTUSFTZHENSYZ,5,U,absent,uU,nN,u,1,0.802204042,y,0,0.082286917,RSVPLG01,0.94,2023-09-12-22:46:04,907,1,Experiment,2023-09-12_15h59.54.758
10,global,global,0,15,7,187,9,,,193,exp,TYHSUTYNFNHLLZZ,YZHENNLUFTFYLHU,4,S,absent,sS,nN,s,1,0.755439417,n,1,0.270453125,RSVPLG01,0.94,2023-09-12-22:46:04,907,1,Experiment,2023-09-12_15h59.54.758
12,global,global,7,15,8,188,11,,,194,exp,ZFZEFTSLYYUHXEH,YZUFSNUSYHFZLLH,6,T,X,tT,yY,t,1,0.699088333,y,1,0.146317583,RSVPLG01,0.94,2023-09-12-22:46:04,907,1,Experiment,2023-09-12_15h59.54.758
12,global,global,7,15,9,189,11,,,195,exp,NFUZNYTETHELXUH,FFUZESTZEHTLHNL,6,Y,X,yY,yY,y,1,0.63676775,y,1,0.729387917,RSVPLG01,0.94,2023-09-12-22:46:04,907,1,Experiment,2023-09-12_15h59.54.758
10,global,global,0,15,10,190,9,,,196,exp,HHSNUYZULLSTZTE,UTSUEFNHZZLSHTL,6,Y,absent,yY,nN,y,1,0.635423875,n,1,0.256411292,RSVPLG01,0.94,2023-09-12-22:46:04,907,1,Experiment,2023-09-12_15h59.54.758
4,local,global,0,15,11,191,3,,,197,exp,SZZEHLLFTFNNSYE,EYSNUSFLZLNZTTY,5,U,absent,uU,nN,u,1,1.080961917,n,1,0.083436709,RSVPLG01,0.94,2023-09-12-22:46:04,907,1,Experiment,2023-09-12_15h59.54.758
10,global,global,0,16,0,192,9,,,198,exp,LFTYUZFLNHZUTSS,THHESNLZULUZSTF,4,Y,absent,yY,nN,y,1,0.470250625,n,1,0.244251834,RSVPLG01,0.94,2023-09-12-22:46:04,907,1,Experiment,2023-09-12_15h59.54.758
1,local,local,0,16,1,193,0,,,199,exp,NSUSZLFTTYUNZFH,NFZNZEUHSYTTSHY,6,E,absent,eE,nN,e,1,0.78918475,n,1,0.396972834,RSVPLG01,0.94,2023-09-12-22:46:04,907,1,Experiment,2023-09-12_15h59.54.758
1,local,local,0,16,2,194,0,,,200,exp,YHFNTSZESUEHTUY,TZELYUYHFSFTUZE,4,L,absent,lL,nN,l,1,0.42225875,n,1,0.280360375,RSVPLG01,0.94,2023-09-12-22:46:04,907,1,Experiment,2023-09-12_15h59.54.758
4,local,global,0,16,3,195,3,,,201,exp,LSNUEYSZYZTFLEF,ZELHTTNYFZSNSEY,4,H,absent,hH,nN,h,1,0.621140459,n,1,0.2153145,RSVPLG01,0.94,2023-09-12-22:46:04,907,1,Experiment,2023-09-12_15h59.54.758
4,local,global,0,16,4,196,3,,,202,exp,NUSNYETUZZLFELT,UZLUHZTFNLTSSEF,5,H,absent,hH,nN,h,1,0.352229708,y,0,0.278407625,RSVPLG01,0.94,2023-09-12-22:46:04,907,1,Experiment,2023-09-12_15h59.54.758
9,global,local,7,16,5,197,8,,,203,exp,HESUFFSTETHYNLN,NHYZEFYFHEXTNLT,4,U,X,uU,yY,u,1,0.765345125,n,0,0.241320083,RSVPLG01,0.94,2023-09-12-22:46:04,907,1,Experiment,2023-09-12_15h59.54.758
9,global,local,7,16,6,198,8,,,204,exp,TTUEZSHHULENNFL,UHFFYHUTNELXSLN,5,Z,X,zZ,yY,z,1,0.717497834,n,0,0.183508875,RSVPLG01,0.94,2023-09-12-22:46:04,907,1,Experiment,2023-09-12_15h59.54.758
11,global,global,3,16,7,199,10,,,205,exp,NNHZSLUTXHUSTEE,ETSUEYHZZTFFSHN,6,L,X,lL,yY,l,1,0.251744166,y,1,0.110442917,RSVPLG01,0.94,2023-09-12-22:46:04,907,1,Experiment,2023-09-12_15h59.54.758
5,local,global,3,16,8,200,4,,,206,exp,LTHZUENLXFSNTZH,ZHLSLYUNZUTSHNF,6,Y,X,yY,yY,y,1,0.649373917,y,1,0.815464083,RSVPLG01,0.94,2023-09-12-22:46:04,907,1,Experiment,2023-09-12_15h59.54.758
6,local,global,7,16,9,201,5,,,207,exp,UTSFNZLYHHXUTZS,LYSETYLNUUZSHNZ,4,E,X,eE,yY,e,1,0.383678333,y,1,0.311304083,RSVPLG01,0.94,2023-09-12-22:46:04,907,1,Experiment,2023-09-12_15h59.54.758
7,global,local,0,16,10,202,6,,,208,exp,NETYHUZZLENLYFU,FLYZSNLEETTZUUN,5,H,absent,hH,nN,h,1,0.565525375,n,1,0.288430458,RSVPLG01,0.94,2023-09-12-22:46:04,907,1,Experiment,2023-09-12_15h59.54.758
1,local,local,0,16,11,203,0,,,209,exp,FLUYHLESNUEHFSZ,ZULTHFSUEZFLESN,4,T,absent,tT,nN,t,1,0.735795959,n,1,0.220432458,RSVPLG01,0.94,2023-09-12-22:46:04,907,1,Experiment,2023-09-12_15h59.54.758
9,global,local,7,17,0,204,8,,,210,exp,UYTSNHHFZUTNEEZ,FFYLUHUZTTXYEZN,4,S,X,sS,yY,s,1,0.742131917,n,0,0.284427708,RSVPLG01,0.94,2023-09-12-22:46:04,907,1,Experiment,2023-09-12_15h59.54.758
5,local,global,3,17,1,205,4,,,211,exp,HUSENZXNTLHFSTU,FUUYNTZSFNLLZTH,4,Y,X,yY,yY,y,1,0.411228291,y,1,0.297409917,RSVPLG01,0.94,2023-09-12-22:46:04,907,1,Experiment,2023-09-12_15h59.54.758
3,local,local,7,17,2,206,2,,,212,exp,YEUESLHUHTFYNTF,YHUFZTENTHNXLLU,5,Z,X,zZ,yY,z,1,1.0451355,n,0,0.319172583,RSVPLG01,0.94,2023-09-12-22:46:04,907,1,Experiment,2023-09-12_15h59.54.758
6,local,global,7,17,3,207,5,,,213,exp,LZLHETYZYTXSEUF,YUENYFLSLZZETFU,4,N,X,nN,yY,n,1,0.656363125,y,1,2.348996959,RSVPLG01,0.94,2023-09-12-22:46:04,907,1,Experiment,2023-09-12_15h59.54.758
3,local,local,7,17,4,208,2,,,214,exp,LFYUHYEFESZUZST,ZFLTNSEUZSYXTFU,5,N,X,nN,yY,n,1,0.288246459,y,1,0.24023325,RSVPLG01,0.94,2023-09-12-22:46:04,907,1,Experiment,2023-09-12_15h59.54.758
1,local,local,0,17,5,209,0,,,215,exp,ZHZYSEUNFLFHYSN,HFLNUTYZYNSSFLZ,6,T,absent,tT,nN,t,1,0.323127667,y,0,0.230234,RSVPLG01,0.94,2023-09-12-22:46:04,907,1,Experiment,2023-09-12_15h59.54.758
10,global,global,0,17,6,210,9,,,216,exp,HEYSLENFFLUNUYT,EFEZLUFLNNUYHTT,4,S,absent,sS,nN,z,0,0.504143,y,0,0.387400709,RSVPLG01,0.94,2023-09-12-22:46:04,907,1,Experiment,2023-09-12_15h59.54.758
4,local,global,0,17,7,211,3,,,217,exp,FZTZFSYYNHHLUTU,UTLNHEYZFFZHTUN,6,E,absent,eE,nN,e,1,0.283353667,y,0,0.231787416,RSVPLG01,0.94,2023-09-12-22:46:04,907,1,Experiment,2023-09-12_15h59.54.758
6,local,global,7,17,8,212,5,,,218,exp,HZLYEUSSFLXZFUN,SNLTZHEFNLUZHSE,4,T,X,tT,yY,t,1,0.356901791,y,1,0.056204667,RSVPLG01,0.94,2023-09-12-22:46:04,907,1,Experiment,2023-09-12_15h59.54.758
2,local,local,3,17,9,213,1,,,219,exp,NTTLYNSHELUHUFF,ETLSZUHXULNNHTF,5,Z,X,zZ,yY,z,1,0.71214575,n,0,0.345155667,RSVPLG01,0.94,2023-09-12-22:46:04,907,1,Experiment,2023-09-12_15h59.54.758
7,global,local,0,17,10,214,6,,,220,exp,YUYSHEFTFEHULZL,YUHNFUETEHYLFLZ,4,S,absent,sS,nN,s,1,0.447800916,n,1,0.265358209,RSVPLG01,0.94,2023-09-12-22:46:04,907,1,Experiment,2023-09-12_15h59.54.758
10,global,global,0,17,11,215,9,,,221,exp,YETUUNZYLELTSSF,SULTZHUYEFYEZTF,6,N,absent,nN,nN,n,1,0.646663875,n,1,0.195209875,RSVPLG01,0.94,2023-09-12-22:46:04,907,1,Experiment,2023-09-12_15h59.54.758
8,global,local,3,18,0,216,7,,,222,exp,ZHEFLSZNHYENSUL,ZNYTLHXZLUNUESS,4,F,X,fF,yY,e,0,0.64222775,n,0,0.274080666,RSVPLG01,0.94,2023-09-12-22:46:04,907,1,Experiment,2023-09-12_15h59.54.758
8,global,local,3,18,1,217,7,,,223,exp,UYNTLHSSUZHENET,SUHHFYSXTNNEEZZ,5,L,X,lL,yY,l,1,0.390591167,n,0,0.062211291,RSVPLG01,0.94,2023-09-12-22:46:04,907,1,Experiment,2023-09-12_15h59.54.758
1,local,local,0,18,2,218,0,,,224,exp,YLSSEHUUETZNTNY,TNTYEFLENZZSSUU,6,F,absent,fF,nN,f,1,0.57376775,n,1,0.241221959,RSVPLG01,0.94,2023-09-12-22:46:04,907,1,Experiment,2023-09-12_15h59.54.758
7,global,local,0,18,3,219,6,,,225,exp,EHLUNYZSNZHETTS,SLZELFEZNNUHTUT,6,Y,absent,yY,nN,y,1,0.5397515,n,1,0.23044725,RSVPLG01,0.94,2023-09-12-22:46:04,907,1,Experiment,2023-09-12_15h59.54.758
10,global,global,0,18,4,220,9,,,226,exp,YFTHLSYNULENTUE,LNULYZYUEHNTHFE,6,S,absent,sS,nN,s,1,0.481119583,n,1,0.162358041,RSVPLG01,0.94,2023-09-12-22:46:04,907,1,Experiment,2023-09-12_15h59.54.758
4,local,global,0,18,5,221,3,,,227,exp,LUZYNESZHHEFULF,HHUTZZLFSNNLEFS,4,T,absent,tT,nN,t,1,0.751401792,n,1,0.067357292,RSVPLG01,0.94,2023-09-12-22:46:04,907,1,Experiment,2023-09-12_15h59.54.758
6,local,global,7,18,6,222,5,,,228,exp,FTHZFSLHNYXSTYU,FLNETYSYLHUHSUT,4,E,X,eE,yY,e,1,0.39505775,y,1,0.164443542,RSVPLG01,0.94,2023-09-12-22:46:04,907,1,Experiment,2023-09-12_15h59.54.758
11,global,global,3,18,7,223,10,,,229,exp,ZHFNSFXLYHEZLTT,FHZUSYELTLSZEYT,4,N,X,nN,yY,n,1,0.763870417,y,1,0.241249583,RSVPLG01,0.94,2023-09-12-22:46:04,907,1,Experiment,2023-09-12_15h59.54.758
6,local,global,7,18,8,224,5,,,230,exp,ELUHYUFHTSEXFLZ,LZUTNZHEFSHSUEL,5,N,X,nN,yY,n,1,0.49789925,y,1,0.114378125,RSVPLG01,0.94,2023-09-12-22:46:04,907,1,Experiment,2023-09-12_15h59.54.758
6,local,global,7,18,9,225,5,,,231,exp,SHZSUYFZFELNXLH,ELNZUTZNFHUFSSE,6,T,X,tT,yY,t,1,0.58885125,y,1,0.269153084,RSVPLG01,0.94,2023-09-12-22:46:04,907,1,Experiment,2023-09-12_15h59.54.758
2,local,local,3,18,10,226,1,,,232,exp,SFZTFYSHHELULEU,SZENSLXZYYFHELU,4,N,X,nN,yY,n,1,0.480349667,n,0,0.270389542,RSVPLG01,0.94,2023-09-12-22:46:04,907,1,Experiment,2023-09-12_15h59.54.758
8,global,local,3,18,11,227,7,,,233,exp,ZSTEHLFNTUSUFNZ,FZHYNNXLUZTSSHU,4,E,X,eE,yY,e,1,0.672719708,y,1,0.202051041,RSVPLG01,0.94,2023-09-12-22:46:04,907,1,Experiment,2023-09-12_15h59.54.758
2,local,local,3,19,0,228,1,,,234,exp,THUTSFSELNZHELN,TZUUSYHEXLNNESZ,6,Y,X,yY,yY,y,1,0.603008125,n,0,0.165523416,RSVPLG01,0.94,2023-09-12-22:46:04,907,1,Experiment,2023-09-12_15h59.54.758
4,local,global,0,19,1,229,3,,,235,exp,YESHLYLZEZFNTTS,TLTUYZZNELESSNF,4,U,absent,uU,nN,u,1,0.4236215,y,0,0.239285042,RSVPLG01,0.94,2023-09-12-22:46:04,907,1,Experiment,2023-09-12_15h59.54.758
11,global,global,3,19,2,230,10,,,236,exp,YEFTLYNXZFESTSZ,YFTSUSYFHNEZHNZ,5,L,X,lL,yY,l,1,0.302571167,y,1,0.222408084,RSVPLG01,0.94,2023-09-12-22:46:04,907,1,Experiment,2023-09-12_15h59.54.758
12,global,global,7,19,3,231,11,,,237,exp,TSUHYLTNYEHUXEN,FSUEYZYSTFNTNUH,6,L,X,lL,yY,l,1,0.3648615,y,1,0.149439333,RSVPLG01,0.94,2023-09-12-22:46:04,907,1,Experiment,2023-09-12_15h59.54.758
1,local,local,0,19,4,232,0,,,238,exp,YFZNUUSZYSTHEHE,YSULFSHTEUZTFZE,4,L,absent,lL,nN,l,1,0.425020042,n,1,0.158320083,RSVPLG01,0.94,2023-09-12-22:46:04,907,1,Experiment,2023-09-12_15h59.54.758
4,local,global,0,19,5,233,3,,,239,exp,FTZLUHZHSSTEUFY,FSTNZUSHEYHUEYZ,4,N,absent,nN,nN,n,1,0.547624333,n,1,0.045251292,RSVPLG01,0.94,2023-09-12-22:46:04,907,1,Experiment,2023-09-12_15h59.54.758
11,global,global,3,19,6,234,10,,,240,exp,ZYULLFEYXNHHUNS,SSLNZTHZHUEYYEN,6,F,X,fF,yY,f,1,0.4080475,y,1,0.149074042,RSVPLG01,0.94,2023-09-12-22:46:04,907,1,Experiment,2023-09-12_15h59.54.758
8,global,local,3,19,7,235,7,,,241,exp,TFHYSLEFHUZTUEL,ZUYTNETXLLEFHUY,5,S,X,sS,yY,s,1,0.163172083,y,1,1.47334875,RSVPLG01,0.94,2023-09-12-22:46:04,907,1,Experiment,2023-09-12_15h59.54.758
10,global,global,0,19,8,236,9,,,242,exp,TLZHFETZSHYLSFN,LYHFLUTZSZNNFYH,6,E,absent,eE,nN,e,1,0.421872334,y,0,0.146224334,RSVPLG01,0.94,2023-09-12-22:46:04,907,1,Experiment,2023-09-12_15h59.54.758
9,global,local,7,19,9,237,8,,,243,exp,SNUTEHSHLYTFUFN,FUHTZSYNSFNXHLL,5,E,X,eE,yY,e,1,0.349151917,n,0,1.06021525,RSVPLG01,0.94,2023-09-12-22:46:04,907,1,Experiment,2023-09-12_15h59.54.758
7,global,local,0,19,10,238,6,,,244,exp,NELSYFHSULENZZU,YZHELTESLUNNSUZ,6,F,absent,fF,nN,f,1,0.610868084,y,0,0.125350916,RSVPLG01,0.94,2023-09-12-22:46:04,907,1,Experiment,2023-09-12_15h59.54.758
7,global,local,0,19,11,239,6,,,245,exp,HTZUUNETLSHZLYE,ULZSTFHHEUSYTZE,6,N,absent,nN,nN,n,1,0.5256585,y,0,0.085356542,RSVPLG01,0.94,2023-09-12-22:46:04,907,1,Experiment,2023-09-12_15h59.54.758