row,t1_level,t2_level,t2_lag,.thisRepN,.thisTrialN,.thisN,.thisIndex,thisRow.t,notes,trial,trial_type,global_letters,local_letters,t1_pos,t1,t2,t1_corr,t2_corr,t1_resp,t1_acc,t1_rt,t2_resp,t2_acc,t2_rt,exp,ver,mod-utc,sub,sess,blocktyp,datetime
3,local,local,7,0,0,0,2,,,1,warmup,LLZNUTZFYHEYNFH,ZFLYHSEUNYNFXUH,6,S,X,sS,yY,s,1,1.867758,y,1,0.2614981,RSVPLG01,0.94,2023-09-12-22:27:18,9004,1,Experiment,2023-09-12_15h49.37.245
8,global,local,3,0,1,1,7,,,2,warmup,USLLTHUZNEEFZNF,SNNSFYLTXTULEEF,6,H,X,hH,yY,t,0,1.6114033,n,0,0.218182,RSVPLG01,0.94,2023-09-12-22:27:18,9004,1,Experiment,2023-09-12_15h49.37.245
1,local,local,0,0,2,2,0,,,3,warmup,EZYLEFHZSSUUTLH,LELEHNZSUYYHSZT,6,N,absent,nN,nN,n,1,1.273722,y,0,0.8585409,RSVPLG01,0.94,2023-09-12-22:27:18,9004,1,Experiment,2023-09-12_15h49.37.245
10,global,global,0,0,3,3,9,,,4,warmup,SESEFYTNLHZFNTH,EFZLTULHHZETSNS,6,Y,absent,yY,nN,y,1,1.0425368,n,1,0.4268723,RSVPLG01,0.94,2023-09-12-22:27:18,9004,1,Experiment,2023-09-12_15h49.37.245
9,global,local,7,0,4,4,8,,,5,warmup,EULYHHFFNLEZUNT,ULNSZHLETHXFUFZ,4,Y,X,yY,yY,y,1,2.3624501,y,1,0.1863175,RSVPLG01,0.94,2023-09-12-22:27:18,9004,1,Experiment,2023-09-12_15h49.37.245
7,global,local,0,0,0,0,6,,,6,exp,LTHEFUHNUTLSSYE,STHSZYUNLEEYUTL,5,F,absent,fF,nN,z,0,3.1990012,n,1,0.3183474,RSVPLG01,0.94,2023-09-12-22:27:18,9004,1,Experiment,2023-09-12_15h49.37.245
5,local,global,3,0,1,1,4,,,7,exp,FZNNHULTXZLFYEH,NEFHZSLFYYHTLTE,6,S,X,sS,yY,y,0,1.3722326,y,1,0.286397,RSVPLG01,0.94,2023-09-12-22:27:18,9004,1,Experiment,2023-09-12_15h49.37.245
3,local,local,7,0,2,2,2,,,8,exp,NSFEHLLTHFYZZTN,NZYULYFZTLXSNTH,4,U,X,uU,yY,u,1,1.2062117,y,1,0.3492334,RSVPLG01,0.94,2023-09-12-22:27:18,9004,1,Experiment,2023-09-12_15h49.37.245
12,global,global,7,0,3,3,11,,,9,exp,HNZTEYTUFZUXSYF,UZTNLTHZFNHFYUS,5,E,X,eE,yY,t,0,1.8906275,y,1,0.0796215,RSVPLG01,0.94,2023-09-12-22:27:18,9004,1,Experiment,2023-09-12_15h49.37.245
7,global,local,0,0,4,4,6,,,10,exp,TNYFULEEHNZTZYF,ELFNSHZLETYNZHY,5,U,absent,uU,nN,u,1,1.1171779,y,0,0.3303401,RSVPLG01,0.94,2023-09-12-22:27:18,9004,1,Experiment,2023-09-12_15h49.37.245
9,global,local,7,0,5,5,8,,,11,exp,EHFNULZTNHSZSEF,HELTYNTHSZFXZFL,5,U,X,uU,yY,y,0,2.9223849,n,0,0.3495216,RSVPLG01,0.94,2023-09-12-22:27:18,9004,1,Experiment,2023-09-12_15h49.37.245
5,local,global,3,0,6,6,4,,,12,exp,UFZESYNXTYLFLUE,EUTUHYELZNFNLTF,5,H,X,hH,yY,h,1,1.2141861,n,0,0.6066767,RSVPLG01,0.94,2023-09-12-22:27:18,9004,1,Experiment,2023-09-12_15h49.37.245
7,global,local,0,0,7,7,6,,,13,exp,LHHFZYTTNYUZEEU,UZZSLYLYHETNEHN,4,F,absent,fF,nN,y,0,1.3580876,n,1,0.0447367,RSVPLG01,0.94,2023-09-12-22:27:18,9004,1,Experiment,2023-09-12_15h49.37.245
8,global,local,3,0,8,8,7,,,14,exp,EFSLSEYTUNUFYNH,SSEZEFXNHYYFUNT,4,L,X,lL,yY,u,0,1.9274063,n,0,0.0434641,RSVPLG01,0.94,2023-09-12-22:27:18,9004,1,Experiment,2023-09-12_15h49.37.245
11,global,global,3,0,9,9,10,,,15,exp,UNZTUNXLHZEYSYE,ZEEFHLNYLZUYSUN,4,T,X,tT,yY,f,0,4.1113906,n,0,0.7001162,RSVPLG01,0.94,2023-09-12-22:27:18,9004,1,Experiment,2023-09-12_15h49.37.245
4,local,global,0,0,10,10,3,,,16,exp,LULHFTZEYZEHSSU,STYLNSHTUZEYZHL,5,N,absent,nN,nN,n,1,1.4600712,y,0,0.2817039,RSVPLG01,0.94,2023-09-12-22:27:18,9004,1,Experiment,2023-09-12_15h49.37.245
2,local,local,3,0,11,11,1,,,17,exp,FYTHUHTZNSFEZNS,NEYFLSSXZYFNHHZ,5,L,X,lL,yY,l,1,1.5985896,n,0,0.5047875,RSVPLG01,0.94,2023-09-12-22:27:18,9004,1,Experiment,2023-09-12_15h49.37.245
2,local,local,3,1,0,12,1,,,18,exp,LEZNSYTUEHTLSYU,EHUFHTXLEZTSSUY,4,F,X,fF,yY,f,1,1.1321371,y,1,0.6023482,RSVPLG01,0.94,2023-09-12-22:27:18,9004,1,Experiment,2023-09-12_15h49.37.245
4,local,global,0,1,1,13,3,,,19,exp,ETFFUNEHYHNTSYL,TYHEZSNYLETNSHF,5,Z,absent,zZ,nN,s,0,1.447662,n,1,0.3616353,RSVPLG01,0.94,2023-09-12-22:27:18,9004,1,Experiment,2023-09-12_15h49.37.245
4,local,global,0,1,2,14,3,,,20,exp,ENZELFTUSTUZNSL,HSZNEYSLUENUHZL,6,Y,absent,yY,nN,y,1,1.133794,y,0,0.8283808,RSVPLG01,0.94,2023-09-12-22:27:18,9004,1,Experiment,2023-09-12_15h49.37.245
9,global,local,7,1,3,15,8,,,21,exp,HUHLNYZYFEULTFT,LHYYSTUZFFEXTHL,5,N,X,nN,yY,y,0,1.1748328,n,0,0.3135888,RSVPLG01,0.94,2023-09-12-22:27:18,9004,1,Experiment,2023-09-12_15h49.37.245
1,local,local,0,1,4,16,0,,,22,exp,YNETULZHZEHTFYU,FTYNESUEZFNTHHZ,6,S,absent,sS,nN,s,1,1.5726069,n,1,0.4559716,RSVPLG01,0.94,2023-09-12-22:27:18,9004,1,Experiment,2023-09-12_15h49.37.245
7,global,local,0,1,5,17,6,,,23,exp,NTNESLFHLUFEZTU,FLUZYTEHNFZNUET,5,S,absent,sS,nN,s,1,1.662416,n,1,0.5051104,RSVPLG01,0.94,2023-09-12-22:27:18,9004,1,Experiment,2023-09-12_15h49.37.245
5,local,global,3,1,6,18,4,,,24,exp,NYFHELNXYUZTHUT,LZNLSTFHZUNUYTF,5,S,X,sS,yY,s,1,1.002807,y,1,1.0402495,RSVPLG01,0.94,2023-09-12-22:27:18,9004,1,Experiment,2023-09-12_15h49.37.245
10,global,global,0,1,7,19,9,,,25,exp,FSZZTYLEELUFHSU,HFEFTNHUTZUZSLE,6,Y,absent,yY,nN,y,1,1.1120423,n,1,0.4089383,RSVPLG01,0.94,2023-09-12-22:27:18,9004,1,Experiment,2023-09-12_15h49.37.245
4,local,global,0,1,8,20,3,,,26,exp,NSFLESHZUHYZNFE,EHZTESYFSZNNHUF,4,T,absent,tT,nN,t,1,1.1835565,n,1,0.2970362,RSVPLG01,0.94,2023-09-12-22:27:18,9004,1,Experiment,2023-09-12_15h49.37.245
4,local,global,0,1,9,21,3,,,27,exp,LNSZUTYHETZNHSY,ZSELFLYHEZTNSYT,5,F,absent,fF,nN,f,1,1.2026776,n,1,0.3936659,RSVPLG01,0.94,2023-09-12-22:27:18,9004,1,Experiment,2023-09-12_15h49.37.245
12,global,global,7,1,10,22,11,,,28,exp,ENNTZYSHFUEXYHS,SFFULEUTHEHTSNY,5,Z,X,zZ,yY,l,0,0.986178,y,1,0.6813197,RSVPLG01,0.94,2023-09-12-22:27:18,9004,1,Experiment,2023-09-12_15h49.37.245
2,local,local,3,1,11,23,1,,,29,exp,NTULTFUSHSEEZHL,USZTHYSTXNHENUZ,6,Y,X,yY,yY,y,1,1.8331203,y,1,0.9055459,RSVPLG01,0.94,2023-09-12-22:27:18,9004,1,Experiment,2023-09-12_15h49.37.245
5,local,global,3,2,0,24,4,,,30,exp,YLNZHLTXFSENYFT,SLSFUFEETZLNTZN,5,U,X,uU,yY,u,1,1.1206471,n,0,0.9418617,RSVPLG01,0.94,2023-09-12-22:27:18,9004,1,Experiment,2023-09-12_15h49.37.245
11,global,global,3,2,1,25,10,,,31,exp,YHLZYTXFSNFEHTL,FSNUYTNYEESFLHL,4,Z,X,zZ,yY,l,0,1.3019207,n,0,0.4472257,RSVPLG01,0.94,2023-09-12-22:27:18,9004,1,Experiment,2023-09-12_15h49.37.245
4,local,global,0,2,2,26,3,,,32,exp,SYUZTEHFTNYUFNS,TTZHULFZSYNUHFY,6,L,absent,lL,nN,l,1,1.0234224,n,1,0.378952,RSVPLG01,0.94,2023-09-12-22:27:18,9004,1,Experiment,2023-09-12_15h49.37.245
7,global,local,0,2,3,27,6,,,33,exp,FNTLSEYZUSTNZFE,UYEHTETZSNYFUNS,4,L,absent,lL,nN,h,0,1.669021,n,1,1.6613307,RSVPLG01,0.94,2023-09-12-22:27:18,9004,1,Experiment,2023-09-12_15h49.37.245
8,global,local,3,2,4,28,7,,,34,exp,ZSFUHLTESEHFNUT,HNSZTYUFXTEZFHU,6,L,X,lL,yY,t,0,1.0818117,y,1,1.326567,RSVPLG01,0.94,2023-09-12-22:27:18,9004,1,Experiment,2023-09-12_15h49.37.245
10,global,global,0,2,5,29,9,,,35,exp,TSNUHZLEUFTFSEL,TEFLYTFZSSZUUNE,5,H,absent,hH,nN,h,1,1.2622043,n,1,0.5061767,RSVPLG01,0.94,2023-09-12-22:27:18,9004,1,Experiment,2023-09-12_15h49.37.245
6,local,global,7,2,6,30,5,,,36,exp,SNELEUHSYHZYXTL,LNZZNFSESLHHYYE,6,F,X,fF,yY,f,1,1.3325218,n,0,0.5557877,RSVPLG01,0.94,2023-09-12-22:27:18,9004,1,Experiment,2023-09-12_15h49.37.245
5,local,global,3,2,7,31,4,,,37,exp,UTTYHEUFXFSZSYZ,UZTHULZNFYSSFNH,6,L,X,lL,yY,l,1,1.499507,n,0,0.3133809,RSVPLG01,0.94,2023-09-12-22:27:18,9004,1,Experiment,2023-09-12_15h49.37.245
7,global,local,0,2,8,32,6,,,38,exp,HYYTLSFETUZHSUF,ZFFYNZHTYEUEHUS,5,L,absent,lL,nN,l,1,1.2289165,n,1,0.2967787,RSVPLG01,0.94,2023-09-12-22:27:18,9004,1,Experiment,2023-09-12_15h49.37.245
9,global,local,7,2,9,33,8,,,39,exp,NNZHTZYETSUESFF,ETZLUNSZFYXSNTE,4,H,X,hH,yY,h,1,1.1779566,y,1,0.4499458,RSVPLG01,0.94,2023-09-12-22:27:18,9004,1,Experiment,2023-09-12_15h49.37.245
2,local,local,3,2,10,34,1,,,40,exp,UNZFTLSSUYZHYHL,UHUEYTXLLNSTZHS,4,E,X,eE,yY,e,1,1.2485926,y,1,0.3293285,RSVPLG01,0.94,2023-09-12-22:27:18,9004,1,Experiment,2023-09-12_15h49.37.245
1,local,local,0,2,11,35,0,,,41,exp,NFSHZHSNLEEFYUY,FLFSTYEHUSNUHLE,5,T,absent,tT,nN,t,1,1.3749518,n,1,0.3851521,RSVPLG01,0.94,2023-09-12-22:27:18,9004,1,Experiment,2023-09-12_15h49.37.245
3,local,local,7,3,0,36,2,,,42,exp,FTFYSUNTNLUELSH,HLFZSEHFLSXNTEU,4,Z,X,zZ,yY,z,1,1.6016705,y,1,0.3934904,RSVPLG01,0.94,2023-09-12-22:27:18,9004,1,Experiment,2023-09-12_15h49.37.245
10,global,global,0,3,1,37,9,,,43,exp,ZHLNLFYHYUSZENS,UYUZETNZLHSESHN,6,F,absent,fF,nN,t,0,9.5345961,n,1,0.1855817,RSVPLG01,0.94,2023-09-12-22:27:18,9004,1,Experiment,2023-09-12_15h49.37.245
7,global,local,0,3,2,38,6,,,44,exp,FZHNLYFSSTHTZEL,NEZFTULSNTHFELS,6,Y,absent,yY,nN,u,0,2.2328806,n,1,0.7137884,RSVPLG01,0.94,2023-09-12-22:27:18,9004,1,Experiment,2023-09-12_15h49.37.245
12,global,global,7,3,3,39,11,,,45,exp,LEHFNTESUZXZNTS,ZLZYTUESTNSEHHN,4,F,X,fF,yY,y,0,0.8273529,n,0,0.2825825,RSVPLG01,0.94,2023-09-12-22:27:18,9004,1,Experiment,2023-09-12_15h49.37.245
1,local,local,0,3,4,40,0,,,46,exp,NFZSYLLFUYEEZUH,YZUTNLLZYUHHEEF,4,T,absent,tT,nN,t,1,1.4009164,n,1,0.3651092,RSVPLG01,0.94,2023-09-12-22:27:18,9004,1,Experiment,2023-09-12_15h49.37.245
8,global,local,3,3,5,41,7,,,47,exp,UHYFUTLZYHZFLNN,FUZENSUHXYFYLLH,6,T,X,tT,yY,s,0,2.1476278,n,0,0.0259929,RSVPLG01,0.94,2023-09-12-22:27:18,9004,1,Experiment,2023-09-12_15h49.37.245
3,local,local,7,3,6,42,2,,,48,exp,YTLZENTUSYEZHHL,HYLESFESHZLYXTU,6,F,X,fF,yY,n,0,0.8700424,y,1,1.0692432,RSVPLG01,0.94,2023-09-12-22:27:18,9004,1,Experiment,2023-09-12_15h49.37.245
1,local,local,0,3,7,43,0,,,49,exp,LESUFSHETHZLYTZ,ZEUENSHTTZLYSLY,5,N,absent,nN,nN,n,1,1.0123213,y,0,0.3941657,RSVPLG01,0.94,2023-09-12-22:27:18,9004,1,Experiment,2023-09-12_15h49.37.245
6,local,global,7,3,8,44,5,,,50,exp,LZHTFSSYNHXNFLY,ZLUENHFSHSULFZN,4,E,X,eE,yY,e,1,1.4288566,n,0,0.329108,RSVPLG01,0.94,2023-09-12-22:27:18,9004,1,Experiment,2023-09-12_15h49.37.245
6,local,global,7,3,9,45,5,,,51,exp,HYELSSYUFNXNZZH,HZYTUFYNSZEUFSE,4,T,X,tT,yY,t,1,1.6521975,n,0,0.2849504,RSVPLG01,0.94,2023-09-12-22:27:18,9004,1,Experiment,2023-09-12_15h49.37.245
6,local,global,7,3,10,46,5,,,52,exp,LFLNESYUFHTXHNY,YUFNZNTSLLUHFYH,5,Z,X,zZ,yY,z,1,2.7205129,n,0,0.378835,RSVPLG01,0.94,2023-09-12-22:27:18,9004,1,Experiment,2023-09-12_15h49.37.245
2,local,local,3,3,11,47,1,,,53,exp,UZYEFHNZYNSFSLL,LSFUETNEXUYNSZZ,6,T,X,tT,yY,t,1,1.5102753,y,1,0.2363354,RSVPLG01,0.94,2023-09-12-22:27:18,9004,1,Experiment,2023-09-12_15h49.37.245
7,global,local,0,4,0,48,6,,,54,exp,UUYZTYSNSTLHFHL,HUNESTYLTSYLFHN,4,Z,absent,zZ,nN,z,1,1.9104699,n,1,0.7020761,RSVPLG01,0.94,2023-09-12-22:27:18,9004,1,Experiment,2023-09-12_15h49.37.245
8,global,local,3,4,1,49,7,,,55,exp,NHZTHZLSUEEFLNU,HFNYLZXFUESSLZU,4,T,X,tT,yY,t,1,1.5325187,y,1,0.3179396,RSVPLG01,0.94,2023-09-12-22:27:18,9004,1,Experiment,2023-09-12_15h49.37.245
8,global,local,3,4,2,50,7,,,56,exp,FYNHLSLZHFYNEUU,NHUEZTEZXNLFULF,6,S,X,sS,yY,l,0,1.67072,n,0,0.1749363,RSVPLG01,0.94,2023-09-12-22:27:18,9004,1,Experiment,2023-09-12_15h49.37.245
12,global,global,7,4,3,51,11,,,57,exp,NEYHFTSUNUXELFT,TUFZNTUYYFELSNS,4,H,X,hH,yY,h,1,1.3249073,n,0,0.2184066,RSVPLG01,0.94,2023-09-12-22:27:18,9004,1,Experiment,2023-09-12_15h49.37.245
4,local,global,0,4,4,52,3,,,58,exp,YULFHENFNYSZZES,LYZLTSSENYFZENU,5,T,absent,tT,nN,t,1,1.5982128,n,1,0.3447762,RSVPLG01,0.94,2023-09-12-22:27:18,9004,1,Experiment,2023-09-12_15h49.37.245
12,global,global,7,4,5,53,11,,,59,exp,EUZLZNHFTLSHXFU,LTTSHYUFUEEHFLS,6,N,X,nN,yY,n,1,11.5157179,n,0,0.3470493,RSVPLG01,0.94,2023-09-12-22:27:18,9004,1,Experiment,2023-09-12_15h49.37.245
11,global,global,3,4,6,54,10,,,60,exp,ZZNSYLXFEUYEHFH,HELTZZFNUFYELYN,4,S,X,sS,yY,l,0,6.6850989,y,1,0.7760009,RSVPLG01,0.94,2023-09-12-22:27:18,9004,1,Experiment,2023-09-12_15h49.37.245
11,global,global,3,4,7,55,10,,,61,exp,YTZHSNTEXUUESYF,EFHUYLHEZSTZSYF,6,N,X,nN,yY,n,1,1.3592601,n,0,0.5369779,RSVPLG01,0.94,2023-09-12-22:27:18,9004,1,Experiment,2023-09-12_15h49.37.245
4,local,global,0,4,8,56,3,,,62,exp,NFLNSHSUZZTFEET,NFUFSYZNUTELTLS,6,Y,absent,yY,nN,y,1,1.1575572,n,1,1.0499226,RSVPLG01,0.94,2023-09-12-22:27:18,9004,1,Experiment,2023-09-12_15h49.37.245
7,global,local,0,4,9,57,6,,,63,exp,FNNEHSZYUSFUTZE,NTUZLFEFYSUZTSY,5,H,absent,hH,nN,l,0,1.0804696,n,1,0.4727921,RSVPLG01,0.94,2023-09-12-22:27:18,9004,1,Experiment,2023-09-12_15h49.37.245
7,global,local,0,4,10,58,6,,,64,exp,ENUFLHTUHNFESZS,UNTZYFNEFZETHUS,5,L,absent,lL,nN,l,1,1.0714483,n,1,0.5552191,RSVPLG01,0.94,2023-09-12-22:27:18,9004,1,Experiment,2023-09-12_15h49.37.245
7,global,local,0,4,11,59,6,,,65,exp,ULUNTSHEESFHLYY,UUEZYHLTELFSHSY,4,N,absent,nN,nN,y,0,2.0220126,n,1,0.6059119,RSVPLG01,0.94,2023-09-12-22:27:18,9004,1,Experiment,2023-09-12_15h49.37.245
11,global,global,3,5,0,60,10,,,66,exp,FSUTHYNTXLLNZZS,TSHTNEZLZFULFUS,6,Y,X,yY,yY,y,1,0.8984116,n,0,0.3292587,RSVPLG01,0.94,2023-09-12-22:27:18,9004,1,Experiment,2023-09-12_15h49.37.245
10,global,global,0,5,1,61,9,,,67,exp,YHEFTZUELYNFLHN,HULLSZZHNNYEYUF,5,T,absent,tT,nN,t,1,1.1171056,n,1,0.1533306,RSVPLG01,0.94,2023-09-12-22:27:18,9004,1,Experiment,2023-09-12_15h49.37.245
8,global,local,3,5,2,62,7,,,68,exp,SUULEYZZFYTHFTL,LLFUNSHXZUTFYTS,5,E,X,eE,yY,s,0,6.5036869,n,0,0.0914379,RSVPLG01,0.94,2023-09-12-22:27:18,9004,1,Experiment,2023-09-12_15h49.37.245
10,global,global,0,5,3,63,9,,,69,exp,NLUYENHZSFSFHZY,ZUULTSHHFYYZLNN,5,E,absent,eE,nN,t,0,2.0757378,n,1,0.2170666,RSVPLG01,0.94,2023-09-12-22:27:18,9004,1,Experiment,2023-09-12_15h49.37.245
7,global,local,0,5,4,64,6,,,70,exp,FSTSHNYZUUFEEHZ,UUYTELZTYFHSHSZ,6,N,absent,nN,nN,n,1,1.0214623,n,1,0.3316864,RSVPLG01,0.94,2023-09-12-22:27:18,9004,1,Experiment,2023-09-12_15h49.37.245
3,local,local,7,5,5,65,2,,,71,exp,FENTLESSZHHTYFN,SHTNUYSFTENXYFZ,5,U,X,uU,yY,y,0,0.9678316,y,1,0.6963051,RSVPLG01,0.94,2023-09-12-22:27:18,9004,1,Experiment,2023-09-12_15h49.37.245
1,local,local,0,5,6,66,0,,,72,exp,YNHTUFLLZZEFEHT,FNHTSZFNTYLYHEZ,5,S,absent,sS,nN,s,1,1.2625557,n,1,0.319005,RSVPLG01,0.94,2023-09-12-22:27:18,9004,1,Experiment,2023-09-12_15h49.37.245
4,local,global,0,5,7,67,3,,,73,exp,ZHSYZNLFSFTLUNT,FUSEZHHNTFZTNSL,4,E,absent,eE,nN,e,1,1.5696329,n,1,0.2813482,RSVPLG01,0.94,2023-09-12-22:27:18,9004,1,Experiment,2023-09-12_15h49.37.245
11,global,global,3,5,8,68,10,,,74,exp,FZFYESZHXUHNLNL,UEFYLTHUFHZENYN,6,S,X,sS,yY,s,1,2.453443,n,0,0.2333833,RSVPLG01,0.94,2023-09-12-22:27:18,9004,1,Experiment,2023-09-12_15h49.37.245
7,global,local,0,5,9,69,6,,,75,exp,YZEFESNLTZTFNLU,UUZTTHLLNFEYYFZ,6,S,absent,sS,nN,s,1,0.9253169,n,1,0.2971678,RSVPLG01,0.94,2023-09-12-22:27:18,9004,1,Experiment,2023-09-12_15h49.37.245
9,global,local,7,5,10,70,8,,,76,exp,ZFHSTZLYLNFTYNE,FENUNYTZYLXHHLF,4,S,X,sS,yY,s,1,0.9017034,y,1,0.2022579,RSVPLG01,0.94,2023-09-12-22:27:18,9004,1,Experiment,2023-09-12_15h49.37.245
6,local,global,7,5,11,71,5,,,77,exp,UYSHFNZYUSZEXLE,UYULHTFHZEESYSZ,6,T,X,tT,yY,t,1,1.5086526,y,1,0.4758299,RSVPLG01,0.94,2023-09-12-22:27:18,9004,1,Experiment,2023-09-12_15h49.37.245
2,local,local,3,6,0,72,1,,,78,exp,UZETZEFLFYLHHNN,LLUSENXYFZZEHNF,4,S,X,sS,yY,s,1,0.8469525,n,0,0.2495791,RSVPLG01,0.94,2023-09-12-22:27:18,9004,1,Experiment,2023-09-12_15h49.37.245
5,local,global,3,6,1,73,4,,,79,exp,LESUYFYSXNZTUTZ,YLESEHSUUTNZTZN,6,H,X,hH,yY,e,0,0.864543,n,0,0.3470125,RSVPLG01,0.94,2023-09-12-22:27:18,9004,1,Experiment,2023-09-12_15h49.37.245
5,local,global,3,6,2,74,4,,,80,exp,THEZLYZXYHSTUFU,UFTENUHEYFZSHYZ,5,N,X,nN,yY,u,0,1.0239458,n,0,0.3447204,RSVPLG01,0.94,2023-09-12-22:27:18,9004,1,Experiment,2023-09-12_15h49.37.245
5,local,global,3,6,3,75,4,,,81,exp,THSFTLXNUHNEUSY,THEZUYSNNELLHTU,4,Z,X,zZ,yY,z,1,1.7378828,n,0,86.7933051,RSVPLG01,0.94,2023-09-12-22:27:18,9004,1,Experiment,2023-09-12_15h49.37.245
9,global,local,7,6,4,76,8,,,82,exp,ZTUZESUYNYELFLF,FLLFUHUNEZYTXNZ,6,S,X,sS,yY,h,0,1.461066,n,0,0.0907483,RSVPLG01,0.94,2023-09-12-22:27:18,9004,1,Experiment,2023-09-12_15h49.37.245
4,local,global,0,6,5,77,3,,,83,exp,EUZTYNUHFZLHYFN,HLFSEYNHZFEYZLU,4,S,absent,sS,nN,s,1,0.9057369,n,1,0.3941399,RSVPLG01,0.94,2023-09-12-22:27:18,9004,1,Experiment,2023-09-12_15h49.37.245
1,local,local,0,6,6,78,0,,,84,exp,SLSUNNTZLFEHFTE,STNYZTELFNZSHEH,4,Y,absent,yY,nN,y,1,0.9624621,n,1,0.3489483,RSVPLG01,0.94,2023-09-12-22:27:18,9004,1,Experiment,2023-09-12_15h49.37.245
8,global,local,3,6,7,79,7,,,85,exp,LUUSYTFENSHYNHE,NSEFUZFHXLNYEHY,6,T,X,tT,yY,y,0,1.111423,n,0,0.4422812,RSVPLG01,0.94,2023-09-12-22:27:18,9004,1,Experiment,2023-09-12_15h49.37.245
12,global,global,7,6,8,80,11,,,86,exp,EYYUHTHZNNEZXLL,FYNZESLZNYLHUEU,6,T,X,tT,yY,y,0,1.9723686,n,0,0.0089928,RSVPLG01,0.94,2023-09-12-22:27:18,9004,1,Experiment,2023-09-12_15h49.37.245
12,global,global,7,6,9,81,11,,,87,exp,TZEYLNSFEFXTSZN,ZLFUHLNEHNEZTFS,4,Y,X,yY,yY,y,1,0.839941,n,0,0.2663472,RSVPLG01,0.94,2023-09-12-22:27:18,9004,1,Experiment,2023-09-12_15h49.37.245
5,local,global,3,6,10,82,4,,,88,exp,YTYLEFNSXUUSLEH,YTLSUZTYHHLEUNN,6,Z,X,zZ,yY,u,0,1.2147024,n,0,0.4919424,RSVPLG01,0.94,2023-09-12-22:27:18,9004,1,Experiment,2023-09-12_15h49.37.245
12,global,global,7,6,11,83,11,,,89,exp,FYNHLTTZLNXYUFZ,LTSENFFYLTZUZSU,4,H,X,hH,yY,h,1,1.4148844,n,0,0.2508067,RSVPLG01,0.94,2023-09-12-22:27:18,9004,1,Experiment,2023-09-12_15h49.37.245
3,local,local,7,7,0,84,2,,,90,exp,LNTZEYSNZFHSTFH,SNHFULSZYHYXFNL,5,U,X,uU,yY,u,1,0.7174891,y,1,0.5098888,RSVPLG01,0.94,2023-09-12-22:27:18,9004,1,Experiment,2023-09-12_15h49.37.245
8,global,local,3,7,1,85,7,,,91,exp,LZLFSYUTNTNSZUF,FZHNNEUTXSUTFSH,6,Y,X,yY,yY,y,1,1.0080062,y,1,0.6815208,RSVPLG01,0.94,2023-09-12-22:27:18,9004,1,Experiment,2023-09-12_15h49.37.245
1,local,local,0,7,2,86,0,,,92,exp,LNEYHSLEUZTNZUH,HTEFLESULNUNZHS,4,F,absent,fF,nN,f,1,1.4743412,n,1,0.3469809,RSVPLG01,0.94,2023-09-12-22:27:18,9004,1,Experiment,2023-09-12_15h49.37.245
12,global,global,7,7,3,87,11,,,93,exp,LTZYLFETUNUYXZN,TLELESHTNZUZHUY,6,F,X,fF,yY,e,0,1.4957632,n,0,0.3298635,RSVPLG01,0.94,2023-09-12-22:27:18,9004,1,Experiment,2023-09-12_15h49.37.245
9,global,local,7,7,4,88,8,,,94,exp,SNUFYTEELNZLFST,FLUTHUZSZSFXNNE,5,Y,X,yY,yY,y,1,0.8999397,y,1,0.4576619,RSVPLG01,0.94,2023-09-12-22:27:18,9004,1,Experiment,2023-09-12_15h49.37.245
6,local,global,7,7,5,89,5,,,95,exp,ENSFZHNLLYTYXSE,SFSEEUZTLTLNFNY,6,U,X,uU,yY,e,0,1.2187632,n,0,0.5537303,RSVPLG01,0.94,2023-09-12-22:27:18,9004,1,Experiment,2023-09-12_15h49.37.245
8,global,local,3,7,6,90,7,,,96,exp,FHLZSUTEFZHSYTL,YHHZSNLFXLESEFT,6,U,X,uU,yY,n,0,1.1713376,n,0,0.4266915,RSVPLG01,0.94,2023-09-12-22:27:18,9004,1,Experiment,2023-09-12_15h49.37.245
12,global,global,7,7,7,91,11,,,97,exp,YESFTHUYLNXLUTS,TYEZUTUNLSHNESH,4,F,X,fF,yY,z,0,1.5210829,n,0,0.4252724,RSVPLG01,0.94,2023-09-12-22:27:18,9004,1,Experiment,2023-09-12_15h49.37.245
4,local,global,0,7,8,92,3,,,98,exp,LHEUFYLTZESSZHU,ESLUNTUSYHZHEYL,5,N,absent,nN,nN,n,1,0.9049326,n,1,0.4115593,RSVPLG01,0.94,2023-09-12-22:27:18,9004,1,Experiment,2023-09-12_15h49.37.245
7,global,local,0,7,9,93,6,,,99,exp,YYNZTSSLUUFLFNH,UYZSEHLHFNSYLZF,5,T,absent,tT,nN,h,0,0.8366064,n,1,1.2152179,RSVPLG01,0.94,2023-09-12-22:27:18,9004,1,Experiment,2023-09-12_15h49.37.245
3,local,local,7,7,10,94,2,,,100,exp,NLYEHYZTTFFHSSZ,YSNUNLTZTLXHFHZ,4,U,X,uU,yY,u,1,0.7131021,y,1,0.4885491,RSVPLG01,0.94,2023-09-12-22:27:18,9004,1,Experiment,2023-09-12_15h49.37.245
6,local,global,7,7,11,95,5,,,101,exp,HYNFELZEUTYZXHU,NYHUTSZYFHUTZFE,6,S,X,sS,yY,s,1,1.4605744,n,0,0.6706491,RSVPLG01,0.94,2023-09-12-22:27:18,9004,1,Experiment,2023-09-12_15h49.37.245
7,global,local,0,8,0,96,6,,,102,exp,TTSHFUZSEYNYZEU,ENYSLHZUETSNHTY,5,F,absent,fF,nN,l,0,1.161673,n,1,0.2815576,RSVPLG01,0.94,2023-09-12-22:27:18,9004,1,Experiment,2023-09-12_15h49.37.245
2,local,local,3,8,1,97,1,,,103,exp,HZUSSLUZFFNNYEY,SFFYHTNEXNZUZEU,6,T,X,tT,yY,t,1,1.3382267,y,1,0.4084524,RSVPLG01,0.94,2023-09-12-22:27:18,9004,1,Experiment,2023-09-12_15h49.37.245
9,global,local,7,8,2,98,8,,,104,exp,NYZYHSESEFUUFZT,FUTSLYZUYFEXNSE,5,H,X,hH,yY,l,0,0.9080708,y,1,0.8429737,RSVPLG01,0.94,2023-09-12-22:27:18,9004,1,Experiment,2023-09-12_15h49.37.245
10,global,global,0,8,3,99,9,,,105,exp,LESZETFNUYUNTYL,UFTHYSNNLUYTFES,4,Z,absent,zZ,nN,h,0,1.6611047,n,1,0.2660975,RSVPLG01,0.94,2023-09-12-22:27:18,9004,1,Experiment,2023-09-12_15h49.37.245
3,local,local,7,8,4,100,2,,,106,exp,ZSNHYLTTULSZHNU,EZNSFHULEHUXNZL,5,F,X,fF,yY,f,1,1.336447,y,1,0.4107923,RSVPLG01,0.94,2023-09-12-22:27:18,9004,1,Experiment,2023-09-12_15h49.37.245
9,global,local,7,8,5,101,8,,,107,exp,UETEYHLTFSUSYFZ,FTFZYNTZULSSXUE,6,H,X,hH,yY,n,0,1.8802039,y,1,0.4419317,RSVPLG01,0.94,2023-09-12-22:27:18,9004,1,Experiment,2023-09-12_15h49.37.245
1,local,local,0,8,6,102,0,,,108,exp,UEUSNZELYFLYNTT,LNUYUHNSELSFEYT,6,H,absent,hH,nN,h,1,1.357769,y,0,0.3498947,RSVPLG01,0.94,2023-09-12-22:27:18,9004,1,Experiment,2023-09-12_15h49.37.245
3,local,local,7,8,7,103,2,,,109,exp,YNSTZHEFNTEYFSU,HFHELUSYNNYXUES,5,L,X,lL,yY,l,1,1.0667725,y,1,0.392551,RSVPLG01,0.94,2023-09-12-22:27:18,9004,1,Experiment,2023-09-12_15h49.37.245
12,global,global,7,8,8,104,11,,,110,exp,SYEFNUFTYEZLXLT,ZFSTNHEYLLNFZYS,6,U,X,uU,yY,h,0,1.9063017,y,1,0.0101037,RSVPLG01,0.94,2023-09-12-22:27:18,9004,1,Experiment,2023-09-12_15h49.37.245
8,global,local,3,8,9,105,7,,,111,exp,FLLSUHUZFSETYZT,ESYZZNTLXLEYUFT,6,H,X,hH,yY,h,1,1.1071226,y,1,0.3973716,RSVPLG01,0.94,2023-09-12-22:27:18,9004,1,Experiment,2023-09-12_15h49.37.245
9,global,local,7,8,10,106,8,,,112,exp,ESZYUFNNTYHFSZT,FTETLSHZNENXZFY,5,U,X,uU,yY,y,0,0.9456552,y,1,3.050856,RSVPLG01,0.94,2023-09-12-22:27:18,9004,1,Experiment,2023-09-12_15h49.37.245
3,local,local,7,8,11,107,2,,,113,exp,ETNHLNSLTFSEFZU,LZSYNUFULTXFZNE,4,Y,X,yY,yY,y,1,0.7932371,y,1,0.057954,RSVPLG01,0.94,2023-09-12-22:27:18,9004,1,Experiment,2023-09-12_15h49.37.245
8,global,local,3,9,0,108,7,,,114,exp,TLUSTYUHZZYEHFL,FUHNZLXELYTYFZT,4,S,X,sS,yY,s,1,1.2295119,y,1,0.5050058,RSVPLG01,0.94,2023-09-12-22:27:18,9004,1,Experiment,2023-09-12_15h49.37.245
9,global,local,7,9,1,109,8,,,115,exp,EYZTYNFLTEHZHFU,YUHFLSEZTUYLXEF,6,N,X,nN,yY,s,0,1.47173,y,1,0.2645402,RSVPLG01,0.94,2023-09-12-22:27:18,9004,1,Experiment,2023-09-12_15h49.37.245
10,global,global,0,9,2,110,9,,,116,exp,YFLHUTFSELEHTSZ,HFLENTYESFSZLHY,5,U,absent,uU,nN,h,0,2.0044148,n,1,0.3476044,RSVPLG01,0.94,2023-09-12-22:27:18,9004,1,Experiment,2023-09-12_15h49.37.245
2,local,local,3,9,3,111,1,,,117,exp,ESNZTEHHYFFYSUN,HSNYLNHXUZZFYSF,5,L,X,lL,yY,l,1,1.3588441,n,0,0.2653132,RSVPLG01,0.94,2023-09-12-22:27:18,9004,1,Experiment,2023-09-12_15h49.37.245
4,local,global,0,9,4,112,3,,,118,exp,FZYTZUFNSEELTSL,LYTSLHEFSETZNZY,6,H,absent,hH,nN,h,1,1.216072,n,1,0.361567,RSVPLG01,0.94,2023-09-12-22:27:18,9004,1,Experiment,2023-09-12_15h49.37.245
5,local,global,3,9,5,113,4,,,119,exp,SNFLTUXYYTHSZFZ,TSUEYHNTHFFZNZS,4,E,X,eE,yY,e,1,1.9836596,n,0,0.39288,RSVPLG01,0.94,2023-09-12-22:27:18,9004,1,Experiment,2023-09-12_15h49.37.245
6,local,global,7,9,6,114,5,,,120,exp,LTZSFHTNNUHXESZ,LUUHYNSHTLTNZES,5,Y,X,yY,yY,u,0,1.7422626,n,0,1.084055,RSVPLG01,0.94,2023-09-12-22:27:18,9004,1,Experiment,2023-09-12_15h49.37.245
8,global,local,3,9,7,115,7,,,121,exp,EUSLYHZLTFTSFEU,UFSZENLZXSUFTYE,6,H,X,hH,yY,n,0,0.9533135,n,0,0.6666801,RSVPLG01,0.94,2023-09-12-22:27:18,9004,1,Experiment,2023-09-12_15h49.37.245
4,local,global,0,9,8,116,3,,,122,exp,UEZFYTLNHLTFUZH,HUNTSEZHFLZUTLF,5,S,absent,sS,nN,s,1,2.1117553,n,1,0.4280058,RSVPLG01,0.94,2023-09-12-22:27:18,9004,1,Experiment,2023-09-12_15h49.37.245
10,global,global,0,9,9,117,9,,,123,exp,SEENSZHYLULNTUH,LNYUTFHENYUTEHL,6,Z,absent,zZ,nN,f,0,1.2753302,y,0,0.1058046,RSVPLG01,0.94,2023-09-12-22:27:18,9004,1,Experiment,2023-09-12_15h49.37.245
9,global,local,7,9,10,118,8,,,124,exp,SEFLTHTESUUYYHN,YSTZYEHNFNXUESH,4,L,X,lL,yY,s,0,2.1129395,n,0,0.3824333,RSVPLG01,0.94,2023-09-12-22:27:18,9004,1,Experiment,2023-09-12_15h49.37.245
5,local,global,3,9,11,119,4,,,125,exp,EZFSUYXELLZFYNH,FHZTEYLULNZYENU,4,T,X,tT,yY,e,0,1.0511247,y,1,0.4462349,RSVPLG01,0.94,2023-09-12-22:27:18,9004,1,Experiment,2023-09-12_15h49.37.245
11,global,global,3,10,0,120,10,,,126,exp,UHSYLNHSXZFFLUT,LHYTFETZLUFSZUY,6,N,X,nN,yY,e,0,1.1586223,y,1,0.2176067,RSVPLG01,0.94,2023-09-12-22:27:18,9004,1,Experiment,2023-09-12_15h49.37.245
6,local,global,7,10,1,121,5,,,127,exp,LUFEFSNYELHYXZH,ELNUUTNZEYFZFHY,6,T,X,tT,yY,t,1,1.1694859,y,1,1.3248878,RSVPLG01,0.94,2023-09-12-22:27:18,9004,1,Experiment,2023-09-12_15h49.37.245
10,global,global,0,10,2,122,9,,,128,exp,ZZHFSTTYLEENLNF,THYNUHLFELNYZZF,5,S,absent,sS,nN,s,1,5.6384905,n,1,0.9387385,RSVPLG01,0.94,2023-09-12-22:27:18,9004,1,Experiment,2023-09-12_15h49.37.245
3,local,local,7,10,3,123,2,,,129,exp,HZULNEYFTHETNUY,EUYSYNEFTZXHZFN,4,S,X,sS,yY,s,1,0.8866039,y,1,0.3989664,RSVPLG01,0.94,2023-09-12-22:27:18,9004,1,Experiment,2023-09-12_15h49.37.245
5,local,global,3,10,4,124,4,,,130,exp,UYEEFZYNXFSUHTN,STTUULYHFFESENH,6,L,X,lL,yY,l,1,2.2447453,y,1,0.2801295,RSVPLG01,0.94,2023-09-12-22:27:18,9004,1,Experiment,2023-09-12_15h49.37.245
6,local,global,7,10,5,125,5,,,131,exp,YEZLFUETUTZXNSY,YTZTHESYNESLZLU,5,H,X,hH,yY,h,1,1.9062254,y,1,0.7640344,RSVPLG01,0.94,2023-09-12-22:27:18,9004,1,Experiment,2023-09-12_15h49.37.245
10,global,global,0,10,6,126,9,,,132,exp,NLNSZYSFTLFHHEY,EHTSULELHSFTNNF,5,Z,absent,zZ,nN,l,0,1.0938738,n,1,0.6047896,RSVPLG01,0.94,2023-09-12-22:27:18,9004,1,Experiment,2023-09-12_15h49.37.245
5,local,global,3,10,7,127,4,,,133,exp,LESYSZXNNTUEFZF,TLSHNUZETUNZSFL,4,H,X,hH,yY,h,1,1.261096,y,1,0.0416246,RSVPLG01,0.94,2023-09-12-22:27:18,9004,1,Experiment,2023-09-12_15h49.37.245
8,global,local,3,10,8,128,7,,,134,exp,YENETZNYFSSHFHU,SFZULNEXYHNYEHF,5,T,X,tT,yY,t,1,11.7665685,n,0,0.5375958,RSVPLG01,0.94,2023-09-12-22:27:18,9004,1,Experiment,2023-09-12_15h49.37.245
4,local,global,0,10,9,129,3,,,135,exp,EFULNSEYHYNHSZF,UHSTZZENNYFUEHS,4,T,absent,tT,nN,t,1,1.0032764,n,1,0.5525028,RSVPLG01,0.94,2023-09-12-22:27:18,9004,1,Experiment,2023-09-12_15h49.37.245
1,local,local,0,10,10,130,0,,,136,exp,ZNLYFHLEYTHNUEU,THYHSUNELZUZTYL,5,S,absent,sS,nN,s,1,1.5995022,y,0,0.4616602,RSVPLG01,0.94,2023-09-12-22:27:18,9004,1,Experiment,2023-09-12_15h49.37.245
9,global,local,7,10,11,131,8,,,137,exp,HYHUYFESTUSLETN,TYLEUZUSYSHNXLN,6,F,X,fF,yY,u,0,1.0230418,n,0,0.5860781,RSVPLG01,0.94,2023-09-12-22:27:18,9004,1,Experiment,2023-09-12_15h49.37.245
11,global,global,3,11,0,132,10,,,138,exp,HYNELFXZUZLSSFN,UFFTLZYYNHSNSHZ,4,E,X,eE,yY,y,0,2.0936041,n,0,0.4878002,RSVPLG01,0.94,2023-09-12-22:27:18,9004,1,Experiment,2023-09-12_15h49.37.245
10,global,global,0,11,1,133,9,,,139,exp,LYNLZYNFEHETTHU,TLFESNHUEHYYNTL,5,Z,absent,zZ,nN,y,0,1.3783222,n,1,0.4444815,RSVPLG01,0.94,2023-09-12-22:27:18,9004,1,Experiment,2023-09-12_15h49.37.245
3,local,local,7,11,2,134,2,,,140,exp,LEZYHENTFLSTHSN,ZSTUTFNLEHXHNLZ,4,U,X,uU,yY,u,1,1.1950911,y,1,0.2817123,RSVPLG01,0.94,2023-09-12-22:27:18,9004,1,Experiment,2023-09-12_15h49.37.245
12,global,global,7,11,3,135,11,,,141,exp,LTSNELYSNUUXZHY,HSUTFYZNZLTNUYH,5,E,X,eE,yY,f,0,1.3739081,n,0,0.3921276,RSVPLG01,0.94,2023-09-12-22:27:18,9004,1,Experiment,2023-09-12_15h49.37.245
6,local,global,7,11,4,136,5,,,142,exp,ZZUTLFSLHYESXEY,YTYHUNSUELZTSEH,6,N,X,nN,yY,n,1,2.0636329,y,1,0.2336206,RSVPLG01,0.94,2023-09-12-22:27:18,9004,1,Experiment,2023-09-12_15h49.37.245
7,global,local,0,11,5,137,6,,,143,exp,SFFZEYZUSHYUNTT,HSHYLFUNSZYUTFN,5,E,absent,eE,nN,l,0,1.0589254,n,1,0.335013,RSVPLG01,0.94,2023-09-12-22:27:18,9004,1,Experiment,2023-09-12_15h49.37.245
9,global,local,7,11,6,138,8,,,144,exp,TESTFLUSZHYLEHU,YHUENLZSHUTXLYS,5,F,X,fF,yY,n,0,0.9960442,y,1,0.1209893,RSVPLG01,0.94,2023-09-12-22:27:18,9004,1,Experiment,2023-09-12_15h49.37.245
6,local,global,7,11,7,139,5,,,145,exp,TTZHUNZYSSLLXFU,ULYYTEZHFUZLFTH,6,E,X,eE,yY,e,1,1.3701297,y,1,0.3005115,RSVPLG01,0.94,2023-09-12-22:27:18,9004,1,Experiment,2023-09-12_15h49.37.245
2,local,local,3,11,8,140,1,,,146,exp,FNHZYTESLHLTSNF,FYNUFHXLSLTTHNY,4,U,X,uU,yY,u,1,0.8047574,y,1,0.2491161,RSVPLG01,0.94,2023-09-12-22:27:18,9004,1,Experiment,2023-09-12_15h49.37.245
2,local,local,3,11,9,141,1,,,147,exp,YHYEEZNTLSNLTHS,HLNNSUYLXFHYSEF,6,U,X,uU,yY,u,1,0.9353084,y,1,0.1703433,RSVPLG01,0.94,2023-09-12-22:27:18,9004,1,Experiment,2023-09-12_15h49.37.245
10,global,global,0,11,10,142,9,,,148,exp,LZYHYTNUTNSSUEE,SLEFZYTLEUZSUTY,4,H,absent,hH,nN,h,1,1.5516534,y,0,0.255224,RSVPLG01,0.94,2023-09-12-22:27:18,9004,1,Experiment,2023-09-12_15h49.37.245
11,global,global,3,11,11,143,10,,,149,exp,STFYLZFEXLYETUN,YLUFNHESYTFUSLT,6,Z,X,zZ,yY,y,0,4.351217,y,1,0.589191,RSVPLG01,0.94,2023-09-12-22:27:18,9004,1,Experiment,2023-09-12_15h49.37.245
1,local,local,0,12,0,144,0,,,150,exp,TYLFHNLUSYTHZFS,ZLYUSELYFTHZFTU,6,E,absent,eE,nN,e,1,1.5920657,n,1,0.3790973,RSVPLG01,0.94,2023-09-12-22:27:18,9004,1,Experiment,2023-09-12_15h49.37.245
9,global,local,7,12,1,145,8,,,151,exp,YNZESFUNEUTFTZL,EZLFHYNUFYZXLNU,5,S,X,sS,yY,h,0,1.4319429,y,1,0.3935468,RSVPLG01,0.94,2023-09-12-22:27:18,9004,1,Experiment,2023-09-12_15h49.37.245
7,global,local,0,12,2,146,6,,,152,exp,ZHYLUUEHNEFSZSF,NSSTFZFEUYZHYHN,4,L,absent,lL,nN,t,0,1.1710563,n,1,0.2493331,RSVPLG01,0.94,2023-09-12-22:27:18,9004,1,Experiment,2023-09-12_15h49.37.245
2,local,local,3,12,3,147,1,,,153,exp,UFUEYHLTZLHTNNZ,FULSTHXNTHYNLUY,4,S,X,sS,yY,s,1,0.6656851,y,1,0.1372957,RSVPLG01,0.94,2023-09-12-22:27:18,9004,1,Experiment,2023-09-12_15h49.37.245
11,global,global,3,12,4,148,10,,,154,exp,HFFELZESXNSLTNU,ENTFSYUUFSHNTLL,6,Z,X,zZ,yY,e,0,2.2847833,n,0,0.9549029,RSVPLG01,0.94,2023-09-12-22:27:18,9004,1,Experiment,2023-09-12_15h49.37.245
3,local,local,7,12,5,149,2,,,155,exp,FHZZLETUYTYNLHF,LFYYNSZTNHFHXTU,6,S,X,sS,yY,s,1,0.8962635,y,1,0.093677,RSVPLG01,0.94,2023-09-12-22:27:18,9004,1,Experiment,2023-09-12_15h49.37.245
12,global,global,7,12,6,150,11,,,156,exp,LTLHUTZSFYFXEEY,HYZYNEESTTLZFSF,5,U,X,uU,yY,h,0,1.5150229,n,0,0.0898787,RSVPLG01,0.94,2023-09-12-22:27:18,9004,1,Experiment,2023-09-12_15h49.37.245
5,local,global,3,12,7,151,4,,,157,exp,UEUHZTLYXHSYSFF,LZSUYNLFYUFHEZE,6,N,X,nN,yY,n,1,1.0069522,n,0,0.0569469,RSVPLG01,0.94,2023-09-12-22:27:18,9004,1,Experiment,2023-09-12_15h49.37.245
6,local,global,7,12,8,152,5,,,158,exp,TNHFSNLTSEXHUYE,HLNZSETYYSHLNTE,4,Z,X,zZ,yY,z,1,1.8556577,y,1,0.3438573,RSVPLG01,0.94,2023-09-12-22:27:18,9004,1,Experiment,2023-09-12_15h49.37.245
12,global,global,7,12,9,153,11,,,159,exp,UETTHLYNNEYXSUF,UTFSZLYEYENFNLT,5,H,X,hH,yY,t,0,3.3381184,n,0,0.3298536,RSVPLG01,0.94,2023-09-12-22:27:18,9004,1,Experiment,2023-09-12_15h49.37.245
10,global,global,0,12,10,154,9,,,160,exp,EEYLFHUNFLZUYNZ,ZFNUETSSYFEUYLL,6,H,absent,hH,nN,h,1,1.1888923,n,1,0.2059541,RSVPLG01,0.94,2023-09-12-22:27:18,9004,1,Experiment,2023-09-12_15h49.37.245
4,local,global,0,12,11,155,3,,,161,exp,UTFSFLYYNEZUNSZ,NFNEYHYUSSZTZFU,6,H,absent,hH,nN,h,1,1.0319368,y,0,0.2966393,RSVPLG01,0.94,2023-09-12-22:27:18,9004,1,Experiment,2023-09-12_15h49.37.245
10,global,global,0,13,0,156,9,,,162,exp,EELUTNFZZLNYYUH,FZHUSYLUZNENYHL,5,T,absent,tT,nN,s,0,1.2605869,n,1,0.2406098,RSVPLG01,0.94,2023-09-12-22:27:18,9004,1,Experiment,2023-09-12_15h49.37.245
11,global,global,3,13,1,157,10,,,163,exp,NEFNYHEXSLLFHUS,LUNHTHELSFFUESZ,5,Y,X,yY,yY,t,0,2.2918091,y,1,0.0950215,RSVPLG01,0.94,2023-09-12-22:27:18,9004,1,Experiment,2023-09-12_15h49.37.245
6,local,global,7,13,2,158,5,,,164,exp,FYLSZNHLYFUHXSZ,UUYEFTEZLFLSSHH,6,T,X,tT,yY,t,1,1.0518256,n,0,0.8939655,RSVPLG01,0.94,2023-09-12-22:27:18,9004,1,Experiment,2023-09-12_15h49.37.245
4,local,global,0,13,3,159,3,,,165,exp,ZHFYHUFLTNTNLEU,FLESZUNHZENTLHU,4,S,absent,sS,nN,s,1,1.1203119,n,1,0.2707831,RSVPLG01,0.94,2023-09-12-22:27:18,9004,1,Experiment,2023-09-12_15h49.37.245
12,global,global,7,13,4,160,11,,,166,exp,TENFYSTNLUXYSZZ,ZNYHYSUZTLENLES,4,F,X,fF,yY,f,1,1.0922453,n,0,0.2333345,RSVPLG01,0.94,2023-09-12-22:27:18,9004,1,Experiment,2023-09-12_15h49.37.245
2,local,local,3,13,5,161,1,,,167,exp,NHYTZHULENYFUFL,HNNSYEXZFUEHUZL,4,S,X,sS,yY,s,1,0.5512626,y,1,2.9686738,RSVPLG01,0.94,2023-09-12-22:27:18,9004,1,Experiment,2023-09-12_15h49.37.245
5,local,global,3,13,6,162,4,,,168,exp,YYHEUZFXENZFSHN,SNNHLHZTTYFZSEY,5,L,X,lL,yY,l,1,1.7005719,n,0,0.2030529,RSVPLG01,0.94,2023-09-12-22:27:18,9004,1,Experiment,2023-09-12_15h49.37.245
10,global,global,0,13,7,163,9,,,169,exp,HFULYESTHFNSNTE,FEHSZULHFNNSTLE,5,Y,absent,yY,nN,y,1,1.1943019,n,1,0.4623977,RSVPLG01,0.94,2023-09-12-22:27:18,9004,1,Experiment,2023-09-12_15h49.37.245
2,local,local,3,13,8,164,1,,,170,exp,UESTYHNNUFSZETZ,HTZNLFNXFZTUEHU,5,L,X,lL,yY,l,1,1.1718865,y,1,0.2168151,RSVPLG01,0.94,2023-09-12-22:27:18,9004,1,Experiment,2023-09-12_15h49.37.245
11,global,global,3,13,9,165,10,,,171,exp,SYUZNTLXSEFZYFE,ESTTHZYZFLFLUSY,5,N,X,nN,yY,h,0,1.2932242,n,0,0.1117028,RSVPLG01,0.94,2023-09-12-22:27:18,9004,1,Experiment,2023-09-12_15h49.37.245
1,local,local,0,13,10,166,0,,,172,exp,HZSHLUEFTENTNFL,LZFNLYENEHTZHFS,6,Y,absent,yY,nN,y,1,0.9580852,n,1,0.3953137,RSVPLG01,0.94,2023-09-12-22:27:18,9004,1,Experiment,2023-09-12_15h49.37.245
7,global,local,0,13,11,167,6,,,173,exp,HTTZNEHUSSYYULL,LSHFUUENSHNYLYE,4,Z,absent,zZ,nN,t,0,1.4336027,n,1,0.2992884,RSVPLG01,0.94,2023-09-12-22:27:18,9004,1,Experiment,2023-09-12_15h49.37.245
8,global,local,3,14,0,168,7,,,174,exp,UULZHSYNELTYNTE,SHNFUTXLYHUETEN,4,Z,X,zZ,yY,z,1,1.232655,n,0,0.3631135,RSVPLG01,0.94,2023-09-12-22:27:18,9004,1,Experiment,2023-09-12_15h49.37.245
8,global,local,3,14,1,169,7,,,175,exp,UFUYNZEFNEHSYHS,ETEHYLSFXSTNUNF,6,Z,X,zZ,yY,l,0,1.4589872,n,0,0.2350284,RSVPLG01,0.94,2023-09-12-22:27:18,9004,1,Experiment,2023-09-12_15h49.37.245
3,local,local,7,14,2,170,2,,,176,exp,YFZTUSTZLHSNYLN,NHHSEZYTSYFXLTL,5,E,X,eE,yY,s,0,1.1708399,y,1,0.891076,RSVPLG01,0.94,2023-09-12-22:27:18,9004,1,Experiment,2023-09-12_15h49.37.245
8,global,local,3,14,3,171,7,,,177,exp,USNZSLUEYLEFTFY,NESHTSXLLYYUNEU,4,Z,X,zZ,yY,y,0,1.7851481,n,0,1.2734896,RSVPLG01,0.94,2023-09-12-22:27:18,9004,1,Experiment,2023-09-12_15h49.37.245
8,global,local,3,14,4,172,7,,,178,exp,SUTLFYYZSEUNNTZ,SZSHYUXTFEFZUYN,4,L,X,lL,yY,l,1,1.4855961,y,1,0.474487,RSVPLG01,0.94,2023-09-12-22:27:18,9004,1,Experiment,2023-09-12_15h49.37.245
3,local,local,7,14,5,173,2,,,179,exp,ZNHEZTHUFYNYLLU,YLEFHSFZEUHLXYZ,6,S,X,sS,yY,s,1,1.1919657,n,0,0.3484589,RSVPLG01,0.94,2023-09-12-22:27:18,9004,1,Experiment,2023-09-12_15h49.37.245
2,local,local,3,14,6,174,1,,,180,exp,TEUHFZTFZLUSYSL,YLLNFSXFUETUSYT,4,N,X,nN,yY,f,0,2.090125,y,1,0.2972965,RSVPLG01,0.94,2023-09-12-22:27:18,9004,1,Experiment,2023-09-12_15h49.37.245
1,local,local,0,14,7,175,0,,,181,exp,UHLFELZFSSNUNZY,YYHLTFSFUZHULZN,5,T,absent,tT,nN,t,1,1.3022126,n,1,0.3441037,RSVPLG01,0.94,2023-09-12-22:27:18,9004,1,Experiment,2023-09-12_15h49.37.245
7,global,local,0,14,8,176,6,,,182,exp,SFUZYTLTNSZHLNF,TSSNELNFUTUFZLH,5,Y,absent,yY,nN,y,1,1.298876,n,1,0.4899527,RSVPLG01,0.94,2023-09-12-22:27:18,9004,1,Experiment,2023-09-12_15h49.37.245
9,global,local,7,14,9,177,8,,,183,exp,TZSLUTFFHZHYNYS,THFEHSZZYFXNUYT,4,L,X,lL,yY,l,1,1.13711,y,1,0.2967459,RSVPLG01,0.94,2023-09-12-22:27:18,9004,1,Experiment,2023-09-12_15h49.37.245
10,global,global,0,14,10,178,9,,,184,exp,EYHLNUTYEFUTSSH,FUYYZSESFLUTHTH,5,N,absent,nN,nN,n,1,1.0790997,n,1,0.4940403,RSVPLG01,0.94,2023-09-12-22:27:18,9004,1,Experiment,2023-09-12_15h49.37.245
11,global,global,3,14,11,179,10,,,185,exp,TFTSUZUEXHYEHLF,HYELFNEYUFTULTS,6,Z,X,zZ,yY,n,0,1.0826205,n,0,0.5035335,RSVPLG01,0.94,2023-09-12-22:27:18,9004,1,Experiment,2023-09-12_15h49.37.245
1,local,local,0,15,0,180,0,,,186,exp,HSZUEYFLEYLFNSH,HEHTELFNSNZFLSZ,4,T,absent,tT,nN,t,1,1.1719582,n,1,0.3309221,RSVPLG01,0.94,2023-09-12-22:27:18,9004,1,Experiment,2023-09-12_15h49.37.245
6,local,global,7,15,1,181,5,,,187,exp,ZYNSHZLETESXFTY,FSYEUNLELZTFYTS,5,U,X,uU,yY,u,1,1.281934,y,1,0.1680727,RSVPLG01,0.94,2023-09-12-22:27:18,9004,1,Experiment,2023-09-12_15h49.37.245
2,local,local,3,15,2,182,1,,,188,exp,LYSETFUYFHHULSN,HYUZFUXLTYLFNSS,4,Z,X,zZ,yY,z,1,1.3184789,y,1,0.3307518,RSVPLG01,0.94,2023-09-12-22:27:18,9004,1,Experiment,2023-09-12_15h49.37.245
1,local,local,0,15,3,183,0,,,189,exp,LYTZSUUFSTNEYLE,LNYHSTUUNLESFFE,4,H,absent,hH,nN,u,0,1.3943518,n,1,0.1387359,RSVPLG01,0.94,2023-09-12-22:27:18,9004,1,Experiment,2023-09-12_15h49.37.245
4,local,global,0,15,4,184,3,,,190,exp,SLHUTFZLUYYNZST,TSNZSEYLZTLHUNU,6,E,absent,eE,nN,e,1,1.3407182,n,1,0.3503121,RSVPLG01,0.94,2023-09-12-22:27:18,9004,1,Experiment,2023-09-12_15h49.37.245
7,global,local,0,15,5,185,6,,,191,exp,LHUFNHTYYETFLSE,UTHLZYUYHSLTEFE,5,N,absent,nN,nN,n,1,1.4463114,n,1,0.314689,RSVPLG01,0.94,2023-09-12-22:27:18,9004,1,Experiment,2023-09-12_15h49.37.245
10,global,global,0,15,6,186,9,,,192,exp,ESLULZHSEFTNNZF,LHSYTTFZFELNZSH,4,U,absent,uU,nN,l,0,0.9506438,n,1,0.2031974,RSVPLG01,0.94,2023-09-12-22:27:18,9004,1,Experiment,2023-09-12_15h49.37.245
3,local,local,7,15,7,187,2,,,193,exp,FHYTZETSNFUYSNU,STHZNLHTUNFZXFS,6,L,X,lL,yY,l,1,0.9897243,y,1,0.2014346,RSVPLG01,0.94,2023-09-12-22:27:18,9004,1,Experiment,2023-09-12_15h49.37.245
10,global,global,0,15,8,188,9,,,194,exp,HELFUEZHUZLYNYN,HENSTYTYZLZEUUH,4,F,absent,fF,nN,f,1,1.2712997,n,1,0.3931915,RSVPLG01,0.94,2023-09-12-22:27:18,9004,1,Experiment,2023-09-12_15h49.37.245
6,local,global,7,15,9,189,5,,,195,exp,YFESTLLZTUXZUHF,HLTNHFZEZYETFLU,4,N,X,nN,yY,n,1,1.1171288,y,1,0.2708466,RSVPLG01,0.94,2023-09-12-22:27:18,9004,1,Experiment,2023-09-12_15h49.37.245
11,global,global,3,15,10,190,10,,,196,exp,UFSNZFEXLNUTSEL,LTFYHSLNFEUNEUT,5,Z,X,zZ,yY,z,1,1.2296328,n,0,0.3295605,RSVPLG01,0.94,2023-09-12-22:27:18,9004,1,Experiment,2023-09-12_15h49.37.245
2,local,local,3,15,11,191,1,,,197,exp,HSFTELNFHELZSZN,FEHUFLXNZHSYEZY,4,U,X,uU,yY,u,1,0.9850947,y,1,0.3613876,RSVPLG01,0.94,2023-09-12-22:27:18,9004,1,Experiment,2023-09-12_15h49.37.245
12,global,global,7,16,0,192,11,,,198,exp,FNFLNYTLEHSHXEZ,TSSFNUENEFLHTHZ,6,Y,X,yY,yY,y,1,1.1524496,n,0,0.458553,RSVPLG01,0.94,2023-09-12-22:27:18,9004,1,Experiment,2023-09-12_15h49.37.245
8,global,local,3,16,1,193,7,,,199,exp,ETLNFSHUHTYLUFS,FTLZFEXHYLHSSYT,4,N,X,nN,yY,n,1,0.7270758,y,1,0.2504041,RSVPLG01,0.94,2023-09-12-22:27:18,9004,1,Experiment,2023-09-12_15h49.37.245
6,local,global,7,16,2,194,5,,,200,exp,UNLLUYFNTTEFXES,ZUFTLHTNLFUSSZE,6,H,X,hH,yY,h,1,1.3423496,y,1,0.3512975,RSVPLG01,0.94,2023-09-12-22:27:18,9004,1,Experiment,2023-09-12_15h49.37.245
11,global,global,3,16,3,195,10,,,201,exp,TFYUSHNXTHENYFL,HETHZYFUUNLLYET,5,S,X,sS,yY,z,0,1.5627781,n,0,0.1682575,RSVPLG01,0.94,2023-09-12-22:27:18,9004,1,Experiment,2023-09-12_15h49.37.245
5,local,global,3,16,4,196,4,,,202,exp,FYENTFXEYHHLLUZ,LHYSETTUZLHYFZF,4,S,X,sS,yY,s,1,1.1907596,y,1,1.0826279,RSVPLG01,0.94,2023-09-12-22:27:18,9004,1,Experiment,2023-09-12_15h49.37.245
11,global,global,3,16,5,197,10,,,203,exp,UNTELUXTLHYNYSS,LNFZSHTSYTUYHLF,4,E,X,eE,yY,f,0,1.5310865,n,0,1.113564,RSVPLG01,0.94,2023-09-12-22:27:18,9004,1,Experiment,2023-09-12_15h49.37.245
4,local,global,0,16,6,198,3,,,204,exp,TFSLZFNHZTSYHYN,YYFEUNTSSUHZNZH,4,E,absent,eE,nN,e,1,1.3076426,n,1,0.2549522,RSVPLG01,0.94,2023-09-12-22:27:18,9004,1,Experiment,2023-09-12_15h49.37.245
11,global,global,3,16,7,199,10,,,205,exp,NFZUYHYTXSZNSFL,LUYZYEZSNUNTFFS,6,H,X,hH,yY,h,1,1.1392626,n,0,0.2377832,RSVPLG01,0.94,2023-09-12-22:27:18,9004,1,Experiment,2023-09-12_15h49.37.245
12,global,global,7,16,8,200,11,,,206,exp,TUHZENSHEUXYSNL,NTUFLSLSTHHEUYE,4,Z,X,zZ,yY,f,0,1.2846568,y,1,0.1702473,RSVPLG01,0.94,2023-09-12-22:27:18,9004,1,Experiment,2023-09-12_15h49.37.245
5,local,global,3,16,9,201,4,,,207,exp,LNSHZTUYXZYNSFF,NUYUHENLSFHSZZL,6,E,X,eE,yY,e,1,1.459801,n,0,0.1863318,RSVPLG01,0.94,2023-09-12-22:27:18,9004,1,Experiment,2023-09-12_15h49.37.245
1,local,local,0,16,10,202,0,,,208,exp,UYNHSEYNTZLZULT,TNYFUZENLYUSTSL,4,F,absent,fF,nN,f,1,0.8187538,y,0,0.2342813,RSVPLG01,0.94,2023-09-12-22:27:18,9004,1,Experiment,2023-09-12_15h49.37.245
9,global,local,7,16,11,203,8,,,209,exp,SFHEYLYHUZESNZU,FYZENTZUHFSUXSY,6,L,X,lL,yY,t,0,1.3506246,y,1,0.0101991,RSVPLG01,0.94,2023-09-12-22:27:18,9004,1,Experiment,2023-09-12_15h49.37.245
5,local,global,3,17,0,204,4,,,210,exp,YHFTSNXNFYSLEZE,LSEUFELHZYYNSFZ,4,U,X,uU,yY,u,1,1.030997,n,0,0.1750975,RSVPLG01,0.94,2023-09-12-22:27:18,9004,1,Experiment,2023-09-12_15h49.37.245
5,local,global,3,17,1,205,4,,,211,exp,FYENSEFXUZUHYLL,ELHZTYNUUFFENYL,5,T,X,tT,yY,u,0,1.2716998,n,0,0.1687969,RSVPLG01,0.94,2023-09-12-22:27:18,9004,1,Experiment,2023-09-12_15h49.37.245
9,global,local,7,17,2,206,8,,,212,exp,TZZUFYHTLUHSSNN,FFZLZESHHLUNXTT,6,Y,X,yY,yY,y,1,1.173753,n,0,0.1856794,RSVPLG01,0.94,2023-09-12-22:27:18,9004,1,Experiment,2023-09-12_15h49.37.245
4,local,global,0,17,3,207,3,,,213,exp,HHLTESZUNUNSTFZ,LNZUYTHFNSLHTUZ,5,Y,absent,yY,nN,y,1,0.8771763,n,1,0.505423,RSVPLG01,0.94,2023-09-12-22:27:18,9004,1,Experiment,2023-09-12_15h49.37.245
9,global,local,7,17,4,208,8,,,214,exp,NHHYSZSETTFLFEZ,STZUFLFTHEXHNSN,4,Y,X,yY,yY,y,1,1.0936677,y,1,0.777462,RSVPLG01,0.94,2023-09-12-22:27:18,9004,1,Experiment,2023-09-12_15h49.37.245
2,local,local,3,17,5,209,1,,,215,exp,SNLNUHUSZYYZTLT,STFLFESUXNUZLNY,6,E,X,eE,yY,e,1,1.2251957,y,1,0.1838189,RSVPLG01,0.94,2023-09-12-22:27:18,9004,1,Experiment,2023-09-12_15h49.37.245
2,local,local,3,17,6,210,1,,,216,exp,ZLFFTLUNSEHUENS,NFUZYLSXULHHFSZ,5,Y,X,yY,yY,y,1,1.079025,y,1,0.3135395,RSVPLG01,0.94,2023-09-12-22:27:18,9004,1,Experiment,2023-09-12_15h49.37.245
1,local,local,0,17,7,211,0,,,217,exp,TFHZLNZYSYELFTS,FTZTHUELHYYSFLZ,6,U,absent,uU,nN,u,1,1.4594509,y,0,0.2650914,RSVPLG01,0.94,2023-09-12-22:27:18,9004,1,Experiment,2023-09-12_15h49.37.245
3,local,local,7,17,8,212,2,,,218,exp,ZLNFZLESEHUYUNH,NUZTLHZENYXUHYL,4,T,X,tT,yY,t,1,1.2885879,y,1,0.3013888,RSVPLG01,0.94,2023-09-12-22:27:18,9004,1,Experiment,2023-09-12_15h49.37.245
1,local,local,0,17,9,213,0,,,219,exp,ZLHYFEEZHULTTNN,LZENSTUYUTYENZL,5,S,absent,sS,nN,s,1,3.4873858,y,0,0.1377493,RSVPLG01,0.94,2023-09-12-22:27:18,9004,1,Experiment,2023-09-12_15h49.37.245
12,global,global,7,17,10,214,11,,,220,exp,ZNZHULLSESHXFFY,FZNSTYNYHFSLZEE,5,U,X,uU,yY,u,1,0.9468941,n,0,0.3620733,RSVPLG01,0.94,2023-09-12-22:27:18,9004,1,Experiment,2023-09-12_15h49.37.245
1,local,local,0,17,11,215,0,,,221,exp,STNYETULYSNLZHU,LTZHFYYNHTZNSSU,5,F,absent,fF,nN,f,1,1.1983868,n,1,0.1366481,RSVPLG01,0.94,2023-09-12-22:27:18,9004,1,Experiment,2023-09-12_15h49.37.245
2,local,local,3,18,0,216,1,,,222,exp,HESTYNUNUELFTLF,TUNUZNTXSLHLHEF,5,Z,X,zZ,yY,z,1,0.8865018,y,1,0.2494758,RSVPLG01,0.94,2023-09-12-22:27:18,9004,1,Experiment,2023-09-12_15h49.37.245
3,local,local,7,18,1,217,2,,,223,exp,YENHTUZTFEZNFLL,TNEHZSYLEHFLXZT,6,S,X,sS,yY,z,0,1.0119604,y,1,1.3530438,RSVPLG01,0.94,2023-09-12-22:27:18,9004,1,Experiment,2023-09-12_15h49.37.245
6,local,global,7,18,2,218,5,,,224,exp,YUHTYZELUFHLXES,UTHLLNYEFSFTHSY,6,N,X,nN,yY,n,1,1.4359803,n,0,0.8879546,RSVPLG01,0.94,2023-09-12-22:27:18,9004,1,Experiment,2023-09-12_15h49.37.245
2,local,local,3,18,3,219,1,,,225,exp,EULTYSHUEFLHFTY,FYHUFNYEXUHTTZL,6,N,X,nN,yY,n,1,0.8145062,y,1,1.0072436,RSVPLG01,0.94,2023-09-12-22:27:18,9004,1,Experiment,2023-09-12_15h49.37.245
1,local,local,0,18,4,220,0,,,226,exp,HTLSNZUFUNEZHFT,ENFYFLTZLHHNUTZ,4,Y,absent,yY,nN,y,1,0.8747355,n,1,0.1844472,RSVPLG01,0.94,2023-09-12-22:27:18,9004,1,Experiment,2023-09-12_15h49.37.245
8,global,local,3,18,5,221,7,,,227,exp,UHLFLHEZYNUZNES,LEZTZHXLEUNNSSH,4,F,X,fF,yY,t,0,0.832242,y,1,0.4095248,RSVPLG01,0.94,2023-09-12-22:27:18,9004,1,Experiment,2023-09-12_15h49.37.245
6,local,global,7,18,6,222,5,,,228,exp,STNFSEYLLZXYZTE,LLEHUUYZSTNTESZ,4,H,X,hH,yY,u,0,0.9732309,y,1,0.5739098,RSVPLG01,0.94,2023-09-12-22:27:18,9004,1,Experiment,2023-09-12_15h49.37.245
11,global,global,3,18,7,223,10,,,229,exp,LFTSLUTNXSNFEZH,HTLNNYTHFFEZSSL,6,U,X,uU,yY,u,1,0.9918781,n,0,0.1049121,RSVPLG01,0.94,2023-09-12-22:27:18,9004,1,Experiment,2023-09-12_15h49.37.245
10,global,global,0,18,8,224,9,,,230,exp,THYNFUHLLUEYNST,NTELZSSYHULEHTN,5,F,absent,fF,nN,f,1,1.1141615,n,1,0.143183,RSVPLG01,0.94,2023-09-12-22:27:18,9004,1,Experiment,2023-09-12_15h49.37.245
3,local,local,7,18,9,225,2,,,231,exp,LEYYZHFTZLTFNUU,NYTUFSTYUZLZXNE,6,S,X,sS,yY,s,1,1.0070299,y,1,0.6657819,RSVPLG01,0.94,2023-09-12-22:27:18,9004,1,Experiment,2023-09-12_15h49.37.245
10,global,global,0,18,10,226,9,,,232,exp,TYZULEHNTZHNFFL,ZNZSTFFNTYEEHHL,4,U,absent,uU,nN,s,0,1.1185987,y,0,0.105927,RSVPLG01,0.94,2023-09-12-22:27:18,9004,1,Experiment,2023-09-12_15h49.37.245
9,global,local,7,18,11,227,8,,,233,exp,THUNYNZTFZHLFEE,FLLTSZTNEUZXHHU,5,Y,X,yY,yY,s,0,1.1320987,y,1,0.18527,RSVPLG01,0.94,2023-09-12-22:27:18,9004,1,Experiment,2023-09-12_15h49.37.245
1,local,local,0,19,0,228,0,,,234,exp,NLSTFZYSUNEEYZU,SUEHSFZUEFYNNZY,4,H,absent,hH,nN,h,1,1.462862,y,0,0.7116772,RSVPLG01,0.94,2023-09-12-22:27:18,9004,1,Experiment,2023-09-12_15h49.37.245
3,local,local,7,19,1,229,2,,,235,exp,HNFYFSLYTEHZTZE,ZEYLFULNFHETXTZ,6,U,X,uU,yY,y,0,1.0404407,y,1,0.2499372,RSVPLG01,0.94,2023-09-12-22:27:18,9004,1,Experiment,2023-09-12_15h49.37.245
11,global,global,3,19,2,230,10,,,236,exp,TENFLUXSHYHNYES,NSTZULHYEYTUHSL,4,F,X,fF,yY,f,1,1.1106939,y,1,0.5372588,RSVPLG01,0.94,2023-09-12-22:27:18,9004,1,Experiment,2023-09-12_15h49.37.245
6,local,global,7,19,3,231,5,,,237,exp,ZTESTHEUNYXHNZF,ENFLEHTYUHTYUZZ,4,L,X,lL,yY,l,1,1.351477,y,1,0.2544939,RSVPLG01,0.94,2023-09-12-22:27:18,9004,1,Experiment,2023-09-12_15h49.37.245
11,global,global,3,19,4,232,10,,,238,exp,LEYYSHUUXFLSTEZ,FFULTNESZYSYULE,6,H,X,hH,yY,n,0,0.989163,y,1,0.4092877,RSVPLG01,0.94,2023-09-12-22:27:18,9004,1,Experiment,2023-09-12_15h49.37.245
5,local,global,3,19,5,233,4,,,239,exp,SELUNSXHTNEFTFZ,HZSYZFLLSNTEEFT,4,Y,X,yY,yY,y,1,1.0927691,y,1,0.1742727,RSVPLG01,0.94,2023-09-12-22:27:18,9004,1,Experiment,2023-09-12_15h49.37.245
8,global,local,3,19,6,234,7,,,240,exp,FNTYULTYHSSLFZN,YTYZEHLXHNSTFLZ,5,U,X,uU,yY,u,1,1.7704583,y,1,0.2654825,RSVPLG01,0.94,2023-09-12-22:27:18,9004,1,Experiment,2023-09-12_15h49.37.245
12,global,global,7,19,7,235,11,,,241,exp,UENYFTSTZEXHNHU,HSULNNEFSTHTZEU,4,Y,X,yY,yY,y,1,1.0675529,n,0,0.473358,RSVPLG01,0.94,2023-09-12-22:27:18,9004,1,Experiment,2023-09-12_15h49.37.245
12,global,global,7,19,8,236,11,,,242,exp,NHFLYHEUSSXFUEZ,SSYTENZNUYFZFUH,4,L,X,lL,yY,l,1,1.2107314,y,1,0.3025729,RSVPLG01,0.94,2023-09-12-22:27:18,9004,1,Experiment,2023-09-12_15h49.37.245
9,global,local,7,19,9,237,8,,,243,exp,EULZEYFUSHFLSHY,HFENLHFYLYXUTSU,4,Z,X,zZ,yY,y,0,1.1045107,y,1,2.8402605,RSVPLG01,0.94,2023-09-12-22:27:18,9004,1,Experiment,2023-09-12_15h49.37.245
4,local,global,0,19,10,238,3,,,244,exp,YSSFZUHTFTULHEL,LFESNYFHTTHSUEL,5,N,absent,nN,nN,n,1,1.4783397,n,1,0.041787,RSVPLG01,0.94,2023-09-12-22:27:18,9004,1,Experiment,2023-09-12_15h49.37.245
3,local,local,7,19,11,239,2,,,245,exp,NZYTELEHYNSHFLF,HLLUNZNYHFXYSFZ,4,U,X,uU,yY,u,1,0.9429904,y,1,0.2664188,RSVPLG01,0.94,2023-09-12-22:27:18,9004,1,Experiment,2023-09-12_15h49.37.245