row,t1_level,t2_level,t2_lag,.thisRepN,.thisTrialN,.thisN,.thisIndex,thisRow.t,notes,trial,trial_type,global_letters,local_letters,t1_pos,t1,t2,t1_corr,t2_corr,t1_resp,t1_acc,t1_rt,t2_resp,t2_acc,t2_rt,exp,ver,mod-utc,sub,sess,blocktyp,datetime,
10,global,global,0,0,0,0,9,,,1,warmup,HUZZULYFHNSSNYT,HHTUZEFSTSYUZYF,6,L,absent,lL,nN,l,1,0.5144089999998869,n,1,0.45676819999971485,RSVPLG01,0.94,2023-09-12-22:22:52,90014,1,Experiment,2023-09-12_15h49.57.046,
1,local,local,0,0,1,1,0,,,2,warmup,SZYHNUSUYHZFEEF,YHFFTSESEHZLZUY,5,T,absent,tT,nN,t,1,0.5045430000000124,n,1,0.2808501999998043,RSVPLG01,0.94,2023-09-12-22:22:52,90014,1,Experiment,2023-09-12_15h49.57.046,
3,local,local,7,0,2,2,2,,,3,warmup,ENZHFSTFSYNLEZL,ZNLUYLEYFTXNETF,4,U,X,uU,yY,u,1,0.6291108000000349,y,1,0.49718080000002374,RSVPLG01,0.94,2023-09-12-22:22:52,90014,1,Experiment,2023-09-12_15h49.57.046,
6,local,global,7,0,3,3,5,,,4,warmup,FENTZHULTUFXELN,LUETSEYTUFNYHNL,5,S,X,sS,yY,s,1,0.42470239999966,n,0,0.26293500000019776,RSVPLG01,0.94,2023-09-12-22:22:52,90014,1,Experiment,2023-09-12_15h49.57.046,
9,global,local,7,0,4,4,8,,,5,warmup,UHYNFUYZEEZTSSN,ZUSSLYTENYHXNTE,5,F,X,fF,yY,f,1,0.531517200000053,y,1,0.34912979999990057,RSVPLG01,0.94,2023-09-12-22:22:52,90014,1,Experiment,2023-09-12_15h49.57.046,
8,global,local,3,0,0,0,7,,,6,exp,HFSSYETNUYULNTF,SFLNUZSHXYTTYLN,6,E,X,eE,yY,y,0,0.7553021999997327,n,0,0.2729954999999791,RSVPLG01,0.94,2023-09-12-22:22:52,90014,1,Experiment,2023-09-12_15h49.57.046,
1,local,local,0,0,1,1,0,,,7,exp,ZEULTEHHTFFSZSY,FUSNSUYEFEYZTHH,4,N,absent,nN,nN,n,1,0.49284769999985656,n,1,0.2730015000001913,RSVPLG01,0.94,2023-09-12-22:22:52,90014,1,Experiment,2023-09-12_15h49.57.046,
2,local,local,3,0,2,2,1,,,8,exp,ZLHTUYUHNNFTEZE,NUELLSTZXUFNEHT,6,S,X,sS,yY,s,1,0.40021440000009534,n,0,0.2529153000000406,RSVPLG01,0.94,2023-09-12-22:22:52,90014,1,Experiment,2023-09-12_15h49.57.046,
8,global,local,3,0,3,3,7,,,9,exp,UZLEHSTFZYETLFY,FTFLNUTXYLSZZYU,5,H,X,hH,yY,h,1,0.4766432999999779,n,0,0.26829429999997956,RSVPLG01,0.94,2023-09-12-22:22:52,90014,1,Experiment,2023-09-12_15h49.57.046,
4,local,global,0,0,4,4,3,,,10,exp,YSNHESFTZFHZYLL,HLLFUZSHYFNZTNS,5,U,absent,uU,nN,u,1,0.5003182000000379,n,1,0.37050429999999324,RSVPLG01,0.94,2023-09-12-22:22:52,90014,1,Experiment,2023-09-12_15h49.57.046,
10,global,global,0,0,5,5,9,,,11,exp,UYSZNEFHTFHNUST,ESULNSHUFETYFYT,4,Z,absent,zZ,nN,z,1,0.3814471999999114,n,1,0.2711217000000943,RSVPLG01,0.94,2023-09-12-22:22:52,90014,1,Experiment,2023-09-12_15h49.57.046,
2,local,local,3,0,6,6,1,,,12,exp,FZNFULYETNTHYUE,TZTZUSFYXNHYUNE,6,S,X,sS,yY,s,1,0.44934839999996257,y,1,0.3713004999999612,RSVPLG01,0.94,2023-09-12-22:22:52,90014,1,Experiment,2023-09-12_15h49.57.046,
12,global,global,7,0,7,7,11,,,13,exp,TEZZLSUYFYTHXFE,EUFYFNZLHZETLHU,6,S,X,sS,yY,s,1,1.125810300000012,n,0,0.28355839999994714,RSVPLG01,0.94,2023-09-12-22:22:52,90014,1,Experiment,2023-09-12_15h49.57.046,
2,local,local,3,0,8,8,1,,,14,exp,LLUHUETNSNTFESY,YSUZUNXFETLFNSY,4,Z,X,zZ,yY,z,1,0.4452896999996483,y,1,0.3224273999999241,RSVPLG01,0.94,2023-09-12-22:22:52,90014,1,Experiment,2023-09-12_15h49.57.046,
11,global,global,3,0,9,9,10,,,15,exp,HFHEZLNFXZEYUNY,NUNYZSTETFZEHFH,6,L,X,lL,yY,l,1,0.5521692000002076,y,1,0.3952747999996973,RSVPLG01,0.94,2023-09-12-22:22:52,90014,1,Experiment,2023-09-12_15h49.57.046,
10,global,global,0,0,10,10,9,,,16,exp,LHLTFZEUHEYSTUZ,HZUTNLYUTEYESZL,5,F,absent,fF,nN,f,1,0.35903060000009646,n,1,0.26426939999964816,RSVPLG01,0.94,2023-09-12-22:22:52,90014,1,Experiment,2023-09-12_15h49.57.046,
5,local,global,3,0,11,11,4,,,17,exp,ZZNHSTHLXFYNFUY,SHHFYEZUSUNFLNL,6,E,X,eE,yY,e,1,0.3308007999999063,n,0,0.2513437000002341,RSVPLG01,0.94,2023-09-12-22:22:52,90014,1,Experiment,2023-09-12_15h49.57.046,
6,local,global,7,1,0,12,5,,,18,exp,HUYNZFTYFHUXTES,NYFULTTYNUHSSHF,5,L,X,lL,yY,l,1,0.4423080999999911,n,0,0.3964823000001161,RSVPLG01,0.94,2023-09-12-22:22:52,90014,1,Experiment,2023-09-12_15h49.57.046,
12,global,global,7,1,1,13,11,,,19,exp,LFUNEZHZHYXTTFL,FHUSEZETTYUFLZL,4,N,X,nN,yY,n,1,0.4135894000000917,y,1,0.2680061000000933,RSVPLG01,0.94,2023-09-12-22:22:52,90014,1,Experiment,2023-09-12_15h49.57.046,
9,global,local,7,1,2,14,8,,,20,exp,TUUZNYTSNSLFEEF,LTSHNTNLSEXYFFE,4,Z,X,zZ,yY,z,1,0.37842449999970995,n,0,0.675151299999925,RSVPLG01,0.94,2023-09-12-22:22:52,90014,1,Experiment,2023-09-12_15h49.57.046,
8,global,local,3,1,3,15,7,,,21,exp,HHNTNEEZSYFUSYF,YHNLNSXFZEZSYHU,4,T,X,tT,yY,t,1,0.419651199999862,n,0,0.7860927000001539,RSVPLG01,0.94,2023-09-12-22:22:52,90014,1,Experiment,2023-09-12_15h49.57.046,
3,local,local,7,1,4,16,2,,,22,exp,SHUFTHYUZFYNZEN,YZUSLNSHHFNXZYE,5,L,X,lL,yY,l,1,0.8678487000001951,y,1,0.31387030000041705,RSVPLG01,0.94,2023-09-12-22:22:52,90014,1,Experiment,2023-09-12_15h49.57.046,
9,global,local,7,1,5,17,8,,,23,exp,FTLUNZHYHUTYFZL,ZFSHEYULLZUXFYS,5,N,X,nN,yY,n,1,0.5544331999999486,y,1,1.1372765000000982,RSVPLG01,0.94,2023-09-12-22:22:52,90014,1,Experiment,2023-09-12_15h49.57.046,
9,global,local,7,1,6,18,8,,,24,exp,SNNZFEFSUHLYYHE,YUUTHFFENEXHYSL,4,Z,X,zZ,yY,t,0,1.0632605999999214,n,0,0.3294249000000491,RSVPLG01,0.94,2023-09-12-22:22:52,90014,1,Experiment,2023-09-12_15h49.57.046,
4,local,global,0,1,7,19,3,,,25,exp,THUZUSYFHEYTFLL,ZETTLNYEHUZFYHU,6,N,absent,nN,nN,n,1,0.5365432999997211,n,1,0.19465420000005906,RSVPLG01,0.94,2023-09-12-22:22:52,90014,1,Experiment,2023-09-12_15h49.57.046,
8,global,local,3,1,8,20,7,,,26,exp,YSYTUEHLNSNFUTF,YTLNSZTLXYUHNSH,6,E,X,eE,yY,e,1,0.4598996999998235,n,0,0.2045484000000215,RSVPLG01,0.94,2023-09-12-22:22:52,90014,1,Experiment,2023-09-12_15h49.57.046,
1,local,local,0,1,9,21,0,,,27,exp,ZUYTUFNLNHLHYZS,NUZNUESLHYYTZLT,6,E,absent,eE,nN,e,1,0.420555400000012,n,1,0.24098499999990963,RSVPLG01,0.94,2023-09-12-22:22:52,90014,1,Experiment,2023-09-12_15h49.57.046,
12,global,global,7,1,10,22,11,,,28,exp,HLLUFZNENFXSYSY,YZFTHSENLNSLFYZ,4,U,X,uU,yY,u,1,1.5716606000000866,y,1,0.5617115999998532,RSVPLG01,0.94,2023-09-12-22:22:52,90014,1,Experiment,2023-09-12_15h49.57.046,
10,global,global,0,1,11,23,9,,,29,exp,UFTEZHNENLUZTSF,UEZLSYNLTNZTEUS,6,H,absent,hH,nN,n,0,1.144466199999897,n,1,0.6095188999997845,RSVPLG01,0.94,2023-09-12-22:22:52,90014,1,Experiment,2023-09-12_15h49.57.046,
1,local,local,0,2,0,24,0,,,30,exp,EZZSTLYELSFYUUF,FZESHSYFYLLZNUE,5,H,absent,hH,nN,h,1,0.44061909999982163,n,1,0.16367559999980585,RSVPLG01,0.94,2023-09-12-22:22:52,90014,1,Experiment,2023-09-12_15h49.57.046,
7,global,local,0,2,1,25,6,,,31,exp,NLUTSZHHLNFTYYU,FTLZEUHHTFNUYNL,5,S,absent,sS,nN,e,0,0.39626659999976255,y,0,0.4656580999999278,RSVPLG01,0.94,2023-09-12-22:22:52,90014,1,Experiment,2023-09-12_15h49.57.046,
6,local,global,7,2,2,26,5,,,32,exp,YSUEYNNZUTXHFST,UYHLTSFYUFHNZNS,4,L,X,lL,yY,l,1,0.34974000000011074,n,0,0.08232799999996132,RSVPLG01,0.94,2023-09-12-22:22:52,90014,1,Experiment,2023-09-12_15h49.57.046,
12,global,global,7,2,3,27,11,,,33,exp,HLZSNYEHTSETXNU,THLEEFNZHSTUZUS,6,Y,X,yY,yY,y,1,0.8386504000000059,y,1,0.26535110000031636,RSVPLG01,0.94,2023-09-12-22:22:52,90014,1,Experiment,2023-09-12_15h49.57.046,
11,global,global,3,2,4,28,10,,,34,exp,ZUESTZXEYUNFFTH,EUNLYFTNHEUYHZZ,4,S,X,sS,yY,s,1,1.090433800000028,n,0,0.2652004000001398,RSVPLG01,0.94,2023-09-12-22:22:52,90014,1,Experiment,2023-09-12_15h49.57.046,
6,local,global,7,2,5,29,5,,,35,exp,HUEZYFLTZSLSXEY,LEHEZNTULSSHUYY,6,N,X,nN,yY,n,1,0.560796499999924,y,1,1.138865600000372,RSVPLG01,0.94,2023-09-12-22:22:52,90014,1,Experiment,2023-09-12_15h49.57.046,
5,local,global,3,2,6,30,4,,,36,exp,FEZUSYHTXHTSLLF,LSEFUNTUTEZHFLS,6,N,X,nN,yY,n,1,0.5221561000003021,n,0,0.3632732000000942,RSVPLG01,0.94,2023-09-12-22:22:52,90014,1,Experiment,2023-09-12_15h49.57.046,
3,local,local,7,2,7,31,2,,,37,exp,YSZNYUFFHTNETSZ,EFYSTLYFZNZSXHN,6,L,X,lL,yY,l,1,0.3965005999998539,y,1,0.2067109999998138,RSVPLG01,0.94,2023-09-12-22:22:52,90014,1,Experiment,2023-09-12_15h49.57.046,
6,local,global,7,2,8,32,5,,,38,exp,FZUYEHSLFZLXSTU,HLZFNFZSYHUSTUT,5,N,X,nN,yY,n,1,0.420274800000243,n,0,0.21016119999967486,RSVPLG01,0.94,2023-09-12-22:22:52,90014,1,Experiment,2023-09-12_15h49.57.046,
10,global,global,0,2,9,33,9,,,39,exp,ULEZFYNLNTZFUST,TEZLUHZSNTFFELN,6,Y,absent,yY,nN,y,1,0.8439616000000569,n,1,0.2260142000000087,RSVPLG01,0.94,2023-09-12-22:22:52,90014,1,Experiment,2023-09-12_15h49.57.046,
6,local,global,7,2,10,34,5,,,40,exp,YHHELFSYNUZXZNU,UHYHTFFEENZZSYN,5,T,X,tT,yY,t,1,0.5124924000001556,y,1,0.4798345999997764,RSVPLG01,0.94,2023-09-12-22:22:52,90014,1,Experiment,2023-09-12_15h49.57.046,
9,global,local,7,2,11,35,8,,,41,exp,TZNLFYLFUEEHHTU,ULFUZSENLETHXHF,6,Y,X,yY,yY,y,1,0.7264344000000165,y,1,0.2798124999999345,RSVPLG01,0.94,2023-09-12-22:22:52,90014,1,Experiment,2023-09-12_15h49.57.046,
11,global,global,3,3,0,36,10,,,42,exp,UUTHFNYSXFHZEEZ,YEZSHLZTTYUUEHF,6,N,X,nN,yY,l,0,1.6812522000000172,n,0,0.30776109999987966,RSVPLG01,0.94,2023-09-12-22:22:52,90014,1,Experiment,2023-09-12_15h49.57.046,
10,global,global,0,3,1,37,9,,,43,exp,ZTYENULZTSSHNYH,ETYSLFZTNHLSHZN,6,U,absent,uU,nN,u,1,0.5012492000000748,n,1,0.21201259999998,RSVPLG01,0.94,2023-09-12-22:22:52,90014,1,Experiment,2023-09-12_15h49.57.046,
11,global,global,3,3,2,38,10,,,44,exp,YNUTFLUEXSFNEYT,ZNFEFHZSNSTYTUY,6,L,X,lL,yY,l,1,0.4654336999997213,y,1,0.21848080000017944,RSVPLG01,0.94,2023-09-12-22:22:52,90014,1,Experiment,2023-09-12_15h49.57.046,
10,global,global,0,3,3,39,9,,,45,exp,HEUZTFSZNUTELSL,TNTZUYHSESLEUHN,6,F,absent,fF,nN,y,0,0.7131905999999617,n,1,0.1787133999996513,RSVPLG01,0.94,2023-09-12-22:22:52,90014,1,Experiment,2023-09-12_15h49.57.046,
5,local,global,3,3,4,40,4,,,46,exp,FHELTYXEHZSZNFS,NSTUEHFHYZFNESY,4,U,X,uU,yY,u,1,0.5514439999997194,n,0,0.14517890000024636,RSVPLG01,0.94,2023-09-12-22:22:52,90014,1,Experiment,2023-09-12_15h49.57.046,
12,global,global,7,3,5,41,11,,,47,exp,FENZNLHLETXUYYU,EETSLTYUHNNFUFH,4,Z,X,zZ,yY,s,0,0.9147131999998237,n,0,0.16270499999973254,RSVPLG01,0.94,2023-09-12-22:22:52,90014,1,Experiment,2023-09-12_15h49.57.046,
7,global,local,0,3,6,42,6,,,48,exp,SHFNLYTSYETFZZE,EFSUHSHZTLELTZY,4,N,absent,nN,nN,n,1,0.5676882000002479,n,1,0.2019401999996262,RSVPLG01,0.94,2023-09-12-22:22:52,90014,1,Experiment,2023-09-12_15h49.57.046,
2,local,local,3,3,7,43,1,,,49,exp,LHZNTEENHSFZFSU,ZSEZYSNXHHFEUFL,5,Y,X,yY,yY,y,1,0.6580666999998357,y,1,0.21019579999983762,RSVPLG01,0.94,2023-09-12-22:22:52,90014,1,Experiment,2023-09-12_15h49.57.046,
3,local,local,7,3,8,44,2,,,50,exp,TTFHUSYZEYLFEUL,USFNLZLFTSXYUZE,4,N,X,nN,yY,n,1,0.38789470000028814,y,1,0.1764365999997608,RSVPLG01,0.94,2023-09-12-22:22:52,90014,1,Experiment,2023-09-12_15h49.57.046,
5,local,global,3,3,9,45,4,,,51,exp,TLHNZFTHXZENLES,EHYHZUYNLSZTLNS,6,U,X,uU,yY,u,1,0.5619877999997698,n,0,0.12183839999988777,RSVPLG01,0.94,2023-09-12-22:22:52,90014,1,Experiment,2023-09-12_15h49.57.046,
5,local,global,3,3,10,46,4,,,52,exp,ZHZSNUYXLTUELES,LEYUFYZSLTHSTEZ,5,F,X,fF,yY,f,1,0.4885706999998547,n,0,0.2495629000000008,RSVPLG01,0.94,2023-09-12-22:22:52,90014,1,Experiment,2023-09-12_15h49.57.046,
9,global,local,7,3,11,47,8,,,53,exp,TFUESUYHNZTZEFH,UHNZLHTUZTFXFEE,5,S,X,sS,yY,h,0,0.46326859999999215,n,0,0.19979889999967781,RSVPLG01,0.94,2023-09-12-22:22:52,90014,1,Experiment,2023-09-12_15h49.57.046,
7,global,local,0,4,0,48,6,,,54,exp,SLTHUEYYFTSHFUZ,ZLUHHNFTSTYSZUF,6,E,absent,eE,nN,e,1,0.33529289999978573,n,1,0.27544049999960407,RSVPLG01,0.94,2023-09-12-22:22:52,90014,1,Experiment,2023-09-12_15h49.57.046,
10,global,global,0,4,1,49,9,,,55,exp,NLYSLFEEUTUHTSY,NTYHYZNLSHUUEEL,6,F,absent,fF,nN,f,1,0.4166688999998769,n,1,0.16277469999977257,RSVPLG01,0.94,2023-09-12-22:22:52,90014,1,Experiment,2023-09-12_15h49.57.046,
12,global,global,7,4,2,50,11,,,56,exp,UUZHZFESEYXYSLT,EUENLTFFYYZUZST,4,H,X,hH,yY,h,1,0.43775959999993574,n,0,0.11537689999977374,RSVPLG01,0.94,2023-09-12-22:22:52,90014,1,Experiment,2023-09-12_15h49.57.046,
10,global,global,0,4,3,51,9,,,57,exp,UNEYSLZLYUNHTHT,NHTHFNLYZUZYEUE,5,S,absent,sS,nN,e,0,0.32279890000017986,n,1,0.13969520000000557,RSVPLG01,0.94,2023-09-12-22:22:52,90014,1,Experiment,2023-09-12_15h49.57.046,
8,global,local,3,4,4,52,7,,,58,exp,FYYSLTESUFUZTZN,SENYHZTXSETUUYF,5,L,X,lL,yY,l,1,0.419116899999608,n,0,0.23944540000002235,RSVPLG01,0.94,2023-09-12-22:22:52,90014,1,Experiment,2023-09-12_15h49.57.046,
7,global,local,0,4,5,53,6,,,59,exp,NYFHLFYZZUNTETH,YHFESNTNYUUZFZT,5,L,absent,lL,nN,l,1,0.39375299999983326,n,1,0.13995139999997264,RSVPLG01,0.94,2023-09-12-22:22:52,90014,1,Experiment,2023-09-12_15h49.57.046,
7,global,local,0,4,6,54,6,,,60,exp,SSZFTYUNHYFLUZL,YZUHENLSFZLNYFH,5,T,absent,tT,nN,t,1,0.36901680000028136,y,0,0.33848660000012387,RSVPLG01,0.94,2023-09-12-22:22:52,90014,1,Experiment,2023-09-12_15h49.57.046,
11,global,global,3,4,7,55,10,,,61,exp,UZUSTHNXNYHSLZF,LFZUESLHUYNSNFY,5,T,X,tT,yY,t,1,0.3187342000001081,y,1,0.26649889999998777,RSVPLG01,0.94,2023-09-12-22:22:52,90014,1,Experiment,2023-09-12_15h49.57.046,
3,local,local,7,4,8,56,2,,,62,exp,YLTUESSZFNZFNYT,FYUFHSTZLNLXZNU,5,H,X,hH,yY,h,1,0.44492110000010143,n,0,0.09740310000006502,RSVPLG01,0.94,2023-09-12-22:22:52,90014,1,Experiment,2023-09-12_15h49.57.046,
4,local,global,0,4,9,57,3,,,63,exp,ZUYEZTFFLTUHYNH,TUYSNHTNLHZLYUF,4,S,absent,sS,nN,s,1,0.3338189000000966,n,1,0.13415459999987434,RSVPLG01,0.94,2023-09-12-22:22:52,90014,1,Experiment,2023-09-12_15h49.57.046,
4,local,global,0,4,10,58,3,,,64,exp,FHUYETSEUHNYZSF,SEUZULHNYFSYENF,6,L,absent,lL,nN,l,1,0.38428780000003826,n,1,0.10122790000013993,RSVPLG01,0.94,2023-09-12-22:22:52,90014,1,Experiment,2023-09-12_15h49.57.046,
3,local,local,7,4,11,59,2,,,65,exp,ZNFFSEYSZHLHNYL,NLLUZTFZFYNUXYS,6,T,X,tT,yY,t,1,0.41597260000025926,y,1,0.08247920000030717,RSVPLG01,0.94,2023-09-12-22:22:52,90014,1,Experiment,2023-09-12_15h49.57.046,
4,local,global,0,5,0,60,3,,,66,exp,ZYSENLHYHFFTLZS,HTNULZFYLZTNHSY,4,U,absent,uU,nN,u,1,0.5194102000000385,n,1,0.15883260000009614,RSVPLG01,0.94,2023-09-12-22:22:52,90014,1,Experiment,2023-09-12_15h49.57.046,
10,global,global,0,5,1,61,9,,,67,exp,YETNUZLHSSTUEZY,EZUFSHLYEHSLZYT,4,N,absent,nN,nN,n,1,0.6627289999996719,n,1,0.1705536000004031,RSVPLG01,0.94,2023-09-12-22:22:52,90014,1,Experiment,2023-09-12_15h49.57.046,
2,local,local,3,5,2,62,1,,,68,exp,FLUTUNTHHEZEFSS,ULTHEYFHXSZSTEU,6,Y,X,yY,yY,y,1,0.7899600000000646,y,1,0.25792860000001383,RSVPLG01,0.94,2023-09-12-22:22:52,90014,1,Experiment,2023-09-12_15h49.57.046,
8,global,local,3,5,3,63,7,,,69,exp,EHUFHNNTUYYSTES,NZTLSYXUHUETYZE,4,F,X,fF,yY,f,1,0.36551409999992757,n,0,0.24237110000012763,RSVPLG01,0.94,2023-09-12-22:22:52,90014,1,Experiment,2023-09-12_15h49.57.046,
6,local,global,7,5,4,64,5,,,70,exp,FELZUSNTYNTYXZE,FLZETHUTZLNEYUY,6,H,X,hH,yY,h,1,0.6489745999997467,n,0,0.19746649999979127,RSVPLG01,0.94,2023-09-12-22:22:52,90014,1,Experiment,2023-09-12_15h49.57.046,
11,global,global,3,5,5,65,10,,,71,exp,FETSLYUSXZHLTZU,EHFTLNSUZFSLZEU,6,Y,X,yY,yY,y,1,0.4128248000001804,n,0,0.3128943000001527,RSVPLG01,0.94,2023-09-12-22:22:52,90014,1,Experiment,2023-09-12_15h49.57.046,
6,local,global,7,5,6,66,5,,,72,exp,UYZZFSELNUFTXEN,ZTYNFHEYLUUFTLZ,6,H,X,hH,yY,h,1,0.44123480000007476,n,0,0.1595898999999008,RSVPLG01,0.94,2023-09-12-22:22:52,90014,1,Experiment,2023-09-12_15h49.57.046,
2,local,local,3,5,7,67,1,,,73,exp,LHUYYSFTHZZLFNT,LUYFNEHNXZFHLUY,6,E,X,eE,yY,e,1,0.4835511999999653,n,0,0.2964582999998129,RSVPLG01,0.94,2023-09-12-22:22:52,90014,1,Experiment,2023-09-12_15h49.57.046,
11,global,global,3,5,8,68,10,,,74,exp,UYYLENXFHUNESZS,NSUTYFFZYHNSZUH,4,L,X,lL,yY,l,1,0.3278008000002046,n,0,0.20282869999982722,RSVPLG01,0.94,2023-09-12-22:22:52,90014,1,Experiment,2023-09-12_15h49.57.046,
8,global,local,3,5,9,69,7,,,75,exp,HNSTUFLZNULYSHZ,LSSENFXZUNYLZHF,4,T,X,tT,yY,t,1,0.6512550000002193,n,0,0.19071859999985463,RSVPLG01,0.94,2023-09-12-22:22:52,90014,1,Experiment,2023-09-12_15h49.57.046,
9,global,local,7,5,10,70,8,,,76,exp,ZSHLNNUFEZFYHUS,UNETYFESHUXSFYN,4,L,X,lL,yY,l,1,0.43276590000004944,n,0,1.233172399999603,RSVPLG01,0.94,2023-09-12-22:22:52,90014,1,Experiment,2023-09-12_15h49.57.046,
3,local,local,7,5,11,71,2,,,77,exp,NUZHSTZSYFEFENH,HSZUULNZYYENXFS,6,L,X,lL,yY,l,1,0.4457996999999523,y,1,0.23344799999995303,RSVPLG01,0.94,2023-09-12-22:22:52,90014,1,Experiment,2023-09-12_15h49.57.046,
1,local,local,0,6,0,72,0,,,78,exp,SNHTEFYFLTLHSNZ,NFHZUSZHLLTYNYF,5,U,absent,uU,nN,u,1,0.43332079999981943,n,1,0.11259890000019368,RSVPLG01,0.94,2023-09-12-22:22:52,90014,1,Experiment,2023-09-12_15h49.57.046,
1,local,local,0,6,1,73,0,,,79,exp,LETLNFFSSTZYHHZ,ZELFUYLSHFETSYH,5,U,absent,uU,nN,u,1,0.4853974000002381,n,1,0.1142890000000989,RSVPLG01,0.94,2023-09-12-22:22:52,90014,1,Experiment,2023-09-12_15h49.57.046,
4,local,global,0,6,2,74,3,,,80,exp,FZYSSNUFLETYLUZ,TYFSZHSFEUYLUZT,6,H,absent,hH,nN,h,1,0.41144900000017515,n,1,0.20338349999974525,RSVPLG01,0.94,2023-09-12-22:22:52,90014,1,Experiment,2023-09-12_15h49.57.046,
7,global,local,0,6,3,75,6,,,81,exp,SLUFNZYUFSYEELZ,LHESTLYSZFFUYHE,5,N,absent,nN,nN,n,1,0.42566179999994347,n,1,0.12240610000026209,RSVPLG01,0.94,2023-09-12-22:22:52,90014,1,Experiment,2023-09-12_15h49.57.046,
11,global,global,3,6,4,76,10,,,82,exp,ZHNTSUNXFLZFLHY,HLYLEZHFNZFUUNT,5,S,X,sS,yY,s,1,1.2865288999996665,n,0,0.23453410000001895,RSVPLG01,0.94,2023-09-12-22:22:52,90014,1,Experiment,2023-09-12_15h49.57.046,
2,local,local,3,6,5,77,1,,,83,exp,NSSUFZHTUZNLLET,HNLUYUHXZETTNZE,5,Y,X,yY,yY,y,1,0.5321649000002253,y,1,0.15254520000007687,RSVPLG01,0.94,2023-09-12-22:22:52,90014,1,Experiment,2023-09-12_15h49.57.046,
8,global,local,3,6,6,78,7,,,84,exp,FHSTZZEENLSLYHN,SYEUHFXSHYZNENL,4,T,X,tT,yY,t,1,0.4106019999999262,n,0,0.17097610000018904,RSVPLG01,0.94,2023-09-12-22:22:52,90014,1,Experiment,2023-09-12_15h49.57.046,
5,local,global,3,6,7,79,4,,,85,exp,FNLSZYEZXSTLEUT,USNTTHZLELNZUES,6,H,X,hH,yY,h,1,0.43245840000008684,n,0,0.11650190000000293,RSVPLG01,0.94,2023-09-12-22:22:52,90014,1,Experiment,2023-09-12_15h49.57.046,
10,global,global,0,6,8,80,9,,,86,exp,SHSUNETNYHZTELZ,HZEFYLENTSLYHZT,4,U,absent,uU,nN,u,1,0.42874029999984486,n,1,0.13018229999988762,RSVPLG01,0.94,2023-09-12-22:22:52,90014,1,Experiment,2023-09-12_15h49.57.046,
1,local,local,0,6,9,81,0,,,87,exp,YZEULZYTFNNHLFE,LZHSLTFNNTFHYZY,4,S,absent,sS,nN,s,1,0.3952619000001505,n,1,0.11618640000006053,RSVPLG01,0.94,2023-09-12-22:22:52,90014,1,Experiment,2023-09-12_15h49.57.046,
10,global,global,0,6,10,82,9,,,88,exp,ZTHLLSYYNTZUUNE,NLEHTFYEZZYUTNH,6,S,absent,sS,nN,e,0,0.34126219999961904,n,1,0.19542999999976018,RSVPLG01,0.94,2023-09-12-22:22:52,90014,1,Experiment,2023-09-12_15h49.57.046,
9,global,local,7,6,11,83,8,,,89,exp,NYYHHETFSULNUFT,HHUSLZNYTYFFXTN,6,E,X,eE,yY,e,1,0.4007756999999401,n,0,0.15653259999999136,RSVPLG01,0.94,2023-09-12-22:22:52,90014,1,Experiment,2023-09-12_15h49.57.046,
6,local,global,7,7,0,84,5,,,90,exp,THNTSEULNHYSXUF,STLTHZFYNLUFYUH,6,Z,X,zZ,yY,e,0,0.8673641000000316,n,0,0.03569629999992685,RSVPLG01,0.94,2023-09-12-22:22:52,90014,1,Experiment,2023-09-12_15h49.57.046,
2,local,local,3,7,1,85,1,,,91,exp,EHEYTLTNHZZSNSF,HZZUHSXLFSNELNE,4,U,X,uU,yY,u,1,0.37681060000022626,y,1,0.10177250000015192,RSVPLG01,0.94,2023-09-12-22:22:52,90014,1,Experiment,2023-09-12_15h49.57.046,
1,local,local,0,7,2,86,0,,,92,exp,FFYHZSEHUTLTEYS,HELYNTFLESTHYUS,5,N,absent,nN,nN,n,1,0.46021909999990385,n,1,0.2711669999998776,RSVPLG01,0.94,2023-09-12-22:22:52,90014,1,Experiment,2023-09-12_15h49.57.046,
7,global,local,0,7,3,87,6,,,93,exp,YUZSLUEYHZENNHL,HEYTUNFZLLFUYZH,4,S,absent,sS,nN,t,0,3.596841499999755,n,1,0.2973173999998835,RSVPLG01,0.94,2023-09-12-22:22:52,90014,1,Experiment,2023-09-12_15h49.57.046,
1,local,local,0,7,4,88,0,,,94,exp,FTTEZFHHZYUULYN,HULSHLFYZZFNTYN,4,S,absent,sS,nN,s,1,0.35334580000017013,n,1,0.11888610000005428,RSVPLG01,0.94,2023-09-12-22:22:52,90014,1,Experiment,2023-09-12_15h49.57.046,
2,local,local,3,7,5,89,1,,,95,exp,LLFZUTUYFYSENSZ,SNUEUHYYXZLNZLE,6,H,X,hH,yY,h,1,0.5149397000000135,y,1,0.2653043999998772,RSVPLG01,0.94,2023-09-12-22:22:52,90014,1,Experiment,2023-09-12_15h49.57.046,
12,global,global,7,7,6,90,11,,,96,exp,ZFYUHLFZHEESXTU,SFTUZNUEYFEYZSH,6,L,X,lL,yY,l,1,0.4746111999997993,n,0,0.15451009999969756,RSVPLG01,0.94,2023-09-12-22:22:52,90014,1,Experiment,2023-09-12_15h49.57.046,
5,local,global,3,7,7,91,4,,,97,exp,UNZZEFHLXUYELHT,HTYEZSZTEHLNNYU,6,S,X,sS,yY,s,1,0.40432890000010957,n,0,0.2026746000001367,RSVPLG01,0.94,2023-09-12-22:22:52,90014,1,Experiment,2023-09-12_15h49.57.046,
1,local,local,0,7,8,92,0,,,98,exp,TZSSLZHYUHYUFTN,SFNTESUYZTYUNZF,5,E,absent,eE,nN,e,1,0.3487233999999262,n,1,0.082111299999724,RSVPLG01,0.94,2023-09-12-22:22:52,90014,1,Experiment,2023-09-12_15h49.57.046,
10,global,global,0,7,9,93,9,,,99,exp,ZZNSLNTUHSYETYH,THZUFSNYZETYNUH,5,L,absent,lL,nN,s,0,0.8942924000002677,n,1,0.2037318000002415,RSVPLG01,0.94,2023-09-12-22:22:52,90014,1,Experiment,2023-09-12_15h49.57.046,
2,local,local,3,7,10,94,1,,,100,exp,NTNFHLZTZEEYHUY,HHUNFSTFXZYUZEY,6,S,X,sS,yY,s,1,0.44030179999981556,y,1,0.12837290000015855,RSVPLG01,0.94,2023-09-12-22:22:52,90014,1,Experiment,2023-09-12_15h49.57.046,
11,global,global,3,7,11,95,10,,,101,exp,ZUENTLXSUFYESLT,YUFHZYLUESFTTEL,4,N,X,nN,yY,n,1,0.42452270000012504,n,0,0.0976368999999977,RSVPLG01,0.94,2023-09-12-22:22:52,90014,1,Experiment,2023-09-12_15h49.57.046,
1,local,local,0,8,0,96,0,,,102,exp,HEUYZTLNELFNFUY,ZUUFHSEYHEZLNNY,6,S,absent,sS,nN,s,1,0.666488500000014,n,1,0.16141830000015034,RSVPLG01,0.94,2023-09-12-22:22:52,90014,1,Experiment,2023-09-12_15h49.57.046,
11,global,global,3,8,1,97,10,,,103,exp,TSLZYEEXLHSUZHU,NHUTFSEHUTLZESZ,5,Y,X,yY,yY,y,1,0.6981753000000026,y,1,0.2680230999999367,RSVPLG01,0.94,2023-09-12-22:22:52,90014,1,Experiment,2023-09-12_15h49.57.046,
10,global,global,0,8,2,98,9,,,104,exp,STLEYUSLNTZFYNU,NSSHZTFYZUYTLUN,4,E,absent,eE,nN,h,0,0.41497270000036224,n,1,0.08917289999999412,RSVPLG01,0.94,2023-09-12-22:22:52,90014,1,Experiment,2023-09-12_15h49.57.046,
6,local,global,7,8,3,99,5,,,105,exp,ZZYLHNTHLTSUXYU,HYFUYESZFLTZTUS,6,E,X,eE,yY,e,1,0.3578392999997959,n,0,0.06743300000016461,RSVPLG01,0.94,2023-09-12-22:22:52,90014,1,Experiment,2023-09-12_15h49.57.046,
5,local,global,3,8,4,100,4,,,106,exp,FNNZUFXYSSULHHL,NYLTULFFYEUSSEH,4,T,X,tT,yY,t,1,0.6924991999999293,n,0,0.17736070000000836,RSVPLG01,0.94,2023-09-12-22:22:52,90014,1,Experiment,2023-09-12_15h49.57.046,
7,global,local,0,8,5,101,6,,,107,exp,ELUNTSSZEHFLTFH,SUFYSLFEUZLTEHZ,4,N,absent,nN,nN,n,1,0.4829408999999032,n,1,1.245079600000281,RSVPLG01,0.94,2023-09-12-22:22:52,90014,1,Experiment,2023-09-12_15h49.57.046,
8,global,local,3,8,6,102,7,,,108,exp,NLUNHEFYHLZSSUZ,UHZNYTYHXFLSUFL,6,E,X,eE,yY,e,1,0.3755717000003642,n,0,0.2875731999997697,RSVPLG01,0.94,2023-09-12-22:22:52,90014,1,Experiment,2023-09-12_15h49.57.046,
1,local,local,0,8,7,103,0,,,109,exp,EZFSTUYNUFEYHHN,FENZLUHSYYUHZSF,5,L,absent,lL,nN,l,1,0.37880819999963933,n,1,0.18917940000028466,RSVPLG01,0.94,2023-09-12-22:22:52,90014,1,Experiment,2023-09-12_15h49.57.046,
8,global,local,3,8,8,104,7,,,110,exp,HZSNYULELHSNUZT,LLZEFSEXTUHZNNS,5,Y,X,yY,yY,y,1,0.8553787000000739,n,0,0.29028470000002926,RSVPLG01,0.94,2023-09-12-22:22:52,90014,1,Experiment,2023-09-12_15h49.57.046,
3,local,local,7,8,9,105,2,,,111,exp,SYLUEFNSHFTLHNT,STTZHLYNESXYFFL,4,Z,X,zZ,yY,z,1,0.3284567999999126,y,1,0.2506215999997039,RSVPLG01,0.94,2023-09-12-22:22:52,90014,1,Experiment,2023-09-12_15h49.57.046,
10,global,global,0,8,10,106,9,,,112,exp,NSHEYFYTUHTNEUL,SLHHYZETNETSYNL,6,F,absent,fF,nN,z,0,0.7286566999996467,n,1,0.24269050000020798,RSVPLG01,0.94,2023-09-12-22:22:52,90014,1,Experiment,2023-09-12_15h49.57.046,
10,global,global,0,8,11,107,9,,,113,exp,TSHEZYELNULSNUH,EZEUHFHSSLTNUTZ,6,Y,absent,yY,nN,y,1,0.7190893000001779,n,1,0.24357210000016494,RSVPLG01,0.94,2023-09-12-22:22:52,90014,1,Experiment,2023-09-12_15h49.57.046,
10,global,global,0,9,0,108,9,,,114,exp,FFLLZYNUENTTSZS,SFUZNHSUTZEFLEN,6,Y,absent,yY,nN,y,1,0.6861272000001009,n,1,0.6071532999999363,RSVPLG01,0.94,2023-09-12-22:22:52,90014,1,Experiment,2023-09-12_15h49.57.046,
8,global,local,3,9,1,109,7,,,115,exp,SEFZUTLLZSYFYHH,LYHHUNLZXFYFSSE,6,T,X,tT,yY,t,1,0.46118890000025203,y,1,0.18670560000009573,RSVPLG01,0.94,2023-09-12-22:22:52,90014,1,Experiment,2023-09-12_15h49.57.046,
6,local,global,7,9,2,110,5,,,116,exp,YLHETFSSFZXHUZT,SZTNUYFHHLSLTUY,4,N,X,nN,yY,n,1,0.4726071999998567,n,0,0.0502305999998498,RSVPLG01,0.94,2023-09-12-22:22:52,90014,1,Experiment,2023-09-12_15h49.57.046,
11,global,global,3,9,3,111,10,,,117,exp,ESETZLXZFFUNNUL,NNZHUFLZESULYYS,4,T,X,tT,yY,t,1,0.3708378999999695,n,0,0.19329089999973803,RSVPLG01,0.94,2023-09-12-22:22:52,90014,1,Experiment,2023-09-12_15h49.57.046,
2,local,local,3,9,4,112,1,,,118,exp,TFYZTFSLLHNEHSE,TSHUNYXHNSELLFY,4,U,X,uU,yY,u,1,0.3829659999996693,y,1,0.16081420000000435,RSVPLG01,0.94,2023-09-12-22:22:52,90014,1,Experiment,2023-09-12_15h49.57.046,
9,global,local,7,9,5,113,8,,,119,exp,LFZFYUELNNYHZSS,YNLSSTNZEHFZXLE,6,U,X,uU,yY,u,1,0.467622399999982,y,1,0.14576179999994565,RSVPLG01,0.94,2023-09-12-22:22:52,90014,1,Experiment,2023-09-12_15h49.57.046,
3,local,local,7,9,6,114,2,,,120,exp,ZHFYFTTLZHLNSNU,NSTENZUTFFXZLUH,4,E,X,eE,yY,e,1,0.3592790000002424,n,0,0.16989539999985936,RSVPLG01,0.94,2023-09-12-22:22:52,90014,1,Experiment,2023-09-12_15h49.57.046,
9,global,local,7,9,7,115,8,,,121,exp,FLHHELZUZTTSFYY,SYUSNUTYFHLXZLH,5,E,X,eE,yY,e,1,0.42783920000010767,y,1,0.13857680000000983,RSVPLG01,0.94,2023-09-12-22:22:52,90014,1,Experiment,2023-09-12_15h49.57.046,
12,global,global,7,9,8,116,11,,,122,exp,YHZHZTNFESNYXFU,HUSHYLENFSYUENZ,6,T,X,tT,yY,l,0,0.36816060000001016,n,0,0.17758879999973942,RSVPLG01,0.94,2023-09-12-22:22:52,90014,1,Experiment,2023-09-12_15h49.57.046,
12,global,global,7,9,9,117,11,,,123,exp,UZUHNTSESFLXTLZ,HFTSYFUTZELHEUS,5,N,X,nN,yY,n,1,0.4309795999997732,n,0,0.19406960000014806,RSVPLG01,0.94,2023-09-12-22:22:52,90014,1,Experiment,2023-09-12_15h49.57.046,
7,global,local,0,9,10,118,6,,,124,exp,HNELSSFZFZHNUUY,ZNUTYSUZFNEHSEH,4,L,absent,lL,nN,l,1,0.36920420000024023,n,1,0.12338229999977557,RSVPLG01,0.94,2023-09-12-22:22:52,90014,1,Experiment,2023-09-12_15h49.57.046,
2,local,local,3,9,11,119,1,,,125,exp,SFHEFYLHTUUTZSL,SEZFHNULXTLFHUT,6,N,X,nN,yY,n,1,0.46997659999988173,y,1,0.21779509999987567,RSVPLG01,0.94,2023-09-12-22:22:52,90014,1,Experiment,2023-09-12_15h49.57.046,
11,global,global,3,10,0,120,10,,,126,exp,ZZLSENFXHYNSYHT,ZLNYUHSLTHNFYTF,5,E,X,eE,yY,e,1,0.39879349999955593,y,1,0.24907100000018545,RSVPLG01,0.94,2023-09-12-22:22:52,90014,1,Experiment,2023-09-12_15h49.57.046,
6,local,global,7,10,1,121,5,,,127,exp,ZHUFYESSZFLTXYL,ZFLHTNTHSFYUSLU,6,N,X,nN,yY,n,1,0.4823770000002696,n,0,0.07174799999984316,RSVPLG01,0.94,2023-09-12-22:22:52,90014,1,Experiment,2023-09-12_15h49.57.046,
4,local,global,0,10,2,122,3,,,128,exp,ZZEENFUNSSHYTUH,ZZUEHLYNSEYNHST,6,L,absent,lL,nN,l,1,0.4370317000002615,n,1,0.13879300000007788,RSVPLG01,0.94,2023-09-12-22:22:52,90014,1,Experiment,2023-09-12_15h49.57.046,
11,global,global,3,10,3,123,10,,,129,exp,FEZESYZXLYUHUNH,LNZFTYHUHZLUEYN,5,S,X,sS,yY,e,0,0.35722720000012487,y,1,0.1144745999999941,RSVPLG01,0.94,2023-09-12-22:22:52,90014,1,Experiment,2023-09-12_15h49.57.046,
3,local,local,7,10,4,124,2,,,130,exp,NUYSEZHLLHYNETZ,HEZFLHLTNNXTUEY,4,F,X,fF,yY,f,1,0.3237189000001308,n,0,0.17046440000012808,RSVPLG01,0.94,2023-09-12-22:22:52,90014,1,Experiment,2023-09-12_15h49.57.046,
3,local,local,7,10,5,125,2,,,131,exp,FNZHUYSTLSYFTLH,LZFYEHTSFHNXTNZ,5,E,X,eE,yY,e,1,0.4030391999999665,y,1,0.1224489999999605,RSVPLG01,0.94,2023-09-12-22:22:52,90014,1,Experiment,2023-09-12_15h49.57.046,
6,local,global,7,10,6,126,5,,,132,exp,ZTNFYSLZSLTXEFN,HETZUSHZLSLFTEN,5,U,X,uU,yY,u,1,0.46656880000000456,n,0,0.1148880000000645,RSVPLG01,0.94,2023-09-12-22:22:52,90014,1,Experiment,2023-09-12_15h49.57.046,
12,global,global,7,10,7,127,11,,,133,exp,HFHENLSTUTESXUF,YFNTYZHNUEFTHSU,6,L,X,lL,yY,l,1,0.4469075000001794,n,0,0.21334079999996902,RSVPLG01,0.94,2023-09-12-22:22:52,90014,1,Experiment,2023-09-12_15h49.57.046,
5,local,global,3,10,8,128,4,,,134,exp,EUEUZSFXHTHNLTF,LTLHYFSFUNETUNS,5,Y,X,yY,yY,y,1,0.808332000000064,n,0,0.15197960000023158,RSVPLG01,0.94,2023-09-12-22:22:52,90014,1,Experiment,2023-09-12_15h49.57.046,
4,local,global,0,10,9,129,3,,,135,exp,LNYFHNLEUHSZEZY,ZLLTNSNUYZEUSEH,4,T,absent,tT,nN,t,1,0.3633629999999357,n,1,0.12581660000023476,RSVPLG01,0.94,2023-09-12-22:22:52,90014,1,Experiment,2023-09-12_15h49.57.046,
7,global,local,0,10,10,130,6,,,136,exp,ESFHTNZZLUESFHL,UHZHZYFUTFSELLE,6,N,absent,nN,nN,n,1,0.47031040000001667,n,1,0.12049500000011903,RSVPLG01,0.94,2023-09-12-22:22:52,90014,1,Experiment,2023-09-12_15h49.57.046,
8,global,local,3,10,11,131,7,,,137,exp,LYZFZESHNYUHUFL,UFLUZTHFXLYNSZS,6,E,X,eE,yY,e,1,0.3154908000001342,n,0,0.048994999999649735,RSVPLG01,0.94,2023-09-12-22:22:52,90014,1,Experiment,2023-09-12_15h49.57.046,
1,local,local,0,11,0,132,0,,,138,exp,THYLHETZZSSNENU,UTNFZZSHSNTHYYU,4,F,absent,fF,nN,f,1,0.30637730000034935,n,1,0.09096809999982725,RSVPLG01,0.94,2023-09-12-22:22:52,90014,1,Experiment,2023-09-12_15h49.57.046,
12,global,global,7,11,1,133,11,,,139,exp,HZFULTESSZXHTNN,FHFYHLNLEETSSNZ,4,U,X,uU,yY,u,1,0.29039259999990463,y,1,0.15392510000037873,RSVPLG01,0.94,2023-09-12-22:22:52,90014,1,Experiment,2023-09-12_15h49.57.046,
2,local,local,3,11,2,134,1,,,140,exp,NSSHZYFEHULENZL,HLFNZTSEXFSUZUN,6,T,X,tT,yY,t,1,0.4057186999998521,y,1,0.04959839999992255,RSVPLG01,0.94,2023-09-12-22:22:52,90014,1,Experiment,2023-09-12_15h49.57.046,
6,local,global,7,11,3,135,5,,,141,exp,HULYFFTSTZXEELZ,FUENUETLLTZSHHF,4,N,X,nN,yY,n,1,0.35444090000009965,y,1,0.14810799999986557,RSVPLG01,0.94,2023-09-12-22:22:52,90014,1,Experiment,2023-09-12_15h49.57.046,
4,local,global,0,11,4,136,3,,,142,exp,SNLESULHZZNUYTY,SUHFYNLLUZHZTNT,4,F,absent,fF,nN,f,1,0.3697840999998334,n,1,0.11975429999984044,RSVPLG01,0.94,2023-09-12-22:22:52,90014,1,Experiment,2023-09-12_15h49.57.046,
12,global,global,7,11,5,137,11,,,143,exp,SFZHYYFZTNXLSEE,SYNUTFZSLZELFET,4,H,X,hH,yY,h,1,0.4401348000001235,y,1,0.157835100000284,RSVPLG01,0.94,2023-09-12-22:22:52,90014,1,Experiment,2023-09-12_15h49.57.046,
4,local,global,0,11,6,138,3,,,144,exp,UETTYNSUFSFHZHE,EZUELTZFFHSTHNS,5,L,absent,lL,nN,l,1,0.41163800000003903,n,1,0.08424150000018926,RSVPLG01,0.94,2023-09-12-22:22:52,90014,1,Experiment,2023-09-12_15h49.57.046,
5,local,global,3,11,7,139,4,,,145,exp,SHUEFZEYXTFYSUH,YLTYSNFHLUSEEUF,6,N,X,nN,yY,n,1,0.42412289999992936,n,0,0.11372789999995803,RSVPLG01,0.94,2023-09-12-22:22:52,90014,1,Experiment,2023-09-12_15h49.57.046,
8,global,local,3,11,8,140,7,,,146,exp,LFFZTYZHUYHULSE,UYLZNSHXULHEYFF,5,T,X,tT,yY,t,1,0.3802132000000711,n,0,0.9704159000002619,RSVPLG01,0.94,2023-09-12-22:22:52,90014,1,Experiment,2023-09-12_15h49.57.046,
6,local,global,7,11,9,141,5,,,147,exp,ZTYUHHFSLSXYLZE,STENSTYZYHFLEZH,4,N,X,nN,yY,n,1,0.34191859999964436,y,1,0.19532619999972667,RSVPLG01,0.94,2023-09-12-22:22:52,90014,1,Experiment,2023-09-12_15h49.57.046,
4,local,global,0,11,10,142,3,,,148,exp,YTTFNZSHSFLUZYH,ZYLHEULFHYSTSZU,5,E,absent,eE,nN,e,1,0.39697160000014264,n,1,0.23440749999963373,RSVPLG01,0.94,2023-09-12-22:22:52,90014,1,Experiment,2023-09-12_15h49.57.046,
8,global,local,3,11,11,143,7,,,149,exp,HNSYTZZLYNLSHUF,LHSHELUXZUFNYYS,5,T,X,tT,yY,t,1,0.37998940000034054,n,0,0.1501021999997647,RSVPLG01,0.94,2023-09-12-22:22:52,90014,1,Experiment,2023-09-12_15h49.57.046,
3,local,local,7,12,0,144,2,,,150,exp,ZUFLHEESYNSNLUY,EYUYTLSUNESXFZF,5,T,X,tT,yY,t,1,0.3835966000001463,y,1,0.13195749999977124,RSVPLG01,0.94,2023-09-12-22:22:52,90014,1,Experiment,2023-09-12_15h49.57.046,
11,global,global,3,12,1,145,10,,,151,exp,TEYEZSNXULNHTHU,UUHTFEYYNELSLTS,5,Z,X,zZ,yY,t,0,0.5007024000001365,n,0,0.21038769999995566,RSVPLG01,0.94,2023-09-12-22:22:52,90014,1,Experiment,2023-09-12_15h49.57.046,
12,global,global,7,12,2,146,11,,,152,exp,NEUHUZTNLLEYXTF,LTNTYSUFFHUEHNE,6,Z,X,zZ,yY,e,0,1.20421800000031,n,0,0.09923859999980778,RSVPLG01,0.94,2023-09-12-22:22:52,90014,1,Experiment,2023-09-12_15h49.57.046,
7,global,local,0,12,3,147,6,,,153,exp,NLETEFYSSZYZHNT,YZNNSUHTYHLSELE,6,F,absent,fF,nN,e,0,0.3542757000000165,y,0,0.1699663000003966,RSVPLG01,0.94,2023-09-12-22:22:52,90014,1,Experiment,2023-09-12_15h49.57.046,
12,global,global,7,12,4,148,11,,,154,exp,YNSTYLFETZNFXZH,SEZETUZSYNHTNFY,6,L,X,lL,yY,l,1,0.35629229999995005,y,1,0.12777479999977004,RSVPLG01,0.94,2023-09-12-22:22:52,90014,1,Experiment,2023-09-12_15h49.57.046,
8,global,local,3,12,5,149,7,,,155,exp,UFLZNFHNYUYTETH,UHESUFXLLNETNYF,4,Z,X,zZ,yY,z,1,0.2776518999999098,n,0,0.025273199999901408,RSVPLG01,0.94,2023-09-12-22:22:52,90014,1,Experiment,2023-09-12_15h49.57.046,
1,local,local,0,12,6,150,0,,,156,exp,YYEFNTFULUEZSNL,ESLLNHFYSUUNYZF,6,H,absent,hH,nN,h,1,0.4984044999996513,n,1,0.1428498000000218,RSVPLG01,0.94,2023-09-12-22:22:52,90014,1,Experiment,2023-09-12_15h49.57.046,
5,local,global,3,12,7,151,4,,,157,exp,ZEUUFNHYXTSSHFZ,ZUFHULZTHYESFSE,6,L,X,lL,yY,l,1,0.4191092999999455,n,0,0.10858599999983198,RSVPLG01,0.94,2023-09-12-22:22:52,90014,1,Experiment,2023-09-12_15h49.57.046,
3,local,local,7,12,8,152,2,,,158,exp,EFLUHYEUHSZSTTF,TTFEZNESFUSHXZL,6,N,X,nN,yY,n,1,0.32881029999998646,y,1,0.15207620000001043,RSVPLG01,0.94,2023-09-12-22:22:52,90014,1,Experiment,2023-09-12_15h49.57.046,
6,local,global,7,12,9,153,5,,,159,exp,HENZLFSZUUNXYES,ZYFNTZNSEUESHYH,5,T,X,tT,yY,t,1,0.29850729999998293,n,0,0.11663369999996576,RSVPLG01,0.94,2023-09-12-22:22:52,90014,1,Experiment,2023-09-12_15h49.57.046,
4,local,global,0,12,10,154,3,,,160,exp,FUUELYZHNYZTTNF,FTHFSTUUYZHEEYN,5,S,absent,sS,nN,s,1,0.3387097999998332,n,1,0.13812199999983932,RSVPLG01,0.94,2023-09-12-22:22:52,90014,1,Experiment,2023-09-12_15h49.57.046,
7,global,local,0,12,11,155,6,,,161,exp,FEYZSHLEYTNFTNH,FLNUESTFLYHHESN,4,Z,absent,zZ,nN,y,0,0.3197501999998167,n,1,0.12296839999999065,RSVPLG01,0.94,2023-09-12-22:22:52,90014,1,Experiment,2023-09-12_15h49.57.046,
2,local,local,3,13,0,156,1,,,162,exp,LZTLTUHFENESHNF,NELTFYHZXTSHLNZ,6,Y,X,yY,yY,y,1,0.3377553000000262,y,1,0.19234460000006948,RSVPLG01,0.94,2023-09-12-22:22:52,90014,1,Experiment,2023-09-12_15h49.57.046,
7,global,local,0,13,1,157,6,,,163,exp,TFUNSHLZTLNZFYS,LZSNUEZLFNYUSTY,6,H,absent,hH,nN,h,1,0.3885138000000552,n,1,0.12694669999973485,RSVPLG01,0.94,2023-09-12-22:22:52,90014,1,Experiment,2023-09-12_15h49.57.046,
12,global,global,7,13,2,158,11,,,164,exp,ZHEUZSNUENHLXTL,TYUNHFTHZLNLUYE,6,S,X,sS,yY,e,0,0.31599099999993996,n,0,0.04268890000003012,RSVPLG01,0.94,2023-09-12-22:22:52,90014,1,Experiment,2023-09-12_15h49.57.046,
9,global,local,7,13,3,159,8,,,165,exp,LYZZULHNYSFTTHN,ZNTYEYLHFHLXTNF,5,U,X,uU,yY,u,1,0.4362273000001551,n,0,0.0815442999996776,RSVPLG01,0.94,2023-09-12-22:22:52,90014,1,Experiment,2023-09-12_15h49.57.046,
12,global,global,7,13,4,160,11,,,166,exp,UYNEZHLLHEUXTSN,SHTEFYYLELHSNTU,5,Z,X,zZ,yY,z,1,0.36984949999987293,y,1,0.011891500000274391,RSVPLG01,0.94,2023-09-12-22:22:52,90014,1,Experiment,2023-09-12_15h49.57.046,
12,global,global,7,13,5,161,11,,,167,exp,ZLYUFNETNTXYFHH,YEZSZHYNTFHFETL,4,U,X,uU,yY,u,1,0.2922263999998904,y,1,0.07872779999979684,RSVPLG01,0.94,2023-09-12-22:22:52,90014,1,Experiment,2023-09-12_15h49.57.046,
9,global,local,7,13,6,162,8,,,168,exp,FENLUHYEUZYFLTZ,NLZFTSELUTYEXZF,6,H,X,hH,yY,y,0,0.39036399999986315,y,1,0.29064870000001974,RSVPLG01,0.94,2023-09-12-22:22:52,90014,1,Experiment,2023-09-12_15h49.57.046,
6,local,global,7,13,7,163,5,,,169,exp,SULZTFULTHXHFSN,YNFESFUHNHTSLTY,4,E,X,eE,yY,e,1,0.40823349999982383,y,1,0.17965949999961595,RSVPLG01,0.94,2023-09-12-22:22:52,90014,1,Experiment,2023-09-12_15h49.57.046,
1,local,local,0,13,8,164,0,,,170,exp,ZTYNHESUTEYFUHF,EHFLSSTZUZUFEYT,4,L,absent,lL,nN,l,1,0.47317530000009356,n,1,0.13030350000008184,RSVPLG01,0.94,2023-09-12-22:22:52,90014,1,Experiment,2023-09-12_15h49.57.046,
8,global,local,3,13,9,165,7,,,171,exp,ETFEHNZUSTYNFSZ,UUFNLEYXZNTZTYF,5,H,X,hH,yY,h,1,0.44091249999974025,n,0,0.08923189999995884,RSVPLG01,0.94,2023-09-12-22:22:52,90014,1,Experiment,2023-09-12_15h49.57.046,
10,global,global,0,13,10,166,9,,,172,exp,TTFLUNFSLHESZEN,TNHSYFTSEEZNHFL,5,U,absent,uU,nN,u,1,0.45089229999985037,n,1,0.27308739999989484,RSVPLG01,0.94,2023-09-12-22:22:52,90014,1,Experiment,2023-09-12_15h49.57.046,
7,global,local,0,13,11,167,6,,,173,exp,HLNZEUTUFTSNSHE,FUNYFULHTSHTLES,4,Z,absent,zZ,nN,z,1,0.36928030000035506,n,1,0.09024169999975129,RSVPLG01,0.94,2023-09-12-22:22:52,90014,1,Experiment,2023-09-12_15h49.57.046,
9,global,local,7,14,0,168,8,,,174,exp,TLHFNHZEYYUFLEU,TUYLSHZULZTXFHE,5,N,X,nN,yY,n,1,0.34973390000004656,n,0,0.06516640000018015,RSVPLG01,0.94,2023-09-12-22:22:52,90014,1,Experiment,2023-09-12_15h49.57.046,
4,local,global,0,14,1,169,3,,,175,exp,HZUYNLZYSUTHSET,NYSUHFYTTENZSEU,6,F,absent,fF,nN,y,0,0.4448843999998644,n,1,0.7534567000002426,RSVPLG01,0.94,2023-09-12-22:22:52,90014,1,Experiment,2023-09-12_15h49.57.046,
4,local,global,0,14,2,170,3,,,176,exp,FTNYZSZTFESUEHU,FNTLHZSENTUFZHE,4,L,absent,lL,nN,l,1,0.308620300000257,n,1,0.14633679999997184,RSVPLG01,0.94,2023-09-12-22:22:52,90014,1,Experiment,2023-09-12_15h49.57.046,
5,local,global,3,14,3,171,4,,,177,exp,HSETFZNXUHZUTYS,TNSYLZSYUHNZEHU,5,L,X,lL,yY,l,1,0.3627865999997084,n,0,0.12226959999998144,RSVPLG01,0.94,2023-09-12-22:22:52,90014,1,Experiment,2023-09-12_15h49.57.046,
2,local,local,3,14,4,172,1,,,178,exp,NYHUEZYLSLFSHUF,FSHNTHSXFYYZZUN,5,T,X,tT,yY,t,1,0.595898699999907,n,0,0.7394408000000112,RSVPLG01,0.94,2023-09-12-22:22:52,90014,1,Experiment,2023-09-12_15h49.57.046,
3,local,local,7,14,5,173,2,,,179,exp,UFYZTYSLNHZFHLN,YFSYESNZZHUXFNL,5,E,X,eE,yY,e,1,0.39391810000006444,y,1,0.018262500000219006,RSVPLG01,0.94,2023-09-12-22:22:52,90014,1,Experiment,2023-09-12_15h49.57.046,
1,local,local,0,14,6,174,0,,,180,exp,YNZTHLZYEHSFFNS,HHFUYLNSZZLFSEN,4,U,absent,uU,nN,u,1,1.4640543999998954,n,1,0.4879737000001114,RSVPLG01,0.94,2023-09-12-22:22:52,90014,1,Experiment,2023-09-12_15h49.57.046,
6,local,global,7,14,7,175,5,,,181,exp,TLLUEYSNNTZXUYH,LTNYFSTUNZUSYZH,5,F,X,fF,yY,f,1,0.47674460000007457,y,1,0.13906520000000455,RSVPLG01,0.94,2023-09-12-22:22:52,90014,1,Experiment,2023-09-12_15h49.57.046,
1,local,local,0,14,8,176,0,,,182,exp,LTETHYFYEZLFZNN,YSLFUZNESTFNZLY,5,U,absent,uU,nN,u,1,0.531996799999888,n,1,0.1096850999997514,RSVPLG01,0.94,2023-09-12-22:22:52,90014,1,Experiment,2023-09-12_15h49.57.046,
7,global,local,0,14,9,177,6,,,183,exp,YLFUTSFSZZLHNYN,UNYNEUHSLZLHSZF,5,T,absent,tT,nN,t,1,0.44842560000006415,n,1,0.11341660000016418,RSVPLG01,0.94,2023-09-12-22:22:52,90014,1,Experiment,2023-09-12_15h49.57.046,
2,local,local,3,14,10,178,1,,,184,exp,TLHLSUZZHFTFYNN,ZHYLEZTXYNUFLTH,5,E,X,eE,yY,e,1,0.31855399999994916,y,1,0.08289299999978539,RSVPLG01,0.94,2023-09-12-22:22:52,90014,1,Experiment,2023-09-12_15h49.57.046,
3,local,local,7,14,11,179,2,,,185,exp,LHFYLNHYZTTEUEF,EEUFHSUFLHZLXTZ,6,S,X,sS,yY,s,1,0.3817245999998704,n,0,0.22607950000019628,RSVPLG01,0.94,2023-09-12-22:22:52,90014,1,Experiment,2023-09-12_15h49.57.046,
9,global,local,7,15,0,180,8,,,186,exp,ZUELSLTEHHYUNZN,TUTHFLHNZNYXUYZ,5,S,X,sS,yY,f,0,0.4400405999999748,y,1,0.08863240000027872,RSVPLG01,0.94,2023-09-12-22:22:52,90014,1,Experiment,2023-09-12_15h49.57.046,
1,local,local,0,15,1,181,0,,,187,exp,NETLHTUNUESYLSZ,EZYLFLUTSZUETNS,5,F,absent,fF,nN,f,1,0.3334874000001946,n,1,0.16156879999971352,RSVPLG01,0.94,2023-09-12-22:22:52,90014,1,Experiment,2023-09-12_15h49.57.046,
11,global,global,3,15,2,182,10,,,188,exp,EEZUZYTTXNFHUFL,NTFZUSHFEUZTENL,6,Y,X,yY,yY,y,1,0.38959780000004685,y,1,0.24048510000011447,RSVPLG01,0.94,2023-09-12-22:22:52,90014,1,Experiment,2023-09-12_15h49.57.046,
5,local,global,3,15,3,183,4,,,189,exp,UFYHEEXLSYTSZTU,TUYNZSEFFYTZLLU,4,N,X,nN,yY,n,1,0.3047698999998829,n,0,0.12947239999994054,RSVPLG01,0.94,2023-09-12-22:22:52,90014,1,Experiment,2023-09-12_15h49.57.046,
11,global,global,3,15,4,184,10,,,190,exp,HSFTSENZXYHTZYF,ZNNSHLYYUZTTFFH,6,E,X,eE,yY,s,0,0.36563070000011066,n,0,0.2053697999999713,RSVPLG01,0.94,2023-09-12-22:22:52,90014,1,Experiment,2023-09-12_15h49.57.046,
7,global,local,0,15,5,185,6,,,191,exp,FSSZNLFLTUTEEYU,LYZTHYEFLSEUFSU,5,N,absent,nN,nN,h,0,0.48274369999990085,n,1,0.13493520000019998,RSVPLG01,0.94,2023-09-12-22:22:52,90014,1,Experiment,2023-09-12_15h49.57.046,
9,global,local,7,15,6,186,8,,,192,exp,TNUSHZEZYESYLLU,YZNTFUELUZEXYNS,5,H,X,hH,yY,h,1,0.7347650000001522,y,1,0.1705789000002369,RSVPLG01,0.94,2023-09-12-22:22:52,90014,1,Experiment,2023-09-12_15h49.57.046,
8,global,local,3,15,7,187,7,,,193,exp,NZLFESENLYHSUYU,NSZTHHXLYYSEZUN,4,F,X,fF,yY,f,1,0.2747122999999192,n,0,0.22403480000002673,RSVPLG01,0.94,2023-09-12-22:22:52,90014,1,Experiment,2023-09-12_15h49.57.046,
12,global,global,7,15,8,188,11,,,194,exp,HLSUZNYZFSUYXTT,YFFSTESHLZUYHUT,6,N,X,nN,yY,n,1,0.3946880000003148,y,1,0.2194577999998728,RSVPLG01,0.94,2023-09-12-22:22:52,90014,1,Experiment,2023-09-12_15h49.57.046,
8,global,local,3,15,9,189,7,,,195,exp,NNZYSEYHLFUZHUF,FNEHTELXUNFUYYZ,5,S,X,sS,yY,e,0,1.6699932999999874,n,0,0.018488799999886396,RSVPLG01,0.94,2023-09-12-22:22:52,90014,1,Experiment,2023-09-12_15h49.57.046,
10,global,global,0,15,10,190,9,,,196,exp,ENFFZTUNYTLLUSY,STULHENFTNEYUFS,5,Z,absent,zZ,nN,z,1,0.3248125000000073,n,1,0.09019749999970372,RSVPLG01,0.94,2023-09-12-22:22:52,90014,1,Experiment,2023-09-12_15h49.57.046,
4,local,global,0,15,11,191,3,,,197,exp,UELUTNHYLNESYHF,YNUEZLLFUSEFHYS,5,Z,absent,zZ,nN,z,1,0.3930509000001621,n,1,0.12477519999993092,RSVPLG01,0.94,2023-09-12-22:22:52,90014,1,Experiment,2023-09-12_15h49.57.046,
7,global,local,0,16,0,192,6,,,198,exp,YNZFHLUTLSSNUYH,ZYSEUNNLTUHLZSY,4,F,absent,fF,nN,f,1,0.35144380000019737,n,1,0.20745609999994485,RSVPLG01,0.94,2023-09-12-22:22:52,90014,1,Experiment,2023-09-12_15h49.57.046,
11,global,global,3,16,1,193,10,,,199,exp,NUNZSTLXTZYUFHL,UTFTEZNYHYZLNFH,5,S,X,sS,yY,e,0,0.32652879999977813,n,0,0.0521668999999747,RSVPLG01,0.94,2023-09-12-22:22:52,90014,1,Experiment,2023-09-12_15h49.57.046,
5,local,global,3,16,2,194,4,,,200,exp,LNSZUHXLYYEEFNU,YNLTSUNHEFSEUHL,4,T,X,tT,yY,t,1,0.38083929999993416,n,0,0.1804736999997658,RSVPLG01,0.94,2023-09-12-22:22:52,90014,1,Experiment,2023-09-12_15h49.57.046,
11,global,global,3,16,3,195,10,,,201,exp,TEZYNETXSUULLYS,EZFLHEYSUUTSTYL,5,N,X,nN,yY,n,1,0.6657930000001215,n,0,0.0426673000001756,RSVPLG01,0.94,2023-09-12-22:22:52,90014,1,Experiment,2023-09-12_15h49.57.046,
3,local,local,7,16,4,196,2,,,202,exp,YLUFLNHZZHSEUNS,ZYUTSLNLUHXHSNE,4,T,X,tT,yY,t,1,0.3658258000000387,y,1,0.2465876000001117,RSVPLG01,0.94,2023-09-12-22:22:52,90014,1,Experiment,2023-09-12_15h49.57.046,
2,local,local,3,16,5,197,1,,,203,exp,SUZELHZFFESTNNL,ESTFUYSUXTNFZNE,6,Y,X,yY,yY,y,1,0.4096233000000211,y,1,0.31610060000002704,RSVPLG01,0.94,2023-09-12-22:22:52,90014,1,Experiment,2023-09-12_15h49.57.046,
4,local,global,0,16,6,198,3,,,204,exp,SHSLYZTTFUNNHZY,UNYEUTZSZFNFYSH,4,E,absent,eE,nN,e,1,0.6802732000005562,n,1,0.09885699999995268,RSVPLG01,0.94,2023-09-12-22:22:52,90014,1,Experiment,2023-09-12_15h49.57.046,
2,local,local,3,16,7,199,1,,,205,exp,LYFZHTUNEZNFLTE,ZLUZSTNXYTNFYFU,5,S,X,sS,yY,s,1,0.33537470000010217,y,1,0.2001921000000948,RSVPLG01,0.94,2023-09-12-22:22:52,90014,1,Experiment,2023-09-12_15h49.57.046,
9,global,local,7,16,8,200,8,,,206,exp,SEYFTNHSTEYHLZL,TTFELUYSZELZXFH,6,N,X,nN,yY,u,0,0.44159510000008595,n,0,0.1224713999999949,RSVPLG01,0.94,2023-09-12-22:22:52,90014,1,Experiment,2023-09-12_15h49.57.046,
5,local,global,3,16,9,201,4,,,207,exp,SSYLZUXUHZNNYTF,NUYESZFSZHNTYHF,4,E,X,eE,yY,e,1,0.3328669999991689,n,0,0.1136421999999584,RSVPLG01,0.94,2023-09-12-22:22:52,90014,1,Experiment,2023-09-12_15h49.57.046,
11,global,global,3,16,10,202,10,,,208,exp,FZSFLUNYXZTSLYH,YHNLNEZYZLFHTTS,6,U,X,uU,yY,u,1,0.3628342000001794,y,1,0.09161949999997887,RSVPLG01,0.94,2023-09-12-22:22:52,90014,1,Experiment,2023-09-12_15h49.57.046,
5,local,global,3,16,11,203,4,,,209,exp,NZFLYYXUHZTSFNH,NZTEUSHNUTFHFYZ,4,E,X,eE,yY,e,1,0.3869278000001941,n,0,0.3106454999997368,RSVPLG01,0.94,2023-09-12-22:22:52,90014,1,Experiment,2023-09-12_15h49.57.046,
1,local,local,0,17,0,204,0,,,210,exp,HSNEUYSYLLZFUHN,LFHTHYFZUNSZUSL,4,T,absent,tT,nN,t,1,0.2770320999998148,n,1,0.1880907999993724,RSVPLG01,0.94,2023-09-12-22:22:52,90014,1,Experiment,2023-09-12_15h49.57.046,
9,global,local,7,17,1,205,8,,,211,exp,HFENSFYHUELTTUL,HEFZTTLFUYXESUL,4,N,X,nN,yY,n,1,0.3315535000001546,y,1,0.20900750000055268,RSVPLG01,0.94,2023-09-12-22:22:52,90014,1,Experiment,2023-09-12_15h49.57.046,
7,global,local,0,17,2,206,6,,,212,exp,SETZEYUSNFLULTF,UNUHELTLTESYYNF,4,Z,absent,zZ,nN,z,1,0.309570999999778,n,1,0.12877840000055585,RSVPLG01,0.94,2023-09-12-22:22:52,90014,1,Experiment,2023-09-12_15h49.57.046,
2,local,local,3,17,3,207,1,,,213,exp,STNEHUYLEZNZHLY,EENYYFHZXLZTSTS,6,F,X,fF,yY,e,0,0.3817552999998952,n,0,0.16282720000072004,RSVPLG01,0.94,2023-09-12-22:22:52,90014,1,Experiment,2023-09-12_15h49.57.046,
10,global,global,0,17,4,208,9,,,214,exp,ETLYHFZZNTNSEFS,FLSEUSNTNLZYFYE,5,H,absent,hH,nN,h,1,0.24194330000045738,n,1,0.08219309999913094,RSVPLG01,0.94,2023-09-12-22:22:52,90014,1,Experiment,2023-09-12_15h49.57.046,
1,local,local,0,17,5,209,0,,,215,exp,ZNYTFUUHLNZSYLH,ZSNHETYYHLSLUUT,5,E,absent,eE,nN,e,1,0.34116370000083407,n,1,0.0897715999999491,RSVPLG01,0.94,2023-09-12-22:22:52,90014,1,Experiment,2023-09-12_15h49.57.046,
9,global,local,7,17,6,210,8,,,216,exp,HHSSZFTYUYLEUTZ,EHZLTNYSYHZUXUT,6,F,X,fF,yY,f,1,0.37031879999995,y,1,0.11595050000050833,RSVPLG01,0.94,2023-09-12-22:22:52,90014,1,Experiment,2023-09-12_15h49.57.046,
8,global,local,3,17,7,211,7,,,217,exp,NTNELHUZLUYSYTH,SZLFYHXYZNHNSUT,4,E,X,eE,yY,h,0,0.77155219999986,n,0,0.20726610000019718,RSVPLG01,0.94,2023-09-12-22:22:52,90014,1,Experiment,2023-09-12_15h49.57.046,
11,global,global,3,17,8,212,10,,,218,exp,ZLSFYULXUTESZEF,FSZHNUFSHELLUTZ,5,Y,X,yY,yY,y,1,0.5801810000002661,y,1,0.1381213000004209,RSVPLG01,0.94,2023-09-12-22:22:52,90014,1,Experiment,2023-09-12_15h49.57.046,
7,global,local,0,17,9,213,6,,,219,exp,LYZSUNELZFEYHUN,HYETFYLZNHZENLU,4,S,absent,sS,nN,s,1,0.31361139999989973,y,0,0.45248000000083266,RSVPLG01,0.94,2023-09-12-22:22:52,90014,1,Experiment,2023-09-12_15h49.57.046,
4,local,global,0,17,10,214,3,,,220,exp,ZSNHEHYSNUTFTFZ,SSYNLTUHYZHFUFZ,5,L,absent,lL,nN,l,1,0.3108941999998933,n,1,0.19376439999996364,RSVPLG01,0.94,2023-09-12-22:22:52,90014,1,Experiment,2023-09-12_15h49.57.046,
8,global,local,3,17,11,215,7,,,221,exp,UZEHNTUELFNLFTZ,ELTYUSXZLFUNSET,4,H,X,hH,yY,y,0,0.4877008000003116,n,0,0.38726600000063627,RSVPLG01,0.94,2023-09-12-22:22:52,90014,1,Experiment,2023-09-12_15h49.57.046,
4,local,global,0,18,0,216,3,,,222,exp,FNTSLZFUZYNHTUS,TNYSEFUHNFYZZTS,5,E,absent,eE,nN,e,1,0.26193530000000464,y,0,0.07756410000001779,RSVPLG01,0.94,2023-09-12-22:22:52,90014,1,Experiment,2023-09-12_15h49.57.046,
9,global,local,7,18,1,217,8,,,223,exp,UYLLNUFZZFYTTSS,UTLSEFHZHZTXLUF,5,N,X,nN,yY,e,0,0.2976506999993944,n,0,0.10565989999940939,RSVPLG01,0.94,2023-09-12-22:22:52,90014,1,Experiment,2023-09-12_15h49.57.046,
3,local,local,7,18,2,218,2,,,224,exp,UYULESZFSHNFYEH,FZSTUHZNYFXSNHY,4,T,X,tT,yY,t,1,0.3205870000001596,y,1,0.17018450000068697,RSVPLG01,0.94,2023-09-12-22:22:52,90014,1,Experiment,2023-09-12_15h49.57.046,
4,local,global,0,18,3,219,3,,,225,exp,YTUEYSZUFFNTHZS,NSTLUZUHYFZFNYS,4,L,absent,lL,nN,l,1,0.25213779999921826,n,1,0.36391009999988455,RSVPLG01,0.94,2023-09-12-22:22:52,90014,1,Experiment,2023-09-12_15h49.57.046,
3,local,local,7,18,4,220,2,,,226,exp,TLEHLSFSFZYNEZY,NNTUTSFELLXZSYZ,4,U,X,uU,yY,u,1,0.38412999999945896,y,1,0.07374729999992269,RSVPLG01,0.94,2023-09-12-22:22:52,90014,1,Experiment,2023-09-12_15h49.57.046,
9,global,local,7,18,5,221,8,,,227,exp,ENZHTUYNEFYTHSZ,ZTTSZLHYFNSFXEE,6,U,X,uU,yY,u,1,0.3680363000003126,n,0,0.11416319999989355,RSVPLG01,0.94,2023-09-12-22:22:52,90014,1,Experiment,2023-09-12_15h49.57.046,
5,local,global,3,18,6,222,4,,,228,exp,SLFYNFXZTETUSEZ,LSUHNTEFUTFZZEN,4,H,X,hH,yY,h,1,0.38444739999977173,y,1,0.11435939999955735,RSVPLG01,0.94,2023-09-12-22:22:52,90014,1,Experiment,2023-09-12_15h49.57.046,
3,local,local,7,18,7,223,2,,,229,exp,UUYTLYHNNHZSSZL,LZNEUHSHYLXNUZY,4,E,X,eE,yY,e,1,0.3411156000001938,y,1,0.23550109999996494,RSVPLG01,0.94,2023-09-12-22:22:52,90014,1,Experiment,2023-09-12_15h49.57.046,
5,local,global,3,18,8,224,4,,,230,exp,UHESZLTYXEZYFFT,STFHENHEZZUFYTY,6,N,X,nN,yY,n,1,0.41883880000023055,n,0,2.106767299999774,RSVPLG01,0.94,2023-09-12-22:22:52,90014,1,Experiment,2023-09-12_15h49.57.046,
12,global,global,7,18,9,225,11,,,231,exp,UYYFZTSFNNLZXHH,LLUSZENHHFYSNYF,6,T,X,tT,yY,t,1,0.37941570000020874,y,1,0.18597020000015618,RSVPLG01,0.94,2023-09-12-22:22:52,90014,1,Experiment,2023-09-12_15h49.57.046,
9,global,local,7,18,10,226,8,,,232,exp,ULSYNEETSTUFLNZ,SFLHNZFTUUXNTLE,4,Y,X,yY,yY,y,1,0.6992864000003465,y,1,0.10828779999974358,RSVPLG01,0.94,2023-09-12-22:22:52,90014,1,Experiment,2023-09-12_15h49.57.046,
3,local,local,7,18,11,227,2,,,233,exp,NYTUYZLFZTHSLFS,TYNELHLFTHXZYSZ,4,E,X,eE,yY,e,1,0.3264750999996977,y,1,0.1265785000005053,RSVPLG01,0.94,2023-09-12-22:22:52,90014,1,Experiment,2023-09-12_15h49.57.046,
1,local,local,0,19,0,228,0,,,234,exp,FEYHHTELZZFYULS,LFSUFNZELEZUSYH,6,N,absent,nN,nN,n,1,0.4524074999999357,n,1,0.0900828999992882,RSVPLG01,0.94,2023-09-12-22:22:52,90014,1,Experiment,2023-09-12_15h49.57.046,
6,local,global,7,19,1,229,5,,,235,exp,NHUYZULFTYSXFLS,LYNNEFLUSTFTUYH,5,E,X,eE,yY,e,1,0.357800199999474,y,1,0.15671829999973852,RSVPLG01,0.94,2023-09-12-22:22:52,90014,1,Experiment,2023-09-12_15h49.57.046,
5,local,global,3,19,2,230,4,,,236,exp,HZHYLEFXSTTSNNE,NYYFUSZTZHTNEEF,5,U,X,uU,yY,u,1,0.3464780999993309,y,1,0.12043330000051355,RSVPLG01,0.94,2023-09-12-22:22:52,90014,1,Experiment,2023-09-12_15h49.57.046,
4,local,global,0,19,3,231,3,,,237,exp,YLLHEFSNSYZUUHZ,HLHFTNZULSYZNUF,5,T,absent,tT,nN,t,1,0.3579220000001442,n,1,0.08496759999979986,RSVPLG01,0.94,2023-09-12-22:22:52,90014,1,Experiment,2023-09-12_15h49.57.046,
6,local,global,7,19,4,232,5,,,238,exp,NUELEZTSNYSYXTH,TTENHFYLHLSNESU,6,F,X,fF,yY,z,0,0.29788860000007844,n,0,0.07295960000010382,RSVPLG01,0.94,2023-09-12-22:22:52,90014,1,Experiment,2023-09-12_15h49.57.046,
7,global,local,0,19,5,233,6,,,239,exp,TENZFLLSUUENYZS,YSNYHSELLTUUENZ,5,F,absent,fF,nN,f,1,0.9495149000003948,n,1,0.10561409999991156,RSVPLG01,0.94,2023-09-12-22:22:52,90014,1,Experiment,2023-09-12_15h49.57.046,
2,local,local,3,19,6,234,1,,,240,exp,ZEZHFSSHTENNYTL,YZNLUTTXSLHEHNZ,5,U,X,uU,yY,u,1,0.2963435000001482,y,1,0.09255889999985811,RSVPLG01,0.94,2023-09-12-22:22:52,90014,1,Experiment,2023-09-12_15h49.57.046,
5,local,global,3,19,7,235,4,,,241,exp,HFZNUYXLLHSUFSZ,SYTEZZUHUFFTLYL,4,E,X,eE,yY,e,1,0.3401430000003529,n,0,0.1081371999998737,RSVPLG01,0.94,2023-09-12-22:22:52,90014,1,Experiment,2023-09-12_15h49.57.046,
3,local,local,7,19,8,236,2,,,242,exp,NTUHSEHSNZZULTF,SLFNTYUSHLFZXUT,6,Y,X,yY,yY,y,1,0.5202714999995806,y,1,0.1184690000000046,RSVPLG01,0.94,2023-09-12-22:22:52,90014,1,Experiment,2023-09-12_15h49.57.046,
12,global,global,7,19,9,237,11,,,243,exp,TUZNHEUSSELXZLN,UZLSFYZNTSEULYE,5,H,X,hH,yY,h,1,0.40831859999980225,y,1,0.1311900999999125,RSVPLG01,0.94,2023-09-12-22:22:52,90014,1,Experiment,2023-09-12_15h49.57.046,
6,local,global,7,19,10,238,5,,,244,exp,FYFZZUEEHNSHXSN,NLLHNTZYSSZEEFH,6,T,X,tT,yY,t,1,0.4507242999998198,y,1,0.36107889999948384,RSVPLG01,0.94,2023-09-12-22:22:52,90014,1,Experiment,2023-09-12_15h49.57.046,
10,global,global,0,19,11,239,9,,,245,exp,TEHUHYELNYNTZSS,LSEFLYNNZSEZTHT,4,U,absent,uU,nN,u,1,0.3422702999996545,n,1,0.09566429999995307,RSVPLG01,0.94,2023-09-12-22:22:52,90014,1,Experiment,2023-09-12_15h49.57.046,
