row,t1_level,t2_level,t2_lag,.thisRepN,.thisTrialN,.thisN,.thisIndex,thisRow.t,notes,trial,trial_type,global_letters,local_letters,t1_pos,t1,t2,t1_corr,t2_corr,t1_resp,t1_acc,t1_rt,t2_resp,t2_acc,t2_rt,exp,ver,mod-utc,sub,sess,blocktyp,datetime
6,local,global,7,0,0,0,5,,,1,warmup,FLYHNSZTEZXYSFE,YLLUFESSNNEZFTZ,4,U,X,uU,yY,h,0,0.881455389,y,1,0.055946989,RSVPLG01,0.94,2023-09-12-22:58:04,903,1,Experiment,2023-09-12_16h01.50.141
8,global,local,3,0,1,1,7,,,2,warmup,LHEHSELYUNYUTTZ,UYTHFENXLZZHETN,5,S,X,sS,yY,s,1,0.80101122,y,1,0.02315857,RSVPLG01,0.94,2023-09-12-22:58:04,903,1,Experiment,2023-09-12_16h01.50.141
2,local,local,3,0,2,2,1,,,3,warmup,TTFNEUNUYZLSSZF,NFYZHLYXFTUNUSL,5,H,X,hH,yY,h,1,0.925794091,n,0,0.33327334,RSVPLG01,0.94,2023-09-12-22:58:04,903,1,Experiment,2023-09-12_16h01.50.141
1,local,local,0,0,3,3,0,,,4,warmup,LSEUHHTEYTYLZSN,LHZFLYZYETNSNEH,4,F,absent,fF,nN,f,1,0.770077324,n,1,0.816360807,RSVPLG01,0.94,2023-09-12-22:58:04,903,1,Experiment,2023-09-12_16h01.50.141
10,global,global,0,0,4,4,9,,,5,warmup,HFLTYUSZFTNSHZY,LTFTYESYZHZNNHS,6,U,absent,uU,nN,u,1,0.752404213,n,1,0.350643516,RSVPLG01,0.94,2023-09-12-22:58:04,903,1,Experiment,2023-09-12_16h01.50.141
4,local,global,0,0,0,0,3,,,6,exp,ZSEFSLTEULNTUNY,TSEHZZLUSLTYNEU,4,H,absent,hH,nN,h,1,0.802653062,n,1,0.270652651,RSVPLG01,0.94,2023-09-12-22:58:04,903,1,Experiment,2023-09-12_16h01.50.141
12,global,global,7,0,1,1,11,,,7,exp,ZSEUHYESLFXYNFL,ZYFTLSHNENSFHZE,4,U,X,uU,yY,u,1,0.725238083,y,1,0.055496846,RSVPLG01,0.94,2023-09-12-22:58:04,903,1,Experiment,2023-09-12_16h01.50.141
4,local,global,0,0,2,2,3,,,8,exp,ENULUTSSFNYYLHH,ULYHEZLEFUNYHNS,6,Z,absent,zZ,nN,t,0,0.744643403,y,0,0.238749098,RSVPLG01,0.94,2023-09-12-22:58:04,903,1,Experiment,2023-09-12_16h01.50.141
1,local,local,0,0,3,3,0,,,9,exp,SHLTETHFLZFSZNU,HZFUYTSLUSNFTHZ,5,Y,absent,yY,nN,e,0,1.890491972,n,1,0.321224111,RSVPLG01,0.94,2023-09-12-22:58:04,903,1,Experiment,2023-09-12_16h01.50.141
12,global,global,7,0,4,4,11,,,10,exp,LYEYFZLFHNUEXNH,FHUFUTYNSNESLLE,6,Z,X,zZ,yY,z,1,0.604213408,y,1,0.276826167,RSVPLG01,0.94,2023-09-12-22:58:04,903,1,Experiment,2023-09-12_16h01.50.141
11,global,global,3,0,5,5,10,,,11,exp,HSYTLZNXUETYHZU,UTHUFEEZNTHYZNS,5,L,X,lL,yY,l,1,0.655890971,y,1,0.160575407,RSVPLG01,0.94,2023-09-12-22:58:04,903,1,Experiment,2023-09-12_16h01.50.141
11,global,global,3,0,6,6,10,,,12,exp,ZYTNTSLLXUEYNHZ,HZYUUFNNYZETLHL,6,S,X,sS,yY,s,1,0.663348318,y,1,0.033420865,RSVPLG01,0.94,2023-09-12-22:58:04,903,1,Experiment,2023-09-12_16h01.50.141
9,global,local,7,0,7,7,8,,,13,exp,UYLUSLZZFEFNYTN,FZTEHYFLUENXZUN,5,S,X,sS,yY,s,1,1.554194547,y,1,1.197891217,RSVPLG01,0.94,2023-09-12-22:58:04,903,1,Experiment,2023-09-12_16h01.50.141
1,local,local,0,0,8,8,0,,,14,exp,LUFSEHZEYYFTLTZ,TTSESNUZEFYYULZ,6,N,absent,nN,nN,n,1,0.749063405,y,0,1.616127386,RSVPLG01,0.94,2023-09-12-22:58:04,903,1,Experiment,2023-09-12_16h01.50.141
10,global,global,0,0,9,9,9,,,15,exp,ZUZHENTEYFUYTFH,YZSHFLUEUEHFZTY,6,N,absent,nN,nN,n,1,0.819393312,n,1,0.230790464,RSVPLG01,0.94,2023-09-12-22:58:04,903,1,Experiment,2023-09-12_16h01.50.141
11,global,global,3,0,10,10,10,,,16,exp,EFYUSZXFEHSNTYH,NSTLFYHZEFHSTYE,4,U,X,uU,yY,l,0,0.602093426,n,0,0.303265032,RSVPLG01,0.94,2023-09-12-22:58:04,903,1,Experiment,2023-09-12_16h01.50.141
10,global,global,0,0,11,11,9,,,17,exp,LSUUYNEZLSFHHNZ,UFESTFHNUNEZLLS,5,Y,absent,yY,nN,y,1,0.797501951,n,1,0.08247532,RSVPLG01,0.94,2023-09-12-22:58:04,903,1,Experiment,2023-09-12_16h01.50.141
10,global,global,0,1,0,12,9,,,18,exp,STNFSEZTNHYYFHZ,ZFNTYLNSUHFZYST,6,E,absent,eE,nN,f,0,1.086102848,n,1,0.594855001,RSVPLG01,0.94,2023-09-12-22:58:04,903,1,Experiment,2023-09-12_16h01.50.141
11,global,global,3,1,1,13,10,,,19,exp,NHELFEUXYUSHTTN,NSYNZYLUTSUETEL,5,F,X,fF,yY,f,1,1.452957414,y,1,0.24154077,RSVPLG01,0.94,2023-09-12-22:58:04,903,1,Experiment,2023-09-12_16h01.50.141
6,local,global,7,1,2,14,5,,,20,exp,USETSFTYNUNZXLL,TYUZTHENSYNLULZ,6,H,X,hH,yY,h,1,0.937015064,y,1,0.012788538,RSVPLG01,0.94,2023-09-12-22:58:04,903,1,Experiment,2023-09-12_16h01.50.141
3,local,local,7,1,3,15,2,,,21,exp,LZSUEFSFTYZLHHY,FUHLNUTHYFSXYZL,5,N,X,nN,yY,e,0,1.215281184,y,1,0.961944203,RSVPLG01,0.94,2023-09-12-22:58:04,903,1,Experiment,2023-09-12_16h01.50.141
10,global,global,0,1,4,16,9,,,22,exp,YNFEUTSNLULYSHF,SHUZFYLTSUTNHYL,4,E,absent,eE,nN,e,1,0.975964686,y,0,0.560309811,RSVPLG01,0.94,2023-09-12-22:58:04,903,1,Experiment,2023-09-12_16h01.50.141
1,local,local,0,1,5,17,0,,,23,exp,NZYETLYHSUEUNSH,SZHUFLNYYHLSZNE,5,F,absent,fF,nN,f,1,3.819115518,y,0,0.883494307,RSVPLG01,0.94,2023-09-12-22:58:04,903,1,Experiment,2023-09-12_16h01.50.141
8,global,local,3,1,6,18,7,,,24,exp,NLLHZEZTSEUUTSY,UYTFNLXUNYZSTEE,4,H,X,hH,yY,h,1,0.566238519,y,1,0.07559077,RSVPLG01,0.94,2023-09-12-22:58:04,903,1,Experiment,2023-09-12_16h01.50.141
2,local,local,3,1,7,19,1,,,25,exp,TFNFSENTHHLELYZ,NZETUTFXYFHHZYN,5,U,X,uU,yY,u,1,0.524082536,y,1,0.044905996,RSVPLG01,0.94,2023-09-12-22:58:04,903,1,Experiment,2023-09-12_16h01.50.141
3,local,local,7,1,8,20,2,,,26,exp,UEFLSHNFLETUNYT,HHFYZUENLTLXYTF,5,Z,X,zZ,yY,y,0,1.110381134,y,1,0.035740184,RSVPLG01,0.94,2023-09-12-22:58:04,903,1,Experiment,2023-09-12_16h01.50.141
8,global,local,3,1,9,21,7,,,27,exp,ZEYHNFLUSHZFULE,HUFYTFZXELHYZSE,5,N,X,nN,yY,n,1,0.81481808,y,1,0.235718509,RSVPLG01,0.94,2023-09-12-22:58:04,903,1,Experiment,2023-09-12_16h01.50.141
4,local,global,0,1,10,22,3,,,28,exp,ULFEHYFNUZNSZLS,LUUETSNYZFYFSNE,5,T,absent,tT,nN,t,1,0.729129261,y,0,0.331197744,RSVPLG01,0.94,2023-09-12-22:58:04,903,1,Experiment,2023-09-12_16h01.50.141
1,local,local,0,1,11,23,0,,,29,exp,EYYHUNSLHTUTZEZ,YUZZHFETYSSHELT,6,F,absent,fF,nN,f,1,1.157992436,n,1,0.615479548,RSVPLG01,0.94,2023-09-12-22:58:04,903,1,Experiment,2023-09-12_16h01.50.141
12,global,global,7,2,0,24,11,,,30,exp,FTFYUSLSYZLXTHZ,ESTYNSZLYFLEHFT,5,U,X,uU,yY,y,0,1.421582277,y,1,0.042949278,RSVPLG01,0.94,2023-09-12-22:58:04,903,1,Experiment,2023-09-12_16h01.50.141
8,global,local,3,2,1,25,7,,,31,exp,YEZYFNLETZLFUUS,YFLUEHYZXTTFELS,6,N,X,nN,yY,n,1,1.059697749,n,0,0.258862755,RSVPLG01,0.94,2023-09-12-22:58:04,903,1,Experiment,2023-09-12_16h01.50.141
11,global,global,3,2,2,26,10,,,32,exp,YZYLZTHUXUSEFFE,ZYEUENHFFYSSLUL,6,T,X,tT,yY,t,1,0.619548744,n,0,0.426225007,RSVPLG01,0.94,2023-09-12-22:58:04,903,1,Experiment,2023-09-12_16h01.50.141
5,local,global,3,2,3,27,4,,,33,exp,YFTNUZUNXHTLYFH,TTHYYSNUULEFFHL,6,S,X,sS,yY,s,1,0.794947851,y,1,0.398950138,RSVPLG01,0.94,2023-09-12-22:58:04,903,1,Experiment,2023-09-12_16h01.50.141
2,local,local,3,2,4,28,1,,,34,exp,HELSTFZSYZHYENL,LEYLHUTEXHSNSTZ,6,U,X,uU,yY,u,1,0.837288218,y,1,0.869286428,RSVPLG01,0.94,2023-09-12-22:58:04,903,1,Experiment,2023-09-12_16h01.50.141
7,global,local,0,2,5,29,6,,,35,exp,SNEEYHSYLZZNFLT,FNFZTULSEZYNYEL,6,H,absent,hH,nN,y,0,0.827510758,n,1,0.231814823,RSVPLG01,0.94,2023-09-12-22:58:04,903,1,Experiment,2023-09-12_16h01.50.141
5,local,global,3,2,6,30,4,,,36,exp,HYEHFULEXTLFTSN,ESTTLZSENYHNFLY,6,Z,X,zZ,yY,u,0,0.951545652,y,1,0.698503757,RSVPLG01,0.94,2023-09-12-22:58:04,903,1,Experiment,2023-09-12_16h01.50.141
2,local,local,3,2,7,31,1,,,37,exp,FTTULSHLYEZHFEY,ELFYLNHUXZTUEHY,6,N,X,nN,yY,z,0,0.742410142,y,1,0.136838837,RSVPLG01,0.94,2023-09-12-22:58:04,903,1,Experiment,2023-09-12_16h01.50.141
3,local,local,7,2,8,32,2,,,38,exp,YSSLHFHZZTTNEFE,SYTUZZEYFSXFHTH,4,U,X,uU,yY,l,0,0.773323159,y,1,0.05861421,RSVPLG01,0.94,2023-09-12-22:58:04,903,1,Experiment,2023-09-12_16h01.50.141
10,global,global,0,2,9,33,9,,,39,exp,SUZYLTENULESZNH,EUNESFHZYYUHLZN,6,T,absent,tT,nN,f,0,1.232446558,n,1,0.998672272,RSVPLG01,0.94,2023-09-12-22:58:04,903,1,Experiment,2023-09-12_16h01.50.141
4,local,global,0,2,10,34,3,,,40,exp,HLSNUYSEYZTZUTH,TSHFHULZTESLYEZ,4,F,absent,fF,nN,f,1,0.888424139,n,1,0.640620841,RSVPLG01,0.94,2023-09-12-22:58:04,903,1,Experiment,2023-09-12_16h01.50.141
6,local,global,7,2,11,35,5,,,41,exp,EZHUSTHYYLXLZEF,HSFNSLHZYTLFZYE,4,N,X,nN,yY,n,1,0.597470156,y,1,0.100098773,RSVPLG01,0.94,2023-09-12-22:58:04,903,1,Experiment,2023-09-12_16h01.50.141
5,local,global,3,3,0,36,4,,,42,exp,HYLSHNLSXTEUUYZ,ESTYHFHZLTSLUYU,6,F,X,fF,yY,f,1,0.854368806,y,1,0.468573287,RSVPLG01,0.94,2023-09-12-22:58:04,903,1,Experiment,2023-09-12_16h01.50.141
7,global,local,0,3,1,37,6,,,43,exp,SUYLZEEULHYHSTT,SSYNFYTULEHENHT,5,Z,absent,zZ,nN,z,1,0.76670175,n,1,0.127938177,RSVPLG01,0.94,2023-09-12-22:58:04,903,1,Experiment,2023-09-12_16h01.50.141
9,global,local,7,3,2,38,8,,,44,exp,SEUZELHHUNFNTSZ,EHTZEYNUSTNZXHF,6,L,X,lL,yY,y,0,1.122546831,y,1,0.058087328,RSVPLG01,0.94,2023-09-12-22:58:04,903,1,Experiment,2023-09-12_16h01.50.141
6,local,global,7,3,3,39,5,,,45,exp,NNELZSUHSUFXHEY,NNFSTHLYHEUSEYL,5,T,X,tT,yY,z,0,0.783023372,y,1,0.019424744,RSVPLG01,0.94,2023-09-12-22:58:04,903,1,Experiment,2023-09-12_16h01.50.141
1,local,local,0,3,4,40,0,,,46,exp,YULTZYLHSESUNHT,NNTYFSLYUEUHLTH,5,F,absent,fF,nN,s,0,1.298360507,n,1,0.490602344,RSVPLG01,0.94,2023-09-12-22:58:04,903,1,Experiment,2023-09-12_16h01.50.141
9,global,local,7,3,5,41,8,,,47,exp,LFNSYTHSUTELEUH,NTSHZLLNSFUXFEE,5,Y,X,yY,yY,y,1,0.793763779,y,1,0.899337902,RSVPLG01,0.94,2023-09-12-22:58:04,903,1,Experiment,2023-09-12_16h01.50.141
9,global,local,7,3,6,42,8,,,48,exp,HHLYUFYFSSTZELZ,EZLTNYZYFESXTFH,5,U,X,uU,yY,u,1,0.899409693,y,1,0.091066832,RSVPLG01,0.94,2023-09-12-22:58:04,903,1,Experiment,2023-09-12_16h01.50.141
6,local,global,7,3,7,43,5,,,49,exp,ELZFYSZFNLTHXHY,TNEFZUYEHLTHLYZ,6,U,X,uU,yY,h,0,1.969772505,y,1,0.584437813,RSVPLG01,0.94,2023-09-12-22:58:04,903,1,Experiment,2023-09-12_16h01.50.141
1,local,local,0,3,8,44,0,,,50,exp,LLTZUNZYNETSYHS,LTNHFYTZZSHLENY,5,F,absent,fF,nN,f,1,2.393684597,n,1,0.543004819,RSVPLG01,0.94,2023-09-12-22:58:04,903,1,Experiment,2023-09-12_16h01.50.141
8,global,local,3,3,9,45,7,,,51,exp,YSSFFZLNHYNHELU,FEEFLTUNXYSSHNL,6,Z,X,zZ,yY,z,1,0.717734204,y,1,0.223823147,RSVPLG01,0.94,2023-09-12-22:58:04,903,1,Experiment,2023-09-12_16h01.50.141
6,local,global,7,3,10,46,5,,,52,exp,TNUYNFYESZTLXLE,LZLTUHUNNSSTYYZ,6,H,X,hH,yY,f,0,0.543229398,y,1,0.495419215,RSVPLG01,0.94,2023-09-12-22:58:04,903,1,Experiment,2023-09-12_16h01.50.141
1,local,local,0,3,11,47,0,,,53,exp,YFLLYHFSNSZUUZT,YFZSNEZYFUUTLNS,6,E,absent,eE,nN,e,1,0.762909662,n,1,0.218475396,RSVPLG01,0.94,2023-09-12-22:58:04,903,1,Experiment,2023-09-12_16h01.50.141
1,local,local,0,4,0,48,0,,,54,exp,SHSLZYFUHFLUZEN,SSEZUTFELHNLHZN,6,T,absent,tT,nN,y,0,0.771730394,n,1,0.035106854,RSVPLG01,0.94,2023-09-12-22:58:04,903,1,Experiment,2023-09-12_16h01.50.141
12,global,global,7,4,1,49,11,,,55,exp,THFSZFHUTLNXYSN,UTSTEYFHNSNLFUH,5,Z,X,zZ,yY,z,1,0.73922468,y,1,0.048863798,RSVPLG01,0.94,2023-09-12-22:58:04,903,1,Experiment,2023-09-12_16h01.50.141
4,local,global,0,4,2,50,3,,,56,exp,TFYHYSLETNUENUH,THLEFZHNUFNLUYY,6,Z,absent,zZ,nN,y,0,2.067530536,n,1,0.208166765,RSVPLG01,0.94,2023-09-12-22:58:04,903,1,Experiment,2023-09-12_16h01.50.141
1,local,local,0,4,3,51,0,,,57,exp,YELNHSUUYZZEFNL,LFSUTENFYSUYNZZ,5,T,absent,tT,nN,t,1,0.904943252,n,1,0.088450632,RSVPLG01,0.94,2023-09-12-22:58:04,903,1,Experiment,2023-09-12_16h01.50.141
11,global,global,3,4,4,52,10,,,58,exp,HSLYSNXFTZLNTHZ,SLUEHTTZSNHZLFU,4,Y,X,yY,yY,u,0,2.295628307,n,0,0.124873441,RSVPLG01,0.94,2023-09-12-22:58:04,903,1,Experiment,2023-09-12_16h01.50.141
7,global,local,0,4,5,53,6,,,59,exp,SZFTYSZFUULYNNL,YNFHSLSYLNFEZUZ,4,T,absent,tT,nN,y,0,0.894585093,y,0,0.003627177,RSVPLG01,0.94,2023-09-12-22:58:04,903,1,Experiment,2023-09-12_16h01.50.141
9,global,local,7,4,6,54,8,,,60,exp,ENLFTLYUEUYNSZS,UELYHEZFNUNXLYS,5,T,X,tT,yY,t,1,0.647358497,y,1,0.047657923,RSVPLG01,0.94,2023-09-12-22:58:04,903,1,Experiment,2023-09-12_16h01.50.141
6,local,global,7,4,7,55,5,,,61,exp,FZHTNSYSYZLXFTH,EFHLUZESHYTZFST,5,U,X,uU,yY,u,1,0.910256752,y,1,0.001025298,RSVPLG01,0.94,2023-09-12-22:58:04,903,1,Experiment,2023-09-12_16h01.50.141
8,global,local,3,4,8,56,7,,,62,exp,TYLUZHSFHYFULTS,SNUYEYTXLNUSFFL,5,Z,X,zZ,yY,z,1,0.674673468,y,1,1.004580037,RSVPLG01,0.94,2023-09-12-22:58:04,903,1,Experiment,2023-09-12_16h01.50.141
11,global,global,3,4,9,57,10,,,63,exp,FZUFLNZXTYSTNYE,ZSTNHFUTUZESEFN,5,L,X,lL,yY,f,0,1.402160537,y,1,0.50044675,RSVPLG01,0.94,2023-09-12-22:58:04,903,1,Experiment,2023-09-12_16h01.50.141
4,local,global,0,4,10,58,3,,,64,exp,TEHEFZYUZTLYLSH,YLHUNZETLSYHESZ,5,N,absent,nN,nN,n,1,0.798560368,n,1,0.416663541,RSVPLG01,0.94,2023-09-12-22:58:04,903,1,Experiment,2023-09-12_16h01.50.141
8,global,local,3,4,11,59,7,,,65,exp,LFNLUHNSFYZUYZT,NFNUYETLXZZSYSF,6,H,X,hH,yY,h,1,0.459743304,y,1,0.021388141,RSVPLG01,0.94,2023-09-12-22:58:04,903,1,Experiment,2023-09-12_16h01.50.141
12,global,global,7,5,0,60,11,,,66,exp,TFEZNSLHFHXUEUN,EUFYNHULLFNHTSE,4,Z,X,zZ,yY,z,1,0.922626805,y,1,0.025052521,RSVPLG01,0.94,2023-09-12-22:58:04,903,1,Experiment,2023-09-12_16h01.50.141
3,local,local,7,5,1,61,2,,,67,exp,HUSZNELFLZFTUHN,FNZNLYTSHSTZXHU,6,Y,X,yY,yY,y,1,0.825168248,y,1,0.027779626,RSVPLG01,0.94,2023-09-12-22:58:04,903,1,Experiment,2023-09-12_16h01.50.141
5,local,global,3,5,2,62,4,,,68,exp,FUEZSNHEXLHZSFT,SUZHUYHSLTZFTFE,6,Y,X,yY,yY,l,0,1.552414332,y,1,0.008343404,RSVPLG01,0.94,2023-09-12-22:58:04,903,1,Experiment,2023-09-12_16h01.50.141
6,local,global,7,5,3,63,5,,,69,exp,SEUENFSHZNTHXZU,ZNSEUYLSZTLTHUH,6,Y,X,yY,yY,y,1,0.691929073,y,1,0.056650179,RSVPLG01,0.94,2023-09-12-22:58:04,903,1,Experiment,2023-09-12_16h01.50.141
5,local,global,3,5,4,64,4,,,70,exp,FNYHULHEXUFTZZT,EYNNTSTFYUHZZFE,6,S,X,sS,yY,s,1,0.798112866,y,1,0.287582337,RSVPLG01,0.94,2023-09-12-22:58:04,903,1,Experiment,2023-09-12_16h01.50.141
5,local,global,3,5,5,65,4,,,71,exp,YHESENXHZLZUYUL,NNTFUEUHHETLZZL,4,F,X,fF,yY,f,1,1.092138386,y,1,0.849630841,RSVPLG01,0.94,2023-09-12-22:58:04,903,1,Experiment,2023-09-12_16h01.50.141
8,global,local,3,5,6,66,7,,,72,exp,HLZFYEFTYZSLNNT,NNFZFUYHXHTSYTS,6,E,X,eE,yY,e,1,0.956892293,y,1,1.052039892,RSVPLG01,0.94,2023-09-12-22:58:04,903,1,Experiment,2023-09-12_16h01.50.141
12,global,global,7,5,7,67,11,,,73,exp,LYHUZLTFSHXTNNY,ZTHEFSZNLYTNYFS,4,U,X,uU,yY,u,1,0.77779344,y,1,0.707906453,RSVPLG01,0.94,2023-09-12-22:58:04,903,1,Experiment,2023-09-12_16h01.50.141
9,global,local,7,5,8,68,8,,,74,exp,TNUYSSNFLHZHTUZ,LZFENHZSUTXUHFT,4,Y,X,yY,yY,y,1,1.426303159,y,1,0.103211813,RSVPLG01,0.94,2023-09-12-22:58:04,903,1,Experiment,2023-09-12_16h01.50.141
5,local,global,3,5,9,69,4,,,75,exp,NETYHEXNZUFFHSS,SHTLFSUHZNTFZEN,4,L,X,lL,yY,l,1,0.388639924,y,1,0.060399706,RSVPLG01,0.94,2023-09-12-22:58:04,903,1,Experiment,2023-09-12_16h01.50.141
1,local,local,0,5,10,70,0,,,76,exp,LUNEFZTYZLUNHEH,YZEUSZNTEHYHTLN,5,S,absent,sS,nN,s,1,0.694848468,n,1,0.153778489,RSVPLG01,0.94,2023-09-12-22:58:04,903,1,Experiment,2023-09-12_16h01.50.141
4,local,global,0,5,11,71,3,,,77,exp,YHFZULZNYSFTTSH,TZTHENLYSFYSLHN,5,E,absent,eE,nN,e,1,0.85859419,n,1,0.102427134,RSVPLG01,0.94,2023-09-12-22:58:04,903,1,Experiment,2023-09-12_16h01.50.141
5,local,global,3,6,0,72,4,,,78,exp,YNNFLEHFXHYTLSS,HNFYZUSTLLNZYHF,6,U,X,uU,yY,u,1,0.455942989,y,1,0.091723721,RSVPLG01,0.94,2023-09-12-22:58:04,903,1,Experiment,2023-09-12_16h01.50.141
1,local,local,0,6,1,73,0,,,79,exp,LELUNHFTUSFEZSZ,FTZHYTLSLZHUEFU,5,Y,absent,yY,nN,y,1,0.807663243,n,1,0.350919177,RSVPLG01,0.94,2023-09-12-22:58:04,903,1,Experiment,2023-09-12_16h01.50.141
9,global,local,7,6,2,74,8,,,80,exp,NEYFTUHUFLNELZH,LNZHSEFYEFUXUZN,5,T,X,tT,yY,s,0,0.573602539,y,1,0.21555683,RSVPLG01,0.94,2023-09-12-22:58:04,903,1,Experiment,2023-09-12_16h01.50.141
12,global,global,7,6,3,75,11,,,81,exp,UEHSNZZEYYXNFLH,FYLTUNZHYUEHLEF,4,S,X,sS,yY,e,0,2.566286349,y,1,0.032103079,RSVPLG01,0.94,2023-09-12-22:58:04,903,1,Experiment,2023-09-12_16h01.50.141
3,local,local,7,6,4,76,2,,,82,exp,FHNTSNHZEYESZLY,EFFUHLHZYNXNLYZ,4,U,X,uU,yY,u,1,0.45444892,y,1,0.024273386,RSVPLG01,0.94,2023-09-12-22:58:04,903,1,Experiment,2023-09-12_16h01.50.141
8,global,local,3,6,5,77,7,,,83,exp,ELLUYZUSNENTHHS,TSNUHFYNXELHTUE,6,Z,X,zZ,yY,z,1,0.931016808,y,1,0.821971366,RSVPLG01,0.94,2023-09-12-22:58:04,903,1,Experiment,2023-09-12_16h01.50.141
2,local,local,3,6,6,78,1,,,84,exp,EYTLEHLUYTZZFSF,STZYUNFFXZYTSEU,6,N,X,nN,yY,n,1,0.621373257,y,1,0.054077299,RSVPLG01,0.94,2023-09-12-22:58:04,903,1,Experiment,2023-09-12_16h01.50.141
1,local,local,0,6,7,79,0,,,85,exp,UFUZEFTTSYSLNLY,NFFHTYETUNUYSSL,4,H,absent,hH,nN,h,1,0.949593976,n,1,0.067750245,RSVPLG01,0.94,2023-09-12-22:58:04,903,1,Experiment,2023-09-12_16h01.50.141
2,local,local,3,6,8,80,1,,,86,exp,YSTLUYSTNZFFLHN,ZNHLETYXHSZSTNF,5,E,X,eE,yY,e,1,0.46006622,y,1,0.034851558,RSVPLG01,0.94,2023-09-12-22:58:04,903,1,Experiment,2023-09-12_16h01.50.141
3,local,local,7,6,9,81,2,,,87,exp,SLUFTENNELHTHSU,HZEYSUTLULXHSTZ,4,Y,X,yY,yY,y,1,0.536695875,y,1,0.001681828,RSVPLG01,0.94,2023-09-12-22:58:04,903,1,Experiment,2023-09-12_16h01.50.141
4,local,global,0,6,10,82,3,,,88,exp,LFEZHUNNTYUHLFE,EUFSHYNUTELTYLN,4,S,absent,sS,nN,s,1,0.865396598,n,1,0.084310857,RSVPLG01,0.94,2023-09-12-22:58:04,903,1,Experiment,2023-09-12_16h01.50.141
5,local,global,3,6,11,83,4,,,89,exp,NZUHTNEXEHLZFLY,UFZNSNEYLEZYLUF,5,S,X,sS,yY,s,1,0.52750458,y,1,0.02488171,RSVPLG01,0.94,2023-09-12-22:58:04,903,1,Experiment,2023-09-12_16h01.50.141
4,local,global,0,7,0,84,3,,,90,exp,FNSSYTUNELZZLFE,FNFEEHLNYUSLZUS,6,H,absent,hH,nN,h,1,1.001326874,n,1,0.018193162,RSVPLG01,0.94,2023-09-12-22:58:04,903,1,Experiment,2023-09-12_16h01.50.141
2,local,local,3,7,1,85,1,,,91,exp,SZLNUFEHYLSZHUN,ZEYUETZSXSLYUNL,6,T,X,tT,yY,t,1,0.389897253,y,1,0.010603651,RSVPLG01,0.94,2023-09-12-22:58:04,903,1,Experiment,2023-09-12_16h01.50.141
8,global,local,3,7,2,86,7,,,92,exp,TLYFHLNSEEZTSNH,ZLSUYTXENYZHLHN,4,F,X,fF,yY,u,0,3.633691291,y,1,0.762773112,RSVPLG01,0.94,2023-09-12-22:58:04,903,1,Experiment,2023-09-12_16h01.50.141
3,local,local,7,7,3,87,2,,,93,exp,SLEYZNLUUYHTHNS,LTTUFUYSNLEXYHH,5,F,X,fF,yY,z,0,2.170813364,y,1,0.097075059,RSVPLG01,0.94,2023-09-12-22:58:04,903,1,Experiment,2023-09-12_16h01.50.141
12,global,global,7,7,4,88,11,,,94,exp,NYLHTHNESSUXLZZ,ELYHFELHUUNZZSN,5,T,X,tT,yY,t,1,0.566019919,y,1,0.040603264,RSVPLG01,0.94,2023-09-12-22:58:04,903,1,Experiment,2023-09-12_16h01.50.141
3,local,local,7,7,5,89,2,,,95,exp,NEZLHLFSTYZESTY,NTLYUFLFENSXSTZ,5,U,X,uU,yY,u,1,0.814785348,y,1,0.751325945,RSVPLG01,0.94,2023-09-12-22:58:04,903,1,Experiment,2023-09-12_16h01.50.141
9,global,local,7,7,6,90,8,,,96,exp,LFSNHLFZSUZTYUN,NYSTETFULNLXUFZ,5,H,X,hH,yY,h,1,1.71284043,y,1,0.028443754,RSVPLG01,0.94,2023-09-12-22:58:04,903,1,Experiment,2023-09-12_16h01.50.141
10,global,global,0,7,7,91,9,,,97,exp,UTNHUZESZSTFNLL,LUZYNELSFTNZSUE,4,H,absent,hH,nN,h,1,0.68256828,n,1,0.010815741,RSVPLG01,0.94,2023-09-12-22:58:04,903,1,Experiment,2023-09-12_16h01.50.141
7,global,local,0,7,8,92,6,,,98,exp,NTSZFUULESETHLH,NHFYUUTELLNTFES,4,Z,absent,zZ,nN,z,1,0.69338789,n,1,0.062830633,RSVPLG01,0.94,2023-09-12-22:58:04,903,1,Experiment,2023-09-12_16h01.50.141
11,global,global,3,7,9,93,10,,,99,exp,UTNSLZSXNYHYEET,ZNUYFEHTZEYNSTU,5,L,X,lL,yY,l,1,0.622954797,y,1,0.087681277,RSVPLG01,0.94,2023-09-12-22:58:04,903,1,Experiment,2023-09-12_16h01.50.141
1,local,local,0,7,10,94,0,,,100,exp,YZLYSEEUNHLZUFH,HNZFTYZELNLHEFU,5,T,absent,tT,nN,s,0,0.741666286,n,1,0.521836535,RSVPLG01,0.94,2023-09-12-22:58:04,903,1,Experiment,2023-09-12_16h01.50.141
4,local,global,0,7,11,95,3,,,101,exp,YTEHNFZNEULFZYL,ZLESFUUYENNFYTZ,4,S,absent,sS,nN,s,1,0.679832297,n,1,0.052415336,RSVPLG01,0.94,2023-09-12-22:58:04,903,1,Experiment,2023-09-12_16h01.50.141
3,local,local,7,8,0,96,2,,,102,exp,LZYFLZNTYENUHHT,ZHHSLEUNLYXUYNT,4,S,X,sS,yY,s,1,0.377577571,y,1,0.963794125,RSVPLG01,0.94,2023-09-12-22:58:04,903,1,Experiment,2023-09-12_16h01.50.141
9,global,local,7,8,1,97,8,,,103,exp,LUZNHTYYZLESUNE,HLZUNFEYHUELXSZ,6,T,X,tT,yY,t,1,0.689791583,y,1,0.993318431,RSVPLG01,0.94,2023-09-12-22:58:04,903,1,Experiment,2023-09-12_16h01.50.141
6,local,global,7,8,2,98,5,,,104,exp,ZEYHNUFSYZELXFL,HLENFTFEZYLHSYZ,6,T,X,tT,yY,t,1,0.668046598,y,1,0.088506232,RSVPLG01,0.94,2023-09-12-22:58:04,903,1,Experiment,2023-09-12_16h01.50.141
3,local,local,7,8,3,99,2,,,105,exp,FULTUYELFHSNNEY,HFYZUEULSHXYESN,4,Z,X,zZ,yY,z,1,0.518547171,y,1,0.851965558,RSVPLG01,0.94,2023-09-12-22:58:04,903,1,Experiment,2023-09-12_16h01.50.141
2,local,local,3,8,4,100,1,,,106,exp,FSSYYLEZHUFZUHT,EHTFYNUZXEUSZHT,6,N,X,nN,yY,n,1,0.532365763,y,1,0.118681337,RSVPLG01,0.94,2023-09-12-22:58:04,903,1,Experiment,2023-09-12_16h01.50.141
3,local,local,7,8,5,101,2,,,107,exp,YHYZFNZSSELTTFL,FYZEYUSHLESFXTT,6,U,X,uU,yY,u,1,0.548043945,y,1,0.051468485,RSVPLG01,0.94,2023-09-12-22:58:04,903,1,Experiment,2023-09-12_16h01.50.141
3,local,local,7,8,6,102,2,,,108,exp,ELYFYTHSHTNNLSU,NHNZTULEYLXEHUS,4,Z,X,zZ,yY,z,1,0.488838707,y,1,0.080273272,RSVPLG01,0.94,2023-09-12-22:58:04,903,1,Experiment,2023-09-12_16h01.50.141
4,local,global,0,8,7,103,3,,,109,exp,HYFHNEFNYSLTUUT,YTFTYZSLFHUNLNH,6,Z,absent,zZ,nN,z,1,0.912147985,n,1,0.107381318,RSVPLG01,0.94,2023-09-12-22:58:04,903,1,Experiment,2023-09-12_16h01.50.141
8,global,local,3,8,8,104,7,,,110,exp,FTELUHSNNEFSZLT,ULUFNYSEXZZNSTF,6,H,X,hH,yY,u,0,1.187387198,y,1,0.127810921,RSVPLG01,0.94,2023-09-12-22:58:04,903,1,Experiment,2023-09-12_16h01.50.141
12,global,global,7,8,9,105,11,,,111,exp,TEYFZLULSEXZTYN,LLNHEYTUZSUYEST,4,F,X,fF,yY,h,0,1.204500603,n,0,0.247980198,RSVPLG01,0.94,2023-09-12-22:58:04,903,1,Experiment,2023-09-12_16h01.50.141
7,global,local,0,8,10,106,6,,,112,exp,ZUSHYLSNTFZNYUT,HTHUNETSUSNFFYY,6,L,absent,lL,nN,e,0,1.372603603,y,0,0.314831768,RSVPLG01,0.94,2023-09-12-22:58:04,903,1,Experiment,2023-09-12_16h01.50.141
5,local,global,3,8,11,107,4,,,113,exp,NHZFHEXYNTTUZUS,TYULZSTYESUHNEH,4,L,X,lL,yY,l,1,0.32373866,y,1,0.018361322,RSVPLG01,0.94,2023-09-12-22:58:04,903,1,Experiment,2023-09-12_16h01.50.141
12,global,global,7,9,0,108,11,,,114,exp,NUEYENFUTLXLZZT,UULHEZFLNSNTESF,4,Y,X,yY,yY,y,1,0.54400711,y,1,0.041793525,RSVPLG01,0.94,2023-09-12-22:58:04,903,1,Experiment,2023-09-12_16h01.50.141
2,local,local,3,9,1,109,1,,,115,exp,SUNTZYSTZEENLLH,UNZENFLTXHHZSLS,6,F,X,fF,yY,f,1,3.049338907,y,1,1.183239724,RSVPLG01,0.94,2023-09-12-22:58:04,903,1,Experiment,2023-09-12_16h01.50.141
12,global,global,7,9,2,110,11,,,116,exp,HHZYFSULEZXNUNE,SFUTSNZNLHEFEUL,4,Y,X,yY,yY,y,1,1.471974214,n,0,0.048824384,RSVPLG01,0.94,2023-09-12-22:58:04,903,1,Experiment,2023-09-12_16h01.50.141
4,local,global,0,9,3,111,3,,,117,exp,UZFFSYZULTEHEHS,TZUHENUEFZSFTLH,6,N,absent,nN,nN,n,1,0.6336861,y,0,0.022777408,RSVPLG01,0.94,2023-09-12-22:58:04,903,1,Experiment,2023-09-12_16h01.50.141
7,global,local,0,9,4,112,6,,,118,exp,TUSTFZLNNLHHFEU,ENLELYUHFSNTHSU,6,Z,absent,zZ,nN,z,1,0.741795711,n,1,0.019830817,RSVPLG01,0.94,2023-09-12-22:58:04,903,1,Experiment,2023-09-12_16h01.50.141
3,local,local,7,9,5,113,2,,,119,exp,EUNYLUZTZFYSFTE,FEFUHUNNYZSXYEZ,5,H,X,hH,yY,h,1,0.494611057,y,1,0.02281386,RSVPLG01,0.94,2023-09-12-22:58:04,903,1,Experiment,2023-09-12_16h01.50.141
12,global,global,7,9,6,114,11,,,120,exp,FSHZNLLEUHSXZEF,UHYSTUZYFLEZHLF,5,N,X,nN,yY,n,1,0.58423662,y,1,0.067123445,RSVPLG01,0.94,2023-09-12-22:58:04,903,1,Experiment,2023-09-12_16h01.50.141
11,global,global,3,9,7,115,10,,,121,exp,HLYFLEXZHUSYUES,HLSTEEYZLYUZHUN,4,F,X,fF,yY,t,0,0.494096703,y,1,0.057125504,RSVPLG01,0.94,2023-09-12-22:58:04,903,1,Experiment,2023-09-12_16h01.50.141
10,global,global,0,9,8,116,9,,,122,exp,HYELLSTHFZFYZTN,FNYETUHYFZZLNTH,6,S,absent,sS,nN,s,1,0.61218083,y,0,0.727302935,RSVPLG01,0.94,2023-09-12-22:58:04,903,1,Experiment,2023-09-12_16h01.50.141
6,local,global,7,9,9,117,5,,,123,exp,FSLZYENFESTXTHH,SETNUZEFNSZHTLL,5,U,X,uU,yY,u,1,0.587802986,y,1,0.11430391,RSVPLG01,0.94,2023-09-12-22:58:04,903,1,Experiment,2023-09-12_16h01.50.141
7,global,local,0,9,10,118,6,,,124,exp,EFENSNHYUHTTYLL,FTNYZNELUTYHFLH,5,S,absent,sS,nN,z,0,0.878887464,n,1,0.065461742,RSVPLG01,0.94,2023-09-12-22:58:04,903,1,Experiment,2023-09-12_16h01.50.141
9,global,local,7,9,11,119,8,,,125,exp,YYSFZLHUTELSZHU,YYHNEUZELSXHTLS,4,F,X,fF,yY,f,1,3.165219653,y,1,0.569383058,RSVPLG01,0.94,2023-09-12-22:58:04,903,1,Experiment,2023-09-12_16h01.50.141
10,global,global,0,10,0,120,9,,,126,exp,USZNLYZTELHNTUS,ZSLNHFSTUHEZLTU,6,Y,absent,yY,nN,y,1,0.687470029,n,1,0.23005889,RSVPLG01,0.94,2023-09-12-22:58:04,903,1,Experiment,2023-09-12_16h01.50.141
6,local,global,7,10,1,121,5,,,127,exp,ZTLSYZLFNUXFTNH,FZFELTUNYYZHNUT,4,E,X,eE,yY,e,1,0.863567082,y,1,0.025978335,RSVPLG01,0.94,2023-09-12-22:58:04,903,1,Experiment,2023-09-12_16h01.50.141
5,local,global,3,10,2,122,4,,,128,exp,FZFTYEYZXUSTUNS,UTZYFHSUSLFTNZN,6,H,X,hH,yY,h,1,1.038008537,n,0,0.162471807,RSVPLG01,0.94,2023-09-12-22:58:04,903,1,Experiment,2023-09-12_16h01.50.141
5,local,global,3,10,3,123,4,,,129,exp,LTNZYFZXHHSENEF,HZSHUENZNTLEFTL,5,U,X,uU,yY,u,1,0.364936525,y,1,0.082673168,RSVPLG01,0.94,2023-09-12-22:58:04,903,1,Experiment,2023-09-12_16h01.50.141
8,global,local,3,10,4,124,7,,,130,exp,LNYEZTFFUSLUZSN,SZELYHYSXUEFUNL,6,T,X,tT,yY,t,1,2.063138776,y,1,0.018974239,RSVPLG01,0.94,2023-09-12-22:58:04,903,1,Experiment,2023-09-12_16h01.50.141
7,global,local,0,10,5,125,6,,,131,exp,FULNZSSYNTYHULT,YNUFESTSNTULHLH,5,Z,absent,zZ,nN,e,0,1.158324101,n,1,0.068907819,RSVPLG01,0.94,2023-09-12-22:58:04,903,1,Experiment,2023-09-12_16h01.50.141
8,global,local,3,10,6,126,7,,,132,exp,USYUENLHFHSFZYN,LZFHTNHXLSUYZNY,5,E,X,eE,yY,e,1,0.534523081,y,1,0.744912928,RSVPLG01,0.94,2023-09-12-22:58:04,903,1,Experiment,2023-09-12_16h01.50.141
2,local,local,3,10,7,127,1,,,133,exp,YTLYZNHTEHSZLEU,UHZLSFSTXTEEYLY,6,F,X,fF,yY,f,1,2.910684224,y,1,0.869868069,RSVPLG01,0.94,2023-09-12-22:58:04,903,1,Experiment,2023-09-12_16h01.50.141
2,local,local,3,10,8,128,1,,,134,exp,YLUENZZFNLUTYST,FYUHFNXTZLSYNUS,4,H,X,hH,yY,h,1,0.334357488,y,1,0.082657197,RSVPLG01,0.94,2023-09-12-22:58:04,903,1,Experiment,2023-09-12_16h01.50.141
12,global,global,7,10,9,129,11,,,135,exp,SUTZFSYTYLXLHHF,UTYELULHNHFSSFY,4,Z,X,zZ,yY,z,1,0.568293858,y,1,0.029883978,RSVPLG01,0.94,2023-09-12-22:58:04,903,1,Experiment,2023-09-12_16h01.50.141
3,local,local,7,10,10,130,2,,,136,exp,FUSNTEEHYYFSNUZ,HYFZLFESHUZXYNE,5,L,X,lL,yY,l,1,0.595465936,y,1,0.077259567,RSVPLG01,0.94,2023-09-12-22:58:04,903,1,Experiment,2023-09-12_16h01.50.141
5,local,global,3,10,11,131,4,,,137,exp,ZSLFHYFXNUYZELS,UEFYTSZUSNLZEYN,5,T,X,tT,yY,t,1,0.652455945,y,1,0.078720208,RSVPLG01,0.94,2023-09-12-22:58:04,903,1,Experiment,2023-09-12_16h01.50.141
1,local,local,0,11,0,132,0,,,138,exp,UFHNYNFLEZSZHSE,USELTNSUZFNLZEH,5,T,absent,tT,nN,t,1,0.674906903,y,0,0.722903616,RSVPLG01,0.94,2023-09-12-22:58:04,903,1,Experiment,2023-09-12_16h01.50.141
11,global,global,3,11,1,133,10,,,139,exp,ULFTNZXULNFHSSH,UZNYSFHUFZNLELH,4,T,X,tT,yY,t,1,0.611500135,y,1,0.105375703,RSVPLG01,0.94,2023-09-12-22:58:04,903,1,Experiment,2023-09-12_16h01.50.141
11,global,global,3,11,2,134,10,,,140,exp,SNLEYUXLSUYFNFH,SFUTYNZHHYFUSLL,4,E,X,eE,yY,e,1,0.437210805,y,1,0.023560296,RSVPLG01,0.94,2023-09-12-22:58:04,903,1,Experiment,2023-09-12_16h01.50.141
1,local,local,0,11,3,135,0,,,141,exp,SNTHHFLENTLEUUS,NLTLUYTUEEZSZSH,6,Y,absent,yY,nN,y,1,0.714319201,n,1,0.023058878,RSVPLG01,0.94,2023-09-12-22:58:04,903,1,Experiment,2023-09-12_16h01.50.141
10,global,global,0,11,4,136,9,,,142,exp,HUNHELYLYNSFTUF,TUFYZLSYNSLUHHT,5,E,absent,eE,nN,e,1,0.482750169,n,1,0.044199223,RSVPLG01,0.94,2023-09-12-22:58:04,903,1,Experiment,2023-09-12_16h01.50.141
2,local,local,3,11,5,137,1,,,143,exp,LUSNELTSTYFUHHF,LLYNZTSXHFTNYUH,5,Z,X,zZ,yY,n,0,0.47884661,y,1,0.636568327,RSVPLG01,0.94,2023-09-12-22:58:04,903,1,Experiment,2023-09-12_16h01.50.141
4,local,global,0,11,6,138,3,,,144,exp,YTSZNEZHUFTNFSH,TUHYZLNSUZYHSTF,6,L,absent,lL,nN,l,1,0.690451391,n,1,0.091587817,RSVPLG01,0.94,2023-09-12-22:58:04,903,1,Experiment,2023-09-12_16h01.50.141
7,global,local,0,11,7,139,6,,,145,exp,UTFEHLYZNNLZUHY,HZUSNYYLFZTNTLH,4,E,absent,eE,nN,e,1,0.552426717,n,1,0.062725345,RSVPLG01,0.94,2023-09-12-22:58:04,903,1,Experiment,2023-09-12_16h01.50.141
11,global,global,3,11,8,140,10,,,146,exp,TFZZLFSXEESTYUY,FHSTNYSUEYEUZFT,5,L,X,lL,yY,n,0,3.111421334,y,1,0.125272984,RSVPLG01,0.94,2023-09-12-22:58:04,903,1,Experiment,2023-09-12_16h01.50.141
9,global,local,7,11,9,141,8,,,147,exp,YNUZFHYUENTEZFT,FTSENLNUFYTZXYZ,6,H,X,hH,yY,n,0,1.468893714,n,0,0.130742296,RSVPLG01,0.94,2023-09-12-22:58:04,903,1,Experiment,2023-09-12_16h01.50.141
10,global,global,0,11,10,142,9,,,148,exp,ENLHLNSFTEYZZST,TYLUSESYFFLEZTZ,4,H,absent,hH,nN,h,1,0.903558665,n,1,0.075381636,RSVPLG01,0.94,2023-09-12-22:58:04,903,1,Experiment,2023-09-12_16h01.50.141
10,global,global,0,11,11,143,9,,,149,exp,SNYTZEHSNUYLTUH,LEHUFSLHETSNYTY,5,Z,absent,zZ,nN,z,1,2.33250478,n,1,0.130639887,RSVPLG01,0.94,2023-09-12-22:58:04,903,1,Experiment,2023-09-12_16h01.50.141
10,global,global,0,12,0,144,9,,,150,exp,HTZENLFTEYFYNHZ,ESFTNUHEYZFHYNT,6,L,absent,lL,nN,u,0,2.384914523,n,1,0.004375316,RSVPLG01,0.94,2023-09-12-22:58:04,903,1,Experiment,2023-09-12_16h01.50.141
6,local,global,7,12,1,145,5,,,151,exp,NNHFZTLFLYEXYUT,TFENSLUFULYEYTN,5,S,X,sS,yY,s,1,0.489524239,y,1,0.932971104,RSVPLG01,0.94,2023-09-12-22:58:04,903,1,Experiment,2023-09-12_16h01.50.141
7,global,local,0,12,2,146,6,,,152,exp,YSZUSZFNELENTLT,STLHFEZSNYZNYET,4,U,absent,uU,nN,u,1,0.958102975,y,0,0.048522779,RSVPLG01,0.94,2023-09-12-22:58:04,903,1,Experiment,2023-09-12_16h01.50.141
7,global,local,0,12,3,147,6,,,153,exp,TUESFZNLNSLHEUT,TUHHSYETFFENUNS,6,Z,absent,zZ,nN,z,1,1.234057337,n,1,0.107973858,RSVPLG01,0.94,2023-09-12-22:58:04,903,1,Experiment,2023-09-12_16h01.50.141
11,global,global,3,12,4,148,10,,,154,exp,FTYULSXYESZTEHF,FFLNSEYYZELSZHT,4,U,X,uU,yY,u,1,0.467068208,y,1,0.047507185,RSVPLG01,0.94,2023-09-12-22:58:04,903,1,Experiment,2023-09-12_16h01.50.141
2,local,local,3,12,5,149,1,,,155,exp,SNZHUNEFZSYYHFL,YFSLTYSXEENHFZZ,5,T,X,tT,yY,t,1,0.640837015,y,1,0.760436537,RSVPLG01,0.94,2023-09-12-22:58:04,903,1,Experiment,2023-09-12_16h01.50.141
9,global,local,7,12,6,150,8,,,156,exp,TSEYHTNLYEFSNLU,LLUTZYFFUNSXNES,5,H,X,hH,yY,h,1,0.457750366,y,1,0.06871586,RSVPLG01,0.94,2023-09-12-22:58:04,903,1,Experiment,2023-09-12_16h01.50.141
7,global,local,0,12,7,151,6,,,157,exp,TUZESTHYZYHLFFS,STLNTYFULHZFHYZ,4,E,absent,eE,nN,e,1,0.675200182,n,1,0.069158693,RSVPLG01,0.94,2023-09-12-22:58:04,903,1,Experiment,2023-09-12_16h01.50.141
5,local,global,3,12,8,152,4,,,158,exp,YTTUSLEFXEFZHZU,YEUUTNEZHTSHSFZ,6,N,X,nN,yY,n,1,0.224166085,y,1,0.025483418,RSVPLG01,0.94,2023-09-12-22:58:04,903,1,Experiment,2023-09-12_16h01.50.141
12,global,global,7,12,9,153,11,,,159,exp,UZELFHYULNYXNET,LHLTSYEEZNNZHUT,5,F,X,fF,yY,s,0,0.830619856,n,0,0.133848609,RSVPLG01,0.94,2023-09-12-22:58:04,903,1,Experiment,2023-09-12_16h01.50.141
11,global,global,3,12,10,154,10,,,160,exp,LLHEZHXUFSYFSTZ,TYLNLTFYUSZFHUH,4,E,X,eE,yY,e,1,0.240256185,y,1,0.032763063,RSVPLG01,0.94,2023-09-12-22:58:04,903,1,Experiment,2023-09-12_16h01.50.141
10,global,global,0,12,11,155,9,,,161,exp,ULSLSFZYETEHHZY,UZUYSNHESLYLTZE,6,F,absent,fF,nN,n,0,1.699192465,n,1,0.530061049,RSVPLG01,0.94,2023-09-12-22:58:04,903,1,Experiment,2023-09-12_16h01.50.141
12,global,global,7,13,0,156,11,,,162,exp,NHYSUYNLZTLXHTS,YHLLFSNHTETYNZS,5,U,X,uU,yY,u,1,2.200499696,y,1,1.696714095,RSVPLG01,0.94,2023-09-12-22:58:04,903,1,Experiment,2023-09-12_16h01.50.141
3,local,local,7,13,1,157,2,,,163,exp,NEZHUTYYEUTLLZF,LFTSYENTYNXUZUL,4,S,X,sS,yY,s,1,0.506320126,y,1,0.097759197,RSVPLG01,0.94,2023-09-12-22:58:04,903,1,Experiment,2023-09-12_16h01.50.141
9,global,local,7,13,2,158,8,,,164,exp,LEZFEHLUUHYTYZN,ELYSHNZYEUXTTZL,4,F,X,fF,yY,f,1,1.796221364,y,1,0.664550595,RSVPLG01,0.94,2023-09-12-22:58:04,903,1,Experiment,2023-09-12_16h01.50.141
6,local,global,7,13,3,159,5,,,165,exp,USFHNLYFLSXUNYE,NSUZSYELEYTUFFN,4,Z,X,zZ,yY,z,1,1.289276511,y,1,0.148042709,RSVPLG01,0.94,2023-09-12-22:58:04,903,1,Experiment,2023-09-12_16h01.50.141
7,global,local,0,13,4,160,6,,,166,exp,HYNFLNHTYEZUEZF,ZFFNSHTTNUEZUYY,5,L,absent,lL,nN,s,0,1.232739725,n,1,0.533492682,RSVPLG01,0.94,2023-09-12-22:58:04,903,1,Experiment,2023-09-12_16h01.50.141
11,global,global,3,13,5,161,10,,,167,exp,ESHFYZLXNHULZFS,LHZHTZSFLUFUSNE,5,Y,X,yY,yY,y,1,1.064579492,n,0,1.026672673,RSVPLG01,0.94,2023-09-12-22:58:04,903,1,Experiment,2023-09-12_16h01.50.141
2,local,local,3,13,6,162,1,,,168,exp,SFUZFELSYULNZTN,LSSZUHUNXTNZFLF,6,H,X,hH,yY,h,1,0.878926812,y,1,0.162150164,RSVPLG01,0.94,2023-09-12-22:58:04,903,1,Experiment,2023-09-12_16h01.50.141
6,local,global,7,13,7,163,5,,,169,exp,LZHNYELZHNUXFTT,LUFTSENZHHZLFNT,5,S,X,sS,yY,s,1,0.62875818,y,1,0.053076228,RSVPLG01,0.94,2023-09-12-22:58:04,903,1,Experiment,2023-09-12_16h01.50.141
7,global,local,0,13,8,164,6,,,170,exp,UHYNETSNUYTLZHZ,LZYTFZNUTSLNYHH,5,E,absent,eE,nN,f,0,2.627092494,y,0,1.064863033,RSVPLG01,0.94,2023-09-12-22:58:04,903,1,Experiment,2023-09-12_16h01.50.141
12,global,global,7,13,9,165,11,,,171,exp,TFZEYSZLFLXSHTH,NZTUZYYNTSSHFFL,4,E,X,eE,yY,y,0,1.403298771,y,1,0.82678495,RSVPLG01,0.94,2023-09-12-22:58:04,903,1,Experiment,2023-09-12_16h01.50.141
12,global,global,7,13,10,166,11,,,172,exp,ZFLNHHYFZTXUETU,FEYSYLEUHFUTZLT,4,N,X,nN,yY,n,1,0.950367626,y,1,0.232070837,RSVPLG01,0.94,2023-09-12-22:58:04,903,1,Experiment,2023-09-12_16h01.50.141
9,global,local,7,13,11,167,8,,,173,exp,YYZTEHEUUSLLNSN,LZSFULSUNEXYZEN,4,T,X,tT,yY,y,0,1.228315285,y,1,0.111292685,RSVPLG01,0.94,2023-09-12-22:58:04,903,1,Experiment,2023-09-12_16h01.50.141
10,global,global,0,14,0,168,9,,,174,exp,TYYUEZSFZTFUSNN,HSUZLUNYYFTHTNZ,5,E,absent,eE,nN,u,0,0.712754101,n,1,0.052612131,RSVPLG01,0.94,2023-09-12-22:58:04,903,1,Experiment,2023-09-12_16h01.50.141
10,global,global,0,14,1,169,9,,,175,exp,HSNELHZZNSYUYLU,YULFZSTZYSNHTLU,4,E,absent,eE,nN,f,0,1.032635822,n,1,0.864789167,RSVPLG01,0.94,2023-09-12-22:58:04,903,1,Experiment,2023-09-12_16h01.50.141
8,global,local,3,14,2,170,7,,,176,exp,SNEHTZSYTFYUFUE,FTESULNTXSYUHEH,6,Z,X,zZ,yY,y,0,0.936655311,n,0,0.273740399,RSVPLG01,0.94,2023-09-12-22:58:04,903,1,Experiment,2023-09-12_16h01.50.141
6,local,global,7,14,3,171,5,,,177,exp,HSNSEYZLUTNTXUH,HLLTHFETNNUSUSZ,6,F,X,fF,yY,f,1,0.780496064,y,1,0.549306302,RSVPLG01,0.94,2023-09-12-22:58:04,903,1,Experiment,2023-09-12_16h01.50.141
11,global,global,3,14,4,172,10,,,178,exp,FLUYLZXTSTNNFHZ,TFLESHHULNFTNZZ,4,Y,X,yY,yY,y,1,0.050639685,y,1,0.174229601,RSVPLG01,0.94,2023-09-12-22:58:04,903,1,Experiment,2023-09-12_16h01.50.141
12,global,global,7,14,5,173,11,,,179,exp,LNZYSUHTNSXTFHZ,LTSEFUHNULTSHZZ,4,Y,X,yY,yY,y,1,0.329731089,y,1,0.072421867,RSVPLG01,0.94,2023-09-12-22:58:04,903,1,Experiment,2023-09-12_16h01.50.141
2,local,local,3,14,6,174,1,,,180,exp,HEHUSTNZTEYFFYN,HENTLYFXTUZEYHZ,5,L,X,lL,yY,y,0,1.579090751,y,1,0.101732479,RSVPLG01,0.94,2023-09-12-22:58:04,903,1,Experiment,2023-09-12_16h01.50.141
3,local,local,7,14,7,175,2,,,181,exp,SNTUSETLLYYNEZZ,ZLLFESYYHEXZSTH,4,F,X,fF,yY,l,0,0.636358679,y,1,0.329768859,RSVPLG01,0.94,2023-09-12-22:58:04,903,1,Experiment,2023-09-12_16h01.50.141
2,local,local,3,14,8,176,1,,,182,exp,YTZHUFSHNNUZYSE,NSTUZLZNXEEYYHT,6,L,X,lL,yY,l,1,0.437797791,y,1,0.145642205,RSVPLG01,0.94,2023-09-12-22:58:04,903,1,Experiment,2023-09-12_16h01.50.141
12,global,global,7,14,9,177,11,,,183,exp,YEUTLTNUSSFXFHN,FHYUZFTTUNSEHSN,5,L,X,lL,yY,l,1,0.475052364,y,1,0.065723461,RSVPLG01,0.94,2023-09-12-22:58:04,903,1,Experiment,2023-09-12_16h01.50.141
8,global,local,3,14,10,178,7,,,184,exp,UHFTNHZEFYESTYS,ZTSFLYHXSEEUUTF,5,N,X,nN,yY,n,1,0.5028258,y,1,0.07332007,RSVPLG01,0.94,2023-09-12-22:58:04,903,1,Experiment,2023-09-12_16h01.50.141
2,local,local,3,14,11,179,1,,,185,exp,TFYSELNZYNHLHFE,LLEUETXFZZHNYNT,4,U,X,uU,yY,e,0,0.467480763,y,1,0.060170045,RSVPLG01,0.94,2023-09-12-22:58:04,903,1,Experiment,2023-09-12_16h01.50.141
10,global,global,0,15,0,180,9,,,186,exp,ZYLZYEFNSSNLFHT,FZNLTUSFTLHNHZY,6,E,absent,eE,nN,e,1,0.751613988,y,0,0.048522113,RSVPLG01,0.94,2023-09-12-22:58:04,903,1,Experiment,2023-09-12_16h01.50.141
2,local,local,3,15,1,181,1,,,187,exp,HYETUZYLNFLUFEZ,LHZSNUXYYLHFZFE,4,S,X,sS,yY,y,0,0.373764836,y,1,0.815704299,RSVPLG01,0.94,2023-09-12-22:58:04,903,1,Experiment,2023-09-12_16h01.50.141
12,global,global,7,15,2,182,11,,,188,exp,LUFHENTEYUXZLNT,ZFTSYFYNUNELLZE,4,H,X,hH,yY,s,0,0.551485792,y,1,0.097224206,RSVPLG01,0.94,2023-09-12-22:58:04,903,1,Experiment,2023-09-12_16h01.50.141
8,global,local,3,15,3,183,7,,,189,exp,HYETLZUENFHYTFZ,UEHZSEYXTUNNTHF,5,L,X,lL,yY,s,0,0.525054995,y,1,1.291522137,RSVPLG01,0.94,2023-09-12-22:58:04,903,1,Experiment,2023-09-12_16h01.50.141
8,global,local,3,15,4,184,7,,,190,exp,HLNEZFSZSLUYNHE,UZEHSTNZXSYELUL,6,F,X,fF,yY,z,0,0.940342891,y,1,0.09856207,RSVPLG01,0.94,2023-09-12-22:58:04,903,1,Experiment,2023-09-12_16h01.50.141
3,local,local,7,15,5,185,2,,,191,exp,SUFZTUSLLEYYENF,NSFHULTNYYXSTUE,4,H,X,hH,yY,h,1,0.684491475,y,1,0.042276697,RSVPLG01,0.94,2023-09-12-22:58:04,903,1,Experiment,2023-09-12_16h01.50.141
10,global,global,0,15,6,186,9,,,192,exp,HUZHYZFTTLEEFSL,HZETNHFZLFEUUTL,5,Y,absent,yY,nN,y,1,0.451022989,n,1,0.056216148,RSVPLG01,0.94,2023-09-12-22:58:04,903,1,Experiment,2023-09-12_16h01.50.141
9,global,local,7,15,7,187,8,,,193,exp,LHTUESFTLZSFEHZ,EFSNSLTHZFXHTEL,4,U,X,uU,yY,u,1,0.405284633,y,1,0.06026386,RSVPLG01,0.94,2023-09-12-22:58:04,903,1,Experiment,2023-09-12_16h01.50.141
8,global,local,3,15,8,188,7,,,194,exp,SFLSHYLUUZNYNTZ,NYLFEUFXSZZUSTN,5,H,X,hH,yY,e,0,1.331025537,y,1,0.731056011,RSVPLG01,0.94,2023-09-12-22:58:04,903,1,Experiment,2023-09-12_16h01.50.141
6,local,global,7,15,9,189,5,,,195,exp,ZUZYTUTESFXLHES,ZTSNHUEZEFTUHLS,4,N,X,nN,yY,n,1,0.834267687,y,1,0.074184779,RSVPLG01,0.94,2023-09-12-22:58:04,903,1,Experiment,2023-09-12_16h01.50.141
2,local,local,3,15,10,190,1,,,196,exp,ZELZFSFNYUTULNT,FNLYYHTLXEZEFZT,6,H,X,hH,yY,y,0,0.841371156,y,1,0.064635634,RSVPLG01,0.94,2023-09-12-22:58:04,903,1,Experiment,2023-09-12_16h01.50.141
1,local,local,0,15,11,191,0,,,197,exp,HNLTSELFNUSYTHU,HSYNSZUNTLFLFHU,6,Z,absent,zZ,nN,z,1,0.668589122,n,1,0.092067326,RSVPLG01,0.94,2023-09-12-22:58:04,903,1,Experiment,2023-09-12_16h01.50.141
11,global,global,3,16,0,192,10,,,198,exp,EUNZSFHXEZLUFTN,LHLTYHUUZNZNEEF,5,S,X,sS,yY,z,0,0.560902834,n,0,0.085536912,RSVPLG01,0.94,2023-09-12-22:58:04,903,1,Experiment,2023-09-12_16h01.50.141
3,local,local,7,16,1,193,2,,,199,exp,UHFYTFSEZHSLULE,FZUNEHLUTEXFLTS,4,N,X,nN,yY,y,0,1.487116299,y,1,0.738978432,RSVPLG01,0.94,2023-09-12-22:58:04,903,1,Experiment,2023-09-12_16h01.50.141
1,local,local,0,16,2,194,0,,,200,exp,EZNSHTHENTYYLZF,HNLULZEZTEHNFTF,4,U,absent,uU,nN,u,1,0.528985969,n,1,0.075129959,RSVPLG01,0.94,2023-09-12-22:58:04,903,1,Experiment,2023-09-12_16h01.50.141
5,local,global,3,16,3,195,4,,,201,exp,THZFNEUTXYNFZUH,HLTZYSZNHFUTYFN,6,S,X,sS,yY,s,1,0.517638138,y,1,0.057733216,RSVPLG01,0.94,2023-09-12-22:58:04,903,1,Experiment,2023-09-12_16h01.50.141
10,global,global,0,16,4,196,9,,,202,exp,SUHLFLZYZETTYHU,LHLUNSEZSHTEYTU,5,F,absent,fF,nN,f,1,1.555771694,y,0,0.303087062,RSVPLG01,0.94,2023-09-12-22:58:04,903,1,Experiment,2023-09-12_16h01.50.141
10,global,global,0,16,5,197,9,,,203,exp,LUSEFTUSNZZNTHE,NSUZYHUESLZETHN,5,F,absent,fF,nN,f,1,1.797245768,n,1,0.27374581,RSVPLG01,0.94,2023-09-12-22:58:04,903,1,Experiment,2023-09-12_16h01.50.141
4,local,global,0,16,6,198,3,,,204,exp,LSYEFNZLYEZTSNU,ELSTHZNUSZYTUYL,5,H,absent,hH,nN,h,1,1.092140209,n,1,0.819945694,RSVPLG01,0.94,2023-09-12-22:58:04,903,1,Experiment,2023-09-12_16h01.50.141
3,local,local,7,16,7,199,2,,,205,exp,YTTSLHHEFNESNYZ,SNTFUYNTSFHXZHZ,5,U,X,uU,yY,u,1,0.51811145,y,1,0.084266139,RSVPLG01,0.94,2023-09-12-22:58:04,903,1,Experiment,2023-09-12_16h01.50.141
5,local,global,3,16,8,200,4,,,206,exp,EHNFLHXYLTZTYEZ,HESUEYTLSYTZHZN,4,U,X,uU,yY,u,1,1.0373283,n,0,0.080469051,RSVPLG01,0.94,2023-09-12-22:58:04,903,1,Experiment,2023-09-12_16h01.50.141
4,local,global,0,16,9,201,3,,,207,exp,EZYUHLSHSZFYNNF,ZFUNYTUNEEYSHSF,6,T,absent,tT,nN,t,1,0.986782003,n,1,0.124836647,RSVPLG01,0.94,2023-09-12-22:58:04,903,1,Experiment,2023-09-12_16h01.50.141
7,global,local,0,16,10,202,6,,,208,exp,FYNTZSNZEULTUFL,ZNUNYHLETFYLTEU,6,S,absent,sS,nN,z,0,0.666195295,n,1,0.057886636,RSVPLG01,0.94,2023-09-12-22:58:04,903,1,Experiment,2023-09-12_16h01.50.141
6,local,global,7,16,11,203,5,,,209,exp,ZYEHFZSLLTXNNSY,NSFUFYNLTZEZYSE,4,U,X,uU,yY,u,1,0.508951705,y,1,0.051840552,RSVPLG01,0.94,2023-09-12-22:58:04,903,1,Experiment,2023-09-12_16h01.50.141
4,local,global,0,17,0,204,3,,,210,exp,HELZSNYZHTTNEFL,LLTNUZYNHTFEFYZ,5,U,absent,uU,nN,u,1,0.515373165,n,1,0.060385694,RSVPLG01,0.94,2023-09-12-22:58:04,903,1,Experiment,2023-09-12_16h01.50.141
11,global,global,3,17,1,205,10,,,211,exp,EUNULTYXNSZHTYS,NZTEFNUEZHYYSTH,5,L,X,lL,yY,l,1,0.40220287,y,1,0.058285827,RSVPLG01,0.94,2023-09-12-22:58:04,903,1,Experiment,2023-09-12_16h01.50.141
5,local,global,3,17,2,206,4,,,212,exp,UNTLZHXENTYEFHU,TEUSYHNFNTHYZEU,4,S,X,sS,yY,s,1,0.450825477,y,1,0.034112484,RSVPLG01,0.94,2023-09-12-22:58:04,903,1,Experiment,2023-09-12_16h01.50.141
2,local,local,3,17,3,207,1,,,213,exp,UNSLEUTFHSETHZN,NUFYHZXZTESSFTH,4,Y,X,yY,yY,y,1,0.218218451,y,1,0.048988189,RSVPLG01,0.94,2023-09-12-22:58:04,903,1,Experiment,2023-09-12_16h01.50.141
5,local,global,3,17,4,208,4,,,214,exp,TEFUYSXHFHYZLEL,LSLNEYSZHTZTFHY,4,N,X,nN,yY,n,1,0.475499924,y,1,0.107429223,RSVPLG01,0.94,2023-09-12-22:58:04,903,1,Experiment,2023-09-12_16h01.50.141
7,global,local,0,17,5,209,6,,,215,exp,YYNTFLLUHZNHUTE,NEZHSNETLZYTLUU,5,F,absent,fF,nN,f,1,1.441801485,y,0,0.531527658,RSVPLG01,0.94,2023-09-12-22:58:04,903,1,Experiment,2023-09-12_16h01.50.141
7,global,local,0,17,6,210,6,,,216,exp,EFUFZTNSNLUHLSE,LNTUYSLFETSFEHU,5,Z,absent,zZ,nN,z,1,0.675271203,n,1,0.037594315,RSVPLG01,0.94,2023-09-12-22:58:04,903,1,Experiment,2023-09-12_16h01.50.141
7,global,local,0,17,7,211,6,,,217,exp,ZYNLTUZFNLHYSTS,LYTSHEFLZNZTFHY,6,U,absent,uU,nN,u,1,0.681223213,n,1,0.025728645,RSVPLG01,0.94,2023-09-12-22:58:04,903,1,Experiment,2023-09-12_16h01.50.141
8,global,local,3,17,8,212,7,,,218,exp,TYNZHUELSEYNSTH,UUTFELXYHTHNYSL,4,Z,X,zZ,yY,z,1,0.436239817,y,1,0.072151445,RSVPLG01,0.94,2023-09-12-22:58:04,903,1,Experiment,2023-09-12_16h01.50.141
6,local,global,7,17,9,213,5,,,219,exp,ZNNUZLHFTTFEXSH,THESNYUENHZTZFS,6,Y,X,yY,yY,y,1,0.809058201,n,0,0.071526523,RSVPLG01,0.94,2023-09-12-22:58:04,903,1,Experiment,2023-09-12_16h01.50.141
7,global,local,0,17,10,214,6,,,220,exp,UZYUFNTHTEEYLHL,YYLUZSFUELHEFTZ,6,N,absent,nN,nN,n,1,1.012288313,n,1,0.045902479,RSVPLG01,0.94,2023-09-12-22:58:04,903,1,Experiment,2023-09-12_16h01.50.141
6,local,global,7,17,11,215,5,,,221,exp,HLUNFLYSZFXUZYS,TLZEZHSUYLFHSTU,4,E,X,eE,yY,e,1,0.665200842,y,1,0.039682298,RSVPLG01,0.94,2023-09-12-22:58:04,903,1,Experiment,2023-09-12_16h01.50.141
8,global,local,3,18,0,216,7,,,222,exp,ZNSTLEUUHSZFHNF,FFLYNSXUSHEUEZZ,4,T,X,tT,yY,y,0,0.606108624,y,1,0.014021243,RSVPLG01,0.94,2023-09-12-22:58:04,903,1,Experiment,2023-09-12_16h01.50.141
5,local,global,3,18,1,217,4,,,223,exp,YLZUETXLFZSESNY,EZTHZLNELNFYSFS,4,H,X,hH,yY,h,1,0.425554503,y,1,0.05426625,RSVPLG01,0.94,2023-09-12-22:58:04,903,1,Experiment,2023-09-12_16h01.50.141
8,global,local,3,18,2,218,7,,,224,exp,USTHFZEUSTYLFYE,ZEUNZFXETTUYLFS,4,H,X,hH,yY,h,1,0.737995323,y,1,0.046361092,RSVPLG01,0.94,2023-09-12-22:58:04,903,1,Experiment,2023-09-12_16h01.50.141
6,local,global,7,18,3,219,5,,,225,exp,TLYHEHSTZLFXNNF,YNLHULFYZSHNSZT,5,U,X,uU,yY,u,1,0.569933822,y,1,0.050679904,RSVPLG01,0.94,2023-09-12-22:58:04,903,1,Experiment,2023-09-12_16h01.50.141
4,local,global,0,18,4,220,3,,,226,exp,EFZULEZFTYYSSTH,ZSZYNFTEETFUHUS,5,N,absent,nN,nN,n,1,0.644743357,n,1,0.065574521,RSVPLG01,0.94,2023-09-12-22:58:04,903,1,Experiment,2023-09-12_16h01.50.141
4,local,global,0,18,5,221,3,,,227,exp,HYZTHSUNEFNZUSE,YNULZYHHZEFUSNE,4,L,absent,lL,nN,l,1,0.716126197,n,1,0.252752752,RSVPLG01,0.94,2023-09-12-22:58:04,903,1,Experiment,2023-09-12_16h01.50.141
1,local,local,0,18,6,222,0,,,228,exp,ZHEULNUSZLTYEHY,EELUYFZHTLTYSSU,6,F,absent,fF,nN,f,1,0.888637212,n,1,0.544877313,RSVPLG01,0.94,2023-09-12-22:58:04,903,1,Experiment,2023-09-12_16h01.50.141
9,global,local,7,18,7,223,8,,,229,exp,FHUTYNNZUZSYLSL,LZFESFUZLHXYNYH,4,T,X,tT,yY,t,1,0.673283551,y,1,0.003631689,RSVPLG01,0.94,2023-09-12-22:58:04,903,1,Experiment,2023-09-12_16h01.50.141
9,global,local,7,18,8,224,8,,,230,exp,LSEUFNLHZEUHZSY,SYLUETUHZFZHXYE,6,N,X,nN,yY,n,1,0.667490935,y,1,0.068297699,RSVPLG01,0.94,2023-09-12-22:58:04,903,1,Experiment,2023-09-12_16h01.50.141
5,local,global,3,18,9,225,4,,,231,exp,TEUZYHSXNTHZESN,SNUZFLHSENUHETL,5,F,X,fF,yY,f,1,3.034833149,y,1,0.651720086,RSVPLG01,0.94,2023-09-12-22:58:04,903,1,Experiment,2023-09-12_16h01.50.141
7,global,local,0,18,10,226,6,,,232,exp,FNHZTSEULULZNEF,FUSZYEHNUFLLZNE,5,T,absent,tT,nN,y,0,0.709888896,n,1,0.100616761,RSVPLG01,0.94,2023-09-12-22:58:04,903,1,Experiment,2023-09-12_16h01.50.141
9,global,local,7,18,11,227,8,,,233,exp,FTZYNLHUFTNUHSS,ZNUESFUTSLXHTFZ,4,Y,X,yY,yY,y,1,0.335411624,y,1,0.038645457,RSVPLG01,0.94,2023-09-12-22:58:04,903,1,Experiment,2023-09-12_16h01.50.141
9,global,local,7,19,0,228,8,,,234,exp,YEFUHTSHYEZTLSF,FZTNELETHSXHZYL,4,U,X,uU,yY,n,0,0.566264326,y,1,0.095294039,RSVPLG01,0.94,2023-09-12-22:58:04,903,1,Experiment,2023-09-12_16h01.50.141
4,local,global,0,19,1,229,3,,,235,exp,LFNUNYSHFEESZLU,NUSZFTELZHLUSFH,6,T,absent,tT,nN,t,1,1.159838334,n,1,0.088551455,RSVPLG01,0.94,2023-09-12-22:58:04,903,1,Experiment,2023-09-12_16h01.50.141
11,global,global,3,19,2,230,10,,,236,exp,UUTLZHFXYLENYHT,HYFUSLTEYNTLENF,5,Z,X,zZ,yY,z,1,0.414371806,y,1,0.065222511,RSVPLG01,0.94,2023-09-12-22:58:04,903,1,Experiment,2023-09-12_16h01.50.141
10,global,global,0,19,3,231,9,,,237,exp,YLESUFYLTZUEFZH,ZLUNZUHYEELHFFT,4,S,absent,sS,nN,z,0,0.734111178,n,1,0.851727062,RSVPLG01,0.94,2023-09-12-22:58:04,903,1,Experiment,2023-09-12_16h01.50.141
3,local,local,7,19,4,232,2,,,238,exp,NYYFLNTHSLSHTEE,LSLZYUENHEXYUNS,4,Z,X,zZ,yY,z,1,1.276219279,y,1,0.164990103,RSVPLG01,0.94,2023-09-12-22:58:04,903,1,Experiment,2023-09-12_16h01.50.141
1,local,local,0,19,5,233,0,,,239,exp,EZYTNUUSYSFHEHZ,FUHTLTYZFEUEYSS,5,L,absent,lL,nN,l,1,1.162725707,n,1,0.183356699,RSVPLG01,0.94,2023-09-12-22:58:04,903,1,Experiment,2023-09-12_16h01.50.141
6,local,global,7,19,6,234,5,,,240,exp,TSEEHZFNUSFTXHY,ENTTULHNSYUFSHF,6,L,X,lL,yY,l,1,0.568139893,y,1,0.089979866,RSVPLG01,0.94,2023-09-12-22:58:04,903,1,Experiment,2023-09-12_16h01.50.141
11,global,global,3,19,7,235,10,,,241,exp,ENNLTZXUHSZSHEU,TNSYHFZZEUNTEUH,4,L,X,lL,yY,y,0,0.59216363,y,1,0.270557482,RSVPLG01,0.94,2023-09-12-22:58:04,903,1,Experiment,2023-09-12_16h01.50.141
1,local,local,0,19,8,236,0,,,242,exp,UYTZFSHYETZSULH,ULLHNZTYHUTSSZE,5,N,absent,nN,nN,n,1,0.550549549,y,0,0.116484239,RSVPLG01,0.94,2023-09-12-22:58:04,903,1,Experiment,2023-09-12_16h01.50.141
9,global,local,7,19,9,237,8,,,243,exp,FUZSSTYNLUHYLHZ,SHFSYELUZFUNXNL,6,T,X,tT,yY,e,0,0.817720409,y,1,0.307244878,RSVPLG01,0.94,2023-09-12-22:58:04,903,1,Experiment,2023-09-12_16h01.50.141
2,local,local,3,19,10,238,1,,,244,exp,YFSHTSENFLZZTNE,TLFUNSXFYSETZNY,4,U,X,uU,yY,u,1,0.432416336,y,1,0.15646763,RSVPLG01,0.94,2023-09-12-22:58:04,903,1,Experiment,2023-09-12_16h01.50.141
4,local,global,0,19,11,239,3,,,245,exp,THSFUSLUNTHYZZL,ZLSEUYLTNUHHYSN,4,E,absent,eE,nN,e,1,0.727704455,n,1,0.276892642,RSVPLG01,0.94,2023-09-12-22:58:04,903,1,Experiment,2023-09-12_16h01.50.141