row,t1_level,t2_level,t2_lag,.thisRepN,.thisTrialN,.thisN,.thisIndex,thisRow.t,notes,trial,trial_type,global_letters,local_letters,t1_pos,t1,t2,t1_corr,t2_corr,t1_resp,t1_acc,t1_rt,t2_resp,t2_acc,t2_rt,exp,ver,mod-utc,sub,sess,blocktyp,datetime,
10,global,global,0,0,0,0,9,,,1,warmup,HLUTESYYZUSNNHL,NHEFUSZYEHZULNY,4,T,absent,tT,nN,t,1,0.39220520001254044,n,1,0.3757538999780081,RSVPLG01,0.94,2023-09-13-22:05:05,972,1,Experiment,2023-09-13_15h12.08.588,
3,local,local,7,0,1,1,2,,,2,warmup,HTYLHNESETUZYUZ,EHTYEFUHUTZYXLS,6,F,X,fF,yY,f,1,0.4813830000057351,y,1,0.3141258000105154,RSVPLG01,0.94,2023-09-13-22:05:05,972,1,Experiment,2023-09-13_15h12.08.588,
7,global,local,0,0,2,2,6,,,3,warmup,TTNSEZEUFFHLZHU,THLYUFUHENELFZN,4,S,absent,sS,nN,e,0,0.41574559998116456,n,1,0.28098909999243915,RSVPLG01,0.94,2023-09-13-22:05:05,972,1,Experiment,2023-09-13_15h12.08.588,
11,global,global,3,0,3,3,10,,,4,warmup,LTHNSSXFTZFLUEU,LFTYSHEZESUTUFH,4,N,X,nN,yY,n,1,0.5432546999945771,n,0,0.2992120000126306,RSVPLG01,0.94,2023-09-13-22:05:05,972,1,Experiment,2023-09-13_15h12.08.588,
9,global,local,7,0,4,4,8,,,5,warmup,UFLLESHTFTHYUZY,UZLFYNFUZHTTXHY,6,S,X,sS,yY,s,1,0.41594669999904,y,1,0.25608520000241697,RSVPLG01,0.94,2023-09-13-22:05:05,972,1,Experiment,2023-09-13_15h12.08.588,
2,local,local,3,0,0,0,1,,,6,exp,TFHZYUSSEULHEZL,STEZNTFXLUHSUEZ,5,N,X,nN,yY,n,1,0.5211219000048004,n,0,0.3143378999957349,RSVPLG01,0.94,2023-09-13-22:05:05,972,1,Experiment,2023-09-13_15h12.08.588,
11,global,global,3,0,1,1,10,,,7,exp,TTYELULYXENHSHZ,YZTYEFZNNLETHLS,6,U,X,uU,yY,u,1,0.6897148999851197,n,0,0.7308809999958612,RSVPLG01,0.94,2023-09-13-22:05:05,972,1,Experiment,2023-09-13_15h12.08.588,
6,local,global,7,0,2,2,5,,,8,exp,NZHZTESHSUYUXFT,TNUHYLSZFYZFUNS,6,L,X,lL,yY,l,1,0.4049134000088088,y,1,0.21843320000334643,RSVPLG01,0.94,2023-09-13-22:05:05,972,1,Experiment,2023-09-13_15h12.08.588,
9,global,local,7,0,3,3,8,,,9,exp,TUSEHFNTLSNEHLZ,NEZUTYNSTLEHXSZ,6,F,X,fF,yY,n,0,0.5137714000011329,n,0,0.23416379999252968,RSVPLG01,0.94,2023-09-13-22:05:05,972,1,Experiment,2023-09-13_15h12.08.588,
8,global,local,3,0,4,4,7,,,10,exp,ELSLFTNEYHZYFZS,YNYESUNHXFFLLZE,6,T,X,tT,yY,t,1,0.7764426999783609,y,1,0.1278644000121858,RSVPLG01,0.94,2023-09-13-22:05:05,972,1,Experiment,2023-09-13_15h12.08.588,
2,local,local,3,0,5,5,1,,,11,exp,NLLENUYHSUFSFYZ,NHLTUNXZSUFZHYY,4,T,X,tT,yY,t,1,0.8346315000089817,y,1,0.05784080000012182,RSVPLG01,0.94,2023-09-13-22:05:05,972,1,Experiment,2023-09-13_15h12.08.588,
2,local,local,3,0,6,6,1,,,12,exp,TZYSLFFEYUSUHZE,FHYENEUXTFHTSZU,5,N,X,nN,yY,e,0,0.4568753000057768,n,0,0.20445520000066608,RSVPLG01,0.94,2023-09-13-22:05:05,972,1,Experiment,2023-09-13_15h12.08.588,
11,global,global,3,0,7,7,10,,,13,exp,LZNYUENSXZFHFUS,SSFUHTLNLFNYUYH,6,E,X,eE,yY,e,1,0.6100965999939945,y,1,0.0898276999942027,RSVPLG01,0.94,2023-09-13-22:05:05,972,1,Experiment,2023-09-13_15h12.08.588,
4,local,global,0,0,8,8,3,,,14,exp,NUZLSFZTUSNHYFT,ZTHEUUYZFSTNHNF,4,E,absent,eE,nN,e,1,0.3686759000120219,n,1,0.12223869998706505,RSVPLG01,0.94,2023-09-13-22:05:05,972,1,Experiment,2023-09-13_15h12.08.588,
9,global,local,7,0,9,9,8,,,15,exp,NZNSLULFHUTFHYY,ZFUEYHLYNZXLTHT,4,S,X,sS,yY,s,1,0.8229795999941416,y,1,0.0588481999875512,RSVPLG01,0.94,2023-09-13-22:05:05,972,1,Experiment,2023-09-13_15h12.08.588,
10,global,global,0,0,10,10,9,,,16,exp,YLHZEYTFUSFUZTS,YLTLNUTFYFSUZHZ,5,E,absent,eE,nN,e,1,0.3946021999872755,n,1,0.17050619999645278,RSVPLG01,0.94,2023-09-13-22:05:05,972,1,Experiment,2023-09-13_15h12.08.588,
7,global,local,0,0,11,11,6,,,17,exp,HSNUYHNZZLFSEEL,ESNLTHNZUHFZFSE,5,Y,absent,yY,nN,y,1,0.817372699995758,n,1,0.3307348000234924,RSVPLG01,0.94,2023-09-13-22:05:05,972,1,Experiment,2023-09-13_15h12.08.588,
9,global,local,7,1,0,12,8,,,18,exp,FULNSZYFSLHHUNE,HNYFFTYUENSSXLH,6,Z,X,zZ,yY,z,1,0.9630023000063375,y,1,0.12092999997548759,RSVPLG01,0.94,2023-09-13-22:05:05,972,1,Experiment,2023-09-13_15h12.08.588,
6,local,global,7,1,1,13,5,,,19,exp,HYYLFSTHESXFTNZ,EHFUNYZZSTSFTEH,4,U,X,uU,yY,u,1,0.6694505000195932,y,1,0.17138029998750426,RSVPLG01,0.94,2023-09-13-22:05:05,972,1,Experiment,2023-09-13_15h12.08.588,
11,global,global,3,1,2,14,10,,,20,exp,UYZSHLEXZSFFUNL,UUNSTFLYYLENSEZ,5,H,X,hH,yY,h,1,0.7308908999839332,n,0,0.09157079999567941,RSVPLG01,0.94,2023-09-13-22:05:05,972,1,Experiment,2023-09-13_15h12.08.588,
9,global,local,7,1,3,15,8,,,21,exp,UYZTLEZHNFUYETF,YHHZSEUTUZTXENN,5,L,X,lL,yY,l,1,0.4474301000009291,y,1,0.17228859997703694,RSVPLG01,0.94,2023-09-13-22:05:05,972,1,Experiment,2023-09-13_15h12.08.588,
7,global,local,0,1,4,16,6,,,22,exp,UEFYZELZTFSUSHL,SULNEFTHEFLTZHS,4,Y,absent,yY,nN,y,1,0.7183915999776218,n,1,0.09221999999135733,RSVPLG01,0.94,2023-09-13-22:05:05,972,1,Experiment,2023-09-13_15h12.08.588,
3,local,local,7,1,5,17,2,,,23,exp,EHFFNHZEYYUZTUT,LUYHSEUTZETXZYF,5,S,X,sS,yY,s,1,0.5548758000077214,y,1,0.13817799999378622,RSVPLG01,0.94,2023-09-13-22:05:05,972,1,Experiment,2023-09-13_15h12.08.588,
7,global,local,0,1,6,18,6,,,24,exp,NTLLSTZUHZNFHFU,UTLHYTNZLEHUZFN,5,S,absent,sS,nN,s,1,0.3858233999926597,n,1,0.20177900002454408,RSVPLG01,0.94,2023-09-13-22:05:05,972,1,Experiment,2023-09-13_15h12.08.588,
7,global,local,0,1,7,19,6,,,25,exp,EYLTSULTEYHZNNZ,ZZNUFTHTELYNLYE,5,S,absent,sS,nN,s,1,0.4415767999889795,n,1,0.17086730001028627,RSVPLG01,0.94,2023-09-13-22:05:05,972,1,Experiment,2023-09-13_15h12.08.588,
10,global,global,0,1,8,20,9,,,26,exp,TYTSENNLLYHSZHF,TFSZUSLLHFYZNTN,5,E,absent,eE,nN,e,1,0.7000078999844845,n,1,0.15466270002070814,RSVPLG01,0.94,2023-09-13-22:05:05,972,1,Experiment,2023-09-13_15h12.08.588,
3,local,local,7,1,9,21,2,,,27,exp,NNFTUELYUTSYFZZ,TNYSZHSYULTZXUF,6,H,X,hH,yY,h,1,0.7013201999943703,y,1,0.09495440000318922,RSVPLG01,0.94,2023-09-13-22:05:05,972,1,Experiment,2023-09-13_15h12.08.588,
8,global,local,3,1,10,22,7,,,28,exp,UFTZZNSUHFELSTH,FUHESYLZXLHFZEU,6,N,X,nN,yY,n,1,0.5112155000097118,n,0,0.21844210001290776,RSVPLG01,0.94,2023-09-13-22:05:05,972,1,Experiment,2023-09-13_15h12.08.588,
3,local,local,7,1,11,23,2,,,29,exp,FEZHNTELHUSTUZF,ELZHYHTSLZUXUTF,5,Y,X,yY,yY,y,1,0.6455459999851882,y,1,0.07452510000439361,RSVPLG01,0.94,2023-09-13-22:05:05,972,1,Experiment,2023-09-13_15h12.08.588,
12,global,global,7,2,0,24,11,,,30,exp,FYLETZUTYHESXLU,LHYEENHUTULFYSF,6,Z,X,zZ,yY,z,1,0.3704505999921821,n,0,0.2835399000032339,RSVPLG01,0.94,2023-09-13-22:05:05,972,1,Experiment,2023-09-13_15h12.08.588,
2,local,local,3,2,1,25,1,,,31,exp,NTHSZHEUNFEUTYF,FSUSLTTXEEUYNHY,5,L,X,lL,yY,z,0,0.5349931000091601,n,0,0.1222979000012856,RSVPLG01,0.94,2023-09-13-22:05:05,972,1,Experiment,2023-09-13_15h12.08.588,
11,global,global,3,2,2,26,10,,,32,exp,SZSNZEHTXTLYFLY,FZHHTUZSNLLYNTF,6,E,X,eE,yY,h,0,0.73848500000895,n,0,0.1220364999899175,RSVPLG01,0.94,2023-09-13-22:05:05,972,1,Experiment,2023-09-13_15h12.08.588,
1,local,local,0,2,3,27,0,,,33,exp,ELEUSTTLFSZZHYY,LYFNESTZFLTYHZH,4,N,absent,nN,nN,n,1,0.4232661999994889,n,1,0.24937500001396984,RSVPLG01,0.94,2023-09-13-22:05:05,972,1,Experiment,2023-09-13_15h12.08.588,
8,global,local,3,2,4,28,7,,,34,exp,SSYZULTZFYFTEHE,SETZNFEXZFHLYHL,5,U,X,uU,yY,u,1,0.5314575000084005,y,1,0.04619530000491068,RSVPLG01,0.94,2023-09-13-22:05:05,972,1,Experiment,2023-09-13_15h12.08.588,
3,local,local,7,2,5,29,2,,,35,exp,YTESNUZLUYEFFZS,LUEFHZZUSTYXTYE,5,H,X,hH,yY,h,1,0.6688316999934614,n,0,0.26602909999201074,RSVPLG01,0.94,2023-09-13-22:05:05,972,1,Experiment,2023-09-13_15h12.08.588,
11,global,global,3,2,6,30,10,,,36,exp,NELYEZFNXYUFSSH,NFLYHTYSHNUFSEL,6,Z,X,zZ,yY,z,1,0.5129481999902055,n,0,0.15465929999481887,RSVPLG01,0.94,2023-09-13-22:05:05,972,1,Experiment,2023-09-13_15h12.08.588,
7,global,local,0,2,7,31,6,,,37,exp,UYTLHZYNLFETNZU,NLNFSYLTUYEUZTZ,5,H,absent,hH,nN,h,1,0.5611626000027172,n,1,0.2037224000087008,RSVPLG01,0.94,2023-09-13-22:05:05,972,1,Experiment,2023-09-13_15h12.08.588,
10,global,global,0,2,8,32,9,,,38,exp,YUSZSHFEZNNFYUL,NFNSETLLYUUYFZZ,6,H,absent,hH,nN,h,1,0.70781680001528,n,1,0.04168669998762198,RSVPLG01,0.94,2023-09-13-22:05:05,972,1,Experiment,2023-09-13_15h12.08.588,
5,local,global,3,2,9,33,4,,,39,exp,NTZFEYXNZYHUHTL,ULTSYETZHENHUZL,4,S,X,sS,yY,s,1,0.4777163000253495,y,1,0.09082610000041313,RSVPLG01,0.94,2023-09-13-22:05:05,972,1,Experiment,2023-09-13_15h12.08.588,
7,global,local,0,2,10,34,6,,,40,exp,EYLFYUZLUNSNTET,NEZHUTZTLYLESYN,4,F,absent,fF,nN,f,1,0.4033527999999933,n,1,0.15500280002015643,RSVPLG01,0.94,2023-09-13-22:05:05,972,1,Experiment,2023-09-13_15h12.08.588,
1,local,local,0,2,11,35,0,,,41,exp,NUTFSTZLZEELFUN,EUFTYNZHZHUNLEF,5,Y,absent,yY,nN,y,1,0.8959036000014748,n,1,0.36261380001087673,RSVPLG01,0.94,2023-09-13-22:05:05,972,1,Experiment,2023-09-13_15h12.08.588,
6,local,global,7,3,0,36,5,,,42,exp,USTLENNZFFXTZEY,FTZHENENSUYFZYT,4,H,X,hH,yY,e,0,0.357090799981961,n,0,0.17122640000889078,RSVPLG01,0.94,2023-09-13-22:05:05,972,1,Experiment,2023-09-13_15h12.08.588,
6,local,global,7,3,1,37,5,,,43,exp,NSSNEZHYUFLXUYZ,SLUYTNZHFUFSLYZ,5,T,X,tT,yY,t,1,0.6221946000005119,y,1,0.010876200016355142,RSVPLG01,0.94,2023-09-13-22:05:05,972,1,Experiment,2023-09-13_15h12.08.588,
9,global,local,7,3,2,38,8,,,44,exp,NELUSZYTSNFLEYT,SNEHLZTEFSXNTYF,4,U,X,uU,yY,u,1,1.240185200003907,y,1,0.029757200012682006,RSVPLG01,0.94,2023-09-13-22:05:05,972,1,Experiment,2023-09-13_15h12.08.588,
11,global,global,3,3,3,39,10,,,45,exp,EFUHZNHZXYSLEYS,ZSYHYTLUZLFESHE,6,N,X,nN,yY,h,0,0.7696934000123292,n,0,0.2669212000037078,RSVPLG01,0.94,2023-09-13-22:05:05,972,1,Experiment,2023-09-13_15h12.08.588,
9,global,local,7,3,4,40,8,,,46,exp,YULNFSEYEHZSUNL,HZNETLULHNUXYEY,5,F,X,fF,yY,e,0,0.5023131999769248,n,0,0.20178370000212453,RSVPLG01,0.94,2023-09-13-22:05:05,972,1,Experiment,2023-09-13_15h12.08.588,
2,local,local,3,3,5,41,1,,,47,exp,ZLTZELNFSNSUFYU,FLUNHYNXTZSUFSY,5,H,X,hH,yY,h,1,1.0140300999919418,n,0,0.34733169997343794,RSVPLG01,0.94,2023-09-13-22:05:05,972,1,Experiment,2023-09-13_15h12.08.588,
7,global,local,0,3,6,42,6,,,48,exp,UULHTSEYZNHTEZL,THEZNFYTLELUZYH,6,S,absent,sS,nN,s,1,0.563991699978942,n,1,0.1696898000082001,RSVPLG01,0.94,2023-09-13-22:05:05,972,1,Experiment,2023-09-13_15h12.08.588,
10,global,global,0,3,7,43,9,,,49,exp,UTZNHENLFZYHULF,YLHHLSYNUFFUZTN,6,E,absent,eE,nN,e,1,0.42899259997648187,n,1,0.10735150001710281,RSVPLG01,0.94,2023-09-13-22:05:05,972,1,Experiment,2023-09-13_15h12.08.588,
10,global,global,0,3,8,44,9,,,50,exp,NLYZEZYHSUNFSUH,YYUSTSHNZFUFZHN,5,E,absent,eE,nN,e,1,0.3162710999895353,n,1,0.0744721999799367,RSVPLG01,0.94,2023-09-13-22:05:05,972,1,Experiment,2023-09-13_15h12.08.588,
3,local,local,7,3,9,45,2,,,51,exp,SEZTLYFYNHEFZTS,HSYTUFENSNZXZTF,5,U,X,uU,yY,y,0,0.6591454999870621,n,0,0.2347122999781277,RSVPLG01,0.94,2023-09-13-22:05:05,972,1,Experiment,2023-09-13_15h12.08.588,
9,global,local,7,3,10,46,8,,,52,exp,UYSHYFZLEFSZLEU,NSSTEZFUUNXYLEL,4,H,X,hH,yY,h,1,0.7571676000079606,y,1,0.0738398999965284,RSVPLG01,0.94,2023-09-13-22:05:05,972,1,Experiment,2023-09-13_15h12.08.588,
3,local,local,7,3,11,47,2,,,53,exp,FUTEZLTESHSHLFU,HTNLYEHUEFUXSNT,5,Y,X,yY,yY,y,1,0.7908912000129931,y,1,0.061073900025803596,RSVPLG01,0.94,2023-09-13-22:05:05,972,1,Experiment,2023-09-13_15h12.08.588,
6,local,global,7,4,0,48,5,,,54,exp,ZETTLZHEUUYXSNN,TZTHFYNENUUSEZY,5,F,X,fF,yY,f,1,0.7615194999962114,y,1,0.05820240001776256,RSVPLG01,0.94,2023-09-13-22:05:05,972,1,Experiment,2023-09-13_15h12.08.588,
9,global,local,7,4,1,49,8,,,55,exp,LTNUFYTHHZNELEF,ZNHLTSTNUUFHXZL,6,Y,X,yY,yY,y,1,0.8286770999839064,y,1,0.09110560000408441,RSVPLG01,0.94,2023-09-13-22:05:05,972,1,Experiment,2023-09-13_15h12.08.588,
10,global,global,0,4,2,50,9,,,56,exp,YSNFHEYTUENHUZS,NTHLHTEYZUZYSEU,4,F,absent,fF,nN,f,1,0.391043699986767,n,1,0.07477100001415238,RSVPLG01,0.94,2023-09-13-22:05:05,972,1,Experiment,2023-09-13_15h12.08.588,
1,local,local,0,4,3,51,0,,,57,exp,SYHEUZFTSEHNNUT,NYNTSLUSEFEHFTY,6,L,absent,lL,nN,l,1,0.333684599987464,n,1,0.09543030001805164,RSVPLG01,0.94,2023-09-13-22:05:05,972,1,Experiment,2023-09-13_15h12.08.588,
9,global,local,7,4,4,52,8,,,58,exp,YUYLSZTTHUFLFEH,YEYTTNHEFSSUXLH,6,Z,X,zZ,yY,z,1,0.8986684000119567,y,1,0.043676900007994846,RSVPLG01,0.94,2023-09-13-22:05:05,972,1,Experiment,2023-09-13_15h12.08.588,
11,global,global,3,4,5,53,10,,,59,exp,LYZNSHFXNFZEEHL,ENZYUNEZTHLFYFH,5,S,X,sS,yY,h,0,2.47511949998443,n,0,0.7790268999815453,RSVPLG01,0.94,2023-09-13-22:05:05,972,1,Experiment,2023-09-13_15h12.08.588,
7,global,local,0,4,6,54,6,,,60,exp,LNZNSTZTEHEUUFL,LLNUYHFZEZETTFU,5,S,absent,sS,nN,z,0,0.7276892999943811,n,1,0.2663238000241108,RSVPLG01,0.94,2023-09-13-22:05:05,972,1,Experiment,2023-09-13_15h12.08.588,
3,local,local,7,4,7,55,2,,,61,exp,SYTLZUFHFNYZTLN,YLZFFETHSSTZXNY,6,E,X,eE,yY,e,1,0.770575500006089,y,1,0.05699169999570586,RSVPLG01,0.94,2023-09-13-22:05:05,972,1,Experiment,2023-09-13_15h12.08.588,
6,local,global,7,4,8,56,5,,,62,exp,HEZTEFHNFYXZULL,NUYSZFZEHYFEHLN,4,S,X,sS,yY,s,1,0.587956800009124,y,1,0.10568189999321476,RSVPLG01,0.94,2023-09-13-22:05:05,972,1,Experiment,2023-09-13_15h12.08.588,
8,global,local,3,4,9,57,7,,,63,exp,LHSUHSFFYZTTNNZ,SNZEYFXHLFHTNLS,4,U,X,uU,yY,u,1,0.5850759999884758,y,1,0.025684399995952845,RSVPLG01,0.94,2023-09-13-22:05:05,972,1,Experiment,2023-09-13_15h12.08.588,
9,global,local,7,4,10,58,8,,,64,exp,THFZENTYUYLLEFZ,EEZUZSTUFTHYXHL,6,N,X,nN,yY,n,1,0.7443047999986447,y,1,0.18562280002515763,RSVPLG01,0.94,2023-09-13-22:05:05,972,1,Experiment,2023-09-13_15h12.08.588,
2,local,local,3,4,11,59,1,,,65,exp,HTYSHEUTUSNLZYZ,NYLUYFSHXTTZZUH,6,F,X,fF,yY,f,1,0.47437929999432527,y,1,0.042854600003920496,RSVPLG01,0.94,2023-09-13-22:05:05,972,1,Experiment,2023-09-13_15h12.08.588,
1,local,local,0,5,0,60,0,,,66,exp,ENELULZYNSZFSTT,LSEYHNYLZFNEFTZ,5,H,absent,hH,nN,h,1,0.3943335000076331,n,1,0.1053292999858968,RSVPLG01,0.94,2023-09-13-22:05:05,972,1,Experiment,2023-09-13_15h12.08.588,
2,local,local,3,5,1,61,1,,,67,exp,LSZEUNYLEYTTZFN,YFYNHTZXTEFSZEL,5,H,X,hH,yY,h,1,0.6484170999901835,y,1,0.027425300009781495,RSVPLG01,0.94,2023-09-13-22:05:05,972,1,Experiment,2023-09-13_15h12.08.588,
9,global,local,7,5,2,62,8,,,68,exp,LLZFTYSNFYZSNUE,NYZSHUFZFYEXUNS,5,T,X,tT,yY,t,1,0.7844528999994509,n,0,0.059030699980212376,RSVPLG01,0.94,2023-09-13-22:05:05,972,1,Experiment,2023-09-13_15h12.08.588,
3,local,local,7,5,3,63,2,,,69,exp,NLLYSHTTEUZSEZN,NNEZYFLUULEYXTT,6,F,X,fF,yY,f,1,0.5315784999984317,y,1,0.027071199991041794,RSVPLG01,0.94,2023-09-13-22:05:05,972,1,Experiment,2023-09-13_15h12.08.588,
7,global,local,0,5,4,64,6,,,70,exp,HLESZTLNENFUFTH,LFEYNTNUUZZFTLE,4,S,absent,sS,nN,s,1,0.5260527999780606,n,1,0.17009309999411926,RSVPLG01,0.94,2023-09-13-22:05:05,972,1,Experiment,2023-09-13_15h12.08.588,
6,local,global,7,5,5,65,5,,,71,exp,SUZNUELHTNLTXZS,TSSUNFYTNHZYHZU,6,F,X,fF,yY,f,1,0.3786549000069499,y,1,0.07405909997760318,RSVPLG01,0.94,2023-09-13-22:05:05,972,1,Experiment,2023-09-13_15h12.08.588,
11,global,global,3,5,6,66,10,,,72,exp,SFHHLYZXUNTFTSN,ZFHYEYSTUZTHUNS,5,L,X,lL,yY,e,0,0.2921349999960512,y,1,0.10610239999368787,RSVPLG01,0.94,2023-09-13-22:05:05,972,1,Experiment,2023-09-13_15h12.08.588,
8,global,local,3,5,7,67,7,,,73,exp,FLSFZEHULTNZSHT,ZNHTTYUSXSFFZLL,6,E,X,eE,yY,z,0,0.3723466999945231,n,0,0.1865164999908302,RSVPLG01,0.94,2023-09-13-22:05:05,972,1,Experiment,2023-09-13_15h12.08.588,
5,local,global,3,5,8,68,4,,,74,exp,LTSTZSEXFUYNELY,ESSNHLLYUETYFTF,5,H,X,hH,yY,z,0,0.4575323000026401,n,0,0.2026678999827709,RSVPLG01,0.94,2023-09-13-22:05:05,972,1,Experiment,2023-09-13_15h12.08.588,
6,local,global,7,5,9,69,5,,,75,exp,ESYTFNHTLYHXNSZ,ZZYHUESHTNSETLL,5,U,X,uU,yY,u,1,0.587856300000567,y,1,0.04240020000725053,RSVPLG01,0.94,2023-09-13-22:05:05,972,1,Experiment,2023-09-13_15h12.08.588,
10,global,global,0,5,10,70,9,,,76,exp,NHFNTYYLLEUUZHF,ZNLFSENHYEZYULH,5,T,absent,tT,nN,t,1,0.7438623000052758,n,1,0.07799750001868233,RSVPLG01,0.94,2023-09-13-22:05:05,972,1,Experiment,2023-09-13_15h12.08.588,
11,global,global,3,5,11,71,10,,,77,exp,ETYLUNXFUTNYSHH,TFHZUSYETYHSNNU,4,L,X,lL,yY,u,0,0.33751819998724386,n,0,0.12237339999410324,RSVPLG01,0.94,2023-09-13-22:05:05,972,1,Experiment,2023-09-13_15h12.08.588,
12,global,global,7,6,0,72,11,,,78,exp,HUUZLNHSFEXYYSE,EYNTHUYSNEFSFHL,4,Z,X,zZ,yY,z,1,0.3504957999975886,n,0,0.1374018999922555,RSVPLG01,0.94,2023-09-13-22:05:05,972,1,Experiment,2023-09-13_15h12.08.588,
12,global,global,7,6,1,73,11,,,79,exp,LTSNYSFFENLXUZU,FLNEHFUUSEZTNLZ,5,Y,X,yY,yY,y,1,0.6581456999992952,y,1,0.026441299996804446,RSVPLG01,0.94,2023-09-13-22:05:05,972,1,Experiment,2023-09-13_15h12.08.588,
4,local,global,0,6,2,74,3,,,80,exp,ENZLHYTENFFSTZY,SSFNUYZELFNTZYE,5,U,absent,uU,nN,u,1,0.7024613000103272,n,1,0.05789070000173524,RSVPLG01,0.94,2023-09-13-22:05:05,972,1,Experiment,2023-09-13_15h12.08.588,
1,local,local,0,6,3,75,0,,,81,exp,HSLHTENFUNYSLEU,YEFLZULNYNSFSHH,5,Z,absent,zZ,nN,n,0,0.37495250001666136,n,1,0.13767779999761842,RSVPLG01,0.94,2023-09-13-22:05:05,972,1,Experiment,2023-09-13_15h12.08.588,
10,global,global,0,6,4,76,9,,,82,exp,ZULNTUNYSFSHLHY,NFHSEZSLNYULZUY,5,T,absent,tT,nN,t,1,0.37453000000095926,n,1,0.20266780001111329,RSVPLG01,0.94,2023-09-13-22:05:05,972,1,Experiment,2023-09-13_15h12.08.588,
4,local,global,0,6,5,77,3,,,83,exp,ZYSUSELLTUTHHFF,FUHLHNFSTZUSLYZ,6,N,absent,nN,nN,n,1,0.48144289999618195,n,1,0.18671700000413693,RSVPLG01,0.94,2023-09-13-22:05:05,972,1,Experiment,2023-09-13_15h12.08.588,
7,global,local,0,6,6,78,6,,,84,exp,ESFTUZLNEZLUSHN,ELHYFHNLESZUZFN,4,T,absent,tT,nN,t,1,0.3156178999925032,n,1,0.0733092000009492,RSVPLG01,0.94,2023-09-13-22:05:05,972,1,Experiment,2023-09-13_15h12.08.588,
7,global,local,0,6,7,79,6,,,85,exp,HLEUYTHFSSNUELF,YNFHHZSLULFUEES,6,T,absent,tT,nN,t,1,0.41728650001459755,n,1,0.13842899998417124,RSVPLG01,0.94,2023-09-13-22:05:05,972,1,Experiment,2023-09-13_15h12.08.588,
4,local,global,0,6,8,80,3,,,86,exp,UYLTFHELUYNSNTF,NYFTTZYSFUEUNSE,6,Z,absent,zZ,nN,n,0,1.5140129999781493,n,1,0.21796889998950064,RSVPLG01,0.94,2023-09-13-22:05:05,972,1,Experiment,2023-09-13_15h12.08.588,
2,local,local,3,6,9,81,1,,,87,exp,EHLYZTENSSNZLUH,ZHUYLFELXSENZUS,6,F,X,fF,yY,e,0,0.41125620002276264,n,0,0.15497560001676902,RSVPLG01,0.94,2023-09-13-22:05:05,972,1,Experiment,2023-09-13_15h12.08.588,
5,local,global,3,6,10,82,4,,,88,exp,NTEHEFYLXUNZZYU,HZUYYSLETUNNLHZ,6,S,X,sS,yY,s,1,0.30673430001479574,y,1,0.04336019998299889,RSVPLG01,0.94,2023-09-13-22:05:05,972,1,Experiment,2023-09-13_15h12.08.588,
8,global,local,3,6,11,83,7,,,89,exp,FEHLTNZSYYFEHZN,YNLLUEFXSSFEHZZ,5,T,X,tT,yY,t,1,0.3048337000072934,n,0,0.11132090000319295,RSVPLG01,0.94,2023-09-13-22:05:05,972,1,Experiment,2023-09-13_15h12.08.588,
8,global,local,3,7,0,84,7,,,90,exp,ZTHYSUEZFNYEFNH,YEYTHLSZXSETZNH,6,U,X,uU,yY,u,1,0.402330399985658,n,0,0.09471609999309294,RSVPLG01,0.94,2023-09-13-22:05:05,972,1,Experiment,2023-09-13_15h12.08.588,
9,global,local,7,7,1,85,8,,,91,exp,SUFUHEZZLNSTNET,SEZFYNELLSZXTTU,5,H,X,hH,yY,h,1,0.4286809000186622,y,1,0.07925499998964369,RSVPLG01,0.94,2023-09-13-22:05:05,972,1,Experiment,2023-09-13_15h12.08.588,
7,global,local,0,7,2,86,6,,,92,exp,EFZELYTUYHFUZNN,ZYFNSNHYUTHEZUT,5,L,absent,lL,nN,l,1,0.37893040000926703,n,1,0.10899360000621527,RSVPLG01,0.94,2023-09-13-22:05:05,972,1,Experiment,2023-09-13_15h12.08.588,
8,global,local,3,7,3,87,7,,,93,exp,LNZSUYHTTFHZUSF,LTNFTEFHXZNZUHS,6,Y,X,yY,yY,y,1,0.5907454999978654,y,1,0.01031039998633787,RSVPLG01,0.94,2023-09-13-22:05:05,972,1,Experiment,2023-09-13_15h12.08.588,
8,global,local,3,7,4,88,7,,,94,exp,TUFSNZFHYZUTLYH,TFSYEZFXUHZLUST,5,N,X,nN,yY,n,1,0.38376199998310767,n,0,0.21856369997840375,RSVPLG01,0.94,2023-09-13-22:05:05,972,1,Experiment,2023-09-13_15h12.08.588,
2,local,local,3,7,5,89,1,,,95,exp,FTYUZFSEYHNZNHE,EZNLZFXHTFTSEYH,4,L,X,lL,yY,l,1,0.542221600015182,n,0,0.2347985999949742,RSVPLG01,0.94,2023-09-13-22:05:05,972,1,Experiment,2023-09-13_15h12.08.588,
2,local,local,3,7,6,90,1,,,96,exp,FLTHZELUFUSETYY,YETTNULXSEFLYSH,5,N,X,nN,yY,z,0,0.3676739000075031,n,0,0.15560759999789298,RSVPLG01,0.94,2023-09-13-22:05:05,972,1,Experiment,2023-09-13_15h12.08.588,
6,local,global,7,7,7,91,5,,,97,exp,NEZHZUSTUTXNFES,FTZYLSTFLNUZSEE,4,Y,X,yY,yY,y,1,0.5879923999891616,y,1,0.02714890000061132,RSVPLG01,0.94,2023-09-13-22:05:05,972,1,Experiment,2023-09-13_15h12.08.588,
3,local,local,7,7,8,92,2,,,98,exp,FZFUTLLSZENUNES,FLEFHZUESYLXNNS,5,H,X,hH,yY,h,1,0.7418955999892205,n,0,0.01026739997905679,RSVPLG01,0.94,2023-09-13-22:05:05,972,1,Experiment,2023-09-13_15h12.08.588,
7,global,local,0,7,9,93,6,,,99,exp,ZEFYNTYTLZHFHLS,TFSZUYLSTZYHLEE,5,N,absent,nN,nN,n,1,0.4492945000238251,n,1,0.15577499999199063,RSVPLG01,0.94,2023-09-13-22:05:05,972,1,Experiment,2023-09-13_15h12.08.588,
6,local,global,7,7,10,94,5,,,100,exp,EYYUNTNHFUHFXZZ,YUNZSLNFEHFZHEU,6,L,X,lL,yY,t,0,0.6879182999837212,y,1,0.009893900016322732,RSVPLG01,0.94,2023-09-13-22:05:05,972,1,Experiment,2023-09-13_15h12.08.588,
12,global,global,7,7,11,95,11,,,101,exp,LYHFLUUSYTXEEZZ,EHTNYULTSUEYHSL,4,F,X,fF,yY,f,1,0.6159396000148263,y,1,0.07477920001838356,RSVPLG01,0.94,2023-09-13-22:05:05,972,1,Experiment,2023-09-13_15h12.08.588,
5,local,global,3,8,0,96,4,,,102,exp,EYENTSXSYHUHLUZ,YEEFTHTSLLHUZUS,4,F,X,fF,yY,f,1,0.43891540000913665,y,1,0.21857160000945441,RSVPLG01,0.94,2023-09-13-22:05:05,972,1,Experiment,2023-09-13_15h12.08.588,
1,local,local,0,8,1,97,0,,,103,exp,SHUSFNYUYZHTNTZ,USEZLHHUSTZYYET,5,L,absent,lL,nN,l,1,0.46391349998884834,y,0,0.15419140001176856,RSVPLG01,0.94,2023-09-13-22:05:05,972,1,Experiment,2023-09-13_15h12.08.588,
4,local,global,0,8,2,98,3,,,104,exp,USETHFFYLHUSEZZ,UEFNZLSZUYHYESL,4,N,absent,nN,nN,n,1,0.5391286000085529,n,1,0.15296939999097958,RSVPLG01,0.94,2023-09-13-22:05:05,972,1,Experiment,2023-09-13_15h12.08.588,
11,global,global,3,8,3,99,10,,,105,exp,YNYFZTNXUHHSSLF,FFUTETHLNUYHYSL,5,Z,X,zZ,yY,z,1,0.6256672000163235,y,1,0.05762440001126379,RSVPLG01,0.94,2023-09-13-22:05:05,972,1,Experiment,2023-09-13_15h12.08.588,
5,local,global,3,8,4,100,4,,,106,exp,LTZUETFXNSSUNYZ,TUSUHFYNLYZFNLS,5,H,X,hH,yY,h,1,0.5591367999732029,y,1,0.026316900009987876,RSVPLG01,0.94,2023-09-13-22:05:05,972,1,Experiment,2023-09-13_15h12.08.588,
8,global,local,3,8,5,101,7,,,107,exp,ZNLFEHYSUFNSYHL,HZUSTYHXLFZUYFN,5,E,X,eE,yY,h,0,0.7811489000159781,n,0,0.28305720002390444,RSVPLG01,0.94,2023-09-13-22:05:05,972,1,Experiment,2023-09-13_15h12.08.588,
4,local,global,0,8,6,102,3,,,108,exp,HSLNUEZFTLZESUH,SHTYZHETSUFLFZL,4,Y,absent,yY,nN,y,1,0.704337500006659,n,1,0.13917049998417497,RSVPLG01,0.94,2023-09-13-22:05:05,972,1,Experiment,2023-09-13_15h12.08.588,
4,local,global,0,8,7,103,3,,,109,exp,FLTUYSNELNYSHHE,ENNZLHYEFSSYFTL,4,Z,absent,zZ,nN,l,0,0.4001610000268556,n,1,0.042082800006028265,RSVPLG01,0.94,2023-09-13-22:05:05,972,1,Experiment,2023-09-13_15h12.08.588,
1,local,local,0,8,8,104,0,,,110,exp,ZTETYHUULLZFNFN,LNNFZSTFYEEYZTU,6,S,absent,sS,nN,s,1,0.3772814000258222,n,1,0.13948899999377318,RSVPLG01,0.94,2023-09-13-22:05:05,972,1,Experiment,2023-09-13_15h12.08.588,
8,global,local,3,8,9,105,7,,,111,exp,YTTNSFZELEUFULS,YLZHEUXTLFSSZEF,4,N,X,nN,yY,n,1,0.38771059998543933,y,1,0.0909481999988202,RSVPLG01,0.94,2023-09-13-22:05:05,972,1,Experiment,2023-09-13_15h12.08.588,
10,global,global,0,8,10,106,9,,,112,exp,HEUFYNLUEHSTLTY,LUYHFZTHTUYELSE,6,N,absent,nN,nN,n,1,0.4500709999992978,n,1,0.17093409999506548,RSVPLG01,0.94,2023-09-13-22:05:05,972,1,Experiment,2023-09-13_15h12.08.588,
6,local,global,7,8,11,107,5,,,113,exp,NHNSHLUSUZEFXTE,TZZNSYNUUFSEHHT,6,Y,X,yY,yY,y,1,0.4141110999917146,y,1,0.3781134999881033,RSVPLG01,0.94,2023-09-13-22:05:05,972,1,Experiment,2023-09-13_15h12.08.588,
8,global,local,3,9,0,108,7,,,114,exp,NELHETTLYUFUFNS,LUSZEYXLNNUTSFY,4,H,X,hH,yY,y,0,0.36525559998699464,n,0,0.12240650001331232,RSVPLG01,0.94,2023-09-13-22:05:05,972,1,Experiment,2023-09-13_15h12.08.588,
12,global,global,7,9,1,109,11,,,115,exp,LHYTYZENLUXEZFF,NYESLZZLUHEFFUY,4,T,X,tT,yY,t,1,0.621213100006571,y,1,0.0891667999967467,RSVPLG01,0.94,2023-09-13-22:05:05,972,1,Experiment,2023-09-13_15h12.08.588,
12,global,global,7,9,2,110,11,,,116,exp,ETNSHULNZLTXSYU,YSNZFEUYESTZLLT,5,H,X,hH,yY,h,1,0.5730518999916967,y,1,0.026184800022747368,RSVPLG01,0.94,2023-09-13-22:05:05,972,1,Experiment,2023-09-13_15h12.08.588,
6,local,global,7,9,3,111,5,,,117,exp,FEUYLUNEZHXZFTN,NZFSHUEHZENTTUL,4,S,X,sS,yY,s,1,0.3888227000134066,y,1,0.08998550000251271,RSVPLG01,0.94,2023-09-13-22:05:05,972,1,Experiment,2023-09-13_15h12.08.588,
6,local,global,7,9,4,112,5,,,118,exp,NFZFLTHTUSNXZEU,NUSNYEEFTUZZHHS,5,Y,X,yY,yY,y,1,0.5489562999864575,y,1,0.10699080000631511,RSVPLG01,0.94,2023-09-13-22:05:05,972,1,Experiment,2023-09-13_15h12.08.588,
12,global,global,7,9,5,113,11,,,119,exp,NTUYSFUEYTZXNZE,YZNULENHUYFHTZE,5,S,X,sS,yY,s,1,0.40413769998122007,y,1,0.13771539999288507,RSVPLG01,0.94,2023-09-13-22:05:05,972,1,Experiment,2023-09-13_15h12.08.588,
12,global,global,7,9,6,114,11,,,120,exp,SYNNLFSTUELUXZY,YESTZHLNNUEUYSL,6,F,X,fF,yY,f,1,0.4804071000253316,y,1,0.072257299994817,RSVPLG01,0.94,2023-09-13-22:05:05,972,1,Experiment,2023-09-13_15h12.08.588,
6,local,global,7,9,7,115,5,,,121,exp,UTSELHYFLFXYNNT,HNFZLUNUHLSSFTY,4,Z,X,zZ,yY,z,1,0.47544559999369085,y,1,0.07535959998494945,RSVPLG01,0.94,2023-09-13-22:05:05,972,1,Experiment,2023-09-13_15h12.08.588,
4,local,global,0,9,8,116,3,,,122,exp,NYNUZUFTLEHHTFY,LTENSYUFNHUHLTF,5,S,absent,sS,nN,s,1,0.47806009999476373,n,1,0.13958680001087487,RSVPLG01,0.94,2023-09-13-22:05:05,972,1,Experiment,2023-09-13_15h12.08.588,
12,global,global,7,9,9,117,11,,,123,exp,FLHLSEEYZUZXFNH,NZUFTLYNHUEYHLZ,5,S,X,sS,yY,s,1,0.3396444999962114,y,1,0.10711209999863058,RSVPLG01,0.94,2023-09-13-22:05:05,972,1,Experiment,2023-09-13_15h12.08.588,
4,local,global,0,9,10,118,3,,,124,exp,FLYZHEEYFNNHTTL,YETSUFUFYTHNNLL,4,S,absent,sS,nN,s,1,0.4230299000046216,n,1,0.21916270002839155,RSVPLG01,0.94,2023-09-13-22:05:05,972,1,Experiment,2023-09-13_15h12.08.588,
5,local,global,3,9,11,119,4,,,125,exp,LFESNZFLXTHUSTE,STEFSYNNHELTUHU,6,Y,X,yY,yY,y,1,0.6988503999891691,n,0,1.0016240999975707,RSVPLG01,0.94,2023-09-13-22:05:05,972,1,Experiment,2023-09-13_15h12.08.588,
2,local,local,3,10,0,120,1,,,126,exp,TSSHEULTEUNFYFL,FNYZSYXELUFLTNE,4,Z,X,zZ,yY,z,1,0.4919621000008192,y,1,0.11048390000360087,RSVPLG01,0.94,2023-09-13-22:05:05,972,1,Experiment,2023-09-13_15h12.08.588,
1,local,local,0,10,1,121,0,,,127,exp,NLUHETZYZHFEFYN,LNFULSENHYUZEFZ,6,S,absent,sS,nN,s,1,0.5033438999962527,n,1,0.18774439999833703,RSVPLG01,0.94,2023-09-13-22:05:05,972,1,Experiment,2023-09-13_15h12.08.588,
6,local,global,7,10,2,122,5,,,128,exp,NTZUFYUZLSNXYSL,SNSNEUTHYHLLZUT,5,E,X,eE,yY,e,1,0.45046709998860024,y,1,0.1537121000001207,RSVPLG01,0.94,2023-09-13-22:05:05,972,1,Experiment,2023-09-13_15h12.08.588,
5,local,global,3,10,3,123,4,,,129,exp,TENUYHLXTFZHFZN,TELHSETFLFNZZUN,5,S,X,sS,yY,s,1,0.37692219999735244,y,1,0.05862680001882836,RSVPLG01,0.94,2023-09-13-22:05:05,972,1,Experiment,2023-09-13_15h12.08.588,
4,local,global,0,10,4,124,3,,,130,exp,HSUULTZYLEEHNYS,ENLNEFYZUSZSUHH,6,F,absent,fF,nN,f,1,0.3965468999813311,n,1,0.13875870002084412,RSVPLG01,0.94,2023-09-13-22:05:05,972,1,Experiment,2023-09-13_15h12.08.588,
12,global,global,7,10,5,125,11,,,131,exp,ZSZLFNYSUTFEXUT,STYYFHLSZTFUZUL,6,N,X,nN,yY,n,1,0.9467934000131208,n,0,0.6353691999975126,RSVPLG01,0.94,2023-09-13-22:05:05,972,1,Experiment,2023-09-13_15h12.08.588,
10,global,global,0,10,6,126,9,,,132,exp,EZTNFZULEUSHTFH,SFFYHTZLUHESLZU,4,N,absent,nN,nN,n,1,0.3741568000114057,n,1,0.23479439999209717,RSVPLG01,0.94,2023-09-13-22:05:05,972,1,Experiment,2023-09-13_15h12.08.588,
1,local,local,0,10,7,127,0,,,133,exp,FEHYTSNUHYUENSZ,UYSNLZEYZUFHHNF,5,L,absent,lL,nN,l,1,0.3854499000008218,y,0,0.2184285999974236,RSVPLG01,0.94,2023-09-13-22:05:05,972,1,Experiment,2023-09-13_15h12.08.588,
3,local,local,7,10,8,128,2,,,134,exp,YTUZNHZSHUETSLE,TTYYFHUZEELXLZH,5,F,X,fF,yY,f,1,0.3828079999948386,y,1,0.20732459999271668,RSVPLG01,0.94,2023-09-13-22:05:05,972,1,Experiment,2023-09-13_15h12.08.588,
5,local,global,3,10,9,129,4,,,135,exp,UNLZESXHUFLEHYY,ELNTNFSUUHHYLYS,4,T,X,tT,yY,z,0,0.43898779997834936,n,0,0.1872529999818653,RSVPLG01,0.94,2023-09-13-22:05:05,972,1,Experiment,2023-09-13_15h12.08.588,
11,global,global,3,10,10,130,10,,,136,exp,FLFSNZXHHUNLYYZ,UNZTZYNHUHYLFFE,4,S,X,sS,yY,n,0,0.3234580999996979,n,0,0.1717314000125043,RSVPLG01,0.94,2023-09-13-22:05:05,972,1,Experiment,2023-09-13_15h12.08.588,
2,local,local,3,10,11,131,1,,,137,exp,FSYTNFHZHEZTLSE,ZHHLUYTXTEZEFSF,5,U,X,uU,yY,u,1,0.407501300011063,n,0,0.1541676000051666,RSVPLG01,0.94,2023-09-13-22:05:05,972,1,Experiment,2023-09-13_15h12.08.588,
12,global,global,7,11,0,132,11,,,138,exp,TZSYEULHFTLXHYS,SZFYNUYHLHSZLUF,5,E,X,eE,yY,e,1,0.6661144999961834,y,1,0.07377139999880455,RSVPLG01,0.94,2023-09-13-22:05:05,972,1,Experiment,2023-09-13_15h12.08.588,
10,global,global,0,11,1,133,9,,,139,exp,YHFNSHUTLFUSEYL,THFZLSSEYHUUTYL,4,N,absent,nN,nN,e,0,2.1738310000218917,n,1,0.31445069998153485,RSVPLG01,0.94,2023-09-13-22:05:05,972,1,Experiment,2023-09-13_15h12.08.588,
1,local,local,0,11,2,134,0,,,140,exp,ZLZTSYHLHFUUTES,TSFLFNZUTHLZEHS,6,N,absent,nN,nN,n,1,0.3737962000013795,n,1,0.12107969998032786,RSVPLG01,0.94,2023-09-13-22:05:05,972,1,Experiment,2023-09-13_15h12.08.588,
11,global,global,3,11,3,135,10,,,141,exp,SENEUFZXSTLFYNL,YETYHLSLNFFZZNS,5,U,X,uU,yY,u,1,0.35835570000926964,n,0,0.10600490000797436,RSVPLG01,0.94,2023-09-13-22:05:05,972,1,Experiment,2023-09-13_15h12.08.588,
4,local,global,0,11,4,136,3,,,142,exp,TNENEYSZZSLUTUF,EUUSFHLNZFTLNSZ,6,H,absent,hH,nN,h,1,0.4820476000022609,n,1,0.10551560000749305,RSVPLG01,0.94,2023-09-13-22:05:05,972,1,Experiment,2023-09-13_15h12.08.588,
7,global,local,0,11,5,137,6,,,143,exp,NEUTNSYTYFUHEZH,NFZTELUYEYNZTUH,6,S,absent,sS,nN,y,0,1.1330518000177108,n,1,0.2825187999987975,RSVPLG01,0.94,2023-09-13-22:05:05,972,1,Experiment,2023-09-13_15h12.08.588,
9,global,local,7,11,6,138,8,,,144,exp,NFFUUTSNSEZHZYY,HZEFYLUEFUSSXHY,6,T,X,tT,yY,t,1,0.44379469999694265,y,1,0.1215150999778416,RSVPLG01,0.94,2023-09-13-22:05:05,972,1,Experiment,2023-09-13_15h12.08.588,
1,local,local,0,11,7,139,0,,,145,exp,HENNEFZTSZTHYYU,HTUYNLEHNUZEZYS,6,L,absent,lL,nN,l,1,0.48585040000034496,n,1,0.26524170002085157,RSVPLG01,0.94,2023-09-13-22:05:05,972,1,Experiment,2023-09-13_15h12.08.588,
3,local,local,7,11,8,140,2,,,146,exp,FYLELZYUHNSHUFN,NLYEFTSUSNHHXLY,6,T,X,tT,yY,t,1,0.3661707999999635,n,0,0.059910800016950816,RSVPLG01,0.94,2023-09-13-22:05:05,972,1,Experiment,2023-09-13_15h12.08.588,
2,local,local,3,11,9,141,1,,,147,exp,NNFYUFSHEEZHSZT,SNFNLTEXTFZZEHH,5,L,X,lL,yY,l,1,0.3529356000071857,n,0,0.12187039997661486,RSVPLG01,0.94,2023-09-13-22:05:05,972,1,Experiment,2023-09-13_15h12.08.588,
9,global,local,7,11,10,142,8,,,148,exp,LYHNFULZHZNEYET,NYLNZSLTFETZXFH,6,U,X,uU,yY,u,1,0.690441099985037,y,1,0.04347130001406185,RSVPLG01,0.94,2023-09-13-22:05:05,972,1,Experiment,2023-09-13_15h12.08.588,
4,local,global,0,11,11,143,3,,,149,exp,SYNUFEUETLTHLYH,SLYLZNNHUEUETTH,5,Z,absent,zZ,nN,n,0,0.39358780000475235,n,1,0.15474620001623407,RSVPLG01,0.94,2023-09-13-22:05:05,972,1,Experiment,2023-09-13_15h12.08.588,
5,local,global,3,12,0,144,4,,,150,exp,ETZNHEXYFTSFYUU,YUULHEZFTSFSYET,4,L,X,lL,yY,l,1,0.4539396000036504,y,1,0.1234833000053186,RSVPLG01,0.94,2023-09-13-22:05:05,972,1,Experiment,2023-09-13_15h12.08.588,
8,global,local,3,12,1,145,7,,,151,exp,LYZSEEZLNUYFFUT,NFLHNFXTEULYEUY,4,S,X,sS,yY,s,1,0.36882520001381636,n,0,0.15428899999824353,RSVPLG01,0.94,2023-09-13-22:05:05,972,1,Experiment,2023-09-13_15h12.08.588,
12,global,global,7,12,2,146,11,,,152,exp,NLZSHZFLFSYXUUY,SNZLEZUSYNLFFYU,5,H,X,hH,yY,h,1,0.34828819998074323,n,0,0.1401149000157602,RSVPLG01,0.94,2023-09-13-22:05:05,972,1,Experiment,2023-09-13_15h12.08.588,
4,local,global,0,12,3,147,3,,,153,exp,FFUYZYUTLSNHTLS,HFUYESSYFTHNUTN,5,E,absent,eE,nN,e,1,0.38253430000622757,n,1,0.15411309999763034,RSVPLG01,0.94,2023-09-13-22:05:05,972,1,Experiment,2023-09-13_15h12.08.588,
1,local,local,0,12,4,148,0,,,154,exp,ZNSZTLUESHFFEUN,EEHNTYZZFTSFNHS,6,Y,absent,yY,nN,y,1,1.2508236000139732,n,1,0.2666091999853961,RSVPLG01,0.94,2023-09-13-22:05:05,972,1,Experiment,2023-09-13_15h12.08.588,
12,global,global,7,12,5,149,11,,,155,exp,ZTFLZUFNHNLTXYS,ZTLFFENYNSHHZYT,6,U,X,uU,yY,u,1,0.5190368999901693,y,1,0.0777405999833718,RSVPLG01,0.94,2023-09-13-22:05:05,972,1,Experiment,2023-09-13_15h12.08.588,
4,local,global,0,12,6,150,3,,,156,exp,YZTHZESFSUTFUHL,ZFHTLNUYFSUSTYZ,6,N,absent,nN,nN,n,1,0.4126347999845166,n,1,0.15434770000865683,RSVPLG01,0.94,2023-09-13-22:05:05,972,1,Experiment,2023-09-13_15h12.08.588,
8,global,local,3,12,7,151,7,,,157,exp,YTHLZSYUNUSFHZT,YTZEFHXUZTYSUNF,4,L,X,lL,yY,l,1,0.2806574999995064,n,0,0.18647780001629144,RSVPLG01,0.94,2023-09-13-22:05:05,972,1,Experiment,2023-09-13_15h12.08.588,
12,global,global,7,12,8,152,11,,,158,exp,YFSENHFEYLHXUUS,SHEUZTYYHFLLSEF,5,N,X,nN,yY,n,1,0.5028439000016078,y,1,0.15424209999036975,RSVPLG01,0.94,2023-09-13-22:05:05,972,1,Experiment,2023-09-13_15h12.08.588,
2,local,local,3,12,9,153,1,,,159,exp,NLLFTSNZUUSZEEY,FEFLHSZXLEYSNNU,5,H,X,hH,yY,h,1,0.5234188000031281,y,1,0.00969119998626411,RSVPLG01,0.94,2023-09-13-22:05:05,972,1,Experiment,2023-09-13_15h12.08.588,
6,local,global,7,12,10,154,5,,,160,exp,NUHZFHFSLTXEEUL,TUNYTFSFSHUEHLN,4,Y,X,yY,yY,z,0,0.7150505000026897,y,1,0.15366370000992902,RSVPLG01,0.94,2023-09-13-22:05:05,972,1,Experiment,2023-09-13_15h12.08.588,
2,local,local,3,12,11,155,1,,,161,exp,LHSFTLSYETUHUZZ,USYNHYXZLLESZET,4,N,X,nN,yY,n,1,0.4275669999769889,n,0,0.21789890000945888,RSVPLG01,0.94,2023-09-13-22:05:05,972,1,Experiment,2023-09-13_15h12.08.588,
5,local,global,3,13,0,156,4,,,162,exp,EEHLFYZXYNHZNTT,YHTYSLEZZLUTUEN,5,S,X,sS,yY,s,1,0.3162137999897823,y,1,0.058075200009625405,RSVPLG01,0.94,2023-09-13-22:05:05,972,1,Experiment,2023-09-13_15h12.08.588,
3,local,local,7,13,1,157,2,,,163,exp,ULFNEHFYTTHSUSN,TNLFZTHYNYUXSLS,5,Z,X,zZ,yY,z,1,0.4518062999995891,y,1,0.1866675000055693,RSVPLG01,0.94,2023-09-13-22:05:05,972,1,Experiment,2023-09-13_15h12.08.588,
4,local,global,0,13,2,158,3,,,164,exp,ZFHETSUUHTYENFN,ZHEHTLUFNUNTZEY,6,L,absent,lL,nN,l,1,0.3535942000162322,n,1,0.1264101999986451,RSVPLG01,0.94,2023-09-13-22:05:05,972,1,Experiment,2023-09-13_15h12.08.588,
3,local,local,7,13,3,159,2,,,165,exp,LUZUEZHSYTLNSTH,TUULFYNZSHLXHNT,5,F,X,fF,yY,f,1,0.45572009999887086,y,1,0.1054168000118807,RSVPLG01,0.94,2023-09-13-22:05:05,972,1,Experiment,2023-09-13_15h12.08.588,
8,global,local,3,13,4,160,7,,,166,exp,NLUEHFLZEUYYZHT,YUELNSEZXTZNHHY,6,F,X,fF,yY,f,1,0.4014768000051845,n,0,0.2504512000014074,RSVPLG01,0.94,2023-09-13-22:05:05,972,1,Experiment,2023-09-13_15h12.08.588,
11,global,global,3,13,5,161,10,,,167,exp,YELSSUFFXLYETTH,LFHFTZYNSNHLTEE,6,U,X,uU,yY,u,1,0.43250009999610484,y,1,0.02722599997650832,RSVPLG01,0.94,2023-09-13-22:05:05,972,1,Experiment,2023-09-13_15h12.08.588,
7,global,local,0,13,6,162,6,,,168,exp,SLYTHUSLZZTFYNU,TSZFEYLZFYLUSTN,5,H,absent,hH,nN,h,1,0.4848381000047084,n,1,0.07417939999140799,RSVPLG01,0.94,2023-09-13-22:05:05,972,1,Experiment,2023-09-13_15h12.08.588,
5,local,global,3,13,7,163,4,,,169,exp,YTYELHXFNFNTLZZ,FYLSZTHNZFYUNTU,4,S,X,sS,yY,s,1,0.3041135999956168,y,1,0.059198200004175305,RSVPLG01,0.94,2023-09-13-22:05:05,972,1,Experiment,2023-09-13_15h12.08.588,
2,local,local,3,13,8,164,1,,,170,exp,SZNYTFLHYNSLHET,HNLEZUZSXNLYYTH,6,U,X,uU,yY,f,0,0.2938791000051424,y,1,0.17077009999775328,RSVPLG01,0.94,2023-09-13-22:05:05,972,1,Experiment,2023-09-13_15h12.08.588,
6,local,global,7,13,9,165,5,,,171,exp,FHLZSTFYHLXNNUT,NTFEYNTLUHLSHSF,4,E,X,eE,yY,e,1,0.4187563000014052,y,1,0.05808170000091195,RSVPLG01,0.94,2023-09-13-22:05:05,972,1,Experiment,2023-09-13_15h12.08.588,
7,global,local,0,13,10,166,6,,,172,exp,ZEEYULLUSZFNFNH,ELNTLHSZUUEHZFN,4,Y,absent,yY,nN,y,1,0.7490620999888051,n,1,0.07549499999731779,RSVPLG01,0.94,2023-09-13-22:05:05,972,1,Experiment,2023-09-13_15h12.08.588,
1,local,local,0,13,11,167,0,,,173,exp,LTHNUZSEHUTSFNE,LSNTLYFNTUFEUHE,6,Y,absent,yY,nN,z,0,0.37826130000757985,n,1,0.15444110002135858,RSVPLG01,0.94,2023-09-13-22:05:05,972,1,Experiment,2023-09-13_15h12.08.588,
7,global,local,0,14,0,168,6,,,174,exp,EELSYTUUSHNZLHN,USHZYFUYESLHENZ,6,T,absent,tT,nN,t,1,0.315832499996759,n,1,0.15334119999897666,RSVPLG01,0.94,2023-09-13-22:05:05,972,1,Experiment,2023-09-13_15h12.08.588,
2,local,local,3,14,1,169,1,,,175,exp,TENELFNTSHSYYFZ,ZYSNUFSXYHNTFTZ,5,U,X,uU,yY,u,1,0.3783081000146922,y,1,0.07437849999405444,RSVPLG01,0.94,2023-09-13-22:05:05,972,1,Experiment,2023-09-13_15h12.08.588,
10,global,global,0,14,2,170,9,,,176,exp,ETFSHYFZSHUTZNE,TZTSELFZNHUEUNF,6,Y,absent,yY,nN,y,1,0.7250774999847636,n,1,0.21836220001569018,RSVPLG01,0.94,2023-09-13-22:05:05,972,1,Experiment,2023-09-13_15h12.08.588,
5,local,global,3,14,3,171,4,,,177,exp,ZUNSNEZLXYFFHLS,HFSSHTNNYZLUFZU,6,T,X,tT,yY,t,1,0.3661063000035938,y,1,0.010991200018906966,RSVPLG01,0.94,2023-09-13-22:05:05,972,1,Experiment,2023-09-13_15h12.08.588,
3,local,local,7,14,4,172,2,,,178,exp,YNLTFHNTSFYEEUS,ETUNSZYTEFYUXFL,6,Z,X,zZ,yY,s,0,0.4330482000077609,n,0,0.1233920999802649,RSVPLG01,0.94,2023-09-13-22:05:05,972,1,Experiment,2023-09-13_15h12.08.588,
9,global,local,7,14,5,173,8,,,179,exp,LYLUFEUSSHZTHYF,LZFSLNSYHHFTXTU,6,E,X,eE,yY,e,1,0.9953103000007104,y,1,0.13784139999188483,RSVPLG01,0.94,2023-09-13-22:05:05,972,1,Experiment,2023-09-13_15h12.08.588,
12,global,global,7,14,6,174,11,,,180,exp,FHNTNYHSZYXFLLU,SUZEFZNFHLULHSY,4,T,X,tT,yY,t,1,0.508642000000691,y,1,0.026766199996927753,RSVPLG01,0.94,2023-09-13-22:05:05,972,1,Experiment,2023-09-13_15h12.08.588,
11,global,global,3,14,7,175,10,,,181,exp,LNZUYZUXTSTHLSE,SUTZFENZNETLHUS,5,Y,X,yY,yY,y,1,0.6720604999864008,n,0,0.12317459998303093,RSVPLG01,0.94,2023-09-13-22:05:05,972,1,Experiment,2023-09-13_15h12.08.588,
2,local,local,3,14,8,176,1,,,182,exp,NNSHYLZFZSUYFHT,FYUTNEZHXTSHSFN,6,E,X,eE,yY,e,1,0.4244495999882929,y,1,0.15316770001663826,RSVPLG01,0.94,2023-09-13-22:05:05,972,1,Experiment,2023-09-13_15h12.08.588,
12,global,global,7,14,9,177,11,,,183,exp,ZSFNYLSULZXEHFU,UZSTESYZFHFHEYL,4,N,X,nN,yY,y,0,0.5109927000012249,y,1,0.17096700001275167,RSVPLG01,0.94,2023-09-13-22:05:05,972,1,Experiment,2023-09-13_15h12.08.588,
3,local,local,7,14,10,178,2,,,184,exp,YENSZFNHHULEUZY,NFYTEUZNZLXLUEH,4,T,X,tT,yY,t,1,0.41527669999049976,y,1,0.13939139997819439,RSVPLG01,0.94,2023-09-13-22:05:05,972,1,Experiment,2023-09-13_15h12.08.588,
11,global,global,3,14,11,179,10,,,185,exp,HYSUZFEUXLTTZSE,YZTSUNHEYSLETZU,6,F,X,fF,yY,f,1,0.4591033999749925,n,0,0.1858784000214655,RSVPLG01,0.94,2023-09-13-22:05:05,972,1,Experiment,2023-09-13_15h12.08.588,
1,local,local,0,15,0,180,0,,,186,exp,EYYELFHTZZTHSLS,LZYUENZLHTTSHUE,6,N,absent,nN,nN,n,1,0.2905036000011023,n,1,0.12168959999689832,RSVPLG01,0.94,2023-09-13-22:05:05,972,1,Experiment,2023-09-13_15h12.08.588,
3,local,local,7,15,1,181,2,,,187,exp,EUETZSUSNYTLHLN,ENEYFTSNTSHXLHU,5,F,X,fF,yY,z,0,0.40174450000631623,y,1,0.12251929999911226,RSVPLG01,0.94,2023-09-13-22:05:05,972,1,Experiment,2023-09-13_15h12.08.588,
12,global,global,7,15,2,182,11,,,188,exp,TUFHLLETSYXFNYE,TTLZSUYENLFUSYN,4,H,X,hH,yY,h,1,0.6942657000035979,y,1,0.059366999979829416,RSVPLG01,0.94,2023-09-13-22:05:05,972,1,Experiment,2023-09-13_15h12.08.588,
12,global,global,7,15,3,183,11,,,189,exp,HZTEFULSYFLYXSE,EFTYENHYFHZSSLZ,6,U,X,uU,yY,u,1,0.6670944000070449,y,1,0.05693070002598688,RSVPLG01,0.94,2023-09-13-22:05:05,972,1,Experiment,2023-09-13_15h12.08.588,
8,global,local,3,15,4,184,7,,,190,exp,HENLTULSZNFZETH,HTEZSYLHXLZNEST,6,U,X,uU,yY,u,1,0.61029330000747,y,1,0.059192499989876524,RSVPLG01,0.94,2023-09-13-22:05:05,972,1,Experiment,2023-09-13_15h12.08.588,
11,global,global,3,15,5,185,10,,,191,exp,UNEHYZHXFLTLUZT,FUTESTLFZHHUELZ,5,Y,X,yY,yY,y,1,1.0602288999943994,y,1,0.29877910000504926,RSVPLG01,0.94,2023-09-13-22:05:05,972,1,Experiment,2023-09-13_15h12.08.588,
1,local,local,0,15,6,186,0,,,192,exp,EUZZSNUYHLLHEFN,UNHHTFLUEENZYLZ,5,T,absent,tT,nN,t,1,0.7674735999898985,n,1,0.04249290001462214,RSVPLG01,0.94,2023-09-13-22:05:05,972,1,Experiment,2023-09-13_15h12.08.588,
9,global,local,7,15,7,187,8,,,193,exp,FLEUYTLZHEHYUFS,FHSEYNLSHZFUXZU,6,T,X,tT,yY,t,1,0.6536444999801461,y,1,0.09165479999501258,RSVPLG01,0.94,2023-09-13-22:05:05,972,1,Experiment,2023-09-13_15h12.08.588,
10,global,global,0,15,8,188,9,,,194,exp,TSLNUUFETYFZZLY,TZEHSFESTUYLUZL,4,N,absent,nN,nN,n,1,1.81595020001987,n,1,0.3617406999983359,RSVPLG01,0.94,2023-09-13-22:05:05,972,1,Experiment,2023-09-13_15h12.08.588,
5,local,global,3,15,9,189,4,,,195,exp,TLYUYNXTZESSHZL,ZHEFTNSEHNZSLYY,4,F,X,fF,yY,f,1,0.3777066999755334,n,0,0.13717800000449643,RSVPLG01,0.94,2023-09-13-22:05:05,972,1,Experiment,2023-09-13_15h12.08.588,
3,local,local,7,15,10,190,2,,,196,exp,TSFZENSLNFYYHTE,ENTUSYSYHFXTELF,4,U,X,uU,yY,u,1,0.5430597999948077,y,1,0.02605130002484657,RSVPLG01,0.94,2023-09-13-22:05:05,972,1,Experiment,2023-09-13_15h12.08.588,
2,local,local,3,15,11,191,1,,,197,exp,ZZTNFYHUTNSSEUH,HEZELUNXNYTHZSY,5,L,X,lL,yY,y,0,0.46835800001281314,n,0,0.10686169998371042,RSVPLG01,0.94,2023-09-13-22:05:05,972,1,Experiment,2023-09-13_15h12.08.588,
4,local,global,0,16,0,192,3,,,198,exp,HEUTUFZLNLSSNZE,ZHSYUESLLZFNFEN,4,Y,absent,yY,nN,y,1,0.7375456000154372,n,1,0.138617599994177,RSVPLG01,0.94,2023-09-13-22:05:05,972,1,Experiment,2023-09-13_15h12.08.588,
11,global,global,3,16,1,193,10,,,199,exp,EFZYUZNXLNYETLH,THNTSFZNLLYEEHY,5,U,X,uU,yY,u,1,0.4025614999991376,y,1,0.04317889999947511,RSVPLG01,0.94,2023-09-13-22:05:05,972,1,Experiment,2023-09-13_15h12.08.588,
12,global,global,7,16,2,194,11,,,200,exp,HLHYTEZZFFXLUUN,ZHHSNEETFLNZUUT,4,Y,X,yY,yY,y,1,0.7574526999960653,y,1,0.059284099988872185,RSVPLG01,0.94,2023-09-13-22:05:05,972,1,Experiment,2023-09-13_15h12.08.588,
8,global,local,3,16,3,195,7,,,201,exp,ZTENYHFLEZSYNTL,SNYLNUZYXESLZTT,6,H,X,hH,yY,f,0,1.0026368999970146,n,0,0.2834998999896925,RSVPLG01,0.94,2023-09-13-22:05:05,972,1,Experiment,2023-09-13_15h12.08.588,
3,local,local,7,16,4,196,2,,,202,exp,HTUULNEEZHNZFYF,ENTHSTEUYFYXNFH,5,S,X,sS,yY,s,1,0.4222851999802515,y,1,0.12276999998721294,RSVPLG01,0.94,2023-09-13-22:05:05,972,1,Experiment,2023-09-13_15h12.08.588,
5,local,global,3,16,5,197,4,,,203,exp,YHLSFNXYTEUFHET,NFLZHLYTYFENUHE,4,Z,X,zZ,yY,z,1,0.7750465999997687,y,1,0.10522929998114705,RSVPLG01,0.94,2023-09-13-22:05:05,972,1,Experiment,2023-09-13_15h12.08.588,
10,global,global,0,16,6,198,9,,,204,exp,ETSLNTHHSFZYELZ,HFSEUHZSFYELTZY,5,N,absent,nN,nN,n,1,0.4386804999958258,n,1,0.23519329997361638,RSVPLG01,0.94,2023-09-13-22:05:05,972,1,Experiment,2023-09-13_15h12.08.588,
1,local,local,0,16,7,199,0,,,205,exp,EHZSLYNHLTFYFET,ZEFUHENZLLYTYNT,4,U,absent,uU,nN,u,1,0.6724285999953281,n,1,0.25047020000056364,RSVPLG01,0.94,2023-09-13-22:05:05,972,1,Experiment,2023-09-13_15h12.08.588,
12,global,global,7,16,8,200,11,,,206,exp,HNFUZSEHNTXLFSE,TNEYZELFLNZSHTF,4,U,X,uU,yY,u,1,0.37582539999857545,y,1,0.043019300006562844,RSVPLG01,0.94,2023-09-13-22:05:05,972,1,Experiment,2023-09-13_15h12.08.588,
9,global,local,7,16,9,201,8,,,207,exp,ZUUTYFLEFEHHYNL,ELNSUYYNHZXEFFZ,4,T,X,tT,yY,t,1,0.4565402999869548,y,1,0.10573889999068342,RSVPLG01,0.94,2023-09-13-22:05:05,972,1,Experiment,2023-09-13_15h12.08.588,
10,global,global,0,16,10,202,9,,,208,exp,USNLFHZSTNZYHUY,LUYSENYTNSLHZUH,5,F,absent,fF,nN,e,0,0.37150380000821315,n,1,0.13823360000969842,RSVPLG01,0.94,2023-09-13-22:05:05,972,1,Experiment,2023-09-13_15h12.08.588,
1,local,local,0,16,11,203,0,,,209,exp,FNSUYZSNUFLLHHZ,TSUZENFHNHLSFTU,5,E,absent,eE,nN,e,1,0.4036402000056114,n,1,0.12135580001631752,RSVPLG01,0.94,2023-09-13-22:05:05,972,1,Experiment,2023-09-13_15h12.08.588,
6,local,global,7,17,0,204,5,,,210,exp,SZENUYZHSLXLYUH,UYETSHULLFZYHSE,4,T,X,tT,yY,t,1,0.4093313000048511,y,1,0.05996509999386035,RSVPLG01,0.94,2023-09-13-22:05:05,972,1,Experiment,2023-09-13_15h12.08.588,
8,global,local,3,17,1,205,7,,,211,exp,EFFHEULTYNLUYZN,LYTSLZXNFYUZENU,4,H,X,hH,yY,h,1,0.5723242000094615,y,1,0.027092200005427003,RSVPLG01,0.94,2023-09-13-22:05:05,972,1,Experiment,2023-09-13_15h12.08.588,
7,global,local,0,17,2,206,6,,,212,exp,ULEYZTYLFFUTEHN,EENYSFUFLYHLTTH,5,Z,absent,zZ,nN,n,0,0.6627673000039067,n,1,1.1471671000181232,RSVPLG01,0.94,2023-09-13-22:05:05,972,1,Experiment,2023-09-13_15h12.08.588,
10,global,global,0,17,3,207,9,,,213,exp,YUFNHLSSYZEULNZ,FYSZTLUEYNLZFSU,5,H,absent,hH,nN,h,1,1.005034000001615,n,1,0.1372609999962151,RSVPLG01,0.94,2023-09-13-22:05:05,972,1,Experiment,2023-09-13_15h12.08.588,
5,local,global,3,17,4,208,4,,,214,exp,FEUTNFXZNLZHYEY,YUZSEHUHZFLELNN,4,S,X,sS,yY,s,1,0.3833921999903396,y,1,0.07490879998658784,RSVPLG01,0.94,2023-09-13-22:05:05,972,1,Experiment,2023-09-13_15h12.08.588,
6,local,global,7,17,5,209,5,,,215,exp,HEESNYFZTUXNFUH,TFNLTZHYUEFYUNE,4,L,X,lL,yY,n,0,0.4637495999922976,y,1,0.15429020000738092,RSVPLG01,0.94,2023-09-13-22:05:05,972,1,Experiment,2023-09-13_15h12.08.588,
4,local,global,0,17,6,210,3,,,216,exp,THHUSEZSYULZTFY,HZTLLNYUTSZSUFH,6,N,absent,nN,nN,n,1,0.6711635999963619,n,1,0.09352579998085275,RSVPLG01,0.94,2023-09-13-22:05:05,972,1,Experiment,2023-09-13_15h12.08.588,
10,global,global,0,17,7,211,9,,,217,exp,ZLHEFYNNEUZTTFU,UULZFSHNZNTHFET,6,Y,absent,yY,nN,y,1,0.7042261000024155,n,1,0.07450250000692904,RSVPLG01,0.94,2023-09-13-22:05:05,972,1,Experiment,2023-09-13_15h12.08.588,
9,global,local,7,17,8,212,8,,,218,exp,LLTFSSNTHUUNHZY,NYHEYHSZSTXLUNU,4,F,X,fF,yY,f,1,0.20581130002392456,y,1,0.31378769999719225,RSVPLG01,0.94,2023-09-13-22:05:05,972,1,Experiment,2023-09-13_15h12.08.588,
5,local,global,3,17,9,213,4,,,219,exp,ZHUEENUZXFSYFYT,FTZHTLEUEHSZYSF,6,L,X,lL,yY,l,1,0.4115133000013884,y,1,0.09031659999163821,RSVPLG01,0.94,2023-09-13-22:05:05,972,1,Experiment,2023-09-13_15h12.08.588,
2,local,local,3,17,10,214,1,,,220,exp,FHUEHLYYTFTSESZ,UEFSZNHTXSYEHZU,6,N,X,nN,yY,n,1,0.616476800001692,y,1,0.12225389998639002,RSVPLG01,0.94,2023-09-13-22:05:05,972,1,Experiment,2023-09-13_15h12.08.588,
11,global,global,3,17,11,215,10,,,221,exp,TEYSSHEFXULZFYL,UTYLUNZFFSELEYS,6,H,X,hH,yY,h,1,0.7681401000008918,n,0,0.13936169998487458,RSVPLG01,0.94,2023-09-13-22:05:05,972,1,Experiment,2023-09-13_15h12.08.588,
11,global,global,3,18,0,216,10,,,222,exp,TYEESHTYXLLNNZF,YFETSUNFZZNEYLS,6,H,X,hH,yY,h,1,0.682279100001324,n,0,0.058767000009538606,RSVPLG01,0.94,2023-09-13-22:05:05,972,1,Experiment,2023-09-13_15h12.08.588,
1,local,local,0,18,1,217,0,,,223,exp,UHFZNLLNSSFHYUE,YNHTESYUHNSFUFL,4,T,absent,tT,nN,z,0,1.274520000006305,n,1,0.12290630000643432,RSVPLG01,0.94,2023-09-13-22:05:05,972,1,Experiment,2023-09-13_15h12.08.588,
7,global,local,0,18,2,218,6,,,224,exp,UNHEYSZHYZUTENF,ZHYFULHUNZNTTEY,6,S,absent,sS,nN,z,0,0.4193362000223715,n,1,0.10585940000601113,RSVPLG01,0.94,2023-09-13-22:05:05,972,1,Experiment,2023-09-13_15h12.08.588,
1,local,local,0,18,3,219,0,,,225,exp,ZNTSELNHZUTHLSU,HZTSYTFUSNNLUFH,5,Y,absent,yY,nN,y,1,0.7395571999950334,n,1,0.08900350000476465,RSVPLG01,0.94,2023-09-13-22:05:05,972,1,Experiment,2023-09-13_15h12.08.588,
9,global,local,7,18,4,220,8,,,226,exp,FSNNUYEZZYHTSHT,SSZFLEYTNHNXHFZ,5,U,X,uU,yY,n,0,1.526637800008757,n,0,0.31628150001051836,RSVPLG01,0.94,2023-09-13-22:05:05,972,1,Experiment,2023-09-13_15h12.08.588,
4,local,global,0,18,5,221,3,,,227,exp,UNYZZSNLFLTFHTU,NFYULELYTUFTNZZ,6,E,absent,eE,nN,e,1,0.4181162999884691,n,1,0.15374599999631755,RSVPLG01,0.94,2023-09-13-22:05:05,972,1,Experiment,2023-09-13_15h12.08.588,
10,global,global,0,18,6,222,9,,,228,exp,ELNETYYFZHNUFUH,FNUESLNUZYHEHZY,5,T,absent,tT,nN,y,0,0.8725513000099454,n,1,0.13912740000523627,RSVPLG01,0.94,2023-09-13-22:05:05,972,1,Experiment,2023-09-13_15h12.08.588,
5,local,global,3,18,7,223,4,,,229,exp,ZYEYLUSZXESFFNN,FFEZETZNYYLHNSS,6,T,X,tT,yY,u,0,0.3251774999953341,n,0,0.17037800000980496,RSVPLG01,0.94,2023-09-13-22:05:05,972,1,Experiment,2023-09-13_15h12.08.588,
5,local,global,3,18,8,224,4,,,230,exp,LNFHTZNTXSHYSEF,HFSHEUFTLYYNESN,6,U,X,uU,yY,u,1,0.4658968999865465,y,1,0.059257599990814924,RSVPLG01,0.94,2023-09-13-22:05:05,972,1,Experiment,2023-09-13_15h12.08.588,
4,local,global,0,18,9,225,3,,,231,exp,LHSFSNYZTEYTNZH,EHNUSTZLTEYSZHY,4,U,absent,uU,nN,u,1,0.4050586000084877,n,1,0.13860430000931956,RSVPLG01,0.94,2023-09-13-22:05:05,972,1,Experiment,2023-09-13_15h12.08.588,
6,local,global,7,18,10,226,5,,,232,exp,ZFNEUTZFSYXTSNL,ZZSHYLFUTSNLFNY,4,H,X,hH,yY,h,1,0.5957350000098813,y,1,0.04090899997390807,RSVPLG01,0.94,2023-09-13-22:05:05,972,1,Experiment,2023-09-13_15h12.08.588,
4,local,global,0,18,11,227,3,,,233,exp,LTYNHULSZYEESUZ,YNUYFTSSEZTZUEL,5,F,absent,fF,nN,f,1,0.4461641000234522,n,1,0.6034390999993775,RSVPLG01,0.94,2023-09-13-22:05:05,972,1,Experiment,2023-09-13_15h12.08.588,
8,global,local,3,19,0,228,7,,,234,exp,ESETSLFUFZUHLNN,ESNYZUXFNSUFZLE,4,T,X,tT,yY,y,0,0.6205266999895684,n,0,0.1384886000014376,RSVPLG01,0.94,2023-09-13-22:05:05,972,1,Experiment,2023-09-13_15h12.08.588,
1,local,local,0,19,1,229,0,,,235,exp,FHUYSEFTLUHNSTE,LSSZFFTHNHEUELU,4,Z,absent,zZ,nN,z,1,0.3974270000180695,n,1,0.21913399998447858,RSVPLG01,0.94,2023-09-13-22:05:05,972,1,Experiment,2023-09-13_15h12.08.588,
8,global,local,3,19,2,230,7,,,236,exp,TYZFUHSTHESFEZY,SHYHNFZXFTYZLLE,5,U,X,uU,yY,u,1,0.523582499998156,n,0,0.21702640000148676,RSVPLG01,0.94,2023-09-13-22:05:05,972,1,Experiment,2023-09-13_15h12.08.588,
5,local,global,3,19,3,231,4,,,237,exp,ENNLZYFXTTSLSYF,FNTSUEELYHNHYFT,5,U,X,uU,yY,u,1,0.42524240000057034,y,1,0.026242500025546178,RSVPLG01,0.94,2023-09-13-22:05:05,972,1,Experiment,2023-09-13_15h12.08.588,
5,local,global,3,19,4,232,4,,,238,exp,UHZZESSXUYLLNTY,ZLNYFHUTLSSNHTU,5,F,X,fF,yY,f,1,0.39927049999823794,y,1,0.08956220000982285,RSVPLG01,0.94,2023-09-13-22:05:05,972,1,Experiment,2023-09-13_15h12.08.588,
10,global,global,0,19,5,233,9,,,239,exp,UTHTNLHYYEFSEUF,YEUFUZNSENTSYHF,6,L,absent,lL,nN,l,1,0.37859239999670535,n,1,0.09013660001801327,RSVPLG01,0.94,2023-09-13-22:05:05,972,1,Experiment,2023-09-13_15h12.08.588,
3,local,local,7,19,6,234,2,,,240,exp,ENZLHFZFSUHETNT,THNYFZTHNSXFEEZ,4,Y,X,yY,yY,z,0,0.3284892999799922,y,1,0.13729429998784326,RSVPLG01,0.94,2023-09-13-22:05:05,972,1,Experiment,2023-09-13_15h12.08.588,
7,global,local,0,19,7,235,6,,,241,exp,YNYHNUFEZLFZUTL,NFYSLTYLZUFTEZU,4,H,absent,hH,nN,h,1,0.3886991999752354,n,1,0.06001560000004247,RSVPLG01,0.94,2023-09-13-22:05:05,972,1,Experiment,2023-09-13_15h12.08.588,
11,global,global,3,19,8,236,10,,,242,exp,TLFYUHYXZLSEHET,HYLENLSFZFHSTYZ,5,U,X,uU,yY,u,1,0.37784969998756424,n,0,0.18762450001668185,RSVPLG01,0.94,2023-09-13-22:05:05,972,1,Experiment,2023-09-13_15h12.08.588,
3,local,local,7,19,9,237,2,,,243,exp,YFEHNUTUNLYSSLF,TYEZFYFLTEXNSLU,4,Z,X,zZ,yY,z,1,0.4238242999999784,y,1,0.15400660000159405,RSVPLG01,0.94,2023-09-13-22:05:05,972,1,Experiment,2023-09-13_15h12.08.588,
10,global,global,0,19,10,238,9,,,244,exp,SENZTTFUYYFELNS,LNTHYUFLEETSYNF,4,Z,absent,zZ,nN,z,1,0.3907584999979008,n,1,0.10591409998596646,RSVPLG01,0.94,2023-09-13-22:05:05,972,1,Experiment,2023-09-13_15h12.08.588,
9,global,local,7,19,11,239,8,,,245,exp,UYLEZTTUFSSZYNF,YSFHNFUSYNXLLTZ,4,E,X,eE,yY,y,0,0.7089586999791209,y,1,0.9697735999943689,RSVPLG01,0.94,2023-09-13-22:05:05,972,1,Experiment,2023-09-13_15h12.08.588,
