row,t1_level,t2_level,t2_lag,.thisRepN,.thisTrialN,.thisN,.thisIndex,thisRow.t,notes,trial,trial_type,global_letters,local_letters,t1_pos,t1,t2,t1_corr,t2_corr,t1_resp,t1_acc,t1_rt,t2_resp,t2_acc,t2_rt,exp,ver,mod-utc,sub,sess,blocktyp,datetime
2,local,local,3,0,0,0,1,,,1,warmup,ELNFZELHTUTYYNU,TLUESNNXEYHFTFY,5,S,X,sS,yY,z,0,1.0249744,n,0,0.1747222,RSVPLG01,0.94,2023-09-12-22:34:49,918,1,Experiment,2023-09-12_16h16.04.143
3,local,local,7,0,1,1,2,,,2,warmup,ZSYENTUZTULLYFF,LYLHFUNSFZXYTTZ,4,H,X,hH,yY,h,1,0.9254599,n,0,0.7847087,RSVPLG01,0.94,2023-09-12-22:34:49,918,1,Experiment,2023-09-12_16h16.04.143
4,local,global,0,0,2,2,3,,,3,warmup,FLNTSZLSUYEZFNY,SFYHULEFZYEZNNS,4,H,absent,hH,nN,t,0,1.0026197,n,1,0.0195164,RSVPLG01,0.94,2023-09-12-22:34:49,918,1,Experiment,2023-09-12_16h16.04.143
5,local,global,3,0,3,3,4,,,4,warmup,UUYZTFTLXHLSZNH,HYNLTEZTUZLSNHS,6,E,X,eE,yY,f,0,0.8507808,n,0,0.0706372,RSVPLG01,0.94,2023-09-12-22:34:49,918,1,Experiment,2023-09-12_16h16.04.143
6,local,global,7,0,4,4,5,,,5,warmup,FFSYYLENHNETXTU,YETEHZUSFYNUHNT,6,Z,X,zZ,yY,l,0,0.9877928,y,1,0.197423,RSVPLG01,0.94,2023-09-12-22:34:49,918,1,Experiment,2023-09-12_16h16.04.143
9,global,local,7,0,0,0,8,,,6,exp,HTFUENZEYNFTSSY,NFELFETZSTXZYSH,4,U,X,uU,yY,u,1,0.587377,y,1,0.1156416,RSVPLG01,0.94,2023-09-12-22:34:49,918,1,Experiment,2023-09-12_16h16.04.143
3,local,local,7,0,1,1,2,,,7,exp,TLYHSFEUYEHTLUF,HHEUNELTFTYXUYF,5,N,X,nN,yY,s,0,1.0176347,n,0,0.140117,RSVPLG01,0.94,2023-09-12-22:34:49,918,1,Experiment,2023-09-12_16h16.04.143
9,global,local,7,0,2,2,8,,,8,exp,YELSLZENFHNFYSU,UEESHTLFYHNFXUY,6,Z,X,zZ,yY,z,1,0.8244219,n,0,0.2267646,RSVPLG01,0.94,2023-09-12-22:34:49,918,1,Experiment,2023-09-12_16h16.04.143
2,local,local,3,0,3,3,1,,,9,exp,FTHYEZNNYULLTUF,ZLFUSTTXLZYUYHF,5,S,X,sS,yY,z,0,1.1998921,n,0,0.1371173,RSVPLG01,0.94,2023-09-12-22:34:49,918,1,Experiment,2023-09-12_16h16.04.143
3,local,local,7,0,4,4,2,,,10,exp,SHYLENZFHYTTESZ,YFZUNEYHNEXFTZS,4,U,X,uU,yY,l,0,1.1721817,n,0,0.1838106,RSVPLG01,0.94,2023-09-12-22:34:49,918,1,Experiment,2023-09-12_16h16.04.143
3,local,local,7,0,5,5,2,,,11,exp,HUELHETSTYNSUYF,YUHZTNTSYFXHUNF,4,Z,X,zZ,yY,l,0,0.9081602,y,1,0.1770036,RSVPLG01,0.94,2023-09-12-22:34:49,918,1,Experiment,2023-09-12_16h16.04.143
11,global,global,3,0,6,6,10,,,12,exp,TNYUZESXUHLHELY,LEEYFYULUHSNTSH,5,Z,X,zZ,yY,z,1,0.9551932,n,0,0.1197391,RSVPLG01,0.94,2023-09-12-22:34:49,918,1,Experiment,2023-09-12_16h16.04.143
6,local,global,7,0,7,7,5,,,13,exp,ZHFYZNNFULXSLTS,HLSENUSNUTHFFTL,4,E,X,eE,yY,y,0,0.8240237,y,1,0.1060408,RSVPLG01,0.94,2023-09-12-22:34:49,918,1,Experiment,2023-09-12_16h16.04.143
5,local,global,3,0,8,8,4,,,14,exp,YTLSZFSXLYHHUEF,FLLTNYHTYSUSHUE,5,N,X,nN,yY,z,0,1.1653347,y,1,0.1135117,RSVPLG01,0.94,2023-09-12-22:34:49,918,1,Experiment,2023-09-12_16h16.04.143
10,global,global,0,0,9,9,9,,,15,exp,SFLHEFNLYZYTTZN,LHFYUTSLZNNHTFS,5,E,absent,eE,nN,e,1,1.0770353,y,0,0.2291299,RSVPLG01,0.94,2023-09-12-22:34:49,918,1,Experiment,2023-09-12_16h16.04.143
3,local,local,7,0,10,10,2,,,16,exp,FUTYULESSYTFNZE,FNTEYHFUZNUSXSZ,6,H,X,hH,yY,l,0,0.8381721,y,1,0.1978127,RSVPLG01,0.94,2023-09-12-22:34:49,918,1,Experiment,2023-09-12_16h16.04.143
8,global,local,3,0,11,11,7,,,17,exp,SNSHNTFUFZYZEYT,YZYLNTXNEUZFEUS,4,H,X,hH,yY,n,0,1.0710925,y,1,0.6814831,RSVPLG01,0.94,2023-09-12-22:34:49,918,1,Experiment,2023-09-12_16h16.04.143
6,local,global,7,1,0,12,5,,,18,exp,UHEYLTUHZSXTZES,TELNUSHZSFEZFUT,4,N,X,nN,yY,y,0,0.8529087,y,1,0.0032686,RSVPLG01,0.94,2023-09-12-22:34:49,918,1,Experiment,2023-09-12_16h16.04.143
10,global,global,0,1,1,13,9,,,19,exp,TTZNLHSEZLEFHUF,HTUYUEFHZSLESTF,4,N,absent,nN,nN,z,0,1.8406529,y,0,0.0587301,RSVPLG01,0.94,2023-09-12-22:34:49,918,1,Experiment,2023-09-12_16h16.04.143
4,local,global,0,1,2,14,3,,,20,exp,ENFZHUNSFZTEHYS,FETSELHFHYZNTSN,6,L,absent,lL,nN,u,0,0.3293586,y,0,0.2268309,RSVPLG01,0.94,2023-09-12-22:34:49,918,1,Experiment,2023-09-12_16h16.04.143
5,local,global,3,1,3,15,4,,,21,exp,EYZFTLFXULSZUHH,FLYYNFSEHUEZHZS,5,N,X,nN,yY,t,0,0.7775108,y,1,0.9035508,RSVPLG01,0.94,2023-09-12-22:34:49,918,1,Experiment,2023-09-12_16h16.04.143
3,local,local,7,1,4,16,2,,,22,exp,HYNSTYNLEEFLTUU,LYLZHFNUNTXHEFE,4,Z,X,zZ,yY,s,0,0.5900853,y,1,0.1950712,RSVPLG01,0.94,2023-09-12-22:34:49,918,1,Experiment,2023-09-12_16h16.04.143
9,global,local,7,1,5,17,8,,,23,exp,UTESNHTEFLLSFUZ,ETTELYSFFLSUXZZ,6,H,X,hH,yY,h,1,0.9152283,y,1,0.0083175,RSVPLG01,0.94,2023-09-12-22:34:49,918,1,Experiment,2023-09-12_16h16.04.143
11,global,global,3,1,6,18,10,,,24,exp,SFYLSEXUZEYFHZH,EZFTHSZUYUYHNNF,4,L,X,lL,yY,l,1,1.0937124,y,1,0.1308695,RSVPLG01,0.94,2023-09-12-22:34:49,918,1,Experiment,2023-09-12_16h16.04.143
7,global,local,0,1,7,19,6,,,25,exp,SYZUHTNEYLENSUL,UTSSFYZUZENETLL,5,H,absent,hH,nN,h,1,1.2513342,n,1,0.2418112,RSVPLG01,0.94,2023-09-12-22:34:49,918,1,Experiment,2023-09-12_16h16.04.143
1,local,local,0,1,8,20,0,,,26,exp,NSETTYEZHLNZUHU,ZLHENFTHLSNSTZU,6,F,absent,fF,nN,y,0,0.7559916,n,1,0.0903655,RSVPLG01,0.94,2023-09-12-22:34:49,918,1,Experiment,2023-09-12_16h16.04.143
7,global,local,0,1,9,21,6,,,27,exp,SLYSTFTLNEUEHYH,NSLYHZSNHTTULYE,6,F,absent,fF,nN,f,1,1.6349756,n,1,0.5495971,RSVPLG01,0.94,2023-09-12-22:34:49,918,1,Experiment,2023-09-12_16h16.04.143
12,global,global,7,1,10,22,11,,,28,exp,YENUSNEZYSXLZFT,SLLHYNZYNZFEFTS,4,U,X,uU,yY,u,1,0.462798,y,1,0.009235,RSVPLG01,0.94,2023-09-12-22:34:49,918,1,Experiment,2023-09-12_16h16.04.143
2,local,local,3,1,11,23,1,,,29,exp,TZESYNHUYFNEUFT,FUELZFXHYTHUNEZ,4,L,X,lL,yY,z,0,3.0034904,y,1,0.2657458,RSVPLG01,0.94,2023-09-12-22:34:49,918,1,Experiment,2023-09-12_16h16.04.143
9,global,local,7,2,0,24,8,,,30,exp,ZSTNEULYEYFFLUT,TULHSLSYEFXZETZ,4,N,X,nN,yY,n,1,0.6471186,y,1,0.6141095,RSVPLG01,0.94,2023-09-12-22:34:49,918,1,Experiment,2023-09-12_16h16.04.143
11,global,global,3,2,1,25,10,,,31,exp,ENLNLZYFXYSFSUT,UFSFEHSYTETLYNU,6,Z,X,zZ,yY,z,1,1.1818697,y,1,0.2362334,RSVPLG01,0.94,2023-09-12-22:34:49,918,1,Experiment,2023-09-12_16h16.04.143
1,local,local,0,2,2,26,0,,,32,exp,ZZLTSYNLTUFFHUN,USHTFENZUNZLHLS,6,E,absent,eE,nN,y,0,1.0768539,n,1,0.1467289,RSVPLG01,0.94,2023-09-12-22:34:49,918,1,Experiment,2023-09-12_16h16.04.143
11,global,global,3,2,3,27,10,,,33,exp,HYZSLNXYHLFUUEE,HELTFZNYEHZFUYN,4,S,X,sS,yY,z,0,9.5253136,y,1,0.6018111,RSVPLG01,0.94,2023-09-12-22:34:49,918,1,Experiment,2023-09-12_16h16.04.143
5,local,global,3,2,4,28,4,,,34,exp,LETNYFSXEHFHUNL,FSUNZUTSTFELEHN,5,Z,X,zZ,yY,y,0,0.9536829,y,1,0.0340311,RSVPLG01,0.94,2023-09-12-22:34:49,918,1,Experiment,2023-09-12_16h16.04.143
11,global,global,3,2,5,29,10,,,35,exp,TNHLYFUXZUSHLFS,TSFFENHTLUHZZLS,5,Y,X,yY,yY,y,1,0.8646925,n,0,0.2123071,RSVPLG01,0.94,2023-09-12-22:34:49,918,1,Experiment,2023-09-12_16h16.04.143
11,global,global,3,2,6,30,10,,,36,exp,YNHULTXENYFHFLS,LYNZSSYETEFLTHH,4,U,X,uU,yY,u,1,0.8112075,n,0,0.1375643,RSVPLG01,0.94,2023-09-12-22:34:49,918,1,Experiment,2023-09-12_16h16.04.143
10,global,global,0,2,7,31,9,,,37,exp,HNLYSETSLEFZHNZ,NESUFZLTNHZLEHS,4,Y,absent,yY,nN,y,1,0.9617516,n,1,0.084041,RSVPLG01,0.94,2023-09-12-22:34:49,918,1,Experiment,2023-09-12_16h16.04.143
4,local,global,0,2,8,32,3,,,38,exp,LUFZUYSNSHENHLF,UFNLHTZUSSZHELN,6,T,absent,tT,nN,n,0,0.407692,n,1,2.888948,RSVPLG01,0.94,2023-09-12-22:34:49,918,1,Experiment,2023-09-12_16h16.04.143
7,global,local,0,2,9,33,6,,,39,exp,EZESUFTUYLTHHFY,EUYNUHTFZELFYLZ,4,S,absent,sS,nN,s,1,2.3600293,y,0,0.9941854,RSVPLG01,0.94,2023-09-12-22:34:49,918,1,Experiment,2023-09-12_16h16.04.143
9,global,local,7,2,10,34,8,,,40,exp,NNTZSSEYUHFTUHF,NHFLTHUNYSXUESY,4,Z,X,zZ,yY,z,1,1.2286655,y,1,0.2427227,RSVPLG01,0.94,2023-09-12-22:34:49,918,1,Experiment,2023-09-12_16h16.04.143
7,global,local,0,2,11,35,6,,,41,exp,EHFLSNFTHZTUEUZ,HFZYSEFUTUTESZN,4,L,absent,lL,nN,l,1,1.1543044,y,0,0.2060367,RSVPLG01,0.94,2023-09-12-22:34:49,918,1,Experiment,2023-09-12_16h16.04.143
8,global,local,3,3,0,36,7,,,42,exp,ZYZSUFNUFEYEHLL,YZLTNEXHHEULUFY,4,S,X,sS,yY,s,1,1.1026237,n,0,0.3408864,RSVPLG01,0.94,2023-09-12-22:34:49,918,1,Experiment,2023-09-12_16h16.04.143
8,global,local,3,3,1,37,7,,,43,exp,NZZHHLSTSENUTUF,EFSFEYTSXZUNHTN,6,L,X,lL,yY,l,1,0.7682955,y,1,0.2035214,RSVPLG01,0.94,2023-09-12-22:34:49,918,1,Experiment,2023-09-12_16h16.04.143
7,global,local,0,3,2,38,6,,,44,exp,YNUENTSLHTHUZZL,THLFUZYTYZUNSNL,4,E,absent,eE,nN,f,0,1.2739762,n,1,0.1187635,RSVPLG01,0.94,2023-09-12-22:34:49,918,1,Experiment,2023-09-12_16h16.04.143
12,global,global,7,3,3,39,11,,,45,exp,TZTHUYLZUEXFNFY,TFUSLYLZNUYZNEE,4,H,X,hH,yY,h,1,1.0519624,y,1,0.0994259,RSVPLG01,0.94,2023-09-12-22:34:49,918,1,Experiment,2023-09-12_16h16.04.143
1,local,local,0,3,4,40,0,,,46,exp,HLSFTSNTEUHLYEN,YYTZLSTHUULESEN,4,Z,absent,zZ,nN,f,0,1.216763,n,1,0.3305153,RSVPLG01,0.94,2023-09-12-22:34:49,918,1,Experiment,2023-09-12_16h16.04.143
9,global,local,7,3,5,41,8,,,47,exp,YZNNSTZLULHSHYU,ZHLSLEUFFZYNXYU,6,T,X,tT,yY,t,1,0.8396001,y,1,0.507747,RSVPLG01,0.94,2023-09-12-22:34:49,918,1,Experiment,2023-09-12_16h16.04.143
12,global,global,7,3,6,42,11,,,48,exp,LTFYSNUHEFLYXSU,HLTSFZUSEHLUTYF,6,N,X,nN,yY,n,1,1.2978414,y,1,0.2569277,RSVPLG01,0.94,2023-09-12-22:34:49,918,1,Experiment,2023-09-12_16h16.04.143
9,global,local,7,3,7,43,8,,,49,exp,LEYFTNNZTESYHSZ,LNZUNEHSETXYHLT,4,F,X,fF,yY,f,1,1.431623,y,1,0.1508942,RSVPLG01,0.94,2023-09-12-22:34:49,918,1,Experiment,2023-09-12_16h16.04.143
1,local,local,0,3,8,44,0,,,50,exp,NNZYZLUTEFUTEYH,ZFZUESYUNEFHTYT,6,S,absent,sS,nN,l,0,0.9078683,n,1,1.3138744,RSVPLG01,0.94,2023-09-12-22:34:49,918,1,Experiment,2023-09-12_16h16.04.143
7,global,local,0,3,9,45,6,,,51,exp,YNUTZLYSUEFNTLF,TEYYHUNTULLFSNE,5,Z,absent,zZ,nN,z,1,1.0686876,n,1,0.4013077,RSVPLG01,0.94,2023-09-12-22:34:49,918,1,Experiment,2023-09-12_16h16.04.143
9,global,local,7,3,10,46,8,,,52,exp,ZYSFSELZUYHEHNN,EUETNSYSLZXHNUH,4,F,X,fF,yY,f,1,0.8752815,n,0,0.1129096,RSVPLG01,0.94,2023-09-12-22:34:49,918,1,Experiment,2023-09-12_16h16.04.143
10,global,global,0,3,11,47,9,,,53,exp,LSFHEYTLZFSHUTU,LHFUHNUTTFZSEEZ,6,Y,absent,yY,nN,y,1,0.9728259,y,0,0.6187406,RSVPLG01,0.94,2023-09-12-22:34:49,918,1,Experiment,2023-09-12_16h16.04.143
2,local,local,3,4,0,48,1,,,54,exp,HZZFUTSNSEUNETH,TLHYTEXZNSUHZNU,4,Y,X,yY,yY,f,0,1.0831317,y,1,0.160545,RSVPLG01,0.94,2023-09-12-22:34:49,918,1,Experiment,2023-09-12_16h16.04.143
2,local,local,3,4,1,49,1,,,55,exp,FULNYFTZHYTZSLU,THTESZXFHZLSLFY,4,E,X,eE,yY,n,0,0.914228,y,1,0.0721877,RSVPLG01,0.94,2023-09-12-22:34:49,918,1,Experiment,2023-09-12_16h16.04.143
2,local,local,3,4,2,50,1,,,56,exp,ZULHEZSFYETSFTL,FEFNYSXUTYZSUZL,4,N,X,nN,yY,h,0,0.7835318,y,1,0.0255768,RSVPLG01,0.94,2023-09-12-22:34:49,918,1,Experiment,2023-09-12_16h16.04.143
5,local,global,3,4,3,51,4,,,57,exp,ENLUZUFXHFLYSNH,EFLSTSYNULFHUNY,5,T,X,tT,yY,z,0,1.0720345,y,1,0.170166,RSVPLG01,0.94,2023-09-12-22:34:49,918,1,Experiment,2023-09-12_16h16.04.143
10,global,global,0,4,4,52,9,,,58,exp,LHSTEUNETHYSNLF,YFTELZLNEHNYHSS,6,U,absent,uU,nN,n,0,0.3570811,y,0,0.5309685,RSVPLG01,0.94,2023-09-12-22:34:49,918,1,Experiment,2023-09-12_16h16.04.143
5,local,global,3,4,5,53,4,,,59,exp,HSTNEYFXSTYNZZL,HFZLULTZHNSNYTS,5,U,X,uU,yY,e,0,1.635433,y,1,0.2183761,RSVPLG01,0.94,2023-09-12-22:34:49,918,1,Experiment,2023-09-12_16h16.04.143
10,global,global,0,4,6,54,9,,,60,exp,UHNESZHFNFSEUYT,YUEHELTSNHYNSUT,6,Z,absent,zZ,nN,z,1,0.9684885,y,0,0.1301109,RSVPLG01,0.94,2023-09-12-22:34:49,918,1,Experiment,2023-09-12_16h16.04.143
6,local,global,7,4,7,55,5,,,61,exp,ZUYFTLSFZELXUYS,ZHLFNEYZSLSUEFH,5,N,X,nN,yY,t,0,0.6989018,y,1,0.1062987,RSVPLG01,0.94,2023-09-12-22:34:49,918,1,Experiment,2023-09-12_16h16.04.143
8,global,local,3,4,8,56,7,,,62,exp,ELTEFHZYNTYLHNS,YLHEUTSXYHZZNTN,5,F,X,fF,yY,f,1,0.983281,y,1,0.0250008,RSVPLG01,0.94,2023-09-12-22:34:49,918,1,Experiment,2023-09-12_16h16.04.143
2,local,local,3,4,9,57,1,,,63,exp,NSEHNUELFSLYTYU,ELLZUTXYNFSNFTE,4,Z,X,zZ,yY,h,0,0.8935008,n,0,0.0453838,RSVPLG01,0.94,2023-09-12-22:34:49,918,1,Experiment,2023-09-12_16h16.04.143
12,global,global,7,4,10,58,11,,,64,exp,HELTZUENSTFHXZN,LNFHTYLTSZNZFHS,6,U,X,uU,yY,u,1,1.1313342,y,1,0.0974946,RSVPLG01,0.94,2023-09-12-22:34:49,918,1,Experiment,2023-09-12_16h16.04.143
1,local,local,0,4,11,59,0,,,65,exp,SFLETZSFUULYYNE,LLFEHZEFNSZYNUU,5,H,absent,hH,nN,t,0,1.1036994,y,0,0.0815825,RSVPLG01,0.94,2023-09-12-22:34:49,918,1,Experiment,2023-09-12_16h16.04.143
4,local,global,0,5,0,60,3,,,66,exp,FSUZFYLYEUSHNLE,HUHTELNFUYLESYN,4,T,absent,tT,nN,z,0,1.09926,y,0,0.1772117,RSVPLG01,0.94,2023-09-12-22:34:49,918,1,Experiment,2023-09-12_16h16.04.143
8,global,local,3,5,1,61,7,,,67,exp,YHEYSULHETZSLTN,YHLTNFEZXYHSSNE,6,U,X,uU,yY,u,1,0.8553867,y,1,0.0346823,RSVPLG01,0.94,2023-09-12-22:34:49,918,1,Experiment,2023-09-12_16h16.04.143
10,global,global,0,5,2,62,9,,,68,exp,UZNUZLYYFNEHFTT,EZNEHSHZFTUNYFU,6,L,absent,lL,nN,z,0,1.378748,n,1,0.289212,RSVPLG01,0.94,2023-09-12-22:34:49,918,1,Experiment,2023-09-12_16h16.04.143
7,global,local,0,5,3,63,6,,,69,exp,FELYUNTNZZYLSFE,SEFTHTZYNNYFZEL,5,U,absent,uU,nN,n,0,1.1572157,y,0,1.0337351,RSVPLG01,0.94,2023-09-12-22:34:49,918,1,Experiment,2023-09-12_16h16.04.143
11,global,global,3,5,4,64,10,,,70,exp,ZLSTUFXYEHEFSHL,EZFNYEHSHLZFYUU,4,T,X,tT,yY,t,1,1.6612759,y,1,0.2409969,RSVPLG01,0.94,2023-09-12-22:34:49,918,1,Experiment,2023-09-12_16h16.04.143
9,global,local,7,5,5,65,8,,,71,exp,UNHEUZHLSETSTNF,NUHLFYHTFLEEXSS,6,Z,X,zZ,yY,z,1,1.7870892,n,0,0.2577071,RSVPLG01,0.94,2023-09-12-22:34:49,918,1,Experiment,2023-09-12_16h16.04.143
6,local,global,7,5,6,66,5,,,72,exp,LHTFESYNHSXZLTY,ZZHUYTSNLHNTLES,4,U,X,uU,yY,f,0,1.2863847,y,1,0.038306,RSVPLG01,0.94,2023-09-12-22:34:49,918,1,Experiment,2023-09-12_16h16.04.143
12,global,global,7,5,7,67,11,,,73,exp,EFZTLLZYUFXENYH,UYUSHFELZNNFHLE,4,T,X,tT,yY,t,1,0.6886731,y,1,0.0427009,RSVPLG01,0.94,2023-09-12-22:34:49,918,1,Experiment,2023-09-12_16h16.04.143
9,global,local,7,5,8,68,8,,,74,exp,SFSFLTYUYHNNHTU,FTHEZNHUNFYXTES,5,L,X,lL,yY,l,1,1.0946576,n,0,0.46548,RSVPLG01,0.94,2023-09-12-22:34:49,918,1,Experiment,2023-09-12_16h16.04.143
7,global,local,0,5,9,69,6,,,75,exp,FZHZUYNENLSSYEH,HYSNTLHLNZEZFEY,5,U,absent,uU,nN,y,0,1.1292121,y,0,0.7933551,RSVPLG01,0.94,2023-09-12-22:34:49,918,1,Experiment,2023-09-12_16h16.04.143
11,global,global,3,5,10,70,10,,,76,exp,EUTNSZUXNLETHZL,THLHYNEZUFEZFLN,5,S,X,sS,yY,z,0,0.9050961,y,1,0.1472777,RSVPLG01,0.94,2023-09-12-22:34:49,918,1,Experiment,2023-09-12_16h16.04.143
6,local,global,7,5,11,71,5,,,77,exp,YTFSLNEYEHZTXLF,ZHSFSUEYFHTELLZ,6,U,X,uU,yY,n,0,1.2095479,y,1,0.0326949,RSVPLG01,0.94,2023-09-12-22:34:49,918,1,Experiment,2023-09-12_16h16.04.143
3,local,local,7,6,0,72,2,,,78,exp,FHSSULUNTFNTYYH,YFETHZUEYUHFXTS,6,Z,X,zZ,yY,l,0,1.1382646,n,0,0.4902151,RSVPLG01,0.94,2023-09-12-22:34:49,918,1,Experiment,2023-09-12_16h16.04.143
3,local,local,7,6,1,73,2,,,79,exp,YUEZLNNTSUYZSFF,UFSYHTEFSTZXNZN,5,H,X,hH,yY,l,0,1.1373706,y,1,0.5974189,RSVPLG01,0.94,2023-09-12-22:34:49,918,1,Experiment,2023-09-12_16h16.04.143
9,global,local,7,6,2,74,8,,,80,exp,YZFUSNESHUFZELL,EEYHFTHLUSZUXLY,6,N,X,nN,yY,n,1,1.0960908,y,1,0.4918913,RSVPLG01,0.94,2023-09-12-22:34:49,918,1,Experiment,2023-09-12_16h16.04.143
1,local,local,0,6,3,75,0,,,81,exp,NUFEEHTFYTLUSNS,FTNYSZELNYTLFUE,6,Z,absent,zZ,nN,n,0,1.0771108,y,0,0.4890912,RSVPLG01,0.94,2023-09-12-22:34:49,918,1,Experiment,2023-09-12_16h16.04.143
2,local,local,3,6,4,76,1,,,82,exp,ZFNULSHZHFNTLYT,SLTESYXFHZZFNTL,4,E,X,eE,yY,z,0,1.0714275,y,1,0.197772,RSVPLG01,0.94,2023-09-12-22:34:49,918,1,Experiment,2023-09-12_16h16.04.143
5,local,global,3,6,5,77,4,,,83,exp,SSZLNFTUXNEZUYL,SSLNTHYEEUZLNUT,6,H,X,hH,yY,f,0,0.7145007,y,1,0.0562713,RSVPLG01,0.94,2023-09-12-22:34:49,918,1,Experiment,2023-09-12_16h16.04.143
10,global,global,0,6,6,78,9,,,84,exp,ESYNNTUFZFHSHEZ,ZEUFULEZFSYNHHN,6,T,absent,tT,nN,t,1,0.1147873,y,0,1.0562149,RSVPLG01,0.94,2023-09-12-22:34:49,918,1,Experiment,2023-09-12_16h16.04.143
3,local,local,7,6,7,79,2,,,85,exp,STENSFELUFHYUYH,ETLZYEHSTSXHYLU,4,Z,X,zZ,yY,n,0,1.5429461,n,0,0.0118406,RSVPLG01,0.94,2023-09-12-22:34:49,918,1,Experiment,2023-09-12_16h16.04.143
3,local,local,7,6,8,80,2,,,86,exp,FENLSUFYHESHNLY,HSZFZTNFNLSLXYE,6,T,X,tT,yY,u,0,1.284758,y,1,0.0154835,RSVPLG01,0.94,2023-09-12-22:34:49,918,1,Experiment,2023-09-12_16h16.04.143
12,global,global,7,6,9,81,11,,,87,exp,NZHUFLTNEUFHXTE,HEZFTYZTSUENFUS,6,L,X,lL,yY,l,1,1.7235057,y,1,0.3386551,RSVPLG01,0.94,2023-09-12-22:34:49,918,1,Experiment,2023-09-12_16h16.04.143
3,local,local,7,6,10,82,2,,,88,exp,ZSTFESUFYUHZYHL,ZSYZNLLHFUHXFSU,5,N,X,nN,yY,f,0,1.1551317,y,1,0.1316164,RSVPLG01,0.94,2023-09-12-22:34:49,918,1,Experiment,2023-09-12_16h16.04.143
11,global,global,3,6,11,83,10,,,89,exp,NFEHYTSUXUYNELL,NSFEYZUHNLLSYFE,6,T,X,tT,yY,t,1,0.9431289,y,1,0.0282978,RSVPLG01,0.94,2023-09-12-22:34:49,918,1,Experiment,2023-09-12_16h16.04.143
12,global,global,7,7,0,84,11,,,90,exp,LNFZTHFTNUXELHY,YUNSLENFEHTYHTF,4,Z,X,zZ,yY,z,1,0.7314093,y,1,0.1833224,RSVPLG01,0.94,2023-09-12-22:34:49,918,1,Experiment,2023-09-12_16h16.04.143
3,local,local,7,7,1,85,2,,,91,exp,ULNZNSHHEEUYYFZ,FULZNTEYNHFEXZU,6,T,X,tT,yY,n,0,1.4044915,y,1,0.099407,RSVPLG01,0.94,2023-09-12-22:34:49,918,1,Experiment,2023-09-12_16h16.04.143
4,local,global,0,7,2,86,3,,,92,exp,YNUHETHZFLTZLUY,LFNTSNYFHLUZZTY,5,S,absent,sS,nN,e,0,1.0826595,y,0,0.288147,RSVPLG01,0.94,2023-09-12-22:34:49,918,1,Experiment,2023-09-12_16h16.04.143
12,global,global,7,7,3,87,11,,,93,exp,SEHLZTFSYYLHXFE,NFYHLUYZSLSZNFE,6,T,X,tT,yY,t,1,0.9084689,y,1,0.0180063,RSVPLG01,0.94,2023-09-12-22:34:49,918,1,Experiment,2023-09-12_16h16.04.143
7,global,local,0,7,4,88,6,,,94,exp,UZNFULTTYZYLHSN,SNHEYZZSNUYLHTL,4,F,absent,fF,nN,f,1,1.2127141,n,1,0.6169967,RSVPLG01,0.94,2023-09-12-22:34:49,918,1,Experiment,2023-09-12_16h16.04.143
2,local,local,3,7,5,89,1,,,95,exp,HTTSESYZNLHUZNY,ZTHNFTUXNHZUSLL,5,F,X,fF,yY,s,0,0.8405631,y,1,0.1671359,RSVPLG01,0.94,2023-09-12-22:34:49,918,1,Experiment,2023-09-12_16h16.04.143
12,global,global,7,7,6,90,11,,,96,exp,HNSLFYUZUNXHYEZ,SYFTFEUNHUSEZHZ,4,L,X,lL,yY,l,1,0.656993,y,1,0.122027,RSVPLG01,0.94,2023-09-12-22:34:49,918,1,Experiment,2023-09-12_16h16.04.143
8,global,local,3,7,7,91,7,,,97,exp,ZULYEUSNFZLNFHE,LZFTELXNESSZUHH,4,Y,X,yY,yY,y,1,0.763982,y,1,0.4358999,RSVPLG01,0.94,2023-09-12-22:34:49,918,1,Experiment,2023-09-12_16h16.04.143
8,global,local,3,7,8,92,7,,,98,exp,ZNETUSFZLHLEFNS,ZHHNYSTXFZETSLL,5,U,X,uU,yY,u,1,0.9156029,n,0,0.367743,RSVPLG01,0.94,2023-09-12-22:34:49,918,1,Experiment,2023-09-12_16h16.04.143
5,local,global,3,7,9,93,4,,,99,exp,YUSFLNTEXSYTFHU,EYFFTZUEHLSYHUS,6,Z,X,zZ,yY,n,0,1.1416332,n,0,0.5450759,RSVPLG01,0.94,2023-09-12-22:34:49,918,1,Experiment,2023-09-12_16h16.04.143
5,local,global,3,7,10,94,4,,,100,exp,EZHNSFXLFTYHZES,TYSUSZFLYLTEFHE,4,U,X,uU,yY,n,0,0.9132769,y,1,0.0760272,RSVPLG01,0.94,2023-09-12-22:34:49,918,1,Experiment,2023-09-12_16h16.04.143
1,local,local,0,7,11,95,0,,,101,exp,EFFNHLEHSZNZSTU,ZFEFTYNHTHNUSEZ,6,Y,absent,yY,nN,l,0,0.8483986,n,1,0.1864464,RSVPLG01,0.94,2023-09-12-22:34:49,918,1,Experiment,2023-09-12_16h16.04.143
1,local,local,0,8,0,96,0,,,102,exp,UYNULHTSZYNFLSZ,NTSZFELUTYNZYSU,6,E,absent,eE,nN,h,0,1.3062553,n,1,0.1529159,RSVPLG01,0.94,2023-09-12-22:34:49,918,1,Experiment,2023-09-12_16h16.04.143
11,global,global,3,8,1,97,10,,,103,exp,UTHTYLSXUFSLFEN,STUNZFUNTLFLHEH,5,Y,X,yY,yY,y,1,0.6550175,y,1,0.0598537,RSVPLG01,0.94,2023-09-12-22:34:49,918,1,Experiment,2023-09-12_16h16.04.143
2,local,local,3,8,2,98,1,,,104,exp,ZETNUYESNFYZTHS,ESYFLHZXYNFTZHS,5,L,X,lL,yY,u,0,1.6886696,y,1,0.2820716,RSVPLG01,0.94,2023-09-12-22:34:49,918,1,Experiment,2023-09-12_16h16.04.143
10,global,global,0,8,3,99,9,,,105,exp,HHFSNETZUFTUSZY,HFEYLFTSZHZSTUY,5,N,absent,nN,nN,n,1,0.9287642,n,1,0.1933653,RSVPLG01,0.94,2023-09-12-22:34:49,918,1,Experiment,2023-09-12_16h16.04.143
12,global,global,7,8,4,100,11,,,106,exp,YUHLSESYTNXTNEH,UUNZTFNEYYSTHFH,4,L,X,lL,yY,l,1,0.6174248,y,1,0.195031,RSVPLG01,0.94,2023-09-12-22:34:49,918,1,Experiment,2023-09-12_16h16.04.143
12,global,global,7,8,5,101,11,,,107,exp,TTYYELSNNZUXUSL,UNHTFNLLTHUYZSZ,5,E,X,eE,yY,e,1,0.8267301,y,1,1.2086199,RSVPLG01,0.94,2023-09-12-22:34:49,918,1,Experiment,2023-09-12_16h16.04.143
5,local,global,3,8,6,102,4,,,108,exp,YUTFSLNXZTYLUZE,ELFUHTFYNYLUZZN,5,H,X,hH,yY,s,0,1.2512051,y,1,0.0811791,RSVPLG01,0.94,2023-09-12-22:34:49,918,1,Experiment,2023-09-12_16h16.04.143
7,global,local,0,8,7,103,6,,,109,exp,HSZYTLEYTNZSUNE,NUZZEFNYUYESSHT,6,L,absent,lL,nN,l,1,0.981967,n,1,0.2176141,RSVPLG01,0.94,2023-09-12-22:34:49,918,1,Experiment,2023-09-12_16h16.04.143
1,local,local,0,8,8,104,0,,,110,exp,ZESHSLYNTFHNFTY,TZZYHUYNFFHSENT,6,U,absent,uU,nN,n,0,1.2329195,n,1,0.5399523,RSVPLG01,0.94,2023-09-12-22:34:49,918,1,Experiment,2023-09-12_16h16.04.143
10,global,global,0,8,9,105,9,,,111,exp,UEUTESNHFNZLTZH,FLELTYUZHNHZNTE,6,S,absent,sS,nN,n,0,1.2452841,y,0,0.2142477,RSVPLG01,0.94,2023-09-12-22:34:49,918,1,Experiment,2023-09-12_16h16.04.143
8,global,local,3,8,10,106,7,,,112,exp,YUFZFNHLTNTHYSL,LTLESUXNSFNUTHY,4,Z,X,zZ,yY,z,1,1.2632216,y,1,0.170225,RSVPLG01,0.94,2023-09-12-22:34:49,918,1,Experiment,2023-09-12_16h16.04.143
10,global,global,0,8,11,107,9,,,113,exp,ZHYZUNLSTYHSEEL,ZENZFYYNTESHHLS,5,U,absent,uU,nN,n,0,1.1848741,y,0,0.0502612,RSVPLG01,0.94,2023-09-12-22:34:49,918,1,Experiment,2023-09-12_16h16.04.143
12,global,global,7,9,0,108,11,,,114,exp,YTEUSNYFTEZFXZH,HTSZYLYHETFESFZ,6,N,X,nN,yY,n,1,0.9811879,y,1,0.5490824,RSVPLG01,0.94,2023-09-12-22:34:49,918,1,Experiment,2023-09-12_16h16.04.143
1,local,local,0,9,1,109,0,,,115,exp,ZEUHNSZNFTYEYHT,UZUTZLFYHFNYNTE,6,L,absent,lL,nN,n,0,0.8439524,n,1,0.1056909,RSVPLG01,0.94,2023-09-12-22:34:49,918,1,Experiment,2023-09-12_16h16.04.143
11,global,global,3,9,2,110,10,,,116,exp,FYUETLXUFSZLHZH,ZZHNSUULYTLSFYT,4,E,X,eE,yY,u,0,0.8396953,y,1,0.0326725,RSVPLG01,0.94,2023-09-12-22:34:49,918,1,Experiment,2023-09-12_16h16.04.143
8,global,local,3,9,3,111,7,,,117,exp,NLSFHTETNZFZSYY,LTEFUNSXSNZTZLY,5,H,X,hH,yY,h,1,1.3495311,y,1,0.0569271,RSVPLG01,0.94,2023-09-12-22:34:49,918,1,Experiment,2023-09-12_16h16.04.143
3,local,local,7,9,4,112,2,,,118,exp,ZFZLTHTYEESFSYN,EFTZFUEZLSNNXTL,6,U,X,uU,yY,h,0,0.9543212,n,0,0.0693627,RSVPLG01,0.94,2023-09-12-22:34:49,918,1,Experiment,2023-09-12_16h16.04.143
8,global,local,3,9,5,113,7,,,119,exp,HYTESZFULLYEZFU,EUHUNYEXZHLFLZF,5,S,X,sS,yY,s,1,0.5225107,y,1,0.1135916,RSVPLG01,0.94,2023-09-12-22:34:49,918,1,Experiment,2023-09-12_16h16.04.143
11,global,global,3,9,6,114,10,,,120,exp,ELZLTFNXFUNYESS,NUFEHLZNLZSYUYF,5,T,X,tT,yY,t,1,1.0997882,n,0,0.3936877,RSVPLG01,0.94,2023-09-12-22:34:49,918,1,Experiment,2023-09-12_16h16.04.143
12,global,global,7,9,7,115,11,,,121,exp,HZFYTLNUTYHSXFZ,NZSUSEUHNFYFTHY,6,L,X,lL,yY,y,0,1.851453,y,1,1.2983729,RSVPLG01,0.94,2023-09-12-22:34:49,918,1,Experiment,2023-09-12_16h16.04.143
10,global,global,0,9,8,116,9,,,122,exp,UFZYYHUFESZSELN,UELYFTZNZSFYNSL,6,H,absent,hH,nN,h,1,0.8719747,n,1,0.060112,RSVPLG01,0.94,2023-09-12-22:34:49,918,1,Experiment,2023-09-12_16h16.04.143
2,local,local,3,9,9,117,1,,,123,exp,UTNSZHLHTZULYYE,ETNFTHXUYZLUYEH,4,F,X,fF,yY,z,0,1.0388761,n,0,0.146786,RSVPLG01,0.94,2023-09-12-22:34:49,918,1,Experiment,2023-09-12_16h16.04.143
3,local,local,7,9,10,118,2,,,124,exp,UUYNTZEEYZHFFLL,LYHESHLFUFUXZNN,5,S,X,sS,yY,t,0,0.8450778,n,0,0.0971992,RSVPLG01,0.94,2023-09-12-22:34:49,918,1,Experiment,2023-09-12_16h16.04.143
4,local,global,0,9,11,119,3,,,125,exp,YSEHUZYSUTZNELL,NNLFZSZEESTTLUU,4,F,absent,fF,nN,z,0,0.6549118,y,0,0.2726323,RSVPLG01,0.94,2023-09-12-22:34:49,918,1,Experiment,2023-09-12_16h16.04.143
4,local,global,0,10,0,120,3,,,126,exp,ETENYTUHLSULHZY,STZFHZLEEULSHYT,4,F,absent,fF,nN,n,0,0.8337876,y,0,0.057855,RSVPLG01,0.94,2023-09-12-22:34:49,918,1,Experiment,2023-09-12_16h16.04.143
8,global,local,3,10,1,121,7,,,127,exp,HYETFNFHYLUUZLZ,LEHSEYXFFZLYZUN,4,T,X,tT,yY,t,1,1.0422188,n,0,0.1490526,RSVPLG01,0.94,2023-09-12-22:34:49,918,1,Experiment,2023-09-12_16h16.04.143
7,global,local,0,10,2,122,6,,,128,exp,HSZTYUYZLUNEELH,SLLFUNEZEHNHYUY,4,T,absent,tT,nN,t,1,0.8375792,n,1,0.0872476,RSVPLG01,0.94,2023-09-12-22:34:49,918,1,Experiment,2023-09-12_16h16.04.143
7,global,local,0,10,3,123,6,,,129,exp,TUESYHZTYLZLNHE,TUNFHUYYZHELLZN,4,S,absent,sS,nN,f,0,1.926947,y,0,0.1138422,RSVPLG01,0.94,2023-09-12-22:34:49,918,1,Experiment,2023-09-12_16h16.04.143
11,global,global,3,10,4,124,10,,,130,exp,SNZEFYLNXSHETTZ,ESHZNUFHTFENLTZ,6,Y,X,yY,yY,y,1,0.8161078,y,1,0.9527141,RSVPLG01,0.94,2023-09-12-22:34:49,918,1,Experiment,2023-09-12_16h16.04.143
7,global,local,0,10,5,125,6,,,131,exp,NSUFFYSEHTZHTUZ,EFNZHLFTSHTESUZ,6,Y,absent,yY,nN,y,1,1.0460784,n,1,0.1857253,RSVPLG01,0.94,2023-09-12-22:34:49,918,1,Experiment,2023-09-12_16h16.04.143
5,local,global,3,10,6,126,4,,,132,exp,LTFSZUXHYLYHETU,HEZNFELYLHYUTUZ,4,N,X,nN,yY,f,0,0.9995726,n,0,0.1528576,RSVPLG01,0.94,2023-09-12-22:34:49,918,1,Experiment,2023-09-12_16h16.04.143
12,global,global,7,10,7,127,11,,,133,exp,UTHLFTSYSYXNNZH,TTSEHFSZNYUYNUH,4,L,X,lL,yY,l,1,0.7134123,y,1,0.2180803,RSVPLG01,0.94,2023-09-12-22:34:49,918,1,Experiment,2023-09-12_16h16.04.143
11,global,global,3,10,8,128,10,,,134,exp,HTHFZYXZLSUSTLN,ZTSENYUNZLUSHHY,4,F,X,fF,yY,f,1,0.9540472,n,0,0.0569382,RSVPLG01,0.94,2023-09-12-22:34:49,918,1,Experiment,2023-09-12_16h16.04.143
11,global,global,3,10,9,129,10,,,135,exp,HFUNLEHXUFNZTEZ,FZUZYTUNSFNETEH,5,L,X,lL,yY,l,1,0.8868358,y,1,0.1550793,RSVPLG01,0.94,2023-09-12-22:34:49,918,1,Experiment,2023-09-12_16h16.04.143
7,global,local,0,10,10,130,6,,,136,exp,YYLHZNUFTUSNFHS,UNFHELLTSNYHFUS,5,Z,absent,zZ,nN,z,1,1.0410004,y,0,0.1090047,RSVPLG01,0.94,2023-09-12-22:34:49,918,1,Experiment,2023-09-12_16h16.04.143
6,local,global,7,10,11,131,5,,,137,exp,UYHLNZZNUSXHYST,NTNFZHESYZTYSHU,4,F,X,fF,yY,l,0,0.9964176,y,1,0.2129897,RSVPLG01,0.94,2023-09-12-22:34:49,918,1,Experiment,2023-09-12_16h16.04.143
5,local,global,3,11,0,132,4,,,138,exp,UFTYENXENHHUFTS,HSTLSUTFUENZHFN,4,L,X,lL,yY,y,0,0.7566865,y,1,0.1378809,RSVPLG01,0.94,2023-09-12-22:34:49,918,1,Experiment,2023-09-12_16h16.04.143
9,global,local,7,11,1,133,8,,,139,exp,FZLHNLHUYUTYZTF,LTEUSEYHTZFXUFZ,5,N,X,nN,yY,n,1,0.9608661,n,0,0.1583718,RSVPLG01,0.94,2023-09-12-22:34:49,918,1,Experiment,2023-09-12_16h16.04.143
5,local,global,3,11,2,134,4,,,140,exp,NZYEYNXZHHSTLUU,YLHFZZTNUUHSNSL,4,F,X,fF,yY,z,0,0.7823741,y,1,0.1482783,RSVPLG01,0.94,2023-09-12-22:34:49,918,1,Experiment,2023-09-12_16h16.04.143
6,local,global,7,11,3,135,5,,,141,exp,ELZLHSTFFTEZXNN,EHULEYFTHFZNULN,6,Y,X,yY,yY,s,0,1.1137681,y,1,0.556607,RSVPLG01,0.94,2023-09-12-22:34:49,918,1,Experiment,2023-09-12_16h16.04.143
3,local,local,7,11,4,136,2,,,142,exp,HSYEUSYLZTZUHLF,UUFNHLYFZYXHZSL,4,N,X,nN,yY,e,0,0.8379878,y,1,0.0497028,RSVPLG01,0.94,2023-09-12-22:34:49,918,1,Experiment,2023-09-12_16h16.04.143
8,global,local,3,11,5,137,7,,,143,exp,HNYTLTUFZEHENUY,ZHHTSTYXUNZUFEN,5,L,X,lL,yY,l,1,0.9418908,n,0,0.4058179,RSVPLG01,0.94,2023-09-12-22:34:49,918,1,Experiment,2023-09-12_16h16.04.143
6,local,global,7,11,6,138,5,,,144,exp,FNUSEFUTLHLXNYS,UHTNZLTSULYSNFY,5,Z,X,zZ,yY,f,0,1.3256441,y,1,0.050106,RSVPLG01,0.94,2023-09-12-22:34:49,918,1,Experiment,2023-09-12_16h16.04.143
8,global,local,3,11,7,139,7,,,145,exp,TUHNHFLTFULYSEE,EUYZHHXSTTYUFLE,4,N,X,nN,yY,n,1,1.1378699,y,1,0.0973378,RSVPLG01,0.94,2023-09-12-22:34:49,918,1,Experiment,2023-09-12_16h16.04.143
3,local,local,7,11,8,140,2,,,146,exp,TEYZFHLLSYFZNES,YLETNUZZFELTXNS,6,U,X,uU,yY,h,0,1.082205,n,0,0.2737489,RSVPLG01,0.94,2023-09-12-22:34:49,918,1,Experiment,2023-09-12_16h16.04.143
1,local,local,0,11,9,141,0,,,147,exp,LLSNYTSTEHZENFH,FELNUHFHTESZLZS,5,U,absent,uU,nN,y,0,0.9031828,y,0,0.0132258,RSVPLG01,0.94,2023-09-12-22:34:49,918,1,Experiment,2023-09-12_16h16.04.143
9,global,local,7,11,10,142,8,,,148,exp,THELYNSELSTFZYF,LETZLUYFSYHSXEH,6,N,X,nN,yY,n,1,1.325761,y,1,0.043621,RSVPLG01,0.94,2023-09-12-22:34:49,918,1,Experiment,2023-09-12_16h16.04.143
1,local,local,0,11,11,143,0,,,149,exp,SZNZFHEYEYNULLS,FSLZUTNZSYEUNLF,6,T,absent,tT,nN,h,0,1.1277752,y,0,0.0176724,RSVPLG01,0.94,2023-09-12-22:34:49,918,1,Experiment,2023-09-12_16h16.04.143
11,global,global,3,12,0,144,10,,,150,exp,ZHTYELYXSZFLTUU,ZZUYNYSFHSLFUTH,5,E,X,eE,yY,e,1,0.8886359,y,1,0.0250226,RSVPLG01,0.94,2023-09-12-22:34:49,918,1,Experiment,2023-09-12_16h16.04.143
3,local,local,7,12,1,145,2,,,151,exp,SHTSHLYZUTNFZUN,ZNUHSEYFNYTSXFZ,6,E,X,eE,yY,l,0,0.8862321,n,0,0.214811,RSVPLG01,0.94,2023-09-12-22:34:49,918,1,Experiment,2023-09-12_16h16.04.143
10,global,global,0,12,2,146,9,,,152,exp,SZHYHTUNSNZLFTU,ZHUENFHFULTZSTS,4,Y,absent,yY,nN,y,1,0.5489213,y,0,0.0300525,RSVPLG01,0.94,2023-09-12-22:34:49,918,1,Experiment,2023-09-12_16h16.04.143
4,local,global,0,12,3,147,3,,,153,exp,HFYZTYZSSLFLNHE,SHZYUSELNNEHYLZ,5,U,absent,uU,nN,t,0,1.1146439,n,1,0.1153733,RSVPLG01,0.94,2023-09-12-22:34:49,918,1,Experiment,2023-09-12_16h16.04.143
6,local,global,7,12,4,148,5,,,154,exp,FUEZFUTNELXLYTY,ENTSLYFTNHUYUEF,4,S,X,sS,yY,z,0,1.9738128,y,1,0.1850398,RSVPLG01,0.94,2023-09-12-22:34:49,918,1,Experiment,2023-09-12_16h16.04.143
4,local,global,0,12,5,149,3,,,155,exp,FFTHSUNELTSNLEH,HSFLNZYTLETFNYH,6,Z,absent,zZ,nN,u,0,0.9400604,y,0,0.8179671,RSVPLG01,0.94,2023-09-12-22:34:49,918,1,Experiment,2023-09-12_16h16.04.143
4,local,global,0,12,6,150,3,,,156,exp,UYYUNSTHEZSFFTH,YZESLUTYFHTSEZH,5,L,absent,lL,nN,n,0,1.290776,n,1,0.0697513,RSVPLG01,0.94,2023-09-12-22:34:49,918,1,Experiment,2023-09-12_16h16.04.143
9,global,local,7,12,7,151,8,,,157,exp,LNENHSUHUEYLYTZ,LZENEFNUUZHTXTY,6,S,X,sS,yY,s,1,1.2052829,y,1,0.6016763,RSVPLG01,0.94,2023-09-12-22:34:49,918,1,Experiment,2023-09-12_16h16.04.143
4,local,global,0,12,8,152,3,,,158,exp,ZNENFUTTZYELSSF,NFEZSHTZYELLFYN,6,H,absent,hH,nN,u,0,1.6267859,n,1,1.1038629,RSVPLG01,0.94,2023-09-12-22:34:49,918,1,Experiment,2023-09-12_16h16.04.143
5,local,global,3,12,9,153,4,,,159,exp,SZFLZYHTXLNUTSF,UFZUTELFNSNHLTZ,6,E,X,eE,yY,y,0,0.9391842,y,1,0.123098,RSVPLG01,0.94,2023-09-12-22:34:49,918,1,Experiment,2023-09-12_16h16.04.143
5,local,global,3,12,10,154,4,,,160,exp,TNYZLUTXSFUFZHY,HSUTEZNFYUNHSTZ,5,E,X,eE,yY,l,0,1.7731046,y,1,0.265676,RSVPLG01,0.94,2023-09-12-22:34:49,918,1,Experiment,2023-09-12_16h16.04.143
1,local,local,0,12,11,155,0,,,161,exp,NLNYSTEZUEUFYZT,ZFTUHZNENYELLFT,5,H,absent,hH,nN,h,1,0.9935035,y,0,0.5232031,RSVPLG01,0.94,2023-09-12-22:34:49,918,1,Experiment,2023-09-12_16h16.04.143
7,global,local,0,13,0,156,6,,,162,exp,SUESZLNUYFNLFEY,YFEUHTNNUSYESFL,5,Z,absent,zZ,nN,z,1,1.1601903,y,0,0.1444956,RSVPLG01,0.94,2023-09-12-22:34:49,918,1,Experiment,2023-09-12_16h16.04.143
7,global,local,0,13,1,157,6,,,163,exp,TSEUHZESLLYYTNU,LZTNFYSEELYUUZS,5,H,absent,hH,nN,n,0,1.3994885,n,1,0.1062013,RSVPLG01,0.94,2023-09-12-22:34:49,918,1,Experiment,2023-09-12_16h16.04.143
10,global,global,0,13,2,158,9,,,164,exp,FUTZLYTUYHHSESL,YELNHFTFUEYLSTU,4,Z,absent,zZ,nN,z,1,1.1902047,y,0,0.6033722,RSVPLG01,0.94,2023-09-12-22:34:49,918,1,Experiment,2023-09-12_16h16.04.143
1,local,local,0,13,3,159,0,,,165,exp,LENLHNEFTSFYYTS,EFSLULYNNYFTZZS,5,U,absent,uU,nN,h,0,1.1452076,y,0,0.0487246,RSVPLG01,0.94,2023-09-12-22:34:49,918,1,Experiment,2023-09-12_16h16.04.143
5,local,global,3,13,4,160,4,,,166,exp,UZNNYTSZXSHHYEE,EYSHHFLNZLSZNYU,6,F,X,fF,yY,y,0,1.3257117,y,1,0.145473,RSVPLG01,0.94,2023-09-12-22:34:49,918,1,Experiment,2023-09-12_16h16.04.143
8,global,local,3,13,5,161,7,,,167,exp,THYNUSLZFNTYFLZ,FNLHTEUFXUZZYYL,6,S,X,sS,yY,s,1,0.9511891,y,1,0.0728815,RSVPLG01,0.94,2023-09-12-22:34:49,918,1,Experiment,2023-09-12_16h16.04.143
1,local,local,0,13,6,162,0,,,168,exp,YLYZFSNELSTFNUT,UFLHTEUNSYNFLTS,4,H,absent,hH,nN,z,0,1.2585063,y,0,0.7959707,RSVPLG01,0.94,2023-09-12-22:34:49,918,1,Experiment,2023-09-12_16h16.04.143
5,local,global,3,13,7,163,4,,,169,exp,HZLUEFXYNSSEZNL,SZHTFEZEHYNNLYS,4,T,X,tT,yY,u,0,0.6154048,y,1,1.7948953,RSVPLG01,0.94,2023-09-12-22:34:49,918,1,Experiment,2023-09-12_16h16.04.143
7,global,local,0,13,8,164,6,,,170,exp,SYZEELUUHNFYFSH,EHNNHTZZSUSYEUY,6,L,absent,lL,nN,l,1,1.0149024,n,1,1.1692241,RSVPLG01,0.94,2023-09-12-22:34:49,918,1,Experiment,2023-09-12_16h16.04.143
12,global,global,7,13,9,165,11,,,171,exp,FSFYHLZNNYHUXTS,FFHUSEHNZYUNTST,6,L,X,lL,yY,l,1,0.8349997,n,0,1.3160395,RSVPLG01,0.94,2023-09-12-22:34:49,918,1,Experiment,2023-09-12_16h16.04.143
6,local,global,7,13,10,166,5,,,172,exp,ZUUFSLTEFHYEXHS,SFEHENHZFTUUTZY,6,N,X,nN,yY,n,1,1.1044882,y,1,0.0981215,RSVPLG01,0.94,2023-09-12-22:34:49,918,1,Experiment,2023-09-12_16h16.04.143
8,global,local,3,13,11,167,7,,,173,exp,YSLELYUHHSZFUNF,SULTYFXZHYHSNNU,4,E,X,eE,yY,t,0,0.9750167,y,1,0.0488143,RSVPLG01,0.94,2023-09-12-22:34:49,918,1,Experiment,2023-09-12_16h16.04.143
11,global,global,3,14,0,168,10,,,174,exp,HFFYEUNXTSTNSLL,LTSTZYNLFNFHSUU,5,E,X,eE,yY,z,0,2.5966744,n,0,0.8966027,RSVPLG01,0.94,2023-09-12-22:34:49,918,1,Experiment,2023-09-12_16h16.04.143
1,local,local,0,14,1,169,0,,,175,exp,HUUTYTHLFELENNF,TSLUZSHFNNLHETU,5,Z,absent,zZ,nN,y,0,1.0152752,n,1,0.3271771,RSVPLG01,0.94,2023-09-12-22:34:49,918,1,Experiment,2023-09-12_16h16.04.143
8,global,local,3,14,2,170,7,,,176,exp,LNTYHYZNEULETUS,ZTYNFEZXSYLUEUT,5,H,X,hH,yY,f,0,0.6982077,y,1,0.4273882,RSVPLG01,0.94,2023-09-12-22:34:49,918,1,Experiment,2023-09-12_16h16.04.143
4,local,global,0,14,3,171,3,,,177,exp,UTYFEZUNHNHSTEY,YHZLEZTUESSUTNN,4,L,absent,lL,nN,f,0,1.0370944,n,1,0.087699,RSVPLG01,0.94,2023-09-12-22:34:49,918,1,Experiment,2023-09-12_16h16.04.143
2,local,local,3,14,4,172,1,,,178,exp,HFHFNSUTZEZELST,EULSYFHXZHTTLUZ,5,Y,X,yY,yY,n,0,0.9966737,n,0,0.6034607,RSVPLG01,0.94,2023-09-12-22:34:49,918,1,Experiment,2023-09-12_16h16.04.143
9,global,local,7,14,5,173,8,,,179,exp,YFNHZUSYTTZSFLL,LHLZZEYTHFSYXTS,6,U,X,uU,yY,u,1,1.1949129,n,0,0.409019,RSVPLG01,0.94,2023-09-12-22:34:49,918,1,Experiment,2023-09-12_16h16.04.143
2,local,local,3,14,6,174,1,,,180,exp,YEFNTYULTFSHSEL,YLFZSYXTUHFSHEL,4,Z,X,zZ,yY,n,0,0.9519975,n,0,0.8575049,RSVPLG01,0.94,2023-09-12-22:34:49,918,1,Experiment,2023-09-12_16h16.04.143
2,local,local,3,14,7,175,1,,,181,exp,TYYFSZNESLFHLTE,TYELSUSTXHFFNNY,6,U,X,uU,yY,z,0,1.1613045,y,1,0.1619998,RSVPLG01,0.94,2023-09-12-22:34:49,918,1,Experiment,2023-09-12_16h16.04.143
12,global,global,7,14,8,176,11,,,182,exp,LSHLTZHUFZYXEUF,YLFSNLUHEEYHZUZ,5,T,X,tT,yY,t,1,1.0795831,y,1,0.0193512,RSVPLG01,0.94,2023-09-12-22:34:49,918,1,Experiment,2023-09-12_16h16.04.143
9,global,local,7,14,9,177,8,,,183,exp,YFFUHNHTTSULYSZ,YSTZHETFUZHFXLL,6,N,X,nN,yY,n,1,0.7752659,y,1,0.0974846,RSVPLG01,0.94,2023-09-12-22:34:49,918,1,Experiment,2023-09-12_16h16.04.143
6,local,global,7,14,10,178,5,,,184,exp,YLTHZNTUUHEXLFE,EUFNSNLHYEFYTHL,5,S,X,sS,yY,z,0,1.6259567,y,1,0.1621765,RSVPLG01,0.94,2023-09-12-22:34:49,918,1,Experiment,2023-09-12_16h16.04.143
10,global,global,0,14,11,179,9,,,185,exp,FHUYENNUTEZLTHL,ENUSZHTZFHLEUTL,4,Y,absent,yY,nN,y,1,1.0459142,n,1,0.0978733,RSVPLG01,0.94,2023-09-12-22:34:49,918,1,Experiment,2023-09-12_16h16.04.143
8,global,local,3,15,0,180,7,,,186,exp,YEHTHNLUZTFEUYZ,HTULHSEYXZETZFL,6,N,X,nN,yY,n,1,0.6815801,y,1,0.6411809,RSVPLG01,0.94,2023-09-12-22:34:49,918,1,Experiment,2023-09-12_16h16.04.143
12,global,global,7,15,1,181,11,,,187,exp,SZTYLEFHEHZXFNS,ETNFUHZTSFSYZNH,5,L,X,lL,yY,l,1,0.8673495,y,1,0.1813611,RSVPLG01,0.94,2023-09-12-22:34:49,918,1,Experiment,2023-09-12_16h16.04.143
10,global,global,0,15,2,182,9,,,188,exp,UZLNFEYULHHZSFS,SUFTUHHLEESYLZY,4,N,absent,nN,nN,z,0,1.0485115,y,0,0.1859853,RSVPLG01,0.94,2023-09-12-22:34:49,918,1,Experiment,2023-09-12_16h16.04.143
5,local,global,3,15,3,183,4,,,189,exp,ESYNHZFTXSHEYFU,NUFEHLTNYYHFEUT,6,L,X,lL,yY,z,0,1.2259336,y,1,0.4422919,RSVPLG01,0.94,2023-09-12-22:34:49,918,1,Experiment,2023-09-12_16h16.04.143
8,global,local,3,15,4,184,7,,,190,exp,ELNFNSTELZZHYYH,HFLYLUZNXYZTEET,6,S,X,sS,yY,s,1,4.3320577,y,1,0.4380494,RSVPLG01,0.94,2023-09-12-22:34:49,918,1,Experiment,2023-09-12_16h16.04.143
1,local,local,0,15,5,185,0,,,191,exp,FZZNUFTLSYLTSNY,YNZYHNELZSTLFES,5,H,absent,hH,nN,u,0,1.2673181,y,0,0.0729204,RSVPLG01,0.94,2023-09-12-22:34:49,918,1,Experiment,2023-09-12_16h16.04.143
2,local,local,3,15,6,186,1,,,192,exp,FEZLSNYZEFHSUHN,SZUTEFXHFNZYYUS,4,T,X,tT,yY,l,0,0.6676207,y,1,0.42236,RSVPLG01,0.94,2023-09-12-22:34:49,918,1,Experiment,2023-09-12_16h16.04.143
4,local,global,0,15,7,187,3,,,193,exp,YELZUSTYHLZTEFU,FTUTZNYYLUHHZEE,6,N,absent,nN,nN,s,0,1.8570304,n,1,0.1565091,RSVPLG01,0.94,2023-09-12-22:34:49,918,1,Experiment,2023-09-12_16h16.04.143
1,local,local,0,15,8,188,0,,,194,exp,UFZZHYSHNLLNESF,HFFUZTELSZULSHE,6,T,absent,tT,nN,y,0,1.0723361,n,1,0.1572552,RSVPLG01,0.94,2023-09-12-22:34:49,918,1,Experiment,2023-09-12_16h16.04.143
11,global,global,3,15,9,189,10,,,195,exp,HNNSZFFXUSTYHLT,TTUNESUSYHLYLHF,5,Z,X,zZ,yY,z,1,1.1296498,n,0,0.1361355,RSVPLG01,0.94,2023-09-12-22:34:49,918,1,Experiment,2023-09-12_16h16.04.143
6,local,global,7,15,10,190,5,,,196,exp,SULHSTNYZUXNLYE,NYSFELNULUETYZS,4,F,X,fF,yY,f,1,1.4440962,y,1,1.4088644,RSVPLG01,0.94,2023-09-12-22:34:49,918,1,Experiment,2023-09-12_16h16.04.143
1,local,local,0,15,11,191,0,,,197,exp,NEFUTSYLNFLHYUE,SENFZSYHYUEHLFU,5,Z,absent,zZ,nN,t,0,0.8499192,n,1,0.1313224,RSVPLG01,0.94,2023-09-12-22:34:49,918,1,Experiment,2023-09-12_16h16.04.143
12,global,global,7,16,0,192,11,,,198,exp,YUTUNZHZYSFXHFT,YSHTELFLHYFZTUS,5,N,X,nN,yY,n,1,0.8081705,y,1,0.0987312,RSVPLG01,0.94,2023-09-12-22:34:49,918,1,Experiment,2023-09-12_16h16.04.143
6,local,global,7,16,1,193,5,,,199,exp,SFULZHSHTLEXETN,HEELYNFTNUSSTLF,5,Y,X,yY,yY,z,0,1.1133756,y,1,0.4655311,RSVPLG01,0.94,2023-09-12-22:34:49,918,1,Experiment,2023-09-12_16h16.04.143
6,local,global,7,16,2,194,5,,,200,exp,ZHSYNSEEUZUXYLH,LYUYFSHZLEETTUH,5,F,X,fF,yY,z,0,0.9554963,y,1,0.1769155,RSVPLG01,0.94,2023-09-12-22:34:49,918,1,Experiment,2023-09-12_16h16.04.143
2,local,local,3,16,3,195,1,,,201,exp,NNTTSYZLEFHELZS,SNHEEUFTXTLNZSL,6,U,X,uU,yY,y,0,0.7058494,y,1,0.0260391,RSVPLG01,0.94,2023-09-12-22:34:49,918,1,Experiment,2023-09-12_16h16.04.143
12,global,global,7,16,4,196,11,,,202,exp,LNZNFYESSHUXLEY,SYEZTUUNYSLNHZH,5,F,X,fF,yY,t,0,2.5890739,y,1,0.1216193,RSVPLG01,0.94,2023-09-12-22:34:49,918,1,Experiment,2023-09-12_16h16.04.143
3,local,local,7,16,5,197,2,,,203,exp,ZHEFNYTSSUTHZEN,NEUZZLHTUEHNXTF,6,L,X,lL,yY,y,0,0.6802612,y,1,0.140802,RSVPLG01,0.94,2023-09-12-22:34:49,918,1,Experiment,2023-09-12_16h16.04.143
4,local,global,0,16,6,198,3,,,204,exp,ZTEYNESYLLFUUFT,TUETHFSYZYSEUZL,5,H,absent,hH,nN,n,0,0.9528231,y,0,0.5698625,RSVPLG01,0.94,2023-09-12-22:34:49,918,1,Experiment,2023-09-12_16h16.04.143
6,local,global,7,16,7,199,5,,,205,exp,FLTHENSFHUZXULT,LUZSYUZHFNNLHTT,5,Y,X,yY,yY,f,0,0.4600815,y,1,0.0735057,RSVPLG01,0.94,2023-09-12-22:34:49,918,1,Experiment,2023-09-12_16h16.04.143
4,local,global,0,16,8,200,3,,,206,exp,TFYLNFZYSUHUNST,NZYENHTUYSUSFHT,4,E,absent,eE,nN,l,0,0.7338394,y,0,0.1218846,RSVPLG01,0.94,2023-09-12-22:34:49,918,1,Experiment,2023-09-12_16h16.04.143
2,local,local,3,16,9,201,1,,,207,exp,ZEYHTTYLLZUNFUE,ULZSYUXNFEYLZNT,4,S,X,sS,yY,h,0,0.7416441,y,1,0.0341811,RSVPLG01,0.94,2023-09-12-22:34:49,918,1,Experiment,2023-09-12_16h16.04.143
7,global,local,0,16,10,202,6,,,208,exp,LUSYNFTZNYLUZSE,LNNYSHZZEUYLEUT,6,F,absent,fF,nN,f,1,0.9314133,n,1,0.1377177,RSVPLG01,0.94,2023-09-12-22:34:49,918,1,Experiment,2023-09-12_16h16.04.143
5,local,global,3,16,11,203,4,,,209,exp,NZTZEHLXTYHNFLF,LLHYUHTSNTZFNZS,5,U,X,uU,yY,e,0,0.8479625,y,1,0.1828593,RSVPLG01,0.94,2023-09-12-22:34:49,918,1,Experiment,2023-09-12_16h16.04.143
9,global,local,7,17,0,204,8,,,210,exp,UYNHTNFFUSHSZZL,ZYNYENFUSFHXLUL,5,T,X,tT,yY,t,1,1.0524802,n,0,0.0920161,RSVPLG01,0.94,2023-09-12-22:34:49,918,1,Experiment,2023-09-12_16h16.04.143
6,local,global,7,17,1,205,5,,,211,exp,HLENTUUHSLYXSNF,YSFLZYUEENSHNLU,5,Z,X,zZ,yY,t,0,0.8239384,y,1,0.0406037,RSVPLG01,0.94,2023-09-12-22:34:49,918,1,Experiment,2023-09-12_16h16.04.143
6,local,global,7,17,2,206,5,,,212,exp,TFZSLUEYNNZYXST,LZNSZHNSTFEELFT,6,H,X,hH,yY,u,0,1.4849018,y,1,0.3541444,RSVPLG01,0.94,2023-09-12-22:34:49,918,1,Experiment,2023-09-12_16h16.04.143
9,global,local,7,17,3,207,8,,,213,exp,ELNHSLSYFUYTETF,LFLZUNYTEEXSSUF,4,H,X,hH,yY,n,0,0.6547844,y,1,0.5940441,RSVPLG01,0.94,2023-09-12-22:34:49,918,1,Experiment,2023-09-12_16h16.04.143
7,global,local,0,17,4,208,6,,,214,exp,FLEUZYYFZNHSLEH,EZSTFFSYHHLYZNL,4,U,absent,uU,nN,u,1,0.9278955,n,1,0.6552147,RSVPLG01,0.94,2023-09-12-22:34:49,918,1,Experiment,2023-09-12_16h16.04.143
6,local,global,7,17,5,209,5,,,215,exp,ZHUZTFSHSYFXNNE,EYUSLHFNZYEZNSH,5,L,X,lL,yY,t,0,0.8668001,y,1,0.0111826,RSVPLG01,0.94,2023-09-12-22:34:49,918,1,Experiment,2023-09-12_16h16.04.143
10,global,global,0,17,6,210,9,,,216,exp,LENUZYNSHUZTHEL,LHHZEFTLTUUESSN,6,Y,absent,yY,nN,y,1,1.0536316,n,1,0.1232183,RSVPLG01,0.94,2023-09-12-22:34:49,918,1,Experiment,2023-09-12_16h16.04.143
2,local,local,3,17,7,211,1,,,217,exp,LSYFHUHZLYSUTTZ,EHLNZSXHYYEUZUT,4,N,X,nN,yY,f,0,1.4168567,n,0,0.5074798,RSVPLG01,0.94,2023-09-12-22:34:49,918,1,Experiment,2023-09-12_16h16.04.143
5,local,global,3,17,8,212,4,,,218,exp,ENFSLHNLXTSYTFZ,ZSFNEULTSYYLZET,6,U,X,uU,yY,h,0,0.9225459,y,1,0.0758538,RSVPLG01,0.94,2023-09-12-22:34:49,918,1,Experiment,2023-09-12_16h16.04.143
4,local,global,0,17,9,213,3,,,219,exp,NHHSTUEFNYEFZSU,FEUHLENNSZUSHYY,5,L,absent,lL,nN,t,0,0.9275851,n,1,0.2026924,RSVPLG01,0.94,2023-09-12-22:34:49,918,1,Experiment,2023-09-12_16h16.04.143
10,global,global,0,17,10,214,9,,,220,exp,YNELSFUSYENHHFU,EHSZEHYNNTYTFUS,4,L,absent,lL,nN,l,1,0.4906087,y,0,0.1466338,RSVPLG01,0.94,2023-09-12-22:34:49,918,1,Experiment,2023-09-12_16h16.04.143
9,global,local,7,17,11,215,8,,,221,exp,NNUELTTSFFZSZYU,YSZFHTEUTYFXZNE,5,L,X,lL,yY,l,1,0.9324483,n,0,0.3365528,RSVPLG01,0.94,2023-09-12-22:34:49,918,1,Experiment,2023-09-12_16h16.04.143
7,global,local,0,18,0,216,6,,,222,exp,NFEYHLSLZZEFSUU,LZNETYSFNFZUUYS,5,H,absent,hH,nN,h,1,1.0284492,n,1,0.2122026,RSVPLG01,0.94,2023-09-12-22:34:49,918,1,Experiment,2023-09-12_16h16.04.143
2,local,local,3,18,1,217,1,,,223,exp,FHSTEUUHYSZZYLL,SHZFNHFXYTSTZUY,5,N,X,nN,yY,f,0,0.9958081,n,0,0.1529184,RSVPLG01,0.94,2023-09-12-22:34:49,918,1,Experiment,2023-09-12_16h16.04.143
3,local,local,7,18,2,218,2,,,224,exp,HEHSNESLYYFLZUZ,SEZUTHLLFUFXZHY,5,T,X,tT,yY,n,0,1.01806,y,1,0.0932999,RSVPLG01,0.94,2023-09-12-22:34:49,918,1,Experiment,2023-09-12_16h16.04.143
10,global,global,0,18,3,219,9,,,225,exp,FFZEUTTHSLHENSZ,SSNNYTLEFTHEHLZ,5,U,absent,uU,nN,u,1,1.3769462,y,0,0.3693351,RSVPLG01,0.94,2023-09-12-22:34:49,918,1,Experiment,2023-09-12_16h16.04.143
6,local,global,7,18,4,220,5,,,226,exp,ZEFYTLNZHHXFTUE,HZHSELFUNTEFUZL,4,S,X,sS,yY,y,0,1.2632426,n,0,0.2435625,RSVPLG01,0.94,2023-09-12-22:34:49,918,1,Experiment,2023-09-12_16h16.04.143
2,local,local,3,18,5,221,1,,,227,exp,FEUTSYEFZNULZNS,TZLEFHNLXUNTUZE,6,H,X,hH,yY,y,0,0.4115329,n,0,0.0820281,RSVPLG01,0.94,2023-09-12-22:34:49,918,1,Experiment,2023-09-12_16h16.04.143
4,local,global,0,18,6,222,3,,,228,exp,LEEYLHTNZUFFZNU,LETSZHNHFNUZUFT,4,S,absent,sS,nN,y,0,0.5688708,y,0,0.0735983,RSVPLG01,0.94,2023-09-12-22:34:49,918,1,Experiment,2023-09-12_16h16.04.143
11,global,global,3,18,7,223,10,,,229,exp,LSHUZZXFLTYTYEE,YFTNHTSZEEHLFZL,4,U,X,uU,yY,u,1,0.8038535,n,0,0.4769149,RSVPLG01,0.94,2023-09-12-22:34:49,918,1,Experiment,2023-09-12_16h16.04.143
4,local,global,0,18,8,224,3,,,230,exp,TNYFSEUFUZYZTSH,HNHSFLYTZZYTFUU,6,L,absent,lL,nN,e,0,1.4332186,y,0,0.082572,RSVPLG01,0.94,2023-09-12-22:34:49,918,1,Experiment,2023-09-12_16h16.04.143
4,local,global,0,18,9,225,3,,,231,exp,HTLUZZYSNFHNYLS,NFHEZNSFTTLZYLY,4,E,absent,eE,nN,u,0,0.920671,y,0,0.0827827,RSVPLG01,0.94,2023-09-12-22:34:49,918,1,Experiment,2023-09-12_16h16.04.143
4,local,global,0,18,10,226,3,,,232,exp,EYFZSFTYHUHSTUE,THYNFLUEYTUFSLE,4,N,absent,nN,nN,z,0,0.9028259,n,1,0.1779673,RSVPLG01,0.94,2023-09-12-22:34:49,918,1,Experiment,2023-09-12_16h16.04.143
3,local,local,7,18,11,227,2,,,233,exp,YLZNYSZTLUHTHEN,TYEUZFNUHLHNXYE,6,F,X,fF,yY,s,0,1.0226165,y,1,1.179699,RSVPLG01,0.94,2023-09-12-22:34:49,918,1,Experiment,2023-09-12_16h16.04.143
4,local,global,0,19,0,228,3,,,234,exp,UYNNHETYSFTFZZU,HNFSSLYNUHZTYZT,6,L,absent,lL,nN,e,0,0.6633944,y,0,0.1279713,RSVPLG01,0.94,2023-09-12-22:34:49,918,1,Experiment,2023-09-12_16h16.04.143
2,local,local,3,19,1,229,1,,,235,exp,SUNLETYUSYZHTNZ,ZNSFYTXZUTYEUSE,4,F,X,fF,yY,l,0,0.4350598,y,1,0.1650705,RSVPLG01,0.94,2023-09-12-22:34:49,918,1,Experiment,2023-09-12_16h16.04.143
1,local,local,0,19,2,230,0,,,236,exp,TLEZLSNUNESUYTY,TSFHNFEUTLSLYNE,4,H,absent,hH,nN,z,0,0.7275001,y,0,0.2263625,RSVPLG01,0.94,2023-09-12-22:34:49,918,1,Experiment,2023-09-12_16h16.04.143
9,global,local,7,19,3,231,8,,,237,exp,LEZNSYYFHTENTFL,FNLTUNYYTEHXHLE,5,S,X,sS,yY,s,1,0.6796157,n,0,1.4467249,RSVPLG01,0.94,2023-09-12-22:34:49,918,1,Experiment,2023-09-12_16h16.04.143
10,global,global,0,19,4,232,9,,,238,exp,TUYNZFTHUZSYHEF,ETYLFFEUZHYHZUS,4,N,absent,nN,nN,n,1,0.5793701,y,0,0.641933,RSVPLG01,0.94,2023-09-12-22:34:49,918,1,Experiment,2023-09-12_16h16.04.143
3,local,local,7,19,5,233,2,,,239,exp,HULZFLHTNNEZYUY,LTYESETUHNHXNYL,5,S,X,sS,yY,f,0,0.6856729,y,1,0.1238109,RSVPLG01,0.94,2023-09-12-22:34:49,918,1,Experiment,2023-09-12_16h16.04.143
5,local,global,3,19,6,234,4,,,240,exp,UZSHTFFXHESENZY,EZHSLNSFFUNYHZU,5,L,X,lL,yY,t,0,1.367939,n,0,0.1858574,RSVPLG01,0.94,2023-09-12-22:34:49,918,1,Experiment,2023-09-12_16h16.04.143
6,local,global,7,19,7,235,5,,,241,exp,SNEZHTSZNEHFXLY,NHNYYUZLLFSZEFS,6,U,X,uU,yY,t,0,0.8678895,y,1,0.1344156,RSVPLG01,0.94,2023-09-12-22:34:49,918,1,Experiment,2023-09-12_16h16.04.143
8,global,local,3,19,8,236,7,,,242,exp,SZLNHESFTEFYNYZ,SYLLUZSXNEFYEZT,5,H,X,hH,yY,h,1,0.9376378,n,0,0.4236581,RSVPLG01,0.94,2023-09-12-22:34:49,918,1,Experiment,2023-09-12_16h16.04.143
11,global,global,3,19,9,237,10,,,243,exp,LTHZYSEXSUHTENN,ZLNSFLTZHHUNTUS,5,Y,X,yY,yY,y,1,0.8393936,n,0,0.2510086,RSVPLG01,0.94,2023-09-12-22:34:49,918,1,Experiment,2023-09-12_16h16.04.143
12,global,global,7,19,10,238,11,,,244,exp,ZYFFHNUEUYTXNZL,EEYNSZFULNUTTYL,5,H,X,hH,yY,n,0,1.4458825,y,1,0.4260505,RSVPLG01,0.94,2023-09-12-22:34:49,918,1,Experiment,2023-09-12_16h16.04.143
8,global,local,3,19,11,239,7,,,245,exp,YFHNZUUEHLESLSN,LUEHTHLXFNEYUSN,5,Z,X,zZ,yY,z,1,1.1866366,y,1,0.2806126,RSVPLG01,0.94,2023-09-12-22:34:49,918,1,Experiment,2023-09-12_16h16.04.143