row,t1_level,t2_level,t2_lag,.thisRepN,.thisTrialN,.thisN,.thisIndex,thisRow.t,notes,trial,trial_type,global_letters,local_letters,t1_pos,t1,t2,t1_corr,t2_corr,t1_resp,t1_acc,t1_rt,t2_resp,t2_acc,t2_rt,exp,ver,mod-utc,sub,sess,blocktyp,datetime,
6,local,global,7,0,0,0,5,,,1,warmup,FLYHNSZTEZXYSFE,YLLUFESSNNEZFTZ,4,U,X,uU,yY,h,0,0.8814553890260868,y,1,0.055946988984942436,RSVPLG01,0.94,2023-09-12-22:58:04,903,1,Experiment,2023-09-12_16h01.50.141,
8,global,local,3,0,1,1,7,,,2,warmup,LHEHSELYUNYUTTZ,UYTHFENXLZZHETN,5,S,X,sS,yY,s,1,0.8010112200281583,y,1,0.02315856999484822,RSVPLG01,0.94,2023-09-12-22:58:04,903,1,Experiment,2023-09-12_16h01.50.141,
2,local,local,3,0,2,2,1,,,3,warmup,TTFNEUNUYZLSSZF,NFYZHLYXFTUNUSL,5,H,X,hH,yY,h,1,0.9257940909592435,n,0,0.3332733399583958,RSVPLG01,0.94,2023-09-12-22:58:04,903,1,Experiment,2023-09-12_16h01.50.141,
1,local,local,0,0,3,3,0,,,4,warmup,LSEUHHTEYTYLZSN,LHZFLYZYETNSNEH,4,F,absent,fF,nN,f,1,0.7700773239484988,n,1,0.8163608069880866,RSVPLG01,0.94,2023-09-12-22:58:04,903,1,Experiment,2023-09-12_16h01.50.141,
10,global,global,0,0,4,4,9,,,5,warmup,HFLTYUSZFTNSHZY,LTFTYESYZHZNNHS,6,U,absent,uU,nN,u,1,0.7524042130098678,n,1,0.35064351599430665,RSVPLG01,0.94,2023-09-12-22:58:04,903,1,Experiment,2023-09-12_16h01.50.141,
4,local,global,0,0,0,0,3,,,6,exp,ZSEFSLTEULNTUNY,TSEHZZLUSLTYNEU,4,H,absent,hH,nN,h,1,0.8026530620409176,n,1,0.2706526510301046,RSVPLG01,0.94,2023-09-12-22:58:04,903,1,Experiment,2023-09-12_16h01.50.141,
12,global,global,7,0,1,1,11,,,7,exp,ZSEUHYESLFXYNFL,ZYFTLSHNENSFHZE,4,U,X,uU,yY,u,1,0.725238083046861,y,1,0.05549684597644955,RSVPLG01,0.94,2023-09-12-22:58:04,903,1,Experiment,2023-09-12_16h01.50.141,
4,local,global,0,0,2,2,3,,,8,exp,ENULUTSSFNYYLHH,ULYHEZLEFUNYHNS,6,Z,absent,zZ,nN,t,0,0.7446434029843658,y,0,0.23874909797450528,RSVPLG01,0.94,2023-09-12-22:58:04,903,1,Experiment,2023-09-12_16h01.50.141,
1,local,local,0,0,3,3,0,,,9,exp,SHLTETHFLZFSZNU,HZFUYTSLUSNFTHZ,5,Y,absent,yY,nN,e,0,1.8904919719789177,n,1,0.3212241110159084,RSVPLG01,0.94,2023-09-12-22:58:04,903,1,Experiment,2023-09-12_16h01.50.141,
12,global,global,7,0,4,4,11,,,10,exp,LYEYFZLFHNUEXNH,FHUFUTYNSNESLLE,6,Z,X,zZ,yY,z,1,0.6042134080198593,y,1,0.27682616701349616,RSVPLG01,0.94,2023-09-12-22:58:04,903,1,Experiment,2023-09-12_16h01.50.141,
11,global,global,3,0,5,5,10,,,11,exp,HSYTLZNXUETYHZU,UTHUFEEZNTHYZNS,5,L,X,lL,yY,l,1,0.6558909710147418,y,1,0.16057540703332052,RSVPLG01,0.94,2023-09-12-22:58:04,903,1,Experiment,2023-09-12_16h01.50.141,
11,global,global,3,0,6,6,10,,,12,exp,ZYTNTSLLXUEYNHZ,HZYUUFNNYZETLHL,6,S,X,sS,yY,s,1,0.6633483180194162,y,1,0.03342086501652375,RSVPLG01,0.94,2023-09-12-22:58:04,903,1,Experiment,2023-09-12_16h01.50.141,
9,global,local,7,0,7,7,8,,,13,exp,UYLUSLZZFEFNYTN,FZTEHYFLUENXZUN,5,S,X,sS,yY,s,1,1.554194547003135,y,1,1.1978912170161493,RSVPLG01,0.94,2023-09-12-22:58:04,903,1,Experiment,2023-09-12_16h01.50.141,
1,local,local,0,0,8,8,0,,,14,exp,LUFSEHZEYYFTLTZ,TTSESNUZEFYYULZ,6,N,absent,nN,nN,n,1,0.749063404975459,y,0,1.6161273859906942,RSVPLG01,0.94,2023-09-12-22:58:04,903,1,Experiment,2023-09-12_16h01.50.141,
10,global,global,0,0,9,9,9,,,15,exp,ZUZHENTEYFUYTFH,YZSHFLUEUEHFZTY,6,N,absent,nN,nN,n,1,0.8193933119764552,n,1,0.23079046403290704,RSVPLG01,0.94,2023-09-12-22:58:04,903,1,Experiment,2023-09-12_16h01.50.141,
11,global,global,3,0,10,10,10,,,16,exp,EFYUSZXFEHSNTYH,NSTLFYHZEFHSTYE,4,U,X,uU,yY,l,0,0.6020934259868227,n,0,0.30326503195101395,RSVPLG01,0.94,2023-09-12-22:58:04,903,1,Experiment,2023-09-12_16h01.50.141,
10,global,global,0,0,11,11,9,,,17,exp,LSUUYNEZLSFHHNZ,UFESTFHNUNEZLLS,5,Y,absent,yY,nN,y,1,0.7975019509904087,n,1,0.0824753200286068,RSVPLG01,0.94,2023-09-12-22:58:04,903,1,Experiment,2023-09-12_16h01.50.141,
10,global,global,0,1,0,12,9,,,18,exp,STNFSEZTNHYYFHZ,ZFNTYLNSUHFZYST,6,E,absent,eE,nN,f,0,1.0861028479994275,n,1,0.5948550010216422,RSVPLG01,0.94,2023-09-12-22:58:04,903,1,Experiment,2023-09-12_16h01.50.141,
11,global,global,3,1,1,13,10,,,19,exp,NHELFEUXYUSHTTN,NSYNZYLUTSUETEL,5,F,X,fF,yY,f,1,1.452957413974218,y,1,0.24154076998820528,RSVPLG01,0.94,2023-09-12-22:58:04,903,1,Experiment,2023-09-12_16h01.50.141,
6,local,global,7,1,2,14,5,,,20,exp,USETSFTYNUNZXLL,TYUZTHENSYNLULZ,6,H,X,hH,yY,h,1,0.9370150640024804,y,1,0.012788538006134331,RSVPLG01,0.94,2023-09-12-22:58:04,903,1,Experiment,2023-09-12_16h01.50.141,
3,local,local,7,1,3,15,2,,,21,exp,LZSUEFSFTYZLHHY,FUHLNUTHYFSXYZL,5,N,X,nN,yY,e,0,1.2152811840060167,y,1,0.9619442030088976,RSVPLG01,0.94,2023-09-12-22:58:04,903,1,Experiment,2023-09-12_16h01.50.141,
10,global,global,0,1,4,16,9,,,22,exp,YNFEUTSNLULYSHF,SHUZFYLTSUTNHYL,4,E,absent,eE,nN,e,1,0.9759646860184148,y,0,0.5603098109713756,RSVPLG01,0.94,2023-09-12-22:58:04,903,1,Experiment,2023-09-12_16h01.50.141,
1,local,local,0,1,5,17,0,,,23,exp,NZYETLYHSUEUNSH,SZHUFLNYYHLSZNE,5,F,absent,fF,nN,f,1,3.8191155180102214,y,0,0.8834943069959991,RSVPLG01,0.94,2023-09-12-22:58:04,903,1,Experiment,2023-09-12_16h01.50.141,
8,global,local,3,1,6,18,7,,,24,exp,NLLHZEZTSEUUTSY,UYTFNLXUNYZSTEE,4,H,X,hH,yY,h,1,0.5662385189789347,y,1,0.0755907699931413,RSVPLG01,0.94,2023-09-12-22:58:04,903,1,Experiment,2023-09-12_16h01.50.141,
2,local,local,3,1,7,19,1,,,25,exp,TFNFSENTHHLELYZ,NZETUTFXYFHHZYN,5,U,X,uU,yY,u,1,0.5240825359942392,y,1,0.044905995950102806,RSVPLG01,0.94,2023-09-12-22:58:04,903,1,Experiment,2023-09-12_16h01.50.141,
3,local,local,7,1,8,20,2,,,26,exp,UEFLSHNFLETUNYT,HHFYZUENLTLXYTF,5,Z,X,zZ,yY,y,0,1.1103811340290122,y,1,0.03574018401559442,RSVPLG01,0.94,2023-09-12-22:58:04,903,1,Experiment,2023-09-12_16h01.50.141,
8,global,local,3,1,9,21,7,,,27,exp,ZEYHNFLUSHZFULE,HUFYTFZXELHYZSE,5,N,X,nN,yY,n,1,0.8148180799908005,y,1,0.23571850900771096,RSVPLG01,0.94,2023-09-12-22:58:04,903,1,Experiment,2023-09-12_16h01.50.141,
4,local,global,0,1,10,22,3,,,28,exp,ULFEHYFNUZNSZLS,LUUETSNYZFYFSNE,5,T,absent,tT,nN,t,1,0.7291292609879747,y,0,0.33119774400256574,RSVPLG01,0.94,2023-09-12-22:58:04,903,1,Experiment,2023-09-12_16h01.50.141,
1,local,local,0,1,11,23,0,,,29,exp,EYYHUNSLHTUTZEZ,YUZZHFETYSSHELT,6,F,absent,fF,nN,f,1,1.157992435968481,n,1,0.615479547996074,RSVPLG01,0.94,2023-09-12-22:58:04,903,1,Experiment,2023-09-12_16h01.50.141,
12,global,global,7,2,0,24,11,,,30,exp,FTFYUSLSYZLXTHZ,ESTYNSZLYFLEHFT,5,U,X,uU,yY,y,0,1.4215822770493105,y,1,0.04294927802402526,RSVPLG01,0.94,2023-09-12-22:58:04,903,1,Experiment,2023-09-12_16h01.50.141,
8,global,local,3,2,1,25,7,,,31,exp,YEZYFNLETZLFUUS,YFLUEHYZXTTFELS,6,N,X,nN,yY,n,1,1.0596977489767596,n,0,0.2588627549703233,RSVPLG01,0.94,2023-09-12-22:58:04,903,1,Experiment,2023-09-12_16h01.50.141,
11,global,global,3,2,2,26,10,,,32,exp,YZYLZTHUXUSEFFE,ZYEUENHFFYSSLUL,6,T,X,tT,yY,t,1,0.6195487439981662,n,0,0.42622500704601407,RSVPLG01,0.94,2023-09-12-22:58:04,903,1,Experiment,2023-09-12_16h01.50.141,
5,local,global,3,2,3,27,4,,,33,exp,YFTNUZUNXHTLYFH,TTHYYSNUULEFFHL,6,S,X,sS,yY,s,1,0.7949478509835899,y,1,0.3989501380128786,RSVPLG01,0.94,2023-09-12-22:58:04,903,1,Experiment,2023-09-12_16h01.50.141,
2,local,local,3,2,4,28,1,,,34,exp,HELSTFZSYZHYENL,LEYLHUTEXHSNSTZ,6,U,X,uU,yY,u,1,0.8372882180265151,y,1,0.8692864279728383,RSVPLG01,0.94,2023-09-12-22:58:04,903,1,Experiment,2023-09-12_16h01.50.141,
7,global,local,0,2,5,29,6,,,35,exp,SNEEYHSYLZZNFLT,FNFZTULSEZYNYEL,6,H,absent,hH,nN,y,0,0.8275107580120675,n,1,0.23181482299696654,RSVPLG01,0.94,2023-09-12-22:58:04,903,1,Experiment,2023-09-12_16h01.50.141,
5,local,global,3,2,6,30,4,,,36,exp,HYEHFULEXTLFTSN,ESTTLZSENYHNFLY,6,Z,X,zZ,yY,u,0,0.9515456520020962,y,1,0.6985037570120767,RSVPLG01,0.94,2023-09-12-22:58:04,903,1,Experiment,2023-09-12_16h01.50.141,
2,local,local,3,2,7,31,1,,,37,exp,FTTULSHLYEZHFEY,ELFYLNHUXZTUEHY,6,N,X,nN,yY,z,0,0.7424101419746876,y,1,0.1368388370028697,RSVPLG01,0.94,2023-09-12-22:58:04,903,1,Experiment,2023-09-12_16h01.50.141,
3,local,local,7,2,8,32,2,,,38,exp,YSSLHFHZZTTNEFE,SYTUZZEYFSXFHTH,4,U,X,uU,yY,l,0,0.773323159024585,y,1,0.058614209992811084,RSVPLG01,0.94,2023-09-12-22:58:04,903,1,Experiment,2023-09-12_16h01.50.141,
10,global,global,0,2,9,33,9,,,39,exp,SUZYLTENULESZNH,EUNESFHZYYUHLZN,6,T,absent,tT,nN,f,0,1.2324465579586104,n,1,0.9986722720204853,RSVPLG01,0.94,2023-09-12-22:58:04,903,1,Experiment,2023-09-12_16h01.50.141,
4,local,global,0,2,10,34,3,,,40,exp,HLSNUYSEYZTZUTH,TSHFHULZTESLYEZ,4,F,absent,fF,nN,f,1,0.8884241390042007,n,1,0.6406208410044201,RSVPLG01,0.94,2023-09-12-22:58:04,903,1,Experiment,2023-09-12_16h01.50.141,
6,local,global,7,2,11,35,5,,,41,exp,EZHUSTHYYLXLZEF,HSFNSLHZYTLFZYE,4,N,X,nN,yY,n,1,0.5974701559753157,y,1,0.10009877302218229,RSVPLG01,0.94,2023-09-12-22:58:04,903,1,Experiment,2023-09-12_16h01.50.141,
5,local,global,3,3,0,36,4,,,42,exp,HYLSHNLSXTEUUYZ,ESTYHFHZLTSLUYU,6,F,X,fF,yY,f,1,0.8543688060017303,y,1,0.46857328701298684,RSVPLG01,0.94,2023-09-12-22:58:04,903,1,Experiment,2023-09-12_16h01.50.141,
7,global,local,0,3,1,37,6,,,43,exp,SUYLZEEULHYHSTT,SSYNFYTULEHENHT,5,Z,absent,zZ,nN,z,1,0.7667017499916255,n,1,0.12793817702913657,RSVPLG01,0.94,2023-09-12-22:58:04,903,1,Experiment,2023-09-12_16h01.50.141,
9,global,local,7,3,2,38,8,,,44,exp,SEUZELHHUNFNTSZ,EHTZEYNUSTNZXHF,6,L,X,lL,yY,y,0,1.1225468309712596,y,1,0.05808732798323035,RSVPLG01,0.94,2023-09-12-22:58:04,903,1,Experiment,2023-09-12_16h01.50.141,
6,local,global,7,3,3,39,5,,,45,exp,NNELZSUHSUFXHEY,NNFSTHLYHEUSEYL,5,T,X,tT,yY,z,0,0.7830233720014803,y,1,0.019424744008574635,RSVPLG01,0.94,2023-09-12-22:58:04,903,1,Experiment,2023-09-12_16h01.50.141,
1,local,local,0,3,4,40,0,,,46,exp,YULTZYLHSESUNHT,NNTYFSLYUEUHLTH,5,F,absent,fF,nN,s,0,1.298360507003963,n,1,0.49060234398348257,RSVPLG01,0.94,2023-09-12-22:58:04,903,1,Experiment,2023-09-12_16h01.50.141,
9,global,local,7,3,5,41,8,,,47,exp,LFNSYTHSUTELEUH,NTSHZLLNSFUXFEE,5,Y,X,yY,yY,y,1,0.7937637789873406,y,1,0.899337902024854,RSVPLG01,0.94,2023-09-12-22:58:04,903,1,Experiment,2023-09-12_16h01.50.141,
9,global,local,7,3,6,42,8,,,48,exp,HHLYUFYFSSTZELZ,EZLTNYZYFESXTFH,5,U,X,uU,yY,u,1,0.8994096930255182,y,1,0.09106683201389387,RSVPLG01,0.94,2023-09-12-22:58:04,903,1,Experiment,2023-09-12_16h01.50.141,
6,local,global,7,3,7,43,5,,,49,exp,ELZFYSZFNLTHXHY,TNEFZUYEHLTHLYZ,6,U,X,uU,yY,h,0,1.9697725049918517,y,1,0.5844378129695542,RSVPLG01,0.94,2023-09-12-22:58:04,903,1,Experiment,2023-09-12_16h01.50.141,
1,local,local,0,3,8,44,0,,,50,exp,LLTZUNZYNETSYHS,LTNHFYTZZSHLENY,5,F,absent,fF,nN,f,1,2.393684597045649,n,1,0.5430048190173693,RSVPLG01,0.94,2023-09-12-22:58:04,903,1,Experiment,2023-09-12_16h01.50.141,
8,global,local,3,3,9,45,7,,,51,exp,YSSFFZLNHYNHELU,FEEFLTUNXYSSHNL,6,Z,X,zZ,yY,z,1,0.7177342040231451,y,1,0.2238231470109895,RSVPLG01,0.94,2023-09-12-22:58:04,903,1,Experiment,2023-09-12_16h01.50.141,
6,local,global,7,3,10,46,5,,,52,exp,TNUYNFYESZTLXLE,LZLTUHUNNSSTYYZ,6,H,X,hH,yY,f,0,0.5432293980265968,y,1,0.4954192150034942,RSVPLG01,0.94,2023-09-12-22:58:04,903,1,Experiment,2023-09-12_16h01.50.141,
1,local,local,0,3,11,47,0,,,53,exp,YFLLYHFSNSZUUZT,YFZSNEZYFUUTLNS,6,E,absent,eE,nN,e,1,0.7629096619784832,n,1,0.2184753959882073,RSVPLG01,0.94,2023-09-12-22:58:04,903,1,Experiment,2023-09-12_16h01.50.141,
1,local,local,0,4,0,48,0,,,54,exp,SHSLZYFUHFLUZEN,SSEZUTFELHNLHZN,6,T,absent,tT,nN,y,0,0.7717303939862177,n,1,0.035106853989418596,RSVPLG01,0.94,2023-09-12-22:58:04,903,1,Experiment,2023-09-12_16h01.50.141,
12,global,global,7,4,1,49,11,,,55,exp,THFSZFHUTLNXYSN,UTSTEYFHNSNLFUH,5,Z,X,zZ,yY,z,1,0.7392246800009161,y,1,0.048863797972444445,RSVPLG01,0.94,2023-09-12-22:58:04,903,1,Experiment,2023-09-12_16h01.50.141,
4,local,global,0,4,2,50,3,,,56,exp,TFYHYSLETNUENUH,THLEFZHNUFNLUYY,6,Z,absent,zZ,nN,y,0,2.0675305359764025,n,1,0.20816676499089226,RSVPLG01,0.94,2023-09-12-22:58:04,903,1,Experiment,2023-09-12_16h01.50.141,
1,local,local,0,4,3,51,0,,,57,exp,YELNHSUUYZZEFNL,LFSUTENFYSUYNZZ,5,T,absent,tT,nN,t,1,0.9049432519823313,n,1,0.08845063199987635,RSVPLG01,0.94,2023-09-12-22:58:04,903,1,Experiment,2023-09-12_16h01.50.141,
11,global,global,3,4,4,52,10,,,58,exp,HSLYSNXFTZLNTHZ,SLUEHTTZSNHZLFU,4,Y,X,yY,yY,u,0,2.295628306979779,n,0,0.124873440945521,RSVPLG01,0.94,2023-09-12-22:58:04,903,1,Experiment,2023-09-12_16h01.50.141,
7,global,local,0,4,5,53,6,,,59,exp,SZFTYSZFUULYNNL,YNFHSLSYLNFEZUZ,4,T,absent,tT,nN,y,0,0.8945850930176675,y,0,0.003627176978625357,RSVPLG01,0.94,2023-09-12-22:58:04,903,1,Experiment,2023-09-12_16h01.50.141,
9,global,local,7,4,6,54,8,,,60,exp,ENLFTLYUEUYNSZS,UELYHEZFNUNXLYS,5,T,X,tT,yY,t,1,0.6473584970226511,y,1,0.047657922958023846,RSVPLG01,0.94,2023-09-12-22:58:04,903,1,Experiment,2023-09-12_16h01.50.141,
6,local,global,7,4,7,55,5,,,61,exp,FZHTNSYSYZLXFTH,EFHLUZESHYTZFST,5,U,X,uU,yY,u,1,0.9102567519876175,y,1,0.0010252980282530189,RSVPLG01,0.94,2023-09-12-22:58:04,903,1,Experiment,2023-09-12_16h01.50.141,
8,global,local,3,4,8,56,7,,,62,exp,TYLUZHSFHYFULTS,SNUYEYTXLNUSFFL,5,Z,X,zZ,yY,z,1,0.6746734679909423,y,1,1.0045800369698554,RSVPLG01,0.94,2023-09-12-22:58:04,903,1,Experiment,2023-09-12_16h01.50.141,
11,global,global,3,4,9,57,10,,,63,exp,FZUFLNZXTYSTNYE,ZSTNHFUTUZESEFN,5,L,X,lL,yY,f,0,1.4021605370217003,y,1,0.5004467499675229,RSVPLG01,0.94,2023-09-12-22:58:04,903,1,Experiment,2023-09-12_16h01.50.141,
4,local,global,0,4,10,58,3,,,64,exp,TEHEFZYUZTLYLSH,YLHUNZETLSYHESZ,5,N,absent,nN,nN,n,1,0.7985603680135682,n,1,0.41666354099288583,RSVPLG01,0.94,2023-09-12-22:58:04,903,1,Experiment,2023-09-12_16h01.50.141,
8,global,local,3,4,11,59,7,,,65,exp,LFNLUHNSFYZUYZT,NFNUYETLXZZSYSF,6,H,X,hH,yY,h,1,0.4597433040034957,y,1,0.021388141030911356,RSVPLG01,0.94,2023-09-12-22:58:04,903,1,Experiment,2023-09-12_16h01.50.141,
12,global,global,7,5,0,60,11,,,66,exp,TFEZNSLHFHXUEUN,EUFYNHULLFNHTSE,4,Z,X,zZ,yY,z,1,0.9226268050260842,y,1,0.02505252102855593,RSVPLG01,0.94,2023-09-12-22:58:04,903,1,Experiment,2023-09-12_16h01.50.141,
3,local,local,7,5,1,61,2,,,67,exp,HUSZNELFLZFTUHN,FNZNLYTSHSTZXHU,6,Y,X,yY,yY,y,1,0.8251682479749434,y,1,0.02777962596155703,RSVPLG01,0.94,2023-09-12-22:58:04,903,1,Experiment,2023-09-12_16h01.50.141,
5,local,global,3,5,2,62,4,,,68,exp,FUEZSNHEXLHZSFT,SUZHUYHSLTZFTFE,6,Y,X,yY,yY,l,0,1.5524143319926225,y,1,0.00834340398432687,RSVPLG01,0.94,2023-09-12-22:58:04,903,1,Experiment,2023-09-12_16h01.50.141,
6,local,global,7,5,3,63,5,,,69,exp,SEUENFSHZNTHXZU,ZNSEUYLSZTLTHUH,6,Y,X,yY,yY,y,1,0.6919290729565546,y,1,0.056650179030839354,RSVPLG01,0.94,2023-09-12-22:58:04,903,1,Experiment,2023-09-12_16h01.50.141,
5,local,global,3,5,4,64,4,,,70,exp,FNYHULHEXUFTZZT,EYNNTSTFYUHZZFE,6,S,X,sS,yY,s,1,0.7981128660030663,y,1,0.2875823369831778,RSVPLG01,0.94,2023-09-12-22:58:04,903,1,Experiment,2023-09-12_16h01.50.141,
5,local,global,3,5,5,65,4,,,71,exp,YHESENXHZLZUYUL,NNTFUEUHHETLZZL,4,F,X,fF,yY,f,1,1.0921383859822527,y,1,0.8496308409958147,RSVPLG01,0.94,2023-09-12-22:58:04,903,1,Experiment,2023-09-12_16h01.50.141,
8,global,local,3,5,6,66,7,,,72,exp,HLZFYEFTYZSLNNT,NNFZFUYHXHTSYTS,6,E,X,eE,yY,e,1,0.9568922930047847,y,1,1.0520398920052685,RSVPLG01,0.94,2023-09-12-22:58:04,903,1,Experiment,2023-09-12_16h01.50.141,
12,global,global,7,5,7,67,11,,,73,exp,LYHUZLTFSHXTNNY,ZTHEFSZNLYTNYFS,4,U,X,uU,yY,u,1,0.7777934400364757,y,1,0.707906452997122,RSVPLG01,0.94,2023-09-12-22:58:04,903,1,Experiment,2023-09-12_16h01.50.141,
9,global,local,7,5,8,68,8,,,74,exp,TNUYSSNFLHZHTUZ,LZFENHZSUTXUHFT,4,Y,X,yY,yY,y,1,1.4263031590380706,y,1,0.1032118130242452,RSVPLG01,0.94,2023-09-12-22:58:04,903,1,Experiment,2023-09-12_16h01.50.141,
5,local,global,3,5,9,69,4,,,75,exp,NETYHEXNZUFFHSS,SHTLFSUHZNTFZEN,4,L,X,lL,yY,l,1,0.38863992400001734,y,1,0.0603997060097754,RSVPLG01,0.94,2023-09-12-22:58:04,903,1,Experiment,2023-09-12_16h01.50.141,
1,local,local,0,5,10,70,0,,,76,exp,LUNEFZTYZLUNHEH,YZEUSZNTEHYHTLN,5,S,absent,sS,nN,s,1,0.6948484680033289,n,1,0.15377848903881386,RSVPLG01,0.94,2023-09-12-22:58:04,903,1,Experiment,2023-09-12_16h01.50.141,
4,local,global,0,5,11,71,3,,,77,exp,YHFZULZNYSFTTSH,TZTHENLYSFYSLHN,5,E,absent,eE,nN,e,1,0.8585941899800673,n,1,0.10242713399929926,RSVPLG01,0.94,2023-09-12-22:58:04,903,1,Experiment,2023-09-12_16h01.50.141,
5,local,global,3,6,0,72,4,,,78,exp,YNNFLEHFXHYTLSS,HNFYZUSTLLNZYHF,6,U,X,uU,yY,u,1,0.4559429889777675,y,1,0.09172372100874782,RSVPLG01,0.94,2023-09-12-22:58:04,903,1,Experiment,2023-09-12_16h01.50.141,
1,local,local,0,6,1,73,0,,,79,exp,LELUNHFTUSFEZSZ,FTZHYTLSLZHUEFU,5,Y,absent,yY,nN,y,1,0.8076632429729216,n,1,0.35091917699901387,RSVPLG01,0.94,2023-09-12-22:58:04,903,1,Experiment,2023-09-12_16h01.50.141,
9,global,local,7,6,2,74,8,,,80,exp,NEYFTUHUFLNELZH,LNZHSEFYEFUXUZN,5,T,X,tT,yY,s,0,0.5736025390215218,y,1,0.2155568299931474,RSVPLG01,0.94,2023-09-12-22:58:04,903,1,Experiment,2023-09-12_16h01.50.141,
12,global,global,7,6,3,75,11,,,81,exp,UEHSNZZEYYXNFLH,FYLTUNZHYUEHLEF,4,S,X,sS,yY,e,0,2.566286348970607,y,1,0.03210307902190834,RSVPLG01,0.94,2023-09-12-22:58:04,903,1,Experiment,2023-09-12_16h01.50.141,
3,local,local,7,6,4,76,2,,,82,exp,FHNTSNHZEYESZLY,EFFUHLHZYNXNLYZ,4,U,X,uU,yY,u,1,0.4544489200343378,y,1,0.02427338599227369,RSVPLG01,0.94,2023-09-12-22:58:04,903,1,Experiment,2023-09-12_16h01.50.141,
8,global,local,3,6,5,77,7,,,83,exp,ELLUYZUSNENTHHS,TSNUHFYNXELHTUE,6,Z,X,zZ,yY,z,1,0.9310168080264702,y,1,0.8219713660073467,RSVPLG01,0.94,2023-09-12-22:58:04,903,1,Experiment,2023-09-12_16h01.50.141,
2,local,local,3,6,6,78,1,,,84,exp,EYTLEHLUYTZZFSF,STZYUNFFXZYTSEU,6,N,X,nN,yY,n,1,0.6213732570176944,y,1,0.05407729896251112,RSVPLG01,0.94,2023-09-12-22:58:04,903,1,Experiment,2023-09-12_16h01.50.141,
1,local,local,0,6,7,79,0,,,85,exp,UFUZEFTTSYSLNLY,NFFHTYETUNUYSSL,4,H,absent,hH,nN,h,1,0.9495939759653993,n,1,0.06775024504167959,RSVPLG01,0.94,2023-09-12-22:58:04,903,1,Experiment,2023-09-12_16h01.50.141,
2,local,local,3,6,8,80,1,,,86,exp,YSTLUYSTNZFFLHN,ZNHLETYXHSZSTNF,5,E,X,eE,yY,e,1,0.46006621996639296,y,1,0.03485155798261985,RSVPLG01,0.94,2023-09-12-22:58:04,903,1,Experiment,2023-09-12_16h01.50.141,
3,local,local,7,6,9,81,2,,,87,exp,SLUFTENNELHTHSU,HZEYSUTLULXHSTZ,4,Y,X,yY,yY,y,1,0.5366958749946207,y,1,0.0016818279982544482,RSVPLG01,0.94,2023-09-12-22:58:04,903,1,Experiment,2023-09-12_16h01.50.141,
4,local,global,0,6,10,82,3,,,88,exp,LFEZHUNNTYUHLFE,EUFSHYNUTELTYLN,4,S,absent,sS,nN,s,1,0.865396598004736,n,1,0.08431085699703544,RSVPLG01,0.94,2023-09-12-22:58:04,903,1,Experiment,2023-09-12_16h01.50.141,
5,local,global,3,6,11,83,4,,,89,exp,NZUHTNEXEHLZFLY,UFZNSNEYLEZYLUF,5,S,X,sS,yY,s,1,0.5275045800372027,y,1,0.02488171000732109,RSVPLG01,0.94,2023-09-12-22:58:04,903,1,Experiment,2023-09-12_16h01.50.141,
4,local,global,0,7,0,84,3,,,90,exp,FNSSYTUNELZZLFE,FNFEEHLNYUSLZUS,6,H,absent,hH,nN,h,1,1.0013268740149215,n,1,0.01819316198816523,RSVPLG01,0.94,2023-09-12-22:58:04,903,1,Experiment,2023-09-12_16h01.50.141,
2,local,local,3,7,1,85,1,,,91,exp,SZLNUFEHYLSZHUN,ZEYUETZSXSLYUNL,6,T,X,tT,yY,t,1,0.3898972530150786,y,1,0.010603650996927172,RSVPLG01,0.94,2023-09-12-22:58:04,903,1,Experiment,2023-09-12_16h01.50.141,
8,global,local,3,7,2,86,7,,,92,exp,TLYFHLNSEEZTSNH,ZLSUYTXENYZHLHN,4,F,X,fF,yY,u,0,3.6336912909755483,y,1,0.762773111986462,RSVPLG01,0.94,2023-09-12-22:58:04,903,1,Experiment,2023-09-12_16h01.50.141,
3,local,local,7,7,3,87,2,,,93,exp,SLEYZNLUUYHTHNS,LTTUFUYSNLEXYHH,5,F,X,fF,yY,z,0,2.1708133640349843,y,1,0.09707505896221846,RSVPLG01,0.94,2023-09-12-22:58:04,903,1,Experiment,2023-09-12_16h01.50.141,
12,global,global,7,7,4,88,11,,,94,exp,NYLHTHNESSUXLZZ,ELYHFELHUUNZZSN,5,T,X,tT,yY,t,1,0.5660199190024287,y,1,0.040603264002129436,RSVPLG01,0.94,2023-09-12-22:58:04,903,1,Experiment,2023-09-12_16h01.50.141,
3,local,local,7,7,5,89,2,,,95,exp,NEZLHLFSTYZESTY,NTLYUFLFENSXSTZ,5,U,X,uU,yY,u,1,0.8147853479604237,y,1,0.7513259450206533,RSVPLG01,0.94,2023-09-12-22:58:04,903,1,Experiment,2023-09-12_16h01.50.141,
9,global,local,7,7,6,90,8,,,96,exp,LFSNHLFZSUZTYUN,NYSTETFULNLXUFZ,5,H,X,hH,yY,h,1,1.712840430031065,y,1,0.02844375401036814,RSVPLG01,0.94,2023-09-12-22:58:04,903,1,Experiment,2023-09-12_16h01.50.141,
10,global,global,0,7,7,91,9,,,97,exp,UTNHUZESZSTFNLL,LUZYNELSFTNZSUE,4,H,absent,hH,nN,h,1,0.6825682800263166,n,1,0.010815741028636694,RSVPLG01,0.94,2023-09-12-22:58:04,903,1,Experiment,2023-09-12_16h01.50.141,
7,global,local,0,7,8,92,6,,,98,exp,NTSZFUULESETHLH,NHFYUUTELLNTFES,4,Z,absent,zZ,nN,z,1,0.6933878900017589,n,1,0.06283063301816583,RSVPLG01,0.94,2023-09-12-22:58:04,903,1,Experiment,2023-09-12_16h01.50.141,
11,global,global,3,7,9,93,10,,,99,exp,UTNSLZSXNYHYEET,ZNUYFEHTZEYNSTU,5,L,X,lL,yY,l,1,0.6229547969996929,y,1,0.08768127701478079,RSVPLG01,0.94,2023-09-12-22:58:04,903,1,Experiment,2023-09-12_16h01.50.141,
1,local,local,0,7,10,94,0,,,100,exp,YZLYSEEUNHLZUFH,HNZFTYZELNLHEFU,5,T,absent,tT,nN,s,0,0.7416662859614007,n,1,0.5218365350156091,RSVPLG01,0.94,2023-09-12-22:58:04,903,1,Experiment,2023-09-12_16h01.50.141,
4,local,global,0,7,11,95,3,,,101,exp,YTEHNFZNEULFZYL,ZLESFUUYENNFYTZ,4,S,absent,sS,nN,s,1,0.6798322970280424,n,1,0.05241533601656556,RSVPLG01,0.94,2023-09-12-22:58:04,903,1,Experiment,2023-09-12_16h01.50.141,
3,local,local,7,8,0,96,2,,,102,exp,LZYFLZNTYENUHHT,ZHHSLEUNLYXUYNT,4,S,X,sS,yY,s,1,0.37757757102372125,y,1,0.9637941249529831,RSVPLG01,0.94,2023-09-12-22:58:04,903,1,Experiment,2023-09-12_16h01.50.141,
9,global,local,7,8,1,97,8,,,103,exp,LUZNHTYYZLESUNE,HLZUNFEYHUELXSZ,6,T,X,tT,yY,t,1,0.6897915829904377,y,1,0.99331843102118,RSVPLG01,0.94,2023-09-12-22:58:04,903,1,Experiment,2023-09-12_16h01.50.141,
6,local,global,7,8,2,98,5,,,104,exp,ZEYHNUFSYZELXFL,HLENFTFEZYLHSYZ,6,T,X,tT,yY,t,1,0.6680465979734436,y,1,0.08850623201578856,RSVPLG01,0.94,2023-09-12-22:58:04,903,1,Experiment,2023-09-12_16h01.50.141,
3,local,local,7,8,3,99,2,,,105,exp,FULTUYELFHSNNEY,HFYZUEULSHXYESN,4,Z,X,zZ,yY,z,1,0.5185471710283309,y,1,0.8519655579584651,RSVPLG01,0.94,2023-09-12-22:58:04,903,1,Experiment,2023-09-12_16h01.50.141,
2,local,local,3,8,4,100,1,,,106,exp,FSSYYLEZHUFZUHT,EHTFYNUZXEUSZHT,6,N,X,nN,yY,n,1,0.5323657629778609,y,1,0.118681336985901,RSVPLG01,0.94,2023-09-12-22:58:04,903,1,Experiment,2023-09-12_16h01.50.141,
3,local,local,7,8,5,101,2,,,107,exp,YHYZFNZSSELTTFL,FYZEYUSHLESFXTT,6,U,X,uU,yY,u,1,0.5480439449893311,y,1,0.05146848497679457,RSVPLG01,0.94,2023-09-12-22:58:04,903,1,Experiment,2023-09-12_16h01.50.141,
3,local,local,7,8,6,102,2,,,108,exp,ELYFYTHSHTNNLSU,NHNZTULEYLXEHUS,4,Z,X,zZ,yY,z,1,0.48883870703866705,y,1,0.08027327200397849,RSVPLG01,0.94,2023-09-12-22:58:04,903,1,Experiment,2023-09-12_16h01.50.141,
4,local,global,0,8,7,103,3,,,109,exp,HYFHNEFNYSLTUUT,YTFTYZSLFHUNLNH,6,Z,absent,zZ,nN,z,1,0.9121479850145988,n,1,0.10738131799735129,RSVPLG01,0.94,2023-09-12-22:58:04,903,1,Experiment,2023-09-12_16h01.50.141,
8,global,local,3,8,8,104,7,,,110,exp,FTELUHSNNEFSZLT,ULUFNYSEXZZNSTF,6,H,X,hH,yY,u,0,1.187387197976932,y,1,0.12781092105433345,RSVPLG01,0.94,2023-09-12-22:58:04,903,1,Experiment,2023-09-12_16h01.50.141,
12,global,global,7,8,9,105,11,,,111,exp,TEYFZLULSEXZTYN,LLNHEYTUZSUYEST,4,F,X,fF,yY,h,0,1.2045006030239165,n,0,0.2479801980080083,RSVPLG01,0.94,2023-09-12-22:58:04,903,1,Experiment,2023-09-12_16h01.50.141,
7,global,local,0,8,10,106,6,,,112,exp,ZUSHYLSNTFZNYUT,HTHUNETSUSNFFYY,6,L,absent,lL,nN,e,0,1.3726036029984243,y,0,0.31483176798792556,RSVPLG01,0.94,2023-09-12-22:58:04,903,1,Experiment,2023-09-12_16h01.50.141,
5,local,global,3,8,11,107,4,,,113,exp,NHZFHEXYNTTUZUS,TYULZSTYESUHNEH,4,L,X,lL,yY,l,1,0.3237386599648744,y,1,0.018361321999691427,RSVPLG01,0.94,2023-09-12-22:58:04,903,1,Experiment,2023-09-12_16h01.50.141,
12,global,global,7,9,0,108,11,,,114,exp,NUEYENFUTLXLZZT,UULHEZFLNSNTESF,4,Y,X,yY,yY,y,1,0.544007110001985,y,1,0.04179352504434064,RSVPLG01,0.94,2023-09-12-22:58:04,903,1,Experiment,2023-09-12_16h01.50.141,
2,local,local,3,9,1,109,1,,,115,exp,SUNTZYSTZEENLLH,UNZENFLTXHHZSLS,6,F,X,fF,yY,f,1,3.0493389070034027,y,1,1.183239724021405,RSVPLG01,0.94,2023-09-12-22:58:04,903,1,Experiment,2023-09-12_16h01.50.141,
12,global,global,7,9,2,110,11,,,116,exp,HHZYFSULEZXNUNE,SFUTSNZNLHEFEUL,4,Y,X,yY,yY,y,1,1.4719742139568552,n,0,0.04882438405184075,RSVPLG01,0.94,2023-09-12-22:58:04,903,1,Experiment,2023-09-12_16h01.50.141,
4,local,global,0,9,3,111,3,,,117,exp,UZFFSYZULTEHEHS,TZUHENUEFZSFTLH,6,N,absent,nN,nN,n,1,0.6336860999581404,y,0,0.02277740801218897,RSVPLG01,0.94,2023-09-12-22:58:04,903,1,Experiment,2023-09-12_16h01.50.141,
7,global,local,0,9,4,112,6,,,118,exp,TUSTFZLNNLHHFEU,ENLELYUHFSNTHSU,6,Z,absent,zZ,nN,z,1,0.7417957109864801,n,1,0.0198308170074597,RSVPLG01,0.94,2023-09-12-22:58:04,903,1,Experiment,2023-09-12_16h01.50.141,
3,local,local,7,9,5,113,2,,,119,exp,EUNYLUZTZFYSFTE,FEFUHUNNYZSXYEZ,5,H,X,hH,yY,h,1,0.4946110569871962,y,1,0.02281385997775942,RSVPLG01,0.94,2023-09-12-22:58:04,903,1,Experiment,2023-09-12_16h01.50.141,
12,global,global,7,9,6,114,11,,,120,exp,FSHZNLLEUHSXZEF,UHYSTUZYFLEZHLF,5,N,X,nN,yY,n,1,0.5842366199940443,y,1,0.06712344504194334,RSVPLG01,0.94,2023-09-12-22:58:04,903,1,Experiment,2023-09-12_16h01.50.141,
11,global,global,3,9,7,115,10,,,121,exp,HLYFLEXZHUSYUES,HLSTEEYZLYUZHUN,4,F,X,fF,yY,t,0,0.4940967030124739,y,1,0.05712550401221961,RSVPLG01,0.94,2023-09-12-22:58:04,903,1,Experiment,2023-09-12_16h01.50.141,
10,global,global,0,9,8,116,9,,,122,exp,HYELLSTHFZFYZTN,FNYETUHYFZZLNTH,6,S,absent,sS,nN,s,1,0.6121808299794793,y,0,0.7273029350326397,RSVPLG01,0.94,2023-09-12-22:58:04,903,1,Experiment,2023-09-12_16h01.50.141,
6,local,global,7,9,9,117,5,,,123,exp,FSLZYENFESTXTHH,SETNUZEFNSZHTLL,5,U,X,uU,yY,u,1,0.5878029860323295,y,1,0.11430390999885276,RSVPLG01,0.94,2023-09-12-22:58:04,903,1,Experiment,2023-09-12_16h01.50.141,
7,global,local,0,9,10,118,6,,,124,exp,EFENSNHYUHTTYLL,FTNYZNELUTYHFLH,5,S,absent,sS,nN,z,0,0.8788874640013091,n,1,0.06546174199320376,RSVPLG01,0.94,2023-09-12-22:58:04,903,1,Experiment,2023-09-12_16h01.50.141,
9,global,local,7,9,11,119,8,,,125,exp,YYSFZLHUTELSZHU,YYHNEUZELSXHTLS,4,F,X,fF,yY,f,1,3.165219652990345,y,1,0.5693830579984933,RSVPLG01,0.94,2023-09-12-22:58:04,903,1,Experiment,2023-09-12_16h01.50.141,
10,global,global,0,10,0,120,9,,,126,exp,USZNLYZTELHNTUS,ZSLNHFSTUHEZLTU,6,Y,absent,yY,nN,y,1,0.687470028991811,n,1,0.23005888995248824,RSVPLG01,0.94,2023-09-12-22:58:04,903,1,Experiment,2023-09-12_16h01.50.141,
6,local,global,7,10,1,121,5,,,127,exp,ZTLSYZLFNUXFTNH,FZFELTUNYYZHNUT,4,E,X,eE,yY,e,1,0.8635670819785446,y,1,0.02597833500476554,RSVPLG01,0.94,2023-09-12-22:58:04,903,1,Experiment,2023-09-12_16h01.50.141,
5,local,global,3,10,2,122,4,,,128,exp,FZFTYEYZXUSTUNS,UTZYFHSUSLFTNZN,6,H,X,hH,yY,h,1,1.0380085369688459,n,0,0.16247180697973818,RSVPLG01,0.94,2023-09-12-22:58:04,903,1,Experiment,2023-09-12_16h01.50.141,
5,local,global,3,10,3,123,4,,,129,exp,LTNZYFZXHHSENEF,HZSHUENZNTLEFTL,5,U,X,uU,yY,u,1,0.3649365250021219,y,1,0.08267316804267466,RSVPLG01,0.94,2023-09-12-22:58:04,903,1,Experiment,2023-09-12_16h01.50.141,
8,global,local,3,10,4,124,7,,,130,exp,LNYEZTFFUSLUZSN,SZELYHYSXUEFUNL,6,T,X,tT,yY,t,1,2.0631387759931386,y,1,0.018974239006638527,RSVPLG01,0.94,2023-09-12-22:58:04,903,1,Experiment,2023-09-12_16h01.50.141,
7,global,local,0,10,5,125,6,,,131,exp,FULNZSSYNTYHULT,YNUFESTSNTULHLH,5,Z,absent,zZ,nN,e,0,1.1583241010084748,n,1,0.06890781898982823,RSVPLG01,0.94,2023-09-12-22:58:04,903,1,Experiment,2023-09-12_16h01.50.141,
8,global,local,3,10,6,126,7,,,132,exp,USYUENLHFHSFZYN,LZFHTNHXLSUYZNY,5,E,X,eE,yY,e,1,0.5345230810344219,y,1,0.7449129279702902,RSVPLG01,0.94,2023-09-12-22:58:04,903,1,Experiment,2023-09-12_16h01.50.141,
2,local,local,3,10,7,127,1,,,133,exp,YTLYZNHTEHSZLEU,UHZLSFSTXTEEYLY,6,F,X,fF,yY,f,1,2.9106842239852995,y,1,0.8698680689558387,RSVPLG01,0.94,2023-09-12-22:58:04,903,1,Experiment,2023-09-12_16h01.50.141,
2,local,local,3,10,8,128,1,,,134,exp,YLUENZZFNLUTYST,FYUHFNXTZLSYNUS,4,H,X,hH,yY,h,1,0.33435748802730814,y,1,0.08265719696646556,RSVPLG01,0.94,2023-09-12-22:58:04,903,1,Experiment,2023-09-12_16h01.50.141,
12,global,global,7,10,9,129,11,,,135,exp,SUTZFSYTYLXLHHF,UTYELULHNHFSSFY,4,Z,X,zZ,yY,z,1,0.5682938580284826,y,1,0.029883978015277535,RSVPLG01,0.94,2023-09-12-22:58:04,903,1,Experiment,2023-09-12_16h01.50.141,
3,local,local,7,10,10,130,2,,,136,exp,FUSNTEEHYYFSNUZ,HYFZLFESHUZXYNE,5,L,X,lL,yY,l,1,0.5954659359995276,y,1,0.07725956698413938,RSVPLG01,0.94,2023-09-12-22:58:04,903,1,Experiment,2023-09-12_16h01.50.141,
5,local,global,3,10,11,131,4,,,137,exp,ZSLFHYFXNUYZELS,UEFYTSZUSNLZEYN,5,T,X,tT,yY,t,1,0.6524559450335801,y,1,0.07872020796639845,RSVPLG01,0.94,2023-09-12-22:58:04,903,1,Experiment,2023-09-12_16h01.50.141,
1,local,local,0,11,0,132,0,,,138,exp,UFHNYNFLEZSZHSE,USELTNSUZFNLZEH,5,T,absent,tT,nN,t,1,0.6749069030047394,y,0,0.7229036160279065,RSVPLG01,0.94,2023-09-12-22:58:04,903,1,Experiment,2023-09-12_16h01.50.141,
11,global,global,3,11,1,133,10,,,139,exp,ULFTNZXULNFHSSH,UZNYSFHUFZNLELH,4,T,X,tT,yY,t,1,0.6115001349826343,y,1,0.10537570301676169,RSVPLG01,0.94,2023-09-12-22:58:04,903,1,Experiment,2023-09-12_16h01.50.141,
11,global,global,3,11,2,134,10,,,140,exp,SNLEYUXLSUYFNFH,SFUTYNZHHYFUSLL,4,E,X,eE,yY,e,1,0.43721080501563847,y,1,0.023560295987408608,RSVPLG01,0.94,2023-09-12-22:58:04,903,1,Experiment,2023-09-12_16h01.50.141,
1,local,local,0,11,3,135,0,,,141,exp,SNTHHFLENTLEUUS,NLTLUYTUEEZSZSH,6,Y,absent,yY,nN,y,1,0.7143192010116763,n,1,0.02305887802504003,RSVPLG01,0.94,2023-09-12-22:58:04,903,1,Experiment,2023-09-12_16h01.50.141,
10,global,global,0,11,4,136,9,,,142,exp,HUNHELYLYNSFTUF,TUFYZLSYNSLUHHT,5,E,absent,eE,nN,e,1,0.4827501690015197,n,1,0.04419922298984602,RSVPLG01,0.94,2023-09-12-22:58:04,903,1,Experiment,2023-09-12_16h01.50.141,
2,local,local,3,11,5,137,1,,,143,exp,LUSNELTSTYFUHHF,LLYNZTSXHFTNYUH,5,Z,X,zZ,yY,n,0,0.47884660999989137,y,1,0.6365683269686997,RSVPLG01,0.94,2023-09-12-22:58:04,903,1,Experiment,2023-09-12_16h01.50.141,
4,local,global,0,11,6,138,3,,,144,exp,YTSZNEZHUFTNFSH,TUHYZLNSUZYHSTF,6,L,absent,lL,nN,l,1,0.6904513909830712,n,1,0.09158781700534746,RSVPLG01,0.94,2023-09-12-22:58:04,903,1,Experiment,2023-09-12_16h01.50.141,
7,global,local,0,11,7,139,6,,,145,exp,UTFEHLYZNNLZUHY,HZUSNYYLFZTNTLH,4,E,absent,eE,nN,e,1,0.552426717011258,n,1,0.06272534502204508,RSVPLG01,0.94,2023-09-12-22:58:04,903,1,Experiment,2023-09-12_16h01.50.141,
11,global,global,3,11,8,140,10,,,146,exp,TFZZLFSXEESTYUY,FHSTNYSUEYEUZFT,5,L,X,lL,yY,n,0,3.1114213340333663,y,1,0.12527298397617415,RSVPLG01,0.94,2023-09-12-22:58:04,903,1,Experiment,2023-09-12_16h01.50.141,
9,global,local,7,11,9,141,8,,,147,exp,YNUZFHYUENTEZFT,FTSENLNUFYTZXYZ,6,H,X,hH,yY,n,0,1.4688937140163034,n,0,0.13074229599442333,RSVPLG01,0.94,2023-09-12-22:58:04,903,1,Experiment,2023-09-12_16h01.50.141,
10,global,global,0,11,10,142,9,,,148,exp,ENLHLNSFTEYZZST,TYLUSESYFFLEZTZ,4,H,absent,hH,nN,h,1,0.9035586649551988,n,1,0.07538163603749126,RSVPLG01,0.94,2023-09-12-22:58:04,903,1,Experiment,2023-09-12_16h01.50.141,
10,global,global,0,11,11,143,9,,,149,exp,SNYTZEHSNUYLTUH,LEHUFSLHETSNYTY,5,Z,absent,zZ,nN,z,1,2.332504779973533,n,1,0.13063988700741902,RSVPLG01,0.94,2023-09-12-22:58:04,903,1,Experiment,2023-09-12_16h01.50.141,
10,global,global,0,12,0,144,9,,,150,exp,HTZENLFTEYFYNHZ,ESFTNUHEYZFHYNT,6,L,absent,lL,nN,u,0,2.3849145229905844,n,1,0.00437531596980989,RSVPLG01,0.94,2023-09-12-22:58:04,903,1,Experiment,2023-09-12_16h01.50.141,
6,local,global,7,12,1,145,5,,,151,exp,NNHFZTLFLYEXYUT,TFENSLUFULYEYTN,5,S,X,sS,yY,s,1,0.4895242390339263,y,1,0.9329711039899848,RSVPLG01,0.94,2023-09-12-22:58:04,903,1,Experiment,2023-09-12_16h01.50.141,
7,global,local,0,12,2,146,6,,,152,exp,YSZUSZFNELENTLT,STLHFEZSNYZNYET,4,U,absent,uU,nN,u,1,0.9581029749824665,y,0,0.04852277901954949,RSVPLG01,0.94,2023-09-12-22:58:04,903,1,Experiment,2023-09-12_16h01.50.141,
7,global,local,0,12,3,147,6,,,153,exp,TUESFZNLNSLHEUT,TUHHSYETFFENUNS,6,Z,absent,zZ,nN,z,1,1.234057336987462,n,1,0.10797385801561177,RSVPLG01,0.94,2023-09-12-22:58:04,903,1,Experiment,2023-09-12_16h01.50.141,
11,global,global,3,12,4,148,10,,,154,exp,FTYULSXYESZTEHF,FFLNSEYYZELSZHT,4,U,X,uU,yY,u,1,0.46706820797408,y,1,0.04750718496507034,RSVPLG01,0.94,2023-09-12-22:58:04,903,1,Experiment,2023-09-12_16h01.50.141,
2,local,local,3,12,5,149,1,,,155,exp,SNZHUNEFZSYYHFL,YFSLTYSXEENHFZZ,5,T,X,tT,yY,t,1,0.6408370150020346,y,1,0.7604365369770676,RSVPLG01,0.94,2023-09-12-22:58:04,903,1,Experiment,2023-09-12_16h01.50.141,
9,global,local,7,12,6,150,8,,,156,exp,TSEYHTNLYEFSNLU,LLUTZYFFUNSXNES,5,H,X,hH,yY,h,1,0.4577503660111688,y,1,0.06871586001943797,RSVPLG01,0.94,2023-09-12-22:58:04,903,1,Experiment,2023-09-12_16h01.50.141,
7,global,local,0,12,7,151,6,,,157,exp,TUZESTHYZYHLFFS,STLNTYFULHZFHYZ,4,E,absent,eE,nN,e,1,0.675200181955006,n,1,0.06915869301883504,RSVPLG01,0.94,2023-09-12-22:58:04,903,1,Experiment,2023-09-12_16h01.50.141,
5,local,global,3,12,8,152,4,,,158,exp,YTTUSLEFXEFZHZU,YEUUTNEZHTSHSFZ,6,N,X,nN,yY,n,1,0.2241660850122571,y,1,0.025483418023213744,RSVPLG01,0.94,2023-09-12-22:58:04,903,1,Experiment,2023-09-12_16h01.50.141,
12,global,global,7,12,9,153,11,,,159,exp,UZELFHYULNYXNET,LHLTSYEEZNNZHUT,5,F,X,fF,yY,s,0,0.8306198560167104,n,0,0.13384860899532214,RSVPLG01,0.94,2023-09-12-22:58:04,903,1,Experiment,2023-09-12_16h01.50.141,
11,global,global,3,12,10,154,10,,,160,exp,LLHEZHXUFSYFSTZ,TYLNLTFYUSZFHUH,4,E,X,eE,yY,e,1,0.24025618500309065,y,1,0.03276306303450838,RSVPLG01,0.94,2023-09-12-22:58:04,903,1,Experiment,2023-09-12_16h01.50.141,
10,global,global,0,12,11,155,9,,,161,exp,ULSLSFZYETEHHZY,UZUYSNHESLYLTZE,6,F,absent,fF,nN,n,0,1.6991924649919383,n,1,0.530061049037613,RSVPLG01,0.94,2023-09-12-22:58:04,903,1,Experiment,2023-09-12_16h01.50.141,
12,global,global,7,13,0,156,11,,,162,exp,NHYSUYNLZTLXHTS,YHLLFSNHTETYNZS,5,U,X,uU,yY,u,1,2.2004996959585696,y,1,1.6967140950146131,RSVPLG01,0.94,2023-09-12-22:58:04,903,1,Experiment,2023-09-12_16h01.50.141,
3,local,local,7,13,1,157,2,,,163,exp,NEZHUTYYEUTLLZF,LFTSYENTYNXUZUL,4,S,X,sS,yY,s,1,0.5063201260054484,y,1,0.09775919700041413,RSVPLG01,0.94,2023-09-12-22:58:04,903,1,Experiment,2023-09-12_16h01.50.141,
9,global,local,7,13,2,158,8,,,164,exp,LEZFEHLUUHYTYZN,ELYSHNZYEUXTTZL,4,F,X,fF,yY,f,1,1.7962213639984839,y,1,0.6645505949854851,RSVPLG01,0.94,2023-09-12-22:58:04,903,1,Experiment,2023-09-12_16h01.50.141,
6,local,global,7,13,3,159,5,,,165,exp,USFHNLYFLSXUNYE,NSUZSYELEYTUFFN,4,Z,X,zZ,yY,z,1,1.289276511000935,y,1,0.14804270904278383,RSVPLG01,0.94,2023-09-12-22:58:04,903,1,Experiment,2023-09-12_16h01.50.141,
7,global,local,0,13,4,160,6,,,166,exp,HYNFLNHTYEZUEZF,ZFFNSHTTNUEZUYY,5,L,absent,lL,nN,s,0,1.2327397250337526,n,1,0.5334926819778048,RSVPLG01,0.94,2023-09-12-22:58:04,903,1,Experiment,2023-09-12_16h01.50.141,
11,global,global,3,13,5,161,10,,,167,exp,ESHFYZLXNHULZFS,LHZHTZSFLUFUSNE,5,Y,X,yY,yY,y,1,1.064579491969198,n,0,1.0266726730042137,RSVPLG01,0.94,2023-09-12-22:58:04,903,1,Experiment,2023-09-12_16h01.50.141,
2,local,local,3,13,6,162,1,,,168,exp,SFUZFELSYULNZTN,LSSZUHUNXTNZFLF,6,H,X,hH,yY,h,1,0.878926811972633,y,1,0.1621501640183851,RSVPLG01,0.94,2023-09-12-22:58:04,903,1,Experiment,2023-09-12_16h01.50.141,
6,local,global,7,13,7,163,5,,,169,exp,LZHNYELZHNUXFTT,LUFTSENZHHZLFNT,5,S,X,sS,yY,s,1,0.6287581800133921,y,1,0.053076228010468185,RSVPLG01,0.94,2023-09-12-22:58:04,903,1,Experiment,2023-09-12_16h01.50.141,
7,global,local,0,13,8,164,6,,,170,exp,UHYNETSNUYTLZHZ,LZYTFZNUTSLNYHH,5,E,absent,eE,nN,f,0,2.627092493989039,y,0,1.0648630330106243,RSVPLG01,0.94,2023-09-12-22:58:04,903,1,Experiment,2023-09-12_16h01.50.141,
12,global,global,7,13,9,165,11,,,171,exp,TFZEYSZLFLXSHTH,NZTUZYYNTSSHFFL,4,E,X,eE,yY,y,0,1.4032987710088491,y,1,0.8267849500407465,RSVPLG01,0.94,2023-09-12-22:58:04,903,1,Experiment,2023-09-12_16h01.50.141,
12,global,global,7,13,10,166,11,,,172,exp,ZFLNHHYFZTXUETU,FEYSYLEUHFUTZLT,4,N,X,nN,yY,n,1,0.9503676259773783,y,1,0.23207083699526265,RSVPLG01,0.94,2023-09-12-22:58:04,903,1,Experiment,2023-09-12_16h01.50.141,
9,global,local,7,13,11,167,8,,,173,exp,YYZTEHEUUSLLNSN,LZSFULSUNEXYZEN,4,T,X,tT,yY,y,0,1.2283152849995531,y,1,0.11129268503282219,RSVPLG01,0.94,2023-09-12-22:58:04,903,1,Experiment,2023-09-12_16h01.50.141,
10,global,global,0,14,0,168,9,,,174,exp,TYYUEZSFZTFUSNN,HSUZLUNYYFTHTNZ,5,E,absent,eE,nN,u,0,0.7127541010268033,n,1,0.052612131054047495,RSVPLG01,0.94,2023-09-12-22:58:04,903,1,Experiment,2023-09-12_16h01.50.141,
10,global,global,0,14,1,169,9,,,175,exp,HSNELHZZNSYUYLU,YULFZSTZYSNHTLU,4,E,absent,eE,nN,f,0,1.0326358220190741,n,1,0.8647891670116223,RSVPLG01,0.94,2023-09-12-22:58:04,903,1,Experiment,2023-09-12_16h01.50.141,
8,global,local,3,14,2,170,7,,,176,exp,SNEHTZSYTFYUFUE,FTESULNTXSYUHEH,6,Z,X,zZ,yY,y,0,0.9366553110303357,n,0,0.27374039898859337,RSVPLG01,0.94,2023-09-12-22:58:04,903,1,Experiment,2023-09-12_16h01.50.141,
6,local,global,7,14,3,171,5,,,177,exp,HSNSEYZLUTNTXUH,HLLTHFETNNUSUSZ,6,F,X,fF,yY,f,1,0.7804960639914498,y,1,0.549306301982142,RSVPLG01,0.94,2023-09-12-22:58:04,903,1,Experiment,2023-09-12_16h01.50.141,
11,global,global,3,14,4,172,10,,,178,exp,FLUYLZXTSTNNFHZ,TFLESHHULNFTNZZ,4,Y,X,yY,yY,y,1,0.050639685010537505,y,1,0.17422960099065676,RSVPLG01,0.94,2023-09-12-22:58:04,903,1,Experiment,2023-09-12_16h01.50.141,
12,global,global,7,14,5,173,11,,,179,exp,LNZYSUHTNSXTFHZ,LTSEFUHNULTSHZZ,4,Y,X,yY,yY,y,1,0.3297310890047811,y,1,0.07242186699295416,RSVPLG01,0.94,2023-09-12-22:58:04,903,1,Experiment,2023-09-12_16h01.50.141,
2,local,local,3,14,6,174,1,,,180,exp,HEHUSTNZTEYFFYN,HENTLYFXTUZEYHZ,5,L,X,lL,yY,y,0,1.579090751009062,y,1,0.10173247900092974,RSVPLG01,0.94,2023-09-12-22:58:04,903,1,Experiment,2023-09-12_16h01.50.141,
3,local,local,7,14,7,175,2,,,181,exp,SNTUSETLLYYNEZZ,ZLLFESYYHEXZSTH,4,F,X,fF,yY,l,0,0.6363586789811961,y,1,0.3297688589664176,RSVPLG01,0.94,2023-09-12-22:58:04,903,1,Experiment,2023-09-12_16h01.50.141,
2,local,local,3,14,8,176,1,,,182,exp,YTZHUFSHNNUZYSE,NSTUZLZNXEEYYHT,6,L,X,lL,yY,l,1,0.43779779103351757,y,1,0.14564220502506942,RSVPLG01,0.94,2023-09-12-22:58:04,903,1,Experiment,2023-09-12_16h01.50.141,
12,global,global,7,14,9,177,11,,,183,exp,YEUTLTNUSSFXFHN,FHYUZFTTUNSEHSN,5,L,X,lL,yY,l,1,0.4750523639959283,y,1,0.06572346098255366,RSVPLG01,0.94,2023-09-12-22:58:04,903,1,Experiment,2023-09-12_16h01.50.141,
8,global,local,3,14,10,178,7,,,184,exp,UHFTNHZEFYESTYS,ZTSFLYHXSEEUUTF,5,N,X,nN,yY,n,1,0.5028257999802008,y,1,0.07332007004879415,RSVPLG01,0.94,2023-09-12-22:58:04,903,1,Experiment,2023-09-12_16h01.50.141,
2,local,local,3,14,11,179,1,,,185,exp,TFYSELNZYNHLHFE,LLEUETXFZZHNYNT,4,U,X,uU,yY,e,0,0.46748076303629205,y,1,0.06017004500608891,RSVPLG01,0.94,2023-09-12-22:58:04,903,1,Experiment,2023-09-12_16h01.50.141,
10,global,global,0,15,0,180,9,,,186,exp,ZYLZYEFNSSNLFHT,FZNLTUSFTLHNHZY,6,E,absent,eE,nN,e,1,0.7516139880171977,y,0,0.04852211300749332,RSVPLG01,0.94,2023-09-12-22:58:04,903,1,Experiment,2023-09-12_16h01.50.141,
2,local,local,3,15,1,181,1,,,187,exp,HYETUZYLNFLUFEZ,LHZSNUXYYLHFZFE,4,S,X,sS,yY,y,0,0.3737648359965533,y,1,0.815704299020581,RSVPLG01,0.94,2023-09-12-22:58:04,903,1,Experiment,2023-09-12_16h01.50.141,
12,global,global,7,15,2,182,11,,,188,exp,LUFHENTEYUXZLNT,ZFTSYFYNUNELLZE,4,H,X,hH,yY,s,0,0.5514857919770293,y,1,0.09722420596517622,RSVPLG01,0.94,2023-09-12-22:58:04,903,1,Experiment,2023-09-12_16h01.50.141,
8,global,local,3,15,3,183,7,,,189,exp,HYETLZUENFHYTFZ,UEHZSEYXTUNNTHF,5,L,X,lL,yY,s,0,0.5250549949705601,y,1,1.2915221370058134,RSVPLG01,0.94,2023-09-12-22:58:04,903,1,Experiment,2023-09-12_16h01.50.141,
8,global,local,3,15,4,184,7,,,190,exp,HLNEZFSZSLUYNHE,UZEHSTNZXSYELUL,6,F,X,fF,yY,z,0,0.9403428909718059,y,1,0.0985620699939318,RSVPLG01,0.94,2023-09-12-22:58:04,903,1,Experiment,2023-09-12_16h01.50.141,
3,local,local,7,15,5,185,2,,,191,exp,SUFZTUSLLEYYENF,NSFHULTNYYXSTUE,4,H,X,hH,yY,h,1,0.6844914749963209,y,1,0.04227669700048864,RSVPLG01,0.94,2023-09-12-22:58:04,903,1,Experiment,2023-09-12_16h01.50.141,
10,global,global,0,15,6,186,9,,,192,exp,HUZHYZFTTLEEFSL,HZETNHFZLFEUUTL,5,Y,absent,yY,nN,y,1,0.4510229890001938,n,1,0.056216148019302636,RSVPLG01,0.94,2023-09-12-22:58:04,903,1,Experiment,2023-09-12_16h01.50.141,
9,global,local,7,15,7,187,8,,,193,exp,LHTUESFTLZSFEHZ,EFSNSLTHZFXHTEL,4,U,X,uU,yY,u,1,0.4052846329868771,y,1,0.060263859981205314,RSVPLG01,0.94,2023-09-12-22:58:04,903,1,Experiment,2023-09-12_16h01.50.141,
8,global,local,3,15,8,188,7,,,194,exp,SFLSHYLUUZNYNTZ,NYLFEUFXSZZUSTN,5,H,X,hH,yY,e,0,1.3310255369869992,y,1,0.7310560109908693,RSVPLG01,0.94,2023-09-12-22:58:04,903,1,Experiment,2023-09-12_16h01.50.141,
6,local,global,7,15,9,189,5,,,195,exp,ZUZYTUTESFXLHES,ZTSNHUEZEFTUHLS,4,N,X,nN,yY,n,1,0.8342676869942807,y,1,0.07418477901956066,RSVPLG01,0.94,2023-09-12-22:58:04,903,1,Experiment,2023-09-12_16h01.50.141,
2,local,local,3,15,10,190,1,,,196,exp,ZELZFSFNYUTULNT,FNLYYHTLXEZEFZT,6,H,X,hH,yY,y,0,0.8413711559842341,y,1,0.06463563401484862,RSVPLG01,0.94,2023-09-12-22:58:04,903,1,Experiment,2023-09-12_16h01.50.141,
1,local,local,0,15,11,191,0,,,197,exp,HNLTSELFNUSYTHU,HSYNSZUNTLFLFHU,6,Z,absent,zZ,nN,z,1,0.6685891220113263,n,1,0.09206732601160184,RSVPLG01,0.94,2023-09-12-22:58:04,903,1,Experiment,2023-09-12_16h01.50.141,
11,global,global,3,16,0,192,10,,,198,exp,EUNZSFHXEZLUFTN,LHLTYHUUZNZNEEF,5,S,X,sS,yY,z,0,0.5609028339968063,n,0,0.08553691196721047,RSVPLG01,0.94,2023-09-12-22:58:04,903,1,Experiment,2023-09-12_16h01.50.141,
3,local,local,7,16,1,193,2,,,199,exp,UHFYTFSEZHSLULE,FZUNEHLUTEXFLTS,4,N,X,nN,yY,y,0,1.4871162989875302,y,1,0.7389784319675528,RSVPLG01,0.94,2023-09-12-22:58:04,903,1,Experiment,2023-09-12_16h01.50.141,
1,local,local,0,16,2,194,0,,,200,exp,EZNSHTHENTYYLZF,HNLULZEZTEHNFTF,4,U,absent,uU,nN,u,1,0.528985969023779,n,1,0.07512995897559449,RSVPLG01,0.94,2023-09-12-22:58:04,903,1,Experiment,2023-09-12_16h01.50.141,
5,local,global,3,16,3,195,4,,,201,exp,THZFNEUTXYNFZUH,HLTZYSZNHFUTYFN,6,S,X,sS,yY,s,1,0.5176381379715167,y,1,0.057733216031920165,RSVPLG01,0.94,2023-09-12-22:58:04,903,1,Experiment,2023-09-12_16h01.50.141,
10,global,global,0,16,4,196,9,,,202,exp,SUHLFLZYZETTYHU,LHLUNSEZSHTEYTU,5,F,absent,fF,nN,f,1,1.5557716939947568,y,0,0.30308706196956336,RSVPLG01,0.94,2023-09-12-22:58:04,903,1,Experiment,2023-09-12_16h01.50.141,
10,global,global,0,16,5,197,9,,,203,exp,LUSEFTUSNZZNTHE,NSUZYHUESLZETHN,5,F,absent,fF,nN,f,1,1.7972457679570653,n,1,0.2737458099727519,RSVPLG01,0.94,2023-09-12-22:58:04,903,1,Experiment,2023-09-12_16h01.50.141,
4,local,global,0,16,6,198,3,,,204,exp,LSYEFNZLYEZTSNU,ELSTHZNUSZYTUYL,5,H,absent,hH,nN,h,1,1.0921402089879848,n,1,0.8199456940055825,RSVPLG01,0.94,2023-09-12-22:58:04,903,1,Experiment,2023-09-12_16h01.50.141,
3,local,local,7,16,7,199,2,,,205,exp,YTTSLHHEFNESNYZ,SNTFUYNTSFHXZHZ,5,U,X,uU,yY,u,1,0.5181114500155672,y,1,0.08426613901974633,RSVPLG01,0.94,2023-09-12-22:58:04,903,1,Experiment,2023-09-12_16h01.50.141,
5,local,global,3,16,8,200,4,,,206,exp,EHNFLHXYLTZTYEZ,HESUEYTLSYTZHZN,4,U,X,uU,yY,u,1,1.0373283000080846,n,0,0.08046905096853152,RSVPLG01,0.94,2023-09-12-22:58:04,903,1,Experiment,2023-09-12_16h01.50.141,
4,local,global,0,16,9,201,3,,,207,exp,EZYUHLSHSZFYNNF,ZFUNYTUNEEYSHSF,6,T,absent,tT,nN,t,1,0.9867820030194707,n,1,0.12483664700994268,RSVPLG01,0.94,2023-09-12-22:58:04,903,1,Experiment,2023-09-12_16h01.50.141,
7,global,local,0,16,10,202,6,,,208,exp,FYNTZSNZEULTUFL,ZNUNYHLETFYLTEU,6,S,absent,sS,nN,z,0,0.6661952950526029,n,1,0.05788663600105792,RSVPLG01,0.94,2023-09-12-22:58:04,903,1,Experiment,2023-09-12_16h01.50.141,
6,local,global,7,16,11,203,5,,,209,exp,ZYEHFZSLLTXNNSY,NSFUFYNLTZEZYSE,4,U,X,uU,yY,u,1,0.5089517050073482,y,1,0.05184055201243609,RSVPLG01,0.94,2023-09-12-22:58:04,903,1,Experiment,2023-09-12_16h01.50.141,
4,local,global,0,17,0,204,3,,,210,exp,HELZSNYZHTTNEFL,LLTNUZYNHTFEFYZ,5,U,absent,uU,nN,u,1,0.5153731650207192,n,1,0.060385693970602006,RSVPLG01,0.94,2023-09-12-22:58:04,903,1,Experiment,2023-09-12_16h01.50.141,
11,global,global,3,17,1,205,10,,,211,exp,EUNULTYXNSZHTYS,NZTEFNUEZHYYSTH,5,L,X,lL,yY,l,1,0.40220286999829113,y,1,0.05828582704998553,RSVPLG01,0.94,2023-09-12-22:58:04,903,1,Experiment,2023-09-12_16h01.50.141,
5,local,global,3,17,2,206,4,,,212,exp,UNTLZHXENTYEFHU,TEUSYHNFNTHYZEU,4,S,X,sS,yY,s,1,0.45082547701895237,y,1,0.03411248401971534,RSVPLG01,0.94,2023-09-12-22:58:04,903,1,Experiment,2023-09-12_16h01.50.141,
2,local,local,3,17,3,207,1,,,213,exp,UNSLEUTFHSETHZN,NUFYHZXZTESSFTH,4,Y,X,yY,yY,y,1,0.21821845101658255,y,1,0.048988189024385065,RSVPLG01,0.94,2023-09-12-22:58:04,903,1,Experiment,2023-09-12_16h01.50.141,
5,local,global,3,17,4,208,4,,,214,exp,TEFUYSXHFHYZLEL,LSLNEYSZHTZTFHY,4,N,X,nN,yY,n,1,0.4754999239812605,y,1,0.1074292230186984,RSVPLG01,0.94,2023-09-12-22:58:04,903,1,Experiment,2023-09-12_16h01.50.141,
7,global,local,0,17,5,209,6,,,215,exp,YYNTFLLUHZNHUTE,NEZHSNETLZYTLUU,5,F,absent,fF,nN,f,1,1.4418014850234613,y,0,0.5315276580513455,RSVPLG01,0.94,2023-09-12-22:58:04,903,1,Experiment,2023-09-12_16h01.50.141,
7,global,local,0,17,6,210,6,,,216,exp,EFUFZTNSNLUHLSE,LNTUYSLFETSFEHU,5,Z,absent,zZ,nN,z,1,0.6752712030429393,n,1,0.037594315013848245,RSVPLG01,0.94,2023-09-12-22:58:04,903,1,Experiment,2023-09-12_16h01.50.141,
7,global,local,0,17,7,211,6,,,217,exp,ZYNLTUZFNLHYSTS,LYTSHEFLZNZTFHY,6,U,absent,uU,nN,u,1,0.681223212974146,n,1,0.025728644977789372,RSVPLG01,0.94,2023-09-12-22:58:04,903,1,Experiment,2023-09-12_16h01.50.141,
8,global,local,3,17,8,212,7,,,218,exp,TYNZHUELSEYNSTH,UUTFELXYHTHNYSL,4,Z,X,zZ,yY,z,1,0.4362398170051165,y,1,0.07215144502697513,RSVPLG01,0.94,2023-09-12-22:58:04,903,1,Experiment,2023-09-12_16h01.50.141,
6,local,global,7,17,9,213,5,,,219,exp,ZNNUZLHFTTFEXSH,THESNYUENHZTZFS,6,Y,X,yY,yY,y,1,0.809058201033622,n,0,0.07152652298100293,RSVPLG01,0.94,2023-09-12-22:58:04,903,1,Experiment,2023-09-12_16h01.50.141,
7,global,local,0,17,10,214,6,,,220,exp,UZYUFNTHTEEYLHL,YYLUZSFUELHEFTZ,6,N,absent,nN,nN,n,1,1.0122883129515685,n,1,0.045902479032520205,RSVPLG01,0.94,2023-09-12-22:58:04,903,1,Experiment,2023-09-12_16h01.50.141,
6,local,global,7,17,11,215,5,,,221,exp,HLUNFLYSZFXUZYS,TLZEZHSUYLFHSTU,4,E,X,eE,yY,e,1,0.6652008420205675,y,1,0.039682298025581986,RSVPLG01,0.94,2023-09-12-22:58:04,903,1,Experiment,2023-09-12_16h01.50.141,
8,global,local,3,18,0,216,7,,,222,exp,ZNSTLEUUHSZFHNF,FFLYNSXUSHEUEZZ,4,T,X,tT,yY,y,0,0.606108624022454,y,1,0.014021242968738079,RSVPLG01,0.94,2023-09-12-22:58:04,903,1,Experiment,2023-09-12_16h01.50.141,
5,local,global,3,18,1,217,4,,,223,exp,YLZUETXLFZSESNY,EZTHZLNELNFYSFS,4,H,X,hH,yY,h,1,0.42555450298823416,y,1,0.05426624999381602,RSVPLG01,0.94,2023-09-12-22:58:04,903,1,Experiment,2023-09-12_16h01.50.141,
8,global,local,3,18,2,218,7,,,224,exp,USTHFZEUSTYLFYE,ZEUNZFXETTUYLFS,4,H,X,hH,yY,h,1,0.7379953229683451,y,1,0.04636109201237559,RSVPLG01,0.94,2023-09-12-22:58:04,903,1,Experiment,2023-09-12_16h01.50.141,
6,local,global,7,18,3,219,5,,,225,exp,TLYHEHSTZLFXNNF,YNLHULFYZSHNSZT,5,U,X,uU,yY,u,1,0.5699338220292702,y,1,0.05067990400129929,RSVPLG01,0.94,2023-09-12-22:58:04,903,1,Experiment,2023-09-12_16h01.50.141,
4,local,global,0,18,4,220,3,,,226,exp,EFZULEZFTYYSSTH,ZSZYNFTEETFUHUS,5,N,absent,nN,nN,n,1,0.6447433569701388,n,1,0.06557452102424577,RSVPLG01,0.94,2023-09-12-22:58:04,903,1,Experiment,2023-09-12_16h01.50.141,
4,local,global,0,18,5,221,3,,,227,exp,HYZTHSUNEFNZUSE,YNULZYHHZEFUSNE,4,L,absent,lL,nN,l,1,0.7161261969595216,n,1,0.25275275198509917,RSVPLG01,0.94,2023-09-12-22:58:04,903,1,Experiment,2023-09-12_16h01.50.141,
1,local,local,0,18,6,222,0,,,228,exp,ZHEULNUSZLTYEHY,EELUYFZHTLTYSSU,6,F,absent,fF,nN,f,1,0.8886372119886801,n,1,0.5448773130192421,RSVPLG01,0.94,2023-09-12-22:58:04,903,1,Experiment,2023-09-12_16h01.50.141,
9,global,local,7,18,7,223,8,,,229,exp,FHUTYNNZUZSYLSL,LZFESFUZLHXYNYH,4,T,X,tT,yY,t,1,0.6732835510047153,y,1,0.0036316890036687255,RSVPLG01,0.94,2023-09-12-22:58:04,903,1,Experiment,2023-09-12_16h01.50.141,
9,global,local,7,18,8,224,8,,,230,exp,LSEUFNLHZEUHZSY,SYLUETUHZFZHXYE,6,N,X,nN,yY,n,1,0.6674909349530935,y,1,0.06829769897740334,RSVPLG01,0.94,2023-09-12-22:58:04,903,1,Experiment,2023-09-12_16h01.50.141,
5,local,global,3,18,9,225,4,,,231,exp,TEUZYHSXNTHZESN,SNUZFLHSENUHETL,5,F,X,fF,yY,f,1,3.0348331490531564,y,1,0.6517200859962031,RSVPLG01,0.94,2023-09-12-22:58:04,903,1,Experiment,2023-09-12_16h01.50.141,
7,global,local,0,18,10,226,6,,,232,exp,FNHZTSEULULZNEF,FUSZYEHNUFLLZNE,5,T,absent,tT,nN,y,0,0.7098888959735632,n,1,0.10061676101759076,RSVPLG01,0.94,2023-09-12-22:58:04,903,1,Experiment,2023-09-12_16h01.50.141,
9,global,local,7,18,11,227,8,,,233,exp,FTZYNLHUFTNUHSS,ZNUESFUTSLXHTFZ,4,Y,X,yY,yY,y,1,0.33541162399342284,y,1,0.0386454570107162,RSVPLG01,0.94,2023-09-12-22:58:04,903,1,Experiment,2023-09-12_16h01.50.141,
9,global,local,7,19,0,228,8,,,234,exp,YEFUHTSHYEZTLSF,FZTNELETHSXHZYL,4,U,X,uU,yY,n,0,0.566264325985685,y,1,0.09529403899796307,RSVPLG01,0.94,2023-09-12-22:58:04,903,1,Experiment,2023-09-12_16h01.50.141,
4,local,global,0,19,1,229,3,,,235,exp,LFNUNYSHFEESZLU,NUSZFTELZHLUSFH,6,T,absent,tT,nN,t,1,1.1598383340169676,n,1,0.08855145500274375,RSVPLG01,0.94,2023-09-12-22:58:04,903,1,Experiment,2023-09-12_16h01.50.141,
11,global,global,3,19,2,230,10,,,236,exp,UUTLZHFXYLENYHT,HYFUSLTEYNTLENF,5,Z,X,zZ,yY,z,1,0.4143718059640378,y,1,0.06522251100977883,RSVPLG01,0.94,2023-09-12-22:58:04,903,1,Experiment,2023-09-12_16h01.50.141,
10,global,global,0,19,3,231,9,,,237,exp,YLESUFYLTZUEFZH,ZLUNZUHYEELHFFT,4,S,absent,sS,nN,z,0,0.734111178026069,n,1,0.8517270620213822,RSVPLG01,0.94,2023-09-12-22:58:04,903,1,Experiment,2023-09-12_16h01.50.141,
3,local,local,7,19,4,232,2,,,238,exp,NYYFLNTHSLSHTEE,LSLZYUENHEXYUNS,4,Z,X,zZ,yY,z,1,1.2762192790396512,y,1,0.16499010298866779,RSVPLG01,0.94,2023-09-12-22:58:04,903,1,Experiment,2023-09-12_16h01.50.141,
1,local,local,0,19,5,233,0,,,239,exp,EZYTNUUSYSFHEHZ,FUHTLTYZFEUEYSS,5,L,absent,lL,nN,l,1,1.1627257069922052,n,1,0.1833566990098916,RSVPLG01,0.94,2023-09-12-22:58:04,903,1,Experiment,2023-09-12_16h01.50.141,
6,local,global,7,19,6,234,5,,,240,exp,TSEEHZFNUSFTXHY,ENTTULHNSYUFSHF,6,L,X,lL,yY,l,1,0.5681398930028081,y,1,0.0899798659957014,RSVPLG01,0.94,2023-09-12-22:58:04,903,1,Experiment,2023-09-12_16h01.50.141,
11,global,global,3,19,7,235,10,,,241,exp,ENNLTZXUHSZSHEU,TNSYHFZZEUNTEUH,4,L,X,lL,yY,y,0,0.5921636300045066,y,1,0.27055748202838004,RSVPLG01,0.94,2023-09-12-22:58:04,903,1,Experiment,2023-09-12_16h01.50.141,
1,local,local,0,19,8,236,0,,,242,exp,UYTZFSHYETZSULH,ULLHNZTYHUTSSZE,5,N,absent,nN,nN,n,1,0.5505495489924215,y,0,0.11648423899896443,RSVPLG01,0.94,2023-09-12-22:58:04,903,1,Experiment,2023-09-12_16h01.50.141,
9,global,local,7,19,9,237,8,,,243,exp,FUZSSTYNLUHYLHZ,SHFSYELUZFUNXNL,6,T,X,tT,yY,e,0,0.8177204090170562,y,1,0.3072448779712431,RSVPLG01,0.94,2023-09-12-22:58:04,903,1,Experiment,2023-09-12_16h01.50.141,
2,local,local,3,19,10,238,1,,,244,exp,YFSHTSENFLZZTNE,TLFUNSXFYSETZNY,4,U,X,uU,yY,u,1,0.432416335970629,y,1,0.15646763000404462,RSVPLG01,0.94,2023-09-12-22:58:04,903,1,Experiment,2023-09-12_16h01.50.141,
4,local,global,0,19,11,239,3,,,245,exp,THSFUSLUNTHYZZL,ZLSEUYLTNUHHYSN,4,E,absent,eE,nN,e,1,0.7277044549700804,n,1,0.2768926420249045,RSVPLG01,0.94,2023-09-12-22:58:04,903,1,Experiment,2023-09-12_16h01.50.141,
