row,t1_level,t2_level,t2_lag,.thisRepN,.thisTrialN,.thisN,.thisIndex,thisRow.t,notes,trial,trial_type,global_letters,local_letters,t1_pos,t1,t2,t1_corr,t2_corr,t1_resp,t1_acc,t1_rt,t2_resp,t2_acc,t2_rt,exp,ver,mod-utc,sub,sess,blocktyp,datetime
9,global,local,7,0,0,0,8,,,1,warmup,ZHZUYEYFLSLFTUH,HZFZSNLSTYUHXFU,6,E,X,eE,yY,e,1,0.8165712,n,0,0.84208,RSVPLG01,0.94,2023-09-12-22:25:04,11900,1,Experiment,2023-09-12_15h40.50.216
11,global,global,3,0,1,1,10,,,2,warmup,UZUFTSXLHNEHNSE,HNUYNTSLZZHLEUE,4,F,X,fF,yY,z,0,1.0786169,n,0,0.5075428,RSVPLG01,0.94,2023-09-12-22:25:04,11900,1,Experiment,2023-09-12_15h40.50.216
3,local,local,7,0,2,2,2,,,3,warmup,ELZLNSFYZTUFTEY,ZFSFHETEZYYXUTU,5,H,X,hH,yY,h,1,0.8433823,n,0,0.058436,RSVPLG01,0.94,2023-09-12-22:25:04,11900,1,Experiment,2023-09-12_15h40.50.216
4,local,global,0,0,3,3,3,,,4,warmup,YTEYNLSZFTFHLSH,SHZLUFTSEZTEFLH,5,U,absent,uU,nN,u,1,0.9417292,n,1,0.0736243,RSVPLG01,0.94,2023-09-12-22:25:04,11900,1,Experiment,2023-09-12_15h40.50.216
12,global,global,7,0,4,4,11,,,5,warmup,HEYNFLNTYSEUXFS,SYHTUZTEEFNYSUF,6,L,X,lL,yY,z,0,0.7857316,n,0,0.097087,RSVPLG01,0.94,2023-09-12-22:25:04,11900,1,Experiment,2023-09-12_15h40.50.216
5,local,global,3,0,0,0,4,,,6,exp,FZLZTHFXEESNUSL,HUEHYFFZSLLEUNS,5,Y,X,yY,yY,y,1,0.850319,n,0,0.0609528,RSVPLG01,0.94,2023-09-12-22:25:04,11900,1,Experiment,2023-09-12_15h40.50.216
5,local,global,3,0,1,1,4,,,7,exp,HFETSYUXTEUZZHY,FEZELUHYFNZTTYH,5,L,X,lL,yY,e,0,0.5835511,y,1,2.0431001,RSVPLG01,0.94,2023-09-12-22:25:04,11900,1,Experiment,2023-09-12_15h40.50.216
7,global,local,0,0,2,2,6,,,8,exp,NLYLESTUSNZYTFZ,TFUNHZSZNFUSYLT,5,E,absent,eE,nN,h,0,2.2287747,n,1,0.1873428,RSVPLG01,0.94,2023-09-12-22:25:04,11900,1,Experiment,2023-09-12_15h40.50.216
8,global,local,3,0,3,3,7,,,9,exp,UNZYEYFFSTHTSHZ,FYZZLTUXSSUHTFH,5,E,X,eE,yY,s,0,0.1251729,n,0,0.7761824,RSVPLG01,0.94,2023-09-12-22:25:04,11900,1,Experiment,2023-09-12_15h40.50.216
10,global,global,0,0,4,4,9,,,10,exp,UUTTLYNFSYESNEF,ZENFHSTEYZYUUNF,5,L,absent,lL,nN,s,0,0.3630341,n,1,0.3625312,RSVPLG01,0.94,2023-09-12-22:25:04,11900,1,Experiment,2023-09-12_15h40.50.216
9,global,local,7,0,5,5,8,,,11,exp,YNNTUHLEULEZZYF,ETLZNSZUTFYLXFY,6,H,X,hH,yY,s,0,0.3349243,n,0,0.4144145,RSVPLG01,0.94,2023-09-12-22:25:04,11900,1,Experiment,2023-09-12_15h40.50.216
11,global,global,3,0,6,6,10,,,12,exp,HLSYFZXNEFZSLHE,FELTUHSLZNNEHSF,4,Y,X,yY,yY,t,0,0.9005367,n,0,0.0582396,RSVPLG01,0.94,2023-09-12-22:25:04,11900,1,Experiment,2023-09-12_15h40.50.216
2,local,local,3,0,7,7,1,,,13,exp,FNUSELTUNHHYYFL,TNLZETXUNYUHYHL,4,Z,X,zZ,yY,z,1,0.331995,n,0,0.1387049,RSVPLG01,0.94,2023-09-12-22:25:04,11900,1,Experiment,2023-09-12_15h40.50.216
11,global,global,3,0,8,8,10,,,14,exp,LZHZYUHXTSNLFTN,SNULETZHZLNTFHU,5,Y,X,yY,yY,y,1,0.1492537,y,1,0.875679,RSVPLG01,0.94,2023-09-12-22:25:04,11900,1,Experiment,2023-09-12_15h40.50.216
11,global,global,3,0,9,9,10,,,15,exp,UUNFHFLXLZNETSS,FENZYELLFUUZSTT,5,H,X,hH,yY,f,0,0.8191378,n,0,0.1221073,RSVPLG01,0.94,2023-09-12-22:25:04,11900,1,Experiment,2023-09-12_15h40.50.216
12,global,global,7,0,10,10,11,,,16,exp,NYUSZSUNHFTXEET,FYNTLHYNHFUUSST,5,Z,X,zZ,yY,z,1,0.8782249,n,0,0.4434532,RSVPLG01,0.94,2023-09-12-22:25:04,11900,1,Experiment,2023-09-12_15h40.50.216
8,global,local,3,0,11,11,7,,,17,exp,TYLNSHZTHLZSFEE,HTLUTYXSSHEFYLZ,4,N,X,nN,yY,y,0,0.4441031,n,0,0.2173906,RSVPLG01,0.94,2023-09-12-22:25:04,11900,1,Experiment,2023-09-12_15h40.50.216
3,local,local,7,1,0,12,2,,,18,exp,HHSTLFTUYZYSZNF,FTHSEZZHYYNXFUU,5,E,X,eE,yY,e,1,0.373984,n,0,0.3016372,RSVPLG01,0.94,2023-09-12-22:25:04,11900,1,Experiment,2023-09-12_15h40.50.216
7,global,local,0,1,1,13,6,,,19,exp,ZLYFNULHHSNSZYU,YHUEZSNTZTLNYLH,4,F,absent,fF,nN,f,1,0.3618539,n,1,0.3612207,RSVPLG01,0.94,2023-09-12-22:25:04,11900,1,Experiment,2023-09-12_15h40.50.216
6,local,global,7,1,2,14,5,,,20,exp,ZFEFLTSZHNYXSNH,ENSFUZHZTHSNYFE,5,U,X,uU,yY,u,1,0.7865501,y,1,0.045208,RSVPLG01,0.94,2023-09-12-22:25:04,11900,1,Experiment,2023-09-12_15h40.50.216
5,local,global,3,1,3,15,4,,,21,exp,HZUSEHXFYTZYNNF,ZFNLNEHTHYYUFUZ,4,L,X,lL,yY,y,0,1.5692404,y,1,0.7136489,RSVPLG01,0.94,2023-09-12-22:25:04,11900,1,Experiment,2023-09-12_15h40.50.216
8,global,local,3,1,4,16,7,,,22,exp,ESLETHYNZUZYLTU,LESNYFTEXNULZYU,6,H,X,hH,yY,y,0,1.3131291,y,1,0.3131091,RSVPLG01,0.94,2023-09-12-22:25:04,11900,1,Experiment,2023-09-12_15h40.50.216
2,local,local,3,1,5,17,1,,,23,exp,TZEYUZFHYSSFNET,SSFYLHTXZEFZHNN,5,L,X,lL,yY,l,1,0.9479691,n,0,0.4585935,RSVPLG01,0.94,2023-09-12-22:25:04,11900,1,Experiment,2023-09-12_15h40.50.216
11,global,global,3,1,6,18,10,,,24,exp,ZTESYHYNXNFUSEU,TNYZFLSZTEFNUES,6,H,X,hH,yY,h,1,0.9003046,n,0,0.0746295,RSVPLG01,0.94,2023-09-12-22:25:04,11900,1,Experiment,2023-09-12_15h40.50.216
1,local,local,0,1,7,19,0,,,25,exp,UHFYESNNUSEZHZF,NFSLEUETHZSTFZU,4,L,absent,lL,nN,l,1,0.7803583,n,1,0.1218528,RSVPLG01,0.94,2023-09-12-22:25:04,11900,1,Experiment,2023-09-12_15h40.50.216
8,global,local,3,1,8,20,7,,,26,exp,SNUSLYLENUFFZTZ,USZFUHLNXEFSNTL,6,Y,X,yY,yY,y,1,0.8675946,n,0,0.1078491,RSVPLG01,0.94,2023-09-12-22:25:04,11900,1,Experiment,2023-09-12_15h40.50.216
5,local,global,3,1,9,21,4,,,27,exp,UHYHNSFNXLZYTZL,HNUTZEZHLYTFYLF,6,E,X,eE,yY,h,0,1.0870788,n,0,0.0477025,RSVPLG01,0.94,2023-09-12-22:25:04,11900,1,Experiment,2023-09-12_15h40.50.216
9,global,local,7,1,10,22,8,,,28,exp,STFSLENYEZTUFYN,SYTFHTEFZZNXSEY,5,L,X,lL,yY,l,1,0.8514239,n,0,0.1085935,RSVPLG01,0.94,2023-09-12-22:25:04,11900,1,Experiment,2023-09-12_15h40.50.216
10,global,global,0,1,11,23,9,,,29,exp,TYZFZETNSNLUSYU,TYEHEZSZLTNUNYL,4,F,absent,fF,nN,h,0,0.8576104,n,1,0.0570039,RSVPLG01,0.94,2023-09-12-22:25:04,11900,1,Experiment,2023-09-12_15h40.50.216
5,local,global,3,2,0,24,4,,,30,exp,TSFEHTLXUEFUNLS,SSLZYLNENUTTFFU,5,Y,X,yY,yY,h,0,0.4157696,n,0,0.1233191,RSVPLG01,0.94,2023-09-12-22:25:04,11900,1,Experiment,2023-09-12_15h40.50.216
12,global,global,7,2,1,25,11,,,31,exp,FEENYSZULUXTLFY,ETYHYFSEZTSUUZF,4,N,X,nN,yY,y,0,0.7198216,n,0,0.1223966,RSVPLG01,0.94,2023-09-12-22:25:04,11900,1,Experiment,2023-09-12_15h40.50.216
10,global,global,0,2,2,26,9,,,32,exp,LYLZNEYFUZTUSSF,ZFYEHTLZTYUSSUL,5,N,absent,nN,nN,h,0,1.4192917,y,0,0.9525574,RSVPLG01,0.94,2023-09-12-22:25:04,11900,1,Experiment,2023-09-12_15h40.50.216
11,global,global,3,2,3,27,10,,,33,exp,EHYTZYSXUFTEUNF,NHTYLNUSHYEFFST,5,Z,X,zZ,yY,h,0,1.0883089,n,0,0.0421632,RSVPLG01,0.94,2023-09-12-22:25:04,11900,1,Experiment,2023-09-12_15h40.50.216
4,local,global,0,2,4,28,3,,,34,exp,FULENSYEZULTNZT,LFYENHTEUZZTNUF,6,H,absent,hH,nN,h,1,0.9591411,n,1,0.0447643,RSVPLG01,0.94,2023-09-12-22:25:04,11900,1,Experiment,2023-09-12_15h40.50.216
12,global,global,7,2,5,29,11,,,35,exp,FFZNYLZTHSXHSLT,ZLHUTEYZFTSFSEH,4,N,X,nN,yY,n,1,0.8129377,y,1,0.0417555,RSVPLG01,0.94,2023-09-12-22:25:04,11900,1,Experiment,2023-09-12_15h40.50.216
12,global,global,7,2,6,30,11,,,36,exp,TFZNHNYEELYXSZF,EYNLUFSZTTZLYNE,5,H,X,hH,yY,h,1,0.7233982,y,1,0.8605775,RSVPLG01,0.94,2023-09-12-22:25:04,11900,1,Experiment,2023-09-12_15h40.50.216
1,local,local,0,2,7,31,0,,,37,exp,UHEFNLTFESLZTSZ,ELFHYESFUTZLHSU,5,Y,absent,yY,nN,y,1,1.0194426,n,1,0.0575863,RSVPLG01,0.94,2023-09-12-22:25:04,11900,1,Experiment,2023-09-12_15h40.50.216
10,global,global,0,2,8,32,9,,,38,exp,FYESUUELHZNFNZH,ELUTHYLEZZUNFNH,4,S,absent,sS,nN,z,0,1.9665203,n,1,0.09075,RSVPLG01,0.94,2023-09-12-22:25:04,11900,1,Experiment,2023-09-12_15h40.50.216
12,global,global,7,2,9,33,11,,,39,exp,SEELHSZFTUUXZNF,ZFLUYTEUNFESNTS,5,H,X,hH,yY,h,1,0.4152482,n,0,0.0586523,RSVPLG01,0.94,2023-09-12-22:25:04,11900,1,Experiment,2023-09-12_15h40.50.216
8,global,local,3,2,10,34,7,,,40,exp,SYTNUUHELFESFYL,FFYZSTXTULESLEU,4,N,X,nN,yY,n,1,0.7855226,n,0,0.0889461,RSVPLG01,0.94,2023-09-12-22:25:04,11900,1,Experiment,2023-09-12_15h40.50.216
3,local,local,7,2,11,35,2,,,41,exp,TFEYLNSYUTSUZEZ,SEZFHYFUZNYXTEU,5,H,X,hH,yY,h,1,0.8636244,n,0,0.9704835,RSVPLG01,0.94,2023-09-12-22:25:04,11900,1,Experiment,2023-09-12_15h40.50.216
7,global,local,0,3,0,36,6,,,42,exp,THTLSZHZNYELNYF,TYFEUZZNNTHHYLE,5,S,absent,sS,nN,s,1,0.8904684,y,0,0.2992102,RSVPLG01,0.94,2023-09-12-22:25:04,11900,1,Experiment,2023-09-12_15h40.50.216
12,global,global,7,3,1,37,11,,,43,exp,TENNZLHEFYFTXSZ,ZYYFSUNZNHETSFH,6,L,X,lL,yY,l,1,1.8956432,n,0,0.0567032,RSVPLG01,0.94,2023-09-12-22:25:04,11900,1,Experiment,2023-09-12_15h40.50.216
2,local,local,3,3,2,38,1,,,44,exp,ULTNTZESUFHZHFS,TETYSLXZZFHLUSE,4,Y,X,yY,yY,y,1,1.0492262,n,0,0.0628313,RSVPLG01,0.94,2023-09-12-22:25:04,11900,1,Experiment,2023-09-12_15h40.50.216
7,global,local,0,3,3,39,6,,,45,exp,LSENFNUULHTTSHZ,LTNUYHSZUEZHNES,5,F,absent,fF,nN,f,1,0.9238911,n,1,0.0903988,RSVPLG01,0.94,2023-09-12-22:25:04,11900,1,Experiment,2023-09-12_15h40.50.216
7,global,local,0,3,4,40,6,,,46,exp,FSHENLSTEZHNZYF,SYZFZUHNTYNTFHE,6,L,absent,lL,nN,l,1,1.1555557,y,0,1.8196646,RSVPLG01,0.94,2023-09-12-22:25:04,11900,1,Experiment,2023-09-12_15h40.50.216
8,global,local,3,3,5,41,7,,,47,exp,SHHTNYYFUTEESZZ,UTSYLZZXEETFHFU,5,N,X,nN,yY,y,0,2.8177025,n,0,0.8423871,RSVPLG01,0.94,2023-09-12-22:25:04,11900,1,Experiment,2023-09-12_15h40.50.216
5,local,global,3,3,6,42,4,,,48,exp,EELTZYUHXFZUFTN,LEUHHSFLNUNTZZF,6,S,X,sS,yY,s,1,0.8832244,n,0,0.2342364,RSVPLG01,0.94,2023-09-12-22:25:04,11900,1,Experiment,2023-09-12_15h40.50.216
12,global,global,7,3,7,43,11,,,49,exp,ZTHLFENNUEXYTHF,YFESUHUHZTNYTNE,4,L,X,lL,yY,l,1,0.9110565,y,1,0.4420637,RSVPLG01,0.94,2023-09-12-22:25:04,11900,1,Experiment,2023-09-12_15h40.50.216
8,global,local,3,3,8,44,7,,,50,exp,SHFSYFNLZZTUNUH,ZUUZETNXLTSFLHH,5,Y,X,yY,yY,y,1,0.9647931,n,0,0.1423429,RSVPLG01,0.94,2023-09-12-22:25:04,11900,1,Experiment,2023-09-12_15h40.50.216
3,local,local,7,3,9,45,2,,,51,exp,ZSEYHULUESLZFFT,HZENUETFUHXLFSZ,4,N,X,nN,yY,e,0,0.7508034,n,0,0.6570229,RSVPLG01,0.94,2023-09-12-22:25:04,11900,1,Experiment,2023-09-12_15h40.50.216
7,global,local,0,3,10,46,6,,,52,exp,LNZFTHNSYUYSUFL,ZNSLUETUTFLZYFN,6,H,absent,hH,nN,h,1,1.0382634,n,1,0.3304407,RSVPLG01,0.94,2023-09-12-22:25:04,11900,1,Experiment,2023-09-12_15h40.50.216
1,local,local,0,3,11,47,0,,,53,exp,ESSYFNTTZEFNLLU,LZNHSUTELFFESZT,4,H,absent,hH,nN,y,0,0.9963234,n,1,0.0745027,RSVPLG01,0.94,2023-09-12-22:25:04,11900,1,Experiment,2023-09-12_15h40.50.216
8,global,local,3,4,0,48,7,,,54,exp,UEETNHFUSZLFSHL,FLTZYTHXEEHUUFZ,5,N,X,nN,yY,n,1,0.9480938,n,0,0.2177028,RSVPLG01,0.94,2023-09-12-22:25:04,11900,1,Experiment,2023-09-12_15h40.50.216
7,global,local,0,4,1,49,6,,,55,exp,HSZYNUFTZNUFHLL,FZSEHSUZUHTTFNN,4,Y,absent,yY,nN,e,0,0.7473303,n,1,0.1077476,RSVPLG01,0.94,2023-09-12-22:25:04,11900,1,Experiment,2023-09-12_15h40.50.216
8,global,local,3,4,2,50,7,,,56,exp,TULNYHEFYZZHUTF,FTESYUXEZYHFZUT,4,N,X,nN,yY,s,0,0.8688782,n,0,0.1110893,RSVPLG01,0.94,2023-09-12-22:25:04,11900,1,Experiment,2023-09-12_15h40.50.216
3,local,local,7,4,3,51,2,,,57,exp,TYLLHNEUUFZYENT,NZLUSYFTTLUXYEZ,5,S,X,sS,yY,s,1,0.8734259,n,0,0.1215249,RSVPLG01,0.94,2023-09-12-22:25:04,11900,1,Experiment,2023-09-12_15h40.50.216
7,global,local,0,4,4,52,6,,,58,exp,LLZUETEZNNTFYHH,YNLSYLFETTFZNHZ,4,U,absent,uU,nN,u,1,0.8187123,n,1,0.0753432,RSVPLG01,0.94,2023-09-12-22:25:04,11900,1,Experiment,2023-09-12_15h40.50.216
3,local,local,7,4,5,53,2,,,59,exp,HZSLUEHYNZFSUYL,LZFLUTZHUSFNXSH,6,T,X,tT,yY,t,1,0.9413596,n,0,0.0428621,RSVPLG01,0.94,2023-09-12-22:25:04,11900,1,Experiment,2023-09-12_15h40.50.216
10,global,global,0,4,6,54,9,,,60,exp,TNHFLYTZUSUZYLN,HUTEYLHLZNNSSUY,4,F,absent,fF,nN,y,0,0.9815673,n,1,0.7658726,RSVPLG01,0.94,2023-09-12-22:25:04,11900,1,Experiment,2023-09-12_15h40.50.216
6,local,global,7,4,7,55,5,,,61,exp,UTNFLTZZESXUNYS,YNEHSNSLTUZYEZL,4,H,X,hH,yY,h,1,1.316683,n,0,0.060244,RSVPLG01,0.94,2023-09-12-22:25:04,11900,1,Experiment,2023-09-12_15h40.50.216
6,local,global,7,4,8,56,5,,,62,exp,STTLFUNZLYESXZF,NZYLFHNYSETZSLT,6,H,X,hH,yY,h,1,0.9296868,n,0,0.0595998,RSVPLG01,0.94,2023-09-12-22:25:04,11900,1,Experiment,2023-09-12_15h40.50.216
12,global,global,7,4,9,57,11,,,63,exp,HTYZNHSYTNXEFUU,FTFLNYYEUUENSHS,4,Z,X,zZ,yY,l,0,0.7513464,y,1,0.2405877,RSVPLG01,0.94,2023-09-12-22:25:04,11900,1,Experiment,2023-09-12_15h40.50.216
11,global,global,3,4,10,58,10,,,64,exp,ZHFUSFXYNYNHSTT,FYNEHNSLSFYTTLH,4,U,X,uU,yY,h,0,0.7713419,n,0,0.0762625,RSVPLG01,0.94,2023-09-12-22:25:04,11900,1,Experiment,2023-09-12_15h40.50.216
1,local,local,0,4,11,59,0,,,65,exp,STNSHEYYTZUFFZU,TFFHSLNUSHNYYZU,6,L,absent,lL,nN,l,1,0.8496265,y,0,2.378674,RSVPLG01,0.94,2023-09-12-22:25:04,11900,1,Experiment,2023-09-12_15h40.50.216
11,global,global,3,5,0,60,10,,,66,exp,SUELEHXYFSNHTNF,TSEZNFHHSNYFYUU,4,L,X,lL,yY,l,1,0.8578423,n,0,0.2847304,RSVPLG01,0.94,2023-09-12-22:25:04,11900,1,Experiment,2023-09-12_15h40.50.216
12,global,global,7,5,1,61,11,,,67,exp,NFLEEHLUYNTZXUY,ZEFUYSTNNYFZLEL,6,H,X,hH,yY,h,1,0.8647931,y,1,0.0740039,RSVPLG01,0.94,2023-09-12-22:25:04,11900,1,Experiment,2023-09-12_15h40.50.216
5,local,global,3,5,2,62,4,,,68,exp,YFNLZUNXHHEYETU,UTNFSHHFLYUEYTN,5,S,X,sS,yY,s,1,0.5809026,y,1,0.0580282,RSVPLG01,0.94,2023-09-12-22:25:04,11900,1,Experiment,2023-09-12_15h40.50.216
4,local,global,0,5,3,63,3,,,69,exp,ZESUYENTFHFTSNU,SZTHLUUTFZHENEN,5,L,absent,lL,nN,l,1,0.9457561,n,1,0.1547526,RSVPLG01,0.94,2023-09-12-22:25:04,11900,1,Experiment,2023-09-12_15h40.50.216
6,local,global,7,5,4,64,5,,,70,exp,FZSNTSYHZEXHFEU,ZUTLFETYYHZFEHS,4,L,X,lL,yY,l,1,0.853349,y,1,0.1390121,RSVPLG01,0.94,2023-09-12-22:25:04,11900,1,Experiment,2023-09-12_15h40.50.216
4,local,global,0,5,5,65,3,,,71,exp,HYTSSUNFTZHZYFN,ZSFYTENLZHFYTLH,6,E,absent,eE,nN,e,1,0.6500072,n,1,0.2491968,RSVPLG01,0.94,2023-09-12-22:25:04,11900,1,Experiment,2023-09-12_15h40.50.216
11,global,global,3,5,6,66,10,,,72,exp,LSHLTSYXYUZHEEF,SYFHNZEUYUHFZEL,5,T,X,tT,yY,t,1,1.040038,n,0,0.1058228,RSVPLG01,0.94,2023-09-12-22:25:04,11900,1,Experiment,2023-09-12_15h40.50.216
8,global,local,3,5,7,67,7,,,73,exp,TEFSNSHEYUFZHZT,HZZSLYYXUETFFUT,5,N,X,nN,yY,n,1,0.8353563,n,0,0.207151,RSVPLG01,0.94,2023-09-12-22:25:04,11900,1,Experiment,2023-09-12_15h40.50.216
3,local,local,7,5,8,68,2,,,74,exp,SUUEZYNFHFNTSTH,HSFFLUETYUNXHET,5,L,X,lL,yY,l,1,1.0310555,n,0,0.1065343,RSVPLG01,0.94,2023-09-12-22:25:04,11900,1,Experiment,2023-09-12_15h40.50.216
4,local,global,0,5,9,69,3,,,75,exp,UNYHTELHZZTYSUN,ZLZTUFHYHUNSSLY,6,F,absent,fF,nN,f,1,0.734705,n,1,0.0791884,RSVPLG01,0.94,2023-09-12-22:25:04,11900,1,Experiment,2023-09-12_15h40.50.216
4,local,global,0,5,10,70,3,,,76,exp,LZUSFZFEYUHNHEN,LEUTZHFELYZUHNN,4,T,absent,tT,nN,t,1,0.993887,n,1,0.1224843,RSVPLG01,0.94,2023-09-12-22:25:04,11900,1,Experiment,2023-09-12_15h40.50.216
6,local,global,7,5,11,71,5,,,77,exp,YFZEFUSLZNYEXHS,ZSSEYTNNZEHHYFL,6,T,X,tT,yY,t,1,0.7556789,y,1,0.089619,RSVPLG01,0.94,2023-09-12-22:25:04,11900,1,Experiment,2023-09-12_15h40.50.216
8,global,local,3,6,0,72,7,,,78,exp,NENSUTFYZEULSZF,YNUZSHFSXEZYLFE,6,T,X,tT,yY,y,0,0.8059129,n,0,0.1538998,RSVPLG01,0.94,2023-09-12-22:25:04,11900,1,Experiment,2023-09-12_15h40.50.216
4,local,global,0,6,1,73,3,,,79,exp,NFETUYHYZLFHZTN,NTFZSEYNFTZEYLH,5,S,absent,sS,nN,s,1,0.8210276,y,0,0.1226233,RSVPLG01,0.94,2023-09-12-22:25:04,11900,1,Experiment,2023-09-12_15h40.50.216
4,local,global,0,6,2,74,3,,,80,exp,SHYENTZTLHEZYSU,SEYLFZEUHYLHSZT,5,F,absent,fF,nN,t,0,1.4111309,y,0,0.0583004,RSVPLG01,0.94,2023-09-12-22:25:04,11900,1,Experiment,2023-09-12_15h40.50.216
6,local,global,7,6,3,75,5,,,81,exp,EFLYZSUHHYLEXUF,YTFYENLHTZUEUFH,6,N,X,nN,yY,n,1,0.7154063,y,1,0.078849,RSVPLG01,0.94,2023-09-12-22:25:04,11900,1,Experiment,2023-09-12_15h40.50.216
4,local,global,0,6,4,76,3,,,82,exp,SZYHFTNHZNEFUYS,EUNHYLUZSZHNFFS,6,L,absent,lL,nN,l,1,0.8818425,n,1,0.0905512,RSVPLG01,0.94,2023-09-12-22:25:04,11900,1,Experiment,2023-09-12_15h40.50.216
6,local,global,7,6,5,77,5,,,83,exp,FFEHUSTNHYTXZEN,HZSZLFSNYTEFEHY,5,L,X,lL,yY,l,1,0.6891178,y,1,0.1388319,RSVPLG01,0.94,2023-09-12-22:25:04,11900,1,Experiment,2023-09-12_15h40.50.216
7,global,local,0,6,6,78,6,,,84,exp,FYLEYNSTULZSFUZ,TZFHYNYNSZUUFSL,4,E,absent,eE,nN,f,0,0.8994641,y,0,0.0910282,RSVPLG01,0.94,2023-09-12-22:25:04,11900,1,Experiment,2023-09-12_15h40.50.216
9,global,local,7,6,7,79,8,,,85,exp,HLZTHUNTSSYENLZ,SZZTTFEYYHESXNL,6,U,X,uU,yY,h,0,0.8931969,y,1,0.0148881,RSVPLG01,0.94,2023-09-12-22:25:04,11900,1,Experiment,2023-09-12_15h40.50.216
2,local,local,3,6,8,80,1,,,86,exp,FZYTNHULUSLFYST,YLLFSEUYXTNNTSZ,6,E,X,eE,yY,e,1,0.7477959,n,0,0.1235162,RSVPLG01,0.94,2023-09-12-22:25:04,11900,1,Experiment,2023-09-12_15h40.50.216
5,local,global,3,6,9,81,4,,,87,exp,HYUNTSXZHUYLZFL,YUZEFSTYLZHHFTL,4,E,X,eE,yY,f,0,1.3167862,n,0,0.1111428,RSVPLG01,0.94,2023-09-12-22:25:04,11900,1,Experiment,2023-09-12_15h40.50.216
9,global,local,7,6,10,82,8,,,88,exp,ENLSZHFHYZFYLTE,ENFUZZFHLYXLTEN,4,S,X,sS,yY,s,1,1.15082,y,1,0.0574763,RSVPLG01,0.94,2023-09-12-22:25:04,11900,1,Experiment,2023-09-12_15h40.50.216
8,global,local,3,6,11,83,7,,,89,exp,EYHTZLFNUHETUFZ,NHYFUSYTXNFEZEU,6,L,X,lL,yY,l,1,0.7774154,n,0,0.0729264,RSVPLG01,0.94,2023-09-12-22:25:04,11900,1,Experiment,2023-09-12_15h40.50.216
10,global,global,0,7,0,84,9,,,90,exp,LYYHESTUFLNFTUE,LTUZETFYUNNSEFS,4,H,absent,hH,nN,h,1,0.8686152,n,1,1.1610712,RSVPLG01,0.94,2023-09-12-22:25:04,11900,1,Experiment,2023-09-12_15h40.50.216
2,local,local,3,7,1,85,1,,,91,exp,YHTSHYLLZFTZEUF,EYUNLFXEHZLTYUH,4,N,X,nN,yY,s,0,0.9257056,n,0,0.1399851,RSVPLG01,0.94,2023-09-12-22:25:04,11900,1,Experiment,2023-09-12_15h40.50.216
10,global,global,0,7,2,86,9,,,92,exp,UTLHNYYZUSLHZFT,FHLLESHZSYFUTYT,5,N,absent,nN,nN,h,0,0.4382917,n,1,0.1867177,RSVPLG01,0.94,2023-09-12-22:25:04,11900,1,Experiment,2023-09-12_15h40.50.216
9,global,local,7,7,3,87,8,,,93,exp,FTUSULNFZZHNHTE,THSZFYHTSENEXFZ,6,L,X,lL,yY,l,1,0.6223304,n,0,0.1722615,RSVPLG01,0.94,2023-09-12-22:25:04,11900,1,Experiment,2023-09-12_15h40.50.216
7,global,local,0,7,4,88,6,,,94,exp,FZNHFUUTLEELSZN,LEEYNFZZUFTLNSS,4,H,absent,hH,nN,h,1,0.7919955,n,1,0.1050646,RSVPLG01,0.94,2023-09-12-22:25:04,11900,1,Experiment,2023-09-12_15h40.50.216
2,local,local,3,7,5,89,1,,,95,exp,EFNUZLSHYYZSENL,SZETZNXLSEHHNFL,4,T,X,tT,yY,t,1,0.8088185,n,0,0.2564426,RSVPLG01,0.94,2023-09-12-22:25:04,11900,1,Experiment,2023-09-12_15h40.50.216
10,global,global,0,7,6,90,9,,,96,exp,ZEUFHYUYTZNENTL,EFYLSYNZZLTFUEU,5,H,absent,hH,nN,h,1,0.850358,n,1,0.0093072,RSVPLG01,0.94,2023-09-12-22:25:04,11900,1,Experiment,2023-09-12_15h40.50.216
2,local,local,3,7,7,91,1,,,97,exp,ZTSFNUUEYHEHNYT,EUTLZSXNSNUYHYH,4,L,X,lL,yY,l,1,0.9423357,n,0,0.0896719,RSVPLG01,0.94,2023-09-12-22:25:04,11900,1,Experiment,2023-09-12_15h40.50.216
12,global,global,7,7,8,92,11,,,98,exp,EESUNYHZTTXZHYF,TTELEHYFHNZSNZY,4,U,X,uU,yY,h,0,0.7976916,n,0,0.0440623,RSVPLG01,0.94,2023-09-12-22:25:04,11900,1,Experiment,2023-09-12_15h40.50.216
10,global,global,0,7,9,93,9,,,99,exp,FZEYUHSYTSHZLEL,FTHLNLTHEFYZEYS,5,U,absent,uU,nN,h,0,0.8591833,n,1,0.2657498,RSVPLG01,0.94,2023-09-12-22:25:04,11900,1,Experiment,2023-09-12_15h40.50.216
7,global,local,0,7,10,94,6,,,100,exp,UFSSELYUNFZLZNH,LLHHTZUNFZYSUSY,5,E,absent,eE,nN,y,0,1.2643014,n,1,0.1233918,RSVPLG01,0.94,2023-09-12-22:25:04,11900,1,Experiment,2023-09-12_15h40.50.216
9,global,local,7,7,11,95,8,,,101,exp,TSEFSLUZHNZTFUE,TZNEUYUTFHNEXHS,6,L,X,lL,yY,u,0,1.1112072,n,0,0.3802467,RSVPLG01,0.94,2023-09-12-22:25:04,11900,1,Experiment,2023-09-12_15h40.50.216
3,local,local,7,8,0,96,2,,,102,exp,YUSNLZNHZTSUEEY,NTSEFUYUTHSXYZH,5,F,X,fF,yY,n,0,0.7653286,n,0,0.1557128,RSVPLG01,0.94,2023-09-12-22:25:04,11900,1,Experiment,2023-09-12_15h40.50.216
3,local,local,7,8,1,97,2,,,103,exp,HZYFTSYZEHUFLES,YSZSNFZUUFYXHHE,5,N,X,nN,yY,s,0,0.8125943,n,0,0.1542422,RSVPLG01,0.94,2023-09-12-22:25:04,11900,1,Experiment,2023-09-12_15h40.50.216
6,local,global,7,8,2,98,5,,,104,exp,ZZHEFLSHSUYUXFN,EUYYFTEZHSHZSNN,6,T,X,tT,yY,t,1,0.6546335,y,1,0.0453851,RSVPLG01,0.94,2023-09-12-22:25:04,11900,1,Experiment,2023-09-12_15h40.50.216
8,global,local,3,8,3,99,7,,,105,exp,YSLFNTLSYTZZUEE,NUTHZSXESZTNYUE,4,F,X,fF,yY,f,1,0.8414461,n,0,0.1540435,RSVPLG01,0.94,2023-09-12-22:25:04,11900,1,Experiment,2023-09-12_15h40.50.216
5,local,global,3,8,4,100,4,,,106,exp,ZLYSNHXNLTUFTYZ,LTLEUNFTFYZZHUH,4,E,X,eE,yY,e,1,0.7638737,n,0,0.1072023,RSVPLG01,0.94,2023-09-12-22:25:04,11900,1,Experiment,2023-09-12_15h40.50.216
10,global,global,0,8,5,101,9,,,107,exp,ZSTTYEUZSNUHENH,SSUHLTNZENEZFHT,5,Y,absent,yY,nN,l,0,0.9904433,n,1,0.2336307,RSVPLG01,0.94,2023-09-12-22:25:04,11900,1,Experiment,2023-09-12_15h40.50.216
11,global,global,3,8,6,102,10,,,108,exp,ZTZSFHXUTEELUNL,HLNYTFUZULEEHTZ,4,S,X,sS,yY,t,0,0.7313655,y,1,0.2195313,RSVPLG01,0.94,2023-09-12-22:25:04,11900,1,Experiment,2023-09-12_15h40.50.216
5,local,global,3,8,7,103,4,,,109,exp,SEYZUHSXENYFZNL,FLLNTNZHHZEEYYF,5,T,X,tT,yY,t,1,1.0858055,y,1,0.3797089,RSVPLG01,0.94,2023-09-12-22:25:04,11900,1,Experiment,2023-09-12_15h40.50.216
7,global,local,0,8,8,104,6,,,110,exp,UHFYFEYTSUSTNNH,NNUUHZFLHLSYFYS,6,E,absent,eE,nN,z,0,0.8083003,y,0,0.0744183,RSVPLG01,0.94,2023-09-12-22:25:04,11900,1,Experiment,2023-09-12_15h40.50.216
3,local,local,7,8,9,105,2,,,111,exp,EUSTFHNLLUZZHES,ZNSSYHLLUTTXUEN,5,Y,X,yY,yY,l,0,0.7487283,y,1,0.2067791,RSVPLG01,0.94,2023-09-12-22:25:04,11900,1,Experiment,2023-09-12_15h40.50.216
9,global,local,7,8,10,106,8,,,112,exp,UTUSFLNTHNEYYEL,EHNLZNTYYHLXEUS,5,F,X,fF,yY,h,0,0.3322522,y,1,0.1393223,RSVPLG01,0.94,2023-09-12-22:25:04,11900,1,Experiment,2023-09-12_15h40.50.216
1,local,local,0,8,11,107,0,,,113,exp,ELHSZFHSULUFTNN,SENFYNUELUFLHTT,5,Y,absent,yY,nN,y,1,0.9452565,n,1,0.121613,RSVPLG01,0.94,2023-09-12-22:25:04,11900,1,Experiment,2023-09-12_15h40.50.216
12,global,global,7,9,0,108,11,,,114,exp,SSHFTNLHELXNYZZ,LTEUTYYZZNLSHHN,4,F,X,fF,yY,f,1,0.6515033,y,1,0.0622021,RSVPLG01,0.94,2023-09-12-22:25:04,11900,1,Experiment,2023-09-12_15h40.50.216
10,global,global,0,9,1,109,9,,,115,exp,ZUNUTLYLEHYZHNS,UNHHFESYEZZLNYS,5,T,absent,tT,nN,y,0,0.9226348,y,0,0.3473993,RSVPLG01,0.94,2023-09-12-22:25:04,11900,1,Experiment,2023-09-12_15h40.50.216
11,global,global,3,9,2,110,10,,,116,exp,LFUZHHXLEYUETNF,LUHSNEFYTHUNTLY,4,Z,X,zZ,yY,z,1,0.7463383,n,0,0.1059033,RSVPLG01,0.94,2023-09-12-22:25:04,11900,1,Experiment,2023-09-12_15h40.50.216
11,global,global,3,9,3,111,10,,,117,exp,TYSZSHXYNELFNLT,TNYUSLHLYHTSEFE,4,Z,X,zZ,yY,z,1,0.8627164,n,0,0.1206958,RSVPLG01,0.94,2023-09-12-22:25:04,11900,1,Experiment,2023-09-12_15h40.50.216
4,local,global,0,9,4,112,3,,,118,exp,YYETSUHLFNLFHNE,EHFZUNLHNELFYSY,4,Z,absent,zZ,nN,z,1,0.5497044,n,1,0.2043497,RSVPLG01,0.94,2023-09-12-22:25:04,11900,1,Experiment,2023-09-12_15h40.50.216
8,global,local,3,9,5,113,7,,,119,exp,NHZHFTLZSLUUSEE,ETTHYEHXNUULZSL,5,F,X,fF,yY,f,1,0.6091673,n,0,0.0262944,RSVPLG01,0.94,2023-09-12-22:25:04,11900,1,Experiment,2023-09-12_15h40.50.216
12,global,global,7,9,6,114,11,,,120,exp,SNHEUULLNYXFSYH,SSHZHFYUUYLNLFN,4,E,X,eE,yY,h,0,0.6505291,n,0,0.0418492,RSVPLG01,0.94,2023-09-12-22:25:04,11900,1,Experiment,2023-09-12_15h40.50.216
5,local,global,3,9,7,115,4,,,121,exp,ENTHTUXEFSYSZUN,TNELZTYSZEUSYNF,4,L,X,lL,yY,l,1,0.8408616,n,0,0.1536223,RSVPLG01,0.94,2023-09-12-22:25:04,11900,1,Experiment,2023-09-12_15h40.50.216
2,local,local,3,9,8,116,1,,,122,exp,YFSLUENZTUESFZT,NYEHFYXNZUUTSTF,4,H,X,hH,yY,h,1,0.9788456,n,0,0.0260162,RSVPLG01,0.94,2023-09-12-22:25:04,11900,1,Experiment,2023-09-12_15h40.50.216
1,local,local,0,9,9,117,0,,,123,exp,SHLSFNUETENYUYH,YHESZTTNLLHUESN,5,Z,absent,zZ,nN,s,0,0.5977588,y,0,0.4136057,RSVPLG01,0.94,2023-09-12-22:25:04,11900,1,Experiment,2023-09-12_15h40.50.216
1,local,local,0,9,10,118,0,,,124,exp,SNHYLZHUZLFNUTS,STSEZUTNFZFHLLN,4,E,absent,eE,nN,e,1,0.9008648,n,1,0.1538055,RSVPLG01,0.94,2023-09-12-22:25:04,11900,1,Experiment,2023-09-12_15h40.50.216
4,local,global,0,9,11,119,3,,,125,exp,NSUZETTLSHZYULH,LSHNFLYTUHZYTZN,5,F,absent,fF,nN,f,1,0.8570948,y,0,0.1698045,RSVPLG01,0.94,2023-09-12-22:25:04,11900,1,Experiment,2023-09-12_15h40.50.216
5,local,global,3,10,0,120,4,,,126,exp,STEULNXNYLFZEYZ,FLLHSFYYTZNESNZ,4,H,X,hH,yY,h,1,0.8353756,n,0,0.0425403,RSVPLG01,0.94,2023-09-12-22:25:04,11900,1,Experiment,2023-09-12_15h40.50.216
5,local,global,3,10,1,121,4,,,127,exp,NLYSYEFZXSTHFTN,ZSSZHUFLLHNFYTY,6,U,X,uU,yY,u,1,0.9568818,y,1,0.0263453,RSVPLG01,0.94,2023-09-12-22:25:04,11900,1,Experiment,2023-09-12_15h40.50.216
7,global,local,0,10,2,122,6,,,128,exp,YNELTSHFNTYFZSH,ENFUYZHHTFEYNSS,4,L,absent,lL,nN,l,1,0.6784665,n,1,0.1393635,RSVPLG01,0.94,2023-09-12-22:25:04,11900,1,Experiment,2023-09-12_15h40.50.216
3,local,local,7,10,3,123,2,,,129,exp,LSFZENYTYHLFNTH,LTTUSNEHHSXYFNE,4,U,X,uU,yY,s,0,1.0115612,y,1,0.0465292,RSVPLG01,0.94,2023-09-12-22:25:04,11900,1,Experiment,2023-09-12_15h40.50.216
3,local,local,7,10,4,124,2,,,130,exp,NEYLLTNSFFHSZZY,ZESHSUZLEFLYXYN,6,U,X,uU,yY,u,1,1.0278736,y,1,0.55629,RSVPLG01,0.94,2023-09-12-22:25:04,11900,1,Experiment,2023-09-12_15h40.50.216
6,local,global,7,10,5,125,5,,,131,exp,UZLETNHNTYXSZHY,ZYUFTSTHYSLZHNN,4,F,X,fF,yY,f,1,0.5033619,y,1,0.1475208,RSVPLG01,0.94,2023-09-12-22:25:04,11900,1,Experiment,2023-09-12_15h40.50.216
2,local,local,3,10,6,126,1,,,132,exp,SEHUHZSYZNYFFLN,FSNTELXFLYNEHYZ,4,T,X,tT,yY,t,1,0.9074823,n,0,0.1274084,RSVPLG01,0.94,2023-09-12-22:25:04,11900,1,Experiment,2023-09-12_15h40.50.216
6,local,global,7,10,7,127,5,,,133,exp,TUYNYHTEZSLUXZE,ELTEZFNUSNYTSLY,6,F,X,fF,yY,f,1,0.9016168,y,1,0.0925258,RSVPLG01,0.94,2023-09-12-22:25:04,11900,1,Experiment,2023-09-12_15h40.50.216
5,local,global,3,10,8,128,4,,,134,exp,HNEYZTFLXSZFELS,ZYNLZUYFFSNSHLE,6,U,X,uU,yY,u,1,0.9136228,n,0,0.1218508,RSVPLG01,0.94,2023-09-12-22:25:04,11900,1,Experiment,2023-09-12_15h40.50.216
12,global,global,7,10,9,129,11,,,135,exp,FESYZEUFHLXSLTZ,HUENUTHSTZEFLSF,4,Y,X,yY,yY,y,1,0.674841,y,1,0.1693924,RSVPLG01,0.94,2023-09-12-22:25:04,11900,1,Experiment,2023-09-12_15h40.50.216
3,local,local,7,10,10,130,2,,,136,exp,HSNFULLEETFSTZH,LLNEYSSZZTEXFTH,5,Y,X,yY,yY,y,1,0.5626723,y,1,0.240265,RSVPLG01,0.94,2023-09-12-22:25:04,11900,1,Experiment,2023-09-12_15h40.50.216
8,global,local,3,10,11,131,7,,,137,exp,TEHZSFHLNTFUENZ,EEUFYHHXLTUFZNZ,5,S,X,sS,yY,z,0,0.5122158,y,1,0.1886494,RSVPLG01,0.94,2023-09-12-22:25:04,11900,1,Experiment,2023-09-12_15h40.50.216
6,local,global,7,11,0,132,5,,,138,exp,LFZUHEHYNYXNSZL,LEHTFNFSEZYLHYZ,4,T,X,tT,yY,t,1,0.5895084,y,1,0.6192611,RSVPLG01,0.94,2023-09-12-22:25:04,11900,1,Experiment,2023-09-12_15h40.50.216
3,local,local,7,11,1,133,2,,,139,exp,NUUSYHSLNZZTEEL,ZLSUFZHENESXLUT,5,F,X,fF,yY,f,1,0.9292618,n,0,0.2880269,RSVPLG01,0.94,2023-09-12-22:25:04,11900,1,Experiment,2023-09-12_15h40.50.216
8,global,local,3,11,2,134,7,,,140,exp,FTYNLZTZSFNEEHH,YFZFUSHXNEETNHS,5,L,X,lL,yY,h,0,0.9028129,n,0,0.1093146,RSVPLG01,0.94,2023-09-12-22:25:04,11900,1,Experiment,2023-09-12_15h40.50.216
12,global,global,7,11,3,135,11,,,141,exp,EHSLFNYENYTXTLS,LYHLUSZYSEZNENH,5,F,X,fF,yY,f,1,0.5761096,y,1,0.1082896,RSVPLG01,0.94,2023-09-12-22:25:04,11900,1,Experiment,2023-09-12_15h40.50.216
11,global,global,3,11,4,136,10,,,142,exp,FZUSEFYXUHLHYTT,UFTHNYZTUSLSFHZ,5,E,X,eE,yY,y,0,2.1247072,n,0,1.1004443,RSVPLG01,0.94,2023-09-12-22:25:04,11900,1,Experiment,2023-09-12_15h40.50.216
5,local,global,3,11,5,137,4,,,143,exp,HUSLFZYXLTSNNZH,SHTNEZLNHULYUYS,5,E,X,eE,yY,e,1,0.5610357,y,1,0.0265822,RSVPLG01,0.94,2023-09-12-22:25:04,11900,1,Experiment,2023-09-12_15h40.50.216
9,global,local,7,11,6,138,8,,,144,exp,USHFELYSLHYTTZZ,SFTFNLYTUUHXZYH,5,E,X,eE,yY,n,0,1.1365357,y,1,0.2663282,RSVPLG01,0.94,2023-09-12-22:25:04,11900,1,Experiment,2023-09-12_15h40.50.216
2,local,local,3,11,7,139,1,,,145,exp,NYYUZHUFSZESEFT,UFESSLNYXEFTZNZ,6,L,X,lL,yY,y,0,1.2437955,y,1,1.3115057,RSVPLG01,0.94,2023-09-12-22:25:04,11900,1,Experiment,2023-09-12_15h40.50.216
6,local,global,7,11,8,140,5,,,146,exp,HSZNEHTFELXTSLU,ZFFYLLETSTUUSHE,4,Y,X,yY,yY,y,1,0.3579438,y,1,0.1867493,RSVPLG01,0.94,2023-09-12-22:25:04,11900,1,Experiment,2023-09-12_15h40.50.216
3,local,local,7,11,9,141,2,,,147,exp,NUTULFNSLYZYTHS,NTSYLEYHLSUZXHU,6,E,X,eE,yY,e,1,0.8400114,y,1,0.1864192,RSVPLG01,0.94,2023-09-12-22:25:04,11900,1,Experiment,2023-09-12_15h40.50.216
9,global,local,7,11,10,142,8,,,148,exp,LTYNSUEYZSTFUZE,YUTHSFLYUZXFTZL,4,N,X,nN,yY,h,0,0.2586082,n,0,0.0746636,RSVPLG01,0.94,2023-09-12-22:25:04,11900,1,Experiment,2023-09-12_15h40.50.216
12,global,global,7,11,11,143,11,,,149,exp,TYTYEFLUSNUHXEH,NTLTHZEUSSUYYLN,6,F,X,fF,yY,f,1,0.6956103,y,1,0.0410755,RSVPLG01,0.94,2023-09-12-22:25:04,11900,1,Experiment,2023-09-12_15h40.50.216
3,local,local,7,12,0,144,2,,,150,exp,LNHNTSFYFESHZLY,NHYNUHZLFESXLEY,5,U,X,uU,yY,u,1,1.2703912,n,0,0.1549553,RSVPLG01,0.94,2023-09-12-22:25:04,11900,1,Experiment,2023-09-12_15h40.50.216
5,local,global,3,12,1,145,4,,,151,exp,ZSYSLHUXNTYUHZF,YYHTEFSSNFZTZHU,5,E,X,eE,yY,f,0,0.2835284,y,1,0.5213248,RSVPLG01,0.94,2023-09-12-22:25:04,11900,1,Experiment,2023-09-12_15h40.50.216
7,global,local,0,12,2,146,6,,,152,exp,EFHLNZFTSNUEUSH,FLSSEYUHLFTUTNH,6,Z,absent,zZ,nN,z,1,0.2946725,n,1,0.2076308,RSVPLG01,0.94,2023-09-12-22:25:04,11900,1,Experiment,2023-09-12_15h40.50.216
10,global,global,0,12,3,147,9,,,153,exp,FTSUTEZHNYNHEZS,EHFLNZFYYZETSHS,4,U,absent,uU,nN,u,1,0.7615755,y,0,0.0108951,RSVPLG01,0.94,2023-09-12-22:25:04,11900,1,Experiment,2023-09-12_15h40.50.216
5,local,global,3,12,4,148,4,,,154,exp,ZYNFSLTXUYZTLHN,TFLYENYHFUTHZLZ,5,E,X,eE,yY,e,1,0.511577,y,1,0.2406442,RSVPLG01,0.94,2023-09-12-22:25:04,11900,1,Experiment,2023-09-12_15h40.50.216
12,global,global,7,12,5,149,11,,,155,exp,NFUZSZELHEUXNYF,ZEUUTNZLHYHEYNF,5,S,X,sS,yY,z,0,0.2917585,y,1,0.6229878,RSVPLG01,0.94,2023-09-12-22:25:04,11900,1,Experiment,2023-09-12_15h40.50.216
11,global,global,3,12,6,150,10,,,156,exp,ULZHFYTXYENLTEH,ZHEUSNTLULYYZHN,5,F,X,fF,yY,f,1,0.3056351,n,0,0.1228327,RSVPLG01,0.94,2023-09-12-22:25:04,11900,1,Experiment,2023-09-12_15h40.50.216
7,global,local,0,12,7,151,6,,,157,exp,EEYFHUYTHZFTNNS,SFYENLYTSZTHNEF,6,U,absent,uU,nN,n,0,1.3360573,y,0,0.8904512,RSVPLG01,0.94,2023-09-12-22:25:04,11900,1,Experiment,2023-09-12_15h40.50.216
2,local,local,3,12,8,152,1,,,158,exp,FHEUNYZHULLETTF,NZHTLSFUXNFTLEE,6,S,X,sS,yY,s,1,0.4854768,n,0,0.4260728,RSVPLG01,0.94,2023-09-12-22:25:04,11900,1,Experiment,2023-09-12_15h40.50.216
1,local,local,0,12,9,153,0,,,159,exp,NLEFTUYFZSELZNY,SNTEFHTYLEFZYSL,6,H,absent,hH,nN,h,1,0.9971994,n,1,0.0769464,RSVPLG01,0.94,2023-09-12-22:25:04,11900,1,Experiment,2023-09-12_15h40.50.216
12,global,global,7,12,10,154,11,,,160,exp,FZSEYTLFTUZXLES,UFLSHEZEULFNSNZ,5,Y,X,yY,yY,y,1,0.6030723,y,1,0.1438038,RSVPLG01,0.94,2023-09-12-22:25:04,11900,1,Experiment,2023-09-12_15h40.50.216
1,local,local,0,12,11,155,0,,,161,exp,HNTFESHZYYTNEZL,ZTLTFUYHNYFHEZN,6,U,absent,uU,nN,n,0,1.6773333,y,0,0.5543762,RSVPLG01,0.94,2023-09-12-22:25:04,11900,1,Experiment,2023-09-12_15h40.50.216
11,global,global,3,13,0,156,10,,,162,exp,ZYUSEFLXHZTYFTS,SYLUNHHFTSUZTZY,5,E,X,eE,yY,f,0,0.3050888,y,1,0.1389742,RSVPLG01,0.94,2023-09-12-22:25:04,11900,1,Experiment,2023-09-12_15h40.50.216
9,global,local,7,13,1,157,8,,,163,exp,HSSHYUUZZTELLTF,UFHENZZTESLXHFU,5,Y,X,yY,yY,y,1,0.8749111,n,0,0.2976068,RSVPLG01,0.94,2023-09-12-22:25:04,11900,1,Experiment,2023-09-12_15h40.50.216
2,local,local,3,13,2,158,1,,,164,exp,ENFTYNHTZLZFHLU,THUTSUFXHFLNEEL,5,S,X,sS,yY,s,1,0.2887557,n,0,0.1701688,RSVPLG01,0.94,2023-09-12-22:25:04,11900,1,Experiment,2023-09-12_15h40.50.216
9,global,local,7,13,3,159,8,,,165,exp,UNNESZLHZLUYSHY,UZSTLFNLFUXHZYS,4,E,X,eE,yY,f,0,2.61267,y,1,0.1704566,RSVPLG01,0.94,2023-09-12-22:25:04,11900,1,Experiment,2023-09-12_15h40.50.216
10,global,global,0,13,4,160,9,,,166,exp,HZEUSTYNFNUTEYH,FZHELHYYZNFTUET,5,S,absent,sS,nN,l,0,1.8580566,n,1,0.2659338,RSVPLG01,0.94,2023-09-12-22:25:04,11900,1,Experiment,2023-09-12_15h40.50.216
10,global,global,0,13,5,161,9,,,167,exp,YYULNTHFFUHZNSL,YNLSFEHULNHZFSZ,6,T,absent,tT,nN,f,0,0.309229,n,1,0.2667545,RSVPLG01,0.94,2023-09-12-22:25:04,11900,1,Experiment,2023-09-12_15h40.50.216
4,local,global,0,13,6,162,3,,,168,exp,EYSTEZFSFLHLNHT,ELHTFUHTELNNYSS,6,U,absent,uU,nN,u,1,0.8272361,n,1,0.1555272,RSVPLG01,0.94,2023-09-12-22:25:04,11900,1,Experiment,2023-09-12_15h40.50.216
10,global,global,0,13,7,163,9,,,169,exp,FEELZHSSUFTZUTY,ETUNHYUFSSHZEZY,4,L,absent,lL,nN,h,0,0.5675332,n,1,0.1711743,RSVPLG01,0.94,2023-09-12-22:25:04,11900,1,Experiment,2023-09-12_15h40.50.216
9,global,local,7,13,8,164,8,,,170,exp,SUSELYHZFUNYEFZ,EHUSTZNNUZYXFYS,5,L,X,lL,yY,l,1,1.3353898,n,0,0.1390778,RSVPLG01,0.94,2023-09-12-22:25:04,11900,1,Experiment,2023-09-12_15h40.50.216
8,global,local,3,13,9,165,7,,,171,exp,UUEFTYSZELNSZLN,ZLUTFHNSXSLTFEU,6,Y,X,yY,yY,y,1,0.7558596,n,0,0.106889,RSVPLG01,0.94,2023-09-12-22:25:04,11900,1,Experiment,2023-09-12_15h40.50.216
6,local,global,7,13,10,166,5,,,172,exp,SNNZLTFLEZYUXFY,LZFSLHUSYZENNEU,6,H,X,hH,yY,h,1,1.0572211,y,1,0.2813311,RSVPLG01,0.94,2023-09-12-22:25:04,11900,1,Experiment,2023-09-12_15h40.50.216
9,global,local,7,13,11,167,8,,,173,exp,FENUHYUESLZZLSN,ZNUUTYSZFELXFNS,5,H,X,hH,yY,h,1,1.969099,y,1,0.0729372,RSVPLG01,0.94,2023-09-12-22:25:04,11900,1,Experiment,2023-09-12_15h40.50.216
4,local,global,0,14,0,168,3,,,174,exp,ZEEUFNULSYLFHYZ,YEZYFTHSLFZSHLU,6,T,absent,tT,nN,t,1,0.7924576,y,0,0.065005,RSVPLG01,0.94,2023-09-12-22:25:04,11900,1,Experiment,2023-09-12_15h40.50.216
9,global,local,7,14,1,169,8,,,175,exp,UFNLESTNUYEYLFZ,NUUTEHENFYZLXFT,6,S,X,sS,yY,s,1,0.27012,n,0,0.0758635,RSVPLG01,0.94,2023-09-12-22:25:04,11900,1,Experiment,2023-09-12_15h40.50.216
2,local,local,3,14,2,170,1,,,176,exp,ZTULFNLUFYEYEZH,EFTUYSFLXEZYTZL,6,S,X,sS,yY,s,1,0.2881532,y,1,0.190255,RSVPLG01,0.94,2023-09-12-22:25:04,11900,1,Experiment,2023-09-12_15h40.50.216
5,local,global,3,14,3,171,4,,,177,exp,TTLZUEHSXYFULZS,SYZFTNUSYFHTHUL,6,N,X,nN,yY,n,1,0.6476532,y,1,1.1462395,RSVPLG01,0.94,2023-09-12-22:25:04,11900,1,Experiment,2023-09-12_15h40.50.216
7,global,local,0,14,4,172,6,,,178,exp,YFZZSYTTNENELHL,TEYLUNZZHELFFHN,5,S,absent,sS,nN,s,1,0.345227,n,1,0.7156102,RSVPLG01,0.94,2023-09-12-22:25:04,11900,1,Experiment,2023-09-12_15h40.50.216
2,local,local,3,14,5,173,1,,,179,exp,FLNSUZNFYHZEHUL,EUFTLEXZHYFNHYN,4,T,X,tT,yY,t,1,0.1679938,n,0,0.3148206,RSVPLG01,0.94,2023-09-12-22:25:04,11900,1,Experiment,2023-09-12_15h40.50.216
10,global,global,0,14,6,174,9,,,180,exp,HNUNYTLZFFLYEEU,LZUFHSYEHYLZNEU,6,T,absent,tT,nN,s,0,0.3006776,n,1,0.9554119,RSVPLG01,0.94,2023-09-12-22:25:04,11900,1,Experiment,2023-09-12_15h40.50.216
4,local,global,0,14,7,175,3,,,181,exp,LNTEHZNFZSFSULU,TLNEYUSSTZLFNFZ,5,Y,absent,yY,nN,t,0,0.8237553,n,1,0.0803363,RSVPLG01,0.94,2023-09-12-22:25:04,11900,1,Experiment,2023-09-12_15h40.50.216
2,local,local,3,14,8,176,1,,,182,exp,HLFENFZTHYSTSLY,SEHZUTYXFEFLLZH,5,U,X,uU,yY,u,1,1.1394432,n,0,0.1708086,RSVPLG01,0.94,2023-09-12-22:25:04,11900,1,Experiment,2023-09-12_15h40.50.216
11,global,global,3,14,9,177,10,,,183,exp,LHTSEUSXHULTZFY,FUHHNSZYYUSFLTZ,5,E,X,eE,yY,s,0,0.9569749,y,1,0.4591379,RSVPLG01,0.94,2023-09-12-22:25:04,11900,1,Experiment,2023-09-12_15h40.50.216
9,global,local,7,14,10,178,8,,,184,exp,YULFESHFSHUYTNL,SYNUZLFULYSXNTF,5,E,X,eE,yY,f,0,0.49788,n,0,0.0739907,RSVPLG01,0.94,2023-09-12-22:25:04,11900,1,Experiment,2023-09-12_15h40.50.216
6,local,global,7,14,11,179,5,,,185,exp,ENHFEHNLLTXUTSS,LZSYZUEHSTNLTNE,4,Y,X,yY,yY,y,1,0.3140626,y,1,0.1399999,RSVPLG01,0.94,2023-09-12-22:25:04,11900,1,Experiment,2023-09-12_15h40.50.216
3,local,local,7,15,0,180,2,,,186,exp,ZSNNZTSYUHLEYLE,SZUYHFNNLUSLXEY,6,F,X,fF,yY,f,1,0.2857405,n,0,1.0326361,RSVPLG01,0.94,2023-09-12-22:25:04,11900,1,Experiment,2023-09-12_15h40.50.216
9,global,local,7,15,1,181,8,,,187,exp,YNFHLFLSNZYESTE,TSNUYFSZNLXLTEE,4,H,X,hH,yY,h,1,0.924925,y,1,0.058481,RSVPLG01,0.94,2023-09-12-22:25:04,11900,1,Experiment,2023-09-12_15h40.50.216
8,global,local,3,15,2,182,7,,,188,exp,SHSFZNTNLYLUHTY,NZLEUZXSTSHHUNL,4,F,X,fF,yY,f,1,1.817255,n,0,0.2664076,RSVPLG01,0.94,2023-09-12-22:25:04,11900,1,Experiment,2023-09-12_15h40.50.216
4,local,global,0,15,3,183,3,,,189,exp,EFNTLHFLEUUYYNH,EYZSFNZNLFEUUHH,4,S,absent,sS,nN,s,1,0.5870149,n,1,0.12131,RSVPLG01,0.94,2023-09-12-22:25:04,11900,1,Experiment,2023-09-12_15h40.50.216
11,global,global,3,15,4,184,10,,,190,exp,YNEZFSXTUTLUYES,TYUHTLYNFEUSSEL,4,Z,X,zZ,yY,z,1,0.3741167,n,0,0.1863334,RSVPLG01,0.94,2023-09-12-22:25:04,11900,1,Experiment,2023-09-12_15h40.50.216
7,global,local,0,15,5,185,6,,,191,exp,NLNFHTUYYHLSSZU,ZSNYUENYFLLUHSZ,6,T,absent,tT,nN,t,1,0.7215552,y,0,0.5913915,RSVPLG01,0.94,2023-09-12-22:25:04,11900,1,Experiment,2023-09-12_15h40.50.216
4,local,global,0,15,6,186,3,,,192,exp,FHUZELTYFHUNYZN,YUZHYSEHNEFTZTN,6,S,absent,sS,nN,s,1,0.7935993,y,0,0.1079256,RSVPLG01,0.94,2023-09-12-22:25:04,11900,1,Experiment,2023-09-12_15h40.50.216
11,global,global,3,15,7,187,10,,,193,exp,ELTHZEXUSUNYNST,UTSFEEULZLNZTYY,4,H,X,hH,yY,h,1,0.2097378,n,0,0.0942519,RSVPLG01,0.94,2023-09-12-22:25:04,11900,1,Experiment,2023-09-12_15h40.50.216
8,global,local,3,15,8,188,7,,,194,exp,SHZFFEUNZSYHTTN,UYZYNLSZXTSHNHF,6,E,X,eE,yY,e,1,1.4175327,y,1,0.3639082,RSVPLG01,0.94,2023-09-12-22:25:04,11900,1,Experiment,2023-09-12_15h40.50.216
4,local,global,0,15,9,189,3,,,195,exp,FULESYUETHTLHYZ,TZHUNLEHYTFYZEU,5,N,absent,nN,nN,n,1,0.6492972,n,1,0.1872141,RSVPLG01,0.94,2023-09-12-22:25:04,11900,1,Experiment,2023-09-12_15h40.50.216
6,local,global,7,15,10,190,5,,,196,exp,ZNSHSEZEFTXFTNU,SYFLUENTUEZSNYF,4,L,X,lL,yY,l,1,0.4430219,y,1,0.1068814,RSVPLG01,0.94,2023-09-12-22:25:04,11900,1,Experiment,2023-09-12_15h40.50.216
3,local,local,7,15,11,191,2,,,197,exp,ZFNSNYZFESEHLLH,ELFNTUTHEHZSXFZ,6,U,X,uU,yY,u,1,0.9441766,n,0,0.1698847,RSVPLG01,0.94,2023-09-12-22:25:04,11900,1,Experiment,2023-09-12_15h40.50.216
10,global,global,0,16,0,192,9,,,198,exp,SYFENZUYTSFLUNL,NFSHZYNULTZUTYF,4,E,absent,eE,nN,f,0,0.6232238,y,0,0.4906542,RSVPLG01,0.94,2023-09-12-22:25:04,11900,1,Experiment,2023-09-12_15h40.50.216
7,global,local,0,16,1,193,6,,,199,exp,SNLFUYTZFZTHNHL,ULZTSENHHTFSLFN,6,Y,absent,yY,nN,y,1,0.8112869,n,1,0.1077698,RSVPLG01,0.94,2023-09-12-22:25:04,11900,1,Experiment,2023-09-12_15h40.50.216
1,local,local,0,16,2,194,0,,,200,exp,UFSNEFLYYHZNLZS,NUUHTFLYNFSSZYL,5,T,absent,tT,nN,t,1,0.6046912,n,1,0.088987,RSVPLG01,0.94,2023-09-12-22:25:04,11900,1,Experiment,2023-09-12_15h40.50.216
12,global,global,7,16,3,195,11,,,201,exp,YTTNYUNLFZSSXFZ,TFSLSEFNYNLZHYZ,6,U,X,uU,yY,u,1,0.8482807,y,1,0.0252792,RSVPLG01,0.94,2023-09-12-22:25:04,11900,1,Experiment,2023-09-12_15h40.50.216
1,local,local,0,16,4,196,0,,,202,exp,FNSTYLNEYUFSZUT,ZSENUHYYESFUFNT,6,H,absent,hH,nN,h,1,0.7696507,n,1,0.0751899,RSVPLG01,0.94,2023-09-12-22:25:04,11900,1,Experiment,2023-09-12_15h40.50.216
6,local,global,7,16,5,197,5,,,203,exp,ENULHZSFSNXZUET,SZNYNUSUTFETZEH,4,Y,X,yY,yY,y,1,0.1857776,y,1,0.0099274,RSVPLG01,0.94,2023-09-12-22:25:04,11900,1,Experiment,2023-09-12_15h40.50.216
1,local,local,0,16,6,198,0,,,204,exp,HUYFEYUSHZTNSNT,HTUHLZSFFSNNTYZ,5,L,absent,lL,nN,l,1,0.9415962,n,1,0.0923596,RSVPLG01,0.94,2023-09-12-22:25:04,11900,1,Experiment,2023-09-12_15h40.50.216
4,local,global,0,16,7,199,3,,,205,exp,SSEZNYFTNUEHHZF,FHFSHLTNSTEUNUZ,6,L,absent,lL,nN,l,1,0.9832778,n,1,0.0896182,RSVPLG01,0.94,2023-09-12-22:25:04,11900,1,Experiment,2023-09-12_15h40.50.216
2,local,local,3,16,8,200,1,,,206,exp,LUZNFHZLSTSTFHY,UTTEYFXULZLYSZS,4,E,X,eE,yY,f,0,0.8587757,n,0,0.0589026,RSVPLG01,0.94,2023-09-12-22:25:04,11900,1,Experiment,2023-09-12_15h40.50.216
10,global,global,0,16,9,201,9,,,207,exp,TLYNHUZTFYSFLZH,ULFEYSLHZFZYTHU,4,N,absent,nN,nN,e,0,0.2592949,y,0,0.298413,RSVPLG01,0.94,2023-09-12-22:25:04,11900,1,Experiment,2023-09-12_15h40.50.216
2,local,local,3,16,10,202,1,,,208,exp,LHEYESLZTHZTYFF,HYFZNUFLXLTEHEZ,6,U,X,uU,yY,s,0,0.2702753,y,1,0.0427601,RSVPLG01,0.94,2023-09-12-22:25:04,11900,1,Experiment,2023-09-12_15h40.50.216
3,local,local,7,16,11,203,2,,,209,exp,NHEZZSLLEUTHFTU,EHFHNYZFZTTEXLU,6,Y,X,yY,yY,h,0,0.3222587,y,1,0.0718275,RSVPLG01,0.94,2023-09-12-22:25:04,11900,1,Experiment,2023-09-12_15h40.50.216
1,local,local,0,17,0,204,0,,,210,exp,HZESYNLTNSLZFHT,TEETUHNSZSFLHFL,5,U,absent,uU,nN,u,1,1.0556843,n,1,0.1435424,RSVPLG01,0.94,2023-09-12-22:25:04,11900,1,Experiment,2023-09-12_15h40.50.216
8,global,local,3,17,1,205,7,,,211,exp,YSZHEFYLEUHSZTU,LSHTENTYXUEHZSU,6,F,X,fF,yY,f,1,0.7623574,n,0,0.0907507,RSVPLG01,0.94,2023-09-12-22:25:04,11900,1,Experiment,2023-09-12_15h40.50.216
4,local,global,0,17,2,206,3,,,212,exp,LHFSTLZYNYUSNZU,YFZZEHSLLNNYHSU,5,E,absent,eE,nN,e,1,0.3353657,n,1,0.08892,RSVPLG01,0.94,2023-09-12-22:25:04,11900,1,Experiment,2023-09-12_15h40.50.216
12,global,global,7,17,3,207,11,,,213,exp,FYTLHENENTUXZLU,YFTNSLFEETZUYNU,5,H,X,hH,yY,h,1,0.5643613,y,1,0.0279412,RSVPLG01,0.94,2023-09-12-22:25:04,11900,1,Experiment,2023-09-12_15h40.50.216
9,global,local,7,17,4,208,8,,,214,exp,FYHZTNUEELHNTFL,FNLSLHYUNEXFEYU,4,Z,X,zZ,yY,y,0,0.7403949,n,0,0.0792327,RSVPLG01,0.94,2023-09-12-22:25:04,11900,1,Experiment,2023-09-12_15h40.50.216
7,global,local,0,17,5,209,6,,,215,exp,HNYSFUSNTUZTLYH,YUNZEHULZLSTSHT,5,F,absent,fF,nN,f,1,0.8912129,n,1,0.0584061,RSVPLG01,0.94,2023-09-12-22:25:04,11900,1,Experiment,2023-09-12_15h40.50.216
11,global,global,3,17,6,210,10,,,216,exp,TYSFNZYXEFZTHSU,FUHULZZEHYTSYST,5,N,X,nN,yY,l,0,0.4600937,y,1,0.1389978,RSVPLG01,0.94,2023-09-12-22:25:04,11900,1,Experiment,2023-09-12_15h40.50.216
10,global,global,0,17,7,211,9,,,217,exp,ZSYZUNUTLTYFSEE,SZSYFHLFUTEETUL,6,N,absent,nN,nN,h,0,0.2817842,n,1,0.0574132,RSVPLG01,0.94,2023-09-12-22:25:04,11900,1,Experiment,2023-09-12_15h40.50.216
11,global,global,3,17,8,212,10,,,218,exp,YEFHNZNFXLLSYEH,LLFSYTNUEHSFHYN,6,Z,X,zZ,yY,z,1,0.8655248,y,1,0.0726068,RSVPLG01,0.94,2023-09-12-22:25:04,11900,1,Experiment,2023-09-12_15h40.50.216
5,local,global,3,17,9,213,4,,,219,exp,YNFYUFNXZETSSZL,ZFSLHETYNSYTLEZ,5,H,X,hH,yY,h,1,0.6669331,y,1,0.0284121,RSVPLG01,0.94,2023-09-12-22:25:04,11900,1,Experiment,2023-09-12_15h40.50.216
3,local,local,7,17,10,214,2,,,220,exp,ZTFSZYNUETLULSF,UEFFSHNNLZZSXUL,6,H,X,hH,yY,h,1,0.6298788,n,0,0.6669471,RSVPLG01,0.94,2023-09-12-22:25:04,11900,1,Experiment,2023-09-12_15h40.50.216
1,local,local,0,17,11,215,0,,,221,exp,SNYYTFLZFEZNESL,NUSFHEUYLELZNSY,5,H,absent,hH,nN,h,1,0.6882216,n,1,0.0919294,RSVPLG01,0.94,2023-09-12-22:25:04,11900,1,Experiment,2023-09-12_15h40.50.216
5,local,global,3,18,0,216,4,,,222,exp,ZTLYSUYNXHFHSLZ,YFLFSEZTLHYHZNN,6,E,X,eE,yY,e,1,0.6846561,n,0,0.0885812,RSVPLG01,0.94,2023-09-12-22:25:04,11900,1,Experiment,2023-09-12_15h40.50.216
1,local,local,0,18,1,217,0,,,223,exp,LEFNEHUYNFZYUZT,YZTYUSTNNELFEUF,6,S,absent,sS,nN,s,1,0.7689921,n,1,0.1075561,RSVPLG01,0.94,2023-09-12-22:25:04,11900,1,Experiment,2023-09-12_15h40.50.216
9,global,local,7,18,2,218,8,,,224,exp,FNNFSULLTHETESH,FLZEZYTSLSENXHH,6,U,X,uU,yY,u,1,0.522048,y,1,0.0744923,RSVPLG01,0.94,2023-09-12-22:25:04,11900,1,Experiment,2023-09-12_15h40.50.216
6,local,global,7,18,3,219,5,,,225,exp,ETNEFZLYHZSXYLT,TLYEUYLZSETNHZS,5,U,X,uU,yY,u,1,0.4598308,y,1,0.0094589,RSVPLG01,0.94,2023-09-12-22:25:04,11900,1,Experiment,2023-09-12_15h40.50.216
2,local,local,3,18,4,220,1,,,226,exp,HETLFSTSYFZUZHY,TSSNUFXYHEEYFTH,4,N,X,nN,yY,s,0,0.27151,n,0,0.2355185,RSVPLG01,0.94,2023-09-12-22:25:04,11900,1,Experiment,2023-09-12_15h40.50.216
4,local,global,0,18,5,221,3,,,227,exp,ZNFUEYSLEFHULZS,HZLUUTZLEFNENSS,6,T,absent,tT,nN,t,1,0.470629,y,0,0.0102668,RSVPLG01,0.94,2023-09-12-22:25:04,11900,1,Experiment,2023-09-12_15h40.50.216
1,local,local,0,18,6,222,0,,,228,exp,TFETNYULZYFLZUH,ZLZFSHYFETUTUHE,5,S,absent,sS,nN,s,1,0.1079896,y,0,0.6677318,RSVPLG01,0.94,2023-09-12-22:25:04,11900,1,Experiment,2023-09-12_15h40.50.216
4,local,global,0,18,7,223,3,,,229,exp,ETFNLHYSNUSYEHT,TSNUZNYUHSHYFET,5,Z,absent,zZ,nN,z,1,0.5015232,n,1,0.0268987,RSVPLG01,0.94,2023-09-12-22:25:04,11900,1,Experiment,2023-09-12_15h40.50.216
6,local,global,7,18,8,224,5,,,230,exp,YUYLFHUSNLNXTTS,YSHSZUHYNLTNELU,5,Z,X,zZ,yY,s,0,0.7552317,y,1,0.5699434,RSVPLG01,0.94,2023-09-12-22:25:04,11900,1,Experiment,2023-09-12_15h40.50.216
7,global,local,0,18,9,225,6,,,231,exp,FLESLYFEZTUTUNN,FNFHEYZTNLZLYUT,4,S,absent,sS,nN,h,0,0.0578187,y,0,1.0226909,RSVPLG01,0.94,2023-09-12-22:25:04,11900,1,Experiment,2023-09-12_15h40.50.216
2,local,local,3,18,10,226,1,,,232,exp,NNLSFFEYYZZLEUH,UHNTYZXLULZNEHY,4,T,X,tT,yY,t,1,0.6338711,n,0,0.0893988,RSVPLG01,0.94,2023-09-12-22:25:04,11900,1,Experiment,2023-09-12_15h40.50.216
1,local,local,0,18,11,227,0,,,233,exp,UTSHNEFFYSZUNYE,ZSFLFESTENYZYNU,4,L,absent,lL,nN,h,0,2.4532267,y,0,0.3462084,RSVPLG01,0.94,2023-09-12-22:25:04,11900,1,Experiment,2023-09-12_15h40.50.216
1,local,local,0,19,0,228,0,,,234,exp,UZNYNSTTYLLUZHE,UNYTHFNETZHEZLL,6,F,absent,fF,nN,f,1,0.2518772,n,1,0.073528,RSVPLG01,0.94,2023-09-12-22:25:04,11900,1,Experiment,2023-09-12_15h40.50.216
1,local,local,0,19,1,229,0,,,235,exp,EHZNESZUTLHSTUY,HUSFYEZZLTELUSY,4,F,absent,fF,nN,f,1,0.8269711,n,1,0.3806456,RSVPLG01,0.94,2023-09-12-22:25:04,11900,1,Experiment,2023-09-12_15h40.50.216
12,global,global,7,19,2,230,11,,,236,exp,HTENFYZNHZTLXEU,NLLZHSHTNEUFZEF,6,Y,X,yY,yY,y,1,0.6281054,y,1,0.106338,RSVPLG01,0.94,2023-09-12-22:25:04,11900,1,Experiment,2023-09-12_15h40.50.216
6,local,global,7,19,3,231,5,,,237,exp,YLZHSUYNHZFEXNE,NHSFZTHYZLFLNYS,6,T,X,tT,yY,t,1,0.7559751,y,1,0.2173599,RSVPLG01,0.94,2023-09-12-22:25:04,11900,1,Experiment,2023-09-12_15h40.50.216
9,global,local,7,19,4,232,8,,,238,exp,LTZFSELUNNYEYFZ,UTYEHLFNTFZXUNY,5,S,X,sS,yY,s,1,0.3848336,n,0,0.1222721,RSVPLG01,0.94,2023-09-12-22:25:04,11900,1,Experiment,2023-09-12_15h40.50.216
9,global,local,7,19,5,233,8,,,239,exp,LTFESUFZNNHLHTZ,NNHTEYLSLESZXZF,6,U,X,uU,yY,u,1,1.1624194,y,1,0.3160494,RSVPLG01,0.94,2023-09-12-22:25:04,11900,1,Experiment,2023-09-12_15h40.50.216
6,local,global,7,19,6,234,5,,,240,exp,ESEUNSYZHYXLTHN,LSZFYSNNTZEYLEH,4,F,X,fF,yY,f,1,0.4518088,y,1,0.0256273,RSVPLG01,0.94,2023-09-12-22:25:04,11900,1,Experiment,2023-09-12_15h40.50.216
11,global,global,3,19,7,235,10,,,241,exp,FUSTUZLTXELESHF,UENSSYLTHEFNHFU,6,Z,X,zZ,yY,e,0,2.8710263,y,1,1.7435143,RSVPLG01,0.94,2023-09-12-22:25:04,11900,1,Experiment,2023-09-12_15h40.50.216
3,local,local,7,19,8,236,2,,,242,exp,ZNYELULFTHYFHZN,YFUSHLFHZNXYUZN,4,S,X,sS,yY,s,1,0.2842079,n,0,0.2986338,RSVPLG01,0.94,2023-09-12-22:25:04,11900,1,Experiment,2023-09-12_15h40.50.216
2,local,local,3,19,9,237,1,,,243,exp,ZNFYLUNYLESETFS,TSZNLHSNXFFYYLT,6,H,X,hH,yY,h,1,0.6210834,y,1,0.1061073,RSVPLG01,0.94,2023-09-12-22:25:04,11900,1,Experiment,2023-09-12_15h40.50.216
1,local,local,0,19,10,238,0,,,244,exp,SLEFZTUEFHHYYUZ,HZFYLNEZHSUFUYE,6,N,absent,nN,nN,n,1,0.3231974,n,1,0.0103375,RSVPLG01,0.94,2023-09-12-22:25:04,11900,1,Experiment,2023-09-12_15h40.50.216
10,global,global,0,19,11,239,9,,,245,exp,LHLNHFZTYSTEYSF,ZLHUFZEETYTSLFY,4,N,absent,nN,nN,h,0,0.3850612,n,1,0.0463815,RSVPLG01,0.94,2023-09-12-22:25:04,11900,1,Experiment,2023-09-12_15h40.50.216