row,t1_level,t2_level,t2_lag,.thisRepN,.thisTrialN,.thisN,.thisIndex,thisRow.t,notes,trial,trial_type,global_letters,local_letters,t1_pos,t1,t2,t1_corr,t2_corr,t1_resp,t1_acc,t1_rt,t2_resp,t2_acc,t2_rt,exp,ver,mod-utc,sub,sess,blocktyp,datetime
10,global,global,0,0,0,0,9,,,1,warmup,HUZZULYFHNSSNYT,HHTUZEFSTSYUZYF,6,L,absent,lL,nN,l,1,0.514409,n,1,0.4567682,RSVPLG01,0.94,2023-09-12-22:22:52,90014,1,Experiment,2023-09-12_15h49.57.046
1,local,local,0,0,1,1,0,,,2,warmup,SZYHNUSUYHZFEEF,YHFFTSESEHZLZUY,5,T,absent,tT,nN,t,1,0.504543,n,1,0.2808502,RSVPLG01,0.94,2023-09-12-22:22:52,90014,1,Experiment,2023-09-12_15h49.57.046
3,local,local,7,0,2,2,2,,,3,warmup,ENZHFSTFSYNLEZL,ZNLUYLEYFTXNETF,4,U,X,uU,yY,u,1,0.6291108,y,1,0.4971808,RSVPLG01,0.94,2023-09-12-22:22:52,90014,1,Experiment,2023-09-12_15h49.57.046
6,local,global,7,0,3,3,5,,,4,warmup,FENTZHULTUFXELN,LUETSEYTUFNYHNL,5,S,X,sS,yY,s,1,0.4247024,n,0,0.262935,RSVPLG01,0.94,2023-09-12-22:22:52,90014,1,Experiment,2023-09-12_15h49.57.046
9,global,local,7,0,4,4,8,,,5,warmup,UHYNFUYZEEZTSSN,ZUSSLYTENYHXNTE,5,F,X,fF,yY,f,1,0.5315172,y,1,0.3491298,RSVPLG01,0.94,2023-09-12-22:22:52,90014,1,Experiment,2023-09-12_15h49.57.046
8,global,local,3,0,0,0,7,,,6,exp,HFSSYETNUYULNTF,SFLNUZSHXYTTYLN,6,E,X,eE,yY,y,0,0.7553022,n,0,0.2729955,RSVPLG01,0.94,2023-09-12-22:22:52,90014,1,Experiment,2023-09-12_15h49.57.046
1,local,local,0,0,1,1,0,,,7,exp,ZEULTEHHTFFSZSY,FUSNSUYEFEYZTHH,4,N,absent,nN,nN,n,1,0.4928477,n,1,0.2730015,RSVPLG01,0.94,2023-09-12-22:22:52,90014,1,Experiment,2023-09-12_15h49.57.046
2,local,local,3,0,2,2,1,,,8,exp,ZLHTUYUHNNFTEZE,NUELLSTZXUFNEHT,6,S,X,sS,yY,s,1,0.4002144,n,0,0.2529153,RSVPLG01,0.94,2023-09-12-22:22:52,90014,1,Experiment,2023-09-12_15h49.57.046
8,global,local,3,0,3,3,7,,,9,exp,UZLEHSTFZYETLFY,FTFLNUTXYLSZZYU,5,H,X,hH,yY,h,1,0.4766433,n,0,0.2682943,RSVPLG01,0.94,2023-09-12-22:22:52,90014,1,Experiment,2023-09-12_15h49.57.046
4,local,global,0,0,4,4,3,,,10,exp,YSNHESFTZFHZYLL,HLLFUZSHYFNZTNS,5,U,absent,uU,nN,u,1,0.5003182,n,1,0.3705043,RSVPLG01,0.94,2023-09-12-22:22:52,90014,1,Experiment,2023-09-12_15h49.57.046
10,global,global,0,0,5,5,9,,,11,exp,UYSZNEFHTFHNUST,ESULNSHUFETYFYT,4,Z,absent,zZ,nN,z,1,0.3814472,n,1,0.2711217,RSVPLG01,0.94,2023-09-12-22:22:52,90014,1,Experiment,2023-09-12_15h49.57.046
2,local,local,3,0,6,6,1,,,12,exp,FZNFULYETNTHYUE,TZTZUSFYXNHYUNE,6,S,X,sS,yY,s,1,0.4493484,y,1,0.3713005,RSVPLG01,0.94,2023-09-12-22:22:52,90014,1,Experiment,2023-09-12_15h49.57.046
12,global,global,7,0,7,7,11,,,13,exp,TEZZLSUYFYTHXFE,EUFYFNZLHZETLHU,6,S,X,sS,yY,s,1,1.1258103,n,0,0.2835584,RSVPLG01,0.94,2023-09-12-22:22:52,90014,1,Experiment,2023-09-12_15h49.57.046
2,local,local,3,0,8,8,1,,,14,exp,LLUHUETNSNTFESY,YSUZUNXFETLFNSY,4,Z,X,zZ,yY,z,1,0.4452897,y,1,0.3224274,RSVPLG01,0.94,2023-09-12-22:22:52,90014,1,Experiment,2023-09-12_15h49.57.046
11,global,global,3,0,9,9,10,,,15,exp,HFHEZLNFXZEYUNY,NUNYZSTETFZEHFH,6,L,X,lL,yY,l,1,0.5521692,y,1,0.3952748,RSVPLG01,0.94,2023-09-12-22:22:52,90014,1,Experiment,2023-09-12_15h49.57.046
10,global,global,0,0,10,10,9,,,16,exp,LHLTFZEUHEYSTUZ,HZUTNLYUTEYESZL,5,F,absent,fF,nN,f,1,0.3590306,n,1,0.2642694,RSVPLG01,0.94,2023-09-12-22:22:52,90014,1,Experiment,2023-09-12_15h49.57.046
5,local,global,3,0,11,11,4,,,17,exp,ZZNHSTHLXFYNFUY,SHHFYEZUSUNFLNL,6,E,X,eE,yY,e,1,0.3308008,n,0,0.2513437,RSVPLG01,0.94,2023-09-12-22:22:52,90014,1,Experiment,2023-09-12_15h49.57.046
6,local,global,7,1,0,12,5,,,18,exp,HUYNZFTYFHUXTES,NYFULTTYNUHSSHF,5,L,X,lL,yY,l,1,0.4423081,n,0,0.3964823,RSVPLG01,0.94,2023-09-12-22:22:52,90014,1,Experiment,2023-09-12_15h49.57.046
12,global,global,7,1,1,13,11,,,19,exp,LFUNEZHZHYXTTFL,FHUSEZETTYUFLZL,4,N,X,nN,yY,n,1,0.4135894,y,1,0.2680061,RSVPLG01,0.94,2023-09-12-22:22:52,90014,1,Experiment,2023-09-12_15h49.57.046
9,global,local,7,1,2,14,8,,,20,exp,TUUZNYTSNSLFEEF,LTSHNTNLSEXYFFE,4,Z,X,zZ,yY,z,1,0.3784245,n,0,0.6751513,RSVPLG01,0.94,2023-09-12-22:22:52,90014,1,Experiment,2023-09-12_15h49.57.046
8,global,local,3,1,3,15,7,,,21,exp,HHNTNEEZSYFUSYF,YHNLNSXFZEZSYHU,4,T,X,tT,yY,t,1,0.4196512,n,0,0.7860927,RSVPLG01,0.94,2023-09-12-22:22:52,90014,1,Experiment,2023-09-12_15h49.57.046
3,local,local,7,1,4,16,2,,,22,exp,SHUFTHYUZFYNZEN,YZUSLNSHHFNXZYE,5,L,X,lL,yY,l,1,0.8678487,y,1,0.3138703,RSVPLG01,0.94,2023-09-12-22:22:52,90014,1,Experiment,2023-09-12_15h49.57.046
9,global,local,7,1,5,17,8,,,23,exp,FTLUNZHYHUTYFZL,ZFSHEYULLZUXFYS,5,N,X,nN,yY,n,1,0.5544332,y,1,1.1372765,RSVPLG01,0.94,2023-09-12-22:22:52,90014,1,Experiment,2023-09-12_15h49.57.046
9,global,local,7,1,6,18,8,,,24,exp,SNNZFEFSUHLYYHE,YUUTHFFENEXHYSL,4,Z,X,zZ,yY,t,0,1.0632606,n,0,0.3294249,RSVPLG01,0.94,2023-09-12-22:22:52,90014,1,Experiment,2023-09-12_15h49.57.046
4,local,global,0,1,7,19,3,,,25,exp,THUZUSYFHEYTFLL,ZETTLNYEHUZFYHU,6,N,absent,nN,nN,n,1,0.5365433,n,1,0.1946542,RSVPLG01,0.94,2023-09-12-22:22:52,90014,1,Experiment,2023-09-12_15h49.57.046
8,global,local,3,1,8,20,7,,,26,exp,YSYTUEHLNSNFUTF,YTLNSZTLXYUHNSH,6,E,X,eE,yY,e,1,0.4598997,n,0,0.2045484,RSVPLG01,0.94,2023-09-12-22:22:52,90014,1,Experiment,2023-09-12_15h49.57.046
1,local,local,0,1,9,21,0,,,27,exp,ZUYTUFNLNHLHYZS,NUZNUESLHYYTZLT,6,E,absent,eE,nN,e,1,0.4205554,n,1,0.240985,RSVPLG01,0.94,2023-09-12-22:22:52,90014,1,Experiment,2023-09-12_15h49.57.046
12,global,global,7,1,10,22,11,,,28,exp,HLLUFZNENFXSYSY,YZFTHSENLNSLFYZ,4,U,X,uU,yY,u,1,1.5716606,y,1,0.5617116,RSVPLG01,0.94,2023-09-12-22:22:52,90014,1,Experiment,2023-09-12_15h49.57.046
10,global,global,0,1,11,23,9,,,29,exp,UFTEZHNENLUZTSF,UEZLSYNLTNZTEUS,6,H,absent,hH,nN,n,0,1.1444662,n,1,0.6095189,RSVPLG01,0.94,2023-09-12-22:22:52,90014,1,Experiment,2023-09-12_15h49.57.046
1,local,local,0,2,0,24,0,,,30,exp,EZZSTLYELSFYUUF,FZESHSYFYLLZNUE,5,H,absent,hH,nN,h,1,0.4406191,n,1,0.1636756,RSVPLG01,0.94,2023-09-12-22:22:52,90014,1,Experiment,2023-09-12_15h49.57.046
7,global,local,0,2,1,25,6,,,31,exp,NLUTSZHHLNFTYYU,FTLZEUHHTFNUYNL,5,S,absent,sS,nN,e,0,0.3962666,y,0,0.4656581,RSVPLG01,0.94,2023-09-12-22:22:52,90014,1,Experiment,2023-09-12_15h49.57.046
6,local,global,7,2,2,26,5,,,32,exp,YSUEYNNZUTXHFST,UYHLTSFYUFHNZNS,4,L,X,lL,yY,l,1,0.34974,n,0,0.082328,RSVPLG01,0.94,2023-09-12-22:22:52,90014,1,Experiment,2023-09-12_15h49.57.046
12,global,global,7,2,3,27,11,,,33,exp,HLZSNYEHTSETXNU,THLEEFNZHSTUZUS,6,Y,X,yY,yY,y,1,0.8386504,y,1,0.2653511,RSVPLG01,0.94,2023-09-12-22:22:52,90014,1,Experiment,2023-09-12_15h49.57.046
11,global,global,3,2,4,28,10,,,34,exp,ZUESTZXEYUNFFTH,EUNLYFTNHEUYHZZ,4,S,X,sS,yY,s,1,1.0904338,n,0,0.2652004,RSVPLG01,0.94,2023-09-12-22:22:52,90014,1,Experiment,2023-09-12_15h49.57.046
6,local,global,7,2,5,29,5,,,35,exp,HUEZYFLTZSLSXEY,LEHEZNTULSSHUYY,6,N,X,nN,yY,n,1,0.5607965,y,1,1.1388656,RSVPLG01,0.94,2023-09-12-22:22:52,90014,1,Experiment,2023-09-12_15h49.57.046
5,local,global,3,2,6,30,4,,,36,exp,FEZUSYHTXHTSLLF,LSEFUNTUTEZHFLS,6,N,X,nN,yY,n,1,0.5221561,n,0,0.3632732,RSVPLG01,0.94,2023-09-12-22:22:52,90014,1,Experiment,2023-09-12_15h49.57.046
3,local,local,7,2,7,31,2,,,37,exp,YSZNYUFFHTNETSZ,EFYSTLYFZNZSXHN,6,L,X,lL,yY,l,1,0.3965006,y,1,0.206711,RSVPLG01,0.94,2023-09-12-22:22:52,90014,1,Experiment,2023-09-12_15h49.57.046
6,local,global,7,2,8,32,5,,,38,exp,FZUYEHSLFZLXSTU,HLZFNFZSYHUSTUT,5,N,X,nN,yY,n,1,0.4202748,n,0,0.2101612,RSVPLG01,0.94,2023-09-12-22:22:52,90014,1,Experiment,2023-09-12_15h49.57.046
10,global,global,0,2,9,33,9,,,39,exp,ULEZFYNLNTZFUST,TEZLUHZSNTFFELN,6,Y,absent,yY,nN,y,1,0.8439616,n,1,0.2260142,RSVPLG01,0.94,2023-09-12-22:22:52,90014,1,Experiment,2023-09-12_15h49.57.046
6,local,global,7,2,10,34,5,,,40,exp,YHHELFSYNUZXZNU,UHYHTFFEENZZSYN,5,T,X,tT,yY,t,1,0.5124924,y,1,0.4798346,RSVPLG01,0.94,2023-09-12-22:22:52,90014,1,Experiment,2023-09-12_15h49.57.046
9,global,local,7,2,11,35,8,,,41,exp,TZNLFYLFUEEHHTU,ULFUZSENLETHXHF,6,Y,X,yY,yY,y,1,0.7264344,y,1,0.2798125,RSVPLG01,0.94,2023-09-12-22:22:52,90014,1,Experiment,2023-09-12_15h49.57.046
11,global,global,3,3,0,36,10,,,42,exp,UUTHFNYSXFHZEEZ,YEZSHLZTTYUUEHF,6,N,X,nN,yY,l,0,1.6812522,n,0,0.3077611,RSVPLG01,0.94,2023-09-12-22:22:52,90014,1,Experiment,2023-09-12_15h49.57.046
10,global,global,0,3,1,37,9,,,43,exp,ZTYENULZTSSHNYH,ETYSLFZTNHLSHZN,6,U,absent,uU,nN,u,1,0.5012492,n,1,0.2120126,RSVPLG01,0.94,2023-09-12-22:22:52,90014,1,Experiment,2023-09-12_15h49.57.046
11,global,global,3,3,2,38,10,,,44,exp,YNUTFLUEXSFNEYT,ZNFEFHZSNSTYTUY,6,L,X,lL,yY,l,1,0.4654337,y,1,0.2184808,RSVPLG01,0.94,2023-09-12-22:22:52,90014,1,Experiment,2023-09-12_15h49.57.046
10,global,global,0,3,3,39,9,,,45,exp,HEUZTFSZNUTELSL,TNTZUYHSESLEUHN,6,F,absent,fF,nN,y,0,0.7131906,n,1,0.1787134,RSVPLG01,0.94,2023-09-12-22:22:52,90014,1,Experiment,2023-09-12_15h49.57.046
5,local,global,3,3,4,40,4,,,46,exp,FHELTYXEHZSZNFS,NSTUEHFHYZFNESY,4,U,X,uU,yY,u,1,0.551444,n,0,0.1451789,RSVPLG01,0.94,2023-09-12-22:22:52,90014,1,Experiment,2023-09-12_15h49.57.046
12,global,global,7,3,5,41,11,,,47,exp,FENZNLHLETXUYYU,EETSLTYUHNNFUFH,4,Z,X,zZ,yY,s,0,0.9147132,n,0,0.162705,RSVPLG01,0.94,2023-09-12-22:22:52,90014,1,Experiment,2023-09-12_15h49.57.046
7,global,local,0,3,6,42,6,,,48,exp,SHFNLYTSYETFZZE,EFSUHSHZTLELTZY,4,N,absent,nN,nN,n,1,0.5676882,n,1,0.2019402,RSVPLG01,0.94,2023-09-12-22:22:52,90014,1,Experiment,2023-09-12_15h49.57.046
2,local,local,3,3,7,43,1,,,49,exp,LHZNTEENHSFZFSU,ZSEZYSNXHHFEUFL,5,Y,X,yY,yY,y,1,0.6580667,y,1,0.2101958,RSVPLG01,0.94,2023-09-12-22:22:52,90014,1,Experiment,2023-09-12_15h49.57.046
3,local,local,7,3,8,44,2,,,50,exp,TTFHUSYZEYLFEUL,USFNLZLFTSXYUZE,4,N,X,nN,yY,n,1,0.3878947,y,1,0.1764366,RSVPLG01,0.94,2023-09-12-22:22:52,90014,1,Experiment,2023-09-12_15h49.57.046
5,local,global,3,3,9,45,4,,,51,exp,TLHNZFTHXZENLES,EHYHZUYNLSZTLNS,6,U,X,uU,yY,u,1,0.5619878,n,0,0.1218384,RSVPLG01,0.94,2023-09-12-22:22:52,90014,1,Experiment,2023-09-12_15h49.57.046
5,local,global,3,3,10,46,4,,,52,exp,ZHZSNUYXLTUELES,LEYUFYZSLTHSTEZ,5,F,X,fF,yY,f,1,0.4885707,n,0,0.2495629,RSVPLG01,0.94,2023-09-12-22:22:52,90014,1,Experiment,2023-09-12_15h49.57.046
9,global,local,7,3,11,47,8,,,53,exp,TFUESUYHNZTZEFH,UHNZLHTUZTFXFEE,5,S,X,sS,yY,h,0,0.4632686,n,0,0.1997989,RSVPLG01,0.94,2023-09-12-22:22:52,90014,1,Experiment,2023-09-12_15h49.57.046
7,global,local,0,4,0,48,6,,,54,exp,SLTHUEYYFTSHFUZ,ZLUHHNFTSTYSZUF,6,E,absent,eE,nN,e,1,0.3352929,n,1,0.2754405,RSVPLG01,0.94,2023-09-12-22:22:52,90014,1,Experiment,2023-09-12_15h49.57.046
10,global,global,0,4,1,49,9,,,55,exp,NLYSLFEEUTUHTSY,NTYHYZNLSHUUEEL,6,F,absent,fF,nN,f,1,0.4166689,n,1,0.1627747,RSVPLG01,0.94,2023-09-12-22:22:52,90014,1,Experiment,2023-09-12_15h49.57.046
12,global,global,7,4,2,50,11,,,56,exp,UUZHZFESEYXYSLT,EUENLTFFYYZUZST,4,H,X,hH,yY,h,1,0.4377596,n,0,0.1153769,RSVPLG01,0.94,2023-09-12-22:22:52,90014,1,Experiment,2023-09-12_15h49.57.046
10,global,global,0,4,3,51,9,,,57,exp,UNEYSLZLYUNHTHT,NHTHFNLYZUZYEUE,5,S,absent,sS,nN,e,0,0.3227989,n,1,0.1396952,RSVPLG01,0.94,2023-09-12-22:22:52,90014,1,Experiment,2023-09-12_15h49.57.046
8,global,local,3,4,4,52,7,,,58,exp,FYYSLTESUFUZTZN,SENYHZTXSETUUYF,5,L,X,lL,yY,l,1,0.4191169,n,0,0.2394454,RSVPLG01,0.94,2023-09-12-22:22:52,90014,1,Experiment,2023-09-12_15h49.57.046
7,global,local,0,4,5,53,6,,,59,exp,NYFHLFYZZUNTETH,YHFESNTNYUUZFZT,5,L,absent,lL,nN,l,1,0.393753,n,1,0.1399514,RSVPLG01,0.94,2023-09-12-22:22:52,90014,1,Experiment,2023-09-12_15h49.57.046
7,global,local,0,4,6,54,6,,,60,exp,SSZFTYUNHYFLUZL,YZUHENLSFZLNYFH,5,T,absent,tT,nN,t,1,0.3690168,y,0,0.3384866,RSVPLG01,0.94,2023-09-12-22:22:52,90014,1,Experiment,2023-09-12_15h49.57.046
11,global,global,3,4,7,55,10,,,61,exp,UZUSTHNXNYHSLZF,LFZUESLHUYNSNFY,5,T,X,tT,yY,t,1,0.3187342,y,1,0.2664989,RSVPLG01,0.94,2023-09-12-22:22:52,90014,1,Experiment,2023-09-12_15h49.57.046
3,local,local,7,4,8,56,2,,,62,exp,YLTUESSZFNZFNYT,FYUFHSTZLNLXZNU,5,H,X,hH,yY,h,1,0.4449211,n,0,0.0974031,RSVPLG01,0.94,2023-09-12-22:22:52,90014,1,Experiment,2023-09-12_15h49.57.046
4,local,global,0,4,9,57,3,,,63,exp,ZUYEZTFFLTUHYNH,TUYSNHTNLHZLYUF,4,S,absent,sS,nN,s,1,0.3338189,n,1,0.1341546,RSVPLG01,0.94,2023-09-12-22:22:52,90014,1,Experiment,2023-09-12_15h49.57.046
4,local,global,0,4,10,58,3,,,64,exp,FHUYETSEUHNYZSF,SEUZULHNYFSYENF,6,L,absent,lL,nN,l,1,0.3842878,n,1,0.1012279,RSVPLG01,0.94,2023-09-12-22:22:52,90014,1,Experiment,2023-09-12_15h49.57.046
3,local,local,7,4,11,59,2,,,65,exp,ZNFFSEYSZHLHNYL,NLLUZTFZFYNUXYS,6,T,X,tT,yY,t,1,0.4159726,y,1,0.0824792,RSVPLG01,0.94,2023-09-12-22:22:52,90014,1,Experiment,2023-09-12_15h49.57.046
4,local,global,0,5,0,60,3,,,66,exp,ZYSENLHYHFFTLZS,HTNULZFYLZTNHSY,4,U,absent,uU,nN,u,1,0.5194102,n,1,0.1588326,RSVPLG01,0.94,2023-09-12-22:22:52,90014,1,Experiment,2023-09-12_15h49.57.046
10,global,global,0,5,1,61,9,,,67,exp,YETNUZLHSSTUEZY,EZUFSHLYEHSLZYT,4,N,absent,nN,nN,n,1,0.662729,n,1,0.1705536,RSVPLG01,0.94,2023-09-12-22:22:52,90014,1,Experiment,2023-09-12_15h49.57.046
2,local,local,3,5,2,62,1,,,68,exp,FLUTUNTHHEZEFSS,ULTHEYFHXSZSTEU,6,Y,X,yY,yY,y,1,0.78996,y,1,0.2579286,RSVPLG01,0.94,2023-09-12-22:22:52,90014,1,Experiment,2023-09-12_15h49.57.046
8,global,local,3,5,3,63,7,,,69,exp,EHUFHNNTUYYSTES,NZTLSYXUHUETYZE,4,F,X,fF,yY,f,1,0.3655141,n,0,0.2423711,RSVPLG01,0.94,2023-09-12-22:22:52,90014,1,Experiment,2023-09-12_15h49.57.046
6,local,global,7,5,4,64,5,,,70,exp,FELZUSNTYNTYXZE,FLZETHUTZLNEYUY,6,H,X,hH,yY,h,1,0.6489746,n,0,0.1974665,RSVPLG01,0.94,2023-09-12-22:22:52,90014,1,Experiment,2023-09-12_15h49.57.046
11,global,global,3,5,5,65,10,,,71,exp,FETSLYUSXZHLTZU,EHFTLNSUZFSLZEU,6,Y,X,yY,yY,y,1,0.4128248,n,0,0.3128943,RSVPLG01,0.94,2023-09-12-22:22:52,90014,1,Experiment,2023-09-12_15h49.57.046
6,local,global,7,5,6,66,5,,,72,exp,UYZZFSELNUFTXEN,ZTYNFHEYLUUFTLZ,6,H,X,hH,yY,h,1,0.4412348,n,0,0.1595899,RSVPLG01,0.94,2023-09-12-22:22:52,90014,1,Experiment,2023-09-12_15h49.57.046
2,local,local,3,5,7,67,1,,,73,exp,LHUYYSFTHZZLFNT,LUYFNEHNXZFHLUY,6,E,X,eE,yY,e,1,0.4835512,n,0,0.2964583,RSVPLG01,0.94,2023-09-12-22:22:52,90014,1,Experiment,2023-09-12_15h49.57.046
11,global,global,3,5,8,68,10,,,74,exp,UYYLENXFHUNESZS,NSUTYFFZYHNSZUH,4,L,X,lL,yY,l,1,0.3278008,n,0,0.2028287,RSVPLG01,0.94,2023-09-12-22:22:52,90014,1,Experiment,2023-09-12_15h49.57.046
8,global,local,3,5,9,69,7,,,75,exp,HNSTUFLZNULYSHZ,LSSENFXZUNYLZHF,4,T,X,tT,yY,t,1,0.651255,n,0,0.1907186,RSVPLG01,0.94,2023-09-12-22:22:52,90014,1,Experiment,2023-09-12_15h49.57.046
9,global,local,7,5,10,70,8,,,76,exp,ZSHLNNUFEZFYHUS,UNETYFESHUXSFYN,4,L,X,lL,yY,l,1,0.4327659,n,0,1.2331724,RSVPLG01,0.94,2023-09-12-22:22:52,90014,1,Experiment,2023-09-12_15h49.57.046
3,local,local,7,5,11,71,2,,,77,exp,NUZHSTZSYFEFENH,HSZUULNZYYENXFS,6,L,X,lL,yY,l,1,0.4457997,y,1,0.233448,RSVPLG01,0.94,2023-09-12-22:22:52,90014,1,Experiment,2023-09-12_15h49.57.046
1,local,local,0,6,0,72,0,,,78,exp,SNHTEFYFLTLHSNZ,NFHZUSZHLLTYNYF,5,U,absent,uU,nN,u,1,0.4333208,n,1,0.1125989,RSVPLG01,0.94,2023-09-12-22:22:52,90014,1,Experiment,2023-09-12_15h49.57.046
1,local,local,0,6,1,73,0,,,79,exp,LETLNFFSSTZYHHZ,ZELFUYLSHFETSYH,5,U,absent,uU,nN,u,1,0.4853974,n,1,0.114289,RSVPLG01,0.94,2023-09-12-22:22:52,90014,1,Experiment,2023-09-12_15h49.57.046
4,local,global,0,6,2,74,3,,,80,exp,FZYSSNUFLETYLUZ,TYFSZHSFEUYLUZT,6,H,absent,hH,nN,h,1,0.411449,n,1,0.2033835,RSVPLG01,0.94,2023-09-12-22:22:52,90014,1,Experiment,2023-09-12_15h49.57.046
7,global,local,0,6,3,75,6,,,81,exp,SLUFNZYUFSYEELZ,LHESTLYSZFFUYHE,5,N,absent,nN,nN,n,1,0.4256618,n,1,0.1224061,RSVPLG01,0.94,2023-09-12-22:22:52,90014,1,Experiment,2023-09-12_15h49.57.046
11,global,global,3,6,4,76,10,,,82,exp,ZHNTSUNXFLZFLHY,HLYLEZHFNZFUUNT,5,S,X,sS,yY,s,1,1.2865289,n,0,0.2345341,RSVPLG01,0.94,2023-09-12-22:22:52,90014,1,Experiment,2023-09-12_15h49.57.046
2,local,local,3,6,5,77,1,,,83,exp,NSSUFZHTUZNLLET,HNLUYUHXZETTNZE,5,Y,X,yY,yY,y,1,0.5321649,y,1,0.1525452,RSVPLG01,0.94,2023-09-12-22:22:52,90014,1,Experiment,2023-09-12_15h49.57.046
8,global,local,3,6,6,78,7,,,84,exp,FHSTZZEENLSLYHN,SYEUHFXSHYZNENL,4,T,X,tT,yY,t,1,0.410602,n,0,0.1709761,RSVPLG01,0.94,2023-09-12-22:22:52,90014,1,Experiment,2023-09-12_15h49.57.046
5,local,global,3,6,7,79,4,,,85,exp,FNLSZYEZXSTLEUT,USNTTHZLELNZUES,6,H,X,hH,yY,h,1,0.4324584,n,0,0.1165019,RSVPLG01,0.94,2023-09-12-22:22:52,90014,1,Experiment,2023-09-12_15h49.57.046
10,global,global,0,6,8,80,9,,,86,exp,SHSUNETNYHZTELZ,HZEFYLENTSLYHZT,4,U,absent,uU,nN,u,1,0.4287403,n,1,0.1301823,RSVPLG01,0.94,2023-09-12-22:22:52,90014,1,Experiment,2023-09-12_15h49.57.046
1,local,local,0,6,9,81,0,,,87,exp,YZEULZYTFNNHLFE,LZHSLTFNNTFHYZY,4,S,absent,sS,nN,s,1,0.3952619,n,1,0.1161864,RSVPLG01,0.94,2023-09-12-22:22:52,90014,1,Experiment,2023-09-12_15h49.57.046
10,global,global,0,6,10,82,9,,,88,exp,ZTHLLSYYNTZUUNE,NLEHTFYEZZYUTNH,6,S,absent,sS,nN,e,0,0.3412622,n,1,0.19543,RSVPLG01,0.94,2023-09-12-22:22:52,90014,1,Experiment,2023-09-12_15h49.57.046
9,global,local,7,6,11,83,8,,,89,exp,NYYHHETFSULNUFT,HHUSLZNYTYFFXTN,6,E,X,eE,yY,e,1,0.4007757,n,0,0.1565326,RSVPLG01,0.94,2023-09-12-22:22:52,90014,1,Experiment,2023-09-12_15h49.57.046
6,local,global,7,7,0,84,5,,,90,exp,THNTSEULNHYSXUF,STLTHZFYNLUFYUH,6,Z,X,zZ,yY,e,0,0.8673641,n,0,0.0356963,RSVPLG01,0.94,2023-09-12-22:22:52,90014,1,Experiment,2023-09-12_15h49.57.046
2,local,local,3,7,1,85,1,,,91,exp,EHEYTLTNHZZSNSF,HZZUHSXLFSNELNE,4,U,X,uU,yY,u,1,0.3768106,y,1,0.1017725,RSVPLG01,0.94,2023-09-12-22:22:52,90014,1,Experiment,2023-09-12_15h49.57.046
1,local,local,0,7,2,86,0,,,92,exp,FFYHZSEHUTLTEYS,HELYNTFLESTHYUS,5,N,absent,nN,nN,n,1,0.4602191,n,1,0.271167,RSVPLG01,0.94,2023-09-12-22:22:52,90014,1,Experiment,2023-09-12_15h49.57.046
7,global,local,0,7,3,87,6,,,93,exp,YUZSLUEYHZENNHL,HEYTUNFZLLFUYZH,4,S,absent,sS,nN,t,0,3.5968415,n,1,0.2973174,RSVPLG01,0.94,2023-09-12-22:22:52,90014,1,Experiment,2023-09-12_15h49.57.046
1,local,local,0,7,4,88,0,,,94,exp,FTTEZFHHZYUULYN,HULSHLFYZZFNTYN,4,S,absent,sS,nN,s,1,0.3533458,n,1,0.1188861,RSVPLG01,0.94,2023-09-12-22:22:52,90014,1,Experiment,2023-09-12_15h49.57.046
2,local,local,3,7,5,89,1,,,95,exp,LLFZUTUYFYSENSZ,SNUEUHYYXZLNZLE,6,H,X,hH,yY,h,1,0.5149397,y,1,0.2653044,RSVPLG01,0.94,2023-09-12-22:22:52,90014,1,Experiment,2023-09-12_15h49.57.046
12,global,global,7,7,6,90,11,,,96,exp,ZFYUHLFZHEESXTU,SFTUZNUEYFEYZSH,6,L,X,lL,yY,l,1,0.4746112,n,0,0.1545101,RSVPLG01,0.94,2023-09-12-22:22:52,90014,1,Experiment,2023-09-12_15h49.57.046
5,local,global,3,7,7,91,4,,,97,exp,UNZZEFHLXUYELHT,HTYEZSZTEHLNNYU,6,S,X,sS,yY,s,1,0.4043289,n,0,0.2026746,RSVPLG01,0.94,2023-09-12-22:22:52,90014,1,Experiment,2023-09-12_15h49.57.046
1,local,local,0,7,8,92,0,,,98,exp,TZSSLZHYUHYUFTN,SFNTESUYZTYUNZF,5,E,absent,eE,nN,e,1,0.3487234,n,1,0.0821113,RSVPLG01,0.94,2023-09-12-22:22:52,90014,1,Experiment,2023-09-12_15h49.57.046
10,global,global,0,7,9,93,9,,,99,exp,ZZNSLNTUHSYETYH,THZUFSNYZETYNUH,5,L,absent,lL,nN,s,0,0.8942924,n,1,0.2037318,RSVPLG01,0.94,2023-09-12-22:22:52,90014,1,Experiment,2023-09-12_15h49.57.046
2,local,local,3,7,10,94,1,,,100,exp,NTNFHLZTZEEYHUY,HHUNFSTFXZYUZEY,6,S,X,sS,yY,s,1,0.4403018,y,1,0.1283729,RSVPLG01,0.94,2023-09-12-22:22:52,90014,1,Experiment,2023-09-12_15h49.57.046
11,global,global,3,7,11,95,10,,,101,exp,ZUENTLXSUFYESLT,YUFHZYLUESFTTEL,4,N,X,nN,yY,n,1,0.4245227,n,0,0.0976369,RSVPLG01,0.94,2023-09-12-22:22:52,90014,1,Experiment,2023-09-12_15h49.57.046
1,local,local,0,8,0,96,0,,,102,exp,HEUYZTLNELFNFUY,ZUUFHSEYHEZLNNY,6,S,absent,sS,nN,s,1,0.6664885,n,1,0.1614183,RSVPLG01,0.94,2023-09-12-22:22:52,90014,1,Experiment,2023-09-12_15h49.57.046
11,global,global,3,8,1,97,10,,,103,exp,TSLZYEEXLHSUZHU,NHUTFSEHUTLZESZ,5,Y,X,yY,yY,y,1,0.6981753,y,1,0.2680231,RSVPLG01,0.94,2023-09-12-22:22:52,90014,1,Experiment,2023-09-12_15h49.57.046
10,global,global,0,8,2,98,9,,,104,exp,STLEYUSLNTZFYNU,NSSHZTFYZUYTLUN,4,E,absent,eE,nN,h,0,0.4149727,n,1,0.0891729,RSVPLG01,0.94,2023-09-12-22:22:52,90014,1,Experiment,2023-09-12_15h49.57.046
6,local,global,7,8,3,99,5,,,105,exp,ZZYLHNTHLTSUXYU,HYFUYESZFLTZTUS,6,E,X,eE,yY,e,1,0.3578393,n,0,0.067433,RSVPLG01,0.94,2023-09-12-22:22:52,90014,1,Experiment,2023-09-12_15h49.57.046
5,local,global,3,8,4,100,4,,,106,exp,FNNZUFXYSSULHHL,NYLTULFFYEUSSEH,4,T,X,tT,yY,t,1,0.6924992,n,0,0.1773607,RSVPLG01,0.94,2023-09-12-22:22:52,90014,1,Experiment,2023-09-12_15h49.57.046
7,global,local,0,8,5,101,6,,,107,exp,ELUNTSSZEHFLTFH,SUFYSLFEUZLTEHZ,4,N,absent,nN,nN,n,1,0.4829409,n,1,1.2450796,RSVPLG01,0.94,2023-09-12-22:22:52,90014,1,Experiment,2023-09-12_15h49.57.046
8,global,local,3,8,6,102,7,,,108,exp,NLUNHEFYHLZSSUZ,UHZNYTYHXFLSUFL,6,E,X,eE,yY,e,1,0.3755717,n,0,0.2875732,RSVPLG01,0.94,2023-09-12-22:22:52,90014,1,Experiment,2023-09-12_15h49.57.046
1,local,local,0,8,7,103,0,,,109,exp,EZFSTUYNUFEYHHN,FENZLUHSYYUHZSF,5,L,absent,lL,nN,l,1,0.3788082,n,1,0.1891794,RSVPLG01,0.94,2023-09-12-22:22:52,90014,1,Experiment,2023-09-12_15h49.57.046
8,global,local,3,8,8,104,7,,,110,exp,HZSNYULELHSNUZT,LLZEFSEXTUHZNNS,5,Y,X,yY,yY,y,1,0.8553787,n,0,0.2902847,RSVPLG01,0.94,2023-09-12-22:22:52,90014,1,Experiment,2023-09-12_15h49.57.046
3,local,local,7,8,9,105,2,,,111,exp,SYLUEFNSHFTLHNT,STTZHLYNESXYFFL,4,Z,X,zZ,yY,z,1,0.3284568,y,1,0.2506216,RSVPLG01,0.94,2023-09-12-22:22:52,90014,1,Experiment,2023-09-12_15h49.57.046
10,global,global,0,8,10,106,9,,,112,exp,NSHEYFYTUHTNEUL,SLHHYZETNETSYNL,6,F,absent,fF,nN,z,0,0.7286567,n,1,0.2426905,RSVPLG01,0.94,2023-09-12-22:22:52,90014,1,Experiment,2023-09-12_15h49.57.046
10,global,global,0,8,11,107,9,,,113,exp,TSHEZYELNULSNUH,EZEUHFHSSLTNUTZ,6,Y,absent,yY,nN,y,1,0.7190893,n,1,0.2435721,RSVPLG01,0.94,2023-09-12-22:22:52,90014,1,Experiment,2023-09-12_15h49.57.046
10,global,global,0,9,0,108,9,,,114,exp,FFLLZYNUENTTSZS,SFUZNHSUTZEFLEN,6,Y,absent,yY,nN,y,1,0.6861272,n,1,0.6071533,RSVPLG01,0.94,2023-09-12-22:22:52,90014,1,Experiment,2023-09-12_15h49.57.046
8,global,local,3,9,1,109,7,,,115,exp,SEFZUTLLZSYFYHH,LYHHUNLZXFYFSSE,6,T,X,tT,yY,t,1,0.4611889,y,1,0.1867056,RSVPLG01,0.94,2023-09-12-22:22:52,90014,1,Experiment,2023-09-12_15h49.57.046
6,local,global,7,9,2,110,5,,,116,exp,YLHETFSSFZXHUZT,SZTNUYFHHLSLTUY,4,N,X,nN,yY,n,1,0.4726072,n,0,0.0502306,RSVPLG01,0.94,2023-09-12-22:22:52,90014,1,Experiment,2023-09-12_15h49.57.046
11,global,global,3,9,3,111,10,,,117,exp,ESETZLXZFFUNNUL,NNZHUFLZESULYYS,4,T,X,tT,yY,t,1,0.3708379,n,0,0.1932909,RSVPLG01,0.94,2023-09-12-22:22:52,90014,1,Experiment,2023-09-12_15h49.57.046
2,local,local,3,9,4,112,1,,,118,exp,TFYZTFSLLHNEHSE,TSHUNYXHNSELLFY,4,U,X,uU,yY,u,1,0.382966,y,1,0.1608142,RSVPLG01,0.94,2023-09-12-22:22:52,90014,1,Experiment,2023-09-12_15h49.57.046
9,global,local,7,9,5,113,8,,,119,exp,LFZFYUELNNYHZSS,YNLSSTNZEHFZXLE,6,U,X,uU,yY,u,1,0.4676224,y,1,0.1457618,RSVPLG01,0.94,2023-09-12-22:22:52,90014,1,Experiment,2023-09-12_15h49.57.046
3,local,local,7,9,6,114,2,,,120,exp,ZHFYFTTLZHLNSNU,NSTENZUTFFXZLUH,4,E,X,eE,yY,e,1,0.359279,n,0,0.1698954,RSVPLG01,0.94,2023-09-12-22:22:52,90014,1,Experiment,2023-09-12_15h49.57.046
9,global,local,7,9,7,115,8,,,121,exp,FLHHELZUZTTSFYY,SYUSNUTYFHLXZLH,5,E,X,eE,yY,e,1,0.4278392,y,1,0.1385768,RSVPLG01,0.94,2023-09-12-22:22:52,90014,1,Experiment,2023-09-12_15h49.57.046
12,global,global,7,9,8,116,11,,,122,exp,YHZHZTNFESNYXFU,HUSHYLENFSYUENZ,6,T,X,tT,yY,l,0,0.3681606,n,0,0.1775888,RSVPLG01,0.94,2023-09-12-22:22:52,90014,1,Experiment,2023-09-12_15h49.57.046
12,global,global,7,9,9,117,11,,,123,exp,UZUHNTSESFLXTLZ,HFTSYFUTZELHEUS,5,N,X,nN,yY,n,1,0.4309796,n,0,0.1940696,RSVPLG01,0.94,2023-09-12-22:22:52,90014,1,Experiment,2023-09-12_15h49.57.046
7,global,local,0,9,10,118,6,,,124,exp,HNELSSFZFZHNUUY,ZNUTYSUZFNEHSEH,4,L,absent,lL,nN,l,1,0.3692042,n,1,0.1233823,RSVPLG01,0.94,2023-09-12-22:22:52,90014,1,Experiment,2023-09-12_15h49.57.046
2,local,local,3,9,11,119,1,,,125,exp,SFHEFYLHTUUTZSL,SEZFHNULXTLFHUT,6,N,X,nN,yY,n,1,0.4699766,y,1,0.2177951,RSVPLG01,0.94,2023-09-12-22:22:52,90014,1,Experiment,2023-09-12_15h49.57.046
11,global,global,3,10,0,120,10,,,126,exp,ZZLSENFXHYNSYHT,ZLNYUHSLTHNFYTF,5,E,X,eE,yY,e,1,0.3987935,y,1,0.249071,RSVPLG01,0.94,2023-09-12-22:22:52,90014,1,Experiment,2023-09-12_15h49.57.046
6,local,global,7,10,1,121,5,,,127,exp,ZHUFYESSZFLTXYL,ZFLHTNTHSFYUSLU,6,N,X,nN,yY,n,1,0.482377,n,0,0.071748,RSVPLG01,0.94,2023-09-12-22:22:52,90014,1,Experiment,2023-09-12_15h49.57.046
4,local,global,0,10,2,122,3,,,128,exp,ZZEENFUNSSHYTUH,ZZUEHLYNSEYNHST,6,L,absent,lL,nN,l,1,0.4370317,n,1,0.138793,RSVPLG01,0.94,2023-09-12-22:22:52,90014,1,Experiment,2023-09-12_15h49.57.046
11,global,global,3,10,3,123,10,,,129,exp,FEZESYZXLYUHUNH,LNZFTYHUHZLUEYN,5,S,X,sS,yY,e,0,0.3572272,y,1,0.1144746,RSVPLG01,0.94,2023-09-12-22:22:52,90014,1,Experiment,2023-09-12_15h49.57.046
3,local,local,7,10,4,124,2,,,130,exp,NUYSEZHLLHYNETZ,HEZFLHLTNNXTUEY,4,F,X,fF,yY,f,1,0.3237189,n,0,0.1704644,RSVPLG01,0.94,2023-09-12-22:22:52,90014,1,Experiment,2023-09-12_15h49.57.046
3,local,local,7,10,5,125,2,,,131,exp,FNZHUYSTLSYFTLH,LZFYEHTSFHNXTNZ,5,E,X,eE,yY,e,1,0.4030392,y,1,0.122449,RSVPLG01,0.94,2023-09-12-22:22:52,90014,1,Experiment,2023-09-12_15h49.57.046
6,local,global,7,10,6,126,5,,,132,exp,ZTNFYSLZSLTXEFN,HETZUSHZLSLFTEN,5,U,X,uU,yY,u,1,0.4665688,n,0,0.114888,RSVPLG01,0.94,2023-09-12-22:22:52,90014,1,Experiment,2023-09-12_15h49.57.046
12,global,global,7,10,7,127,11,,,133,exp,HFHENLSTUTESXUF,YFNTYZHNUEFTHSU,6,L,X,lL,yY,l,1,0.4469075,n,0,0.2133408,RSVPLG01,0.94,2023-09-12-22:22:52,90014,1,Experiment,2023-09-12_15h49.57.046
5,local,global,3,10,8,128,4,,,134,exp,EUEUZSFXHTHNLTF,LTLHYFSFUNETUNS,5,Y,X,yY,yY,y,1,0.808332,n,0,0.1519796,RSVPLG01,0.94,2023-09-12-22:22:52,90014,1,Experiment,2023-09-12_15h49.57.046
4,local,global,0,10,9,129,3,,,135,exp,LNYFHNLEUHSZEZY,ZLLTNSNUYZEUSEH,4,T,absent,tT,nN,t,1,0.363363,n,1,0.1258166,RSVPLG01,0.94,2023-09-12-22:22:52,90014,1,Experiment,2023-09-12_15h49.57.046
7,global,local,0,10,10,130,6,,,136,exp,ESFHTNZZLUESFHL,UHZHZYFUTFSELLE,6,N,absent,nN,nN,n,1,0.4703104,n,1,0.120495,RSVPLG01,0.94,2023-09-12-22:22:52,90014,1,Experiment,2023-09-12_15h49.57.046
8,global,local,3,10,11,131,7,,,137,exp,LYZFZESHNYUHUFL,UFLUZTHFXLYNSZS,6,E,X,eE,yY,e,1,0.3154908,n,0,0.048995,RSVPLG01,0.94,2023-09-12-22:22:52,90014,1,Experiment,2023-09-12_15h49.57.046
1,local,local,0,11,0,132,0,,,138,exp,THYLHETZZSSNENU,UTNFZZSHSNTHYYU,4,F,absent,fF,nN,f,1,0.3063773,n,1,0.0909681,RSVPLG01,0.94,2023-09-12-22:22:52,90014,1,Experiment,2023-09-12_15h49.57.046
12,global,global,7,11,1,133,11,,,139,exp,HZFULTESSZXHTNN,FHFYHLNLEETSSNZ,4,U,X,uU,yY,u,1,0.2903926,y,1,0.1539251,RSVPLG01,0.94,2023-09-12-22:22:52,90014,1,Experiment,2023-09-12_15h49.57.046
2,local,local,3,11,2,134,1,,,140,exp,NSSHZYFEHULENZL,HLFNZTSEXFSUZUN,6,T,X,tT,yY,t,1,0.4057187,y,1,0.0495984,RSVPLG01,0.94,2023-09-12-22:22:52,90014,1,Experiment,2023-09-12_15h49.57.046
6,local,global,7,11,3,135,5,,,141,exp,HULYFFTSTZXEELZ,FUENUETLLTZSHHF,4,N,X,nN,yY,n,1,0.3544409,y,1,0.148108,RSVPLG01,0.94,2023-09-12-22:22:52,90014,1,Experiment,2023-09-12_15h49.57.046
4,local,global,0,11,4,136,3,,,142,exp,SNLESULHZZNUYTY,SUHFYNLLUZHZTNT,4,F,absent,fF,nN,f,1,0.3697841,n,1,0.1197543,RSVPLG01,0.94,2023-09-12-22:22:52,90014,1,Experiment,2023-09-12_15h49.57.046
12,global,global,7,11,5,137,11,,,143,exp,SFZHYYFZTNXLSEE,SYNUTFZSLZELFET,4,H,X,hH,yY,h,1,0.4401348,y,1,0.1578351,RSVPLG01,0.94,2023-09-12-22:22:52,90014,1,Experiment,2023-09-12_15h49.57.046
4,local,global,0,11,6,138,3,,,144,exp,UETTYNSUFSFHZHE,EZUELTZFFHSTHNS,5,L,absent,lL,nN,l,1,0.411638,n,1,0.0842415,RSVPLG01,0.94,2023-09-12-22:22:52,90014,1,Experiment,2023-09-12_15h49.57.046
5,local,global,3,11,7,139,4,,,145,exp,SHUEFZEYXTFYSUH,YLTYSNFHLUSEEUF,6,N,X,nN,yY,n,1,0.4241229,n,0,0.1137279,RSVPLG01,0.94,2023-09-12-22:22:52,90014,1,Experiment,2023-09-12_15h49.57.046
8,global,local,3,11,8,140,7,,,146,exp,LFFZTYZHUYHULSE,UYLZNSHXULHEYFF,5,T,X,tT,yY,t,1,0.3802132,n,0,0.9704159,RSVPLG01,0.94,2023-09-12-22:22:52,90014,1,Experiment,2023-09-12_15h49.57.046
6,local,global,7,11,9,141,5,,,147,exp,ZTYUHHFSLSXYLZE,STENSTYZYHFLEZH,4,N,X,nN,yY,n,1,0.3419186,y,1,0.1953262,RSVPLG01,0.94,2023-09-12-22:22:52,90014,1,Experiment,2023-09-12_15h49.57.046
4,local,global,0,11,10,142,3,,,148,exp,YTTFNZSHSFLUZYH,ZYLHEULFHYSTSZU,5,E,absent,eE,nN,e,1,0.3969716,n,1,0.2344075,RSVPLG01,0.94,2023-09-12-22:22:52,90014,1,Experiment,2023-09-12_15h49.57.046
8,global,local,3,11,11,143,7,,,149,exp,HNSYTZZLYNLSHUF,LHSHELUXZUFNYYS,5,T,X,tT,yY,t,1,0.3799894,n,0,0.1501022,RSVPLG01,0.94,2023-09-12-22:22:52,90014,1,Experiment,2023-09-12_15h49.57.046
3,local,local,7,12,0,144,2,,,150,exp,ZUFLHEESYNSNLUY,EYUYTLSUNESXFZF,5,T,X,tT,yY,t,1,0.3835966,y,1,0.1319575,RSVPLG01,0.94,2023-09-12-22:22:52,90014,1,Experiment,2023-09-12_15h49.57.046
11,global,global,3,12,1,145,10,,,151,exp,TEYEZSNXULNHTHU,UUHTFEYYNELSLTS,5,Z,X,zZ,yY,t,0,0.5007024,n,0,0.2103877,RSVPLG01,0.94,2023-09-12-22:22:52,90014,1,Experiment,2023-09-12_15h49.57.046
12,global,global,7,12,2,146,11,,,152,exp,NEUHUZTNLLEYXTF,LTNTYSUFFHUEHNE,6,Z,X,zZ,yY,e,0,1.204218,n,0,0.0992386,RSVPLG01,0.94,2023-09-12-22:22:52,90014,1,Experiment,2023-09-12_15h49.57.046
7,global,local,0,12,3,147,6,,,153,exp,NLETEFYSSZYZHNT,YZNNSUHTYHLSELE,6,F,absent,fF,nN,e,0,0.3542757,y,0,0.1699663,RSVPLG01,0.94,2023-09-12-22:22:52,90014,1,Experiment,2023-09-12_15h49.57.046
12,global,global,7,12,4,148,11,,,154,exp,YNSTYLFETZNFXZH,SEZETUZSYNHTNFY,6,L,X,lL,yY,l,1,0.3562923,y,1,0.1277748,RSVPLG01,0.94,2023-09-12-22:22:52,90014,1,Experiment,2023-09-12_15h49.57.046
8,global,local,3,12,5,149,7,,,155,exp,UFLZNFHNYUYTETH,UHESUFXLLNETNYF,4,Z,X,zZ,yY,z,1,0.2776519,n,0,0.0252732,RSVPLG01,0.94,2023-09-12-22:22:52,90014,1,Experiment,2023-09-12_15h49.57.046
1,local,local,0,12,6,150,0,,,156,exp,YYEFNTFULUEZSNL,ESLLNHFYSUUNYZF,6,H,absent,hH,nN,h,1,0.4984045,n,1,0.1428498,RSVPLG01,0.94,2023-09-12-22:22:52,90014,1,Experiment,2023-09-12_15h49.57.046
5,local,global,3,12,7,151,4,,,157,exp,ZEUUFNHYXTSSHFZ,ZUFHULZTHYESFSE,6,L,X,lL,yY,l,1,0.4191093,n,0,0.108586,RSVPLG01,0.94,2023-09-12-22:22:52,90014,1,Experiment,2023-09-12_15h49.57.046
3,local,local,7,12,8,152,2,,,158,exp,EFLUHYEUHSZSTTF,TTFEZNESFUSHXZL,6,N,X,nN,yY,n,1,0.3288103,y,1,0.1520762,RSVPLG01,0.94,2023-09-12-22:22:52,90014,1,Experiment,2023-09-12_15h49.57.046
6,local,global,7,12,9,153,5,,,159,exp,HENZLFSZUUNXYES,ZYFNTZNSEUESHYH,5,T,X,tT,yY,t,1,0.2985073,n,0,0.1166337,RSVPLG01,0.94,2023-09-12-22:22:52,90014,1,Experiment,2023-09-12_15h49.57.046
4,local,global,0,12,10,154,3,,,160,exp,FUUELYZHNYZTTNF,FTHFSTUUYZHEEYN,5,S,absent,sS,nN,s,1,0.3387098,n,1,0.138122,RSVPLG01,0.94,2023-09-12-22:22:52,90014,1,Experiment,2023-09-12_15h49.57.046
7,global,local,0,12,11,155,6,,,161,exp,FEYZSHLEYTNFTNH,FLNUESTFLYHHESN,4,Z,absent,zZ,nN,y,0,0.3197502,n,1,0.1229684,RSVPLG01,0.94,2023-09-12-22:22:52,90014,1,Experiment,2023-09-12_15h49.57.046
2,local,local,3,13,0,156,1,,,162,exp,LZTLTUHFENESHNF,NELTFYHZXTSHLNZ,6,Y,X,yY,yY,y,1,0.3377553,y,1,0.1923446,RSVPLG01,0.94,2023-09-12-22:22:52,90014,1,Experiment,2023-09-12_15h49.57.046
7,global,local,0,13,1,157,6,,,163,exp,TFUNSHLZTLNZFYS,LZSNUEZLFNYUSTY,6,H,absent,hH,nN,h,1,0.3885138,n,1,0.1269467,RSVPLG01,0.94,2023-09-12-22:22:52,90014,1,Experiment,2023-09-12_15h49.57.046
12,global,global,7,13,2,158,11,,,164,exp,ZHEUZSNUENHLXTL,TYUNHFTHZLNLUYE,6,S,X,sS,yY,e,0,0.315991,n,0,0.0426889,RSVPLG01,0.94,2023-09-12-22:22:52,90014,1,Experiment,2023-09-12_15h49.57.046
9,global,local,7,13,3,159,8,,,165,exp,LYZZULHNYSFTTHN,ZNTYEYLHFHLXTNF,5,U,X,uU,yY,u,1,0.4362273,n,0,0.0815443,RSVPLG01,0.94,2023-09-12-22:22:52,90014,1,Experiment,2023-09-12_15h49.57.046
12,global,global,7,13,4,160,11,,,166,exp,UYNEZHLLHEUXTSN,SHTEFYYLELHSNTU,5,Z,X,zZ,yY,z,1,0.3698495,y,1,0.0118915,RSVPLG01,0.94,2023-09-12-22:22:52,90014,1,Experiment,2023-09-12_15h49.57.046
12,global,global,7,13,5,161,11,,,167,exp,ZLYUFNETNTXYFHH,YEZSZHYNTFHFETL,4,U,X,uU,yY,u,1,0.2922264,y,1,0.0787278,RSVPLG01,0.94,2023-09-12-22:22:52,90014,1,Experiment,2023-09-12_15h49.57.046
9,global,local,7,13,6,162,8,,,168,exp,FENLUHYEUZYFLTZ,NLZFTSELUTYEXZF,6,H,X,hH,yY,y,0,0.390364,y,1,0.2906487,RSVPLG01,0.94,2023-09-12-22:22:52,90014,1,Experiment,2023-09-12_15h49.57.046
6,local,global,7,13,7,163,5,,,169,exp,SULZTFULTHXHFSN,YNFESFUHNHTSLTY,4,E,X,eE,yY,e,1,0.4082335,y,1,0.1796595,RSVPLG01,0.94,2023-09-12-22:22:52,90014,1,Experiment,2023-09-12_15h49.57.046
1,local,local,0,13,8,164,0,,,170,exp,ZTYNHESUTEYFUHF,EHFLSSTZUZUFEYT,4,L,absent,lL,nN,l,1,0.4731753,n,1,0.1303035,RSVPLG01,0.94,2023-09-12-22:22:52,90014,1,Experiment,2023-09-12_15h49.57.046
8,global,local,3,13,9,165,7,,,171,exp,ETFEHNZUSTYNFSZ,UUFNLEYXZNTZTYF,5,H,X,hH,yY,h,1,0.4409125,n,0,0.0892319,RSVPLG01,0.94,2023-09-12-22:22:52,90014,1,Experiment,2023-09-12_15h49.57.046
10,global,global,0,13,10,166,9,,,172,exp,TTFLUNFSLHESZEN,TNHSYFTSEEZNHFL,5,U,absent,uU,nN,u,1,0.4508923,n,1,0.2730874,RSVPLG01,0.94,2023-09-12-22:22:52,90014,1,Experiment,2023-09-12_15h49.57.046
7,global,local,0,13,11,167,6,,,173,exp,HLNZEUTUFTSNSHE,FUNYFULHTSHTLES,4,Z,absent,zZ,nN,z,1,0.3692803,n,1,0.0902417,RSVPLG01,0.94,2023-09-12-22:22:52,90014,1,Experiment,2023-09-12_15h49.57.046
9,global,local,7,14,0,168,8,,,174,exp,TLHFNHZEYYUFLEU,TUYLSHZULZTXFHE,5,N,X,nN,yY,n,1,0.3497339,n,0,0.0651664,RSVPLG01,0.94,2023-09-12-22:22:52,90014,1,Experiment,2023-09-12_15h49.57.046
4,local,global,0,14,1,169,3,,,175,exp,HZUYNLZYSUTHSET,NYSUHFYTTENZSEU,6,F,absent,fF,nN,y,0,0.4448844,n,1,0.7534567,RSVPLG01,0.94,2023-09-12-22:22:52,90014,1,Experiment,2023-09-12_15h49.57.046
4,local,global,0,14,2,170,3,,,176,exp,FTNYZSZTFESUEHU,FNTLHZSENTUFZHE,4,L,absent,lL,nN,l,1,0.3086203,n,1,0.1463368,RSVPLG01,0.94,2023-09-12-22:22:52,90014,1,Experiment,2023-09-12_15h49.57.046
5,local,global,3,14,3,171,4,,,177,exp,HSETFZNXUHZUTYS,TNSYLZSYUHNZEHU,5,L,X,lL,yY,l,1,0.3627866,n,0,0.1222696,RSVPLG01,0.94,2023-09-12-22:22:52,90014,1,Experiment,2023-09-12_15h49.57.046
2,local,local,3,14,4,172,1,,,178,exp,NYHUEZYLSLFSHUF,FSHNTHSXFYYZZUN,5,T,X,tT,yY,t,1,0.5958987,n,0,0.7394408,RSVPLG01,0.94,2023-09-12-22:22:52,90014,1,Experiment,2023-09-12_15h49.57.046
3,local,local,7,14,5,173,2,,,179,exp,UFYZTYSLNHZFHLN,YFSYESNZZHUXFNL,5,E,X,eE,yY,e,1,0.3939181,y,1,0.0182625,RSVPLG01,0.94,2023-09-12-22:22:52,90014,1,Experiment,2023-09-12_15h49.57.046
1,local,local,0,14,6,174,0,,,180,exp,YNZTHLZYEHSFFNS,HHFUYLNSZZLFSEN,4,U,absent,uU,nN,u,1,1.4640544,n,1,0.4879737,RSVPLG01,0.94,2023-09-12-22:22:52,90014,1,Experiment,2023-09-12_15h49.57.046
6,local,global,7,14,7,175,5,,,181,exp,TLLUEYSNNTZXUYH,LTNYFSTUNZUSYZH,5,F,X,fF,yY,f,1,0.4767446,y,1,0.1390652,RSVPLG01,0.94,2023-09-12-22:22:52,90014,1,Experiment,2023-09-12_15h49.57.046
1,local,local,0,14,8,176,0,,,182,exp,LTETHYFYEZLFZNN,YSLFUZNESTFNZLY,5,U,absent,uU,nN,u,1,0.5319968,n,1,0.1096851,RSVPLG01,0.94,2023-09-12-22:22:52,90014,1,Experiment,2023-09-12_15h49.57.046
7,global,local,0,14,9,177,6,,,183,exp,YLFUTSFSZZLHNYN,UNYNEUHSLZLHSZF,5,T,absent,tT,nN,t,1,0.4484256,n,1,0.1134166,RSVPLG01,0.94,2023-09-12-22:22:52,90014,1,Experiment,2023-09-12_15h49.57.046
2,local,local,3,14,10,178,1,,,184,exp,TLHLSUZZHFTFYNN,ZHYLEZTXYNUFLTH,5,E,X,eE,yY,e,1,0.318554,y,1,0.082893,RSVPLG01,0.94,2023-09-12-22:22:52,90014,1,Experiment,2023-09-12_15h49.57.046
3,local,local,7,14,11,179,2,,,185,exp,LHFYLNHYZTTEUEF,EEUFHSUFLHZLXTZ,6,S,X,sS,yY,s,1,0.3817246,n,0,0.2260795,RSVPLG01,0.94,2023-09-12-22:22:52,90014,1,Experiment,2023-09-12_15h49.57.046
9,global,local,7,15,0,180,8,,,186,exp,ZUELSLTEHHYUNZN,TUTHFLHNZNYXUYZ,5,S,X,sS,yY,f,0,0.4400406,y,1,0.0886324,RSVPLG01,0.94,2023-09-12-22:22:52,90014,1,Experiment,2023-09-12_15h49.57.046
1,local,local,0,15,1,181,0,,,187,exp,NETLHTUNUESYLSZ,EZYLFLUTSZUETNS,5,F,absent,fF,nN,f,1,0.3334874,n,1,0.1615688,RSVPLG01,0.94,2023-09-12-22:22:52,90014,1,Experiment,2023-09-12_15h49.57.046
11,global,global,3,15,2,182,10,,,188,exp,EEZUZYTTXNFHUFL,NTFZUSHFEUZTENL,6,Y,X,yY,yY,y,1,0.3895978,y,1,0.2404851,RSVPLG01,0.94,2023-09-12-22:22:52,90014,1,Experiment,2023-09-12_15h49.57.046
5,local,global,3,15,3,183,4,,,189,exp,UFYHEEXLSYTSZTU,TUYNZSEFFYTZLLU,4,N,X,nN,yY,n,1,0.3047699,n,0,0.1294724,RSVPLG01,0.94,2023-09-12-22:22:52,90014,1,Experiment,2023-09-12_15h49.57.046
11,global,global,3,15,4,184,10,,,190,exp,HSFTSENZXYHTZYF,ZNNSHLYYUZTTFFH,6,E,X,eE,yY,s,0,0.3656307,n,0,0.2053698,RSVPLG01,0.94,2023-09-12-22:22:52,90014,1,Experiment,2023-09-12_15h49.57.046
7,global,local,0,15,5,185,6,,,191,exp,FSSZNLFLTUTEEYU,LYZTHYEFLSEUFSU,5,N,absent,nN,nN,h,0,0.4827437,n,1,0.1349352,RSVPLG01,0.94,2023-09-12-22:22:52,90014,1,Experiment,2023-09-12_15h49.57.046
9,global,local,7,15,6,186,8,,,192,exp,TNUSHZEZYESYLLU,YZNTFUELUZEXYNS,5,H,X,hH,yY,h,1,0.734765,y,1,0.1705789,RSVPLG01,0.94,2023-09-12-22:22:52,90014,1,Experiment,2023-09-12_15h49.57.046
8,global,local,3,15,7,187,7,,,193,exp,NZLFESENLYHSUYU,NSZTHHXLYYSEZUN,4,F,X,fF,yY,f,1,0.2747123,n,0,0.2240348,RSVPLG01,0.94,2023-09-12-22:22:52,90014,1,Experiment,2023-09-12_15h49.57.046
12,global,global,7,15,8,188,11,,,194,exp,HLSUZNYZFSUYXTT,YFFSTESHLZUYHUT,6,N,X,nN,yY,n,1,0.394688,y,1,0.2194578,RSVPLG01,0.94,2023-09-12-22:22:52,90014,1,Experiment,2023-09-12_15h49.57.046
8,global,local,3,15,9,189,7,,,195,exp,NNZYSEYHLFUZHUF,FNEHTELXUNFUYYZ,5,S,X,sS,yY,e,0,1.6699933,n,0,0.0184888,RSVPLG01,0.94,2023-09-12-22:22:52,90014,1,Experiment,2023-09-12_15h49.57.046
10,global,global,0,15,10,190,9,,,196,exp,ENFFZTUNYTLLUSY,STULHENFTNEYUFS,5,Z,absent,zZ,nN,z,1,0.3248125,n,1,0.0901975,RSVPLG01,0.94,2023-09-12-22:22:52,90014,1,Experiment,2023-09-12_15h49.57.046
4,local,global,0,15,11,191,3,,,197,exp,UELUTNHYLNESYHF,YNUEZLLFUSEFHYS,5,Z,absent,zZ,nN,z,1,0.3930509,n,1,0.1247752,RSVPLG01,0.94,2023-09-12-22:22:52,90014,1,Experiment,2023-09-12_15h49.57.046
7,global,local,0,16,0,192,6,,,198,exp,YNZFHLUTLSSNUYH,ZYSEUNNLTUHLZSY,4,F,absent,fF,nN,f,1,0.3514438,n,1,0.2074561,RSVPLG01,0.94,2023-09-12-22:22:52,90014,1,Experiment,2023-09-12_15h49.57.046
11,global,global,3,16,1,193,10,,,199,exp,NUNZSTLXTZYUFHL,UTFTEZNYHYZLNFH,5,S,X,sS,yY,e,0,0.3265288,n,0,0.0521669,RSVPLG01,0.94,2023-09-12-22:22:52,90014,1,Experiment,2023-09-12_15h49.57.046
5,local,global,3,16,2,194,4,,,200,exp,LNSZUHXLYYEEFNU,YNLTSUNHEFSEUHL,4,T,X,tT,yY,t,1,0.3808393,n,0,0.1804737,RSVPLG01,0.94,2023-09-12-22:22:52,90014,1,Experiment,2023-09-12_15h49.57.046
11,global,global,3,16,3,195,10,,,201,exp,TEZYNETXSUULLYS,EZFLHEYSUUTSTYL,5,N,X,nN,yY,n,1,0.665793,n,0,0.0426673,RSVPLG01,0.94,2023-09-12-22:22:52,90014,1,Experiment,2023-09-12_15h49.57.046
3,local,local,7,16,4,196,2,,,202,exp,YLUFLNHZZHSEUNS,ZYUTSLNLUHXHSNE,4,T,X,tT,yY,t,1,0.3658258,y,1,0.2465876,RSVPLG01,0.94,2023-09-12-22:22:52,90014,1,Experiment,2023-09-12_15h49.57.046
2,local,local,3,16,5,197,1,,,203,exp,SUZELHZFFESTNNL,ESTFUYSUXTNFZNE,6,Y,X,yY,yY,y,1,0.4096233,y,1,0.3161006,RSVPLG01,0.94,2023-09-12-22:22:52,90014,1,Experiment,2023-09-12_15h49.57.046
4,local,global,0,16,6,198,3,,,204,exp,SHSLYZTTFUNNHZY,UNYEUTZSZFNFYSH,4,E,absent,eE,nN,e,1,0.6802732,n,1,0.098857,RSVPLG01,0.94,2023-09-12-22:22:52,90014,1,Experiment,2023-09-12_15h49.57.046
2,local,local,3,16,7,199,1,,,205,exp,LYFZHTUNEZNFLTE,ZLUZSTNXYTNFYFU,5,S,X,sS,yY,s,1,0.3353747,y,1,0.2001921,RSVPLG01,0.94,2023-09-12-22:22:52,90014,1,Experiment,2023-09-12_15h49.57.046
9,global,local,7,16,8,200,8,,,206,exp,SEYFTNHSTEYHLZL,TTFELUYSZELZXFH,6,N,X,nN,yY,u,0,0.4415951,n,0,0.1224714,RSVPLG01,0.94,2023-09-12-22:22:52,90014,1,Experiment,2023-09-12_15h49.57.046
5,local,global,3,16,9,201,4,,,207,exp,SSYLZUXUHZNNYTF,NUYESZFSZHNTYHF,4,E,X,eE,yY,e,1,0.332867,n,0,0.1136422,RSVPLG01,0.94,2023-09-12-22:22:52,90014,1,Experiment,2023-09-12_15h49.57.046
11,global,global,3,16,10,202,10,,,208,exp,FZSFLUNYXZTSLYH,YHNLNEZYZLFHTTS,6,U,X,uU,yY,u,1,0.3628342,y,1,0.0916195,RSVPLG01,0.94,2023-09-12-22:22:52,90014,1,Experiment,2023-09-12_15h49.57.046
5,local,global,3,16,11,203,4,,,209,exp,NZFLYYXUHZTSFNH,NZTEUSHNUTFHFYZ,4,E,X,eE,yY,e,1,0.3869278,n,0,0.3106455,RSVPLG01,0.94,2023-09-12-22:22:52,90014,1,Experiment,2023-09-12_15h49.57.046
1,local,local,0,17,0,204,0,,,210,exp,HSNEUYSYLLZFUHN,LFHTHYFZUNSZUSL,4,T,absent,tT,nN,t,1,0.2770321,n,1,0.1880908,RSVPLG01,0.94,2023-09-12-22:22:52,90014,1,Experiment,2023-09-12_15h49.57.046
9,global,local,7,17,1,205,8,,,211,exp,HFENSFYHUELTTUL,HEFZTTLFUYXESUL,4,N,X,nN,yY,n,1,0.3315535,y,1,0.2090075,RSVPLG01,0.94,2023-09-12-22:22:52,90014,1,Experiment,2023-09-12_15h49.57.046
7,global,local,0,17,2,206,6,,,212,exp,SETZEYUSNFLULTF,UNUHELTLTESYYNF,4,Z,absent,zZ,nN,z,1,0.309571,n,1,0.1287784,RSVPLG01,0.94,2023-09-12-22:22:52,90014,1,Experiment,2023-09-12_15h49.57.046
2,local,local,3,17,3,207,1,,,213,exp,STNEHUYLEZNZHLY,EENYYFHZXLZTSTS,6,F,X,fF,yY,e,0,0.3817553,n,0,0.1628272,RSVPLG01,0.94,2023-09-12-22:22:52,90014,1,Experiment,2023-09-12_15h49.57.046
10,global,global,0,17,4,208,9,,,214,exp,ETLYHFZZNTNSEFS,FLSEUSNTNLZYFYE,5,H,absent,hH,nN,h,1,0.2419433,n,1,0.0821931,RSVPLG01,0.94,2023-09-12-22:22:52,90014,1,Experiment,2023-09-12_15h49.57.046
1,local,local,0,17,5,209,0,,,215,exp,ZNYTFUUHLNZSYLH,ZSNHETYYHLSLUUT,5,E,absent,eE,nN,e,1,0.3411637,n,1,0.0897716,RSVPLG01,0.94,2023-09-12-22:22:52,90014,1,Experiment,2023-09-12_15h49.57.046
9,global,local,7,17,6,210,8,,,216,exp,HHSSZFTYUYLEUTZ,EHZLTNYSYHZUXUT,6,F,X,fF,yY,f,1,0.3703188,y,1,0.1159505,RSVPLG01,0.94,2023-09-12-22:22:52,90014,1,Experiment,2023-09-12_15h49.57.046
8,global,local,3,17,7,211,7,,,217,exp,NTNELHUZLUYSYTH,SZLFYHXYZNHNSUT,4,E,X,eE,yY,h,0,0.7715522,n,0,0.2072661,RSVPLG01,0.94,2023-09-12-22:22:52,90014,1,Experiment,2023-09-12_15h49.57.046
11,global,global,3,17,8,212,10,,,218,exp,ZLSFYULXUTESZEF,FSZHNUFSHELLUTZ,5,Y,X,yY,yY,y,1,0.580181,y,1,0.1381213,RSVPLG01,0.94,2023-09-12-22:22:52,90014,1,Experiment,2023-09-12_15h49.57.046
7,global,local,0,17,9,213,6,,,219,exp,LYZSUNELZFEYHUN,HYETFYLZNHZENLU,4,S,absent,sS,nN,s,1,0.3136114,y,0,0.45248,RSVPLG01,0.94,2023-09-12-22:22:52,90014,1,Experiment,2023-09-12_15h49.57.046
4,local,global,0,17,10,214,3,,,220,exp,ZSNHEHYSNUTFTFZ,SSYNLTUHYZHFUFZ,5,L,absent,lL,nN,l,1,0.3108942,n,1,0.1937644,RSVPLG01,0.94,2023-09-12-22:22:52,90014,1,Experiment,2023-09-12_15h49.57.046
8,global,local,3,17,11,215,7,,,221,exp,UZEHNTUELFNLFTZ,ELTYUSXZLFUNSET,4,H,X,hH,yY,y,0,0.4877008,n,0,0.387266,RSVPLG01,0.94,2023-09-12-22:22:52,90014,1,Experiment,2023-09-12_15h49.57.046
4,local,global,0,18,0,216,3,,,222,exp,FNTSLZFUZYNHTUS,TNYSEFUHNFYZZTS,5,E,absent,eE,nN,e,1,0.2619353,y,0,0.0775641,RSVPLG01,0.94,2023-09-12-22:22:52,90014,1,Experiment,2023-09-12_15h49.57.046
9,global,local,7,18,1,217,8,,,223,exp,UYLLNUFZZFYTTSS,UTLSEFHZHZTXLUF,5,N,X,nN,yY,e,0,0.2976507,n,0,0.1056599,RSVPLG01,0.94,2023-09-12-22:22:52,90014,1,Experiment,2023-09-12_15h49.57.046
3,local,local,7,18,2,218,2,,,224,exp,UYULESZFSHNFYEH,FZSTUHZNYFXSNHY,4,T,X,tT,yY,t,1,0.320587,y,1,0.1701845,RSVPLG01,0.94,2023-09-12-22:22:52,90014,1,Experiment,2023-09-12_15h49.57.046
4,local,global,0,18,3,219,3,,,225,exp,YTUEYSZUFFNTHZS,NSTLUZUHYFZFNYS,4,L,absent,lL,nN,l,1,0.2521378,n,1,0.3639101,RSVPLG01,0.94,2023-09-12-22:22:52,90014,1,Experiment,2023-09-12_15h49.57.046
3,local,local,7,18,4,220,2,,,226,exp,TLEHLSFSFZYNEZY,NNTUTSFELLXZSYZ,4,U,X,uU,yY,u,1,0.38413,y,1,0.0737473,RSVPLG01,0.94,2023-09-12-22:22:52,90014,1,Experiment,2023-09-12_15h49.57.046
9,global,local,7,18,5,221,8,,,227,exp,ENZHTUYNEFYTHSZ,ZTTSZLHYFNSFXEE,6,U,X,uU,yY,u,1,0.3680363,n,0,0.1141632,RSVPLG01,0.94,2023-09-12-22:22:52,90014,1,Experiment,2023-09-12_15h49.57.046
5,local,global,3,18,6,222,4,,,228,exp,SLFYNFXZTETUSEZ,LSUHNTEFUTFZZEN,4,H,X,hH,yY,h,1,0.3844474,y,1,0.1143594,RSVPLG01,0.94,2023-09-12-22:22:52,90014,1,Experiment,2023-09-12_15h49.57.046
3,local,local,7,18,7,223,2,,,229,exp,UUYTLYHNNHZSSZL,LZNEUHSHYLXNUZY,4,E,X,eE,yY,e,1,0.3411156,y,1,0.2355011,RSVPLG01,0.94,2023-09-12-22:22:52,90014,1,Experiment,2023-09-12_15h49.57.046
5,local,global,3,18,8,224,4,,,230,exp,UHESZLTYXEZYFFT,STFHENHEZZUFYTY,6,N,X,nN,yY,n,1,0.4188388,n,0,2.1067673,RSVPLG01,0.94,2023-09-12-22:22:52,90014,1,Experiment,2023-09-12_15h49.57.046
12,global,global,7,18,9,225,11,,,231,exp,UYYFZTSFNNLZXHH,LLUSZENHHFYSNYF,6,T,X,tT,yY,t,1,0.3794157,y,1,0.1859702,RSVPLG01,0.94,2023-09-12-22:22:52,90014,1,Experiment,2023-09-12_15h49.57.046
9,global,local,7,18,10,226,8,,,232,exp,ULSYNEETSTUFLNZ,SFLHNZFTUUXNTLE,4,Y,X,yY,yY,y,1,0.6992864,y,1,0.1082878,RSVPLG01,0.94,2023-09-12-22:22:52,90014,1,Experiment,2023-09-12_15h49.57.046
3,local,local,7,18,11,227,2,,,233,exp,NYTUYZLFZTHSLFS,TYNELHLFTHXZYSZ,4,E,X,eE,yY,e,1,0.3264751,y,1,0.1265785,RSVPLG01,0.94,2023-09-12-22:22:52,90014,1,Experiment,2023-09-12_15h49.57.046
1,local,local,0,19,0,228,0,,,234,exp,FEYHHTELZZFYULS,LFSUFNZELEZUSYH,6,N,absent,nN,nN,n,1,0.4524075,n,1,0.0900829,RSVPLG01,0.94,2023-09-12-22:22:52,90014,1,Experiment,2023-09-12_15h49.57.046
6,local,global,7,19,1,229,5,,,235,exp,NHUYZULFTYSXFLS,LYNNEFLUSTFTUYH,5,E,X,eE,yY,e,1,0.3578002,y,1,0.1567183,RSVPLG01,0.94,2023-09-12-22:22:52,90014,1,Experiment,2023-09-12_15h49.57.046
5,local,global,3,19,2,230,4,,,236,exp,HZHYLEFXSTTSNNE,NYYFUSZTZHTNEEF,5,U,X,uU,yY,u,1,0.3464781,y,1,0.1204333,RSVPLG01,0.94,2023-09-12-22:22:52,90014,1,Experiment,2023-09-12_15h49.57.046
4,local,global,0,19,3,231,3,,,237,exp,YLLHEFSNSYZUUHZ,HLHFTNZULSYZNUF,5,T,absent,tT,nN,t,1,0.357922,n,1,0.0849676,RSVPLG01,0.94,2023-09-12-22:22:52,90014,1,Experiment,2023-09-12_15h49.57.046
6,local,global,7,19,4,232,5,,,238,exp,NUELEZTSNYSYXTH,TTENHFYLHLSNESU,6,F,X,fF,yY,z,0,0.2978886,n,0,0.0729596,RSVPLG01,0.94,2023-09-12-22:22:52,90014,1,Experiment,2023-09-12_15h49.57.046
7,global,local,0,19,5,233,6,,,239,exp,TENZFLLSUUENYZS,YSNYHSELLTUUENZ,5,F,absent,fF,nN,f,1,0.9495149,n,1,0.1056141,RSVPLG01,0.94,2023-09-12-22:22:52,90014,1,Experiment,2023-09-12_15h49.57.046
2,local,local,3,19,6,234,1,,,240,exp,ZEZHFSSHTENNYTL,YZNLUTTXSLHEHNZ,5,U,X,uU,yY,u,1,0.2963435,y,1,0.0925589,RSVPLG01,0.94,2023-09-12-22:22:52,90014,1,Experiment,2023-09-12_15h49.57.046
5,local,global,3,19,7,235,4,,,241,exp,HFZNUYXLLHSUFSZ,SYTEZZUHUFFTLYL,4,E,X,eE,yY,e,1,0.340143,n,0,0.1081372,RSVPLG01,0.94,2023-09-12-22:22:52,90014,1,Experiment,2023-09-12_15h49.57.046
3,local,local,7,19,8,236,2,,,242,exp,NTUHSEHSNZZULTF,SLFNTYUSHLFZXUT,6,Y,X,yY,yY,y,1,0.5202715,y,1,0.118469,RSVPLG01,0.94,2023-09-12-22:22:52,90014,1,Experiment,2023-09-12_15h49.57.046
12,global,global,7,19,9,237,11,,,243,exp,TUZNHEUSSELXZLN,UZLSFYZNTSEULYE,5,H,X,hH,yY,h,1,0.4083186,y,1,0.1311901,RSVPLG01,0.94,2023-09-12-22:22:52,90014,1,Experiment,2023-09-12_15h49.57.046
6,local,global,7,19,10,238,5,,,244,exp,FYFZZUEEHNSHXSN,NLLHNTZYSSZEEFH,6,T,X,tT,yY,t,1,0.4507243,y,1,0.3610789,RSVPLG01,0.94,2023-09-12-22:22:52,90014,1,Experiment,2023-09-12_15h49.57.046
10,global,global,0,19,11,239,9,,,245,exp,TEHUHYELNYNTZSS,LSEFLYNNZSEZTHT,4,U,absent,uU,nN,u,1,0.3422703,n,1,0.0956643,RSVPLG01,0.94,2023-09-12-22:22:52,90014,1,Experiment,2023-09-12_15h49.57.046