row,t1_level,t2_level,t2_lag,.thisRepN,.thisTrialN,.thisN,.thisIndex,trial,trial_type,global_letters,local_letters,t1_pos,t1,t2,t1_corr,t2_corr,t1_resp,t1_acc,t1_rt,t2_resp,t2_acc,t2_rt,exp,ver,mod-utc,sub,sess,blocktyp,datetime,
1,local,local,0,0,0,0,0,1,warmup,TUZEYSNUZNTHEFH,FEFSLTZZNTSNHUH,5,L,absent,lL,nN,l,1,0.8419405999593437,n,1,0.7774604000151157,RSVPLG01,0.94,2023-09-12-22:31:44,909,1,Experiment,2023-09-12_15h48.50.433,
2,local,local,3,0,1,1,1,2,warmup,LLEZUSHNTTEHNFU,HSNYFLXNHUSUTET,4,Y,X,yY,yY,y,1,0.7394952999893576,y,1,0.4284042000072077,RSVPLG01,0.94,2023-09-12-22:31:44,909,1,Experiment,2023-09-12_15h48.50.433,
8,global,local,3,0,2,2,7,3,warmup,NEFTFYHULLUSYEN,ENYZFEXSHNYHLFU,4,T,X,tT,yY,t,1,0.7486840999918059,y,1,0.3668044999940321,RSVPLG01,0.94,2023-09-12-22:31:44,909,1,Experiment,2023-09-12_15h48.50.433,
7,global,local,0,0,3,3,6,4,warmup,LETSLZZNNHUTYUE,UELFUNYTYTNHZLZ,4,S,absent,sS,nN,s,1,0.8777897000545636,n,1,0.3486018000403419,RSVPLG01,0.94,2023-09-12-22:31:44,909,1,Experiment,2023-09-12_15h48.50.433,
10,global,global,0,0,4,4,9,5,warmup,NETSYZYNEHULLTU,HTLNYFSUUHNSYTL,6,Z,absent,zZ,nN,z,1,0.948822999955155,y,0,0.6174756999826059,RSVPLG01,0.94,2023-09-12-22:31:44,909,1,Experiment,2023-09-12_15h48.50.433,
5,local,global,3,0,0,0,4,6,exp,HTEYLNUHXLYEFFS,TSULTZFUYHESLFE,6,Z,X,zZ,yY,z,1,0.8388639000477269,y,1,0.6072642999934033,RSVPLG01,0.94,2023-09-12-22:31:44,909,1,Experiment,2023-09-12_15h48.50.433,
8,global,local,3,0,1,1,7,7,exp,FZSUHFNZLYEYUEL,ESSLTNFXYUZFLNZ,5,H,X,hH,yY,n,0,0.9342457000166178,n,0,0.4726891000755131,RSVPLG01,0.94,2023-09-12-22:31:44,909,1,Experiment,2023-09-12_15h48.50.433,
2,local,local,3,0,2,2,1,8,exp,EFHZHLUNEFTNSTS,HSFYUUXTESTLNFL,4,Y,X,yY,yY,z,0,0.8535123999463394,y,1,0.4463471999624744,RSVPLG01,0.94,2023-09-12-22:31:44,909,1,Experiment,2023-09-12_15h48.50.433,
11,global,global,3,0,3,3,10,9,exp,ZSHLHYXFUTNYSTN,SHNEYTUSHYZFTFU,4,L,X,lL,yY,l,1,0.814002100029029,y,1,1.7907530999509618,RSVPLG01,0.94,2023-09-12-22:31:44,909,1,Experiment,2023-09-12_15h48.50.433,
6,local,global,7,0,4,4,5,10,exp,ZZHFUSYFESNXNEL,ELZYTELSNZFHYNH,5,T,X,tT,yY,t,1,0.9642437000293285,y,1,0.3129135000053793,RSVPLG01,0.94,2023-09-12-22:31:44,909,1,Experiment,2023-09-12_15h48.50.433,
8,global,local,3,0,5,5,7,11,exp,YNUHSLENFUTTSFY,HEFUUZYSXNTNSYH,6,L,X,lL,yY,y,0,1.872069999924861,y,1,1.0827769000316039,RSVPLG01,0.94,2023-09-12-22:31:44,909,1,Experiment,2023-09-12_15h48.50.433,
11,global,global,3,0,6,6,10,12,exp,FHETNSHXZLEUFTU,TTUZYHEULZHSFSF,5,N,X,nN,yY,n,1,0.744113799999468,y,1,0.45782220002729446,RSVPLG01,0.94,2023-09-12-22:31:44,909,1,Experiment,2023-09-12_15h48.50.433,
9,global,local,7,0,7,7,8,13,exp,YHULFSYEEUFLHZN,NZYHHTFLLUUYXFN,6,S,X,sS,yY,s,1,0.9681859998963773,y,1,0.3122159999329597,RSVPLG01,0.94,2023-09-12-22:31:44,909,1,Experiment,2023-09-12_15h48.50.433,
3,local,local,7,0,8,8,2,14,exp,ELNZHYHLUFZESUS,HENFLTSSULZZXHU,6,T,X,tT,yY,t,1,1.0898141000652686,y,1,0.3790877000428736,RSVPLG01,0.94,2023-09-12-22:31:44,909,1,Experiment,2023-09-12_15h48.50.433,
12,global,global,7,0,9,9,11,15,exp,FYHHNUZZENFSXSE,FNTTNLZYSHYEHSZ,6,U,X,uU,yY,l,0,0.8024532999843359,y,1,0.6170629999833182,RSVPLG01,0.94,2023-09-12-22:31:44,909,1,Experiment,2023-09-12_15h48.50.433,
8,global,local,3,0,10,10,7,16,exp,YSFUZTTFYHHZLNL,TSSEHNXFTFYLYHN,4,U,X,uU,yY,u,1,0.7009761999361217,y,1,0.31288510002195835,RSVPLG01,0.94,2023-09-12-22:31:44,909,1,Experiment,2023-09-12_15h48.50.433,
12,global,global,7,0,11,11,11,17,exp,ULEHFZNYTNXTEZU,FFUSYTULEZNZLEY,4,H,X,hH,yY,h,1,0.7000709000276402,y,1,0.48001240007579327,RSVPLG01,0.94,2023-09-12-22:31:44,909,1,Experiment,2023-09-12_15h48.50.433,
3,local,local,7,1,0,12,2,18,exp,ZNTESHYYHFFNTZE,ZHTNUHFYYLZXNEF,5,U,X,uU,yY,u,1,0.6547759000677615,y,1,0.440966899972409,RSVPLG01,0.94,2023-09-12-22:31:44,909,1,Experiment,2023-09-12_15h48.50.433,
5,local,global,3,1,1,13,4,19,exp,YHHTNSSXUZFYFLZ,HYUFEHTTZFUSLZS,5,E,X,eE,yY,e,1,0.9563447999535128,y,1,0.36351539997849613,RSVPLG01,0.94,2023-09-12-22:31:44,909,1,Experiment,2023-09-12_15h48.50.433,
12,global,global,7,1,2,14,11,20,exp,FTNFLUYZHHSXUTZ,SZZHEFNTUYUFTHN,5,L,X,lL,yY,l,1,0.9024414999876171,y,1,0.3305370999732986,RSVPLG01,0.94,2023-09-12-22:31:44,909,1,Experiment,2023-09-12_15h48.50.433,
1,local,local,0,1,3,15,0,21,exp,SZYYTNSUUHLTEEL,LZYEYFHLESSZTTH,6,F,absent,fF,nN,f,1,0.8322000000625849,n,1,0.30241339991334826,RSVPLG01,0.94,2023-09-12-22:31:44,909,1,Experiment,2023-09-12_15h48.50.433,
7,global,local,0,1,4,16,6,22,exp,FTSHYZYTLFHELUU,HFYSFNUYTESLTHU,6,Z,absent,zZ,nN,z,1,0.9469679000321776,y,0,0.2803529999218881,RSVPLG01,0.94,2023-09-12-22:31:44,909,1,Experiment,2023-09-12_15h48.50.433,
2,local,local,3,1,5,17,1,23,exp,ESUHYLTFUZZLYST,YYTNSUXTLZUFEZF,4,N,X,nN,yY,n,1,0.6987938000820577,y,1,0.09372070000972599,RSVPLG01,0.94,2023-09-12-22:31:44,909,1,Experiment,2023-09-12_15h48.50.433,
10,global,global,0,1,6,18,9,24,exp,NLFTYNLZUHHZFUY,FFZSHYLLNUEZYNU,4,T,absent,tT,nN,y,0,0.6713826999766752,y,0,0.3303384999744594,RSVPLG01,0.94,2023-09-12-22:31:44,909,1,Experiment,2023-09-12_15h48.50.433,
10,global,global,0,1,7,19,9,25,exp,ZUTFYNZYFEHEUST,UYSFELTFZSTHHUE,6,N,absent,nN,nN,z,0,0.45576359995175153,y,0,0.316110200015828,RSVPLG01,0.94,2023-09-12-22:31:44,909,1,Experiment,2023-09-12_15h48.50.433,
5,local,global,3,1,8,20,4,26,exp,FLHUTYUXHZLNYSF,LNZYEFSFYUULHSH,5,E,X,eE,yY,e,1,0.7699439999414608,y,1,0.44650930003263056,RSVPLG01,0.94,2023-09-12-22:31:44,909,1,Experiment,2023-09-12_15h48.50.433,
8,global,local,3,1,9,21,7,27,exp,HZEYSHFEZNUNTYT,EHYZLYUXZNFHTTE,5,S,X,sS,yY,s,1,0.9143099000211805,y,1,0.4247660000110045,RSVPLG01,0.94,2023-09-12-22:31:44,909,1,Experiment,2023-09-12_15h48.50.433,
4,local,global,0,1,10,22,3,28,exp,TEZLYNSULFTUZSF,LTFEFHYSUYLZEZU,6,H,absent,hH,nN,h,1,0.7849503000034019,y,0,0.34959999995771796,RSVPLG01,0.94,2023-09-12-22:31:44,909,1,Experiment,2023-09-12_15h48.50.433,
9,global,local,7,1,11,23,8,29,exp,HESYZULTNLUTZHE,EZLFTSZTHUXENLN,4,Y,X,yY,yY,y,1,0.8358213999308646,y,1,0.31736510002519935,RSVPLG01,0.94,2023-09-12-22:31:44,909,1,Experiment,2023-09-12_15h48.50.433,
5,local,global,3,2,0,24,4,30,exp,FZULNLHXFYSZEUH,HLUSTLFYEUZSZHY,5,T,X,tT,yY,t,1,0.2350407000631094,y,1,0.37740140000823885,RSVPLG01,0.94,2023-09-12-22:31:44,909,1,Experiment,2023-09-12_15h48.50.433,
3,local,local,7,2,1,25,2,31,exp,LLTEHYNEFTFUNSS,EFSTEZUNSHHUXTF,6,Z,X,zZ,yY,z,1,0.7825819000136107,y,1,0.47757450002245605,RSVPLG01,0.94,2023-09-12-22:31:44,909,1,Experiment,2023-09-12_15h48.50.433,
1,local,local,0,2,2,26,0,32,exp,HYTSFTZSHZNENYE,ZNYHLNHTEZSUEUY,5,L,absent,lL,nN,n,0,1.708162699942477,n,1,0.782964100013487,RSVPLG01,0.94,2023-09-12-22:31:44,909,1,Experiment,2023-09-12_15h48.50.433,
10,global,global,0,2,3,27,9,33,exp,EZNHTSUHTNZELFU,NZLTHYULTZNUFEH,6,S,absent,sS,nN,s,1,0.8593011999037117,y,0,0.5267545999959111,RSVPLG01,0.94,2023-09-12-22:31:44,909,1,Experiment,2023-09-12_15h48.50.433,
12,global,global,7,2,4,28,11,34,exp,ZTLTZFNNHYEHXUL,HLNELSZNTHYZEYU,6,F,X,fF,yY,f,1,1.076070100069046,y,1,1.0351847999263555,RSVPLG01,0.94,2023-09-12-22:31:44,909,1,Experiment,2023-09-12_15h48.50.433,
5,local,global,3,2,5,29,4,35,exp,HLSTUZLFXFUSNHY,SFUTLEHUNTFNLHY,6,E,X,eE,yY,e,1,0.49268929997924715,y,1,0.681806999957189,RSVPLG01,0.94,2023-09-12-22:31:44,909,1,Experiment,2023-09-12_15h48.50.433,
2,local,local,3,2,6,30,1,36,exp,TNHZFLSENEUHTUF,HFFSZYHNXEUNUST,6,Y,X,yY,yY,s,0,0.9355841000797227,n,0,0.2644502999028191,RSVPLG01,0.94,2023-09-12-22:31:44,909,1,Experiment,2023-09-12_15h48.50.433,
6,local,global,7,2,7,31,5,37,exp,UFHSLESTLTZHXZF,HTFFSNLUSTZZHYL,6,N,X,nN,yY,n,1,0.5940000000409782,y,1,0.5907829999923706,RSVPLG01,0.94,2023-09-12-22:31:44,909,1,Experiment,2023-09-12_15h48.50.433,
1,local,local,0,2,8,32,0,38,exp,YUELHEFLSSZTZFU,UETFNZYZUYTESLF,5,N,absent,nN,nN,z,0,0.8960162000730634,n,1,0.26786459994036704,RSVPLG01,0.94,2023-09-12-22:31:44,909,1,Experiment,2023-09-12_15h48.50.433,
9,global,local,7,2,9,33,8,39,exp,ZLNSYTNUUEEZLYT,ZZEFTUYLNUXYHET,4,S,X,sS,yY,s,1,1.0850271000526845,n,0,0.4308122000657022,RSVPLG01,0.94,2023-09-12-22:31:44,909,1,Experiment,2023-09-12_15h48.50.433,
10,global,global,0,2,10,34,9,40,exp,NYHHEUTUYNSFFZS,UZSHLFUHNNSFYZY,5,E,absent,eE,nN,n,0,1.7051851000869647,n,1,0.6704927999526262,RSVPLG01,0.94,2023-09-12-22:31:44,909,1,Experiment,2023-09-12_15h48.50.433,
12,global,global,7,2,11,35,11,41,exp,NYSLTSYETZXEZNF,EZNHYTFUYFNSSTU,4,L,X,lL,yY,s,0,0.8444599999347702,y,1,0.1545371999964118,RSVPLG01,0.94,2023-09-12-22:31:44,909,1,Experiment,2023-09-12_15h48.50.433,
10,global,global,0,3,0,36,9,42,exp,FTSULHELZTNNFHE,SHLYELZEHTNSFTN,4,U,absent,uU,nN,y,0,0.764942399924621,y,0,0.15449860005173832,RSVPLG01,0.94,2023-09-12-22:31:44,909,1,Experiment,2023-09-12_15h48.50.433,
7,global,local,0,3,1,37,6,43,exp,FESYLLHFNSHUEZU,FNSTFELNESZLHZU,4,Y,absent,yY,nN,y,1,0.7813145999098197,n,1,0.33571459993254393,RSVPLG01,0.94,2023-09-12-22:31:44,909,1,Experiment,2023-09-12_15h48.50.433,
1,local,local,0,3,2,38,0,44,exp,EZSELYHFUFNNSLU,EFUSNTHHNUFLSZZ,6,T,absent,tT,nN,t,1,0.7724719000980258,n,1,1.0196648999117315,RSVPLG01,0.94,2023-09-12-22:31:44,909,1,Experiment,2023-09-12_15h48.50.433,
4,local,global,0,3,3,39,3,45,exp,SHZLUESYFUNHNFZ,YEETSUYHFNHZFSN,4,T,absent,tT,nN,l,0,1.0432480999734253,n,1,0.35073140007443726,RSVPLG01,0.94,2023-09-12-22:31:44,909,1,Experiment,2023-09-12_15h48.50.433,
8,global,local,3,3,4,40,7,46,exp,TENLHUNFYTZFEUY,ENFTSLUXNUFZYLY,5,H,X,hH,yY,s,0,0.8415807000128552,n,0,0.185838200035505,RSVPLG01,0.94,2023-09-12-22:31:44,909,1,Experiment,2023-09-12_15h48.50.433,
6,local,global,7,3,5,41,5,47,exp,YLESHFHZLNXZUYN,NEUTLUNHYLHEZFZ,4,T,X,tT,yY,t,1,1.3035237999865785,y,1,0.6193325000349432,RSVPLG01,0.94,2023-09-12-22:31:44,909,1,Experiment,2023-09-12_15h48.50.433,
1,local,local,0,3,6,42,0,48,exp,HTSLUNFYLYUFZST,THSSLELHFZYUZTF,6,E,absent,eE,nN,e,1,0.7486088000005111,n,1,0.5211301000090316,RSVPLG01,0.94,2023-09-12-22:31:44,909,1,Experiment,2023-09-12_15h48.50.433,
12,global,global,7,3,7,43,11,49,exp,UZTULENFNSTXYYF,NSZYHTZUUTEFSYF,5,L,X,lL,yY,l,1,0.6968939999351278,y,1,0.7303412000183016,RSVPLG01,0.94,2023-09-12-22:31:44,909,1,Experiment,2023-09-12_15h48.50.433,
10,global,global,0,3,8,44,9,50,exp,TLYNHTUESYEZNZU,SNELFZYTSTNLUYZ,5,H,absent,hH,nN,f,0,1.1005782999563962,n,1,0.3123370000394061,RSVPLG01,0.94,2023-09-12-22:31:44,909,1,Experiment,2023-09-12_15h48.50.433,
7,global,local,0,3,9,45,6,51,exp,SNSYFUTHTYZUNZL,LSUHENTSYHULNTZ,5,F,absent,fF,nN,e,0,1.1087826999137178,n,1,0.20093749999068677,RSVPLG01,0.94,2023-09-12-22:31:44,909,1,Experiment,2023-09-12_15h48.50.433,
11,global,global,3,3,10,46,10,52,exp,HFYLNTXZEUUFNEY,YFNSFYEZUNZHTTE,4,L,X,lL,yY,l,1,0.603349499986507,y,1,0.32991960004437715,RSVPLG01,0.94,2023-09-12-22:31:44,909,1,Experiment,2023-09-12_15h48.50.433,
7,global,local,0,3,11,47,6,53,exp,UTYHLENTLNZHYSS,LLSYTFHZUHTUNZS,6,E,absent,eE,nN,f,0,0.9253538000630215,y,0,0.3949659999925643,RSVPLG01,0.94,2023-09-12-22:31:44,909,1,Experiment,2023-09-12_15h48.50.433,
5,local,global,3,4,0,48,4,54,exp,HESSZNTLXTFHLFU,ULHFTYLSSUEZEFZ,6,Y,X,yY,yY,y,1,0.512038099928759,y,1,0.37710869999136776,RSVPLG01,0.94,2023-09-12-22:31:44,909,1,Experiment,2023-09-12_15h48.50.433,
7,global,local,0,4,1,49,6,55,exp,UYSZNTLEUSNHYLH,TNUFLSHTEHSYLEN,4,Z,absent,zZ,nN,z,1,0.9051664000144228,y,0,1.129688100074418,RSVPLG01,0.94,2023-09-12-22:31:44,909,1,Experiment,2023-09-12_15h48.50.433,
6,local,global,7,4,2,50,5,56,exp,HZHLSTFNFZLSXUN,FEUNLYSZELHFZUN,6,Y,X,yY,yY,y,1,1.0833394000073895,y,1,0.3626733999699354,RSVPLG01,0.94,2023-09-12-22:31:44,909,1,Experiment,2023-09-12_15h48.50.433,
3,local,local,7,4,3,51,2,57,exp,FZEUSEYYFSTNNZL,SLFHTYTESNXELFN,4,H,X,hH,yY,h,1,0.7665476000402123,n,0,0.206046300008893,RSVPLG01,0.94,2023-09-12-22:31:44,909,1,Experiment,2023-09-12_15h48.50.433,
7,global,local,0,4,4,52,6,58,exp,NUSYELTLNFUSHTE,LSNZNHUTHESFLEU,4,Y,absent,yY,nN,y,1,0.8753068000078201,n,1,0.281241700053215,RSVPLG01,0.94,2023-09-12-22:31:44,909,1,Experiment,2023-09-12_15h48.50.433,
10,global,global,0,4,5,53,9,59,exp,NTULNFEHYHSSYTU,ETNYLZYESHTNSLU,6,F,absent,fF,nN,z,0,0.8615048000356182,y,0,0.5738861000863835,RSVPLG01,0.94,2023-09-12-22:31:44,909,1,Experiment,2023-09-12_15h48.50.433,
6,local,global,7,4,6,54,5,60,exp,EHYZTHEUNLXYNUT,UTYSYFUEEHNLNFH,4,S,X,sS,yY,s,1,0.25586849998217076,y,1,0.6695305000757799,RSVPLG01,0.94,2023-09-12-22:31:44,909,1,Experiment,2023-09-12_15h48.50.433,
2,local,local,3,4,7,55,1,61,exp,FZNHUYSTZLUTLNY,ZTFEUSXYUYNSZLL,4,E,X,eE,yY,e,1,0.8885059000458568,y,1,0.24991859996225685,RSVPLG01,0.94,2023-09-12-22:31:44,909,1,Experiment,2023-09-12_15h48.50.433,
4,local,global,0,4,8,56,3,62,exp,LNSLTZSEYEHYUTN,UEYUSFYLNHELTNT,6,F,absent,fF,nN,f,1,0.9205486999126151,y,0,0.8100123999174684,RSVPLG01,0.94,2023-09-12-22:31:44,909,1,Experiment,2023-09-12_15h48.50.433,
8,global,local,3,4,9,57,7,63,exp,NSFYHLNSZZUTYTL,FNTFEZZXSLULTYN,5,H,X,hH,yY,e,0,1.1169469999149442,y,1,0.40941469999961555,RSVPLG01,0.94,2023-09-12-22:31:44,909,1,Experiment,2023-09-12_15h48.50.433,
12,global,global,7,4,10,58,11,64,exp,YUYSHZLZULXNFNE,ZHHTULLEFNZYENF,4,S,X,sS,yY,s,1,0.3344222999876365,y,1,0.42957499995827675,RSVPLG01,0.94,2023-09-12-22:31:44,909,1,Experiment,2023-09-12_15h48.50.433,
3,local,local,7,4,11,59,2,65,exp,ESYLHZTZHUYSNUE,NZYFUSYTHEXUEZN,4,F,X,fF,yY,h,0,0.638583300053142,y,1,0.36286720004864037,RSVPLG01,0.94,2023-09-12-22:31:44,909,1,Experiment,2023-09-12_15h48.50.433,
2,local,local,3,5,0,60,1,66,exp,UYSYHSUENETLNZZ,USUEFLYXETNYSNZ,5,F,X,fF,yY,f,1,0.3918396000517532,n,0,0.4259275000076741,RSVPLG01,0.94,2023-09-12-22:31:44,909,1,Experiment,2023-09-12_15h48.50.433,
10,global,global,0,5,1,61,9,67,exp,FSHLSNYNUTYZTHU,FUNETSZYSZNTHYU,4,L,absent,lL,nN,l,1,0.8386250999756157,y,0,0.2524462000001222,RSVPLG01,0.94,2023-09-12-22:31:44,909,1,Experiment,2023-09-12_15h48.50.433,
1,local,local,0,5,2,62,0,68,exp,ZYYHNHZFETFLUTE,TEHTSHULLEZYFZF,5,S,absent,sS,nN,s,1,0.843220799928531,y,0,0.15340389998164028,RSVPLG01,0.94,2023-09-12-22:31:44,909,1,Experiment,2023-09-12_15h48.50.433,
9,global,local,7,5,3,63,8,69,exp,STHEZSUTYYFNUHE,SNYTLTESFUYXNHF,5,Z,X,zZ,yY,z,1,0.8280579999554902,y,1,0.20435170002747327,RSVPLG01,0.94,2023-09-12-22:31:44,909,1,Experiment,2023-09-12_15h48.50.433,
9,global,local,7,5,4,64,8,70,exp,ZFUHSEYLYSFNNZE,EYFTNYFSUNXZLUS,4,H,X,hH,yY,h,1,0.3744944999925792,y,1,2.7338366999756545,RSVPLG01,0.94,2023-09-12-22:31:44,909,1,Experiment,2023-09-12_15h48.50.433,
6,local,global,7,5,5,65,5,71,exp,EFLHFNZUSUZHXSL,ETLHLYZHFFUUEZS,6,Y,X,yY,yY,y,1,0.6363086000783369,y,1,0.3829421999398619,RSVPLG01,0.94,2023-09-12-22:31:44,909,1,Experiment,2023-09-12_15h48.50.433,
9,global,local,7,5,6,66,8,72,exp,EYTNZFEZSYNLULS,LEYEZHNSLTUZXUS,6,F,X,fF,yY,n,0,1.483290300006047,y,1,0.12418599997181445,RSVPLG01,0.94,2023-09-12-22:31:44,909,1,Experiment,2023-09-12_15h48.50.433,
7,global,local,0,5,7,67,6,73,exp,NUYYZSNHULTSTLF,FYULESYNTLUHHFS,5,Z,absent,zZ,nN,z,1,0.8366028000600636,n,1,0.23788209992926568,RSVPLG01,0.94,2023-09-12-22:31:44,909,1,Experiment,2023-09-12_15h48.50.433,
12,global,global,7,5,8,68,11,74,exp,LHNUYSEZUYLNXEH,ZYLTNFUHYEHZNTL,6,S,X,sS,yY,s,1,0.720574300037697,y,1,0.5553036000346765,RSVPLG01,0.94,2023-09-12-22:31:44,909,1,Experiment,2023-09-12_15h48.50.433,
2,local,local,3,5,9,69,1,75,exp,NLYNZELSHSYTTEU,HUTUFEEXHSNNTLY,5,F,X,fF,yY,f,1,0.5869452999904752,y,1,0.2052914999658242,RSVPLG01,0.94,2023-09-12-22:31:44,909,1,Experiment,2023-09-12_15h48.50.433,
10,global,global,0,5,10,70,9,76,exp,YHZFZUEELTSSTYF,SEEZSNFYYTLHLHZ,6,U,absent,uU,nN,u,1,0.9679281000280753,y,0,0.3148773000575602,RSVPLG01,0.94,2023-09-12-22:31:44,909,1,Experiment,2023-09-12_15h48.50.433,
8,global,local,3,5,11,71,7,77,exp,EUSNZLSHNEUYHYL,YFNLTYSXUSLUHFE,5,Z,X,zZ,yY,z,1,0.2231149000581354,y,1,0.41229470004327595,RSVPLG01,0.94,2023-09-12-22:31:44,909,1,Experiment,2023-09-12_15h48.50.433,
1,local,local,0,6,0,72,0,78,exp,LTZUEEYHNZLNFHY,FLYSNETZTNYZHLF,4,S,absent,sS,nN,s,1,0.8692561000352725,y,0,0.18912729993462563,RSVPLG01,0.94,2023-09-12-22:31:44,909,1,Experiment,2023-09-12_15h48.50.433,
5,local,global,3,6,1,73,4,79,exp,FSYZFEXLNUEYHSN,YHUTEFFLNUHLNYS,4,T,X,tT,yY,y,0,0.8258961000246927,y,1,1.577295899973251,RSVPLG01,0.94,2023-09-12-22:31:44,909,1,Experiment,2023-09-12_15h48.50.433,
2,local,local,3,6,2,74,1,80,exp,SNFLSTNTFZZEUUE,NUUYSHXZFTNSFET,4,Y,X,yY,yY,y,1,0.8416084999917075,y,1,0.2849631999852136,RSVPLG01,0.94,2023-09-12-22:31:44,909,1,Experiment,2023-09-12_15h48.50.433,
9,global,local,7,6,3,75,8,81,exp,SYELHZENYLUZFNF,YUFZTNNZSLLXEFY,5,H,X,hH,yY,t,0,0.8231881000101566,n,0,0.3455132999224588,RSVPLG01,0.94,2023-09-12-22:31:44,909,1,Experiment,2023-09-12_15h48.50.433,
2,local,local,3,6,4,76,1,82,exp,HSYFNELUEUSFLYT,UELHZYYXTSEFFSH,5,Z,X,zZ,yY,z,1,0.8659164999844506,n,0,0.14446560002397746,RSVPLG01,0.94,2023-09-12-22:31:44,909,1,Experiment,2023-09-12_15h48.50.433,
1,local,local,0,6,5,77,0,83,exp,UFHEYTSFSNYNZUT,HNSLFHFYTUZUZNY,4,L,absent,lL,nN,l,1,0.9243402000283822,n,1,0.34670450002886355,RSVPLG01,0.94,2023-09-12-22:31:44,909,1,Experiment,2023-09-12_15h48.50.433,
5,local,global,3,6,6,78,4,84,exp,FUTZELXHUHSSFTN,SLNYHHEFTNFULUE,4,Y,X,yY,yY,y,1,0.12464199995156378,y,1,0.24906130007002503,RSVPLG01,0.94,2023-09-12-22:31:44,909,1,Experiment,2023-09-12_15h48.50.433,
3,local,local,7,6,7,79,2,85,exp,ZYNTZHLTFELSNSE,SESTFUZLLFNYXNT,6,U,X,uU,yY,u,1,1.2730861000018194,y,1,0.3012828000355512,RSVPLG01,0.94,2023-09-12-22:31:44,909,1,Experiment,2023-09-12_15h48.50.433,
6,local,global,7,6,8,80,5,86,exp,UZULNZSHHEXNYTY,YENFZHZSTSTENHU,4,F,X,fF,yY,n,0,0.2293388000689447,y,1,0.6502664999570698,RSVPLG01,0.94,2023-09-12-22:31:44,909,1,Experiment,2023-09-12_15h48.50.433,
2,local,local,3,6,9,81,1,87,exp,YUENFTHYFENSHZU,FUSZZLYEXNHUSFE,6,L,X,lL,yY,l,1,0.9142471000086516,y,1,0.20241580007132143,RSVPLG01,0.94,2023-09-12-22:31:44,909,1,Experiment,2023-09-12_15h48.50.433,
4,local,global,0,6,10,82,3,88,exp,SUFEUHNTHTNFZZY,FSNLUTHTNZYSYFH,4,L,absent,lL,nN,l,1,0.9746293999487534,n,1,0.25034869997762144,RSVPLG01,0.94,2023-09-12-22:31:44,909,1,Experiment,2023-09-12_15h48.50.433,
12,global,global,7,6,11,83,11,89,exp,HYELTSUYENFTXUH,HUFTEZLNFYULNEH,6,S,X,sS,yY,s,1,0.7638368998887017,n,0,0.14193039992824197,RSVPLG01,0.94,2023-09-12-22:31:44,909,1,Experiment,2023-09-12_15h48.50.433,
11,global,global,3,7,0,84,10,90,exp,HSZYTESZXFTYLUU,USHFZNUTFSLYLTH,6,E,X,eE,yY,n,0,0.1358112000161782,y,1,0.47971989994402975,RSVPLG01,0.94,2023-09-12-22:31:44,909,1,Experiment,2023-09-12_15h48.50.433,
6,local,global,7,7,1,85,5,91,exp,ZHNZTEHEYSNXYFU,UYUNLNEZHZSFSHE,5,L,X,lL,yY,l,1,0.6680623000720516,y,1,0.30289209994953126,RSVPLG01,0.94,2023-09-12-22:31:44,909,1,Experiment,2023-09-12_15h48.50.433,
12,global,global,7,7,2,86,11,92,exp,HTZLEUFFHZXEUNT,HETYTZSUNFUHSZE,4,L,X,lL,yY,y,0,0.38651910005137324,y,1,0.8407058999873698,RSVPLG01,0.94,2023-09-12-22:31:44,909,1,Experiment,2023-09-12_15h48.50.433,
6,local,global,7,7,3,87,5,93,exp,NFSUZYHHUTSXTNL,LUNHETLSSYTFYHF,5,E,X,eE,yY,e,1,0.9993551999796182,y,1,1.2902587000280619,RSVPLG01,0.94,2023-09-12-22:31:44,909,1,Experiment,2023-09-12_15h48.50.433,
1,local,local,0,7,4,88,0,94,exp,NSTFFEZNZLYHLSY,FLSNTUYFZZTLYHH,6,U,absent,uU,nN,u,1,0.9017431999091059,n,1,0.3028253000229597,RSVPLG01,0.94,2023-09-12-22:31:44,909,1,Experiment,2023-09-12_15h48.50.433,
8,global,local,3,7,5,89,7,95,exp,FSYTUSHZLNYFHTN,HSNFESTXLHFTYLZ,5,U,X,uU,yY,n,0,0.9833968000020832,n,0,1.0184039999730885,RSVPLG01,0.94,2023-09-12-22:31:44,909,1,Experiment,2023-09-12_15h48.50.433,
7,global,local,0,7,6,90,6,96,exp,NTENSLHZYZTLFYH,NLYHUELNTEZZYFF,5,S,absent,sS,nN,u,0,1.879879100015387,y,0,0.09035170008428395,RSVPLG01,0.94,2023-09-12-22:31:44,909,1,Experiment,2023-09-12_15h48.50.433,
8,global,local,3,7,7,91,7,97,exp,HYHTSSUELFEYLFN,FNNZULXLESHEFHU,4,T,X,tT,yY,z,0,0.8557634999742731,y,1,0.26570049999281764,RSVPLG01,0.94,2023-09-12-22:31:44,909,1,Experiment,2023-09-12_15h48.50.433,
10,global,global,0,7,8,92,9,98,exp,ZUYENHHFUZTEYLF,TFUZSYHEYLEFZUT,5,N,absent,nN,nN,s,0,0.7272592999506742,n,1,0.125917199999094,RSVPLG01,0.94,2023-09-12-22:31:44,909,1,Experiment,2023-09-12_15h48.50.433,
2,local,local,3,7,9,93,1,99,exp,EZLLNFUSTYZUTYS,YELEHSUXTLFTFZU,5,H,X,hH,yY,h,1,0.7279826999874786,y,1,0.2172359999967739,RSVPLG01,0.94,2023-09-12-22:31:44,909,1,Experiment,2023-09-12_15h48.50.433,
2,local,local,3,7,10,94,1,100,exp,ZNZTLYUUHNHTEES,SZEYFYHXNTHEZTN,5,F,X,fF,yY,e,0,0.732983099995181,y,1,0.1901557999663055,RSVPLG01,0.94,2023-09-12-22:31:44,909,1,Experiment,2023-09-12_15h48.50.433,
4,local,global,0,7,11,95,3,101,exp,ENFLSTHYNFLEHYT,LNZFUNYYZFTHTLE,5,U,absent,uU,nN,y,0,1.007215299992822,n,1,0.12100659997668117,RSVPLG01,0.94,2023-09-12-22:31:44,909,1,Experiment,2023-09-12_15h48.50.433,
4,local,global,0,8,0,96,3,102,exp,UYUNLSTTFLNHFHY,FLUNFEZTLYNUHZT,6,E,absent,eE,nN,e,1,0.8347224000608549,y,0,0.20696780004072934,RSVPLG01,0.94,2023-09-12-22:31:44,909,1,Experiment,2023-09-12_15h48.50.433,
4,local,global,0,8,1,97,3,103,exp,NZFLSFENHHYLTZT,ZHTYUNZHNFTLFYL,5,U,absent,uU,nN,u,1,0.7675494999857619,y,0,0.2517211000667885,RSVPLG01,0.94,2023-09-12-22:31:44,909,1,Experiment,2023-09-12_15h48.50.433,
4,local,global,0,8,2,98,3,104,exp,ULNTLUSESYZHEYH,ZULFZYLNEYESNHS,4,F,absent,fF,nN,f,1,0.8499892000108957,n,1,0.15557319996878505,RSVPLG01,0.94,2023-09-12-22:31:44,909,1,Experiment,2023-09-12_15h48.50.433,
10,global,global,0,8,3,99,9,105,exp,ZTNZLHTFYYNSSUU,UZSFESNFHTHYUYZ,5,L,absent,lL,nN,l,1,0.832437300006859,n,1,0.04513979994226247,RSVPLG01,0.94,2023-09-12-22:31:44,909,1,Experiment,2023-09-12_15h48.50.433,
4,local,global,0,8,4,100,3,106,exp,NUHELUSZSTYYHNL,HYTFZNULHYUSSNL,4,F,absent,fF,nN,f,1,0.8604354999260977,y,0,0.1701550999423489,RSVPLG01,0.94,2023-09-12-22:31:44,909,1,Experiment,2023-09-12_15h48.50.433,
7,global,local,0,8,5,101,6,107,exp,TEUNEFUZTSSZLYF,LFTHUZYSFUYLZET,4,N,absent,nN,nN,h,0,0.7663842999609187,y,0,0.17235869995784014,RSVPLG01,0.94,2023-09-12-22:31:44,909,1,Experiment,2023-09-12_15h48.50.433,
12,global,global,7,8,6,102,11,108,exp,FHNUTLZHZSYYXFT,HFZZYENYHNSFUTT,6,L,X,lL,yY,l,1,0.5645213999086991,y,1,0.33117689995560795,RSVPLG01,0.94,2023-09-12-22:31:44,909,1,Experiment,2023-09-12_15h48.50.433,
8,global,local,3,8,7,103,7,109,exp,YLHHTZNSZEFENYL,ZYHLUEFXSENSYFL,5,T,X,tT,yY,t,1,0.8855858000461012,y,1,0.2796213000547141,RSVPLG01,0.94,2023-09-12-22:31:44,909,1,Experiment,2023-09-12_15h48.50.433,
11,global,global,3,8,8,104,10,110,exp,EHSFSTNLXFULUNY,USUSNZFHLEHYNLF,6,T,X,tT,yY,n,0,0.03186779993120581,y,1,0.6219051000662148,RSVPLG01,0.94,2023-09-12-22:31:44,909,1,Experiment,2023-09-12_15h48.50.433,
12,global,global,7,8,9,105,11,111,exp,UTFUSEHENZFXZHN,HZUEYLUNTTHLFFZ,5,S,X,sS,yY,s,1,0.4371038000099361,y,1,1.1500175000401214,RSVPLG01,0.94,2023-09-12-22:31:44,909,1,Experiment,2023-09-12_15h48.50.433,
1,local,local,0,8,10,106,0,112,exp,TFTHUNLSFYSZZUY,FUFSZETLLUZHYYH,6,E,absent,eE,nN,e,1,0.31862039992120117,y,0,0.7766261999495327,RSVPLG01,0.94,2023-09-12-22:31:44,909,1,Experiment,2023-09-12_15h48.50.433,
4,local,global,0,8,11,107,3,113,exp,HFYFLETYUZTHNUN,ZFHYSUTNUTEZHNE,5,S,absent,sS,nN,s,1,0.8026107000187039,y,0,0.41197660006582737,RSVPLG01,0.94,2023-09-12-22:31:44,909,1,Experiment,2023-09-12_15h48.50.433,
3,local,local,7,9,0,108,2,114,exp,FHLUNZSLTYYTZHS,ZYSTEFYSLTUXHLU,5,E,X,eE,yY,e,1,0.8253008000319824,y,1,0.5851415999932215,RSVPLG01,0.94,2023-09-12-22:31:44,909,1,Experiment,2023-09-12_15h48.50.433,
4,local,global,0,9,1,109,3,115,exp,FZUYSTLNYLZFUTN,NUEEHFNUFTLZTLZ,5,H,absent,hH,nN,s,0,0.6379639999940991,y,0,0.4272929000435397,RSVPLG01,0.94,2023-09-12-22:31:44,909,1,Experiment,2023-09-12_15h48.50.433,
1,local,local,0,9,2,110,0,116,exp,SNLNYTLHHZTUUSZ,NHSFEUSTTUZNZLH,5,E,absent,eE,nN,e,1,1.4078088999958709,y,0,0.366174399969168,RSVPLG01,0.94,2023-09-12-22:31:44,909,1,Experiment,2023-09-12_15h48.50.433,
4,local,global,0,9,3,111,3,117,exp,TNSEYHSZHFFTUUN,HHZSLNNFEFTTZUE,5,L,absent,lL,nN,l,1,0.7530453000217676,y,0,0.26858059992082417,RSVPLG01,0.94,2023-09-12-22:31:44,909,1,Experiment,2023-09-12_15h48.50.433,
2,local,local,3,9,4,112,1,118,exp,HLUTZHNLSNFFEUE,ULEYFZXZNHLEFSN,4,Y,X,yY,yY,z,0,0.29419899999629706,y,1,0.5846771000651643,RSVPLG01,0.94,2023-09-12-22:31:44,909,1,Experiment,2023-09-12_15h48.50.433,
7,global,local,0,9,5,113,6,119,exp,ULUFSTEYLZFYNEZ,TTLUHFYULEENZZY,5,S,absent,sS,nN,e,0,0.11747870000544935,y,0,0.623746299999766,RSVPLG01,0.94,2023-09-12-22:31:44,909,1,Experiment,2023-09-12_15h48.50.433,
7,global,local,0,9,6,114,6,120,exp,UETZYULHSZHTFSL,UUFHNTLTELZESZF,5,Y,absent,yY,nN,y,1,0.8118705999804661,y,0,0.2336990999756381,RSVPLG01,0.94,2023-09-12-22:31:44,909,1,Experiment,2023-09-12_15h48.50.433,
11,global,global,3,9,7,115,10,121,exp,TZHYEFXFSSNELLN,THFUEZFELNHTSZS,4,Y,X,yY,yY,y,1,0.5122913001105189,n,0,0.21661590004805475,RSVPLG01,0.94,2023-09-12-22:31:44,909,1,Experiment,2023-09-12_15h48.50.433,
9,global,local,7,9,8,116,8,122,exp,ZTHNEFUSZLSTUNL,TSSHYFHLLNUXTZF,5,E,X,eE,yY,e,1,0.6318386000348255,y,1,0.15634850005153567,RSVPLG01,0.94,2023-09-12-22:31:44,909,1,Experiment,2023-09-12_15h48.50.433,
6,local,global,7,9,9,117,5,123,exp,SZUUFTNHYLSLXHY,NUHUFEZHLLSNSFY,6,E,X,eE,yY,e,1,0.7188171000452712,y,1,0.3931497000157833,RSVPLG01,0.94,2023-09-12-22:31:44,909,1,Experiment,2023-09-12_15h48.50.433,
6,local,global,7,9,10,118,5,124,exp,FYEYHTESLNUXLUT,NEYSZUFYLTSEFLN,5,Z,X,zZ,yY,z,1,0.5999393999809399,y,1,0.34888099995441735,RSVPLG01,0.94,2023-09-12-22:31:44,909,1,Experiment,2023-09-12_15h48.50.433,
9,global,local,7,9,11,119,8,125,exp,HHFNFSZNETUZEUT,ETFUTLNFHZUZXYN,6,S,X,sS,yY,n,0,0.641920700087212,y,1,0.17060020007193089,RSVPLG01,0.94,2023-09-12-22:31:44,909,1,Experiment,2023-09-12_15h48.50.433,
3,local,local,7,10,0,120,2,126,exp,HSNLUZFTSYTFNHY,HYNNETYLLSTXZFS,5,E,X,eE,yY,e,1,0.6482669999822974,y,1,0.20607119996566325,RSVPLG01,0.94,2023-09-12-22:31:44,909,1,Experiment,2023-09-12_15h48.50.433,
5,local,global,3,10,1,121,4,127,exp,SLUSENYXFUHFLNT,TLSTZYHFULNYSHF,5,Z,X,zZ,yY,z,1,1.2727272000629455,y,1,0.36082629999145865,RSVPLG01,0.94,2023-09-12-22:31:44,909,1,Experiment,2023-09-12_15h48.50.433,
11,global,global,3,10,2,122,10,128,exp,FNLLEZEHXNTTSYY,NLHFHULTFSTEENY,6,Z,X,zZ,yY,u,0,0.8228096999228001,y,1,0.18498899997211993,RSVPLG01,0.94,2023-09-12-22:31:44,909,1,Experiment,2023-09-12_15h48.50.433,
1,local,local,0,10,3,123,0,129,exp,TLZFSYNZTEFHNSH,HNFETUENSHSZLLT,6,U,absent,uU,nN,u,1,0.7997592000756413,n,1,0.12313389999326319,RSVPLG01,0.94,2023-09-12-22:31:44,909,1,Experiment,2023-09-12_15h48.50.433,
10,global,global,0,10,4,124,9,130,exp,YLSFYTHEUSNHNLE,EULZLHTHYNSYETU,4,F,absent,fF,nN,y,0,0.7945651999907568,y,0,0.11029600002802908,RSVPLG01,0.94,2023-09-12-22:31:44,909,1,Experiment,2023-09-12_15h48.50.433,
11,global,global,3,10,5,125,10,131,exp,UHEZNHFXFZSTEUL,SFSHYZTELTUZHEU,5,N,X,nN,yY,y,0,1.073166499962099,y,1,0.12037310004234314,RSVPLG01,0.94,2023-09-12-22:31:44,909,1,Experiment,2023-09-12_15h48.50.433,
12,global,global,7,10,6,126,11,132,exp,ZUUZYSTEFNLEXNF,YZTNZHLFTNFEULE,6,S,X,sS,yY,s,1,0.4862959999591112,y,1,0.5092885999474674,RSVPLG01,0.94,2023-09-12-22:31:44,909,1,Experiment,2023-09-12_15h48.50.433,
7,global,local,0,10,7,127,6,133,exp,YESZUTZUNNSHHFE,FSZHNLNSZFUEHUE,6,T,absent,tT,nN,l,0,0.77220100001432,n,1,0.18627309997100383,RSVPLG01,0.94,2023-09-12-22:31:44,909,1,Experiment,2023-09-12_15h48.50.433,
2,local,local,3,10,8,128,1,134,exp,ZULFYENTHHLZNUE,UTTNSFEXZNLLUHH,5,S,X,sS,yY,s,1,0.7235761000774801,y,1,0.31611759995575994,RSVPLG01,0.94,2023-09-12-22:31:44,909,1,Experiment,2023-09-12_15h48.50.433,
7,global,local,0,10,9,129,6,135,exp,USNELHFZFLUZYNE,UNYEZTEZFLLYSFN,6,H,absent,hH,nN,t,0,0.7445717999944463,y,0,0.28096409991849214,RSVPLG01,0.94,2023-09-12-22:31:44,909,1,Experiment,2023-09-12_15h48.50.433,
3,local,local,7,10,10,130,2,136,exp,ZHHYFUSFNSTNEET,TSNFHLHNEEYFXTS,6,L,X,lL,yY,l,1,0.8219237000448629,y,1,0.2701228999067098,RSVPLG01,0.94,2023-09-12-22:31:44,909,1,Experiment,2023-09-12_15h48.50.433,
5,local,global,3,10,11,131,4,137,exp,ZESZNYETXUNFHSU,TFHEULSUTSZZNNE,6,L,X,lL,yY,y,0,1.1865221000043675,y,1,1.2426172000123188,RSVPLG01,0.94,2023-09-12-22:31:44,909,1,Experiment,2023-09-12_15h48.50.433,
4,local,global,0,11,0,132,3,138,exp,ELSHTLNYZEZYNHS,UEEHFYLNZYSLHZN,5,F,absent,fF,nN,f,1,0.6679469000082463,y,0,0.34567780001088977,RSVPLG01,0.94,2023-09-12-22:31:44,909,1,Experiment,2023-09-12_15h48.50.433,
6,local,global,7,11,1,133,5,139,exp,UZNTHLFNSFXYUHS,NSFEZFLHZUYHLSY,4,E,X,eE,yY,e,1,0.8235943999607116,y,1,0.7457010999787599,RSVPLG01,0.94,2023-09-12-22:31:44,909,1,Experiment,2023-09-12_15h48.50.433,
9,global,local,7,11,2,134,8,140,exp,ZSFYHUUYLNLTNZF,SFNZELFUYYNXTZL,5,H,X,hH,yY,e,0,0.3144915000302717,y,1,0.3474764000857249,RSVPLG01,0.94,2023-09-12-22:31:44,909,1,Experiment,2023-09-12_15h48.50.433,
2,local,local,3,11,3,135,1,141,exp,YNUYNHEZTFTESSZ,TSSYFLNZXYTUUZF,6,L,X,lL,yY,l,1,2.4416130000026897,y,1,0.331647300045006,RSVPLG01,0.94,2023-09-12-22:31:44,909,1,Experiment,2023-09-12_15h48.50.433,
5,local,global,3,11,4,136,4,142,exp,HYLLZTSXSTNHENU,STUSFYLLNNEUTEY,5,F,X,fF,yY,f,1,0.014521399978548288,y,1,0.7318576999241486,RSVPLG01,0.94,2023-09-12-22:31:44,909,1,Experiment,2023-09-12_15h48.50.433,
4,local,global,0,11,5,137,3,143,exp,TZTSUYFLEZNUELY,NFLHYZUTTEZEUYF,4,H,absent,hH,nN,h,1,0.7964513999177143,y,0,0.3502155999885872,RSVPLG01,0.94,2023-09-12-22:31:44,909,1,Experiment,2023-09-12_15h48.50.433,
8,global,local,3,11,6,138,7,144,exp,FLYNFZTETZEUSYS,SYSHZEXLUTZFFUL,4,N,X,nN,yY,y,0,0.11171139997895807,y,1,0.25148400000762194,RSVPLG01,0.94,2023-09-12-22:31:44,909,1,Experiment,2023-09-12_15h48.50.433,
5,local,global,3,11,7,139,4,145,exp,FZHUNTXLZSTEENH,SNLYZZEHHTNFTEF,4,Y,X,yY,yY,y,1,0.3110847999341786,y,1,0.4433762999251485,RSVPLG01,0.94,2023-09-12-22:31:44,909,1,Experiment,2023-09-12_15h48.50.433,
10,global,global,0,11,8,140,9,146,exp,TZYHENHFZSFNYLL,FZNNUYSZTYHSTFL,5,E,absent,eE,nN,h,0,0.8284982999321073,y,0,0.13757060002535582,RSVPLG01,0.94,2023-09-12-22:31:44,909,1,Experiment,2023-09-12_15h48.50.433,
2,local,local,3,11,9,141,1,147,exp,SFZTUTZSHEFLLHE,FSZSNHEXZFHTYEL,5,N,X,nN,yY,n,1,0.555275599937886,y,1,0.586875900044106,RSVPLG01,0.94,2023-09-12-22:31:44,909,1,Experiment,2023-09-12_15h48.50.433,
3,local,local,7,11,10,142,2,148,exp,NZSYFLUZUTHSTHN,YZUHHEFTUNSNXYS,6,E,X,eE,yY,e,1,0.7196760999504477,y,1,0.3510420999955386,RSVPLG01,0.94,2023-09-12-22:31:44,909,1,Experiment,2023-09-12_15h48.50.433,
4,local,global,0,11,11,143,3,149,exp,NHZYLEYUSHSETUZ,NUUHFTETSYNHESZ,5,F,absent,fF,nN,l,0,0.14161449996754527,y,0,0.6706064000027254,RSVPLG01,0.94,2023-09-12-22:31:44,909,1,Experiment,2023-09-12_15h48.50.433,
12,global,global,7,12,0,144,11,150,exp,EZEHUSFFTNTNXHL,HELHZYLNFUZUTEN,6,S,X,sS,yY,s,1,0.5197840000037104,y,1,0.3301870001014322,RSVPLG01,0.94,2023-09-12-22:31:44,909,1,Experiment,2023-09-12_15h48.50.433,
11,global,global,3,12,1,145,10,151,exp,ETHTLYUUXLSEZFS,TSEUSNLFHFLTHZZ,6,Y,X,yY,yY,y,1,0.7987492000684142,y,1,0.23574439994990826,RSVPLG01,0.94,2023-09-12-22:31:44,909,1,Experiment,2023-09-12_15h48.50.433,
7,global,local,0,12,2,146,6,152,exp,SETLHNLYSYEFTFZ,TZSTSUHYLEHLZEF,6,N,absent,nN,nN,u,0,0.826449399930425,y,0,0.17163130000699311,RSVPLG01,0.94,2023-09-12-22:31:44,909,1,Experiment,2023-09-12_15h48.50.433,
11,global,global,3,12,3,147,10,153,exp,HLYETUSXFFUZELY,EUFYNZYLZSFLUES,5,T,X,tT,yY,n,0,0.89702929998748,y,1,0.36290069995447993,RSVPLG01,0.94,2023-09-12-22:31:44,909,1,Experiment,2023-09-12_15h48.50.433,
12,global,global,7,12,4,148,11,154,exp,FYZFHLUNZUNHXYT,FEUTESNZTHNZUFH,6,L,X,lL,yY,l,1,0.5665511999977753,y,1,0.5562271999660879,RSVPLG01,0.94,2023-09-12-22:31:44,909,1,Experiment,2023-09-12_15h48.50.433,
4,local,global,0,12,5,149,3,155,exp,ZHTUNNTSSFLZLFY,SLFEHYSFZLTNHZT,4,E,absent,eE,nN,e,1,0.9245481999823824,y,0,0.5060233999975026,RSVPLG01,0.94,2023-09-12-22:31:44,909,1,Experiment,2023-09-12_15h48.50.433,
4,local,global,0,12,6,150,3,156,exp,YHUNZNSTFYULSHT,HYLNEHNTLTSFSFY,5,E,absent,eE,nN,n,0,0.9418381999712437,n,1,0.05818560009356588,RSVPLG01,0.94,2023-09-12-22:31:44,909,1,Experiment,2023-09-12_15h48.50.433,
3,local,local,7,12,7,151,2,157,exp,SHNUZFYYULNLFHE,HNYYTLNFEUHXFSE,5,T,X,tT,yY,t,1,0.9640016000485048,y,1,0.13914990006014705,RSVPLG01,0.94,2023-09-12-22:31:44,909,1,Experiment,2023-09-12_15h48.50.433,
6,local,global,7,12,8,152,5,158,exp,HYHESZETFYNTXLN,TELFTUHFLSYNYES,6,U,X,uU,yY,u,1,0.7022386000026017,y,1,0.5416159000014886,RSVPLG01,0.94,2023-09-12-22:31:44,909,1,Experiment,2023-09-12_15h48.50.433,
3,local,local,7,12,9,153,2,159,exp,LSYYUZNESUETTLF,NNUYLHLSTEUFXEF,6,H,X,hH,yY,h,1,0.6333095000591129,y,1,0.6666654999135062,RSVPLG01,0.94,2023-09-12-22:31:44,909,1,Experiment,2023-09-12_15h48.50.433,
4,local,global,0,12,10,154,3,160,exp,ELYEZFNYSSULUNH,HYHNTFESULYSLFE,5,T,absent,tT,nN,t,1,0.9024162000278011,y,0,0.26576620002742857,RSVPLG01,0.94,2023-09-12-22:31:44,909,1,Experiment,2023-09-12_15h48.50.433,
12,global,global,7,12,11,155,11,161,exp,ZUUSTFNSEHNHXEL,TUULNYHNEZEHSTL,6,F,X,fF,yY,y,0,0.6710676000220701,y,1,0.42616300005465746,RSVPLG01,0.94,2023-09-12-22:31:44,909,1,Experiment,2023-09-12_15h48.50.433,
8,global,local,3,13,0,156,7,162,exp,ETYELYHUSNTSFUN,TFFYZNHXETYHEUS,5,L,X,lL,yY,l,1,1.2725898999487981,y,1,0.23895069991704077,RSVPLG01,0.94,2023-09-12-22:31:44,909,1,Experiment,2023-09-12_15h48.50.433,
6,local,global,7,13,1,157,5,163,exp,EHYSYNZLTNXFFHE,EZLUYHLFFTENNYT,4,U,X,uU,yY,u,1,0.6146890999516472,y,1,0.40922909998334944,RSVPLG01,0.94,2023-09-12-22:31:44,909,1,Experiment,2023-09-12_15h48.50.433,
10,global,global,0,13,2,158,9,164,exp,SLYFYEZHUTZTUHS,TUZLSNSYLFFUYTH,6,E,absent,eE,nN,n,0,0.736755600082688,y,0,0.2498861999483779,RSVPLG01,0.94,2023-09-12-22:31:44,909,1,Experiment,2023-09-12_15h48.50.433,
1,local,local,0,13,3,159,0,165,exp,UEZLFTNNHHYZYUE,HEESZTUNFFNHYUZ,4,S,absent,sS,nN,s,1,0.8305449000326917,y,0,0.5234630999621004,RSVPLG01,0.94,2023-09-12-22:31:44,909,1,Experiment,2023-09-12_15h48.50.433,
11,global,global,3,13,4,160,10,166,exp,ZZUFELEHXNUSHFY,YHSEYTZZUSHNFEN,6,L,X,lL,yY,l,1,0.5947619000216946,y,1,0.1537767999107018,RSVPLG01,0.94,2023-09-12-22:31:44,909,1,Experiment,2023-09-12_15h48.50.433,
1,local,local,0,13,5,161,0,167,exp,LUNLZSYUZTTFNEF,YTEUNHFTYZLNZUE,6,H,absent,hH,nN,h,1,0.7842692999402061,y,0,0.3288126999977976,RSVPLG01,0.94,2023-09-12-22:31:44,909,1,Experiment,2023-09-12_15h48.50.433,
9,global,local,7,13,6,162,8,168,exp,TSSLFHNEEHLZYYN,SYNZUSHNZLLXETE,5,F,X,fF,yY,h,0,0.6896323000546545,n,0,0.17124289995990694,RSVPLG01,0.94,2023-09-12-22:31:44,909,1,Experiment,2023-09-12_15h48.50.433,
5,local,global,3,13,7,163,4,169,exp,SSENEFXTLYHTLFU,FLFZUESUYHTLESH,4,Z,X,zZ,yY,z,1,0.3073191000148654,y,1,0.35039479995612055,RSVPLG01,0.94,2023-09-12-22:31:44,909,1,Experiment,2023-09-12_15h48.50.433,
7,global,local,0,13,8,164,6,170,exp,ZYHLNUHSNESEZLY,EZLTNFSLZEYHHNS,6,U,absent,uU,nN,y,0,1.3621181000489742,y,0,0.9058042999822646,RSVPLG01,0.94,2023-09-12-22:31:44,909,1,Experiment,2023-09-12_15h48.50.433,
11,global,global,3,13,9,165,10,171,exp,NZZHNSXTLYTUYSF,USLEFLNSFYZYTUN,4,H,X,hH,yY,e,0,0.4207021000329405,y,1,0.3304712000535801,RSVPLG01,0.94,2023-09-12-22:31:44,909,1,Experiment,2023-09-12_15h48.50.433,
2,local,local,3,13,10,166,1,172,exp,UTLSELNTHFYUFSH,FSNFZHNXYSLYUHT,5,Z,X,zZ,yY,z,1,0.8029618000146002,y,1,0.4421010999940336,RSVPLG01,0.94,2023-09-12-22:31:44,909,1,Experiment,2023-09-12_15h48.50.433,
9,global,local,7,13,11,167,8,173,exp,ZHNLNYYZFFTSTUS,ZTTEUZFYSHXYNHS,4,L,X,lL,yY,l,1,0.6703268999699503,y,1,0.28689629992004484,RSVPLG01,0.94,2023-09-12-22:31:44,909,1,Experiment,2023-09-12_15h48.50.433,
12,global,global,7,14,0,168,11,174,exp,YNZHFTTUNSYXEHS,ZYEULZSHNTNEYUT,5,F,X,fF,yY,z,0,0.42382409994024783,y,1,0.6998416000278667,RSVPLG01,0.94,2023-09-12-22:31:44,909,1,Experiment,2023-09-12_15h48.50.433,
10,global,global,0,14,1,169,9,175,exp,TSNYFHSZHLYLNZU,YSUZEZYSTUHLHNN,5,F,absent,fF,nN,f,1,0.6706391000188887,y,0,0.29883179999887943,RSVPLG01,0.94,2023-09-12-22:31:44,909,1,Experiment,2023-09-12_15h48.50.433,
5,local,global,3,14,2,170,4,176,exp,ELTYHFUZXEYTLZU,SEZTUNZEYSHHTUY,6,N,X,nN,yY,n,1,0.06051199999637902,y,1,0.31866870005615056,RSVPLG01,0.94,2023-09-12-22:31:44,909,1,Experiment,2023-09-12_15h48.50.433,
10,global,global,0,14,3,171,9,177,exp,FUYUFSNHYLNZTLZ,HUFNYEYTZNLZTFH,6,S,absent,sS,nN,e,0,0.40969480003695935,y,0,0.38090550003107637,RSVPLG01,0.94,2023-09-12-22:31:44,909,1,Experiment,2023-09-12_15h48.50.433,
11,global,global,3,14,4,172,10,178,exp,ZYEUTYXZLHSNEHS,HHLFZTYSENNSZLY,4,U,X,uU,yY,y,0,0.5035129999741912,y,1,0.6699319999897853,RSVPLG01,0.94,2023-09-12-22:31:44,909,1,Experiment,2023-09-12_15h48.50.433,
1,local,local,0,14,5,173,0,179,exp,NLLZHEUSYNFZYUS,UYSSLTLHYUHNFZF,6,T,absent,tT,nN,t,1,0.8432690999470651,y,0,0.42560159997083247,RSVPLG01,0.94,2023-09-12-22:31:44,909,1,Experiment,2023-09-12_15h48.50.433,
5,local,global,3,14,6,174,4,180,exp,FSUTZELTXNSNHFL,THLNLYTSSUZFNUZ,6,Y,X,yY,yY,y,1,0.022918500006198883,y,1,0.5076329000294209,RSVPLG01,0.94,2023-09-12-22:31:44,909,1,Experiment,2023-09-12_15h48.50.433,
1,local,local,0,14,7,175,0,181,exp,LTYFZHFYLNESSEH,FYLNUTHFEHYSTEL,5,U,absent,uU,nN,u,1,1.0291947999503464,y,0,0.3005959000438452,RSVPLG01,0.94,2023-09-12-22:31:44,909,1,Experiment,2023-09-12_15h48.50.433,
6,local,global,7,14,8,176,5,182,exp,ENSLZETTNHXFSUH,ZZHYNUNSEFSEHTF,4,Y,X,yY,yY,y,1,0.2082432999741286,y,1,0.47945680003613234,RSVPLG01,0.94,2023-09-12-22:31:44,909,1,Experiment,2023-09-12_15h48.50.433,
6,local,global,7,14,9,177,5,183,exp,HSFHZNETFENXUYT,FEUNLYHNFEYSHTT,5,L,X,lL,yY,l,1,0.5515957999741659,y,1,0.3466649000765756,RSVPLG01,0.94,2023-09-12-22:31:44,909,1,Experiment,2023-09-12_15h48.50.433,
8,global,local,3,14,10,178,7,184,exp,NTTELHUUSFHEYFS,ETSUZFHXHTNSNYU,5,L,X,lL,yY,l,1,0.9611229000147432,y,1,0.1690354000311345,RSVPLG01,0.94,2023-09-12-22:31:44,909,1,Experiment,2023-09-12_15h48.50.433,
1,local,local,0,14,11,179,0,185,exp,NUYTYLEFSLNEZSF,USYHZYELSNFFNLU,4,H,absent,hH,nN,h,1,0.7627029001014307,y,0,0.2994903000071645,RSVPLG01,0.94,2023-09-12-22:31:44,909,1,Experiment,2023-09-12_15h48.50.433,
4,local,global,0,15,0,180,3,186,exp,NLYSFZSUNLHUEHE,YYHHNTLSFUENULE,6,T,absent,tT,nN,t,1,0.8121965000173077,n,1,0.12496720009949058,RSVPLG01,0.94,2023-09-12-22:31:44,909,1,Experiment,2023-09-12_15h48.50.433,
6,local,global,7,15,1,181,5,187,exp,HFSTLEUUEYYXTHZ,TEHUNEZTYUFFSSZ,5,N,X,nN,yY,e,0,0.3969267000211403,y,1,0.2374052000232041,RSVPLG01,0.94,2023-09-12-22:31:44,909,1,Experiment,2023-09-12_15h48.50.433,
11,global,global,3,15,2,182,10,188,exp,EUEYZZXNSFTUNSH,FZHLTETEZFSNHSU,4,Y,X,yY,yY,l,0,0.37140419997740537,y,1,0.1392728000646457,RSVPLG01,0.94,2023-09-12-22:31:44,909,1,Experiment,2023-09-12_15h48.50.433,
3,local,local,7,15,3,183,2,189,exp,LLHEFNUFUTSZZST,ZLFYHSLTUZXUFHT,4,Y,X,yY,yY,y,1,0.5893331000115722,y,1,0.21915040002204478,RSVPLG01,0.94,2023-09-12-22:31:44,909,1,Experiment,2023-09-12_15h48.50.433,
11,global,global,3,15,4,184,10,190,exp,TTESFHXEZYHYFNU,UYFLENHFUZTYZNE,4,S,X,sS,yY,l,0,0.9223626999882981,y,1,0.2855880999704823,RSVPLG01,0.94,2023-09-12-22:31:44,909,1,Experiment,2023-09-12_15h48.50.433,
3,local,local,7,15,5,185,2,191,exp,YHSZEUETHNZTYSF,YYTFELFSNTZSXZE,6,L,X,lL,yY,l,1,0.6015954000176862,y,1,1.836973199970089,RSVPLG01,0.94,2023-09-12-22:31:44,909,1,Experiment,2023-09-12_15h48.50.433,
3,local,local,7,15,6,186,2,192,exp,NHLYHFNSTSLTUUZ,HSZETZLTLUXNUFN,4,E,X,eE,yY,e,1,0.21211540000513196,y,1,0.5106276000151411,RSVPLG01,0.94,2023-09-12-22:31:44,909,1,Experiment,2023-09-12_15h48.50.433,
1,local,local,0,15,7,187,0,193,exp,ELLHUYEFUFNTNZY,LUESYNZETTLZFUY,4,S,absent,sS,nN,s,1,0.6815013000741601,y,0,0.3500688999192789,RSVPLG01,0.94,2023-09-12-22:31:44,909,1,Experiment,2023-09-12_15h48.50.433,
5,local,global,3,15,8,188,4,194,exp,UYSFLNXEYULTENH,EUTZSTLYNSEHLHN,4,Z,X,zZ,yY,z,1,0.9849668999668211,y,1,0.31826950004324317,RSVPLG01,0.94,2023-09-12-22:31:44,909,1,Experiment,2023-09-12_15h48.50.433,
1,local,local,0,15,9,189,0,195,exp,FEFUSZHSTLNTHLE,EUSTHYLLHSENUFT,6,Y,absent,yY,nN,y,1,0.8260369999334216,n,1,0.18516730004921556,RSVPLG01,0.94,2023-09-12-22:31:44,909,1,Experiment,2023-09-12_15h48.50.433,
8,global,local,3,15,10,190,7,196,exp,YYTSZFTUNUNHSZE,NZZUELSUXYTETYS,6,F,X,fF,yY,l,0,0.3525563000002876,y,1,0.33013530005700886,RSVPLG01,0.94,2023-09-12-22:31:44,909,1,Experiment,2023-09-12_15h48.50.433,
3,local,local,7,15,11,191,2,197,exp,HULNUZYETSTLSNY,TLHSHFEYUULSXTY,6,F,X,fF,yY,z,0,0.9448707000119612,y,1,0.2968670999398455,RSVPLG01,0.94,2023-09-12-22:31:44,909,1,Experiment,2023-09-12_15h48.50.433,
5,local,global,3,16,0,192,4,198,exp,EFHZLUSZXHYYEFL,HTELTNYSSZFYLZF,6,N,X,nN,yY,n,1,0.04697700007818639,y,1,0.8599247999954969,RSVPLG01,0.94,2023-09-12-22:31:44,909,1,Experiment,2023-09-12_15h48.50.433,
8,global,local,3,16,1,193,7,199,exp,TYSNHSLYFETEZFN,NEYTUTNXYLSESZF,5,H,X,hH,yY,h,1,0.7379834000021219,n,0,0.24955730000510812,RSVPLG01,0.94,2023-09-12-22:31:44,909,1,Experiment,2023-09-12_15h48.50.433,
9,global,local,7,16,2,194,8,200,exp,FSTLNUTZFLHEHZS,LZHUYEFSFETXHZU,5,N,X,nN,yY,y,0,1.222780799958855,n,0,0.012931599980220199,RSVPLG01,0.94,2023-09-12-22:31:44,909,1,Experiment,2023-09-12_15h48.50.433,
11,global,global,3,16,3,195,10,201,exp,YFESTZEXLUYZFLS,ZELYHZEFFNSYNSU,5,T,X,tT,yY,h,0,1.6644113999791443,y,1,0.2196232998976484,RSVPLG01,0.94,2023-09-12-22:31:44,909,1,Experiment,2023-09-12_15h48.50.433,
7,global,local,0,16,4,196,6,202,exp,HUFZENTLSLZESHF,TZFSFYLEUHSLHZE,6,N,absent,nN,nN,n,1,0.68541119992733,n,1,0.3191633999813348,RSVPLG01,0.94,2023-09-12-22:31:44,909,1,Experiment,2023-09-12_15h48.50.433,
11,global,global,3,16,5,197,10,203,exp,TEFZHUNXNTFLSZL,FTNUYTEZFELLZUS,5,H,X,hH,yY,y,0,0.8378580000717193,y,1,0.3923846000107005,RSVPLG01,0.94,2023-09-12-22:31:44,909,1,Experiment,2023-09-12_15h48.50.433,
8,global,local,3,16,6,198,7,204,exp,SHLUZFLSENUYYFH,ULEFTUYXHSSNLFN,5,Z,X,zZ,yY,t,0,0.7365343000274152,n,0,0.23191610001958907,RSVPLG01,0.94,2023-09-12-22:31:44,909,1,Experiment,2023-09-12_15h48.50.433,
3,local,local,7,16,7,199,2,205,exp,ETYSYZNTSLEHUNH,HNSNTFLLETYHXSY,6,F,X,fF,yY,f,1,0.8344153000507504,y,1,0.2192207999760285,RSVPLG01,0.94,2023-09-12-22:31:44,909,1,Experiment,2023-09-12_15h48.50.433,
1,local,local,0,16,8,200,0,206,exp,THHFSUZESUYEYZT,TLUNYSLZHUYETEH,4,N,absent,nN,nN,y,0,0.6092869000276551,y,0,0.09424869995564222,RSVPLG01,0.94,2023-09-12-22:31:44,909,1,Experiment,2023-09-12_15h48.50.433,
9,global,local,7,16,9,201,8,207,exp,THLSFTUHUYLSENY,YLLNZUYSTSHXHEU,5,F,X,fF,yY,z,0,0.9760256999870762,y,1,0.3773092000046745,RSVPLG01,0.94,2023-09-12-22:31:44,909,1,Experiment,2023-09-12_15h48.50.433,
8,global,local,3,16,10,202,7,208,exp,UUZZETFYSSHYFLT,UTFLNZTXHFLUYSH,5,E,X,eE,yY,n,0,0.7474859000649303,n,0,0.2486977999797091,RSVPLG01,0.94,2023-09-12-22:31:44,909,1,Experiment,2023-09-12_15h48.50.433,
3,local,local,7,16,11,203,2,209,exp,TUHFUTZSZYHNYEE,ZHNLYSYEUEXNHTS,4,L,X,lL,yY,l,1,1.7194575999164954,y,1,0.12153560004662722,RSVPLG01,0.94,2023-09-12-22:31:44,909,1,Experiment,2023-09-12_15h48.50.433,
7,global,local,0,17,0,204,6,210,exp,HYLSFTLFUHNYNEE,EHNZYNHEUTFLLUY,4,S,absent,sS,nN,z,0,0.7547098000068218,n,1,0.1896392999915406,RSVPLG01,0.94,2023-09-12-22:31:44,909,1,Experiment,2023-09-12_15h48.50.433,
4,local,global,0,17,1,205,3,211,exp,FENUFTZULNHZHSE,NFLESYEHFUUZSHZ,6,Y,absent,yY,nN,y,1,0.838523400016129,y,0,0.1242993000196293,RSVPLG01,0.94,2023-09-12-22:31:44,909,1,Experiment,2023-09-12_15h48.50.433,
5,local,global,3,17,2,206,4,212,exp,LFHFZUTXHEEUSSY,SHFLNYUTFLYSUEH,5,N,X,nN,yY,n,1,0.6160968999611214,y,1,0.36670689994934946,RSVPLG01,0.94,2023-09-12-22:31:44,909,1,Experiment,2023-09-12_15h48.50.433,
2,local,local,3,17,3,207,1,213,exp,UYLESTFENLYNUFT,EHYNZLNXTFULFYE,5,Z,X,zZ,yY,z,1,0.7927568999584764,y,1,1.2243360999273136,RSVPLG01,0.94,2023-09-12-22:31:44,909,1,Experiment,2023-09-12_15h48.50.433,
5,local,global,3,17,4,208,4,214,exp,HFTSULXHLYEUFYT,FZTNTYULFYHHELZ,4,N,X,nN,yY,n,1,0.25457320001441985,y,1,0.3946866999613121,RSVPLG01,0.94,2023-09-12-22:31:44,909,1,Experiment,2023-09-12_15h48.50.433,
12,global,global,7,17,5,209,11,215,exp,TESNSYUFLULFXET,NFLENZUFSTLTSHU,6,Y,X,yY,yY,y,1,0.44469000003300607,y,1,0.15779740002471954,RSVPLG01,0.94,2023-09-12-22:31:44,909,1,Experiment,2023-09-12_15h48.50.433,
3,local,local,7,17,6,210,2,216,exp,FSNLYUUYFNZTTHH,FYNEUHTFHSXZNZT,4,E,X,eE,yY,e,1,0.680345100001432,y,1,0.15723979996982962,RSVPLG01,0.94,2023-09-12-22:31:44,909,1,Experiment,2023-09-12_15h48.50.433,
5,local,global,3,17,7,211,4,217,exp,LFYEUNHXTYSELNH,SYEYZHELTFNSLFT,5,Z,X,zZ,yY,y,0,0.02099580003414303,y,1,0.2178433999652043,RSVPLG01,0.94,2023-09-12-22:31:44,909,1,Experiment,2023-09-12_15h48.50.433,
10,global,global,0,17,8,212,9,218,exp,UEUHZSEHLTLYYNZ,TEHLNFNYZZYUHET,6,S,absent,sS,nN,s,1,0.7827445000875741,y,0,0.20337080000899732,RSVPLG01,0.94,2023-09-12-22:31:44,909,1,Experiment,2023-09-12_15h48.50.433,
11,global,global,3,17,9,213,10,219,exp,UNZSFZXNUTFTYYH,FNHLEZNTFZYUUHT,4,S,X,sS,yY,z,0,0.1924944999627769,y,1,0.2674801000393927,RSVPLG01,0.94,2023-09-12-22:31:44,909,1,Experiment,2023-09-12_15h48.50.433,
6,local,global,7,17,10,214,5,220,exp,FYFUZHTYEZXHNNT,YYFLSNZNZFTEEHH,4,L,X,lL,yY,l,1,0.34458619996439666,y,1,0.2484496000688523,RSVPLG01,0.94,2023-09-12-22:31:44,909,1,Experiment,2023-09-12_15h48.50.433,
6,local,global,7,17,11,215,5,221,exp,ZEEFHLFTSUUXYLY,SYUZNLFLTUEFTEZ,5,N,X,nN,yY,n,1,0.40152860002126545,y,1,0.30112519999966025,RSVPLG01,0.94,2023-09-12-22:31:44,909,1,Experiment,2023-09-12_15h48.50.433,
6,local,global,7,18,0,216,5,222,exp,ZLSHNUUZYSHXFLF,TSHSEZLFUTFZUYH,5,E,X,eE,yY,e,1,0.4467341999989003,y,1,0.3302992000244558,RSVPLG01,0.94,2023-09-12-22:31:44,909,1,Experiment,2023-09-12_15h48.50.433,
2,local,local,3,18,1,217,1,223,exp,FHNTSLULUHTFZYN,THULEHUXTNZFYNY,5,E,X,eE,yY,e,1,0.755839699995704,y,1,0.17275189992506057,RSVPLG01,0.94,2023-09-12-22:31:44,909,1,Experiment,2023-09-12_15h48.50.433,
8,global,local,3,18,2,218,7,224,exp,STZZHFSEHNELYTL,YZNYLUTHXETZSNH,6,F,X,fF,yY,h,0,0.8991178000578657,n,0,0.14016159996390343,RSVPLG01,0.94,2023-09-12-22:31:44,909,1,Experiment,2023-09-12_15h48.50.433,
2,local,local,3,18,3,219,1,225,exp,FNUEZNULHHYFSLS,NULETNHXSSHFYYU,5,T,X,tT,yY,t,1,0.4528052000096068,y,1,0.1362875000340864,RSVPLG01,0.94,2023-09-12-22:31:44,909,1,Experiment,2023-09-12_15h48.50.433,
12,global,global,7,18,4,220,11,226,exp,ZTNYTLSSFYHZXUF,FFHZZEYHSUYSUNN,6,L,X,lL,yY,e,0,0.5133403000654653,y,1,0.2083351999754086,RSVPLG01,0.94,2023-09-12-22:31:44,909,1,Experiment,2023-09-12_15h48.50.433,
11,global,global,3,18,5,221,10,227,exp,USFZTTXULELSHHY,SEUNTUFFHETLSYY,4,Z,X,zZ,yY,n,0,0.5376247999956831,y,1,0.2020094000035897,RSVPLG01,0.94,2023-09-12-22:31:44,909,1,Experiment,2023-09-12_15h48.50.433,
11,global,global,3,18,6,222,10,228,exp,HYYTZEXFLHESNZS,NHSUNSHZLZLYFEF,4,T,X,tT,yY,y,0,0.11897579999640584,y,1,0.20245499990414828,RSVPLG01,0.94,2023-09-12-22:31:44,909,1,Experiment,2023-09-12_15h48.50.433,
8,global,local,3,18,7,223,7,229,exp,FLSYZLUTNTHFSNH,ZHFELZXTUTSNLNU,4,Y,X,yY,yY,y,1,0.1964474000269547,y,1,0.156231899978593,RSVPLG01,0.94,2023-09-12-22:31:44,909,1,Experiment,2023-09-12_15h48.50.433,
10,global,global,0,18,8,224,9,230,exp,FFTYENLHSELUUHS,TUHZNEFELLSSFTH,4,Y,absent,yY,nN,y,1,0.31330569996498525,n,1,0.28199839999433607,RSVPLG01,0.94,2023-09-12-22:31:44,909,1,Experiment,2023-09-12_15h48.50.433,
2,local,local,3,18,9,225,1,231,exp,LLFNUTZEENSUZHS,NSZULYZHXESNUEF,6,Y,X,yY,yY,y,1,0.7690662000095472,y,1,0.16970680002123117,RSVPLG01,0.94,2023-09-12-22:31:44,909,1,Experiment,2023-09-12_15h48.50.433,
9,global,local,7,18,10,226,8,232,exp,SLUYHEZLFUZSHFN,HUZNSTFSLYZLXYH,6,E,X,eE,yY,z,0,0.6440983999054879,y,1,0.08909979998134077,RSVPLG01,0.94,2023-09-12-22:31:44,909,1,Experiment,2023-09-12_15h48.50.433,
9,global,local,7,18,11,227,8,233,exp,ETSYFHNUSENUTZF,HFELHZTUSNXZSNU,4,Y,X,yY,yY,y,1,0.6393538999836892,y,1,0.18758189992513508,RSVPLG01,0.94,2023-09-12-22:31:44,909,1,Experiment,2023-09-12_15h48.50.433,
9,global,local,7,19,0,228,8,234,exp,SSHNFLEYUTENFTH,NTYNYZEHSSEUXTU,6,L,X,lL,yY,l,1,0.8057887000031769,n,0,0.11009089997969568,RSVPLG01,0.94,2023-09-12-22:31:44,909,1,Experiment,2023-09-12_15h48.50.433,
10,global,global,0,19,1,229,9,235,exp,EHTUSTYEZNZYNHU,UYHEFTLUNZNETZH,5,S,absent,sS,nN,s,1,0.9180469999555498,y,0,0.15437240002211183,RSVPLG01,0.94,2023-09-12-22:31:44,909,1,Experiment,2023-09-12_15h48.50.433,
9,global,local,7,19,2,230,8,236,exp,UHNETSFUHEYNLTF,UYNFFZHEHUYNXTE,6,S,X,sS,yY,s,1,0.6009925999678671,n,0,0.12065960001200438,RSVPLG01,0.94,2023-09-12-22:31:44,909,1,Experiment,2023-09-12_15h48.50.433,
3,local,local,7,19,3,231,2,237,exp,NSYUZHYSFFNLHZT,STZEZTSNYLXFNYL,4,E,X,eE,yY,e,1,1.2375411000102758,y,1,0.042362799984402955,RSVPLG01,0.94,2023-09-12-22:31:44,909,1,Experiment,2023-09-12_15h48.50.433,
8,global,local,3,19,4,232,7,238,exp,SSYNTLZUETUZLEF,EYTHTSXFZSLYFUZ,4,N,X,nN,yY,h,0,1.4300674999831244,y,1,0.14227820001542568,RSVPLG01,0.94,2023-09-12-22:31:44,909,1,Experiment,2023-09-12_15h48.50.433,
7,global,local,0,19,5,233,6,239,exp,USSEYZFTTHLEUFY,YSSULNTEELTUHFH,6,Z,absent,zZ,nN,z,1,0.6825771000003442,n,1,0.10680009995121509,RSVPLG01,0.94,2023-09-12-22:31:44,909,1,Experiment,2023-09-12_15h48.50.433,
9,global,local,7,19,6,234,8,240,exp,TFZLESLNZHYYTSH,HTLSUYNFFZZXNTL,5,E,X,eE,yY,y,0,1.2608571000164375,y,1,1.017475700005889,RSVPLG01,0.94,2023-09-12-22:31:44,909,1,Experiment,2023-09-12_15h48.50.433,
12,global,global,7,19,7,235,11,241,exp,LYNUSZHUENSLXHY,SEUFYTNUSHHLNEF,6,Z,X,zZ,yY,z,1,0.4937836000462994,y,1,0.6196232999209315,RSVPLG01,0.94,2023-09-12-22:31:44,909,1,Experiment,2023-09-12_15h48.50.433,
9,global,local,7,19,8,236,8,242,exp,TZEELSYZNUUFLFY,YUTNUHYTFLZFXEL,6,S,X,sS,yY,s,1,0.7530916000250727,n,0,0.23734789993613958,RSVPLG01,0.94,2023-09-12-22:31:44,909,1,Experiment,2023-09-12_15h48.50.433,
7,global,local,0,19,9,237,6,243,exp,NZNZLHSSTUEYETY,LUENZFZTUTESSYN,6,H,absent,hH,nN,e,0,0.6209204000188038,y,0,0.15516880003269762,RSVPLG01,0.94,2023-09-12-22:31:44,909,1,Experiment,2023-09-12_15h48.50.433,
7,global,local,0,19,10,238,6,244,exp,UHTNUZSFLHEFTNL,HUUNSYHFEFNLTSL,6,Z,absent,zZ,nN,z,1,0.7257373000029474,n,1,0.13857110007666051,RSVPLG01,0.94,2023-09-12-22:31:44,909,1,Experiment,2023-09-12_15h48.50.433,
10,global,global,0,19,11,239,9,245,exp,HSHLFTETYENNYUL,YHNSZTSNLHTLUEU,5,F,absent,fF,nN,f,1,0.8090246999636292,n,1,0.14315219991840422,RSVPLG01,0.94,2023-09-12-22:31:44,909,1,Experiment,2023-09-12_15h48.50.433,
