row,t1_level,t2_level,t2_lag,.thisRepN,.thisTrialN,.thisN,.thisIndex,thisRow.t,notes,trial,trial_type,global_letters,local_letters,t1_pos,t1,t2,t1_corr,t2_corr,t1_resp,t1_acc,t1_rt,t2_resp,t2_acc,t2_rt,exp,ver,mod-utc,sub,sess,blocktyp,datetime,
9,global,local,7,0,0,0,8,,,1,warmup,ZHZUYEYFLSLFTUH,HZFZSNLSTYUHXFU,6,E,X,eE,yY,e,1,0.816571200000908,n,0,0.842080000000351,RSVPLG01,0.94,2023-09-12-22:25:04,11900,1,Experiment,2023-09-12_15h40.50.216,
11,global,global,3,0,1,1,10,,,2,warmup,UZUFTSXLHNEHNSE,HNUYNTSLZZHLEUE,4,F,X,fF,yY,z,0,1.07861690000027,n,0,0.5075428000000102,RSVPLG01,0.94,2023-09-12-22:25:04,11900,1,Experiment,2023-09-12_15h40.50.216,
3,local,local,7,0,2,2,2,,,3,warmup,ELZLNSFYZTUFTEY,ZFSFHETEZYYXUTU,5,H,X,hH,yY,h,1,0.8433822999995755,n,0,0.05843600000116567,RSVPLG01,0.94,2023-09-12-22:25:04,11900,1,Experiment,2023-09-12_15h40.50.216,
4,local,global,0,0,3,3,3,,,4,warmup,YTEYNLSZFTFHLSH,SHZLUFTSEZTEFLH,5,U,absent,uU,nN,u,1,0.941729199999827,n,1,0.07362429999921005,RSVPLG01,0.94,2023-09-12-22:25:04,11900,1,Experiment,2023-09-12_15h40.50.216,
12,global,global,7,0,4,4,11,,,5,warmup,HEYNFLNTYSEUXFS,SYHTUZTEEFNYSUF,6,L,X,lL,yY,z,0,0.7857316000008723,n,0,0.0970870000001014,RSVPLG01,0.94,2023-09-12-22:25:04,11900,1,Experiment,2023-09-12_15h40.50.216,
5,local,global,3,0,0,0,4,,,6,exp,FZLZTHFXEESNUSL,HUEHYFFZSLLEUNS,5,Y,X,yY,yY,y,1,0.8503189999992173,n,0,0.060952799998631235,RSVPLG01,0.94,2023-09-12-22:25:04,11900,1,Experiment,2023-09-12_15h40.50.216,
5,local,global,3,0,1,1,4,,,7,exp,HFETSYUXTEUZZHY,FEZELUHYFNZTTYH,5,L,X,lL,yY,e,0,0.5835510999986582,y,1,2.0431000999997195,RSVPLG01,0.94,2023-09-12-22:25:04,11900,1,Experiment,2023-09-12_15h40.50.216,
7,global,local,0,0,2,2,6,,,8,exp,NLYLESTUSNZYTFZ,TFUNHZSZNFUSYLT,5,E,absent,eE,nN,h,0,2.2287747000009404,n,1,0.18734279999989667,RSVPLG01,0.94,2023-09-12-22:25:04,11900,1,Experiment,2023-09-12_15h40.50.216,
8,global,local,3,0,3,3,7,,,9,exp,UNZYEYFFSTHTSHZ,FYZZLTUXSSUHTFH,5,E,X,eE,yY,s,0,0.12517289999959758,n,0,0.7761823999990156,RSVPLG01,0.94,2023-09-12-22:25:04,11900,1,Experiment,2023-09-12_15h40.50.216,
10,global,global,0,0,4,4,9,,,10,exp,UUTTLYNFSYESNEF,ZENFHSTEYZYUUNF,5,L,absent,lL,nN,s,0,0.363034100000732,n,1,0.362531200000376,RSVPLG01,0.94,2023-09-12-22:25:04,11900,1,Experiment,2023-09-12_15h40.50.216,
9,global,local,7,0,5,5,8,,,11,exp,YNNTUHLEULEZZYF,ETLZNSZUTFYLXFY,6,H,X,hH,yY,s,0,0.3349242999993294,n,0,0.4144145000009303,RSVPLG01,0.94,2023-09-12-22:25:04,11900,1,Experiment,2023-09-12_15h40.50.216,
11,global,global,3,0,6,6,10,,,12,exp,HLSYFZXNEFZSLHE,FELTUHSLZNNEHSF,4,Y,X,yY,yY,t,0,0.9005366999990656,n,0,0.05823960000088846,RSVPLG01,0.94,2023-09-12-22:25:04,11900,1,Experiment,2023-09-12_15h40.50.216,
2,local,local,3,0,7,7,1,,,13,exp,FNUSELTUNHHYYFL,TNLZETXUNYUHYHL,4,Z,X,zZ,yY,z,1,0.331995000000461,n,0,0.1387049000004481,RSVPLG01,0.94,2023-09-12-22:25:04,11900,1,Experiment,2023-09-12_15h40.50.216,
11,global,global,3,0,8,8,10,,,14,exp,LZHZYUHXTSNLFTN,SNULETZHZLNTFHU,5,Y,X,yY,yY,y,1,0.1492536999994627,y,1,0.8756790000006731,RSVPLG01,0.94,2023-09-12-22:25:04,11900,1,Experiment,2023-09-12_15h40.50.216,
11,global,global,3,0,9,9,10,,,15,exp,UUNFHFLXLZNETSS,FENZYELLFUUZSTT,5,H,X,hH,yY,f,0,0.8191377999992255,n,0,0.12210729999969772,RSVPLG01,0.94,2023-09-12-22:25:04,11900,1,Experiment,2023-09-12_15h40.50.216,
12,global,global,7,0,10,10,11,,,16,exp,NYUSZSUNHFTXEET,FYNTLHYNHFUUSST,5,Z,X,zZ,yY,z,1,0.8782249000014417,n,0,0.443453200001386,RSVPLG01,0.94,2023-09-12-22:25:04,11900,1,Experiment,2023-09-12_15h40.50.216,
8,global,local,3,0,11,11,7,,,17,exp,TYLNSHZTHLZSFEE,HTLUTYXSSHEFYLZ,4,N,X,nN,yY,y,0,0.44410310000057507,n,0,0.2173906000007264,RSVPLG01,0.94,2023-09-12-22:25:04,11900,1,Experiment,2023-09-12_15h40.50.216,
3,local,local,7,1,0,12,2,,,18,exp,HHSTLFTUYZYSZNF,FTHSEZZHYYNXFUU,5,E,X,eE,yY,e,1,0.37398400000165566,n,0,0.3016371999983676,RSVPLG01,0.94,2023-09-12-22:25:04,11900,1,Experiment,2023-09-12_15h40.50.216,
7,global,local,0,1,1,13,6,,,19,exp,ZLYFNULHHSNSZYU,YHUEZSNTZTLNYLH,4,F,absent,fF,nN,f,1,0.3618538999999146,n,1,0.3612207000005583,RSVPLG01,0.94,2023-09-12-22:25:04,11900,1,Experiment,2023-09-12_15h40.50.216,
6,local,global,7,1,2,14,5,,,20,exp,ZFEFLTSZHNYXSNH,ENSFUZHZTHSNYFE,5,U,X,uU,yY,u,1,0.7865500999996584,y,1,0.04520799999954761,RSVPLG01,0.94,2023-09-12-22:25:04,11900,1,Experiment,2023-09-12_15h40.50.216,
5,local,global,3,1,3,15,4,,,21,exp,HZUSEHXFYTZYNNF,ZFNLNEHTHYYUFUZ,4,L,X,lL,yY,y,0,1.569240400000126,y,1,0.7136489000004076,RSVPLG01,0.94,2023-09-12-22:25:04,11900,1,Experiment,2023-09-12_15h40.50.216,
8,global,local,3,1,4,16,7,,,22,exp,ESLETHYNZUZYLTU,LESNYFTEXNULZYU,6,H,X,hH,yY,y,0,1.3131291000008787,y,1,0.31310909999956493,RSVPLG01,0.94,2023-09-12-22:25:04,11900,1,Experiment,2023-09-12_15h40.50.216,
2,local,local,3,1,5,17,1,,,23,exp,TZEYUZFHYSSFNET,SSFYLHTXZEFZHNN,5,L,X,lL,yY,l,1,0.9479690999996819,n,0,0.45859349999955157,RSVPLG01,0.94,2023-09-12-22:25:04,11900,1,Experiment,2023-09-12_15h40.50.216,
11,global,global,3,1,6,18,10,,,24,exp,ZTESYHYNXNFUSEU,TNYZFLSZTEFNUES,6,H,X,hH,yY,h,1,0.9003045999997994,n,0,0.07462949999899138,RSVPLG01,0.94,2023-09-12-22:25:04,11900,1,Experiment,2023-09-12_15h40.50.216,
1,local,local,0,1,7,19,0,,,25,exp,UHFYESNNUSEZHZF,NFSLEUETHZSTFZU,4,L,absent,lL,nN,l,1,0.7803583000004437,n,1,0.12185279999903287,RSVPLG01,0.94,2023-09-12-22:25:04,11900,1,Experiment,2023-09-12_15h40.50.216,
8,global,local,3,1,8,20,7,,,26,exp,SNUSLYLENUFFZTZ,USZFUHLNXEFSNTL,6,Y,X,yY,yY,y,1,0.8675945999984833,n,0,0.10784909999892989,RSVPLG01,0.94,2023-09-12-22:25:04,11900,1,Experiment,2023-09-12_15h40.50.216,
5,local,global,3,1,9,21,4,,,27,exp,UHYHNSFNXLZYTZL,HNUTZEZHLYTFYLF,6,E,X,eE,yY,h,0,1.08707879999929,n,0,0.04770250000001397,RSVPLG01,0.94,2023-09-12-22:25:04,11900,1,Experiment,2023-09-12_15h40.50.216,
9,global,local,7,1,10,22,8,,,28,exp,STFSLENYEZTUFYN,SYTFHTEFZZNXSEY,5,L,X,lL,yY,l,1,0.8514238999996451,n,0,0.10859349999918777,RSVPLG01,0.94,2023-09-12-22:25:04,11900,1,Experiment,2023-09-12_15h40.50.216,
10,global,global,0,1,11,23,9,,,29,exp,TYZFZETNSNLUSYU,TYEHEZSZLTNUNYL,4,F,absent,fF,nN,h,0,0.8576104000003397,n,1,0.057003899999472196,RSVPLG01,0.94,2023-09-12-22:25:04,11900,1,Experiment,2023-09-12_15h40.50.216,
5,local,global,3,2,0,24,4,,,30,exp,TSFEHTLXUEFUNLS,SSLZYLNENUTTFFU,5,Y,X,yY,yY,h,0,0.41576960000020335,n,0,0.12331909999920754,RSVPLG01,0.94,2023-09-12-22:25:04,11900,1,Experiment,2023-09-12_15h40.50.216,
12,global,global,7,2,1,25,11,,,31,exp,FEENYSZULUXTLFY,ETYHYFSEZTSUUZF,4,N,X,nN,yY,y,0,0.7198215999997046,n,0,0.12239659999977448,RSVPLG01,0.94,2023-09-12-22:25:04,11900,1,Experiment,2023-09-12_15h40.50.216,
10,global,global,0,2,2,26,9,,,32,exp,LYLZNEYFUZTUSSF,ZFYEHTLZTYUSSUL,5,N,absent,nN,nN,h,0,1.4192917000000307,y,0,0.9525573999999324,RSVPLG01,0.94,2023-09-12-22:25:04,11900,1,Experiment,2023-09-12_15h40.50.216,
11,global,global,3,2,3,27,10,,,33,exp,EHYTZYSXUFTEUNF,NHTYLNUSHYEFFST,5,Z,X,zZ,yY,h,0,1.0883089000017208,n,0,0.042163199999777135,RSVPLG01,0.94,2023-09-12-22:25:04,11900,1,Experiment,2023-09-12_15h40.50.216,
4,local,global,0,2,4,28,3,,,34,exp,FULENSYEZULTNZT,LFYENHTEUZZTNUF,6,H,absent,hH,nN,h,1,0.9591411000001244,n,1,0.044764300000679214,RSVPLG01,0.94,2023-09-12-22:25:04,11900,1,Experiment,2023-09-12_15h40.50.216,
12,global,global,7,2,5,29,11,,,35,exp,FFZNYLZTHSXHSLT,ZLHUTEYZFTSFSEH,4,N,X,nN,yY,n,1,0.8129376999986562,y,1,0.0417555000003631,RSVPLG01,0.94,2023-09-12-22:25:04,11900,1,Experiment,2023-09-12_15h40.50.216,
12,global,global,7,2,6,30,11,,,36,exp,TFZNHNYEELYXSZF,EYNLUFSZTTZLYNE,5,H,X,hH,yY,h,1,0.7233981999997923,y,1,0.8605774999996356,RSVPLG01,0.94,2023-09-12-22:25:04,11900,1,Experiment,2023-09-12_15h40.50.216,
1,local,local,0,2,7,31,0,,,37,exp,UHEFNLTFESLZTSZ,ELFHYESFUTZLHSU,5,Y,absent,yY,nN,y,1,1.0194425999998202,n,1,0.05758629999945697,RSVPLG01,0.94,2023-09-12-22:25:04,11900,1,Experiment,2023-09-12_15h40.50.216,
10,global,global,0,2,8,32,9,,,38,exp,FYESUUELHZNFNZH,ELUTHYLEZZUNFNH,4,S,absent,sS,nN,z,0,1.9665202999985922,n,1,0.09074999999938882,RSVPLG01,0.94,2023-09-12-22:25:04,11900,1,Experiment,2023-09-12_15h40.50.216,
12,global,global,7,2,9,33,11,,,39,exp,SEELHSZFTUUXZNF,ZFLUYTEUNFESNTS,5,H,X,hH,yY,h,1,0.4152482000008604,n,0,0.05865230000017618,RSVPLG01,0.94,2023-09-12-22:25:04,11900,1,Experiment,2023-09-12_15h40.50.216,
8,global,local,3,2,10,34,7,,,40,exp,SYTNUUHELFESFYL,FFYZSTXTULESLEU,4,N,X,nN,yY,n,1,0.7855225999992399,n,0,0.08894609999879322,RSVPLG01,0.94,2023-09-12-22:25:04,11900,1,Experiment,2023-09-12_15h40.50.216,
3,local,local,7,2,11,35,2,,,41,exp,TFEYLNSYUTSUZEZ,SEZFHYFUZNYXTEU,5,H,X,hH,yY,h,1,0.8636243999990256,n,0,0.9704834999993182,RSVPLG01,0.94,2023-09-12-22:25:04,11900,1,Experiment,2023-09-12_15h40.50.216,
7,global,local,0,3,0,36,6,,,42,exp,THTLSZHZNYELNYF,TYFEUZZNNTHHYLE,5,S,absent,sS,nN,s,1,0.8904684000008274,y,0,0.2992102000007435,RSVPLG01,0.94,2023-09-12-22:25:04,11900,1,Experiment,2023-09-12_15h40.50.216,
12,global,global,7,3,1,37,11,,,43,exp,TENNZLHEFYFTXSZ,ZYYFSUNZNHETSFH,6,L,X,lL,yY,l,1,1.8956432000013592,n,0,0.0567031999999017,RSVPLG01,0.94,2023-09-12-22:25:04,11900,1,Experiment,2023-09-12_15h40.50.216,
2,local,local,3,3,2,38,1,,,44,exp,ULTNTZESUFHZHFS,TETYSLXZZFHLUSE,4,Y,X,yY,yY,y,1,1.0492261999988841,n,0,0.06283129999974335,RSVPLG01,0.94,2023-09-12-22:25:04,11900,1,Experiment,2023-09-12_15h40.50.216,
7,global,local,0,3,3,39,6,,,45,exp,LSENFNUULHTTSHZ,LTNUYHSZUEZHNES,5,F,absent,fF,nN,f,1,0.9238910999993095,n,1,0.09039879999909317,RSVPLG01,0.94,2023-09-12-22:25:04,11900,1,Experiment,2023-09-12_15h40.50.216,
7,global,local,0,3,4,40,6,,,46,exp,FSHENLSTEZHNZYF,SYZFZUHNTYNTFHE,6,L,absent,lL,nN,l,1,1.1555557000010594,y,0,1.819664599999669,RSVPLG01,0.94,2023-09-12-22:25:04,11900,1,Experiment,2023-09-12_15h40.50.216,
8,global,local,3,3,5,41,7,,,47,exp,SHHTNYYFUTEESZZ,UTSYLZZXEETFHFU,5,N,X,nN,yY,y,0,2.8177025000004505,n,0,0.8423870999995415,RSVPLG01,0.94,2023-09-12-22:25:04,11900,1,Experiment,2023-09-12_15h40.50.216,
5,local,global,3,3,6,42,4,,,48,exp,EELTZYUHXFZUFTN,LEUHHSFLNUNTZZF,6,S,X,sS,yY,s,1,0.8832243999986531,n,0,0.23423639999964507,RSVPLG01,0.94,2023-09-12-22:25:04,11900,1,Experiment,2023-09-12_15h40.50.216,
12,global,global,7,3,7,43,11,,,49,exp,ZTHLFENNUEXYTHF,YFESUHUHZTNYTNE,4,L,X,lL,yY,l,1,0.9110564999991766,y,1,0.4420637000002898,RSVPLG01,0.94,2023-09-12-22:25:04,11900,1,Experiment,2023-09-12_15h40.50.216,
8,global,local,3,3,8,44,7,,,50,exp,SHFSYFNLZZTUNUH,ZUUZETNXLTSFLHH,5,Y,X,yY,yY,y,1,0.9647930999999517,n,0,0.14234289999876637,RSVPLG01,0.94,2023-09-12-22:25:04,11900,1,Experiment,2023-09-12_15h40.50.216,
3,local,local,7,3,9,45,2,,,51,exp,ZSEYHULUESLZFFT,HZENUETFUHXLFSZ,4,N,X,nN,yY,e,0,0.7508034000002226,n,0,0.6570228999989922,RSVPLG01,0.94,2023-09-12-22:25:04,11900,1,Experiment,2023-09-12_15h40.50.216,
7,global,local,0,3,10,46,6,,,52,exp,LNZFTHNSYUYSUFL,ZNSLUETUTFLZYFN,6,H,absent,hH,nN,h,1,1.038263399999778,n,1,0.330440699999599,RSVPLG01,0.94,2023-09-12-22:25:04,11900,1,Experiment,2023-09-12_15h40.50.216,
1,local,local,0,3,11,47,0,,,53,exp,ESSYFNTTZEFNLLU,LZNHSUTELFFESZT,4,H,absent,hH,nN,y,0,0.9963233999988006,n,1,0.07450269999935699,RSVPLG01,0.94,2023-09-12-22:25:04,11900,1,Experiment,2023-09-12_15h40.50.216,
8,global,local,3,4,0,48,7,,,54,exp,UEETNHFUSZLFSHL,FLTZYTHXEEHUUFZ,5,N,X,nN,yY,n,1,0.9480937999996968,n,0,0.2177027999987331,RSVPLG01,0.94,2023-09-12-22:25:04,11900,1,Experiment,2023-09-12_15h40.50.216,
7,global,local,0,4,1,49,6,,,55,exp,HSZYNUFTZNUFHLL,FZSEHSUZUHTTFNN,4,Y,absent,yY,nN,e,0,0.7473303000006126,n,1,0.1077476000009483,RSVPLG01,0.94,2023-09-12-22:25:04,11900,1,Experiment,2023-09-12_15h40.50.216,
8,global,local,3,4,2,50,7,,,56,exp,TULNYHEFYZZHUTF,FTESYUXEZYHFZUT,4,N,X,nN,yY,s,0,0.8688781999990169,n,0,0.11108929999863904,RSVPLG01,0.94,2023-09-12-22:25:04,11900,1,Experiment,2023-09-12_15h40.50.216,
3,local,local,7,4,3,51,2,,,57,exp,TYLLHNEUUFZYENT,NZLUSYFTTLUXYEZ,5,S,X,sS,yY,s,1,0.8734259000011662,n,0,0.12152489999971294,RSVPLG01,0.94,2023-09-12-22:25:04,11900,1,Experiment,2023-09-12_15h40.50.216,
7,global,local,0,4,4,52,6,,,58,exp,LLZUETEZNNTFYHH,YNLSYLFETTFZNHZ,4,U,absent,uU,nN,u,1,0.8187123000006977,n,1,0.07534320000013395,RSVPLG01,0.94,2023-09-12-22:25:04,11900,1,Experiment,2023-09-12_15h40.50.216,
3,local,local,7,4,5,53,2,,,59,exp,HZSLUEHYNZFSUYL,LZFLUTZHUSFNXSH,6,T,X,tT,yY,t,1,0.9413595999994868,n,0,0.042862100001002545,RSVPLG01,0.94,2023-09-12-22:25:04,11900,1,Experiment,2023-09-12_15h40.50.216,
10,global,global,0,4,6,54,9,,,60,exp,TNHFLYTZUSUZYLN,HUTEYLHLZNNSSUY,4,F,absent,fF,nN,y,0,0.9815672999993694,n,1,0.7658726000008755,RSVPLG01,0.94,2023-09-12-22:25:04,11900,1,Experiment,2023-09-12_15h40.50.216,
6,local,global,7,4,7,55,5,,,61,exp,UTNFLTZZESXUNYS,YNEHSNSLTUZYEZL,4,H,X,hH,yY,h,1,1.3166830000009213,n,0,0.060244000000238884,RSVPLG01,0.94,2023-09-12-22:25:04,11900,1,Experiment,2023-09-12_15h40.50.216,
6,local,global,7,4,8,56,5,,,62,exp,STTLFUNZLYESXZF,NZYLFHNYSETZSLT,6,H,X,hH,yY,h,1,0.9296868000001268,n,0,0.05959980000079668,RSVPLG01,0.94,2023-09-12-22:25:04,11900,1,Experiment,2023-09-12_15h40.50.216,
12,global,global,7,4,9,57,11,,,63,exp,HTYZNHSYTNXEFUU,FTFLNYYEUUENSHS,4,Z,X,zZ,yY,l,0,0.7513464000003296,y,1,0.24058770000010554,RSVPLG01,0.94,2023-09-12-22:25:04,11900,1,Experiment,2023-09-12_15h40.50.216,
11,global,global,3,4,10,58,10,,,64,exp,ZHFUSFXYNYNHSTT,FYNEHNSLSFYTTLH,4,U,X,uU,yY,h,0,0.7713419000010617,n,0,0.07626249999884749,RSVPLG01,0.94,2023-09-12-22:25:04,11900,1,Experiment,2023-09-12_15h40.50.216,
1,local,local,0,4,11,59,0,,,65,exp,STNSHEYYTZUFFZU,TFFHSLNUSHNYYZU,6,L,absent,lL,nN,l,1,0.849626499999431,y,0,2.3786739999995916,RSVPLG01,0.94,2023-09-12-22:25:04,11900,1,Experiment,2023-09-12_15h40.50.216,
11,global,global,3,5,0,60,10,,,66,exp,SUELEHXYFSNHTNF,TSEZNFHHSNYFYUU,4,L,X,lL,yY,l,1,0.857842299999902,n,0,0.2847304000006261,RSVPLG01,0.94,2023-09-12-22:25:04,11900,1,Experiment,2023-09-12_15h40.50.216,
12,global,global,7,5,1,61,11,,,67,exp,NFLEEHLUYNTZXUY,ZEFUYSTNNYFZLEL,6,H,X,hH,yY,h,1,0.8647931000014069,y,1,0.07400389999929757,RSVPLG01,0.94,2023-09-12-22:25:04,11900,1,Experiment,2023-09-12_15h40.50.216,
5,local,global,3,5,2,62,4,,,68,exp,YFNLZUNXHHEYETU,UTNFSHHFLYUEYTN,5,S,X,sS,yY,s,1,0.580902599998808,y,1,0.05802820000099018,RSVPLG01,0.94,2023-09-12-22:25:04,11900,1,Experiment,2023-09-12_15h40.50.216,
4,local,global,0,5,3,63,3,,,69,exp,ZESUYENTFHFTSNU,SZTHLUUTFZHENEN,5,L,absent,lL,nN,l,1,0.9457560999999259,n,1,0.1547525999994832,RSVPLG01,0.94,2023-09-12-22:25:04,11900,1,Experiment,2023-09-12_15h40.50.216,
6,local,global,7,5,4,64,5,,,70,exp,FZSNTSYHZEXHFEU,ZUTLFETYYHZFEHS,4,L,X,lL,yY,l,1,0.8533490000008896,y,1,0.1390121000004001,RSVPLG01,0.94,2023-09-12-22:25:04,11900,1,Experiment,2023-09-12_15h40.50.216,
4,local,global,0,5,5,65,3,,,71,exp,HYTSSUNFTZHZYFN,ZSFYTENLZHFYTLH,6,E,absent,eE,nN,e,1,0.6500071999998909,n,1,0.2491967999994813,RSVPLG01,0.94,2023-09-12-22:25:04,11900,1,Experiment,2023-09-12_15h40.50.216,
11,global,global,3,5,6,66,10,,,72,exp,LSHLTSYXYUZHEEF,SYFHNZEUYUHFZEL,5,T,X,tT,yY,t,1,1.0400379999991856,n,0,0.10582280000016908,RSVPLG01,0.94,2023-09-12-22:25:04,11900,1,Experiment,2023-09-12_15h40.50.216,
8,global,local,3,5,7,67,7,,,73,exp,TEFSNSHEYUFZHZT,HZZSLYYXUETFFUT,5,N,X,nN,yY,n,1,0.8353563000000577,n,0,0.2071510000005219,RSVPLG01,0.94,2023-09-12-22:25:04,11900,1,Experiment,2023-09-12_15h40.50.216,
3,local,local,7,5,8,68,2,,,74,exp,SUUEZYNFHFNTSTH,HSFFLUETYUNXHET,5,L,X,lL,yY,l,1,1.0310554999996384,n,0,0.10653429999911168,RSVPLG01,0.94,2023-09-12-22:25:04,11900,1,Experiment,2023-09-12_15h40.50.216,
4,local,global,0,5,9,69,3,,,75,exp,UNYHTELHZZTYSUN,ZLZTUFHYHUNSSLY,6,F,absent,fF,nN,f,1,0.7347050000007584,n,1,0.07918839999911143,RSVPLG01,0.94,2023-09-12-22:25:04,11900,1,Experiment,2023-09-12_15h40.50.216,
4,local,global,0,5,10,70,3,,,76,exp,LZUSFZFEYUHNHEN,LEUTZHFELYZUHNN,4,T,absent,tT,nN,t,1,0.9938869999987219,n,1,0.12248429999999644,RSVPLG01,0.94,2023-09-12-22:25:04,11900,1,Experiment,2023-09-12_15h40.50.216,
6,local,global,7,5,11,71,5,,,77,exp,YFZEFUSLZNYEXHS,ZSSEYTNNZEHHYFL,6,T,X,tT,yY,t,1,0.7556789000009303,y,1,0.08961900000031164,RSVPLG01,0.94,2023-09-12-22:25:04,11900,1,Experiment,2023-09-12_15h40.50.216,
8,global,local,3,6,0,72,7,,,78,exp,NENSUTFYZEULSZF,YNUZSHFSXEZYLFE,6,T,X,tT,yY,y,0,0.8059128999993845,n,0,0.15389979999963543,RSVPLG01,0.94,2023-09-12-22:25:04,11900,1,Experiment,2023-09-12_15h40.50.216,
4,local,global,0,6,1,73,3,,,79,exp,NFETUYHYZLFHZTN,NTFZSEYNFTZEYLH,5,S,absent,sS,nN,s,1,0.8210276000008889,y,0,0.12262329999975918,RSVPLG01,0.94,2023-09-12-22:25:04,11900,1,Experiment,2023-09-12_15h40.50.216,
4,local,global,0,6,2,74,3,,,80,exp,SHYENTZTLHEZYSU,SEYLFZEUHYLHSZT,5,F,absent,fF,nN,t,0,1.4111308999999892,y,0,0.05830040000000736,RSVPLG01,0.94,2023-09-12-22:25:04,11900,1,Experiment,2023-09-12_15h40.50.216,
6,local,global,7,6,3,75,5,,,81,exp,EFLYZSUHHYLEXUF,YTFYENLHTZUEUFH,6,N,X,nN,yY,n,1,0.7154062999998132,y,1,0.07884899999953632,RSVPLG01,0.94,2023-09-12-22:25:04,11900,1,Experiment,2023-09-12_15h40.50.216,
4,local,global,0,6,4,76,3,,,82,exp,SZYHFTNHZNEFUYS,EUNHYLUZSZHNFFS,6,L,absent,lL,nN,l,1,0.8818425000008574,n,1,0.09055119999902672,RSVPLG01,0.94,2023-09-12-22:25:04,11900,1,Experiment,2023-09-12_15h40.50.216,
6,local,global,7,6,5,77,5,,,83,exp,FFEHUSTNHYTXZEN,HZSZLFSNYTEFEHY,5,L,X,lL,yY,l,1,0.6891178000005311,y,1,0.1388318999997864,RSVPLG01,0.94,2023-09-12-22:25:04,11900,1,Experiment,2023-09-12_15h40.50.216,
7,global,local,0,6,6,78,6,,,84,exp,FYLEYNSTULZSFUZ,TZFHYNYNSZUUFSL,4,E,absent,eE,nN,f,0,0.8994640999990224,y,0,0.09102820000043721,RSVPLG01,0.94,2023-09-12-22:25:04,11900,1,Experiment,2023-09-12_15h40.50.216,
9,global,local,7,6,7,79,8,,,85,exp,HLZTHUNTSSYENLZ,SZZTTFEYYHESXNL,6,U,X,uU,yY,h,0,0.8931969000004756,y,1,0.014888099998643156,RSVPLG01,0.94,2023-09-12-22:25:04,11900,1,Experiment,2023-09-12_15h40.50.216,
2,local,local,3,6,8,80,1,,,86,exp,FZYTNHULUSLFYST,YLLFSEUYXTNNTSZ,6,E,X,eE,yY,e,1,0.7477959000007104,n,0,0.12351619999935792,RSVPLG01,0.94,2023-09-12-22:25:04,11900,1,Experiment,2023-09-12_15h40.50.216,
5,local,global,3,6,9,81,4,,,87,exp,HYUNTSXZHUYLZFL,YUZEFSTYLZHHFTL,4,E,X,eE,yY,f,0,1.3167862000009336,n,0,0.1111428000003798,RSVPLG01,0.94,2023-09-12-22:25:04,11900,1,Experiment,2023-09-12_15h40.50.216,
9,global,local,7,6,10,82,8,,,88,exp,ENLSZHFHYZFYLTE,ENFUZZFHLYXLTEN,4,S,X,sS,yY,s,1,1.1508200000007491,y,1,0.05747630000041681,RSVPLG01,0.94,2023-09-12-22:25:04,11900,1,Experiment,2023-09-12_15h40.50.216,
8,global,local,3,6,11,83,7,,,89,exp,EYHTZLFNUHETUFZ,NHYFUSYTXNFEZEU,6,L,X,lL,yY,l,1,0.7774154000017006,n,0,0.07292640000014217,RSVPLG01,0.94,2023-09-12-22:25:04,11900,1,Experiment,2023-09-12_15h40.50.216,
10,global,global,0,7,0,84,9,,,90,exp,LYYHESTUFLNFTUE,LTUZETFYUNNSEFS,4,H,absent,hH,nN,h,1,0.8686152000009315,n,1,1.1610712000001513,RSVPLG01,0.94,2023-09-12-22:25:04,11900,1,Experiment,2023-09-12_15h40.50.216,
2,local,local,3,7,1,85,1,,,91,exp,YHTSHYLLZFTZEUF,EYUNLFXEHZLTYUH,4,N,X,nN,yY,s,0,0.9257056000005832,n,0,0.1399851000005583,RSVPLG01,0.94,2023-09-12-22:25:04,11900,1,Experiment,2023-09-12_15h40.50.216,
10,global,global,0,7,2,86,9,,,92,exp,UTLHNYYZUSLHZFT,FHLLESHZSYFUTYT,5,N,absent,nN,nN,h,0,0.4382917000002635,n,1,0.18671770000037213,RSVPLG01,0.94,2023-09-12-22:25:04,11900,1,Experiment,2023-09-12_15h40.50.216,
9,global,local,7,7,3,87,8,,,93,exp,FTUSULNFZZHNHTE,THSZFYHTSENEXFZ,6,L,X,lL,yY,l,1,0.6223303999995551,n,0,0.17226149999987683,RSVPLG01,0.94,2023-09-12-22:25:04,11900,1,Experiment,2023-09-12_15h40.50.216,
7,global,local,0,7,4,88,6,,,94,exp,FZNHFUUTLEELSZN,LEEYNFZZUFTLNSS,4,H,absent,hH,nN,h,1,0.7919954999997572,n,1,0.10506460000033258,RSVPLG01,0.94,2023-09-12-22:25:04,11900,1,Experiment,2023-09-12_15h40.50.216,
2,local,local,3,7,5,89,1,,,95,exp,EFNUZLSHYYZSENL,SZETZNXLSEHHNFL,4,T,X,tT,yY,t,1,0.8088184999996884,n,0,0.25644260000080976,RSVPLG01,0.94,2023-09-12-22:25:04,11900,1,Experiment,2023-09-12_15h40.50.216,
10,global,global,0,7,6,90,9,,,96,exp,ZEUFHYUYTZNENTL,EFYLSYNZZLTFUEU,5,H,absent,hH,nN,h,1,0.8503579999996873,n,1,0.009307199999966542,RSVPLG01,0.94,2023-09-12-22:25:04,11900,1,Experiment,2023-09-12_15h40.50.216,
2,local,local,3,7,7,91,1,,,97,exp,ZTSFNUUEYHEHNYT,EUTLZSXNSNUYHYH,4,L,X,lL,yY,l,1,0.9423356999996031,n,0,0.0896718999993027,RSVPLG01,0.94,2023-09-12-22:25:04,11900,1,Experiment,2023-09-12_15h40.50.216,
12,global,global,7,7,8,92,11,,,98,exp,EESUNYHZTTXZHYF,TTELEHYFHNZSNZY,4,U,X,uU,yY,h,0,0.7976916000006895,n,0,0.044062299999495735,RSVPLG01,0.94,2023-09-12-22:25:04,11900,1,Experiment,2023-09-12_15h40.50.216,
10,global,global,0,7,9,93,9,,,99,exp,FZEYUHSYTSHZLEL,FTHLNLTHEFYZEYS,5,U,absent,uU,nN,h,0,0.8591833000009501,n,1,0.2657498000007763,RSVPLG01,0.94,2023-09-12-22:25:04,11900,1,Experiment,2023-09-12_15h40.50.216,
7,global,local,0,7,10,94,6,,,100,exp,UFSSELYUNFZLZNH,LLHHTZUNFZYSUSY,5,E,absent,eE,nN,y,0,1.2643014000004769,n,1,0.12339180000162742,RSVPLG01,0.94,2023-09-12-22:25:04,11900,1,Experiment,2023-09-12_15h40.50.216,
9,global,local,7,7,11,95,8,,,101,exp,TSEFSLUZHNZTFUE,TZNEUYUTFHNEXHS,6,L,X,lL,yY,u,0,1.111207199999626,n,0,0.3802467000004981,RSVPLG01,0.94,2023-09-12-22:25:04,11900,1,Experiment,2023-09-12_15h40.50.216,
3,local,local,7,8,0,96,2,,,102,exp,YUSNLZNHZTSUEEY,NTSEFUYUTHSXYZH,5,F,X,fF,yY,n,0,0.76532860000043,n,0,0.15571280000040133,RSVPLG01,0.94,2023-09-12-22:25:04,11900,1,Experiment,2023-09-12_15h40.50.216,
3,local,local,7,8,1,97,2,,,103,exp,HZYFTSYZEHUFLES,YSZSNFZUUFYXHHE,5,N,X,nN,yY,s,0,0.8125943000013649,n,0,0.15424220000022615,RSVPLG01,0.94,2023-09-12-22:25:04,11900,1,Experiment,2023-09-12_15h40.50.216,
6,local,global,7,8,2,98,5,,,104,exp,ZZHEFLSHSUYUXFN,EUYYFTEZHSHZSNN,6,T,X,tT,yY,t,1,0.6546335000002728,y,1,0.04538510000020324,RSVPLG01,0.94,2023-09-12-22:25:04,11900,1,Experiment,2023-09-12_15h40.50.216,
8,global,local,3,8,3,99,7,,,105,exp,YSLFNTLSYTZZUEE,NUTHZSXESZTNYUE,4,F,X,fF,yY,f,1,0.8414460999993025,n,0,0.1540434999988065,RSVPLG01,0.94,2023-09-12-22:25:04,11900,1,Experiment,2023-09-12_15h40.50.216,
5,local,global,3,8,4,100,4,,,106,exp,ZLYSNHXNLTUFTYZ,LTLEUNFTFYZZHUH,4,E,X,eE,yY,e,1,0.7638736999997491,n,0,0.10720229999969888,RSVPLG01,0.94,2023-09-12-22:25:04,11900,1,Experiment,2023-09-12_15h40.50.216,
10,global,global,0,8,5,101,9,,,107,exp,ZSTTYEUZSNUHENH,SSUHLTNZENEZFHT,5,Y,absent,yY,nN,l,0,0.9904433000010613,n,1,0.23363069999868458,RSVPLG01,0.94,2023-09-12-22:25:04,11900,1,Experiment,2023-09-12_15h40.50.216,
11,global,global,3,8,6,102,10,,,108,exp,ZTZSFHXUTEELUNL,HLNYTFUZULEEHTZ,4,S,X,sS,yY,t,0,0.7313654999998107,y,1,0.21953130000110832,RSVPLG01,0.94,2023-09-12-22:25:04,11900,1,Experiment,2023-09-12_15h40.50.216,
5,local,global,3,8,7,103,4,,,109,exp,SEYZUHSXENYFZNL,FLLNTNZHHZEEYYF,5,T,X,tT,yY,t,1,1.085805500000788,y,1,0.3797088999999687,RSVPLG01,0.94,2023-09-12-22:25:04,11900,1,Experiment,2023-09-12_15h40.50.216,
7,global,local,0,8,8,104,6,,,110,exp,UHFYFEYTSUSTNNH,NNUUHZFLHLSYFYS,6,E,absent,eE,nN,z,0,0.8083003000010649,y,0,0.074418300000616,RSVPLG01,0.94,2023-09-12-22:25:04,11900,1,Experiment,2023-09-12_15h40.50.216,
3,local,local,7,8,9,105,2,,,111,exp,EUSTFHNLLUZZHES,ZNSSYHLLUTTXUEN,5,Y,X,yY,yY,l,0,0.7487282999991294,y,1,0.20677909999903932,RSVPLG01,0.94,2023-09-12-22:25:04,11900,1,Experiment,2023-09-12_15h40.50.216,
9,global,local,7,8,10,106,8,,,112,exp,UTUSFLNTHNEYYEL,EHNLZNTYYHLXEUS,5,F,X,fF,yY,h,0,0.3322521999998571,y,1,0.1393222999995487,RSVPLG01,0.94,2023-09-12-22:25:04,11900,1,Experiment,2023-09-12_15h40.50.216,
1,local,local,0,8,11,107,0,,,113,exp,ELHSZFHSULUFTNN,SENFYNUELUFLHTT,5,Y,absent,yY,nN,y,1,0.9452564999992319,n,1,0.12161299999934272,RSVPLG01,0.94,2023-09-12-22:25:04,11900,1,Experiment,2023-09-12_15h40.50.216,
12,global,global,7,9,0,108,11,,,114,exp,SSHFTNLHELXNYZZ,LTEUTYYZZNLSHHN,4,F,X,fF,yY,f,1,0.6515032999996038,y,1,0.06220209999992221,RSVPLG01,0.94,2023-09-12-22:25:04,11900,1,Experiment,2023-09-12_15h40.50.216,
10,global,global,0,9,1,109,9,,,115,exp,ZUNUTLYLEHYZHNS,UNHHFESYEZZLNYS,5,T,absent,tT,nN,y,0,0.9226347999992868,y,0,0.3473993000006885,RSVPLG01,0.94,2023-09-12-22:25:04,11900,1,Experiment,2023-09-12_15h40.50.216,
11,global,global,3,9,2,110,10,,,116,exp,LFUZHHXLEYUETNF,LUHSNEFYTHUNTLY,4,Z,X,zZ,yY,z,1,0.7463382999994792,n,0,0.10590330000013637,RSVPLG01,0.94,2023-09-12-22:25:04,11900,1,Experiment,2023-09-12_15h40.50.216,
11,global,global,3,9,3,111,10,,,117,exp,TYSZSHXYNELFNLT,TNYUSLHLYHTSEFE,4,Z,X,zZ,yY,z,1,0.8627164000008634,n,0,0.12069580000024871,RSVPLG01,0.94,2023-09-12-22:25:04,11900,1,Experiment,2023-09-12_15h40.50.216,
4,local,global,0,9,4,112,3,,,118,exp,YYETSUHLFNLFHNE,EHFZUNLHNELFYSY,4,Z,absent,zZ,nN,z,1,0.549704400000337,n,1,0.20434970000133035,RSVPLG01,0.94,2023-09-12-22:25:04,11900,1,Experiment,2023-09-12_15h40.50.216,
8,global,local,3,9,5,113,7,,,119,exp,NHZHFTLZSLUUSEE,ETTHYEHXNUULZSL,5,F,X,fF,yY,f,1,0.6091673000009905,n,0,0.026294399998732843,RSVPLG01,0.94,2023-09-12-22:25:04,11900,1,Experiment,2023-09-12_15h40.50.216,
12,global,global,7,9,6,114,11,,,120,exp,SNHEUULLNYXFSYH,SSHZHFYUUYLNLFN,4,E,X,eE,yY,h,0,0.6505291000012221,n,0,0.04184920000079728,RSVPLG01,0.94,2023-09-12-22:25:04,11900,1,Experiment,2023-09-12_15h40.50.216,
5,local,global,3,9,7,115,4,,,121,exp,ENTHTUXEFSYSZUN,TNELZTYSZEUSYNF,4,L,X,lL,yY,l,1,0.8408616000015172,n,0,0.15362229999846022,RSVPLG01,0.94,2023-09-12-22:25:04,11900,1,Experiment,2023-09-12_15h40.50.216,
2,local,local,3,9,8,116,1,,,122,exp,YFSLUENZTUESFZT,NYEHFYXNZUUTSTF,4,H,X,hH,yY,h,1,0.9788456000005681,n,0,0.026016199999503442,RSVPLG01,0.94,2023-09-12-22:25:04,11900,1,Experiment,2023-09-12_15h40.50.216,
1,local,local,0,9,9,117,0,,,123,exp,SHLSFNUETENYUYH,YHESZTTNLLHUESN,5,Z,absent,zZ,nN,s,0,0.5977588000005198,y,0,0.41360569999960717,RSVPLG01,0.94,2023-09-12-22:25:04,11900,1,Experiment,2023-09-12_15h40.50.216,
1,local,local,0,9,10,118,0,,,124,exp,SNHYLZHUZLFNUTS,STSEZUTNFZFHLLN,4,E,absent,eE,nN,e,1,0.9008647999999084,n,1,0.15380550000008952,RSVPLG01,0.94,2023-09-12-22:25:04,11900,1,Experiment,2023-09-12_15h40.50.216,
4,local,global,0,9,11,119,3,,,125,exp,NSUZETTLSHZYULH,LSHNFLYTUHZYTZN,5,F,absent,fF,nN,f,1,0.8570947999996861,y,0,0.16980450000119163,RSVPLG01,0.94,2023-09-12-22:25:04,11900,1,Experiment,2023-09-12_15h40.50.216,
5,local,global,3,10,0,120,4,,,126,exp,STEULNXNYLFZEYZ,FLLHSFYYTZNESNZ,4,H,X,hH,yY,h,1,0.8353756000014982,n,0,0.042540300000837306,RSVPLG01,0.94,2023-09-12-22:25:04,11900,1,Experiment,2023-09-12_15h40.50.216,
5,local,global,3,10,1,121,4,,,127,exp,NLYSYEFZXSTHFTN,ZSSZHUFLLHNFYTY,6,U,X,uU,yY,u,1,0.9568818000007013,y,1,0.026345299998865812,RSVPLG01,0.94,2023-09-12-22:25:04,11900,1,Experiment,2023-09-12_15h40.50.216,
7,global,local,0,10,2,122,6,,,128,exp,YNELTSHFNTYFZSH,ENFUYZHHTFEYNSS,4,L,absent,lL,nN,l,1,0.6784664999995584,n,1,0.13936350000039965,RSVPLG01,0.94,2023-09-12-22:25:04,11900,1,Experiment,2023-09-12_15h40.50.216,
3,local,local,7,10,3,123,2,,,129,exp,LSFZENYTYHLFNTH,LTTUSNEHHSXYFNE,4,U,X,uU,yY,s,0,1.0115612000008696,y,1,0.04652920000080485,RSVPLG01,0.94,2023-09-12-22:25:04,11900,1,Experiment,2023-09-12_15h40.50.216,
3,local,local,7,10,4,124,2,,,130,exp,NEYLLTNSFFHSZZY,ZESHSUZLEFLYXYN,6,U,X,uU,yY,u,1,1.0278736000000208,y,1,0.5562900000004447,RSVPLG01,0.94,2023-09-12-22:25:04,11900,1,Experiment,2023-09-12_15h40.50.216,
6,local,global,7,10,5,125,5,,,131,exp,UZLETNHNTYXSZHY,ZYUFTSTHYSLZHNN,4,F,X,fF,yY,f,1,0.5033618999987084,y,1,0.14752079999925627,RSVPLG01,0.94,2023-09-12-22:25:04,11900,1,Experiment,2023-09-12_15h40.50.216,
2,local,local,3,10,6,126,1,,,132,exp,SEHUHZSYZNYFFLN,FSNTELXFLYNEHYZ,4,T,X,tT,yY,t,1,0.9074822999991738,n,0,0.12740839999969467,RSVPLG01,0.94,2023-09-12-22:25:04,11900,1,Experiment,2023-09-12_15h40.50.216,
6,local,global,7,10,7,127,5,,,133,exp,TUYNYHTEZSLUXZE,ELTEZFNUSNYTSLY,6,F,X,fF,yY,f,1,0.9016168000016478,y,1,0.09252579999883892,RSVPLG01,0.94,2023-09-12-22:25:04,11900,1,Experiment,2023-09-12_15h40.50.216,
5,local,global,3,10,8,128,4,,,134,exp,HNEYZTFLXSZFELS,ZYNLZUYFFSNSHLE,6,U,X,uU,yY,u,1,0.9136228000006668,n,0,0.1218507999983558,RSVPLG01,0.94,2023-09-12-22:25:04,11900,1,Experiment,2023-09-12_15h40.50.216,
12,global,global,7,10,9,129,11,,,135,exp,FESYZEUFHLXSLTZ,HUENUTHSTZEFLSF,4,Y,X,yY,yY,y,1,0.6748410000000149,y,1,0.16939239999919664,RSVPLG01,0.94,2023-09-12-22:25:04,11900,1,Experiment,2023-09-12_15h40.50.216,
3,local,local,7,10,10,130,2,,,136,exp,HSNFULLEETFSTZH,LLNEYSSZZTEXFTH,5,Y,X,yY,yY,y,1,0.5626722999986669,y,1,0.24026500000036322,RSVPLG01,0.94,2023-09-12-22:25:04,11900,1,Experiment,2023-09-12_15h40.50.216,
8,global,local,3,10,11,131,7,,,137,exp,TEHZSFHLNTFUENZ,EEUFYHHXLTUFZNZ,5,S,X,sS,yY,z,0,0.512215800001286,y,1,0.18864939999912167,RSVPLG01,0.94,2023-09-12-22:25:04,11900,1,Experiment,2023-09-12_15h40.50.216,
6,local,global,7,11,0,132,5,,,138,exp,LFZUHEHYNYXNSZL,LEHTFNFSEZYLHYZ,4,T,X,tT,yY,t,1,0.5895084000003408,y,1,0.6192611000005854,RSVPLG01,0.94,2023-09-12-22:25:04,11900,1,Experiment,2023-09-12_15h40.50.216,
3,local,local,7,11,1,133,2,,,139,exp,NUUSYHSLNZZTEEL,ZLSUFZHENESXLUT,5,F,X,fF,yY,f,1,0.9292617999999493,n,0,0.28802689999974973,RSVPLG01,0.94,2023-09-12-22:25:04,11900,1,Experiment,2023-09-12_15h40.50.216,
8,global,local,3,11,2,134,7,,,140,exp,FTYNLZTZSFNEEHH,YFZFUSHXNEETNHS,5,L,X,lL,yY,h,0,0.9028128999998444,n,0,0.10931459999846993,RSVPLG01,0.94,2023-09-12-22:25:04,11900,1,Experiment,2023-09-12_15h40.50.216,
12,global,global,7,11,3,135,11,,,141,exp,EHSLFNYENYTXTLS,LYHLUSZYSEZNENH,5,F,X,fF,yY,f,1,0.5761096000005637,y,1,0.10828959999889776,RSVPLG01,0.94,2023-09-12-22:25:04,11900,1,Experiment,2023-09-12_15h40.50.216,
11,global,global,3,11,4,136,10,,,142,exp,FZUSEFYXUHLHYTT,UFTHNYZTUSLSFHZ,5,E,X,eE,yY,y,0,2.1247072000005573,n,0,1.100444300000163,RSVPLG01,0.94,2023-09-12-22:25:04,11900,1,Experiment,2023-09-12_15h40.50.216,
5,local,global,3,11,5,137,4,,,143,exp,HUSLFZYXLTSNNZH,SHTNEZLNHULYUYS,5,E,X,eE,yY,e,1,0.5610357000005024,y,1,0.026582200000120793,RSVPLG01,0.94,2023-09-12-22:25:04,11900,1,Experiment,2023-09-12_15h40.50.216,
9,global,local,7,11,6,138,8,,,144,exp,USHFELYSLHYTTZZ,SFTFNLYTUUHXZYH,5,E,X,eE,yY,n,0,1.1365356999995129,y,1,0.26632819999940693,RSVPLG01,0.94,2023-09-12-22:25:04,11900,1,Experiment,2023-09-12_15h40.50.216,
2,local,local,3,11,7,139,1,,,145,exp,NYYUZHUFSZESEFT,UFESSLNYXEFTZNZ,6,L,X,lL,yY,y,0,1.2437955000004877,y,1,1.3115056999995431,RSVPLG01,0.94,2023-09-12-22:25:04,11900,1,Experiment,2023-09-12_15h40.50.216,
6,local,global,7,11,8,140,5,,,146,exp,HSZNEHTFELXTSLU,ZFFYLLETSTUUSHE,4,Y,X,yY,yY,y,1,0.3579438000015216,y,1,0.18674929999906453,RSVPLG01,0.94,2023-09-12-22:25:04,11900,1,Experiment,2023-09-12_15h40.50.216,
3,local,local,7,11,9,141,2,,,147,exp,NUTULFNSLYZYTHS,NTSYLEYHLSUZXHU,6,E,X,eE,yY,e,1,0.8400113999996393,y,1,0.18641919999936363,RSVPLG01,0.94,2023-09-12-22:25:04,11900,1,Experiment,2023-09-12_15h40.50.216,
9,global,local,7,11,10,142,8,,,148,exp,LTYNSUEYZSTFUZE,YUTHSFLYUZXFTZL,4,N,X,nN,yY,h,0,0.25860819999979867,n,0,0.07466359999853012,RSVPLG01,0.94,2023-09-12-22:25:04,11900,1,Experiment,2023-09-12_15h40.50.216,
12,global,global,7,11,11,143,11,,,149,exp,TYTYEFLUSNUHXEH,NTLTHZEUSSUYYLN,6,F,X,fF,yY,f,1,0.6956103000011353,y,1,0.04107549999935145,RSVPLG01,0.94,2023-09-12-22:25:04,11900,1,Experiment,2023-09-12_15h40.50.216,
3,local,local,7,12,0,144,2,,,150,exp,LNHNTSFYFESHZLY,NHYNUHZLFESXLEY,5,U,X,uU,yY,u,1,1.2703912000015407,n,0,0.154955300000438,RSVPLG01,0.94,2023-09-12-22:25:04,11900,1,Experiment,2023-09-12_15h40.50.216,
5,local,global,3,12,1,145,4,,,151,exp,ZSYSLHUXNTYUHZF,YYHTEFSSNFZTZHU,5,E,X,eE,yY,f,0,0.28352839999934076,y,1,0.5213248000000021,RSVPLG01,0.94,2023-09-12-22:25:04,11900,1,Experiment,2023-09-12_15h40.50.216,
7,global,local,0,12,2,146,6,,,152,exp,EFHLNZFTSNUEUSH,FLSSEYUHLFTUTNH,6,Z,absent,zZ,nN,z,1,0.29467249999834166,n,1,0.2076308000014251,RSVPLG01,0.94,2023-09-12-22:25:04,11900,1,Experiment,2023-09-12_15h40.50.216,
10,global,global,0,12,3,147,9,,,153,exp,FTSUTEZHNYNHEZS,EHFLNZFYYZETSHS,4,U,absent,uU,nN,u,1,0.7615755000006175,y,0,0.010895100000198,RSVPLG01,0.94,2023-09-12-22:25:04,11900,1,Experiment,2023-09-12_15h40.50.216,
5,local,global,3,12,4,148,4,,,154,exp,ZYNFSLTXUYZTLHN,TFLYENYHFUTHZLZ,5,E,X,eE,yY,e,1,0.5115770000011253,y,1,0.24064420000104292,RSVPLG01,0.94,2023-09-12-22:25:04,11900,1,Experiment,2023-09-12_15h40.50.216,
12,global,global,7,12,5,149,11,,,155,exp,NFUZSZELHEUXNYF,ZEUUTNZLHYHEYNF,5,S,X,sS,yY,z,0,0.2917585000013787,y,1,0.6229877999994642,RSVPLG01,0.94,2023-09-12-22:25:04,11900,1,Experiment,2023-09-12_15h40.50.216,
11,global,global,3,12,6,150,10,,,156,exp,ULZHFYTXYENLTEH,ZHEUSNTLULYYZHN,5,F,X,fF,yY,f,1,0.30563510000138194,n,0,0.12283269999898039,RSVPLG01,0.94,2023-09-12-22:25:04,11900,1,Experiment,2023-09-12_15h40.50.216,
7,global,local,0,12,7,151,6,,,157,exp,EEYFHUYTHZFTNNS,SFYENLYTSZTHNEF,6,U,absent,uU,nN,n,0,1.3360573000009026,y,0,0.8904512000008253,RSVPLG01,0.94,2023-09-12-22:25:04,11900,1,Experiment,2023-09-12_15h40.50.216,
2,local,local,3,12,8,152,1,,,158,exp,FHEUNYZHULLETTF,NZHTLSFUXNFTLEE,6,S,X,sS,yY,s,1,0.48547680000046967,n,0,0.4260727999990195,RSVPLG01,0.94,2023-09-12-22:25:04,11900,1,Experiment,2023-09-12_15h40.50.216,
1,local,local,0,12,9,153,0,,,159,exp,NLEFTUYFZSELZNY,SNTEFHTYLEFZYSL,6,H,absent,hH,nN,h,1,0.9971993999988626,n,1,0.07694639999863284,RSVPLG01,0.94,2023-09-12-22:25:04,11900,1,Experiment,2023-09-12_15h40.50.216,
12,global,global,7,12,10,154,11,,,160,exp,FZSEYTLFTUZXLES,UFLSHEZEULFNSNZ,5,Y,X,yY,yY,y,1,0.6030722999985301,y,1,0.14380379999965953,RSVPLG01,0.94,2023-09-12-22:25:04,11900,1,Experiment,2023-09-12_15h40.50.216,
1,local,local,0,12,11,155,0,,,161,exp,HNTFESHZYYTNEZL,ZTLTFUYHNYFHEZN,6,U,absent,uU,nN,n,0,1.6773333000001003,y,0,0.5543761999997514,RSVPLG01,0.94,2023-09-12-22:25:04,11900,1,Experiment,2023-09-12_15h40.50.216,
11,global,global,3,13,0,156,10,,,162,exp,ZYUSEFLXHZTYFTS,SYLUNHHFTSUZTZY,5,E,X,eE,yY,f,0,0.305088799999794,y,1,0.13897419999921112,RSVPLG01,0.94,2023-09-12-22:25:04,11900,1,Experiment,2023-09-12_15h40.50.216,
9,global,local,7,13,1,157,8,,,163,exp,HSSHYUUZZTELLTF,UFHENZZTESLXHFU,5,Y,X,yY,yY,y,1,0.8749110999997356,n,0,0.2976067999989027,RSVPLG01,0.94,2023-09-12-22:25:04,11900,1,Experiment,2023-09-12_15h40.50.216,
2,local,local,3,13,2,158,1,,,164,exp,ENFTYNHTZLZFHLU,THUTSUFXHFLNEEL,5,S,X,sS,yY,s,1,0.2887557000012748,n,0,0.17016879999937373,RSVPLG01,0.94,2023-09-12-22:25:04,11900,1,Experiment,2023-09-12_15h40.50.216,
9,global,local,7,13,3,159,8,,,165,exp,UNNESZLHZLUYSHY,UZSTLFNLFUXHZYS,4,E,X,eE,yY,f,0,2.612670000000435,y,1,0.17045660000076168,RSVPLG01,0.94,2023-09-12-22:25:04,11900,1,Experiment,2023-09-12_15h40.50.216,
10,global,global,0,13,4,160,9,,,166,exp,HZEUSTYNFNUTEYH,FZHELHYYZNFTUET,5,S,absent,sS,nN,l,0,1.8580566000000545,n,1,0.26593379999940225,RSVPLG01,0.94,2023-09-12-22:25:04,11900,1,Experiment,2023-09-12_15h40.50.216,
10,global,global,0,13,5,161,9,,,167,exp,YYULNTHFFUHZNSL,YNLSFEHULNHZFSZ,6,T,absent,tT,nN,f,0,0.3092289999985951,n,1,0.26675449999856937,RSVPLG01,0.94,2023-09-12-22:25:04,11900,1,Experiment,2023-09-12_15h40.50.216,
4,local,global,0,13,6,162,3,,,168,exp,EYSTEZFSFLHLNHT,ELHTFUHTELNNYSS,6,U,absent,uU,nN,u,1,0.8272360999999364,n,1,0.15552719999868714,RSVPLG01,0.94,2023-09-12-22:25:04,11900,1,Experiment,2023-09-12_15h40.50.216,
10,global,global,0,13,7,163,9,,,169,exp,FEELZHSSUFTZUTY,ETUNHYUFSSHZEZY,4,L,absent,lL,nN,h,0,0.5675331999991613,n,1,0.17117429999962042,RSVPLG01,0.94,2023-09-12-22:25:04,11900,1,Experiment,2023-09-12_15h40.50.216,
9,global,local,7,13,8,164,8,,,170,exp,SUSELYHZFUNYEFZ,EHUSTZNNUZYXFYS,5,L,X,lL,yY,l,1,1.3353898000004847,n,0,0.13907779999863124,RSVPLG01,0.94,2023-09-12-22:25:04,11900,1,Experiment,2023-09-12_15h40.50.216,
8,global,local,3,13,9,165,7,,,171,exp,UUEFTYSZELNSZLN,ZLUTFHNSXSLTFEU,6,Y,X,yY,yY,y,1,0.7558595999998943,n,0,0.10688899999877322,RSVPLG01,0.94,2023-09-12-22:25:04,11900,1,Experiment,2023-09-12_15h40.50.216,
6,local,global,7,13,10,166,5,,,172,exp,SNNZLTFLEZYUXFY,LZFSLHUSYZENNEU,6,H,X,hH,yY,h,1,1.0572210999998788,y,1,0.281331100000898,RSVPLG01,0.94,2023-09-12-22:25:04,11900,1,Experiment,2023-09-12_15h40.50.216,
9,global,local,7,13,11,167,8,,,173,exp,FENUHYUESLZZLSN,ZNUUTYSZFELXFNS,5,H,X,hH,yY,h,1,1.9690989999999147,y,1,0.07293719999870518,RSVPLG01,0.94,2023-09-12-22:25:04,11900,1,Experiment,2023-09-12_15h40.50.216,
4,local,global,0,14,0,168,3,,,174,exp,ZEEUFNULSYLFHYZ,YEZYFTHSLFZSHLU,6,T,absent,tT,nN,t,1,0.79245759999867,y,0,0.06500499999856402,RSVPLG01,0.94,2023-09-12-22:25:04,11900,1,Experiment,2023-09-12_15h40.50.216,
9,global,local,7,14,1,169,8,,,175,exp,UFNLESTNUYEYLFZ,NUUTEHENFYZLXFT,6,S,X,sS,yY,s,1,0.2701200000010431,n,0,0.07586349999837694,RSVPLG01,0.94,2023-09-12-22:25:04,11900,1,Experiment,2023-09-12_15h40.50.216,
2,local,local,3,14,2,170,1,,,176,exp,ZTULFNLUFYEYEZH,EFTUYSFLXEZYTZL,6,S,X,sS,yY,s,1,0.28815320000103384,y,1,0.19025500000134343,RSVPLG01,0.94,2023-09-12-22:25:04,11900,1,Experiment,2023-09-12_15h40.50.216,
5,local,global,3,14,3,171,4,,,177,exp,TTLZUEHSXYFULZS,SYZFTNUSYFHTHUL,6,N,X,nN,yY,n,1,0.6476531999996951,y,1,1.146239499999865,RSVPLG01,0.94,2023-09-12-22:25:04,11900,1,Experiment,2023-09-12_15h40.50.216,
7,global,local,0,14,4,172,6,,,178,exp,YFZZSYTTNENELHL,TEYLUNZZHELFFHN,5,S,absent,sS,nN,s,1,0.3452269999997952,n,1,0.7156102000008104,RSVPLG01,0.94,2023-09-12-22:25:04,11900,1,Experiment,2023-09-12_15h40.50.216,
2,local,local,3,14,5,173,1,,,179,exp,FLNSUZNFYHZEHUL,EUFTLEXZHYFNHYN,4,T,X,tT,yY,t,1,0.16799379999974917,n,0,0.31482059999871126,RSVPLG01,0.94,2023-09-12-22:25:04,11900,1,Experiment,2023-09-12_15h40.50.216,
10,global,global,0,14,6,174,9,,,180,exp,HNUNYTLZFFLYEEU,LZUFHSYEHYLZNEU,6,T,absent,tT,nN,s,0,0.30067760000019916,n,1,0.9554119000003993,RSVPLG01,0.94,2023-09-12-22:25:04,11900,1,Experiment,2023-09-12_15h40.50.216,
4,local,global,0,14,7,175,3,,,181,exp,LNTEHZNFZSFSULU,TLNEYUSSTZLFNFZ,5,Y,absent,yY,nN,t,0,0.8237552999999025,n,1,0.08033629999954428,RSVPLG01,0.94,2023-09-12-22:25:04,11900,1,Experiment,2023-09-12_15h40.50.216,
2,local,local,3,14,8,176,1,,,182,exp,HLFENFZTHYSTSLY,SEHZUTYXFEFLLZH,5,U,X,uU,yY,u,1,1.1394432000015513,n,0,0.17080859999987297,RSVPLG01,0.94,2023-09-12-22:25:04,11900,1,Experiment,2023-09-12_15h40.50.216,
11,global,global,3,14,9,177,10,,,183,exp,LHTSEUSXHULTZFY,FUHHNSZYYUSFLTZ,5,E,X,eE,yY,s,0,0.9569749000002048,y,1,0.4591378999994049,RSVPLG01,0.94,2023-09-12-22:25:04,11900,1,Experiment,2023-09-12_15h40.50.216,
9,global,local,7,14,10,178,8,,,184,exp,YULFESHFSHUYTNL,SYNUZLFULYSXNTF,5,E,X,eE,yY,f,0,0.497880000000805,n,0,0.07399070000064967,RSVPLG01,0.94,2023-09-12-22:25:04,11900,1,Experiment,2023-09-12_15h40.50.216,
6,local,global,7,14,11,179,5,,,185,exp,ENHFEHNLLTXUTSS,LZSYZUEHSTNLTNE,4,Y,X,yY,yY,y,1,0.31406259999857866,y,1,0.13999990000047546,RSVPLG01,0.94,2023-09-12-22:25:04,11900,1,Experiment,2023-09-12_15h40.50.216,
3,local,local,7,15,0,180,2,,,186,exp,ZSNNZTSYUHLEYLE,SZUYHFNNLUSLXEY,6,F,X,fF,yY,f,1,0.28574050000133866,n,0,1.0326361000006727,RSVPLG01,0.94,2023-09-12-22:25:04,11900,1,Experiment,2023-09-12_15h40.50.216,
9,global,local,7,15,1,181,8,,,187,exp,YNFHLFLSNZYESTE,TSNUYFSZNLXLTEE,4,H,X,hH,yY,h,1,0.9249250000011671,y,1,0.05848100000002887,RSVPLG01,0.94,2023-09-12-22:25:04,11900,1,Experiment,2023-09-12_15h40.50.216,
8,global,local,3,15,2,182,7,,,188,exp,SHSFZNTNLYLUHTY,NZLEUZXSTSHHUNL,4,F,X,fF,yY,f,1,1.817254999999932,n,0,0.2664076000000932,RSVPLG01,0.94,2023-09-12-22:25:04,11900,1,Experiment,2023-09-12_15h40.50.216,
4,local,global,0,15,3,183,3,,,189,exp,EFNTLHFLEUUYYNH,EYZSFNZNLFEUUHH,4,S,absent,sS,nN,s,1,0.587014900000213,n,1,0.12131000000044878,RSVPLG01,0.94,2023-09-12-22:25:04,11900,1,Experiment,2023-09-12_15h40.50.216,
11,global,global,3,15,4,184,10,,,190,exp,YNEZFSXTUTLUYES,TYUHTLYNFEUSSEL,4,Z,X,zZ,yY,z,1,0.3741167000007408,n,0,0.1863333999990573,RSVPLG01,0.94,2023-09-12-22:25:04,11900,1,Experiment,2023-09-12_15h40.50.216,
7,global,local,0,15,5,185,6,,,191,exp,NLNFHTUYYHLSSZU,ZSNYUENYFLLUHSZ,6,T,absent,tT,nN,t,1,0.7215551999997842,y,0,0.5913915000000998,RSVPLG01,0.94,2023-09-12-22:25:04,11900,1,Experiment,2023-09-12_15h40.50.216,
4,local,global,0,15,6,186,3,,,192,exp,FHUZELTYFHUNYZN,YUZHYSEHNEFTZTN,6,S,absent,sS,nN,s,1,0.7935992999991868,y,0,0.10792559999936202,RSVPLG01,0.94,2023-09-12-22:25:04,11900,1,Experiment,2023-09-12_15h40.50.216,
11,global,global,3,15,7,187,10,,,193,exp,ELTHZEXUSUNYNST,UTSFEEULZLNZTYY,4,H,X,hH,yY,h,1,0.20973780000167608,n,0,0.09425190000001749,RSVPLG01,0.94,2023-09-12-22:25:04,11900,1,Experiment,2023-09-12_15h40.50.216,
8,global,local,3,15,8,188,7,,,194,exp,SHZFFEUNZSYHTTN,UYZYNLSZXTSHNHF,6,E,X,eE,yY,e,1,1.4175326999993558,y,1,0.3639082000008784,RSVPLG01,0.94,2023-09-12-22:25:04,11900,1,Experiment,2023-09-12_15h40.50.216,
4,local,global,0,15,9,189,3,,,195,exp,FULESYUETHTLHYZ,TZHUNLEHYTFYZEU,5,N,absent,nN,nN,n,1,0.6492972000014561,n,1,0.18721410000034666,RSVPLG01,0.94,2023-09-12-22:25:04,11900,1,Experiment,2023-09-12_15h40.50.216,
6,local,global,7,15,10,190,5,,,196,exp,ZNSHSEZEFTXFTNU,SYFLUENTUEZSNYF,4,L,X,lL,yY,l,1,0.4430219000005309,y,1,0.10688139999911073,RSVPLG01,0.94,2023-09-12-22:25:04,11900,1,Experiment,2023-09-12_15h40.50.216,
3,local,local,7,15,11,191,2,,,197,exp,ZFNSNYZFESEHLLH,ELFNTUTHEHZSXFZ,6,U,X,uU,yY,u,1,0.9441765999999916,n,0,0.16988469999887457,RSVPLG01,0.94,2023-09-12-22:25:04,11900,1,Experiment,2023-09-12_15h40.50.216,
10,global,global,0,16,0,192,9,,,198,exp,SYFENZUYTSFLUNL,NFSHZYNULTZUTYF,4,E,absent,eE,nN,f,0,0.6232237999993231,y,0,0.4906541999989713,RSVPLG01,0.94,2023-09-12-22:25:04,11900,1,Experiment,2023-09-12_15h40.50.216,
7,global,local,0,16,1,193,6,,,199,exp,SNLFUYTZFZTHNHL,ULZTSENHHTFSLFN,6,Y,absent,yY,nN,y,1,0.8112868999996863,n,1,0.10776979999900504,RSVPLG01,0.94,2023-09-12-22:25:04,11900,1,Experiment,2023-09-12_15h40.50.216,
1,local,local,0,16,2,194,0,,,200,exp,UFSNEFLYYHZNLZS,NUUHTFLYNFSSZYL,5,T,absent,tT,nN,t,1,0.6046911999983422,n,1,0.0889870000009978,RSVPLG01,0.94,2023-09-12-22:25:04,11900,1,Experiment,2023-09-12_15h40.50.216,
12,global,global,7,16,3,195,11,,,201,exp,YTTNYUNLFZSSXFZ,TFSLSEFNYNLZHYZ,6,U,X,uU,yY,u,1,0.8482807000000321,y,1,0.02527919999920414,RSVPLG01,0.94,2023-09-12-22:25:04,11900,1,Experiment,2023-09-12_15h40.50.216,
1,local,local,0,16,4,196,0,,,202,exp,FNSTYLNEYUFSZUT,ZSENUHYYESFUFNT,6,H,absent,hH,nN,h,1,0.7696507000000565,n,1,0.07518989999880432,RSVPLG01,0.94,2023-09-12-22:25:04,11900,1,Experiment,2023-09-12_15h40.50.216,
6,local,global,7,16,5,197,5,,,203,exp,ENULHZSFSNXZUET,SZNYNUSUTFETZEH,4,Y,X,yY,yY,y,1,0.18577759999971022,y,1,0.00992739999855985,RSVPLG01,0.94,2023-09-12-22:25:04,11900,1,Experiment,2023-09-12_15h40.50.216,
1,local,local,0,16,6,198,0,,,204,exp,HUYFEYUSHZTNSNT,HTUHLZSFFSNNTYZ,5,L,absent,lL,nN,l,1,0.9415961999984575,n,1,0.09235960000296473,RSVPLG01,0.94,2023-09-12-22:25:04,11900,1,Experiment,2023-09-12_15h40.50.216,
4,local,global,0,16,7,199,3,,,205,exp,SSEZNYFTNUEHHZF,FHFSHLTNSTEUNUZ,6,L,absent,lL,nN,l,1,0.9832778000018152,n,1,0.08961819999967702,RSVPLG01,0.94,2023-09-12-22:25:04,11900,1,Experiment,2023-09-12_15h40.50.216,
2,local,local,3,16,8,200,1,,,206,exp,LUZNFHZLSTSTFHY,UTTEYFXULZLYSZS,4,E,X,eE,yY,f,0,0.8587756999986595,n,0,0.05890259999796399,RSVPLG01,0.94,2023-09-12-22:25:04,11900,1,Experiment,2023-09-12_15h40.50.216,
10,global,global,0,16,9,201,9,,,207,exp,TLYNHUZTFYSFLZH,ULFEYSLHZFZYTHU,4,N,absent,nN,nN,e,0,0.25929489999907673,y,0,0.298413000000437,RSVPLG01,0.94,2023-09-12-22:25:04,11900,1,Experiment,2023-09-12_15h40.50.216,
2,local,local,3,16,10,202,1,,,208,exp,LHEYESLZTHZTYFF,HYFZNUFLXLTEHEZ,6,U,X,uU,yY,s,0,0.2702753000012308,y,1,0.0427601000010327,RSVPLG01,0.94,2023-09-12-22:25:04,11900,1,Experiment,2023-09-12_15h40.50.216,
3,local,local,7,16,11,203,2,,,209,exp,NHEZZSLLEUTHFTU,EHFHNYZFZTTEXLU,6,Y,X,yY,yY,h,0,0.32225869999820134,y,1,0.07182749999992666,RSVPLG01,0.94,2023-09-12-22:25:04,11900,1,Experiment,2023-09-12_15h40.50.216,
1,local,local,0,17,0,204,0,,,210,exp,HZESYNLTNSLZFHT,TEETUHNSZSFLHFL,5,U,absent,uU,nN,u,1,1.0556843000013032,n,1,0.14354240000102436,RSVPLG01,0.94,2023-09-12-22:25:04,11900,1,Experiment,2023-09-12_15h40.50.216,
8,global,local,3,17,1,205,7,,,211,exp,YSZHEFYLEUHSZTU,LSHTENTYXUEHZSU,6,F,X,fF,yY,f,1,0.7623573999990185,n,0,0.09075070000108099,RSVPLG01,0.94,2023-09-12-22:25:04,11900,1,Experiment,2023-09-12_15h40.50.216,
4,local,global,0,17,2,206,3,,,212,exp,LHFSTLZYNYUSNZU,YFZZEHSLLNNYHSU,5,E,absent,eE,nN,e,1,0.3353657000006933,n,1,0.08891999999832478,RSVPLG01,0.94,2023-09-12-22:25:04,11900,1,Experiment,2023-09-12_15h40.50.216,
12,global,global,7,17,3,207,11,,,213,exp,FYTLHENENTUXZLU,YFTNSLFEETZUYNU,5,H,X,hH,yY,h,1,0.5643612999992911,y,1,0.027941199998167576,RSVPLG01,0.94,2023-09-12-22:25:04,11900,1,Experiment,2023-09-12_15h40.50.216,
9,global,local,7,17,4,208,8,,,214,exp,FYHZTNUEELHNTFL,FNLSLHYUNEXFEYU,4,Z,X,zZ,yY,y,0,0.7403948999999557,n,0,0.07923270000173943,RSVPLG01,0.94,2023-09-12-22:25:04,11900,1,Experiment,2023-09-12_15h40.50.216,
7,global,local,0,17,5,209,6,,,215,exp,HNYSFUSNTUZTLYH,YUNZEHULZLSTSHT,5,F,absent,fF,nN,f,1,0.8912129000018467,n,1,0.05840609999722801,RSVPLG01,0.94,2023-09-12-22:25:04,11900,1,Experiment,2023-09-12_15h40.50.216,
11,global,global,3,17,6,210,10,,,216,exp,TYSFNZYXEFZTHSU,FUHULZZEHYTSYST,5,N,X,nN,yY,l,0,0.46009369999956107,y,1,0.1389978000006522,RSVPLG01,0.94,2023-09-12-22:25:04,11900,1,Experiment,2023-09-12_15h40.50.216,
10,global,global,0,17,7,211,9,,,217,exp,ZSYZUNUTLTYFSEE,SZSYFHLFUTEETUL,6,N,absent,nN,nN,h,0,0.28178420000040205,n,1,0.057413200000155484,RSVPLG01,0.94,2023-09-12-22:25:04,11900,1,Experiment,2023-09-12_15h40.50.216,
11,global,global,3,17,8,212,10,,,218,exp,YEFHNZNFXLLSYEH,LLFSYTNUEHSFHYN,6,Z,X,zZ,yY,z,1,0.8655247999995481,y,1,0.07260679999671993,RSVPLG01,0.94,2023-09-12-22:25:04,11900,1,Experiment,2023-09-12_15h40.50.216,
5,local,global,3,17,9,213,4,,,219,exp,YNFYUFNXZETSSZL,ZFSLHETYNSYTLEZ,5,H,X,hH,yY,h,1,0.66693309999755,y,1,0.0284120999967854,RSVPLG01,0.94,2023-09-12-22:25:04,11900,1,Experiment,2023-09-12_15h40.50.216,
3,local,local,7,17,10,214,2,,,220,exp,ZTFSZYNUETLULSF,UEFFSHNNLZZSXUL,6,H,X,hH,yY,h,1,0.6298787999985507,n,0,0.6669470999986515,RSVPLG01,0.94,2023-09-12-22:25:04,11900,1,Experiment,2023-09-12_15h40.50.216,
1,local,local,0,17,11,215,0,,,221,exp,SNYYTFLZFEZNESL,NUSFHEUYLELZNSY,5,H,absent,hH,nN,h,1,0.6882216000012704,n,1,0.09192939999775263,RSVPLG01,0.94,2023-09-12-22:25:04,11900,1,Experiment,2023-09-12_15h40.50.216,
5,local,global,3,18,0,216,4,,,222,exp,ZTLYSUYNXHFHSLZ,YFLFSEZTLHYHZNN,6,E,X,eE,yY,e,1,0.6846561000020301,n,0,0.08858120000149938,RSVPLG01,0.94,2023-09-12-22:25:04,11900,1,Experiment,2023-09-12_15h40.50.216,
1,local,local,0,18,1,217,0,,,223,exp,LEFNEHUYNFZYUZT,YZTYUSTNNELFEUF,6,S,absent,sS,nN,s,1,0.768992100001924,n,1,0.10755609999978333,RSVPLG01,0.94,2023-09-12-22:25:04,11900,1,Experiment,2023-09-12_15h40.50.216,
9,global,local,7,18,2,218,8,,,224,exp,FNNFSULLTHETESH,FLZEZYTSLSENXHH,6,U,X,uU,yY,u,1,0.5220479999989038,y,1,0.0744922999983828,RSVPLG01,0.94,2023-09-12-22:25:04,11900,1,Experiment,2023-09-12_15h40.50.216,
6,local,global,7,18,3,219,5,,,225,exp,ETNEFZLYHZSXYLT,TLYEUYLZSETNHZS,5,U,X,uU,yY,u,1,0.4598307999985991,y,1,0.009458900000026915,RSVPLG01,0.94,2023-09-12-22:25:04,11900,1,Experiment,2023-09-12_15h40.50.216,
2,local,local,3,18,4,220,1,,,226,exp,HETLFSTSYFZUZHY,TSSNUFXYHEEYFTH,4,N,X,nN,yY,s,0,0.27150999999867054,n,0,0.23551850000148988,RSVPLG01,0.94,2023-09-12-22:25:04,11900,1,Experiment,2023-09-12_15h40.50.216,
4,local,global,0,18,5,221,3,,,227,exp,ZNFUEYSLEFHULZS,HZLUUTZLEFNENSS,6,T,absent,tT,nN,t,1,0.4706289999994624,y,0,0.010266799999953946,RSVPLG01,0.94,2023-09-12-22:25:04,11900,1,Experiment,2023-09-12_15h40.50.216,
1,local,local,0,18,6,222,0,,,228,exp,TFETNYULZYFLZUH,ZLZFSHYFETUTUHE,5,S,absent,sS,nN,s,1,0.10798960000101943,y,0,0.6677318000001833,RSVPLG01,0.94,2023-09-12-22:25:04,11900,1,Experiment,2023-09-12_15h40.50.216,
4,local,global,0,18,7,223,3,,,229,exp,ETFNLHYSNUSYEHT,TSNUZNYUHSHYFET,5,Z,absent,zZ,nN,z,1,0.5015232000005199,n,1,0.026898699998127995,RSVPLG01,0.94,2023-09-12-22:25:04,11900,1,Experiment,2023-09-12_15h40.50.216,
6,local,global,7,18,8,224,5,,,230,exp,YUYLFHUSNLNXTTS,YSHSZUHYNLTNELU,5,Z,X,zZ,yY,s,0,0.755231700000877,y,1,0.5699433999980101,RSVPLG01,0.94,2023-09-12-22:25:04,11900,1,Experiment,2023-09-12_15h40.50.216,
7,global,local,0,18,9,225,6,,,231,exp,FLESLYFEZTUTUNN,FNFHEYZTNLZLYUT,4,S,absent,sS,nN,h,0,0.05781869999918854,y,0,1.0226908999975421,RSVPLG01,0.94,2023-09-12-22:25:04,11900,1,Experiment,2023-09-12_15h40.50.216,
2,local,local,3,18,10,226,1,,,232,exp,NNLSFFEYYZZLEUH,UHNTYZXLULZNEHY,4,T,X,tT,yY,t,1,0.6338710999989416,n,0,0.08939879999888944,RSVPLG01,0.94,2023-09-12-22:25:04,11900,1,Experiment,2023-09-12_15h40.50.216,
1,local,local,0,18,11,227,0,,,233,exp,UTSHNEFFYSZUNYE,ZSFLFESTENYZYNU,4,L,absent,lL,nN,h,0,2.4532266999995045,y,0,0.34620840000206954,RSVPLG01,0.94,2023-09-12-22:25:04,11900,1,Experiment,2023-09-12_15h40.50.216,
1,local,local,0,19,0,228,0,,,234,exp,UZNYNSTTYLLUZHE,UNYTHFNETZHEZLL,6,F,absent,fF,nN,f,1,0.2518772000003082,n,1,0.07352800000080606,RSVPLG01,0.94,2023-09-12-22:25:04,11900,1,Experiment,2023-09-12_15h40.50.216,
1,local,local,0,19,1,229,0,,,235,exp,EHZNESZUTLHSTUY,HUSFYEZZLTELUSY,4,F,absent,fF,nN,f,1,0.8269710999993549,n,1,0.3806456000020262,RSVPLG01,0.94,2023-09-12-22:25:04,11900,1,Experiment,2023-09-12_15h40.50.216,
12,global,global,7,19,2,230,11,,,236,exp,HTENFYZNHZTLXEU,NLLZHSHTNEUFZEF,6,Y,X,yY,yY,y,1,0.6281054000028234,y,1,0.10633799999777693,RSVPLG01,0.94,2023-09-12-22:25:04,11900,1,Experiment,2023-09-12_15h40.50.216,
6,local,global,7,19,3,231,5,,,237,exp,YLZHSUYNHZFEXNE,NHSFZTHYZLFLNYS,6,T,X,tT,yY,t,1,0.7559751000007964,y,1,0.2173599000016111,RSVPLG01,0.94,2023-09-12-22:25:04,11900,1,Experiment,2023-09-12_15h40.50.216,
9,global,local,7,19,4,232,8,,,238,exp,LTZFSELUNNYEYFZ,UTYEHLFNTFZXUNY,5,S,X,sS,yY,s,1,0.3848336000010022,n,0,0.12227210000128252,RSVPLG01,0.94,2023-09-12-22:25:04,11900,1,Experiment,2023-09-12_15h40.50.216,
9,global,local,7,19,5,233,8,,,239,exp,LTFESUFZNNHLHTZ,NNHTEYLSLESZXZF,6,U,X,uU,yY,u,1,1.162419399999635,y,1,0.3160494000003382,RSVPLG01,0.94,2023-09-12-22:25:04,11900,1,Experiment,2023-09-12_15h40.50.216,
6,local,global,7,19,6,234,5,,,240,exp,ESEUNSYZHYXLTHN,LSZFYSNNTZEYLEH,4,F,X,fF,yY,f,1,0.45180880000043544,y,1,0.02562730000136071,RSVPLG01,0.94,2023-09-12-22:25:04,11900,1,Experiment,2023-09-12_15h40.50.216,
11,global,global,3,19,7,235,10,,,241,exp,FUSTUZLTXELESHF,UENSSYLTHEFNHFU,6,Z,X,zZ,yY,e,0,2.8710262999993574,y,1,1.7435143000002427,RSVPLG01,0.94,2023-09-12-22:25:04,11900,1,Experiment,2023-09-12_15h40.50.216,
3,local,local,7,19,8,236,2,,,242,exp,ZNYELULFTHYFHZN,YFUSHLFHZNXYUZN,4,S,X,sS,yY,s,1,0.28420790000018314,n,0,0.29863380000097095,RSVPLG01,0.94,2023-09-12-22:25:04,11900,1,Experiment,2023-09-12_15h40.50.216,
2,local,local,3,19,9,237,1,,,243,exp,ZNFYLUNYLESETFS,TSZNLHSNXFFYYLT,6,H,X,hH,yY,h,1,0.6210834000012255,y,1,0.10610729999825708,RSVPLG01,0.94,2023-09-12-22:25:04,11900,1,Experiment,2023-09-12_15h40.50.216,
1,local,local,0,19,10,238,0,,,244,exp,SLEFZTUEFHHYYUZ,HZFYLNEZHSUFUYE,6,N,absent,nN,nN,n,1,0.3231974000009359,n,1,0.010337499999877764,RSVPLG01,0.94,2023-09-12-22:25:04,11900,1,Experiment,2023-09-12_15h40.50.216,
10,global,global,0,19,11,239,9,,,245,exp,LHLNHFZTYSTEYSF,ZLHUFZEETYTSLFY,4,N,absent,nN,nN,h,0,0.385061200002383,n,1,0.04638150000027963,RSVPLG01,0.94,2023-09-12-22:25:04,11900,1,Experiment,2023-09-12_15h40.50.216,
