row,t1_level,t2_level,t2_lag,.thisRepN,.thisTrialN,.thisN,.thisIndex,thisRow.t,notes,trial,trial_type,global_letters,local_letters,t1_pos,t1,t2,t1_corr,t2_corr,t1_resp,t1_acc,t1_rt,t2_resp,t2_acc,t2_rt,exp,ver,mod-utc,sub,sess,blocktyp,datetime
2,local,local,3,0,0,0,1,,,1,warmup,ELZFNFTZYUETHHL,UFUHSHLXTYTELEY,5,S,X,sS,yY,n,0,4.4831843,n,0,3.2310497,RSVPLG01,0.94,2023-09-12-22:23:43,917,1,Experiment,2023-09-12_15h44.45.586
11,global,global,3,0,1,1,10,,,2,warmup,FYNUEHEUXSLLZFZ,ESLYETUSLUNFZFN,6,H,X,hH,yY,h,1,1.2498565,y,1,0.6498948,RSVPLG01,0.94,2023-09-12-22:23:43,917,1,Experiment,2023-09-12_15h44.45.586
5,local,global,3,0,2,2,4,,,3,warmup,UZSHUNLLXYSFHEE,FHYZHTZFEUSLULE,6,T,X,tT,yY,n,0,3.9466086,n,0,0.2816279,RSVPLG01,0.94,2023-09-12-22:23:43,917,1,Experiment,2023-09-12_15h44.45.586
7,global,local,0,0,3,3,6,,,4,warmup,FLNZTETSYLHNFYS,HELUTFTSELHNSYY,4,Z,absent,zZ,nN,z,1,2.0187906,n,1,1.7215737,RSVPLG01,0.94,2023-09-12-22:23:43,917,1,Experiment,2023-09-12_15h44.45.586
1,local,local,0,0,4,4,0,,,5,warmup,NFEYUHLTFSYSNTH,YSHEZTSLTFYFHEL,5,Z,absent,zZ,nN,h,0,2.4029533,y,0,0.264344,RSVPLG01,0.94,2023-09-12-22:23:43,917,1,Experiment,2023-09-12_15h44.45.586
8,global,local,3,0,0,0,7,,,6,exp,NYNFZUHLTEYZHLT,ZTLSYEXTHNNUEZH,4,F,X,fF,yY,f,1,1.6552366,n,0,0.6333137,RSVPLG01,0.94,2023-09-12-22:23:43,917,1,Experiment,2023-09-12_15h44.45.586
2,local,local,3,0,1,1,1,,,7,exp,FHEZYNETSFUSYUT,TZTUSLZEXHHFFEU,6,L,X,lL,yY,n,0,1.2329367,n,0,0.0091144,RSVPLG01,0.94,2023-09-12-22:23:43,917,1,Experiment,2023-09-12_15h44.45.586
8,global,local,3,0,2,2,7,,,8,exp,FNHTUZYSSNFYUZL,LUZENYXUSYHLNSH,4,T,X,tT,yY,t,1,1.0021702,n,0,0.9105434,RSVPLG01,0.94,2023-09-12-22:23:43,917,1,Experiment,2023-09-12_15h44.45.586
8,global,local,3,0,3,3,7,,,9,exp,STHNTEEUZZFSYUF,TFELSSXZFHEUUTY,4,N,X,nN,yY,n,1,1.0531129,y,1,0.425266,RSVPLG01,0.94,2023-09-12-22:23:43,917,1,Experiment,2023-09-12_15h44.45.586
11,global,global,3,0,4,4,10,,,10,exp,SLHNLZXEHTSFETZ,EFTYHHSSLUUTLFE,4,N,X,nN,yY,n,1,0.8730858,n,0,0.2325063,RSVPLG01,0.94,2023-09-12-22:23:43,917,1,Experiment,2023-09-12_15h44.45.586
9,global,local,7,0,5,5,8,,,11,exp,ZZFTEYFLTLENHNH,EFNZLSFTUTLUXHE,6,Y,X,yY,yY,y,1,0.7785798,n,0,0.3465748,RSVPLG01,0.94,2023-09-12-22:23:43,917,1,Experiment,2023-09-12_15h44.45.586
5,local,global,3,0,6,6,4,,,12,exp,LUZSTLUXHYFHEYF,YHFENUZYUSELHSZ,5,N,X,nN,yY,t,0,0.4462732,n,0,0.9366864,RSVPLG01,0.94,2023-09-12-22:23:43,917,1,Experiment,2023-09-12_15h44.45.586
10,global,global,0,0,7,7,9,,,13,exp,TTLZHNNSYESEHLU,HTNFUYETYSHLNUE,4,Z,absent,zZ,nN,z,1,1.385066,n,1,0.421421,RSVPLG01,0.94,2023-09-12-22:23:43,917,1,Experiment,2023-09-12_15h44.45.586
2,local,local,3,0,8,8,1,,,14,exp,NYUZTHZYTSFFUEN,TEFUSLETXUSZZFN,6,L,X,lL,yY,h,0,0.9094539,y,1,1.8341698,RSVPLG01,0.94,2023-09-12-22:23:43,917,1,Experiment,2023-09-12_15h44.45.586
8,global,local,3,0,9,9,7,,,15,exp,EEUZFUYSNTSHZHY,SUNHLETXZEUNZYY,5,F,X,fF,yY,f,1,1.1022578,n,0,0.3529436,RSVPLG01,0.94,2023-09-12-22:23:43,917,1,Experiment,2023-09-12_15h44.45.586
8,global,local,3,0,10,10,7,,,16,exp,SSYETNLFFYNZLTU,FSYHLNXTULZTSFN,4,E,X,eE,yY,e,1,0.4570728,n,0,0.5064884,RSVPLG01,0.94,2023-09-12-22:23:43,917,1,Experiment,2023-09-12_15h44.45.586
12,global,global,7,0,11,11,11,,,17,exp,TLEHUFUZLNYTXNH,TZUEUSNLLYTHEHN,6,F,X,fF,yY,f,1,1.0934885,n,0,0.7051555,RSVPLG01,0.94,2023-09-12-22:23:43,917,1,Experiment,2023-09-12_15h44.45.586
10,global,global,0,1,0,12,9,,,18,exp,UFLNZYELTSSTNUZ,SZNETHUFUFLTLSN,6,Y,absent,yY,nN,y,1,1.008815,n,1,0.0820127,RSVPLG01,0.94,2023-09-12-22:23:43,917,1,Experiment,2023-09-12_15h44.45.586
11,global,global,3,1,1,13,10,,,19,exp,TZEFSZXNETHNYUU,NTHLSHSENTUZEZY,4,F,X,fF,yY,f,1,1.0904957,y,1,1.3679366,RSVPLG01,0.94,2023-09-12-22:23:43,917,1,Experiment,2023-09-12_15h44.45.586
5,local,global,3,1,2,14,4,,,20,exp,LUNEZTNLXUZYEYH,ZLHLNSZEYNHEYFF,6,S,X,sS,yY,s,1,6.5316558,n,0,0.6512265,RSVPLG01,0.94,2023-09-12-22:23:43,917,1,Experiment,2023-09-12_15h44.45.586
1,local,local,0,1,3,15,0,,,21,exp,FUTYNZTHHSFLNLS,TSLNYETUFLHFSHY,6,E,absent,eE,nN,n,0,3.3101636,n,1,0.7011447,RSVPLG01,0.94,2023-09-12-22:23:43,917,1,Experiment,2023-09-12_15h44.45.586
5,local,global,3,1,4,16,4,,,22,exp,EHLFTSEZXTFNHLN,YFNTYUNZTELEFZH,6,U,X,uU,yY,s,0,1.7587294,y,1,0.0596643,RSVPLG01,0.94,2023-09-12-22:23:43,917,1,Experiment,2023-09-12_15h44.45.586
3,local,local,7,1,5,17,2,,,23,exp,FHTZTENNHYFLSSE,ESNUTLELYFXHTSF,4,U,X,uU,yY,z,0,0.3994078,y,1,0.1022151,RSVPLG01,0.94,2023-09-12-22:23:43,917,1,Experiment,2023-09-12_15h44.45.586
9,global,local,7,1,6,18,8,,,24,exp,YZNFHTZUSTSUNYF,SLFYEFYNTZLXTUS,5,H,X,hH,yY,h,1,1.3528645,y,1,0.6588433,RSVPLG01,0.94,2023-09-12-22:23:43,917,1,Experiment,2023-09-12_15h44.45.586
4,local,global,0,1,7,19,3,,,25,exp,YFZSTLYSNNHEFZH,ETHZEUNYFSZHFNT,6,U,absent,uU,nN,l,0,0.2282516,n,1,1.9182736,RSVPLG01,0.94,2023-09-12-22:23:43,917,1,Experiment,2023-09-12_15h44.45.586
8,global,local,3,1,8,20,7,,,26,exp,YHYLHTTSNNEFESZ,TZYUYZXHFNNSETE,4,L,X,lL,yY,l,1,0.7803096,y,1,0.7187498,RSVPLG01,0.94,2023-09-12-22:23:43,917,1,Experiment,2023-09-12_15h44.45.586
1,local,local,0,1,9,21,0,,,27,exp,TZNZFHLSSTFLNYY,YTFFZUSZEELSNTN,6,U,absent,uU,nN,n,0,0.5819378,n,1,0.438601,RSVPLG01,0.94,2023-09-12-22:23:43,917,1,Experiment,2023-09-12_15h44.45.586
8,global,local,3,1,10,22,7,,,28,exp,UENHFSUNZZTHYEY,TUZHFLETXHZYEFN,6,S,X,sS,yY,s,1,1.2518777,y,1,0.316883,RSVPLG01,0.94,2023-09-12-22:23:43,917,1,Experiment,2023-09-12_15h44.45.586
5,local,global,3,1,11,23,4,,,29,exp,LEULHESXNTZTZUN,TZNZFYUSTULYLEE,5,F,X,fF,yY,h,0,2.0074287,y,1,0.7902247,RSVPLG01,0.94,2023-09-12-22:23:43,917,1,Experiment,2023-09-12_15h44.45.586
4,local,global,0,2,0,24,3,,,30,exp,FYNLZSTNYLSTUFE,SYFUHTTNSELELUF,5,H,absent,hH,nN,z,0,0.5022232,n,1,0.308273,RSVPLG01,0.94,2023-09-12-22:23:43,917,1,Experiment,2023-09-12_15h44.45.586
4,local,global,0,2,1,25,3,,,31,exp,ETFLSYYHFEZZHUU,YFSNYUTSEHZZEUH,4,N,absent,nN,nN,l,0,0.8798737,y,0,0.3253771,RSVPLG01,0.94,2023-09-12-22:23:43,917,1,Experiment,2023-09-12_15h44.45.586
5,local,global,3,2,2,26,4,,,32,exp,NTHHFUYLXFSZYNS,LSNHTELNFFZHYZS,6,E,X,eE,yY,u,0,0.5581768,n,0,0.6377317,RSVPLG01,0.94,2023-09-12-22:23:43,917,1,Experiment,2023-09-12_15h44.45.586
9,global,local,7,2,3,27,8,,,33,exp,YFHTUFZUEZNSYHN,EFFLEZHNHSXSUYN,4,T,X,tT,yY,t,1,0.4847879,n,0,0.4199224,RSVPLG01,0.94,2023-09-12-22:23:43,917,1,Experiment,2023-09-12_15h44.45.586
1,local,local,0,2,4,28,0,,,34,exp,HNEYTSENUZFYZFT,THNFELEZTYFNHUU,6,L,absent,lL,nN,s,0,0.7150284,y,0,0.8196578,RSVPLG01,0.94,2023-09-12-22:23:43,917,1,Experiment,2023-09-12_15h44.45.586
2,local,local,3,2,5,29,1,,,35,exp,NSHEFUELZHLYZUS,ESNSTZYXUHLLEHY,5,T,X,tT,yY,f,0,0.9356754,n,0,0.043543,RSVPLG01,0.94,2023-09-12-22:23:43,917,1,Experiment,2023-09-12_15h44.45.586
9,global,local,7,2,6,30,8,,,36,exp,EESUSLYHFYNHLTF,ESHZFYNYTSXEFNH,4,U,X,uU,yY,u,1,1.0639686,y,1,0.8102657,RSVPLG01,0.94,2023-09-12-22:23:43,917,1,Experiment,2023-09-12_15h44.45.586
12,global,global,7,2,7,31,11,,,37,exp,ZFELSNZUENUXTTL,HLNTYFEUHULZTEZ,5,S,X,sS,yY,s,1,2.1396488,y,1,0.7296764,RSVPLG01,0.94,2023-09-12-22:23:43,917,1,Experiment,2023-09-12_15h44.45.586
10,global,global,0,2,8,32,9,,,38,exp,TYNNHTZFSELLESY,LFSYUETEFSZLZNN,5,H,absent,hH,nN,h,1,1.0454684,n,1,0.669912,RSVPLG01,0.94,2023-09-12-22:23:43,917,1,Experiment,2023-09-12_15h44.45.586
12,global,global,7,2,9,33,11,,,39,exp,FLYNTZUSUSENXFE,TUYFUHTNLNYEFSS,6,Z,X,zZ,yY,z,1,2.7925558,y,1,0.6913151,RSVPLG01,0.94,2023-09-12-22:23:43,917,1,Experiment,2023-09-12_15h44.45.586
3,local,local,7,2,10,34,2,,,40,exp,ENEUUZLHTSNHLSY,EHLUYFHESYUNXLS,6,F,X,fF,yY,z,0,0.511761,n,0,0.497294,RSVPLG01,0.94,2023-09-12-22:23:43,917,1,Experiment,2023-09-12_15h44.45.586
4,local,global,0,2,11,35,3,,,41,exp,ZTHNSLZLFHUFEEU,ZHNLYUUFNTHZLET,5,Y,absent,yY,nN,s,0,0.4536711,y,0,1.512248,RSVPLG01,0.94,2023-09-12-22:23:43,917,1,Experiment,2023-09-12_15h44.45.586
6,local,global,7,3,0,36,5,,,42,exp,HFZYZNULUFXSNEE,ZESTFHEULFULSHZ,4,T,X,tT,yY,y,0,0.3621043,n,0,0.649247,RSVPLG01,0.94,2023-09-12-22:23:43,917,1,Experiment,2023-09-12_15h44.45.586
7,global,local,0,3,1,37,6,,,43,exp,UTHENLFULFZZTEH,FHFESTLUTUYLEYH,5,N,absent,nN,nN,n,1,0.5498815,n,1,0.153903,RSVPLG01,0.94,2023-09-12-22:23:43,917,1,Experiment,2023-09-12_15h44.45.586
9,global,local,7,3,2,38,8,,,44,exp,NUHNZSTUTYLYFSH,LHHLEUYSSNTXTUY,5,Z,X,zZ,yY,z,1,0.5712855,n,0,1.1846343,RSVPLG01,0.94,2023-09-12-22:23:43,917,1,Experiment,2023-09-12_15h44.45.586
2,local,local,3,3,3,39,1,,,45,exp,ZSHTNEYUEUYTFFZ,SYTHLTZXEYZFUHU,5,L,X,lL,yY,n,0,0.6697369,n,0,4.5879859,RSVPLG01,0.94,2023-09-12-22:23:43,917,1,Experiment,2023-09-12_15h44.45.586
5,local,global,3,3,4,40,4,,,46,exp,ZFTYNUTEXHNZLYF,LNNFESHYZZLHTTY,6,S,X,sS,yY,u,0,0.777398,y,1,0.7215538,RSVPLG01,0.94,2023-09-12-22:23:43,917,1,Experiment,2023-09-12_15h44.45.586
8,global,local,3,3,5,41,7,,,47,exp,USSHHLZYEZUNFNY,HYUUNTSEXFZYNSH,6,L,X,lL,yY,l,1,1.1075556,n,0,0.4337857,RSVPLG01,0.94,2023-09-12-22:23:43,917,1,Experiment,2023-09-12_15h44.45.586
9,global,local,7,3,6,42,8,,,48,exp,EFTZUNYLETHFZLN,LLFNSTYNHYHXTZZ,5,U,X,uU,yY,u,1,0.4183458,y,1,1.3369129,RSVPLG01,0.94,2023-09-12-22:23:43,917,1,Experiment,2023-09-12_15h44.45.586
4,local,global,0,3,7,43,3,,,49,exp,TYFNEYHULLUTFZZ,NHTFSUZZHTYUFLL,5,S,absent,sS,nN,e,0,0.8754614,n,1,1.0570251,RSVPLG01,0.94,2023-09-12-22:23:43,917,1,Experiment,2023-09-12_15h44.45.586
3,local,local,7,3,8,44,2,,,50,exp,LSYHTFNYNTUUHLS,SLNHYEZTLUUHXZY,6,E,X,eE,yY,f,0,0.6090088,y,1,0.2939767,RSVPLG01,0.94,2023-09-12-22:23:43,917,1,Experiment,2023-09-12_15h44.45.586
10,global,global,0,3,9,45,9,,,51,exp,HHFYNSNELTFUEUL,LNFYTZEENLTYUFH,6,S,absent,sS,nN,s,1,0.8753275,y,0,0.1674856,RSVPLG01,0.94,2023-09-12-22:23:43,917,1,Experiment,2023-09-12_15h44.45.586
9,global,local,7,3,10,46,8,,,52,exp,NUYHLESZFFZNUHY,FZLFYTUZLHYHXNN,6,E,X,eE,yY,e,1,0.6197689,n,0,0.345739,RSVPLG01,0.94,2023-09-12-22:23:43,917,1,Experiment,2023-09-12_15h44.45.586
12,global,global,7,3,11,47,11,,,53,exp,YYFSTZSEUFZXUHH,YNNHLZSZUFUHEFE,5,T,X,tT,yY,t,1,1.9791439,n,0,0.7058645,RSVPLG01,0.94,2023-09-12-22:23:43,917,1,Experiment,2023-09-12_15h44.45.586
7,global,local,0,4,0,48,6,,,54,exp,YFYNEFUTESLHTHL,HFUZLFYSYUTSELE,4,N,absent,nN,nN,n,1,1.0897557,y,0,0.2965657,RSVPLG01,0.94,2023-09-12-22:23:43,917,1,Experiment,2023-09-12_15h44.45.586
2,local,local,3,4,1,49,1,,,55,exp,NTUSNFLYEUZETSL,YTNUEHYEXSTLNSU,6,H,X,hH,yY,f,0,1.1103681,y,1,0.5207268,RSVPLG01,0.94,2023-09-12-22:23:43,917,1,Experiment,2023-09-12_15h44.45.586
10,global,global,0,4,2,50,9,,,56,exp,UTFYZULZHSLEFES,TTZNLUHFFELUESS,4,Y,absent,yY,nN,y,1,0.3583629,n,1,0.8906955,RSVPLG01,0.94,2023-09-12-22:23:43,917,1,Experiment,2023-09-12_15h44.45.586
6,local,global,7,4,3,51,5,,,57,exp,YYSLTFNZSEZUXLE,LTYSZHLZYSNTENE,6,H,X,hH,yY,f,0,1.4653315,y,1,1.2493637,RSVPLG01,0.94,2023-09-12-22:23:43,917,1,Experiment,2023-09-12_15h44.45.586
9,global,local,7,4,4,52,8,,,58,exp,SFSZHEEUFNZUYTN,TSYNLZZSNFUXETE,5,H,X,hH,yY,h,1,0.8026723,y,1,0.4262016,RSVPLG01,0.94,2023-09-12-22:23:43,917,1,Experiment,2023-09-12_15h44.45.586
11,global,global,3,4,5,53,10,,,59,exp,UEUETHHXZZNFSNY,NZSFLHYUUFEEYNZ,5,T,X,tT,yY,t,1,0.6962242,y,1,0.5947057,RSVPLG01,0.94,2023-09-12-22:23:43,917,1,Experiment,2023-09-12_15h44.45.586
2,local,local,3,4,6,54,1,,,60,exp,SNYLTLZFUSNEFZU,ZESNHUFXEZYLFNL,5,H,X,hH,yY,t,0,0.223581,y,1,1.2815651,RSVPLG01,0.94,2023-09-12-22:23:43,917,1,Experiment,2023-09-12_15h44.45.586
2,local,local,3,4,7,55,1,,,61,exp,HNSLTEHFYFSUYTN,HHNSSZTUXFYLYTN,6,Z,X,zZ,yY,e,0,1.9133558,y,1,0.8012735,RSVPLG01,0.94,2023-09-12-22:23:43,917,1,Experiment,2023-09-12_15h44.45.586
7,global,local,0,4,8,56,6,,,62,exp,NLTSHTYUHUEEFLY,UUFZNNYELHYHFTT,4,S,absent,sS,nN,s,1,1.427973,y,0,2.2649906,RSVPLG01,0.94,2023-09-12-22:23:43,917,1,Experiment,2023-09-12_15h44.45.586
1,local,local,0,4,9,57,0,,,63,exp,LEYHHZFUSFTLUST,TEHSTNYELFULYHS,6,N,absent,nN,nN,z,0,0.4315013,n,1,0.5542615,RSVPLG01,0.94,2023-09-12-22:23:43,917,1,Experiment,2023-09-12_15h44.45.586
10,global,global,0,4,10,58,9,,,64,exp,TLSUEZNYTYUHLSN,YULTFTZSZUHNYLN,5,E,absent,eE,nN,e,1,0.7139154,n,1,0.2492688,RSVPLG01,0.94,2023-09-12-22:23:43,917,1,Experiment,2023-09-12_15h44.45.586
1,local,local,0,4,11,59,0,,,65,exp,ZTYZFNHYTSUUEHS,ZYHTLZUNNTSYESE,5,L,absent,lL,nN,f,0,0.3403907,n,1,3.108892,RSVPLG01,0.94,2023-09-12-22:23:43,917,1,Experiment,2023-09-12_15h44.45.586
8,global,local,3,5,0,60,7,,,66,exp,NULTESFLFHNZSTZ,FFSTYSUXZZHNLHU,5,E,X,eE,yY,e,1,0.4960223,y,1,1.4151119,RSVPLG01,0.94,2023-09-12-22:23:43,917,1,Experiment,2023-09-12_15h44.45.586
7,global,local,0,5,1,61,6,,,67,exp,SUEZLLUTHHNSNET,EHNYTEFUHSULFLN,4,Z,absent,zZ,nN,z,1,0.6829218,n,1,0.4994814,RSVPLG01,0.94,2023-09-12-22:23:43,917,1,Experiment,2023-09-12_15h44.45.586
6,local,global,7,5,2,62,5,,,68,exp,YTEFUFTZSSNXEYZ,ENTFLYEZFSZHSHT,5,L,X,lL,yY,f,0,0.897882,n,0,1.0745498,RSVPLG01,0.94,2023-09-12-22:23:43,917,1,Experiment,2023-09-12_15h44.45.586
12,global,global,7,5,3,63,11,,,69,exp,TSLZEFSUNHTLXHN,ESUSTYTNZZLLEUH,6,F,X,fF,yY,f,1,0.1965761,y,1,1.6658688,RSVPLG01,0.94,2023-09-12-22:23:43,917,1,Experiment,2023-09-12_15h44.45.586
5,local,global,3,5,4,64,4,,,70,exp,FHLYUFXHNZTLSUZ,FFTESULNTNUSHHL,4,E,X,eE,yY,y,0,1.1321264,n,0,0.9455359,RSVPLG01,0.94,2023-09-12-22:23:43,917,1,Experiment,2023-09-12_15h44.45.586
11,global,global,3,5,5,65,10,,,71,exp,SFLZUNXSFHUYYNH,FUNENYTHLHLSYTS,4,Z,X,zZ,yY,n,0,26.0911136,n,0,0.4213317,RSVPLG01,0.94,2023-09-12-22:23:43,917,1,Experiment,2023-09-12_15h44.45.586
6,local,global,7,5,6,66,5,,,72,exp,TYLSLHNFTFXYUNU,TNEZLFNULEYHHUT,4,Z,X,zZ,yY,t,0,1.4959005,y,1,0.4346934,RSVPLG01,0.94,2023-09-12-22:23:43,917,1,Experiment,2023-09-12_15h44.45.586
8,global,local,3,5,7,67,7,,,73,exp,NFNTZSULSFTEUYY,ENSUHYTXTFENULL,5,Z,X,zZ,yY,y,0,0.7348205,n,0,1.7534023,RSVPLG01,0.94,2023-09-12-22:23:43,917,1,Experiment,2023-09-12_15h44.45.586
10,global,global,0,5,8,68,9,,,74,exp,FSYELZETNFNTSUY,SESNHZYTFTYEFUU,5,L,absent,lL,nN,l,1,0.8578898,n,1,1.0970988,RSVPLG01,0.94,2023-09-12-22:23:43,917,1,Experiment,2023-09-12_15h44.45.586
2,local,local,3,5,9,69,1,,,75,exp,NYYZLEHHFLUNTFT,YNUFYSZFXTUHHTN,6,S,X,sS,yY,e,0,1.7120959,n,0,0.3062707,RSVPLG01,0.94,2023-09-12-22:23:43,917,1,Experiment,2023-09-12_15h44.45.586
9,global,local,7,5,10,70,8,,,76,exp,ULNNFSLEUHTYHYS,UYNLZNTHEEYXTLS,5,F,X,fF,yY,f,1,0.0060528,n,0,0.384871,RSVPLG01,0.94,2023-09-12-22:23:43,917,1,Experiment,2023-09-12_15h44.45.586
12,global,global,7,5,11,71,11,,,77,exp,TEULYSEHLHFTXFN,FEYYNZULHNETTLH,6,S,X,sS,yY,s,1,0.1587414,y,1,1.1552324,RSVPLG01,0.94,2023-09-12-22:23:43,917,1,Experiment,2023-09-12_15h44.45.586
6,local,global,7,6,0,72,5,,,78,exp,UHNYZFTLYZHNXUE,UYNLYSTHTZNZUEL,6,S,X,sS,yY,f,0,0.5519529,n,0,3.9223349,RSVPLG01,0.94,2023-09-12-22:23:43,917,1,Experiment,2023-09-12_15h44.45.586
12,global,global,7,6,1,73,11,,,79,exp,YTFUENYLZUZXLSN,ZUYNHFSFTSTLZUL,5,E,X,eE,yY,n,0,1.4195307,n,0,0.4977636,RSVPLG01,0.94,2023-09-12-22:23:43,917,1,Experiment,2023-09-12_15h44.45.586
10,global,global,0,6,2,74,9,,,80,exp,TSZNELFTSLYFHZY,FEEULHTTHSLFYYZ,4,N,absent,nN,nN,n,1,1.0107445,y,0,1.1448531,RSVPLG01,0.94,2023-09-12-22:23:43,917,1,Experiment,2023-09-12_15h44.45.586
2,local,local,3,6,3,75,1,,,81,exp,TSNYTHZHLUZSNUE,HETFSLXZHLTNZUU,4,F,X,fF,yY,y,0,1.4201393,n,0,3.7781484,RSVPLG01,0.94,2023-09-12-22:23:43,917,1,Experiment,2023-09-12_15h44.45.586
4,local,global,0,6,4,76,3,,,82,exp,UYUTFEZSSNNTFHY,USZNHLYNUSHFFTT,6,L,absent,lL,nN,y,0,33.6757706,n,1,1.2103442,RSVPLG01,0.94,2023-09-12-22:23:43,917,1,Experiment,2023-09-12_15h44.45.586
6,local,global,7,6,5,77,5,,,83,exp,HUFTZLZEHEXNSLN,HNZYZELLEFUSUSN,4,Y,X,yY,yY,y,1,0.0065172,n,0,0.9779868,RSVPLG01,0.94,2023-09-12-22:23:43,917,1,Experiment,2023-09-12_15h44.45.586
4,local,global,0,6,6,78,3,,,84,exp,LSTYSUENZZTNLHE,UULFNHLTNSTHEEZ,4,F,absent,fF,nN,y,0,2.7084094,n,1,1.1697117,RSVPLG01,0.94,2023-09-12-22:23:43,917,1,Experiment,2023-09-12_15h44.45.586
3,local,local,7,6,7,79,2,,,85,exp,UNEFYZTZSSENULL,FLUNHEFUSSEXNLZ,5,H,X,hH,yY,y,0,0.306584,n,0,0.9577562,RSVPLG01,0.94,2023-09-12-22:23:43,917,1,Experiment,2023-09-12_15h44.45.586
1,local,local,0,6,8,80,0,,,86,exp,LLHYFYSSETUUHNE,ULSLZNYSEHTTNHY,5,Z,absent,zZ,nN,y,0,0.2000025,n,1,1.3230894,RSVPLG01,0.94,2023-09-12-22:23:43,917,1,Experiment,2023-09-12_15h44.45.586
2,local,local,3,6,9,81,1,,,87,exp,HUFYNZLEEFLHSSU,FLSLUTNYXEEYHSN,6,T,X,tT,yY,z,0,0.5516048,n,0,0.86535,RSVPLG01,0.94,2023-09-12-22:23:43,917,1,Experiment,2023-09-12_15h44.45.586
11,global,global,3,6,10,82,10,,,88,exp,NTFSYEXLZLYETZH,ZNFUYEZTNHYLHTL,4,S,X,sS,yY,s,1,0.9970243,y,1,0.5253724,RSVPLG01,0.94,2023-09-12-22:23:43,917,1,Experiment,2023-09-12_15h44.45.586
9,global,local,7,6,11,83,8,,,89,exp,HTUZEENNTSFFSYU,FFELSUNTTHXEYUS,4,Z,X,zZ,yY,y,0,1.6052517,y,1,0.8498718,RSVPLG01,0.94,2023-09-12-22:23:43,917,1,Experiment,2023-09-12_15h44.45.586
5,local,global,3,7,0,84,4,,,90,exp,YLLFFZESXTHSEHT,YFFTNUYTHHESENL,6,U,X,uU,yY,z,0,1.007854,y,1,1.3530799,RSVPLG01,0.94,2023-09-12-22:23:43,917,1,Experiment,2023-09-12_15h44.45.586
11,global,global,3,7,1,85,10,,,91,exp,FSUYTHXZZFTULEE,EUSNZUZTHTLSELF,4,Y,X,yY,yY,n,0,0.5741779,y,1,0.4886441,RSVPLG01,0.94,2023-09-12-22:23:43,917,1,Experiment,2023-09-12_15h44.45.586
6,local,global,7,7,2,86,5,,,92,exp,TYHNYSNZLHFUXZF,LHLYFEUTHZNTYZU,6,E,X,eE,yY,y,0,1.0965534,y,1,0.6416151,RSVPLG01,0.94,2023-09-12-22:23:43,917,1,Experiment,2023-09-12_15h44.45.586
12,global,global,7,7,3,87,11,,,93,exp,NTUZLSFFHTNLXUZ,ZTFUEYLHNNEFZLH,6,S,X,sS,yY,s,1,0.6862251,n,0,0.4103842,RSVPLG01,0.94,2023-09-12-22:23:43,917,1,Experiment,2023-09-12_15h44.45.586
1,local,local,0,7,4,88,0,,,94,exp,YYTLENZTFZUEHLF,ETTUHSYYLZLEUHF,6,S,absent,sS,nN,n,0,0.3489652,y,0,0.2823006,RSVPLG01,0.94,2023-09-12-22:23:43,917,1,Experiment,2023-09-12_15h44.45.586
12,global,global,7,7,5,89,11,,,95,exp,TZUHHLYYSEZSXFU,SEUFHNZTETSYYFU,6,L,X,lL,yY,l,1,0.4235772,y,1,1.913598,RSVPLG01,0.94,2023-09-12-22:23:43,917,1,Experiment,2023-09-12_15h44.45.586
1,local,local,0,7,6,90,0,,,96,exp,EYTHHNTUFSLFYSE,SLFHEZUHUYTYEFS,6,Z,absent,zZ,nN,n,0,1.0516856,n,1,0.2256108,RSVPLG01,0.94,2023-09-12-22:23:43,917,1,Experiment,2023-09-12_15h44.45.586
5,local,global,3,7,7,91,4,,,97,exp,ETHYFLNNXZUEZFY,ZTFTESFUUNNYEHZ,6,S,X,sS,yY,l,0,0.3960608,n,0,1.1537567,RSVPLG01,0.94,2023-09-12-22:23:43,917,1,Experiment,2023-09-12_15h44.45.586
12,global,global,7,7,8,92,11,,,98,exp,FSFULUEYHNSXTHT,NFNEZHFSSHTYUEU,5,L,X,lL,yY,l,1,0.4657147,n,0,1.4728085,RSVPLG01,0.94,2023-09-12-22:23:43,917,1,Experiment,2023-09-12_15h44.45.586
11,global,global,3,7,9,93,10,,,99,exp,ESHTHSXLEZYNZUL,NHUFHESYNZZSLUY,4,T,X,tT,yY,t,1,0.7474612,n,0,0.4660436,RSVPLG01,0.94,2023-09-12-22:23:43,917,1,Experiment,2023-09-12_15h44.45.586
9,global,local,7,7,10,94,8,,,100,exp,SHYNTFLLFSTZEEY,EEZUYSHFSYXHTLL,4,N,X,nN,yY,y,0,1.1638934,n,0,0.3298507,RSVPLG01,0.94,2023-09-12-22:23:43,917,1,Experiment,2023-09-12_15h44.45.586
7,global,local,0,7,11,95,6,,,101,exp,FLUFEZYUSSENNTT,TNUYSHFEYTLFESN,6,Z,absent,zZ,nN,n,0,1.1190063,n,1,0.5862015,RSVPLG01,0.94,2023-09-12-22:23:43,917,1,Experiment,2023-09-12_15h44.45.586
10,global,global,0,8,0,96,9,,,102,exp,LEZTSHYLUZYHENN,HEEUFZNLLYNHTYU,5,S,absent,sS,nN,s,1,1.0515947,y,0,1.2907758,RSVPLG01,0.94,2023-09-12-22:23:43,917,1,Experiment,2023-09-12_15h44.45.586
11,global,global,3,8,1,97,10,,,103,exp,NULSZYXUHHLZEFF,FYETZHFLHUUNLYN,4,S,X,sS,yY,s,1,1.0002241,y,1,1.9064143,RSVPLG01,0.94,2023-09-12-22:23:43,917,1,Experiment,2023-09-12_15h44.45.586
7,global,local,0,8,2,98,6,,,104,exp,NFLHLZTFUYTZNYS,TZNEZLLNSYYTUUS,4,H,absent,hH,nN,h,1,0.9117365,n,1,0.585504,RSVPLG01,0.94,2023-09-12-22:23:43,917,1,Experiment,2023-09-12_15h44.45.586
10,global,global,0,8,3,99,9,,,105,exp,STUNLHTSYEYUZEL,SLLFYHUEHTZZYUE,4,N,absent,nN,nN,n,1,0.7478289,n,1,0.0105543,RSVPLG01,0.94,2023-09-12-22:23:43,917,1,Experiment,2023-09-12_15h44.45.586
1,local,local,0,8,4,100,0,,,106,exp,THZFLELSENYYTNH,NZTUSLYYEZSHLHT,4,U,absent,uU,nN,f,0,1.4807104,n,1,0.2436921,RSVPLG01,0.94,2023-09-12-22:23:43,917,1,Experiment,2023-09-12_15h44.45.586
2,local,local,3,8,5,101,1,,,107,exp,TYETZFUENUHFLYH,TELNSYYXFTHLFUU,5,S,X,sS,yY,t,0,2.9356039,y,1,0.1308561,RSVPLG01,0.94,2023-09-12-22:23:43,917,1,Experiment,2023-09-12_15h44.45.586
12,global,global,7,8,6,102,11,,,108,exp,EZLNZTSNHHEUXLS,HSZENFSUEYYLZNL,6,T,X,tT,yY,t,1,1.349755,n,0,0.2905827,RSVPLG01,0.94,2023-09-12-22:23:43,917,1,Experiment,2023-09-12_15h44.45.586
7,global,local,0,8,7,103,6,,,109,exp,ZZNEYNHTSSHEFTU,FFTZLUEZNHEHTSN,5,Y,absent,yY,nN,y,1,1.1315452,n,1,0.4808264,RSVPLG01,0.94,2023-09-12-22:23:43,917,1,Experiment,2023-09-12_15h44.45.586
7,global,local,0,8,8,104,6,,,110,exp,LFTEENLZZTUFYHH,YZTYFSLUTZEHHEU,6,N,absent,nN,nN,n,1,1.3075705,n,1,0.3491377,RSVPLG01,0.94,2023-09-12-22:23:43,917,1,Experiment,2023-09-12_15h44.45.586
7,global,local,0,8,9,105,6,,,111,exp,LNZHESNYZHULEYT,LUTNYFZNYLEHEUT,6,S,absent,sS,nN,s,1,1.5722543,y,0,0.3111703,RSVPLG01,0.94,2023-09-12-22:23:43,917,1,Experiment,2023-09-12_15h44.45.586
4,local,global,0,8,10,106,3,,,112,exp,LFESNLHFYUHZESU,LESETYZFUHULFYS,5,T,absent,tT,nN,n,0,1.2082948,y,0,1.3306283,RSVPLG01,0.94,2023-09-12-22:23:43,917,1,Experiment,2023-09-12_15h44.45.586
3,local,local,7,8,11,107,2,,,113,exp,SFSTUELFHLYHNYU,USEZNLEHYFXHSNL,4,Z,X,zZ,yY,y,0,1.3577077,n,0,0.2668453,RSVPLG01,0.94,2023-09-12-22:23:43,917,1,Experiment,2023-09-12_15h44.45.586
3,local,local,7,9,0,108,2,,,114,exp,YNZTSUZLHNTHLYU,UYYUENZFZLNXHHF,5,E,X,eE,yY,s,0,0.9367079,y,1,0.3547067,RSVPLG01,0.94,2023-09-12-22:23:43,917,1,Experiment,2023-09-12_15h44.45.586
2,local,local,3,9,1,109,1,,,115,exp,HUTLYTSFLSUFHEE,TEFUZESXHLNTUFL,5,Z,X,zZ,yY,y,0,1.2925902,n,0,1.4865952,RSVPLG01,0.94,2023-09-12-22:23:43,917,1,Experiment,2023-09-12_15h44.45.586
7,global,local,0,9,2,110,6,,,116,exp,UYSFNHLUZFYSLEH,FZYETLHHSELYSUU,5,N,absent,nN,nN,n,1,0.468168,y,0,2.9029074,RSVPLG01,0.94,2023-09-12-22:23:43,917,1,Experiment,2023-09-12_15h44.45.586
12,global,global,7,9,3,111,11,,,117,exp,ZEYUZFEYSSXNTNH,FNZLNZHESFTTYSH,4,U,X,uU,yY,n,0,3.0705416,n,0,0.5950174,RSVPLG01,0.94,2023-09-12-22:23:43,917,1,Experiment,2023-09-12_15h44.45.586
7,global,local,0,9,4,112,6,,,118,exp,HLTFNNSUZHZYSUT,HZLEUTLYNSYSNZT,4,F,absent,fF,nN,f,1,0.4198307,y,0,1.1775939,RSVPLG01,0.94,2023-09-12-22:23:43,917,1,Experiment,2023-09-12_15h44.45.586
3,local,local,7,9,5,113,2,,,119,exp,TEUHYSLUZLEFFTY,YLUELNEFYUHZXTH,6,N,X,nN,yY,s,0,1.045623,n,0,0.466491,RSVPLG01,0.94,2023-09-12-22:23:43,917,1,Experiment,2023-09-12_15h44.45.586
2,local,local,3,9,6,114,1,,,120,exp,YZHEHNSFYZFLULU,SELZUTHUXYZFYLH,6,T,X,tT,yY,n,0,0.3587063,y,1,0.7103869,RSVPLG01,0.94,2023-09-12-22:23:43,917,1,Experiment,2023-09-12_15h44.45.586
5,local,global,3,9,7,115,4,,,121,exp,LYNFHSHLXTZEEYF,TYTNZUZNEYEHFFH,6,U,X,uU,yY,s,0,1.1018538,y,1,0.2105218,RSVPLG01,0.94,2023-09-12-22:23:43,917,1,Experiment,2023-09-12_15h44.45.586
10,global,global,0,9,8,116,9,,,122,exp,ZZUTUFYLEELSNNF,UNUHFFYLZZNEELS,4,T,absent,tT,nN,t,1,1.3498377,n,1,2.9652876,RSVPLG01,0.94,2023-09-12-22:23:43,917,1,Experiment,2023-09-12_15h44.45.586
6,local,global,7,9,9,117,5,,,123,exp,LHNHFSEZTSUXUEN,NTTLYLUHZSHZEUE,5,Y,X,yY,yY,f,0,1.8137189,y,1,0.2661896,RSVPLG01,0.94,2023-09-12-22:23:43,917,1,Experiment,2023-09-12_15h44.45.586
3,local,local,7,9,10,118,2,,,124,exp,HNLTZSUYSLYNUFF,FUUNEYLLTSFXNYT,5,E,X,eE,yY,z,0,1.01742,y,1,1.390765,RSVPLG01,0.94,2023-09-12-22:23:43,917,1,Experiment,2023-09-12_15h44.45.586
1,local,local,0,9,11,119,0,,,125,exp,TZTLHEZFHYNSYNE,EHTUZFFSTYYNNZH,4,U,absent,uU,nN,l,0,0.5990527,y,0,0.4701674,RSVPLG01,0.94,2023-09-12-22:23:43,917,1,Experiment,2023-09-12_15h44.45.586
11,global,global,3,10,0,120,10,,,126,exp,YFUSFHLLXYTTNUS,FTYSTEFULNULYNZ,6,H,X,hH,yY,h,1,0.2317792,n,0,1.7605028,RSVPLG01,0.94,2023-09-12-22:23:43,917,1,Experiment,2023-09-12_15h44.45.586
5,local,global,3,10,1,121,4,,,127,exp,FZHENTYYXENFZLL,NYHSLUEZFLFSHZN,6,U,X,uU,yY,t,0,0.0664623,n,0,1.3472243,RSVPLG01,0.94,2023-09-12-22:23:43,917,1,Experiment,2023-09-12_15h44.45.586
8,global,local,3,10,2,122,7,,,128,exp,ELZTSLFTFNYHHZE,LTFNULNXZHZEFHT,5,S,X,sS,yY,s,1,0.3187442,y,1,1.3562319,RSVPLG01,0.94,2023-09-12-22:23:43,917,1,Experiment,2023-09-12_15h44.45.586
1,local,local,0,10,3,123,0,,,129,exp,TUHYFNYLNTUEZEZ,LLTNSZHUNETEZYH,5,S,absent,sS,nN,t,0,1.0698474,n,1,1.6421829,RSVPLG01,0.94,2023-09-12-22:23:43,917,1,Experiment,2023-09-12_15h44.45.586
6,local,global,7,10,4,124,5,,,130,exp,EHTUSNSYNHXFLLT,TEFZSSNYTHLEYNH,4,Z,X,zZ,yY,y,0,2.8369177,n,0,0.4072373,RSVPLG01,0.94,2023-09-12-22:23:43,917,1,Experiment,2023-09-12_15h44.45.586
8,global,local,3,10,5,125,7,,,131,exp,ZTYUSELSLZNNTHE,EYZFHEXTZNSLLNS,4,U,X,uU,yY,u,1,0.6440922,y,1,0.6499098,RSVPLG01,0.94,2023-09-12-22:23:43,917,1,Experiment,2023-09-12_15h44.45.586
4,local,global,0,10,6,126,3,,,132,exp,SLUFNEYZFUHSHYZ,NYUUZTLYZHLSSFH,6,T,absent,tT,nN,e,0,1.2018825,n,1,0.7786779,RSVPLG01,0.94,2023-09-12-22:23:43,917,1,Experiment,2023-09-12_15h44.45.586
6,local,global,7,10,7,127,5,,,133,exp,HZSENYNFLZUFXEH,ZHNHETFULZSNLES,6,T,X,tT,yY,y,0,1.092782,n,0,1.4608522,RSVPLG01,0.94,2023-09-12-22:23:43,917,1,Experiment,2023-09-12_15h44.45.586
12,global,global,7,10,8,128,11,,,134,exp,YSENLTEUZHNUXZY,YZYZUFHSEHLENLU,6,T,X,tT,yY,t,1,0.5527092,y,1,0.3464755,RSVPLG01,0.94,2023-09-12-22:23:43,917,1,Experiment,2023-09-12_15h44.45.586
3,local,local,7,10,9,129,2,,,135,exp,LTTYUHZNZSYUNES,ZNLZUFNSSYETXLT,6,F,X,fF,yY,h,0,0.1798037,n,0,1.0425914,RSVPLG01,0.94,2023-09-12-22:23:43,917,1,Experiment,2023-09-12_15h44.45.586
1,local,local,0,10,10,130,0,,,136,exp,ZHTZUYTNSEHELNS,THSTFZESYYZNLNL,5,F,absent,fF,nN,n,0,0.3290098,n,1,0.7132982,RSVPLG01,0.94,2023-09-12-22:23:43,917,1,Experiment,2023-09-12_15h44.45.586
8,global,local,3,10,11,131,7,,,137,exp,YSNESZTNLZHHYUL,SULFYYXNUNZSHTT,4,E,X,eE,yY,e,1,1.2009028,y,1,0.4186318,RSVPLG01,0.94,2023-09-12-22:23:43,917,1,Experiment,2023-09-12_15h44.45.586
7,global,local,0,11,0,132,6,,,138,exp,EFZUHSTNNTUSFLE,NFTZYLEETUSSLUN,5,H,absent,hH,nN,h,1,0.6283593,n,1,1.5049812,RSVPLG01,0.94,2023-09-12-22:23:43,917,1,Experiment,2023-09-12_15h44.45.586
4,local,global,0,11,1,133,3,,,139,exp,ELNYSEUNYTTFZFL,UUZFHLYLTENNYZE,5,H,absent,hH,nN,s,0,0.3761466,n,1,0.8968652,RSVPLG01,0.94,2023-09-12-22:23:43,917,1,Experiment,2023-09-12_15h44.45.586
7,global,local,0,11,2,134,6,,,140,exp,SUSLZLFYHHFTUYT,STNFENLHUYHULTY,5,Z,absent,zZ,nN,z,1,0.6122545,y,0,0.2705886,RSVPLG01,0.94,2023-09-12-22:23:43,917,1,Experiment,2023-09-12_15h44.45.586
10,global,global,0,11,3,135,9,,,141,exp,EUYLZTENFTUYFNS,ZYFHZUNEESTTSUN,4,L,absent,lL,nN,l,1,0.5561106,n,1,0.5121578,RSVPLG01,0.94,2023-09-12-22:23:43,917,1,Experiment,2023-09-12_15h44.45.586
8,global,local,3,11,4,136,7,,,142,exp,EESFUTNYZSYTHFH,YZYNLFEXHNTZSSH,5,U,X,uU,yY,u,1,0.6345353,n,0,0.7928845,RSVPLG01,0.94,2023-09-12-22:23:43,917,1,Experiment,2023-09-12_15h44.45.586
6,local,global,7,11,5,137,5,,,143,exp,TFNNYLZHUHSXUZF,NLLZEFZTFSUUSNH,5,E,X,eE,yY,y,0,0.1325563,n,0,2.8982074,RSVPLG01,0.94,2023-09-12-22:23:43,917,1,Experiment,2023-09-12_15h44.45.586
9,global,local,7,11,6,138,8,,,144,exp,FULNHUTNYTSFLYE,TNYYZSUFNEEXLFT,5,H,X,hH,yY,h,1,0.3929443,y,1,0.8755906,RSVPLG01,0.94,2023-09-12-22:23:43,917,1,Experiment,2023-09-12_15h44.45.586
10,global,global,0,11,7,139,9,,,145,exp,STSFNTHNYLUUEYL,YTSZUNTULSYEHHN,4,F,absent,fF,nN,u,0,1.8075769,n,1,0.8106469,RSVPLG01,0.94,2023-09-12-22:23:43,917,1,Experiment,2023-09-12_15h44.45.586
8,global,local,3,11,8,140,7,,,146,exp,UTSFELZETHSYZLH,LYUNHHXYTZTZEES,4,F,X,fF,yY,f,1,1.2247033,y,1,0.0873765,RSVPLG01,0.94,2023-09-12-22:23:43,917,1,Experiment,2023-09-12_15h44.45.586
8,global,local,3,11,9,141,7,,,147,exp,YNHFSLFHZUNTLYU,ZYNTEZTXFFLLUUY,5,S,X,sS,yY,s,1,0.7329425,y,1,0.4187376,RSVPLG01,0.94,2023-09-12-22:23:43,917,1,Experiment,2023-09-12_15h44.45.586
1,local,local,0,11,10,142,0,,,148,exp,FEESLNUUYSZFYTT,YFLYEHUZSUSLZFE,6,H,absent,hH,nN,n,0,0.4102518,n,1,0.0063999,RSVPLG01,0.94,2023-09-12-22:23:43,917,1,Experiment,2023-09-12_15h44.45.586
6,local,global,7,11,11,143,5,,,149,exp,HHUSNZTYUTXFYLF,FUNETNHTLLYFHZY,4,E,X,eE,yY,s,0,1.5172063,y,1,0.4908155,RSVPLG01,0.94,2023-09-12-22:23:43,917,1,Experiment,2023-09-12_15h44.45.586
10,global,global,0,12,0,144,9,,,150,exp,YTUZHENZTYNFFLE,EYZLSEUFNYZTLUF,5,H,absent,hH,nN,h,1,0.7713858,y,0,1.2099442,RSVPLG01,0.94,2023-09-12-22:23:43,917,1,Experiment,2023-09-12_15h44.45.586
11,global,global,3,12,1,145,10,,,151,exp,FSEHYZXYENZTSUN,ZFTLUEYSNZUFENT,4,H,X,hH,yY,h,1,0.2261277,n,0,0.9072737,RSVPLG01,0.94,2023-09-12-22:23:43,917,1,Experiment,2023-09-12_15h44.45.586
7,global,local,0,12,2,146,6,,,152,exp,USHEFLYFSZLHYZU,ZSHTHFFLNZLSUUY,4,E,absent,eE,nN,y,0,1.0571768,y,0,0.6071195,RSVPLG01,0.94,2023-09-12-22:23:43,917,1,Experiment,2023-09-12_15h44.45.586
4,local,global,0,12,3,147,3,,,153,exp,FFLZSHNENESYUHL,YNLTFSNEHFLUYEH,4,T,absent,tT,nN,z,0,0.3368611,y,0,0.9927182,RSVPLG01,0.94,2023-09-12-22:23:43,917,1,Experiment,2023-09-12_15h44.45.586
3,local,local,7,12,4,148,2,,,154,exp,TELUSZNHETFLUFH,NTSLFYUHEUETXHS,6,Y,X,yY,yY,z,0,0.2883723,n,0,0.3530905,RSVPLG01,0.94,2023-09-12-22:23:43,917,1,Experiment,2023-09-12_15h44.45.586
11,global,global,3,12,5,149,10,,,155,exp,ZLHYYESFXFNULZU,NLHYZTSYNUFHLSZ,6,E,X,eE,yY,e,1,0.2446081,n,0,0.825893,RSVPLG01,0.94,2023-09-12-22:23:43,917,1,Experiment,2023-09-12_15h44.45.586
12,global,global,7,12,6,150,11,,,156,exp,FZUYTSLZSTXNNLU,UFSEFLZNSTUHZLH,4,Y,X,yY,yY,y,1,0.2493102,n,0,0.8339893,RSVPLG01,0.94,2023-09-12-22:23:43,917,1,Experiment,2023-09-12_15h44.45.586
4,local,global,0,12,7,151,3,,,157,exp,LEZNHTFYZNLYSSE,YFSTUZLLNFSENTY,5,U,absent,uU,nN,n,0,0.5235076,n,1,0.3924642,RSVPLG01,0.94,2023-09-12-22:23:43,917,1,Experiment,2023-09-12_15h44.45.586
5,local,global,3,12,8,152,4,,,158,exp,FNHTUESXNLSEZHT,HHTSYFTSFNLEELZ,5,Y,X,yY,yY,s,0,2.9134662,n,0,0.2083897,RSVPLG01,0.94,2023-09-12-22:23:43,917,1,Experiment,2023-09-12_15h44.45.586
7,global,local,0,12,9,153,6,,,159,exp,SEUZLHNHEFFUYNS,EEUFTSHFSNZUHYN,5,L,absent,lL,nN,l,1,0.6318599,y,0,1.4502071,RSVPLG01,0.94,2023-09-12-22:23:43,917,1,Experiment,2023-09-12_15h44.45.586
7,global,local,0,12,10,154,6,,,160,exp,UNHZSEHSLUTENTL,EFEYLTSTUHULFSN,4,Z,absent,zZ,nN,z,1,0.839795,y,0,0.2521808,RSVPLG01,0.94,2023-09-12-22:23:43,917,1,Experiment,2023-09-12_15h44.45.586
1,local,local,0,12,11,155,0,,,161,exp,HSTNNYZHTSFLFUU,FFTTSESUNZLZHHU,6,E,absent,eE,nN,y,0,0.476581,n,1,0.7315188,RSVPLG01,0.94,2023-09-12-22:23:43,917,1,Experiment,2023-09-12_15h44.45.586
12,global,global,7,13,0,156,11,,,162,exp,ZZSYFUSLEHUXTHL,SZESNEZYLYULHHT,5,F,X,fF,yY,f,1,0.2167312,n,0,0.6067239,RSVPLG01,0.94,2023-09-12-22:23:43,917,1,Experiment,2023-09-12_15h44.45.586
3,local,local,7,13,1,157,2,,,163,exp,ULUTYZTSFNNFZLE,ETUEHLSUZFNXNTL,5,H,X,hH,yY,y,0,0.3252667,n,0,0.7642985,RSVPLG01,0.94,2023-09-12-22:23:43,917,1,Experiment,2023-09-12_15h44.45.586
4,local,global,0,13,2,158,3,,,164,exp,FFLUTEYHNHLNSUS,FUHFZEUYLYLNNSS,5,Z,absent,zZ,nN,t,0,0.108833,y,0,1.3214527,RSVPLG01,0.94,2023-09-12-22:23:43,917,1,Experiment,2023-09-12_15h44.45.586
9,global,local,7,13,3,159,8,,,165,exp,FZLZYNESTUTUNFE,STTLHLNEZSUXFNF,5,Y,X,yY,yY,y,1,0.2857752,n,0,0.3255011,RSVPLG01,0.94,2023-09-12-22:23:43,917,1,Experiment,2023-09-12_15h44.45.586
5,local,global,3,13,4,160,4,,,166,exp,HHSYZLSEXTUEFTY,ZEUSTNEYHUFZHYF,6,N,X,nN,yY,l,0,1.1749135,n,0,0.3137874,RSVPLG01,0.94,2023-09-12-22:23:43,917,1,Experiment,2023-09-12_15h44.45.586
2,local,local,3,13,5,161,1,,,167,exp,ZESFNLYYNTUFTEZ,YNFFTHSEXUYSNEZ,6,H,X,hH,yY,l,0,0.2147919,y,1,1.4021553,RSVPLG01,0.94,2023-09-12-22:23:43,917,1,Experiment,2023-09-12_15h44.45.586
6,local,global,7,13,6,162,5,,,168,exp,HZNFTFYYLHZXNLS,YHLLEYNFSSFHNUZ,5,E,X,eE,yY,t,0,0.0506553,n,0,1.9299742,RSVPLG01,0.94,2023-09-12-22:23:43,917,1,Experiment,2023-09-12_15h44.45.586
11,global,global,3,13,7,163,10,,,169,exp,EUSHTZUXNELNLSY,SHLNFUSEZHNUELY,5,T,X,tT,yY,t,1,0.76572,n,0,0.8986906,RSVPLG01,0.94,2023-09-12-22:23:43,917,1,Experiment,2023-09-12_15h44.45.586
9,global,local,7,13,8,164,8,,,170,exp,YSENFZYUTHEUTHN,STNNLHYUTSHXZEY,5,F,X,fF,yY,e,0,0.0346526,n,0,0.9726221,RSVPLG01,0.94,2023-09-12-22:23:43,917,1,Experiment,2023-09-12_15h44.45.586
8,global,local,3,13,9,165,7,,,171,exp,FZZHYESENLYLFTS,LTFUENXZZNESYLT,4,H,X,hH,yY,h,1,0.3385263,y,1,1.2667753,RSVPLG01,0.94,2023-09-12-22:23:43,917,1,Experiment,2023-09-12_15h44.45.586
12,global,global,7,13,10,166,11,,,172,exp,FHLNTENHFSYYXTZ,HNFNYUSFHTLLZSY,6,E,X,eE,yY,e,1,0.172345,n,0,0.8663208,RSVPLG01,0.94,2023-09-12-22:23:43,917,1,Experiment,2023-09-12_15h44.45.586
5,local,global,3,13,11,167,4,,,173,exp,TLETZUHXNESFUNH,NHSLYEESFLFUUHT,5,Y,X,yY,yY,z,0,0.6030192,n,0,2.8008601,RSVPLG01,0.94,2023-09-12-22:23:43,917,1,Experiment,2023-09-12_15h44.45.586
11,global,global,3,14,0,168,10,,,174,exp,HLFHTNZXENLSSEU,NULSYZELFEZSUHN,5,T,X,tT,yY,t,1,1.4245668,y,1,0.6320007,RSVPLG01,0.94,2023-09-12-22:23:43,917,1,Experiment,2023-09-12_15h44.45.586
3,local,local,7,14,1,169,2,,,175,exp,FSYNZTZELLNHEHF,ZFNENUSHLFZEXYL,6,U,X,uU,yY,t,0,1.1296855,n,0,4.1298066,RSVPLG01,0.94,2023-09-12-22:23:43,917,1,Experiment,2023-09-12_15h44.45.586
1,local,local,0,14,2,170,0,,,176,exp,ZSNUHLESTTFHNFE,FSEUTYSEFTHNZUH,6,Y,absent,yY,nN,l,0,0.4921497,y,0,0.4106552,RSVPLG01,0.94,2023-09-12-22:23:43,917,1,Experiment,2023-09-12_15h44.45.586
3,local,local,7,14,3,171,2,,,177,exp,FUFTZHLSNHYLYNU,YUTHEHLNTLFXUSN,5,E,X,eE,yY,z,0,0.1418035,y,1,0.7193867,RSVPLG01,0.94,2023-09-12-22:23:43,917,1,Experiment,2023-09-12_15h44.45.586
7,global,local,0,14,4,172,6,,,178,exp,TTFUENUZSNZYYSH,SZFSLHTFUHZNYYT,5,E,absent,eE,nN,e,1,0.9636667,n,1,0.4575943,RSVPLG01,0.94,2023-09-12-22:23:43,917,1,Experiment,2023-09-12_15h44.45.586
12,global,global,7,14,5,173,11,,,179,exp,ESSHTZLNHLYXENU,ZSUEFUEHYZNLNLS,5,T,X,tT,yY,t,1,0.4800628,n,0,0.4043512,RSVPLG01,0.94,2023-09-12-22:23:43,917,1,Experiment,2023-09-12_15h44.45.586
7,global,local,0,14,6,174,6,,,180,exp,SNFYTFZHLNUTLZS,TUNEHLHSSNZUZLF,4,Y,absent,yY,nN,y,1,0.3199153,n,1,0.2833635,RSVPLG01,0.94,2023-09-12-22:23:43,917,1,Experiment,2023-09-12_15h44.45.586
5,local,global,3,14,7,175,4,,,181,exp,ZTLEFUXSNSLTHZH,NUSYSFTTLHZNFUH,4,Y,X,yY,yY,e,0,0.3540416,n,0,0.3404314,RSVPLG01,0.94,2023-09-12-22:23:43,917,1,Experiment,2023-09-12_15h44.45.586
4,local,global,0,14,8,176,3,,,182,exp,ELZFHTSNUZLUETS,EHZYUENZTLLSSNH,4,Y,absent,yY,nN,f,0,0.5765916,y,0,1.2098795,RSVPLG01,0.94,2023-09-12-22:23:43,917,1,Experiment,2023-09-12_15h44.45.586
9,global,local,7,14,9,177,8,,,183,exp,YLHTFELUTZSEYSZ,THETNLYLZSYXZUU,5,F,X,fF,yY,f,1,1.0936808,y,1,0.2721898,RSVPLG01,0.94,2023-09-12-22:23:43,917,1,Experiment,2023-09-12_15h44.45.586
6,local,global,7,14,10,178,5,,,184,exp,ELNHNLUFSYXZSFU,FYZTUSLNNLUFZYE,4,T,X,tT,yY,h,0,0.9209624,y,1,1.2053748,RSVPLG01,0.94,2023-09-12-22:23:43,917,1,Experiment,2023-09-12_15h44.45.586
10,global,global,0,14,11,179,9,,,185,exp,FULNYEFNYHUTSTL,FHSTNZYLULYSUFH,6,E,absent,eE,nN,e,1,2.0598494,n,1,2.5597008,RSVPLG01,0.94,2023-09-12-22:23:43,917,1,Experiment,2023-09-12_15h44.45.586
4,local,global,0,15,0,180,3,,,186,exp,SSZLUZYFTNNFLTY,ZYNTHFEELTSFLNY,5,H,absent,hH,nN,u,0,0.5069213,n,1,1.3936866,RSVPLG01,0.94,2023-09-12-22:23:43,917,1,Experiment,2023-09-12_15h44.45.586
8,global,local,3,15,1,181,7,,,187,exp,TZEFYUHUZFLTLES,SZTHNHUXFSFELUE,5,Y,X,yY,yY,y,1,0.4809119,y,1,0.7380841,RSVPLG01,0.94,2023-09-12-22:23:43,917,1,Experiment,2023-09-12_15h44.45.586
6,local,global,7,15,2,182,5,,,188,exp,LSTFLHZYYEXZTSH,HSLUNNYEZHTEZLY,4,U,X,uU,yY,f,0,1.5505248,n,0,0.1015948,RSVPLG01,0.94,2023-09-12-22:23:43,917,1,Experiment,2023-09-12_15h44.45.586
9,global,local,7,15,3,183,8,,,189,exp,UTUNLYZSHTLFZSH,SHUSTELLNNHUXZF,6,Y,X,yY,yY,y,1,0.4714426,n,0,0.8198865,RSVPLG01,0.94,2023-09-12-22:23:43,917,1,Experiment,2023-09-12_15h44.45.586
5,local,global,3,15,4,184,4,,,190,exp,THZTYFSEXNLNSZL,ENLLHUZSSHTNEYT,6,U,X,uU,yY,f,0,1.4773394,n,0,1.7625158,RSVPLG01,0.94,2023-09-12-22:23:43,917,1,Experiment,2023-09-12_15h44.45.586
6,local,global,7,15,5,185,5,,,191,exp,NNSFLYHZHTFLXUT,NTUSLETHUZHNFLF,6,E,X,eE,yY,y,0,0.306611,n,0,0.9391879,RSVPLG01,0.94,2023-09-12-22:23:43,917,1,Experiment,2023-09-12_15h44.45.586
3,local,local,7,15,6,186,2,,,192,exp,HSUSNZHNUTEFFLE,UFFSUYNLTHETXNE,6,Y,X,yY,yY,n,0,1.1643636,n,0,0.6895631,RSVPLG01,0.94,2023-09-12-22:23:43,917,1,Experiment,2023-09-12_15h44.45.586
5,local,global,3,15,7,187,4,,,193,exp,ZZEUTLHXNFNFSUL,FNLSYELEUFUNHZZ,5,Y,X,yY,yY,t,0,0.7681633,n,0,0.248759,RSVPLG01,0.94,2023-09-12-22:23:43,917,1,Experiment,2023-09-12_15h44.45.586
2,local,local,3,15,8,188,1,,,194,exp,FUHEYFNUSTTYZZN,ZYHLUHXTFNYTFUZ,4,L,X,lL,yY,e,0,0.9792047,y,1,0.0657494,RSVPLG01,0.94,2023-09-12-22:23:43,917,1,Experiment,2023-09-12_15h44.45.586
11,global,global,3,15,9,189,10,,,195,exp,SFNLSUELXYYZENF,ENLZFHSSNTTZYEY,6,U,X,uU,yY,u,1,0.9245371,n,0,0.2276204,RSVPLG01,0.94,2023-09-12-22:23:43,917,1,Experiment,2023-09-12_15h44.45.586
11,global,global,3,15,10,190,10,,,196,exp,LNUFESXNYUZSZHH,NNUTZLLEHHSSEZU,4,F,X,fF,yY,f,1,0.2364176,n,0,1.4739214,RSVPLG01,0.94,2023-09-12-22:23:43,917,1,Experiment,2023-09-12_15h44.45.586
9,global,local,7,15,11,191,8,,,197,exp,YYLTNSUHZULFTZH,LSTYEFZTZYUXHFU,5,N,X,nN,yY,n,1,1.7770417,n,0,0.5781358,RSVPLG01,0.94,2023-09-12-22:23:43,917,1,Experiment,2023-09-12_15h44.45.586
11,global,global,3,16,0,192,10,,,198,exp,SZTYLENXTUSZNUY,YYENHTFFEZNTUSZ,5,L,X,lL,yY,l,1,0.6167757,y,1,1.1095886,RSVPLG01,0.94,2023-09-12-22:23:43,917,1,Experiment,2023-09-12_15h44.45.586
5,local,global,3,16,1,193,4,,,199,exp,UYEYSFZXELTUHLZ,UHFLNLZHFTEEZYT,5,N,X,nN,yY,s,0,1.4420748,n,0,0.4746584,RSVPLG01,0.94,2023-09-12-22:23:43,917,1,Experiment,2023-09-12_15h44.45.586
2,local,local,3,16,2,194,1,,,200,exp,LNSYHYZESELFZFT,NSENUSTXFFELYZY,5,U,X,uU,yY,h,0,0.5469292,y,1,0.33832,RSVPLG01,0.94,2023-09-12-22:23:43,917,1,Experiment,2023-09-12_15h44.45.586
3,local,local,7,16,3,195,2,,,201,exp,FFLHYSELTSZZETN,HTSLUSNFHTLXZFE,5,U,X,uU,yY,y,0,0.1864114,n,0,0.3492984,RSVPLG01,0.94,2023-09-12-22:23:43,917,1,Experiment,2023-09-12_15h44.45.586
9,global,local,7,16,4,196,8,,,202,exp,HFLYZNUZFUTLHEE,FFZSLHUZETXLNHU,4,Y,X,yY,yY,y,1,0.3371731,n,0,0.6910252,RSVPLG01,0.94,2023-09-12-22:23:43,917,1,Experiment,2023-09-12_15h44.45.586
1,local,local,0,16,5,197,0,,,203,exp,HNUSLUNESYTEHTY,TESYFNUHSZZNTYU,5,F,absent,fF,nN,l,0,0.4676044,n,1,0.8581627,RSVPLG01,0.94,2023-09-12-22:23:43,917,1,Experiment,2023-09-12_15h44.45.586
4,local,global,0,16,6,198,3,,,204,exp,NHNYFUSLUHELFTS,NLUZTSUFSTHLFEN,4,Z,absent,zZ,nN,y,0,0.2341786,y,0,0.058762,RSVPLG01,0.94,2023-09-12-22:23:43,917,1,Experiment,2023-09-12_15h44.45.586
3,local,local,7,16,7,199,2,,,205,exp,HYSHLUFFZESLNYZ,EYELNTZSYFSHXZN,6,T,X,tT,yY,u,0,0.8280012,n,0,0.338335,RSVPLG01,0.94,2023-09-12-22:23:43,917,1,Experiment,2023-09-12_15h44.45.586
1,local,local,0,16,8,200,0,,,206,exp,LEFZSUELHSTHUFT,HSSYUTLTEHUFLNE,4,Y,absent,yY,nN,z,0,0.2920102,n,1,0.9213628,RSVPLG01,0.94,2023-09-12-22:23:43,917,1,Experiment,2023-09-12_15h44.45.586
4,local,global,0,16,9,201,3,,,207,exp,TSNZHUZYEYHSFNT,YZZYELSSHHFNNET,6,L,absent,lL,nN,u,0,1.1739653,y,0,1.0654746,RSVPLG01,0.94,2023-09-12-22:23:43,917,1,Experiment,2023-09-12_15h44.45.586
4,local,global,0,16,10,202,3,,,208,exp,FZNTTLYHSNFESYH,TZNSEUYYESZFHFN,6,U,absent,uU,nN,l,0,0.5759596,n,1,1.321067,RSVPLG01,0.94,2023-09-12-22:23:43,917,1,Experiment,2023-09-12_15h44.45.586
5,local,global,3,16,11,203,4,,,209,exp,NLLYFHNTXZSFZSY,YLSFEUNNFZYTTZE,6,U,X,uU,yY,h,0,0.6885053,n,0,0.255108,RSVPLG01,0.94,2023-09-12-22:23:43,917,1,Experiment,2023-09-12_15h44.45.586
4,local,global,0,17,0,204,3,,,210,exp,LETSTZNLFEHFUUH,EFHLFYULUTSTSNH,6,Y,absent,yY,nN,z,0,0.5308495,y,0,0.9044145,RSVPLG01,0.94,2023-09-12-22:23:43,917,1,Experiment,2023-09-12_15h44.45.586
11,global,global,3,17,1,205,10,,,211,exp,UTTNELYXFSHUHNL,YTLYZHTFNLNHUUS,5,E,X,eE,yY,e,1,1.004589,n,0,0.3470763,RSVPLG01,0.94,2023-09-12-22:23:43,917,1,Experiment,2023-09-12_15h44.45.586
12,global,global,7,17,2,206,11,,,212,exp,LFSFZUYEHEYSXTZ,ZTSHTNYELYSLEFH,6,U,X,uU,yY,u,1,0.4037968,n,0,0.2989074,RSVPLG01,0.94,2023-09-12-22:23:43,917,1,Experiment,2023-09-12_15h44.45.586
11,global,global,3,17,3,207,10,,,213,exp,FYFEHZLUXHNTUNY,TNNLFSTUEFYHUYH,6,Z,X,zZ,yY,z,1,0.8621343,y,1,1.6528761,RSVPLG01,0.94,2023-09-12-22:23:43,917,1,Experiment,2023-09-12_15h44.45.586
6,local,global,7,17,4,208,5,,,214,exp,TNYYEUTLZSFFXZE,ZLNYLHTNFYETFSZ,6,H,X,hH,yY,u,0,0.3961394,y,1,0.3387526,RSVPLG01,0.94,2023-09-12-22:23:43,917,1,Experiment,2023-09-12_15h44.45.586
10,global,global,0,17,5,209,9,,,215,exp,TLYFTUNZYSLNFHZ,SLFZNEHHFTYSNLY,6,U,absent,uU,nN,u,1,0.3641987,y,0,0.9769842,RSVPLG01,0.94,2023-09-12-22:23:43,917,1,Experiment,2023-09-12_15h44.45.586
10,global,global,0,17,6,210,9,,,216,exp,ZYHSUHFNLYEZNEU,UZZTENUYNHLLFEY,4,S,absent,sS,nN,s,1,0.909799,n,1,0.2488334,RSVPLG01,0.94,2023-09-12-22:23:43,917,1,Experiment,2023-09-12_15h44.45.586
4,local,global,0,17,7,211,3,,,217,exp,ZZENLHHTYESLUSY,TLLFESHZZUYHEUS,4,F,absent,fF,nN,n,0,0.8587091,n,1,0.1812107,RSVPLG01,0.94,2023-09-12-22:23:43,917,1,Experiment,2023-09-12_15h44.45.586
1,local,local,0,17,8,212,0,,,218,exp,ZYFLFETZNTLSNUY,ZYSSUHNFLLUTYZF,6,H,absent,hH,nN,e,0,0.3151989,y,0,0.9254777,RSVPLG01,0.94,2023-09-12-22:23:43,917,1,Experiment,2023-09-12_15h44.45.586
11,global,global,3,17,9,213,10,,,219,exp,UUFZLHLFXSYTEEY,TUESYNLULFZETFZ,6,H,X,hH,yY,h,1,0.5588192,n,0,0.7530147,RSVPLG01,0.94,2023-09-12-22:23:43,917,1,Experiment,2023-09-12_15h44.45.586
9,global,local,7,17,10,214,8,,,220,exp,SELUYFSTYNEUZLN,LYZTTHLYZSNUXNE,6,F,X,fF,yY,f,1,0.6278286,y,1,0.2185453,RSVPLG01,0.94,2023-09-12-22:23:43,917,1,Experiment,2023-09-12_15h44.45.586
7,global,local,0,17,11,215,6,,,221,exp,TSNHFLTZEUEUFZS,SUEHTYFTHUENSZZ,6,L,absent,lL,nN,l,1,0.5287264,n,1,0.1566225,RSVPLG01,0.94,2023-09-12-22:23:43,917,1,Experiment,2023-09-12_15h44.45.586
7,global,local,0,18,0,216,6,,,222,exp,LUTUNESHEZLFFSZ,HZZUYETFETHLFUS,5,N,absent,nN,nN,n,1,0.3437723,y,0,0.5389039,RSVPLG01,0.94,2023-09-12-22:23:43,917,1,Experiment,2023-09-12_15h44.45.586
3,local,local,7,18,1,217,2,,,223,exp,YYNFZFTLEHTSSEL,NNHSUHYTSLLXFYF,5,U,X,uU,yY,z,0,0.4153453,n,0,0.234871,RSVPLG01,0.94,2023-09-12-22:23:43,917,1,Experiment,2023-09-12_15h44.45.586
12,global,global,7,18,2,218,11,,,224,exp,NSSHHTNYUZYZXUL,UHHSYELSUNNYLFZ,6,T,X,tT,yY,t,1,0.0202007,y,1,1.1539173,RSVPLG01,0.94,2023-09-12-22:23:43,917,1,Experiment,2023-09-12_15h44.45.586
1,local,local,0,18,3,219,0,,,225,exp,NNETFHUHEYTYUSZ,HZESLYZUUSNYTHT,5,L,absent,lL,nN,h,0,1.3276492,n,1,1.0268743,RSVPLG01,0.94,2023-09-12-22:23:43,917,1,Experiment,2023-09-12_15h44.45.586
2,local,local,3,18,4,220,1,,,226,exp,LTYSLHZHYTENEZN,YHEUNEXNLFLZFTZ,4,U,X,uU,yY,s,0,0.487972,y,1,0.2583928,RSVPLG01,0.94,2023-09-12-22:23:43,917,1,Experiment,2023-09-12_15h44.45.586
10,global,global,0,18,5,221,9,,,227,exp,SLNTFUNYFZSUZEY,SLZHNEEFNSUYUFZ,4,T,absent,tT,nN,t,1,0.7724424,n,1,0.4242401,RSVPLG01,0.94,2023-09-12-22:23:43,917,1,Experiment,2023-09-12_15h44.45.586
8,global,local,3,18,6,222,7,,,228,exp,UUEYZFHHSEFLTTY,EUYFNTUXLSFYHHL,5,Z,X,zZ,yY,z,1,0.2382796,y,1,0.2425951,RSVPLG01,0.94,2023-09-12-22:23:43,917,1,Experiment,2023-09-12_15h44.45.586
6,local,global,7,18,7,223,5,,,229,exp,LNSHSUZEFFXUZNL,ZUNYTFTEZLLSSEF,4,Y,X,yY,yY,h,0,0.0594147,n,0,0.3154062,RSVPLG01,0.94,2023-09-12-22:23:43,917,1,Experiment,2023-09-12_15h44.45.586
2,local,local,3,18,8,224,1,,,230,exp,HNZTULYHEFFUEZY,HHFNUSEYXNTZFTE,6,S,X,sS,yY,l,0,0.3009367,y,1,1.2653767,RSVPLG01,0.94,2023-09-12-22:23:43,917,1,Experiment,2023-09-12_15h44.45.586
3,local,local,7,18,9,225,2,,,231,exp,USZSLNFTZHHLTEF,LUHZZYTHFESTXSE,6,Y,X,yY,yY,n,0,0.5473627,n,0,0.1225841,RSVPLG01,0.94,2023-09-12-22:23:43,917,1,Experiment,2023-09-12_15h44.45.586
10,global,global,0,18,10,226,9,,,232,exp,THLUYENSYHLEFNT,SLSZENLEHYYFTHF,4,U,absent,uU,nN,u,1,0.4717861,y,0,0.736401,RSVPLG01,0.94,2023-09-12-22:23:43,917,1,Experiment,2023-09-12_15h44.45.586
6,local,global,7,18,11,227,5,,,233,exp,FFTZTNESNLXHYLS,HSYUEENYTHTNLSF,4,U,X,uU,yY,z,0,0.0863147,n,0,0.2897966,RSVPLG01,0.94,2023-09-12-22:23:43,917,1,Experiment,2023-09-12_15h44.45.586
2,local,local,3,19,0,228,1,,,234,exp,HSHLETFENSFZYYZ,LNHSLUFYXYSENFE,6,U,X,uU,yY,t,0,0.2217425,y,1,0.2670323,RSVPLG01,0.94,2023-09-12-22:23:43,917,1,Experiment,2023-09-12_15h44.45.586
12,global,global,7,19,1,229,11,,,235,exp,SEEZYFUFHLLXTZH,LEZHNFUEZSHTLFT,5,Y,X,yY,yY,y,1,0.446724,n,0,0.6918607,RSVPLG01,0.94,2023-09-12-22:23:43,917,1,Experiment,2023-09-12_15h44.45.586
5,local,global,3,19,2,230,4,,,236,exp,SEHNZYXYHTEZUUT,UTHFZYYTZLLHSUS,4,F,X,fF,yY,n,0,0.2183648,n,0,0.0245003,RSVPLG01,0.94,2023-09-12-22:23:43,917,1,Experiment,2023-09-12_15h44.45.586
3,local,local,7,19,3,231,2,,,237,exp,TUEYTZSNEUZLNLS,THLFESTZNUXUZNS,4,F,X,fF,yY,y,0,0.1733105,y,1,0.2753922,RSVPLG01,0.94,2023-09-12-22:23:43,917,1,Experiment,2023-09-12_15h44.45.586
2,local,local,3,19,4,232,1,,,238,exp,LYUTYFUEZHSZLSF,SSYNHYXZHLFEUUL,4,N,X,nN,yY,t,0,0.2998824,y,1,1.2814914,RSVPLG01,0.94,2023-09-12-22:23:43,917,1,Experiment,2023-09-12_15h44.45.586
9,global,local,7,19,5,233,8,,,239,exp,LZZFTYFESLNETSN,STFHHULZZLTEXEN,6,Y,X,yY,yY,y,1,0.2899417,y,1,0.1872944,RSVPLG01,0.94,2023-09-12-22:23:43,917,1,Experiment,2023-09-12_15h44.45.586
1,local,local,0,19,6,234,0,,,240,exp,SFYLTEZENFZYHHT,TZTUNFYFYSHSNZE,4,U,absent,uU,nN,l,0,0.0631452,y,0,0.8333767,RSVPLG01,0.94,2023-09-12-22:23:43,917,1,Experiment,2023-09-12_15h44.45.586
3,local,local,7,19,7,235,2,,,241,exp,ZESTFYHZFHEUNUT,FNTFSLTUUSNHXEZ,6,L,X,lL,yY,y,0,0.0186085,y,1,0.0021059,RSVPLG01,0.94,2023-09-12-22:23:43,917,1,Experiment,2023-09-12_15h44.45.586
10,global,global,0,19,8,236,9,,,242,exp,YNETFEYZTZLUSNL,ZUELHTUSYNYNZSE,5,F,absent,fF,nN,f,1,0.3030414,n,1,0.5771527,RSVPLG01,0.94,2023-09-12-22:23:43,917,1,Experiment,2023-09-12_15h44.45.586
8,global,local,3,19,9,237,7,,,243,exp,FHTYLNEHLSFZZET,TZLUZFXHHEETLSF,4,Y,X,yY,yY,y,1,0.8464808,y,1,0.1848913,RSVPLG01,0.94,2023-09-12-22:23:43,917,1,Experiment,2023-09-12_15h44.45.586
11,global,global,3,19,10,238,10,,,244,exp,FNLUTTXYZZFSYSE,EZTHLNSSFZFTYNE,4,U,X,uU,yY,u,1,0.4817713,n,0,0.3445531,RSVPLG01,0.94,2023-09-12-22:23:43,917,1,Experiment,2023-09-12_15h44.45.586
6,local,global,7,19,11,239,5,,,245,exp,FSLYZLUEUTXHHST,EZTNLUZSFSUHLFT,4,N,X,nN,yY,y,0,0.295379,n,0,0.7629897,RSVPLG01,0.94,2023-09-12-22:23:43,917,1,Experiment,2023-09-12_15h44.45.586