row,t1_level,t2_level,t2_lag,.thisRepN,.thisTrialN,.thisN,.thisIndex,trial,trial_type,global_letters,local_letters,t1_pos,t1,t2,t1_corr,t2_corr,t1_resp,t1_acc,t1_rt,t2_resp,t2_acc,t2_rt,exp,ver,mod-utc,sub,sess,blocktyp,datetime,
2,local,local,3,0,0,0,1,1,warmup,ELZFNFTZYUETHHL,UFUHSHLXTYTELEY,5,S,X,sS,yY,n,0,4.483184300013818,n,0,3.2310497000580654,RSVPLG01,0.94,2023-09-12-22:23:43,917,1,Experiment,2023-09-12_15h44.45.586,
11,global,global,3,0,1,1,10,2,warmup,FYNUEHEUXSLLZFZ,ESLYETUSLUNFZFN,6,H,X,hH,yY,h,1,1.249856499955058,y,1,0.6498948000371456,RSVPLG01,0.94,2023-09-12-22:23:43,917,1,Experiment,2023-09-12_15h44.45.586,
5,local,global,3,0,2,2,4,3,warmup,UZSHUNLLXYSFHEE,FHYZHTZFEUSLULE,6,T,X,tT,yY,n,0,3.946608600090258,n,0,0.281627899967134,RSVPLG01,0.94,2023-09-12-22:23:43,917,1,Experiment,2023-09-12_15h44.45.586,
7,global,local,0,0,3,3,6,4,warmup,FLNZTETSYLHNFYS,HELUTFTSELHNSYY,4,Z,absent,zZ,nN,z,1,2.0187906000064686,n,1,1.7215736999642104,RSVPLG01,0.94,2023-09-12-22:23:43,917,1,Experiment,2023-09-12_15h44.45.586,
1,local,local,0,0,4,4,0,5,warmup,NFEYUHLTFSYSNTH,YSHEZTSLTFYFHEL,5,Z,absent,zZ,nN,h,0,2.402953300043009,y,0,0.264344000024721,RSVPLG01,0.94,2023-09-12-22:23:43,917,1,Experiment,2023-09-12_15h44.45.586,
8,global,local,3,0,0,0,7,6,exp,NYNFZUHLTEYZHLT,ZTLSYEXTHNNUEZH,4,F,X,fF,yY,f,1,1.655236600083299,n,0,0.6333136999746785,RSVPLG01,0.94,2023-09-12-22:23:43,917,1,Experiment,2023-09-12_15h44.45.586,
2,local,local,3,0,1,1,1,7,exp,FHEZYNETSFUSYUT,TZTUSLZEXHHFFEU,6,L,X,lL,yY,n,0,1.2329366999911144,n,0,0.009114400018006563,RSVPLG01,0.94,2023-09-12-22:23:43,917,1,Experiment,2023-09-12_15h44.45.586,
8,global,local,3,0,2,2,7,8,exp,FNHTUZYSSNFYUZL,LUZENYXUSYHLNSH,4,T,X,tT,yY,t,1,1.0021701999939978,n,0,0.9105433999793604,RSVPLG01,0.94,2023-09-12-22:23:43,917,1,Experiment,2023-09-12_15h44.45.586,
8,global,local,3,0,3,3,7,9,exp,STHNTEEUZZFSYUF,TFELSSXZFHEUUTY,4,N,X,nN,yY,n,1,1.0531129000009969,y,1,0.4252659999765456,RSVPLG01,0.94,2023-09-12-22:23:43,917,1,Experiment,2023-09-12_15h44.45.586,
11,global,global,3,0,4,4,10,10,exp,SLHNLZXEHTSFETZ,EFTYHHSSLUUTLFE,4,N,X,nN,yY,n,1,0.8730858000926673,n,0,0.23250630008988082,RSVPLG01,0.94,2023-09-12-22:23:43,917,1,Experiment,2023-09-12_15h44.45.586,
9,global,local,7,0,5,5,8,11,exp,ZZFTEYFLTLENHNH,EFNZLSFTUTLUXHE,6,Y,X,yY,yY,y,1,0.7785798000404611,n,0,0.34657479997258633,RSVPLG01,0.94,2023-09-12-22:23:43,917,1,Experiment,2023-09-12_15h44.45.586,
5,local,global,3,0,6,6,4,12,exp,LUZSTLUXHYFHEYF,YHFENUZYUSELHSZ,5,N,X,nN,yY,t,0,0.4462731999810785,n,0,0.9366863999748603,RSVPLG01,0.94,2023-09-12-22:23:43,917,1,Experiment,2023-09-12_15h44.45.586,
10,global,global,0,0,7,7,9,13,exp,TTLZHNNSYESEHLU,HTNFUYETYSHLNUE,4,Z,absent,zZ,nN,z,1,1.3850660000462085,n,1,0.42142099991906434,RSVPLG01,0.94,2023-09-12-22:23:43,917,1,Experiment,2023-09-12_15h44.45.586,
2,local,local,3,0,8,8,1,14,exp,NYUZTHZYTSFFUEN,TEFUSLETXUSZZFN,6,L,X,lL,yY,h,0,0.9094538999488577,y,1,1.8341698000440374,RSVPLG01,0.94,2023-09-12-22:23:43,917,1,Experiment,2023-09-12_15h44.45.586,
8,global,local,3,0,9,9,7,15,exp,EEUZFUYSNTSHZHY,SUNHLETXZEUNZYY,5,F,X,fF,yY,f,1,1.1022578000556678,n,0,0.35294360003899783,RSVPLG01,0.94,2023-09-12-22:23:43,917,1,Experiment,2023-09-12_15h44.45.586,
8,global,local,3,0,10,10,7,16,exp,SSYETNLFFYNZLTU,FSYHLNXTULZTSFN,4,E,X,eE,yY,e,1,0.4570727999089286,n,0,0.506488399929367,RSVPLG01,0.94,2023-09-12-22:23:43,917,1,Experiment,2023-09-12_15h44.45.586,
12,global,global,7,0,11,11,11,17,exp,TLEHUFUZLNYTXNH,TZUEUSNLLYTHEHN,6,F,X,fF,yY,f,1,1.0934884999878705,n,0,0.7051555000944063,RSVPLG01,0.94,2023-09-12-22:23:43,917,1,Experiment,2023-09-12_15h44.45.586,
10,global,global,0,1,0,12,9,18,exp,UFLNZYELTSSTNUZ,SZNETHUFUFLTLSN,6,Y,absent,yY,nN,y,1,1.0088149999501184,n,1,0.08201269991695881,RSVPLG01,0.94,2023-09-12-22:23:43,917,1,Experiment,2023-09-12_15h44.45.586,
11,global,global,3,1,1,13,10,19,exp,TZEFSZXNETHNYUU,NTHLSHSENTUZEZY,4,F,X,fF,yY,f,1,1.0904957000166178,y,1,1.3679365999996662,RSVPLG01,0.94,2023-09-12-22:23:43,917,1,Experiment,2023-09-12_15h44.45.586,
5,local,global,3,1,2,14,4,20,exp,LUNEZTNLXUZYEYH,ZLHLNSZEYNHEYFF,6,S,X,sS,yY,s,1,6.531655799946748,n,0,0.6512265000492334,RSVPLG01,0.94,2023-09-12-22:23:43,917,1,Experiment,2023-09-12_15h44.45.586,
1,local,local,0,1,3,15,0,21,exp,FUTYNZTHHSFLNLS,TSLNYETUFLHFSHY,6,E,absent,eE,nN,n,0,3.310163600021042,n,1,0.7011447000550106,RSVPLG01,0.94,2023-09-12-22:23:43,917,1,Experiment,2023-09-12_15h44.45.586,
5,local,global,3,1,4,16,4,22,exp,EHLFTSEZXTFNHLN,YFNTYUNZTELEFZH,6,U,X,uU,yY,s,0,1.7587293999968097,y,1,0.05966430006083101,RSVPLG01,0.94,2023-09-12-22:23:43,917,1,Experiment,2023-09-12_15h44.45.586,
3,local,local,7,1,5,17,2,23,exp,FHTZTENNHYFLSSE,ESNUTLELYFXHTSF,4,U,X,uU,yY,z,0,0.39940780005417764,y,1,0.10221510007977486,RSVPLG01,0.94,2023-09-12-22:23:43,917,1,Experiment,2023-09-12_15h44.45.586,
9,global,local,7,1,6,18,8,24,exp,YZNFHTZUSTSUNYF,SLFYEFYNTZLXTUS,5,H,X,hH,yY,h,1,1.352864500018768,y,1,0.6588433000724763,RSVPLG01,0.94,2023-09-12-22:23:43,917,1,Experiment,2023-09-12_15h44.45.586,
4,local,global,0,1,7,19,3,25,exp,YFZSTLYSNNHEFZH,ETHZEUNYFSZHFNT,6,U,absent,uU,nN,l,0,0.22825160005595535,n,1,1.9182736000511795,RSVPLG01,0.94,2023-09-12-22:23:43,917,1,Experiment,2023-09-12_15h44.45.586,
8,global,local,3,1,8,20,7,26,exp,YHYLHTTSNNEFESZ,TZYUYZXHFNNSETE,4,L,X,lL,yY,l,1,0.7803096000570804,y,1,0.7187497999984771,RSVPLG01,0.94,2023-09-12-22:23:43,917,1,Experiment,2023-09-12_15h44.45.586,
1,local,local,0,1,9,21,0,27,exp,TZNZFHLSSTFLNYY,YTFFZUSZEELSNTN,6,U,absent,uU,nN,n,0,0.5819378000451252,n,1,0.4386009998852387,RSVPLG01,0.94,2023-09-12-22:23:43,917,1,Experiment,2023-09-12_15h44.45.586,
8,global,local,3,1,10,22,7,28,exp,UENHFSUNZZTHYEY,TUZHFLETXHZYEFN,6,S,X,sS,yY,s,1,1.2518776999786496,y,1,0.3168829999631271,RSVPLG01,0.94,2023-09-12-22:23:43,917,1,Experiment,2023-09-12_15h44.45.586,
5,local,global,3,1,11,23,4,29,exp,LEULHESXNTZTZUN,TZNZFYUSTULYLEE,5,F,X,fF,yY,h,0,2.0074286999879405,y,1,0.7902247000019997,RSVPLG01,0.94,2023-09-12-22:23:43,917,1,Experiment,2023-09-12_15h44.45.586,
4,local,global,0,2,0,24,3,30,exp,FYNLZSTNYLSTUFE,SYFUHTTNSELELUF,5,H,absent,hH,nN,z,0,0.5022231999319047,n,1,0.30827300006058067,RSVPLG01,0.94,2023-09-12-22:23:43,917,1,Experiment,2023-09-12_15h44.45.586,
4,local,global,0,2,1,25,3,31,exp,ETFLSYYHFEZZHUU,YFSNYUTSEHZZEUH,4,N,absent,nN,nN,l,0,0.8798736999742687,y,0,0.3253771000308916,RSVPLG01,0.94,2023-09-12-22:23:43,917,1,Experiment,2023-09-12_15h44.45.586,
5,local,global,3,2,2,26,4,32,exp,NTHHFUYLXFSZYNS,LSNHTELNFFZHYZS,6,E,X,eE,yY,u,0,0.5581768000265583,n,0,0.6377316999714822,RSVPLG01,0.94,2023-09-12-22:23:43,917,1,Experiment,2023-09-12_15h44.45.586,
9,global,local,7,2,3,27,8,33,exp,YFHTUFZUEZNSYHN,EFFLEZHNHSXSUYN,4,T,X,tT,yY,t,1,0.4847879000008106,n,0,0.41992240003310144,RSVPLG01,0.94,2023-09-12-22:23:43,917,1,Experiment,2023-09-12_15h44.45.586,
1,local,local,0,2,4,28,0,34,exp,HNEYTSENUZFYZFT,THNFELEZTYFNHUU,6,L,absent,lL,nN,s,0,0.7150283999508247,y,0,0.8196577999042347,RSVPLG01,0.94,2023-09-12-22:23:43,917,1,Experiment,2023-09-12_15h44.45.586,
2,local,local,3,2,5,29,1,35,exp,NSHEFUELZHLYZUS,ESNSTZYXUHLLEHY,5,T,X,tT,yY,f,0,0.9356753999600187,n,0,0.04354300000704825,RSVPLG01,0.94,2023-09-12-22:23:43,917,1,Experiment,2023-09-12_15h44.45.586,
9,global,local,7,2,6,30,8,36,exp,EESUSLYHFYNHLTF,ESHZFYNYTSXEFNH,4,U,X,uU,yY,u,1,1.063968600006774,y,1,0.8102656999835745,RSVPLG01,0.94,2023-09-12-22:23:43,917,1,Experiment,2023-09-12_15h44.45.586,
12,global,global,7,2,7,31,11,37,exp,ZFELSNZUENUXTTL,HLNTYFEUHULZTEZ,5,S,X,sS,yY,s,1,2.139648799900897,y,1,0.7296764000784606,RSVPLG01,0.94,2023-09-12-22:23:43,917,1,Experiment,2023-09-12_15h44.45.586,
10,global,global,0,2,8,32,9,38,exp,TYNNHTZFSELLESY,LFSYUETEFSZLZNN,5,H,absent,hH,nN,h,1,1.0454683999996632,n,1,0.6699119999539107,RSVPLG01,0.94,2023-09-12-22:23:43,917,1,Experiment,2023-09-12_15h44.45.586,
12,global,global,7,2,9,33,11,39,exp,FLYNTZUSUSENXFE,TUYFUHTNLNYEFSS,6,Z,X,zZ,yY,z,1,2.792555799940601,y,1,0.6913150999462232,RSVPLG01,0.94,2023-09-12-22:23:43,917,1,Experiment,2023-09-12_15h44.45.586,
3,local,local,7,2,10,34,2,40,exp,ENEUUZLHTSNHLSY,EHLUYFHESYUNXLS,6,F,X,fF,yY,z,0,0.511761000030674,n,0,0.4972940000006929,RSVPLG01,0.94,2023-09-12-22:23:43,917,1,Experiment,2023-09-12_15h44.45.586,
4,local,global,0,2,11,35,3,41,exp,ZTHNSLZLFHUFEEU,ZHNLYUUFNTHZLET,5,Y,absent,yY,nN,s,0,0.45367109996732324,y,0,1.512248000013642,RSVPLG01,0.94,2023-09-12-22:23:43,917,1,Experiment,2023-09-12_15h44.45.586,
6,local,global,7,3,0,36,5,42,exp,HFZYZNULUFXSNEE,ZESTFHEULFULSHZ,4,T,X,tT,yY,y,0,0.36210429994389415,n,0,0.6492469999939203,RSVPLG01,0.94,2023-09-12-22:23:43,917,1,Experiment,2023-09-12_15h44.45.586,
7,global,local,0,3,1,37,6,43,exp,UTHENLFULFZZTEH,FHFESTLUTUYLEYH,5,N,absent,nN,nN,n,1,0.5498815000755712,n,1,0.1539029999403283,RSVPLG01,0.94,2023-09-12-22:23:43,917,1,Experiment,2023-09-12_15h44.45.586,
9,global,local,7,3,2,38,8,44,exp,NUHNZSTUTYLYFSH,LHHLEUYSSNTXTUY,5,Z,X,zZ,yY,z,1,0.5712854999583215,n,0,1.1846342999488115,RSVPLG01,0.94,2023-09-12-22:23:43,917,1,Experiment,2023-09-12_15h44.45.586,
2,local,local,3,3,3,39,1,45,exp,ZSHTNEYUEUYTFFZ,SYTHLTZXEYZFUHU,5,L,X,lL,yY,n,0,0.6697369000175968,n,0,4.587985899997875,RSVPLG01,0.94,2023-09-12-22:23:43,917,1,Experiment,2023-09-12_15h44.45.586,
5,local,global,3,3,4,40,4,46,exp,ZFTYNUTEXHNZLYF,LNNFESHYZZLHTTY,6,S,X,sS,yY,u,0,0.7773980000056326,y,1,0.7215537999290973,RSVPLG01,0.94,2023-09-12-22:23:43,917,1,Experiment,2023-09-12_15h44.45.586,
8,global,local,3,3,5,41,7,47,exp,USSHHLZYEZUNFNY,HYUUNTSEXFZYNSH,6,L,X,lL,yY,l,1,1.107555599999614,n,0,0.4337857000064105,RSVPLG01,0.94,2023-09-12-22:23:43,917,1,Experiment,2023-09-12_15h44.45.586,
9,global,local,7,3,6,42,8,48,exp,EFTZUNYLETHFZLN,LLFNSTYNHYHXTZZ,5,U,X,uU,yY,u,1,0.41834580001886934,y,1,1.3369128999765962,RSVPLG01,0.94,2023-09-12-22:23:43,917,1,Experiment,2023-09-12_15h44.45.586,
4,local,global,0,3,7,43,3,49,exp,TYFNEYHULLUTFZZ,NHTFSUZZHTYUFLL,5,S,absent,sS,nN,e,0,0.8754614000208676,n,1,1.0570250999880955,RSVPLG01,0.94,2023-09-12-22:23:43,917,1,Experiment,2023-09-12_15h44.45.586,
3,local,local,7,3,8,44,2,50,exp,LSYHTFNYNTUUHLS,SLNHYEZTLUUHXZY,6,E,X,eE,yY,f,0,0.6090088000055403,y,1,0.293976700049825,RSVPLG01,0.94,2023-09-12-22:23:43,917,1,Experiment,2023-09-12_15h44.45.586,
10,global,global,0,3,9,45,9,51,exp,HHFYNSNELTFUEUL,LNFYTZEENLTYUFH,6,S,absent,sS,nN,s,1,0.8753275000490248,y,0,0.16748559998814017,RSVPLG01,0.94,2023-09-12-22:23:43,917,1,Experiment,2023-09-12_15h44.45.586,
9,global,local,7,3,10,46,8,52,exp,NUYHLESZFFZNUHY,FZLFYTUZLHYHXNN,6,E,X,eE,yY,e,1,0.6197688999818638,n,0,0.3457390000112355,RSVPLG01,0.94,2023-09-12-22:23:43,917,1,Experiment,2023-09-12_15h44.45.586,
12,global,global,7,3,11,47,11,53,exp,YYFSTZSEUFZXUHH,YNNHLZSZUFUHEFE,5,T,X,tT,yY,t,1,1.9791438999818638,n,0,0.7058644999051467,RSVPLG01,0.94,2023-09-12-22:23:43,917,1,Experiment,2023-09-12_15h44.45.586,
7,global,local,0,4,0,48,6,54,exp,YFYNEFUTESLHTHL,HFUZLFYSYUTSELE,4,N,absent,nN,nN,n,1,1.0897556999698281,y,0,0.29656569997314364,RSVPLG01,0.94,2023-09-12-22:23:43,917,1,Experiment,2023-09-12_15h44.45.586,
2,local,local,3,4,1,49,1,55,exp,NTUSNFLYEUZETSL,YTNUEHYEXSTLNSU,6,H,X,hH,yY,f,0,1.1103680999949574,y,1,0.5207267999649048,RSVPLG01,0.94,2023-09-12-22:23:43,917,1,Experiment,2023-09-12_15h44.45.586,
10,global,global,0,4,2,50,9,56,exp,UTFYZULZHSLEFES,TTZNLUHFFELUESS,4,Y,absent,yY,nN,y,1,0.3583628999767825,n,1,0.8906954999547452,RSVPLG01,0.94,2023-09-12-22:23:43,917,1,Experiment,2023-09-12_15h44.45.586,
6,local,global,7,4,3,51,5,57,exp,YYSLTFNZSEZUXLE,LTYSZHLZYSNTENE,6,H,X,hH,yY,f,0,1.4653315000468865,y,1,1.249363699927926,RSVPLG01,0.94,2023-09-12-22:23:43,917,1,Experiment,2023-09-12_15h44.45.586,
9,global,local,7,4,4,52,8,58,exp,SFSZHEEUFNZUYTN,TSYNLZZSNFUXETE,5,H,X,hH,yY,h,1,0.8026723000220954,y,1,0.42620159999933094,RSVPLG01,0.94,2023-09-12-22:23:43,917,1,Experiment,2023-09-12_15h44.45.586,
11,global,global,3,4,5,53,10,59,exp,UEUETHHXZZNFSNY,NZSFLHYUUFEEYNZ,5,T,X,tT,yY,t,1,0.6962241999572143,y,1,0.594705699943006,RSVPLG01,0.94,2023-09-12-22:23:43,917,1,Experiment,2023-09-12_15h44.45.586,
2,local,local,3,4,6,54,1,60,exp,SNYLTLZFUSNEFZU,ZESNHUFXEZYLFNL,5,H,X,hH,yY,t,0,0.22358099999837577,y,1,1.281565099954605,RSVPLG01,0.94,2023-09-12-22:23:43,917,1,Experiment,2023-09-12_15h44.45.586,
2,local,local,3,4,7,55,1,61,exp,HNSLTEHFYFSUYTN,HHNSSZTUXFYLYTN,6,Z,X,zZ,yY,e,0,1.9133558000903577,y,1,0.8012734999647364,RSVPLG01,0.94,2023-09-12-22:23:43,917,1,Experiment,2023-09-12_15h44.45.586,
7,global,local,0,4,8,56,6,62,exp,NLTSHTYUHUEEFLY,UUFZNNYELHYHFTT,4,S,absent,sS,nN,s,1,1.4279729999834672,y,0,2.2649905999423936,RSVPLG01,0.94,2023-09-12-22:23:43,917,1,Experiment,2023-09-12_15h44.45.586,
1,local,local,0,4,9,57,0,63,exp,LEYHHZFUSFTLUST,TEHSTNYELFULYHS,6,N,absent,nN,nN,z,0,0.4315013000741601,n,1,0.5542615000158548,RSVPLG01,0.94,2023-09-12-22:23:43,917,1,Experiment,2023-09-12_15h44.45.586,
10,global,global,0,4,10,58,9,64,exp,TLSUEZNYTYUHLSN,YULTFTZSZUHNYLN,5,E,absent,eE,nN,e,1,0.713915399974212,n,1,0.2492688000202179,RSVPLG01,0.94,2023-09-12-22:23:43,917,1,Experiment,2023-09-12_15h44.45.586,
1,local,local,0,4,11,59,0,65,exp,ZTYZFNHYTSUUEHS,ZYHTLZUNNTSYESE,5,L,absent,lL,nN,f,0,0.3403906999155879,n,1,3.1088919999310747,RSVPLG01,0.94,2023-09-12-22:23:43,917,1,Experiment,2023-09-12_15h44.45.586,
8,global,local,3,5,0,60,7,66,exp,NULTESFLFHNZSTZ,FFSTYSUXZZHNLHU,5,E,X,eE,yY,e,1,0.4960222999798134,y,1,1.4151118999579921,RSVPLG01,0.94,2023-09-12-22:23:43,917,1,Experiment,2023-09-12_15h44.45.586,
7,global,local,0,5,1,61,6,67,exp,SUEZLLUTHHNSNET,EHNYTEFUHSULFLN,4,Z,absent,zZ,nN,z,1,0.682921800063923,n,1,0.4994814000092447,RSVPLG01,0.94,2023-09-12-22:23:43,917,1,Experiment,2023-09-12_15h44.45.586,
6,local,global,7,5,2,62,5,68,exp,YTEFUFTZSSNXEYZ,ENTFLYEZFSZHSHT,5,L,X,lL,yY,f,0,0.8978819999611005,n,0,1.0745498000178486,RSVPLG01,0.94,2023-09-12-22:23:43,917,1,Experiment,2023-09-12_15h44.45.586,
12,global,global,7,5,3,63,11,69,exp,TSLZEFSUNHTLXHN,ESUSTYTNZZLLEUH,6,F,X,fF,yY,f,1,0.1965760999592021,y,1,1.6658688000170514,RSVPLG01,0.94,2023-09-12-22:23:43,917,1,Experiment,2023-09-12_15h44.45.586,
5,local,global,3,5,4,64,4,70,exp,FHLYUFXHNZTLSUZ,FFTESULNTNUSHHL,4,E,X,eE,yY,y,0,1.1321264000143856,n,0,0.945535899954848,RSVPLG01,0.94,2023-09-12-22:23:43,917,1,Experiment,2023-09-12_15h44.45.586,
11,global,global,3,5,5,65,10,71,exp,SFLZUNXSFHUYYNH,FUNENYTHLHLSYTS,4,Z,X,zZ,yY,n,0,26.091113599948585,n,0,0.42133170005399734,RSVPLG01,0.94,2023-09-12-22:23:43,917,1,Experiment,2023-09-12_15h44.45.586,
6,local,global,7,5,6,66,5,72,exp,TYLSLHNFTFXYUNU,TNEZLFNULEYHHUT,4,Z,X,zZ,yY,t,0,1.4959004999836907,y,1,0.4346934000495821,RSVPLG01,0.94,2023-09-12-22:23:43,917,1,Experiment,2023-09-12_15h44.45.586,
8,global,local,3,5,7,67,7,73,exp,NFNTZSULSFTEUYY,ENSUHYTXTFENULL,5,Z,X,zZ,yY,y,0,0.7348204998997971,n,0,1.7534023000625893,RSVPLG01,0.94,2023-09-12-22:23:43,917,1,Experiment,2023-09-12_15h44.45.586,
10,global,global,0,5,8,68,9,74,exp,FSYELZETNFNTSUY,SESNHZYTFTYEFUU,5,L,absent,lL,nN,l,1,0.8578897999832407,n,1,1.09709880000446,RSVPLG01,0.94,2023-09-12-22:23:43,917,1,Experiment,2023-09-12_15h44.45.586,
2,local,local,3,5,9,69,1,75,exp,NYYZLEHHFLUNTFT,YNUFYSZFXTUHHTN,6,S,X,sS,yY,e,0,1.7120958999730647,n,0,0.30627070006448776,RSVPLG01,0.94,2023-09-12-22:23:43,917,1,Experiment,2023-09-12_15h44.45.586,
9,global,local,7,5,10,70,8,76,exp,ULNNFSLEUHTYHYS,UYNLZNTHEEYXTLS,5,F,X,fF,yY,f,1,0.006052800104953349,n,0,0.38487099995836616,RSVPLG01,0.94,2023-09-12-22:23:43,917,1,Experiment,2023-09-12_15h44.45.586,
12,global,global,7,5,11,71,11,77,exp,TEULYSEHLHFTXFN,FEYYNZULHNETTLH,6,S,X,sS,yY,s,1,0.15874139999505132,y,1,1.1552323999349028,RSVPLG01,0.94,2023-09-12-22:23:43,917,1,Experiment,2023-09-12_15h44.45.586,
6,local,global,7,6,0,72,5,78,exp,UHNYZFTLYZHNXUE,UYNLYSTHTZNZUEL,6,S,X,sS,yY,f,0,0.551952900015749,n,0,3.922334900009446,RSVPLG01,0.94,2023-09-12-22:23:43,917,1,Experiment,2023-09-12_15h44.45.586,
12,global,global,7,6,1,73,11,79,exp,YTFUENYLZUZXLSN,ZUYNHFSFTSTLZUL,5,E,X,eE,yY,n,0,1.4195306999608874,n,0,0.497763599967584,RSVPLG01,0.94,2023-09-12-22:23:43,917,1,Experiment,2023-09-12_15h44.45.586,
10,global,global,0,6,2,74,9,80,exp,TSZNELFTSLYFHZY,FEEULHTTHSLFYYZ,4,N,absent,nN,nN,n,1,1.0107444999739528,y,0,1.1448530999477953,RSVPLG01,0.94,2023-09-12-22:23:43,917,1,Experiment,2023-09-12_15h44.45.586,
2,local,local,3,6,3,75,1,81,exp,TSNYTHZHLUZSNUE,HETFSLXZHLTNZUU,4,F,X,fF,yY,y,0,1.4201392999384552,n,0,3.7781484000151977,RSVPLG01,0.94,2023-09-12-22:23:43,917,1,Experiment,2023-09-12_15h44.45.586,
4,local,global,0,6,4,76,3,82,exp,UYUTFEZSSNNTFHY,USZNHLYNUSHFFTT,6,L,absent,lL,nN,y,0,33.67577059997711,n,1,1.2103442000225186,RSVPLG01,0.94,2023-09-12-22:23:43,917,1,Experiment,2023-09-12_15h44.45.586,
6,local,global,7,6,5,77,5,83,exp,HUFTZLZEHEXNSLN,HNZYZELLEFUSUSN,4,Y,X,yY,yY,y,1,0.006517200032249093,n,0,0.977986800018698,RSVPLG01,0.94,2023-09-12-22:23:43,917,1,Experiment,2023-09-12_15h44.45.586,
4,local,global,0,6,6,78,3,84,exp,LSTYSUENZZTNLHE,UULFNHLTNSTHEEZ,4,F,absent,fF,nN,y,0,2.7084093999583274,n,1,1.1697117000585422,RSVPLG01,0.94,2023-09-12-22:23:43,917,1,Experiment,2023-09-12_15h44.45.586,
3,local,local,7,6,7,79,2,85,exp,UNEFYZTZSSENULL,FLUNHEFUSSEXNLZ,5,H,X,hH,yY,y,0,0.30658400000538677,n,0,0.9577561999903992,RSVPLG01,0.94,2023-09-12-22:23:43,917,1,Experiment,2023-09-12_15h44.45.586,
1,local,local,0,6,8,80,0,86,exp,LLHYFYSSETUUHNE,ULSLZNYSEHTTNHY,5,Z,absent,zZ,nN,y,0,0.2000024999724701,n,1,1.323089399957098,RSVPLG01,0.94,2023-09-12-22:23:43,917,1,Experiment,2023-09-12_15h44.45.586,
2,local,local,3,6,9,81,1,87,exp,HUFYNZLEEFLHSSU,FLSLUTNYXEEYHSN,6,T,X,tT,yY,z,0,0.5516048000426963,n,0,0.865349999978207,RSVPLG01,0.94,2023-09-12-22:23:43,917,1,Experiment,2023-09-12_15h44.45.586,
11,global,global,3,6,10,82,10,88,exp,NTFSYEXLZLYETZH,ZNFUYEZTNHYLHTL,4,S,X,sS,yY,s,1,0.9970243000425398,y,1,0.5253723999485373,RSVPLG01,0.94,2023-09-12-22:23:43,917,1,Experiment,2023-09-12_15h44.45.586,
9,global,local,7,6,11,83,8,89,exp,HTUZEENNTSFFSYU,FFELSUNTTHXEYUS,4,Z,X,zZ,yY,y,0,1.6052517000352964,y,1,0.8498717999318615,RSVPLG01,0.94,2023-09-12-22:23:43,917,1,Experiment,2023-09-12_15h44.45.586,
5,local,global,3,7,0,84,4,90,exp,YLLFFZESXTHSEHT,YFFTNUYTHHESENL,6,U,X,uU,yY,z,0,1.0078540000831708,y,1,1.3530799000291154,RSVPLG01,0.94,2023-09-12-22:23:43,917,1,Experiment,2023-09-12_15h44.45.586,
11,global,global,3,7,1,85,10,91,exp,FSUYTHXZZFTULEE,EUSNZUZTHTLSELF,4,Y,X,yY,yY,n,0,0.5741779000964016,y,1,0.48864410002715886,RSVPLG01,0.94,2023-09-12-22:23:43,917,1,Experiment,2023-09-12_15h44.45.586,
6,local,global,7,7,2,86,5,92,exp,TYHNYSNZLHFUXZF,LHLYFEUTHZNTYZU,6,E,X,eE,yY,y,0,1.0965533999260515,y,1,0.6416151000885293,RSVPLG01,0.94,2023-09-12-22:23:43,917,1,Experiment,2023-09-12_15h44.45.586,
12,global,global,7,7,3,87,11,93,exp,NTUZLSFFHTNLXUZ,ZTFUEYLHNNEFZLH,6,S,X,sS,yY,s,1,0.6862250999547541,n,0,0.4103842000477016,RSVPLG01,0.94,2023-09-12-22:23:43,917,1,Experiment,2023-09-12_15h44.45.586,
1,local,local,0,7,4,88,0,94,exp,YYTLENZTFZUEHLF,ETTUHSYYLZLEUHF,6,S,absent,sS,nN,n,0,0.3489652000134811,y,0,0.28230060008354485,RSVPLG01,0.94,2023-09-12-22:23:43,917,1,Experiment,2023-09-12_15h44.45.586,
12,global,global,7,7,5,89,11,95,exp,TZUHHLYYSEZSXFU,SEUFHNZTETSYYFU,6,L,X,lL,yY,l,1,0.4235772000392899,y,1,1.9135980000719428,RSVPLG01,0.94,2023-09-12-22:23:43,917,1,Experiment,2023-09-12_15h44.45.586,
1,local,local,0,7,6,90,0,96,exp,EYTHHNTUFSLFYSE,SLFHEZUHUYTYEFS,6,Z,absent,zZ,nN,n,0,1.0516855999594554,n,1,0.2256107999710366,RSVPLG01,0.94,2023-09-12-22:23:43,917,1,Experiment,2023-09-12_15h44.45.586,
5,local,global,3,7,7,91,4,97,exp,ETHYFLNNXZUEZFY,ZTFTESFUUNNYEHZ,6,S,X,sS,yY,l,0,0.3960607999470085,n,0,1.1537566999904811,RSVPLG01,0.94,2023-09-12-22:23:43,917,1,Experiment,2023-09-12_15h44.45.586,
12,global,global,7,7,8,92,11,98,exp,FSFULUEYHNSXTHT,NFNEZHFSSHTYUEU,5,L,X,lL,yY,l,1,0.465714699937962,n,0,1.472808500053361,RSVPLG01,0.94,2023-09-12-22:23:43,917,1,Experiment,2023-09-12_15h44.45.586,
11,global,global,3,7,9,93,10,99,exp,ESHTHSXLEZYNZUL,NHUFHESYNZZSLUY,4,T,X,tT,yY,t,1,0.7474611999932677,n,0,0.4660435999976471,RSVPLG01,0.94,2023-09-12-22:23:43,917,1,Experiment,2023-09-12_15h44.45.586,
9,global,local,7,7,10,94,8,100,exp,SHYNTFLLFSTZEEY,EEZUYSHFSYXHTLL,4,N,X,nN,yY,y,0,1.1638933999929577,n,0,0.32985070010181516,RSVPLG01,0.94,2023-09-12-22:23:43,917,1,Experiment,2023-09-12_15h44.45.586,
7,global,local,0,7,11,95,6,101,exp,FLUFEZYUSSENNTT,TNUYSHFEYTLFESN,6,Z,absent,zZ,nN,n,0,1.1190063001122326,n,1,0.5862015000311658,RSVPLG01,0.94,2023-09-12-22:23:43,917,1,Experiment,2023-09-12_15h44.45.586,
10,global,global,0,8,0,96,9,102,exp,LEZTSHYLUZYHENN,HEEUFZNLLYNHTYU,5,S,absent,sS,nN,s,1,1.0515947000822052,y,0,1.2907758000073954,RSVPLG01,0.94,2023-09-12-22:23:43,917,1,Experiment,2023-09-12_15h44.45.586,
11,global,global,3,8,1,97,10,103,exp,NULSZYXUHHLZEFF,FYETZHFLHUUNLYN,4,S,X,sS,yY,s,1,1.0002240999601781,y,1,1.9064142999704927,RSVPLG01,0.94,2023-09-12-22:23:43,917,1,Experiment,2023-09-12_15h44.45.586,
7,global,local,0,8,2,98,6,104,exp,NFLHLZTFUYTZNYS,TZNEZLLNSYYTUUS,4,H,absent,hH,nN,h,1,0.9117364999838173,n,1,0.5855039999587461,RSVPLG01,0.94,2023-09-12-22:23:43,917,1,Experiment,2023-09-12_15h44.45.586,
10,global,global,0,8,3,99,9,105,exp,STUNLHTSYEYUZEL,SLLFYHUEHTZZYUE,4,N,absent,nN,nN,n,1,0.7478288999991491,n,1,0.010554300039075315,RSVPLG01,0.94,2023-09-12-22:23:43,917,1,Experiment,2023-09-12_15h44.45.586,
1,local,local,0,8,4,100,0,106,exp,THZFLELSENYYTNH,NZTUSLYYEZSHLHT,4,U,absent,uU,nN,f,0,1.4807104000356048,n,1,0.24369210004806519,RSVPLG01,0.94,2023-09-12-22:23:43,917,1,Experiment,2023-09-12_15h44.45.586,
2,local,local,3,8,5,101,1,107,exp,TYETZFUENUHFLYH,TELNSYYXFTHLFUU,5,S,X,sS,yY,t,0,2.935603899997659,y,1,0.13085610000416636,RSVPLG01,0.94,2023-09-12-22:23:43,917,1,Experiment,2023-09-12_15h44.45.586,
12,global,global,7,8,6,102,11,108,exp,EZLNZTSNHHEUXLS,HSZENFSUEYYLZNL,6,T,X,tT,yY,t,1,1.3497549999738112,n,0,0.29058270005043596,RSVPLG01,0.94,2023-09-12-22:23:43,917,1,Experiment,2023-09-12_15h44.45.586,
7,global,local,0,8,7,103,6,109,exp,ZZNEYNHTSSHEFTU,FFTZLUEZNHEHTSN,5,Y,absent,yY,nN,y,1,1.1315452000126243,n,1,0.4808263999875635,RSVPLG01,0.94,2023-09-12-22:23:43,917,1,Experiment,2023-09-12_15h44.45.586,
7,global,local,0,8,8,104,6,110,exp,LFTEENLZZTUFYHH,YZTYFSLUTZEHHEU,6,N,absent,nN,nN,n,1,1.3075705000665039,n,1,0.3491376999299973,RSVPLG01,0.94,2023-09-12-22:23:43,917,1,Experiment,2023-09-12_15h44.45.586,
7,global,local,0,8,9,105,6,111,exp,LNZHESNYZHULEYT,LUTNYFZNYLEHEUT,6,S,absent,sS,nN,s,1,1.5722543000010774,y,0,0.31117030000314116,RSVPLG01,0.94,2023-09-12-22:23:43,917,1,Experiment,2023-09-12_15h44.45.586,
4,local,global,0,8,10,106,3,112,exp,LFESNLHFYUHZESU,LESETYZFUHULFYS,5,T,absent,tT,nN,n,0,1.208294800017029,y,0,1.3306282999692485,RSVPLG01,0.94,2023-09-12-22:23:43,917,1,Experiment,2023-09-12_15h44.45.586,
3,local,local,7,8,11,107,2,113,exp,SFSTUELFHLYHNYU,USEZNLEHYFXHSNL,4,Z,X,zZ,yY,y,0,1.3577076999936253,n,0,0.2668452999787405,RSVPLG01,0.94,2023-09-12-22:23:43,917,1,Experiment,2023-09-12_15h44.45.586,
3,local,local,7,9,0,108,2,114,exp,YNZTSUZLHNTHLYU,UYYUENZFZLNXHHF,5,E,X,eE,yY,s,0,0.9367078999057412,y,1,0.3547067000763491,RSVPLG01,0.94,2023-09-12-22:23:43,917,1,Experiment,2023-09-12_15h44.45.586,
2,local,local,3,9,1,109,1,115,exp,HUTLYTSFLSUFHEE,TEFUZESXHLNTUFL,5,Z,X,zZ,yY,y,0,1.292590199969709,n,0,1.4865952000254765,RSVPLG01,0.94,2023-09-12-22:23:43,917,1,Experiment,2023-09-12_15h44.45.586,
7,global,local,0,9,2,110,6,116,exp,UYSFNHLUZFYSLEH,FZYETLHHSELYSUU,5,N,absent,nN,nN,n,1,0.4681679999921471,y,0,2.90290740004275,RSVPLG01,0.94,2023-09-12-22:23:43,917,1,Experiment,2023-09-12_15h44.45.586,
12,global,global,7,9,3,111,11,117,exp,ZEYUZFEYSSXNTNH,FNZLNZHESFTTYSH,4,U,X,uU,yY,n,0,3.0705415999982506,n,0,0.5950173999881372,RSVPLG01,0.94,2023-09-12-22:23:43,917,1,Experiment,2023-09-12_15h44.45.586,
7,global,local,0,9,4,112,6,118,exp,HLTFNNSUZHZYSUT,HZLEUTLYNSYSNZT,4,F,absent,fF,nN,f,1,0.419830699916929,y,0,1.1775939000071958,RSVPLG01,0.94,2023-09-12-22:23:43,917,1,Experiment,2023-09-12_15h44.45.586,
3,local,local,7,9,5,113,2,119,exp,TEUHYSLUZLEFFTY,YLUELNEFYUHZXTH,6,N,X,nN,yY,s,0,1.0456230000127107,n,0,0.4664910000283271,RSVPLG01,0.94,2023-09-12-22:23:43,917,1,Experiment,2023-09-12_15h44.45.586,
2,local,local,3,9,6,114,1,120,exp,YZHEHNSFYZFLULU,SELZUTHUXYZFYLH,6,T,X,tT,yY,n,0,0.3587062999140471,y,1,0.7103868999984115,RSVPLG01,0.94,2023-09-12-22:23:43,917,1,Experiment,2023-09-12_15h44.45.586,
5,local,global,3,9,7,115,4,121,exp,LYNFHSHLXTZEEYF,TYTNZUZNEYEHFFH,6,U,X,uU,yY,s,0,1.1018538000062108,y,1,0.2105217999778688,RSVPLG01,0.94,2023-09-12-22:23:43,917,1,Experiment,2023-09-12_15h44.45.586,
10,global,global,0,9,8,116,9,122,exp,ZZUTUFYLEELSNNF,UNUHFFYLZZNEELS,4,T,absent,tT,nN,t,1,1.3498376999050379,n,1,2.965287599945441,RSVPLG01,0.94,2023-09-12-22:23:43,917,1,Experiment,2023-09-12_15h44.45.586,
6,local,global,7,9,9,117,5,123,exp,LHNHFSEZTSUXUEN,NTTLYLUHZSHZEUE,5,Y,X,yY,yY,f,0,1.8137188999680802,y,1,0.26618959999177605,RSVPLG01,0.94,2023-09-12-22:23:43,917,1,Experiment,2023-09-12_15h44.45.586,
3,local,local,7,9,10,118,2,124,exp,HNLTZSUYSLYNUFF,FUUNEYLLTSFXNYT,5,E,X,eE,yY,z,0,1.017420000047423,y,1,1.3907649999018759,RSVPLG01,0.94,2023-09-12-22:23:43,917,1,Experiment,2023-09-12_15h44.45.586,
1,local,local,0,9,11,119,0,125,exp,TZTLHEZFHYNSYNE,EHTUZFFSTYYNNZH,4,U,absent,uU,nN,l,0,0.5990526999812573,y,0,0.470167399966158,RSVPLG01,0.94,2023-09-12-22:23:43,917,1,Experiment,2023-09-12_15h44.45.586,
11,global,global,3,10,0,120,10,126,exp,YFUSFHLLXYTTNUS,FTYSTEFULNULYNZ,6,H,X,hH,yY,h,1,0.23177920002490282,n,0,1.7605027999961749,RSVPLG01,0.94,2023-09-12-22:23:43,917,1,Experiment,2023-09-12_15h44.45.586,
5,local,global,3,10,1,121,4,127,exp,FZHENTYYXENFZLL,NYHSLUEZFLFSHZN,6,U,X,uU,yY,t,0,0.06646230001933873,n,0,1.3472243000287563,RSVPLG01,0.94,2023-09-12-22:23:43,917,1,Experiment,2023-09-12_15h44.45.586,
8,global,local,3,10,2,122,7,128,exp,ELZTSLFTFNYHHZE,LTFNULNXZHZEFHT,5,S,X,sS,yY,s,1,0.3187442000489682,y,1,1.3562319000484422,RSVPLG01,0.94,2023-09-12-22:23:43,917,1,Experiment,2023-09-12_15h44.45.586,
1,local,local,0,10,3,123,0,129,exp,TUHYFNYLNTUEZEZ,LLTNSZHUNETEZYH,5,S,absent,sS,nN,t,0,1.069847400067374,n,1,1.6421828999882564,RSVPLG01,0.94,2023-09-12-22:23:43,917,1,Experiment,2023-09-12_15h44.45.586,
6,local,global,7,10,4,124,5,130,exp,EHTUSNSYNHXFLLT,TEFZSSNYTHLEYNH,4,Z,X,zZ,yY,y,0,2.836917700013146,n,0,0.4072373000672087,RSVPLG01,0.94,2023-09-12-22:23:43,917,1,Experiment,2023-09-12_15h44.45.586,
8,global,local,3,10,5,125,7,131,exp,ZTYUSELSLZNNTHE,EYZFHEXTZNSLLNS,4,U,X,uU,yY,u,1,0.6440921999746934,y,1,0.6499098000349477,RSVPLG01,0.94,2023-09-12-22:23:43,917,1,Experiment,2023-09-12_15h44.45.586,
4,local,global,0,10,6,126,3,132,exp,SLUFNEYZFUHSHYZ,NYUUZTLYZHLSSFH,6,T,absent,tT,nN,e,0,1.201882499968633,n,1,0.7786778999725357,RSVPLG01,0.94,2023-09-12-22:23:43,917,1,Experiment,2023-09-12_15h44.45.586,
6,local,global,7,10,7,127,5,133,exp,HZSENYNFLZUFXEH,ZHNHETFULZSNLES,6,T,X,tT,yY,y,0,1.092782000079751,n,0,1.4608522000489756,RSVPLG01,0.94,2023-09-12-22:23:43,917,1,Experiment,2023-09-12_15h44.45.586,
12,global,global,7,10,8,128,11,134,exp,YSENLTEUZHNUXZY,YZYZUFHSEHLENLU,6,T,X,tT,yY,t,1,0.5527091999538243,y,1,0.3464755000313744,RSVPLG01,0.94,2023-09-12-22:23:43,917,1,Experiment,2023-09-12_15h44.45.586,
3,local,local,7,10,9,129,2,135,exp,LTTYUHZNZSYUNES,ZNLZUFNSSYETXLT,6,F,X,fF,yY,h,0,0.17980369995348155,n,0,1.0425913999788463,RSVPLG01,0.94,2023-09-12-22:23:43,917,1,Experiment,2023-09-12_15h44.45.586,
1,local,local,0,10,10,130,0,136,exp,ZHTZUYTNSEHELNS,THSTFZESYYZNLNL,5,F,absent,fF,nN,n,0,0.32900979998521507,n,1,0.7132982000475749,RSVPLG01,0.94,2023-09-12-22:23:43,917,1,Experiment,2023-09-12_15h44.45.586,
8,global,local,3,10,11,131,7,137,exp,YSNESZTNLZHHYUL,SULFYYXNUNZSHTT,4,E,X,eE,yY,e,1,1.2009028000757098,y,1,0.41863179998472333,RSVPLG01,0.94,2023-09-12-22:23:43,917,1,Experiment,2023-09-12_15h44.45.586,
7,global,local,0,11,0,132,6,138,exp,EFZUHSTNNTUSFLE,NFTZYLEETUSSLUN,5,H,absent,hH,nN,h,1,0.6283592999679968,n,1,1.5049811999779195,RSVPLG01,0.94,2023-09-12-22:23:43,917,1,Experiment,2023-09-12_15h44.45.586,
4,local,global,0,11,1,133,3,139,exp,ELNYSEUNYTTFZFL,UUZFHLYLTENNYZE,5,H,absent,hH,nN,s,0,0.37614659999962896,n,1,0.8968651999020949,RSVPLG01,0.94,2023-09-12-22:23:43,917,1,Experiment,2023-09-12_15h44.45.586,
7,global,local,0,11,2,134,6,140,exp,SUSLZLFYHHFTUYT,STNFENLHUYHULTY,5,Z,absent,zZ,nN,z,1,0.6122544999234378,y,0,0.2705885999603197,RSVPLG01,0.94,2023-09-12-22:23:43,917,1,Experiment,2023-09-12_15h44.45.586,
10,global,global,0,11,3,135,9,141,exp,EUYLZTENFTUYFNS,ZYFHZUNEESTTSUN,4,L,absent,lL,nN,l,1,0.5561106000095606,n,1,0.5121578000253066,RSVPLG01,0.94,2023-09-12-22:23:43,917,1,Experiment,2023-09-12_15h44.45.586,
8,global,local,3,11,4,136,7,142,exp,EESFUTNYZSYTHFH,YZYNLFEXHNTZSSH,5,U,X,uU,yY,u,1,0.6345353000797331,n,0,0.7928844999987632,RSVPLG01,0.94,2023-09-12-22:23:43,917,1,Experiment,2023-09-12_15h44.45.586,
6,local,global,7,11,5,137,5,143,exp,TFNNYLZHUHSXUZF,NLLZEFZTFSUUSNH,5,E,X,eE,yY,y,0,0.13255630002822727,n,0,2.898207399994135,RSVPLG01,0.94,2023-09-12-22:23:43,917,1,Experiment,2023-09-12_15h44.45.586,
9,global,local,7,11,6,138,8,144,exp,FULNHUTNYTSFLYE,TNYYZSUFNEEXLFT,5,H,X,hH,yY,h,1,0.39294429996516556,y,1,0.8755905999569222,RSVPLG01,0.94,2023-09-12-22:23:43,917,1,Experiment,2023-09-12_15h44.45.586,
10,global,global,0,11,7,139,9,145,exp,STSFNTHNYLUUEYL,YTSZUNTULSYEHHN,4,F,absent,fF,nN,u,0,1.8075768999988213,n,1,0.8106468999758363,RSVPLG01,0.94,2023-09-12-22:23:43,917,1,Experiment,2023-09-12_15h44.45.586,
8,global,local,3,11,8,140,7,146,exp,UTSFELZETHSYZLH,LYUNHHXYTZTZEES,4,F,X,fF,yY,f,1,1.2247033000458032,y,1,0.08737650001421571,RSVPLG01,0.94,2023-09-12-22:23:43,917,1,Experiment,2023-09-12_15h44.45.586,
8,global,local,3,11,9,141,7,147,exp,YNHFSLFHZUNTLYU,ZYNTEZTXFFLLUUY,5,S,X,sS,yY,s,1,0.7329425000352785,y,1,0.4187376000918448,RSVPLG01,0.94,2023-09-12-22:23:43,917,1,Experiment,2023-09-12_15h44.45.586,
1,local,local,0,11,10,142,0,148,exp,FEESLNUUYSZFYTT,YFLYEHUZSUSLZFE,6,H,absent,hH,nN,n,0,0.41025179997086525,n,1,0.0063998999539762735,RSVPLG01,0.94,2023-09-12-22:23:43,917,1,Experiment,2023-09-12_15h44.45.586,
6,local,global,7,11,11,143,5,149,exp,HHUSNZTYUTXFYLF,FUNETNHTLLYFHZY,4,E,X,eE,yY,s,0,1.5172063000500202,y,1,0.49081550003029406,RSVPLG01,0.94,2023-09-12-22:23:43,917,1,Experiment,2023-09-12_15h44.45.586,
10,global,global,0,12,0,144,9,150,exp,YTUZHENZTYNFFLE,EYZLSEUFNYZTLUF,5,H,absent,hH,nN,h,1,0.7713857999769971,y,0,1.2099442000035197,RSVPLG01,0.94,2023-09-12-22:23:43,917,1,Experiment,2023-09-12_15h44.45.586,
11,global,global,3,12,1,145,10,151,exp,FSEHYZXYENZTSUN,ZFTLUEYSNZUFENT,4,H,X,hH,yY,h,1,0.22612770006526262,n,0,0.9072736999951303,RSVPLG01,0.94,2023-09-12-22:23:43,917,1,Experiment,2023-09-12_15h44.45.586,
7,global,local,0,12,2,146,6,152,exp,USHEFLYFSZLHYZU,ZSHTHFFLNZLSUUY,4,E,absent,eE,nN,y,0,1.0571767999790609,y,0,0.6071195000549778,RSVPLG01,0.94,2023-09-12-22:23:43,917,1,Experiment,2023-09-12_15h44.45.586,
4,local,global,0,12,3,147,3,153,exp,FFLZSHNENESYUHL,YNLTFSNEHFLUYEH,4,T,absent,tT,nN,z,0,0.33686110004782677,y,0,0.9927181999664754,RSVPLG01,0.94,2023-09-12-22:23:43,917,1,Experiment,2023-09-12_15h44.45.586,
3,local,local,7,12,4,148,2,154,exp,TELUSZNHETFLUFH,NTSLFYUHEUETXHS,6,Y,X,yY,yY,z,0,0.28837229998316616,n,0,0.3530904999934137,RSVPLG01,0.94,2023-09-12-22:23:43,917,1,Experiment,2023-09-12_15h44.45.586,
11,global,global,3,12,5,149,10,155,exp,ZLHYYESFXFNULZU,NLHYZTSYNUFHLSZ,6,E,X,eE,yY,e,1,0.2446081000380218,n,0,0.8258930000010878,RSVPLG01,0.94,2023-09-12-22:23:43,917,1,Experiment,2023-09-12_15h44.45.586,
12,global,global,7,12,6,150,11,156,exp,FZUYTSLZSTXNNLU,UFSEFLZNSTUHZLH,4,Y,X,yY,yY,y,1,0.24931019998621196,n,0,0.8339892999501899,RSVPLG01,0.94,2023-09-12-22:23:43,917,1,Experiment,2023-09-12_15h44.45.586,
4,local,global,0,12,7,151,3,157,exp,LEZNHTFYZNLYSSE,YFSTUZLLNFSENTY,5,U,absent,uU,nN,n,0,0.5235075999516994,n,1,0.39246419991832227,RSVPLG01,0.94,2023-09-12-22:23:43,917,1,Experiment,2023-09-12_15h44.45.586,
5,local,global,3,12,8,152,4,158,exp,FNHTUESXNLSEZHT,HHTSYFTSFNLEELZ,5,Y,X,yY,yY,s,0,2.913466199999675,n,0,0.20838970004115254,RSVPLG01,0.94,2023-09-12-22:23:43,917,1,Experiment,2023-09-12_15h44.45.586,
7,global,local,0,12,9,153,6,159,exp,SEUZLHNHEFFUYNS,EEUFTSHFSNZUHYN,5,L,absent,lL,nN,l,1,0.6318598999641836,y,0,1.4502071000169963,RSVPLG01,0.94,2023-09-12-22:23:43,917,1,Experiment,2023-09-12_15h44.45.586,
7,global,local,0,12,10,154,6,160,exp,UNHZSEHSLUTENTL,EFEYLTSTUHULFSN,4,Z,absent,zZ,nN,z,1,0.8397950000362471,y,0,0.2521807999582961,RSVPLG01,0.94,2023-09-12-22:23:43,917,1,Experiment,2023-09-12_15h44.45.586,
1,local,local,0,12,11,155,0,161,exp,HSTNNYZHTSFLFUU,FFTTSESUNZLZHHU,6,E,absent,eE,nN,y,0,0.4765809999080375,n,1,0.7315188000211492,RSVPLG01,0.94,2023-09-12-22:23:43,917,1,Experiment,2023-09-12_15h44.45.586,
12,global,global,7,13,0,156,11,162,exp,ZZSYFUSLEHUXTHL,SZESNEZYLYULHHT,5,F,X,fF,yY,f,1,0.21673119999468327,n,0,0.6067239000694826,RSVPLG01,0.94,2023-09-12-22:23:43,917,1,Experiment,2023-09-12_15h44.45.586,
3,local,local,7,13,1,157,2,163,exp,ULUTYZTSFNNFZLE,ETUEHLSUZFNXNTL,5,H,X,hH,yY,y,0,0.3252667000051588,n,0,0.7642985000275075,RSVPLG01,0.94,2023-09-12-22:23:43,917,1,Experiment,2023-09-12_15h44.45.586,
4,local,global,0,13,2,158,3,164,exp,FFLUTEYHNHLNSUS,FUHFZEUYLYLNNSS,5,Z,absent,zZ,nN,t,0,0.10883300006389618,y,0,1.3214526999508962,RSVPLG01,0.94,2023-09-12-22:23:43,917,1,Experiment,2023-09-12_15h44.45.586,
9,global,local,7,13,3,159,8,165,exp,FZLZYNESTUTUNFE,STTLHLNEZSUXFNF,5,Y,X,yY,yY,y,1,0.28577519999817014,n,0,0.3255010999273509,RSVPLG01,0.94,2023-09-12-22:23:43,917,1,Experiment,2023-09-12_15h44.45.586,
5,local,global,3,13,4,160,4,166,exp,HHSYZLSEXTUEFTY,ZEUSTNEYHUFZHYF,6,N,X,nN,yY,l,0,1.174913499969989,n,0,0.31378740002401173,RSVPLG01,0.94,2023-09-12-22:23:43,917,1,Experiment,2023-09-12_15h44.45.586,
2,local,local,3,13,5,161,1,167,exp,ZESFNLYYNTUFTEZ,YNFFTHSEXUYSNEZ,6,H,X,hH,yY,l,0,0.21479190001264215,y,1,1.4021553000202402,RSVPLG01,0.94,2023-09-12-22:23:43,917,1,Experiment,2023-09-12_15h44.45.586,
6,local,global,7,13,6,162,5,168,exp,HZNFTFYYLHZXNLS,YHLLEYNFSSFHNUZ,5,E,X,eE,yY,t,0,0.050655300030484796,n,0,1.9299742000875995,RSVPLG01,0.94,2023-09-12-22:23:43,917,1,Experiment,2023-09-12_15h44.45.586,
11,global,global,3,13,7,163,10,169,exp,EUSHTZUXNELNLSY,SHLNFUSEZHNUELY,5,T,X,tT,yY,t,1,0.7657199999084696,n,0,0.8986905999481678,RSVPLG01,0.94,2023-09-12-22:23:43,917,1,Experiment,2023-09-12_15h44.45.586,
9,global,local,7,13,8,164,8,170,exp,YSENFZYUTHEUTHN,STNNLHYUTSHXZEY,5,F,X,fF,yY,e,0,0.034652599948458374,n,0,0.9726221000310034,RSVPLG01,0.94,2023-09-12-22:23:43,917,1,Experiment,2023-09-12_15h44.45.586,
8,global,local,3,13,9,165,7,171,exp,FZZHYESENLYLFTS,LTFUENXZZNESYLT,4,H,X,hH,yY,h,1,0.33852630003821105,y,1,1.2667753000278026,RSVPLG01,0.94,2023-09-12-22:23:43,917,1,Experiment,2023-09-12_15h44.45.586,
12,global,global,7,13,10,166,11,172,exp,FHLNTENHFSYYXTZ,HNFNYUSFHTLLZSY,6,E,X,eE,yY,e,1,0.17234500008635223,n,0,0.8663207999197766,RSVPLG01,0.94,2023-09-12-22:23:43,917,1,Experiment,2023-09-12_15h44.45.586,
5,local,global,3,13,11,167,4,173,exp,TLETZUHXNESFUNH,NHSLYEESFLFUUHT,5,Y,X,yY,yY,z,0,0.6030192000325769,n,0,2.8008600999601185,RSVPLG01,0.94,2023-09-12-22:23:43,917,1,Experiment,2023-09-12_15h44.45.586,
11,global,global,3,14,0,168,10,174,exp,HLFHTNZXENLSSEU,NULSYZELFEZSUHN,5,T,X,tT,yY,t,1,1.4245668000075966,y,1,0.6320006999885663,RSVPLG01,0.94,2023-09-12-22:23:43,917,1,Experiment,2023-09-12_15h44.45.586,
3,local,local,7,14,1,169,2,175,exp,FSYNZTZELLNHEHF,ZFNENUSHLFZEXYL,6,U,X,uU,yY,t,0,1.1296854999382049,n,0,4.129806600045413,RSVPLG01,0.94,2023-09-12-22:23:43,917,1,Experiment,2023-09-12_15h44.45.586,
1,local,local,0,14,2,170,0,176,exp,ZSNUHLESTTFHNFE,FSEUTYSEFTHNZUH,6,Y,absent,yY,nN,l,0,0.4921497000614181,y,0,0.4106552000157535,RSVPLG01,0.94,2023-09-12-22:23:43,917,1,Experiment,2023-09-12_15h44.45.586,
3,local,local,7,14,3,171,2,177,exp,FUFTZHLSNHYLYNU,YUTHEHLNTLFXUSN,5,E,X,eE,yY,z,0,0.14180350000970066,y,1,0.7193866999587044,RSVPLG01,0.94,2023-09-12-22:23:43,917,1,Experiment,2023-09-12_15h44.45.586,
7,global,local,0,14,4,172,6,178,exp,TTFUENUZSNZYYSH,SZFSLHTFUHZNYYT,5,E,absent,eE,nN,e,1,0.9636666999431327,n,1,0.45759430003818125,RSVPLG01,0.94,2023-09-12-22:23:43,917,1,Experiment,2023-09-12_15h44.45.586,
12,global,global,7,14,5,173,11,179,exp,ESSHTZLNHLYXENU,ZSUEFUEHYZNLNLS,5,T,X,tT,yY,t,1,0.48006279999390244,n,0,0.4043511999770999,RSVPLG01,0.94,2023-09-12-22:23:43,917,1,Experiment,2023-09-12_15h44.45.586,
7,global,local,0,14,6,174,6,180,exp,SNFYTFZHLNUTLZS,TUNEHLHSSNZUZLF,4,Y,absent,yY,nN,y,1,0.3199153000023216,n,1,0.2833635000279173,RSVPLG01,0.94,2023-09-12-22:23:43,917,1,Experiment,2023-09-12_15h44.45.586,
5,local,global,3,14,7,175,4,181,exp,ZTLEFUXSNSLTHZH,NUSYSFTTLHZNFUH,4,Y,X,yY,yY,e,0,0.3540416000178084,n,0,0.34043139999266714,RSVPLG01,0.94,2023-09-12-22:23:43,917,1,Experiment,2023-09-12_15h44.45.586,
4,local,global,0,14,8,176,3,182,exp,ELZFHTSNUZLUETS,EHZYUENZTLLSSNH,4,Y,absent,yY,nN,f,0,0.5765916000818834,y,0,1.2098794999765232,RSVPLG01,0.94,2023-09-12-22:23:43,917,1,Experiment,2023-09-12_15h44.45.586,
9,global,local,7,14,9,177,8,183,exp,YLHTFELUTZSEYSZ,THETNLYLZSYXZUU,5,F,X,fF,yY,f,1,1.0936808000551537,y,1,0.272189800045453,RSVPLG01,0.94,2023-09-12-22:23:43,917,1,Experiment,2023-09-12_15h44.45.586,
6,local,global,7,14,10,178,5,184,exp,ELNHNLUFSYXZSFU,FYZTUSLNNLUFZYE,4,T,X,tT,yY,h,0,0.9209623999195173,y,1,1.2053748000180349,RSVPLG01,0.94,2023-09-12-22:23:43,917,1,Experiment,2023-09-12_15h44.45.586,
10,global,global,0,14,11,179,9,185,exp,FULNYEFNYHUTSTL,FHSTNZYLULYSUFH,6,E,absent,eE,nN,e,1,2.0598493999568745,n,1,2.559700799989514,RSVPLG01,0.94,2023-09-12-22:23:43,917,1,Experiment,2023-09-12_15h44.45.586,
4,local,global,0,15,0,180,3,186,exp,SSZLUZYFTNNFLTY,ZYNTHFEELTSFLNY,5,H,absent,hH,nN,u,0,0.5069213000824675,n,1,1.3936866000294685,RSVPLG01,0.94,2023-09-12-22:23:43,917,1,Experiment,2023-09-12_15h44.45.586,
8,global,local,3,15,1,181,7,187,exp,TZEFYUHUZFLTLES,SZTHNHUXFSFELUE,5,Y,X,yY,yY,y,1,0.48091189994011074,y,1,0.7380840999539942,RSVPLG01,0.94,2023-09-12-22:23:43,917,1,Experiment,2023-09-12_15h44.45.586,
6,local,global,7,15,2,182,5,188,exp,LSTFLHZYYEXZTSH,HSLUNNYEZHTEZLY,4,U,X,uU,yY,f,0,1.5505248000845313,n,0,0.10159480001311749,RSVPLG01,0.94,2023-09-12-22:23:43,917,1,Experiment,2023-09-12_15h44.45.586,
9,global,local,7,15,3,183,8,189,exp,UTUNLYZSHTLFZSH,SHUSTELLNNHUXZF,6,Y,X,yY,yY,y,1,0.4714426000136882,n,0,0.8198864998994395,RSVPLG01,0.94,2023-09-12-22:23:43,917,1,Experiment,2023-09-12_15h44.45.586,
5,local,global,3,15,4,184,4,190,exp,THZTYFSEXNLNSZL,ENLLHUZSSHTNEYT,6,U,X,uU,yY,f,0,1.4773394000949338,n,0,1.7625158000737429,RSVPLG01,0.94,2023-09-12-22:23:43,917,1,Experiment,2023-09-12_15h44.45.586,
6,local,global,7,15,5,185,5,191,exp,NNSFLYHZHTFLXUT,NTUSLETHUZHNFLF,6,E,X,eE,yY,y,0,0.30661099997814745,n,0,0.939187900046818,RSVPLG01,0.94,2023-09-12-22:23:43,917,1,Experiment,2023-09-12_15h44.45.586,
3,local,local,7,15,6,186,2,192,exp,HSUSNZHNUTEFFLE,UFFSUYNLTHETXNE,6,Y,X,yY,yY,n,0,1.1643635999644175,n,0,0.6895630999933928,RSVPLG01,0.94,2023-09-12-22:23:43,917,1,Experiment,2023-09-12_15h44.45.586,
5,local,global,3,15,7,187,4,193,exp,ZZEUTLHXNFNFSUL,FNLSYELEUFUNHZZ,5,Y,X,yY,yY,t,0,0.7681633000029251,n,0,0.24875900009647012,RSVPLG01,0.94,2023-09-12-22:23:43,917,1,Experiment,2023-09-12_15h44.45.586,
2,local,local,3,15,8,188,1,194,exp,FUHEYFNUSTTYZZN,ZYHLUHXTFNYTFUZ,4,L,X,lL,yY,e,0,0.979204700095579,y,1,0.06574939994607121,RSVPLG01,0.94,2023-09-12-22:23:43,917,1,Experiment,2023-09-12_15h44.45.586,
11,global,global,3,15,9,189,10,195,exp,SFNLSUELXYYZENF,ENLZFHSSNTTZYEY,6,U,X,uU,yY,u,1,0.9245371000142768,n,0,0.22762040002271533,RSVPLG01,0.94,2023-09-12-22:23:43,917,1,Experiment,2023-09-12_15h44.45.586,
11,global,global,3,15,10,190,10,196,exp,LNUFESXNYUZSZHH,NNUTZLLEHHSSEZU,4,F,X,fF,yY,f,1,0.23641760007012635,n,0,1.4739214000292122,RSVPLG01,0.94,2023-09-12-22:23:43,917,1,Experiment,2023-09-12_15h44.45.586,
9,global,local,7,15,11,191,8,197,exp,YYLTNSUHZULFTZH,LSTYEFZTZYUXHFU,5,N,X,nN,yY,n,1,1.777041699970141,n,0,0.5781357999658212,RSVPLG01,0.94,2023-09-12-22:23:43,917,1,Experiment,2023-09-12_15h44.45.586,
11,global,global,3,16,0,192,10,198,exp,SZTYLENXTUSZNUY,YYENHTFFEZNTUSZ,5,L,X,lL,yY,l,1,0.6167757000075653,y,1,1.1095885999966413,RSVPLG01,0.94,2023-09-12-22:23:43,917,1,Experiment,2023-09-12_15h44.45.586,
5,local,global,3,16,1,193,4,199,exp,UYEYSFZXELTUHLZ,UHFLNLZHFTEEZYT,5,N,X,nN,yY,s,0,1.4420747999101877,n,0,0.4746583999367431,RSVPLG01,0.94,2023-09-12-22:23:43,917,1,Experiment,2023-09-12_15h44.45.586,
2,local,local,3,16,2,194,1,200,exp,LNSYHYZESELFZFT,NSENUSTXFFELYZY,5,U,X,uU,yY,h,0,0.5469292000634596,y,1,0.33831999998074025,RSVPLG01,0.94,2023-09-12-22:23:43,917,1,Experiment,2023-09-12_15h44.45.586,
3,local,local,7,16,3,195,2,201,exp,FFLHYSELTSZZETN,HTSLUSNFHTLXZFE,5,U,X,uU,yY,y,0,0.18641139997635037,n,0,0.3492983999894932,RSVPLG01,0.94,2023-09-12-22:23:43,917,1,Experiment,2023-09-12_15h44.45.586,
9,global,local,7,16,4,196,8,202,exp,HFLYZNUZFUTLHEE,FFZSLHUZETXLNHU,4,Y,X,yY,yY,y,1,0.33717309997882694,n,0,0.691025200067088,RSVPLG01,0.94,2023-09-12-22:23:43,917,1,Experiment,2023-09-12_15h44.45.586,
1,local,local,0,16,5,197,0,203,exp,HNUSLUNESYTEHTY,TESYFNUHSZZNTYU,5,F,absent,fF,nN,l,0,0.46760440000798553,n,1,0.8581626999657601,RSVPLG01,0.94,2023-09-12-22:23:43,917,1,Experiment,2023-09-12_15h44.45.586,
4,local,global,0,16,6,198,3,204,exp,NHNYFUSLUHELFTS,NLUZTSUFSTHLFEN,4,Z,absent,zZ,nN,y,0,0.23417860001791269,y,0,0.05876199994236231,RSVPLG01,0.94,2023-09-12-22:23:43,917,1,Experiment,2023-09-12_15h44.45.586,
3,local,local,7,16,7,199,2,205,exp,HYSHLUFFZESLNYZ,EYELNTZSYFSHXZN,6,T,X,tT,yY,u,0,0.8280011999886483,n,0,0.33833499997854233,RSVPLG01,0.94,2023-09-12-22:23:43,917,1,Experiment,2023-09-12_15h44.45.586,
1,local,local,0,16,8,200,0,206,exp,LEFZSUELHSTHUFT,HSSYUTLTEHUFLNE,4,Y,absent,yY,nN,z,0,0.292010199977085,n,1,0.9213627999415621,RSVPLG01,0.94,2023-09-12-22:23:43,917,1,Experiment,2023-09-12_15h44.45.586,
4,local,global,0,16,9,201,3,207,exp,TSNZHUZYEYHSFNT,YZZYELSSHHFNNET,6,L,absent,lL,nN,u,0,1.1739652999676764,y,0,1.0654745999490842,RSVPLG01,0.94,2023-09-12-22:23:43,917,1,Experiment,2023-09-12_15h44.45.586,
4,local,global,0,16,10,202,3,208,exp,FZNTTLYHSNFESYH,TZNSEUYYESZFHFN,6,U,absent,uU,nN,l,0,0.5759596000425518,n,1,1.3210669999243692,RSVPLG01,0.94,2023-09-12-22:23:43,917,1,Experiment,2023-09-12_15h44.45.586,
5,local,global,3,16,11,203,4,209,exp,NLLYFHNTXZSFZSY,YLSFEUNNFZYTTZE,6,U,X,uU,yY,h,0,0.6885052999714389,n,0,0.25510800001211464,RSVPLG01,0.94,2023-09-12-22:23:43,917,1,Experiment,2023-09-12_15h44.45.586,
4,local,global,0,17,0,204,3,210,exp,LETSTZNLFEHFUUH,EFHLFYULUTSTSNH,6,Y,absent,yY,nN,z,0,0.5308495000936091,y,0,0.904414499993436,RSVPLG01,0.94,2023-09-12-22:23:43,917,1,Experiment,2023-09-12_15h44.45.586,
11,global,global,3,17,1,205,10,211,exp,UTTNELYXFSHUHNL,YTLYZHTFNLNHUUS,5,E,X,eE,yY,e,1,1.0045889999018982,n,0,0.34707630006596446,RSVPLG01,0.94,2023-09-12-22:23:43,917,1,Experiment,2023-09-12_15h44.45.586,
12,global,global,7,17,2,206,11,212,exp,LFSFZUYEHEYSXTZ,ZTSHTNYELYSLEFH,6,U,X,uU,yY,u,1,0.40379679994657636,n,0,0.2989073999924585,RSVPLG01,0.94,2023-09-12-22:23:43,917,1,Experiment,2023-09-12_15h44.45.586,
11,global,global,3,17,3,207,10,213,exp,FYFEHZLUXHNTUNY,TNNLFSTUEFYHUYH,6,Z,X,zZ,yY,z,1,0.8621342999394983,y,1,1.652876100037247,RSVPLG01,0.94,2023-09-12-22:23:43,917,1,Experiment,2023-09-12_15h44.45.586,
6,local,global,7,17,4,208,5,214,exp,TNYYEUTLZSFFXZE,ZLNYLHTNFYETFSZ,6,H,X,hH,yY,u,0,0.39613939996343106,y,1,0.33875260001514107,RSVPLG01,0.94,2023-09-12-22:23:43,917,1,Experiment,2023-09-12_15h44.45.586,
10,global,global,0,17,5,209,9,215,exp,TLYFTUNZYSLNFHZ,SLFZNEHHFTYSNLY,6,U,absent,uU,nN,u,1,0.3641987000592053,y,0,0.9769842000678182,RSVPLG01,0.94,2023-09-12-22:23:43,917,1,Experiment,2023-09-12_15h44.45.586,
10,global,global,0,17,6,210,9,216,exp,ZYHSUHFNLYEZNEU,UZZTENUYNHLLFEY,4,S,absent,sS,nN,s,1,0.9097990000154823,n,1,0.2488333999644965,RSVPLG01,0.94,2023-09-12-22:23:43,917,1,Experiment,2023-09-12_15h44.45.586,
4,local,global,0,17,7,211,3,217,exp,ZZENLHHTYESLUSY,TLLFESHZZUYHEUS,4,F,absent,fF,nN,n,0,0.858709100051783,n,1,0.18121069995686412,RSVPLG01,0.94,2023-09-12-22:23:43,917,1,Experiment,2023-09-12_15h44.45.586,
1,local,local,0,17,8,212,0,218,exp,ZYFLFETZNTLSNUY,ZYSSUHNFLLUTYZF,6,H,absent,hH,nN,e,0,0.3151988999452442,y,0,0.9254776999587193,RSVPLG01,0.94,2023-09-12-22:23:43,917,1,Experiment,2023-09-12_15h44.45.586,
11,global,global,3,17,9,213,10,219,exp,UUFZLHLFXSYTEEY,TUESYNLULFZETFZ,6,H,X,hH,yY,h,1,0.5588192000286654,n,0,0.7530147000215948,RSVPLG01,0.94,2023-09-12-22:23:43,917,1,Experiment,2023-09-12_15h44.45.586,
9,global,local,7,17,10,214,8,220,exp,SELUYFSTYNEUZLN,LYZTTHLYZSNUXNE,6,F,X,fF,yY,f,1,0.6278286000015214,y,1,0.2185452999547124,RSVPLG01,0.94,2023-09-12-22:23:43,917,1,Experiment,2023-09-12_15h44.45.586,
7,global,local,0,17,11,215,6,221,exp,TSNHFLTZEUEUFZS,SUEHTYFTHUENSZZ,6,L,absent,lL,nN,l,1,0.5287263999925926,n,1,0.15662249992601573,RSVPLG01,0.94,2023-09-12-22:23:43,917,1,Experiment,2023-09-12_15h44.45.586,
7,global,local,0,18,0,216,6,222,exp,LUTUNESHEZLFFSZ,HZZUYETFETHLFUS,5,N,absent,nN,nN,n,1,0.34377229993697256,y,0,0.5389038999564946,RSVPLG01,0.94,2023-09-12-22:23:43,917,1,Experiment,2023-09-12_15h44.45.586,
3,local,local,7,18,1,217,2,223,exp,YYNFZFTLEHTSSEL,NNHSUHYTSLLXFYF,5,U,X,uU,yY,z,0,0.41534529998898506,n,0,0.2348710000514984,RSVPLG01,0.94,2023-09-12-22:23:43,917,1,Experiment,2023-09-12_15h44.45.586,
12,global,global,7,18,2,218,11,224,exp,NSSHHTNYUZYZXUL,UHHSYELSUNNYLFZ,6,T,X,tT,yY,t,1,0.020200699917040765,y,1,1.1539172999328002,RSVPLG01,0.94,2023-09-12-22:23:43,917,1,Experiment,2023-09-12_15h44.45.586,
1,local,local,0,18,3,219,0,225,exp,NNETFHUHEYTYUSZ,HZESLYZUUSNYTHT,5,L,absent,lL,nN,h,0,1.327649199985899,n,1,1.0268743000924587,RSVPLG01,0.94,2023-09-12-22:23:43,917,1,Experiment,2023-09-12_15h44.45.586,
2,local,local,3,18,4,220,1,226,exp,LTYSLHZHYTENEZN,YHEUNEXNLFLZFTZ,4,U,X,uU,yY,s,0,0.487972000031732,y,1,0.2583927999949083,RSVPLG01,0.94,2023-09-12-22:23:43,917,1,Experiment,2023-09-12_15h44.45.586,
10,global,global,0,18,5,221,9,227,exp,SLNTFUNYFZSUZEY,SLZHNEEFNSUYUFZ,4,T,absent,tT,nN,t,1,0.7724423999898136,n,1,0.4242400999646634,RSVPLG01,0.94,2023-09-12-22:23:43,917,1,Experiment,2023-09-12_15h44.45.586,
8,global,local,3,18,6,222,7,228,exp,UUEYZFHHSEFLTTY,EUYFNTUXLSFYHHL,5,Z,X,zZ,yY,z,1,0.23827959992922843,y,1,0.24259510007686913,RSVPLG01,0.94,2023-09-12-22:23:43,917,1,Experiment,2023-09-12_15h44.45.586,
6,local,global,7,18,7,223,5,229,exp,LNSHSUZEFFXUZNL,ZUNYTFTEZLLSSEF,4,Y,X,yY,yY,h,0,0.059414700022898614,n,0,0.3154062000103295,RSVPLG01,0.94,2023-09-12-22:23:43,917,1,Experiment,2023-09-12_15h44.45.586,
2,local,local,3,18,8,224,1,230,exp,HNZTULYHEFFUEZY,HHFNUSEYXNTZFTE,6,S,X,sS,yY,l,0,0.3009366999613121,y,1,1.2653766999719664,RSVPLG01,0.94,2023-09-12-22:23:43,917,1,Experiment,2023-09-12_15h44.45.586,
3,local,local,7,18,9,225,2,231,exp,USZSLNFTZHHLTEF,LUHZZYTHFESTXSE,6,Y,X,yY,yY,n,0,0.5473626999882981,n,0,0.12258409999776632,RSVPLG01,0.94,2023-09-12-22:23:43,917,1,Experiment,2023-09-12_15h44.45.586,
10,global,global,0,18,10,226,9,232,exp,THLUYENSYHLEFNT,SLSZENLEHYYFTHF,4,U,absent,uU,nN,u,1,0.4717861000681296,y,0,0.7364010000601411,RSVPLG01,0.94,2023-09-12-22:23:43,917,1,Experiment,2023-09-12_15h44.45.586,
6,local,global,7,18,11,227,5,233,exp,FFTZTNESNLXHYLS,HSYUEENYTHTNLSF,4,U,X,uU,yY,z,0,0.08631469996180385,n,0,0.28979660000186414,RSVPLG01,0.94,2023-09-12-22:23:43,917,1,Experiment,2023-09-12_15h44.45.586,
2,local,local,3,19,0,228,1,234,exp,HSHLETFENSFZYYZ,LNHSLUFYXYSENFE,6,U,X,uU,yY,t,0,0.22174249996896833,y,1,0.2670323000056669,RSVPLG01,0.94,2023-09-12-22:23:43,917,1,Experiment,2023-09-12_15h44.45.586,
12,global,global,7,19,1,229,11,235,exp,SEEZYFUFHLLXTZH,LEZHNFUEZSHTLFT,5,Y,X,yY,yY,y,1,0.4467240000376478,n,0,0.6918607000261545,RSVPLG01,0.94,2023-09-12-22:23:43,917,1,Experiment,2023-09-12_15h44.45.586,
5,local,global,3,19,2,230,4,236,exp,SEHNZYXYHTEZUUT,UTHFZYYTZLLHSUS,4,F,X,fF,yY,n,0,0.21836480009369552,n,0,0.024500299943611026,RSVPLG01,0.94,2023-09-12-22:23:43,917,1,Experiment,2023-09-12_15h44.45.586,
3,local,local,7,19,3,231,2,237,exp,TUEYTZSNEUZLNLS,THLFESTZNUXUZNS,4,F,X,fF,yY,y,0,0.17331049998756498,y,1,0.275392199982889,RSVPLG01,0.94,2023-09-12-22:23:43,917,1,Experiment,2023-09-12_15h44.45.586,
2,local,local,3,19,4,232,1,238,exp,LYUTYFUEZHSZLSF,SSYNHYXZHLFEUUL,4,N,X,nN,yY,t,0,0.29988239996600896,y,1,1.2814913999754936,RSVPLG01,0.94,2023-09-12-22:23:43,917,1,Experiment,2023-09-12_15h44.45.586,
9,global,local,7,19,5,233,8,239,exp,LZZFTYFESLNETSN,STFHHULZZLTEXEN,6,Y,X,yY,yY,y,1,0.2899416999425739,y,1,0.18729439994785935,RSVPLG01,0.94,2023-09-12-22:23:43,917,1,Experiment,2023-09-12_15h44.45.586,
1,local,local,0,19,6,234,0,240,exp,SFYLTEZENFZYHHT,TZTUNFYFYSHSNZE,4,U,absent,uU,nN,l,0,0.0631452000234276,y,0,0.8333766999421641,RSVPLG01,0.94,2023-09-12-22:23:43,917,1,Experiment,2023-09-12_15h44.45.586,
3,local,local,7,19,7,235,2,241,exp,ZESTFYHZFHEUNUT,FNTFSLTUUSNHXEZ,6,L,X,lL,yY,y,0,0.018608500016853213,y,1,0.002105899970047176,RSVPLG01,0.94,2023-09-12-22:23:43,917,1,Experiment,2023-09-12_15h44.45.586,
10,global,global,0,19,8,236,9,242,exp,YNETFEYZTZLUSNL,ZUELHTUSYNYNZSE,5,F,absent,fF,nN,f,1,0.3030414000386372,n,1,0.5771526999305934,RSVPLG01,0.94,2023-09-12-22:23:43,917,1,Experiment,2023-09-12_15h44.45.586,
8,global,local,3,19,9,237,7,243,exp,FHTYLNEHLSFZZET,TZLUZFXHHEETLSF,4,Y,X,yY,yY,y,1,0.8464807999553159,y,1,0.18489130004309118,RSVPLG01,0.94,2023-09-12-22:23:43,917,1,Experiment,2023-09-12_15h44.45.586,
11,global,global,3,19,10,238,10,244,exp,FNLUTTXYZZFSYSE,EZTHLNSSFZFTYNE,4,U,X,uU,yY,u,1,0.4817712999647483,n,0,0.3445531000616029,RSVPLG01,0.94,2023-09-12-22:23:43,917,1,Experiment,2023-09-12_15h44.45.586,
6,local,global,7,19,11,239,5,245,exp,FSLYZLUEUTXHHST,EZTNLUZSFSUHLFT,4,N,X,nN,yY,y,0,0.29537900001741946,n,0,0.7629897000733763,RSVPLG01,0.94,2023-09-12-22:23:43,917,1,Experiment,2023-09-12_15h44.45.586,
