exp,exp_initials,runtime,ver,modtime,sub,blocktype,targets,cuetype,mode,trialtype,trial,trialtime,t1_level,t2_level,t2_lag,t1,t2,distractor1,distractor2,stimfile1,stimfile2,t1_corr,t2_corr,maskfile1,maskfile2,t1_resp,t1_acc,t1_rt,t2_resp,t2_acc,t2_rt,t1_dur,t2_dur,t1mask_soa,t2mask_soa,t1t2_soa
RSVPLG03,cs,20260304-142349,1.0.2,20251105-084826,785,Introduction,T1,1,Automatic,main,1,20260304-142411,local,local,750,S,S,A,E,A-S.png,E-S.png,sS,sS,mask-2.png,mask-1.png,s,1,4.651716000051238,none,-5,0,0.09750220004934818,0.09753789997193962,0.20055299997329712,0.19856239994987845,0.7503611000720412
RSVPLG03,cs,20260304-142349,1.0.2,20251105-084826,785,Introduction,T1,1,Automatic,main,2,20260304-142419,local,global,750,H,S,E,E,E-H.png,S-E.png,hH,sS,mask-4.png,mask-2.png,h,1,1.4430208000121638,none,-5,0,0.09846779995132238,0.09720700001344085,0.19956780003849417,0.2000614000717178,0.7496735999593511
RSVPLG03,cs,20260304-142349,1.0.2,20251105-084826,785,Introduction,T1,1,Automatic,main,3,20260304-142425,global,local,750,H,H,E,E,H-E.png,E-H.png,hH,hH,mask-1.png,mask-2.png,h,1,2.014670900069177,none,-5,0,0.09752849990036339,0.09737900004256517,0.20052849990315735,0.19945280009415,0.7494360998971388
RSVPLG03,cs,20260304-142349,1.0.2,20251105-084826,785,Introduction,T1,1,Automatic,main,4,20260304-142431,local,local,750,S,S,E,A,E-S.png,A-S.png,sS,sS,mask-2.png,mask-2.png,s,1,0.9326459000585601,none,-5,0,0.09555279999040067,0.09866879996843636,0.19804280006792396,0.20038489997386932,0.7477071000030264
RSVPLG03,cs,20260304-142349,1.0.2,20251105-084826,785,Introduction,T1,1,Automatic,main,5,20260304-142436,local,global,750,S,H,A,A,A-S.png,H-A.png,sS,hH,mask-2.png,mask-3.png,none,-6,0,none,-5,0,0.09755029994994402,0.09560020000208169,0.19967180001549423,0.20000440010335296,0.7502948999172077
RSVPLG03,cs,20260304-142448,1.0.2,20251105-084826,785,Practice,T1,1,Automatic,main,1,20260304-142513,local,local,750,H,S,A,A,A-H.png,A-S.png,hH,sS,mask-4.png,mask-2.png,h,1,1.6133236000314355,none,-5,0,0.04034419998060912,0.047382700024172664,0.09416029998101294,0.09991069999523461,0.7429918999550864
RSVPLG03,cs,20260304-142448,1.0.2,20251105-084826,785,Practice,T1,1,Automatic,main,2,20260304-142519,local,global,750,S,H,E,A,E-S.png,H-A.png,sS,hH,mask-3.png,mask-4.png,s,1,0.24800489994231611,none,-5,0,0.04768670001067221,0.04665299993939698,0.09988970006816089,0.09983590000774711,0.7482788000488654
RSVPLG03,cs,20260304-142448,1.0.2,20251105-084826,785,Practice,T1,1,Automatic,main,3,20260304-142523,global,global,300,H,H,A,E,H-A.png,H-E.png,hH,hH,mask-3.png,mask-1.png,h,1,1.760256899986416,none,-5,0,0.04854629992041737,0.04703989997506142,0.10062329994980246,0.10039689997211099,0.30020209995564073
RSVPLG03,cs,20260304-142448,1.0.2,20251105-084826,785,Practice,T1,1,Automatic,main,4,20260304-142528,global,global,750,H,S,A,A,H-A.png,S-A.png,hH,sS,mask-1.png,mask-3.png,s,0,0.5742707999888808,none,-5,0,0.04763799998909235,0.04746010003145784,0.10057200002484024,0.09935270005371422,0.7498764999909326
RSVPLG03,cs,20260304-142448,1.0.2,20251105-084826,785,Practice,T1,1,Automatic,main,5,20260304-142533,global,local,750,H,S,E,E,H-E.png,E-S.png,hH,sS,mask-2.png,mask-4.png,h,1,0.47203180007636547,none,-5,0,0.04673910001292825,0.04671080003026873,0.09820569993462414,0.09971009998116642,0.748057599994354
RSVPLG03,cs,20260304-142448,1.0.2,20251105-084826,785,Practice,T1,1,Automatic,main,6,20260304-142537,global,local,300,H,H,A,E,H-A.png,E-H.png,hH,hH,mask-1.png,mask-2.png,h,1,2.2332693999633193,none,-5,0,0.044370600022375584,0.04753710003569722,0.09729369997512549,0.10153530002571642,0.2966309000039473
RSVPLG03,cs,20260304-142448,1.0.2,20251105-084826,785,Practice,T1,1,Automatic,main,7,20260304-142543,local,global,750,H,H,A,A,A-H.png,H-A.png,hH,hH,mask-3.png,mask-4.png,h,1,1.2471188999479637,none,-5,0,0.04769689997192472,0.04883870005141944,0.10088969999924302,0.10203370009548962,0.7484735999023542
RSVPLG03,cs,20260304-142448,1.0.2,20251105-084826,785,Practice,T1,1,Automatic,main,8,20260304-142548,global,local,300,S,S,E,A,S-E.png,A-S.png,sS,sS,mask-4.png,mask-1.png,s,1,0.7367243999615312,none,-5,0,0.04766030004248023,0.045576400007121265,0.10001200006809086,0.09787820000201464,0.30120260000694543
RSVPLG03,cs,20260304-142448,1.0.2,20251105-084826,785,Practice,T1,1,Automatic,main,9,20260304-142552,global,global,300,S,S,A,E,S-A.png,S-E.png,sS,sS,mask-2.png,mask-4.png,s,1,1.3931478000013158,none,-5,0,0.04768010007683188,0.04651459993328899,0.09966130007524043,0.0984340999275446,0.300907300086692
RSVPLG03,cs,20260304-142448,1.0.2,20251105-084826,785,Practice,T1,1,Automatic,main,10,20260304-142557,local,global,300,H,S,E,A,E-H.png,S-A.png,hH,sS,mask-4.png,mask-4.png,h,1,0.4517063999082893,none,-5,0,0.04847779998090118,0.04718849994242191,0.09978980000596493,0.1000602999702096,0.2992210000520572
RSVPLG03,cs,20260304-142448,1.0.2,20251105-084826,785,Practice,T1,1,Automatic,main,11,20260304-142601,local,global,300,H,H,E,E,E-H.png,H-E.png,hH,hH,mask-2.png,mask-1.png,h,1,1.5338553000474349,none,-5,0,0.048767499974928796,0.048520099953748286,0.10081979993265122,0.1005743999266997,0.2999627999961376
RSVPLG03,cs,20260304-142448,1.0.2,20251105-084826,785,Practice,T1,1,Automatic,main,12,20260304-142607,global,local,750,S,S,E,A,S-E.png,A-S.png,sS,sS,mask-3.png,mask-4.png,s,1,0.5906279000919312,none,-5,0,0.047686300007626414,0.04573900008108467,0.09920810000039637,0.09802600007969886,0.7483735999558121
RSVPLG03,cs,20260304-142448,1.0.2,20251105-084826,785,Practice,T1,1,Automatic,main,13,20260304-142611,local,local,300,H,S,A,E,A-H.png,E-S.png,hH,sS,mask-2.png,mask-4.png,h,1,0.39006609993521124,none,-5,0,0.04549140005838126,0.048583899973891675,0.09849370003212243,0.10160709999036044,0.2973888000706211
RSVPLG03,cs,20260304-142448,1.0.2,20251105-084826,785,Practice,T1,1,Automatic,main,14,20260304-142615,local,local,750,S,S,A,A,A-S.png,A-S.png,sS,sS,mask-2.png,mask-2.png,h,0,1.127547200070694,none,-5,0,0.04641239996999502,0.04851039999630302,0.09865719999652356,0.09947329992428422,0.7480652000522241
RSVPLG03,cs,20260304-142448,1.0.2,20251105-084826,785,Practice,T1,1,Automatic,main,15,20260304-142620,local,local,300,H,H,A,E,A-H.png,E-H.png,hH,hH,mask-2.png,mask-2.png,s,0,0.8426228000316769,none,-5,0,0.04834530001971871,0.047080900054425,0.09963369998149574,0.1007493999786675,0.2997641999972984
RSVPLG03,cs,20260304-142448,1.0.2,20251105-084826,785,Practice,T1,1,Automatic,main,16,20260304-142625,global,global,750,S,H,A,A,S-A.png,H-A.png,sS,hH,mask-2.png,mask-3.png,h,0,0.7233002000721171,none,-5,0,0.04768219997640699,0.04865560005418956,0.09988499991595745,0.10072790004778653,0.7489681999431923
RSVPLG03,cs,20260304-142705,1.0.2,20251105-084826,785,Practice,T1,1,Automatic,main,1,20260304-142720,global,local,300,H,H,E,A,H-E.png,A-H.png,hH,hH,mask-3.png,mask-2.png,h,1,0.7448498000157997,none,-5,0,0.04212639993056655,0.048647599993273616,0.09444959997199476,0.10124530002940446,0.29348079999908805
RSVPLG03,cs,20260304-142705,1.0.2,20251105-084826,785,Practice,T1,1,Automatic,main,2,20260304-142724,global,local,750,S,H,E,A,S-E.png,A-H.png,sS,hH,mask-3.png,mask-4.png,s,1,0.3629424999235198,none,-5,0,0.047610500012524426,0.04756139998789877,0.09879109996836632,0.09873359999619424,0.7505061000119895
RSVPLG03,cs,20260304-142705,1.0.2,20251105-084826,785,Practice,T1,1,Automatic,main,3,20260304-142729,local,local,750,S,H,E,A,E-S.png,A-H.png,sS,hH,mask-3.png,mask-1.png,s,1,0.2980195999844,none,-5,0,0.047998499940149486,0.04564549995120615,0.10122279997449368,0.09897369996178895,0.7520481999963522
RSVPLG03,cs,20260304-142705,1.0.2,20251105-084826,785,Practice,T1,1,Automatic,main,4,20260304-142733,local,local,300,S,H,E,A,E-S.png,A-H.png,sS,hH,mask-3.png,mask-2.png,s,1,0.32877499994356185,none,-5,0,0.04756720003206283,0.046900699962861836,0.10059529996942729,0.09921720006968826,0.3007542999694124
RSVPLG03,cs,20260304-142705,1.0.2,20251105-084826,785,Practice,T1,1,Automatic,main,5,20260304-142737,global,local,750,S,H,E,A,S-E.png,A-H.png,sS,hH,mask-4.png,mask-4.png,s,1,0.2635937000159174,none,-5,0,0.047807499999180436,0.04756689991336316,0.10067379998508841,0.09981409995816648,0.7514991000061855
RSVPLG03,cs,20260304-142705,1.0.2,20251105-084826,785,Practice,T1,1,Automatic,main,6,20260304-142741,global,global,300,H,S,E,A,H-E.png,S-A.png,hH,sS,mask-2.png,mask-3.png,s,0,0.4306461000815034,none,-5,0,0.04760509997140616,0.04751520010177046,0.10059970000293106,0.09956620004959404,0.30089179996866733
RSVPLG03,cs,20260304-142705,1.0.2,20251105-084826,785,Practice,T1,1,Automatic,main,7,20260304-142745,global,global,750,H,H,A,A,H-A.png,H-A.png,hH,hH,mask-3.png,mask-3.png,h,1,0.35268529993481934,none,-5,0,0.04761290003079921,0.04698620003182441,0.10014320001937449,0.09939119999762625,0.7521496000699699
RSVPLG03,cs,20260304-142705,1.0.2,20251105-084826,785,Practice,T1,1,Automatic,main,8,20260304-142749,local,local,750,S,H,A,E,A-S.png,E-H.png,sS,hH,mask-1.png,mask-3.png,s,1,0.9285324000520632,none,-5,0,0.045937699964269996,0.04653560009319335,0.09913690004032105,0.09856340009719133,0.7506999999750406
RSVPLG03,cs,20260304-142705,1.0.2,20251105-084826,785,Practice,T1,1,Automatic,main,9,20260304-142754,global,global,750,H,S,A,E,H-A.png,S-E.png,hH,sS,mask-4.png,mask-1.png,h,1,0.033443800057284534,none,-5,0,0.046567499986849725,0.04766159993596375,0.09961109992582351,0.09977309999521822,0.7509191000135615
RSVPLG03,cs,20260304-142705,1.0.2,20251105-084826,785,Practice,T1,1,Automatic,main,10,20260304-142758,global,global,300,S,S,A,E,S-A.png,S-E.png,sS,sS,mask-4.png,mask-2.png,h,0,1.065255899913609,none,-5,0,0.04755110002588481,0.046978400088846684,0.10063870006706566,0.09999600006267428,0.3000230999896303
RSVPLG03,cs,20260304-142705,1.0.2,20251105-084826,785,Practice,T1,1,Automatic,main,11,20260304-142803,local,local,300,H,H,E,A,E-H.png,A-H.png,hH,hH,mask-2.png,mask-3.png,h,1,0.6923393000615761,none,-5,0,0.04770899994764477,0.04767640004865825,0.09990549995563924,0.09926030004862696,0.29946449992712587
RSVPLG03,cs,20260304-142705,1.0.2,20251105-084826,785,Practice,T1,1,Automatic,main,12,20260304-142807,local,global,750,H,S,A,E,A-H.png,S-E.png,hH,sS,mask-2.png,mask-1.png,h,1,0.9332891000667587,none,-5,0,0.0475754999788478,0.04862469993531704,0.0995937999105081,0.09915839997120202,0.7494909999659285
RSVPLG03,cs,20260304-142705,1.0.2,20251105-084826,785,Practice,T1,1,Automatic,main,13,20260304-142812,local,global,300,H,H,E,E,E-H.png,H-E.png,hH,hH,mask-2.png,mask-4.png,s,0,0.456105999997817,none,-5,0,0.048623899929225445,0.04756570002064109,0.09963770001195371,0.10043890005908906,0.30089119996409863
RSVPLG03,cs,20260304-142705,1.0.2,20251105-084826,785,Practice,T1,1,Automatic,main,14,20260304-142816,local,global,750,S,S,E,A,E-S.png,S-A.png,sS,sS,mask-3.png,mask-2.png,s,1,0.17982379999011755,none,-5,0,0.046495200018398464,0.047548400005325675,0.10001829999964684,0.09939320001285523,0.750427299994044
RSVPLG03,cs,20260304-142705,1.0.2,20251105-084826,785,Practice,T1,1,Automatic,main,15,20260304-142820,global,local,300,S,H,A,E,S-A.png,E-H.png,sS,hH,mask-3.png,mask-1.png,s,1,0.8766190999886021,none,-5,0,0.04647910001222044,0.04587739997077733,0.10096050007268786,0.09996979997958988,0.30094850005116314
RSVPLG03,cs,20260304-142705,1.0.2,20251105-084826,785,Practice,T1,1,Automatic,main,16,20260304-142825,local,global,300,H,H,A,E,A-H.png,H-E.png,hH,hH,mask-4.png,mask-4.png,h,1,0.26802909991238266,none,-5,0,0.04754199995659292,0.04670169996097684,0.10057869995944202,0.0990294999210164,0.30082270002458245
RSVPLG03,cs,20260304-142905,1.0.2,20251105-084826,785,Practice,Both,1,Automatic,main,1,20260304-142931,local,global,300,S,S,A,E,A-S.png,S-E.png,sS,sS,mask-1.png,mask-3.png,s,1,1.9349084000568837,h,0,0.09057860006578267,0.04003129992634058,0.04659689997788519,0.09081129997503012,0.09963650000281632,0.29176860000006855
RSVPLG03,cs,20260304-142905,1.0.2,20251105-084826,785,Practice,Both,1,Automatic,main,2,20260304-142937,global,local,300,S,S,E,E,S-E.png,E-S.png,sS,sS,mask-1.png,mask-3.png,s,1,0.787331800092943,h,0,0.05450580001343042,0.04671919997781515,0.047749899909831583,0.09812480001710355,0.10089219990186393,0.29698260000441223
RSVPLG03,cs,20260304-142905,1.0.2,20251105-084826,785,Practice,Both,1,Automatic,main,3,20260304-142942,global,global,300,H,S,E,A,H-E.png,S-A.png,hH,sS,mask-1.png,mask-2.png,s,0,1.0526009999448434,h,0,1.1647793999873102,0.04759039997588843,0.04754940001294017,0.09963770001195371,0.09956869995221496,0.29928999999538064
RSVPLG03,cs,20260304-142905,1.0.2,20251105-084826,785,Practice,Both,1,Automatic,main,4,20260304-142946,global,local,300,S,H,A,A,S-A.png,A-H.png,sS,hH,mask-3.png,mask-1.png,s,1,0.860175299923867,h,1,1.8065058999927714,0.04657160001806915,0.04750119999516755,0.09958539996296167,0.09950160002335906,0.29890439996961504
RSVPLG03,cs,20260304-142905,1.0.2,20251105-084826,785,Practice,Both,1,Automatic,main,5,20260304-142953,local,global,300,H,H,E,A,E-H.png,H-A.png,hH,hH,mask-3.png,mask-1.png,s,0,3.509068999905139,h,1,0.9647288999985904,0.04748790001031011,0.04783430008683354,0.1005034000845626,0.09994470002129674,0.29840410000178963
RSVPLG03,cs,20260304-142905,1.0.2,20251105-084826,785,Practice,Both,1,Automatic,main,6,20260304-143001,local,local,300,S,S,E,A,E-S.png,A-S.png,sS,sS,mask-1.png,mask-2.png,s,1,2.0754992000292987,s,1,2.2446541000390425,0.0456955999834463,0.048316000029444695,0.09842569997999817,0.10010490007698536,0.2980641999747604
RSVPLG03,cs,20260304-142905,1.0.2,20251105-084826,785,Practice,Both,1,Automatic,main,7,20260304-143009,local,global,750,H,S,E,A,E-H.png,S-A.png,hH,sS,mask-2.png,mask-1.png,s,0,3.1463903000112623,s,1,1.222788400016725,0.048420799896121025,0.0464161999989301,0.10004349995870143,0.09947989997453988,0.748801999958232
RSVPLG03,cs,20260304-142905,1.0.2,20251105-084826,785,Practice,Both,1,Automatic,main,8,20260304-143018,global,global,750,S,H,A,A,S-A.png,H-A.png,sS,hH,mask-3.png,mask-4.png,s,1,1.7371153000276536,h,1,0.38967259996570647,0.047473999904468656,0.0497911999700591,0.09831699996721,0.10101440001744777,0.7458527999697253
RSVPLG03,cs,20260304-142905,1.0.2,20251105-084826,785,Practice,Both,1,Automatic,main,9,20260304-143024,global,local,750,H,H,E,A,H-E.png,A-H.png,hH,hH,mask-1.png,mask-1.png,s,0,2.0337973999558017,s,0,0.41859660006593913,0.04767700005322695,0.0485682999715209,0.10084199998527765,0.10016569995786995,0.7483071000315249
RSVPLG03,cs,20260304-142905,1.0.2,20251105-084826,785,Practice,Both,1,Automatic,main,10,20260304-143031,local,local,300,S,S,E,E,E-S.png,E-S.png,sS,sS,mask-4.png,mask-4.png,s,1,2.012315999949351,s,1,0.42633490008302033,0.04785159998573363,0.047625500010326505,0.09965119999833405,0.10080179991200566,0.30001100001391023
RSVPLG03,cs,20260304-142905,1.0.2,20251105-084826,785,Practice,Both,1,Automatic,main,11,20260304-143037,global,global,300,S,H,A,A,S-A.png,H-A.png,sS,hH,mask-3.png,mask-1.png,s,1,0.8437401000410318,h,1,0.25609189993701875,0.04917800007387996,0.04648350004572421,0.10006950004026294,0.09950770006980747,0.3007895000046119
RSVPLG03,cs,20260304-142905,1.0.2,20251105-084826,785,Practice,Both,1,Automatic,main,12,20260304-143042,global,local,750,H,S,A,A,H-A.png,A-S.png,hH,sS,mask-4.png,mask-1.png,s,0,4.538207300007343,h,0,0.34577739995438606,0.04767680005170405,0.04769379994831979,0.09987290005665272,0.09990609996020794,0.7479901000624523
RSVPLG03,cs,20260304-142905,1.0.2,20251105-084826,785,Practice,Both,1,Automatic,main,13,20260304-143051,global,global,750,S,S,A,E,S-A.png,S-E.png,sS,sS,mask-4.png,mask-3.png,s,1,1.2810573000460863,s,1,0.6123397999908775,0.047675900044851005,0.04759380000177771,0.10006169998086989,0.09966039995197207,0.747895700042136
RSVPLG03,cs,20260304-142905,1.0.2,20251105-084826,785,Practice,Both,1,Automatic,main,14,20260304-143057,local,global,750,H,H,E,A,E-H.png,H-A.png,hH,hH,mask-4.png,mask-1.png,h,1,1.5943100000731647,h,1,0.24738120008260012,0.047573299962095916,0.04924799990840256,0.09954399999696761,0.10015579999890178,0.746971599990502
RSVPLG03,cs,20260304-142905,1.0.2,20251105-084826,785,Practice,Both,1,Automatic,main,15,20260304-143103,local,local,750,H,H,E,E,E-H.png,E-H.png,hH,hH,mask-3.png,mask-4.png,h,1,1.4187747000250965,s,0,0.2592041000025347,0.047519999905489385,0.0477356999181211,0.09843109990470111,0.0999862999888137,0.7465419999789447
RSVPLG03,cs,20260304-142905,1.0.2,20251105-084826,785,Practice,Both,1,Automatic,main,16,20260304-143108,local,local,750,H,S,E,E,E-H.png,E-S.png,hH,sS,mask-4.png,mask-4.png,h,1,1.3785896000918,s,1,0.21824020007625222,0.04592420009430498,0.04750510002486408,0.10003520001191646,0.10050140006933361,0.7475893000373617
RSVPLG03,cs,20260304-143130,1.0.2,20251105-084826,785,Practice,Both,1,Automatic,main,1,20260304-143302,global,local,750,S,S,A,E,S-A.png,E-S.png,sS,sS,mask-2.png,mask-1.png,h,0,1.5650543000083417,s,1,0.9869252999778837,0.04021350003313273,0.048155699972994626,0.09300770005211234,0.10138740006368607,0.7425832999870181
RSVPLG03,cs,20260304-143130,1.0.2,20251105-084826,785,Practice,Both,1,Automatic,main,2,20260304-143309,global,global,750,H,S,E,E,H-E.png,S-E.png,hH,sS,mask-4.png,mask-1.png,h,1,1.1475265000481158,s,1,0.2885277000023052,0.04867199994623661,0.04858309996780008,0.10094040003605187,0.099831199971959,0.7505250000394881
RSVPLG03,cs,20260304-143130,1.0.2,20251105-084826,785,Practice,Both,1,Automatic,main,3,20260304-143314,global,local,750,S,S,E,E,S-E.png,E-S.png,sS,sS,mask-4.png,mask-2.png,s,1,0.5942469000583515,s,1,0.23164170002564788,0.04681079997681081,0.047452199971303344,0.09952159994281828,0.0997013000305742,0.7500561999622732
RSVPLG03,cs,20260304-143130,1.0.2,20251105-084826,785,Practice,Both,1,Automatic,main,4,20260304-143319,global,global,300,H,S,E,A,H-E.png,S-A.png,hH,sS,mask-3.png,mask-4.png,s,0,3.862826499971561,h,0,0.4432453999761492,0.04607799998484552,0.04767519992310554,0.09934790001716465,0.0998490999918431,0.2999558000592515
RSVPLG03,cs,20260304-143130,1.0.2,20251105-084826,785,Practice,Both,1,Automatic,main,5,20260304-143328,global,global,750,H,H,A,A,H-A.png,H-A.png,hH,hH,mask-2.png,mask-4.png,s,0,1.0932401000754908,h,1,0.29375159996561706,0.04727530002128333,0.04704059998039156,0.09968909993767738,0.09921599994413555,0.7502311000134796
RSVPLG03,cs,20260304-143130,1.0.2,20251105-084826,785,Practice,Both,1,Automatic,main,6,20260304-143333,global,local,300,H,S,E,A,H-E.png,A-S.png,hH,sS,mask-1.png,mask-1.png,h,1,1.2803768999874592,h,0,0.08718719996977597,0.0487126000225544,0.04760189994703978,0.09998749999795109,0.10062099993228912,0.30131160002201796
RSVPLG03,cs,20260304-143130,1.0.2,20251105-084826,785,Practice,Both,1,Automatic,main,7,20260304-143338,global,global,300,S,H,E,A,S-E.png,H-A.png,sS,hH,mask-1.png,mask-3.png,h,0,0.9159354999428615,s,0,0.011943100020289421,0.04753880004864186,0.04842380003537983,0.10053870000410825,0.10131510009523481,0.2991171999601647
RSVPLG03,cs,20260304-143130,1.0.2,20251105-084826,785,Practice,Both,1,Automatic,main,8,20260304-143343,local,local,300,H,S,A,E,A-H.png,E-S.png,hH,sS,mask-1.png,mask-2.png,h,1,0.9215880000265315,s,1,0.6147838999750093,0.04853420006111264,0.04756590002216399,0.10062190005555749,0.10063530004117638,0.30083449999801815
RSVPLG03,cs,20260304-143130,1.0.2,20251105-084826,785,Practice,Both,1,Automatic,main,9,20260304-143348,local,local,750,S,H,E,A,E-S.png,A-H.png,sS,hH,mask-4.png,mask-3.png,s,1,0.8425241999793798,h,1,0.4387915999395773,0.04750139999669045,0.047795799910090864,0.09988880006130785,0.10085379995871335,0.7504710000939667
RSVPLG03,cs,20260304-143130,1.0.2,20251105-084826,785,Practice,Both,1,Automatic,main,10,20260304-143353,local,global,300,S,H,A,A,A-S.png,H-A.png,sS,hH,mask-3.png,mask-4.png,s,1,0.9644545000046492,h,1,0.47717790002934635,0.047714099986478686,0.04958170000463724,0.10072630003560334,0.10155889997258782,0.2987897000275552
RSVPLG03,cs,20260304-143130,1.0.2,20251105-084826,785,Practice,Both,1,Automatic,main,11,20260304-143358,local,global,750,S,H,E,A,E-S.png,H-A.png,sS,hH,mask-2.png,mask-1.png,s,1,0.7026930999709293,h,1,0.36270800000056624,0.048764899955131114,0.048508500098250806,0.10094229993410408,0.10050970001611859,0.7508104998851195
RSVPLG03,cs,20260304-143130,1.0.2,20251105-084826,785,Practice,Both,1,Automatic,main,12,20260304-143403,local,global,750,H,S,A,E,A-H.png,S-E.png,hH,sS,mask-2.png,mask-1.png,h,1,0.9519222999224439,s,1,0.4290301000000909,0.046847700024954975,0.0475718000670895,0.09899460000451654,0.09987660008482635,0.7503429999342188
RSVPLG03,cs,20260304-143130,1.0.2,20251105-084826,785,Practice,Both,1,Automatic,main,13,20260304-143409,local,local,750,H,S,E,E,E-H.png,E-S.png,hH,sS,mask-2.png,mask-1.png,h,1,1.082870899932459,s,1,0.33701920008752495,0.04798809997737408,0.04891539993695915,0.10032059997320175,0.09999200003221631,0.750502199982293
RSVPLG03,cs,20260304-143130,1.0.2,20251105-084826,785,Practice,Both,1,Automatic,main,14,20260304-143414,local,global,300,S,S,E,A,E-S.png,S-A.png,sS,sS,mask-4.png,mask-1.png,h,0,1.1950798999750987,s,1,1.057960500009358,0.04768700001295656,0.047089300001971424,0.09987250005360693,0.10005809995345771,0.3002463000593707
RSVPLG03,cs,20260304-143130,1.0.2,20251105-084826,785,Practice,Both,1,Automatic,main,15,20260304-143420,local,local,300,S,S,E,E,E-S.png,E-S.png,sS,sS,mask-1.png,mask-1.png,s,1,0.8147458999883384,h,0,0.4343671000096947,0.048693699995055795,0.0476925999391824,0.09919810004066676,0.10195169993676245,0.2997698000399396
RSVPLG03,cs,20260304-143130,1.0.2,20251105-084826,785,Practice,Both,1,Automatic,main,16,20260304-143425,global,local,300,H,H,A,E,H-A.png,E-H.png,hH,hH,mask-4.png,mask-4.png,h,1,1.3913077000761405,h,1,0.8388958000577986,0.047523200046271086,0.04651169991120696,0.09860549995210022,0.09957459999714047,0.2998900000238791
RSVPLG03,cs,20260304-143641,1.0.2,20251105-084826,785,Practice,Both,1,Automatic,main,1,20260304-143930,global,global,750,H,H,A,A,H-A.png,H-A.png,hH,hH,mask-2.png,mask-4.png,h,1,3.02321709995158,s,0,0.39276580000296235,0.04022960003931075,0.04686150001361966,0.09300320001784712,0.10100460005924106,0.7437263999599963
RSVPLG03,cs,20260304-143641,1.0.2,20251105-084826,785,Practice,Both,1,Automatic,main,2,20260304-143937,local,local,750,H,S,E,E,E-H.png,E-S.png,hH,sS,mask-2.png,mask-1.png,h,1,0.8904511000728235,s,1,0.14860749989748,0.048739699996076524,0.04652830003760755,0.09994620003271848,0.09827770001720637,0.7512201999779791
RSVPLG03,cs,20260304-143641,1.0.2,20251105-084826,785,Practice,Both,1,Automatic,main,3,20260304-143943,global,local,750,H,S,A,A,H-A.png,A-S.png,hH,sS,mask-1.png,mask-4.png,h,1,0.830623000045307,s,1,0.03808349999599159,0.04679079994093627,0.047669799998402596,0.10100559995044023,0.09889839997049421,0.750563699984923
RSVPLG03,cs,20260304-143641,1.0.2,20251105-084826,785,Practice,Both,1,Automatic,main,4,20260304-143948,global,local,300,S,H,A,A,S-A.png,A-H.png,sS,hH,mask-4.png,mask-1.png,h,0,0.9359885000158101,h,1,0.6636205998947844,0.0477312000002712,0.04765840002801269,0.09912429994437844,0.10062190005555749,0.2994834999553859
RSVPLG03,cs,20260304-143641,1.0.2,20251105-084826,785,Practice,Both,1,Automatic,main,5,20260304-143953,global,local,300,S,H,A,A,S-A.png,A-H.png,sS,hH,mask-1.png,mask-4.png,h,0,2.170232499949634,h,1,0.9574239000212401,0.047525899950414896,0.04752849997021258,0.0983356999931857,0.10013829998206347,0.2996391999768093
RSVPLG03,cs,20260304-143641,1.0.2,20251105-084826,785,Practice,Both,1,Automatic,main,6,20260304-144000,local,global,300,S,H,A,A,A-S.png,H-A.png,sS,hH,mask-1.png,mask-2.png,h,0,1.356584299937822,s,0,0.2809010000200942,0.046648900024592876,0.04738999996334314,0.09983500000089407,0.10072450002189726,0.2993283000541851
RSVPLG03,cs,20260304-143641,1.0.2,20251105-084826,785,Practice,Both,1,Automatic,main,7,20260304-144005,global,global,300,H,H,A,A,H-A.png,H-A.png,hH,hH,mask-3.png,mask-2.png,h,1,2.7828479000600055,s,0,0.1721738000633195,0.04655359999742359,0.0494482999201864,0.09859479998704046,0.10152549995109439,0.29808300000149757
RSVPLG03,cs,20260304-143641,1.0.2,20251105-084826,785,Practice,Both,1,Automatic,main,8,20260304-144012,local,global,750,H,S,E,E,E-H.png,S-E.png,hH,sS,mask-3.png,mask-4.png,s,0,2.181320600095205,h,0,0.21819030004553497,0.04751539998687804,0.0486428999574855,0.09956390003208071,0.09969409997574985,0.7485738000832498
RSVPLG03,cs,20260304-143641,1.0.2,20251105-084826,785,Practice,Both,1,Automatic,main,9,20260304-144019,global,local,750,H,H,A,A,H-A.png,A-H.png,hH,hH,mask-3.png,mask-4.png,h,1,1.5315514000831172,s,0,0.140524199930951,0.04703149991109967,0.046662500011734664,0.09904519992414862,0.09890840004663914,0.7503160999622196
RSVPLG03,cs,20260304-143641,1.0.2,20251105-084826,785,Practice,Both,1,Automatic,main,10,20260304-144024,local,global,300,S,S,A,A,A-S.png,S-A.png,sS,sS,mask-2.png,mask-3.png,h,0,4.700016200076789,s,1,0.3431960999732837,0.0474821999669075,0.047508700052276254,0.09936879994347692,0.09944250003900379,0.2994211999466643
RSVPLG03,cs,20260304-143641,1.0.2,20251105-084826,785,Practice,Both,1,Automatic,main,11,20260304-144033,local,local,300,S,S,A,E,A-S.png,E-S.png,sS,sS,mask-3.png,mask-3.png,s,1,1.7351791000692174,s,1,0.2661727999802679,0.045730600017122924,0.048695100005716085,0.09962029999587685,0.10088339995127171,0.2982554000336677
RSVPLG03,cs,20260304-143641,1.0.2,20251105-084826,785,Practice,Both,1,Automatic,main,12,20260304-144039,global,global,750,S,H,A,A,S-A.png,H-A.png,sS,hH,mask-1.png,mask-1.png,s,1,1.4540406999876723,h,1,0.3006740000564605,0.04700150003191084,0.04980080004315823,0.09983530000317842,0.10197399999015033,0.7478062999434769
RSVPLG03,cs,20260304-143641,1.0.2,20251105-084826,785,Practice,Both,1,Automatic,main,13,20260304-144045,global,global,300,H,S,E,E,H-E.png,S-E.png,hH,sS,mask-3.png,mask-1.png,s,0,2.1929161000298336,s,1,0.26308679999783635,0.04713119997177273,0.04706130002159625,0.10028290003538132,0.10013250005431473,0.3000523999799043
RSVPLG03,cs,20260304-143641,1.0.2,20251105-084826,785,Practice,Both,1,Automatic,main,14,20260304-144051,local,local,300,S,S,A,A,A-S.png,A-S.png,sS,sS,mask-3.png,mask-2.png,s,1,1.5261409000959247,h,0,0.4396931999363005,0.04830070002935827,0.04656639997847378,0.10013849998358637,0.09956760006025434,0.3013578000245616
RSVPLG03,cs,20260304-143641,1.0.2,20251105-084826,785,Practice,Both,1,Automatic,main,15,20260304-144057,local,local,750,H,H,A,E,A-H.png,E-H.png,hH,hH,mask-4.png,mask-2.png,h,1,1.9593893999699503,h,1,0.14385089999996126,0.04783339996356517,0.046532099950127304,0.09894109994638711,0.09967069991398603,0.7506465000333264
RSVPLG03,cs,20260304-143641,1.0.2,20251105-084826,785,Practice,Both,1,Automatic,main,16,20260304-144103,local,global,750,S,S,E,E,E-S.png,S-E.png,sS,sS,mask-4.png,mask-4.png,s,1,0.6106646000407636,s,1,0.2807186000281945,0.047386899939738214,0.04775899997912347,0.09846689994446933,0.09978269995190203,0.7499856000067666
RSVPLG03,cs,20260304-145700,1.0.2,20251105-084826,785,Experiment,Both,1,Automatic,warmup,1,20260304-145755,global,local,750,S,H,E,A,S-E.png,A-H.png,sS,hH,mask-3.png,mask-3.png,s,1,1.3901304000755772,s,0,0.10992499999701977,0.04565920005552471,0.04852730000857264,0.09926540008746088,0.100757300038822,0.7481550000375137
RSVPLG03,cs,20260304-145700,1.0.2,20251105-084826,785,Experiment,Both,1,Automatic,warmup,2,20260304-145801,local,local,300,S,S,E,E,E-S.png,E-S.png,sS,sS,mask-1.png,mask-1.png,s,1,0.7250930999871343,s,1,0.15342270000837743,0.046784000005573034,0.046306899981573224,0.09858049999456853,0.09932619996834546,0.30028610001318157
RSVPLG03,cs,20260304-145700,1.0.2,20251105-084826,785,Experiment,Both,1,Automatic,warmup,3,20260304-145805,global,global,300,H,H,E,E,H-E.png,H-E.png,hH,hH,mask-1.png,mask-4.png,s,0,2.43094819993712,h,1,0.24916709994431585,0.04572319996077567,0.04624949989374727,0.09853119996841997,0.09962829994037747,0.2991460000630468
RSVPLG03,cs,20260304-145700,1.0.2,20251105-084826,785,Experiment,Both,1,Automatic,warmup,4,20260304-145812,global,local,300,H,H,A,E,H-A.png,E-H.png,hH,hH,mask-2.png,mask-3.png,h,1,1.8134734999621287,s,0,0.2452075999462977,0.04764430003706366,0.04773600003682077,0.09928309998940676,0.1008181000361219,0.29983599996194243
RSVPLG03,cs,20260304-145700,1.0.2,20251105-084826,785,Experiment,Both,1,Automatic,main,5,20260304-145817,local,local,750,H,H,A,E,A-H.png,E-H.png,hH,hH,mask-3.png,mask-4.png,h,1,1.6084561999887228,s,0,0.14767009997740388,0.04777119995560497,0.04875640000682324,0.09996869997121394,0.10023440001532435,0.749993999954313
RSVPLG03,cs,20260304-145700,1.0.2,20251105-084826,785,Experiment,Both,1,Automatic,main,6,20260304-145823,local,global,750,H,H,E,A,E-H.png,H-A.png,hH,hH,mask-2.png,mask-1.png,h,1,1.2518653000006452,h,1,0.18300319998525083,0.04754609998781234,0.04763899999670684,0.10074700007680804,0.09971919993404299,0.7501940000802279
RSVPLG03,cs,20260304-145700,1.0.2,20251105-084826,785,Experiment,Both,1,Automatic,main,7,20260304-145829,global,local,750,S,S,A,A,S-A.png,A-S.png,sS,sS,mask-1.png,mask-3.png,h,0,1.0114745000610128,h,0,0.14937819994520396,0.04768989991862327,0.047674099914729595,0.0998854999197647,0.0992144999327138,0.7483313999837264
RSVPLG03,cs,20260304-145700,1.0.2,20251105-084826,785,Experiment,Both,1,Automatic,main,8,20260304-145834,global,global,300,S,S,E,E,S-E.png,S-E.png,sS,sS,mask-3.png,mask-2.png,s,1,0.46749199996702373,s,1,0.1819550000363961,0.046134699950926006,0.04737119993660599,0.09969309996813536,0.10023759992327541,0.29918370000086725
RSVPLG03,cs,20260304-145700,1.0.2,20251105-084826,785,Experiment,Both,1,Automatic,main,9,20260304-145839,global,global,300,H,H,A,E,H-A.png,H-E.png,hH,hH,mask-3.png,mask-2.png,s,0,1.6175590999191627,h,1,0.20155820006038994,0.048518499941565096,0.047545399982482195,0.10053399996832013,0.09876879991497844,0.3000865000067279
RSVPLG03,cs,20260304-145700,1.0.2,20251105-084826,785,Experiment,Both,1,Automatic,main,10,20260304-145844,global,global,300,S,H,A,A,S-A.png,H-A.png,sS,hH,mask-1.png,mask-1.png,s,1,1.8365572999464348,s,0,0.7849924999754876,0.04870479996316135,0.04662290005944669,0.10005659994203597,0.09979030000977218,0.29941119998693466
RSVPLG03,cs,20260304-145700,1.0.2,20251105-084826,785,Experiment,Both,1,Automatic,main,11,20260304-145850,local,local,300,S,H,E,E,E-S.png,E-H.png,sS,hH,mask-3.png,mask-4.png,h,0,1.2065667998977005,s,0,0.15687860001344234,0.04830869997385889,0.04751249996479601,0.10148339997977018,0.10053499997593462,0.300710599985905
RSVPLG03,cs,20260304-145700,1.0.2,20251105-084826,785,Experiment,Both,1,Automatic,main,12,20260304-145855,local,local,300,S,H,A,A,A-S.png,A-H.png,sS,hH,mask-1.png,mask-1.png,s,1,1.764102700049989,h,1,0.18777479999698699,0.048375200014561415,0.04853150004055351,0.10041389998514205,0.10064550000242889,0.3001452999887988
RSVPLG03,cs,20260304-145700,1.0.2,20251105-084826,785,Experiment,Both,1,Automatic,main,13,20260304-145901,local,global,300,S,S,E,E,E-S.png,S-E.png,sS,sS,mask-1.png,mask-2.png,s,1,2.8363548000343144,s,1,0.725905800005421,0.047601799946278334,0.0465599000453949,0.09967070003040135,0.0985540000256151,0.30011429998558015
RSVPLG03,cs,20260304-145700,1.0.2,20251105-084826,785,Experiment,Both,1,Automatic,main,14,20260304-145908,local,global,300,S,H,E,A,E-S.png,H-A.png,sS,hH,mask-1.png,mask-1.png,s,1,1.1107272000517696,h,1,0.19871790008619428,0.047597300028428435,0.04751609999220818,0.10063809994608164,0.1005587000399828,0.3000613999320194
RSVPLG03,cs,20260304-145700,1.0.2,20251105-084826,785,Experiment,Both,1,Automatic,main,15,20260304-145913,global,local,300,S,H,A,E,S-A.png,E-H.png,sS,hH,mask-4.png,mask-1.png,s,1,1.5470087999710813,h,1,0.20495219994336367,0.04851240001153201,0.04861599998548627,0.10058560001198202,0.09973939997144043,0.3002545000053942
RSVPLG03,cs,20260304-145700,1.0.2,20251105-084826,785,Experiment,Both,1,Automatic,main,16,20260304-145919,local,global,300,H,H,E,E,E-H.png,H-E.png,hH,hH,mask-1.png,mask-4.png,s,0,0.9053910000948235,h,1,0.2851939999964088,0.04656230006366968,0.046560500049963593,0.09857709996867925,0.09955980000086129,0.29981200001202524
RSVPLG03,cs,20260304-145700,1.0.2,20251105-084826,785,Experiment,Both,1,Automatic,main,17,20260304-145924,local,local,300,S,S,A,A,A-S.png,A-S.png,sS,sS,mask-3.png,mask-2.png,s,1,0.9916994998930022,s,1,0.13615100004244596,0.04890459997113794,0.04750039998907596,0.1010762999067083,0.10053980001248419,0.3006776999682188
RSVPLG03,cs,20260304-145700,1.0.2,20251105-084826,785,Experiment,Both,1,Automatic,main,18,20260304-145928,global,local,300,H,S,A,E,H-A.png,E-S.png,hH,sS,mask-1.png,mask-1.png,s,0,1.933765400084667,h,0,0.16194670007098466,0.0457384999608621,0.04870569997001439,0.09793489996809512,0.10121489991433918,0.2979084000689909
RSVPLG03,cs,20260304-145700,1.0.2,20251105-084826,785,Experiment,Both,1,Automatic,main,19,20260304-145934,local,local,300,S,H,E,E,E-S.png,E-H.png,sS,hH,mask-1.png,mask-1.png,s,1,1.0317581000272185,h,1,0.268977899919264,0.04655750002712011,0.0472490000538528,0.09962540003471076,0.10122429998591542,0.2990616000024602
RSVPLG03,cs,20260304-145700,1.0.2,20251105-084826,785,Experiment,Both,1,Automatic,main,20,20260304-145939,global,global,300,H,H,E,E,H-E.png,H-E.png,hH,hH,mask-1.png,mask-4.png,h,1,0.5302669000811875,h,1,0.21628819999750704,0.04922639997676015,0.04739349998999387,0.1001416000071913,0.10031320003326982,0.3003159000072628
RSVPLG03,cs,20260304-145700,1.0.2,20251105-084826,785,Experiment,Both,1,Automatic,main,21,20260304-145944,local,global,750,S,S,E,A,E-S.png,S-A.png,sS,sS,mask-1.png,mask-2.png,s,1,0.7392172000836581,s,1,0.2846756000071764,0.04656409996096045,0.04760789999272674,0.10006269998848438,0.09952040005009621,0.7495343999471515
RSVPLG03,cs,20260304-145700,1.0.2,20251105-084826,785,Experiment,Both,1,Automatic,main,22,20260304-145949,local,local,300,S,H,A,E,A-S.png,E-H.png,sS,hH,mask-2.png,mask-4.png,h,0,2.665350499912165,s,0,0.14850940008182079,0.04667329997755587,0.047711500083096325,0.09987919998820871,0.09987879998516291,0.29905689996667206
RSVPLG03,cs,20260304-145700,1.0.2,20251105-084826,785,Experiment,Both,1,Automatic,main,23,20260304-145955,global,global,750,S,S,E,A,S-E.png,S-A.png,sS,sS,mask-3.png,mask-3.png,s,1,0.7253466999391094,s,1,0.12584019999485463,0.04774950002320111,0.04770919994916767,0.10095890006050467,0.09990929998457432,0.7491364000597969
RSVPLG03,cs,20260304-145700,1.0.2,20251105-084826,785,Experiment,Both,1,Automatic,main,24,20260304-150000,local,global,300,S,H,A,A,A-S.png,H-A.png,sS,hH,mask-2.png,mask-4.png,s,1,0.6326541000744328,s,0,0.12419449992012233,0.04791159997694194,0.04772939998656511,0.10214129998348653,0.10090829990804195,0.3008137000724673
RSVPLG03,cs,20260304-145700,1.0.2,20251105-084826,785,Experiment,Both,1,Automatic,main,25,20260304-150005,global,local,300,H,S,E,A,H-E.png,A-S.png,hH,sS,mask-4.png,mask-1.png,h,1,0.7086133999982849,h,0,0.2169125999789685,0.04661139997188002,0.046551299979910254,0.1007172999670729,0.10070209996774793,0.299975199974142
RSVPLG03,cs,20260304-145700,1.0.2,20251105-084826,785,Experiment,Both,1,Automatic,main,26,20260304-150029,local,local,750,H,H,E,A,E-H.png,A-H.png,hH,hH,mask-2.png,mask-2.png,s,0,2.109229499939829,h,1,0.10494749993085861,0.04765979992225766,0.04762510000728071,0.10067620000336319,0.09965550003107637,0.7506060999585316
RSVPLG03,cs,20260304-145700,1.0.2,20251105-084826,785,Experiment,Both,1,Automatic,main,27,20260304-150036,local,global,750,S,S,E,E,E-S.png,S-E.png,sS,sS,mask-1.png,mask-4.png,s,1,0.6599232000298798,s,1,0.10295590001624078,0.0475323999999091,0.04958929994609207,0.10052590002305806,0.10170759994070977,0.7485487000085413
RSVPLG03,cs,20260304-145700,1.0.2,20251105-084826,785,Experiment,Both,1,Automatic,main,28,20260304-150040,global,local,750,H,S,E,A,H-E.png,A-S.png,hH,sS,mask-1.png,mask-4.png,h,1,0.6388216000050306,h,0,0.054011299973353744,0.04655070009175688,0.04872069996781647,0.09974089998286217,0.10091089992783964,0.748937200056389
RSVPLG03,cs,20260304-145700,1.0.2,20251105-084826,785,Experiment,Both,1,Automatic,main,29,20260304-150045,local,global,750,S,S,A,A,A-S.png,S-A.png,sS,sS,mask-4.png,mask-2.png,s,1,1.2110972999362275,h,0,0.36219130002427846,0.047743999981321394,0.047583699924871325,0.09993919997941703,0.0991963999113068,0.7502602000022307
RSVPLG03,cs,20260304-145700,1.0.2,20251105-084826,785,Experiment,Both,1,Automatic,main,30,20260304-150051,global,local,300,S,S,A,E,S-A.png,E-S.png,sS,sS,mask-2.png,mask-3.png,s,1,1.1586295999586582,h,0,0.9682726000901312,0.04859839996788651,0.048225700040347874,0.10103139991406351,0.09980670001823455,0.30060709989629686
RSVPLG03,cs,20260304-145700,1.0.2,20251105-084826,785,Experiment,Both,1,Automatic,main,31,20260304-150057,local,local,750,S,S,E,A,E-S.png,A-S.png,sS,sS,mask-3.png,mask-4.png,s,1,1.2480335000436753,s,1,0.15521580004133284,0.04852700000628829,0.04709570005070418,0.10062289994675666,0.10114040004555136,0.7495044999523088
RSVPLG03,cs,20260304-145700,1.0.2,20251105-084826,785,Experiment,Both,1,Automatic,main,32,20260304-150102,local,local,300,H,H,E,E,E-H.png,E-H.png,hH,hH,mask-4.png,mask-3.png,s,0,0.8297489000251517,s,0,0.1775075999321416,0.04875189997255802,0.046489300089888275,0.10054499993566424,0.10031710006296635,0.3004585999296978
RSVPLG03,cs,20260304-145700,1.0.2,20251105-084826,785,Experiment,Both,1,Automatic,main,33,20260304-150107,global,local,300,H,S,E,E,H-E.png,E-S.png,hH,sS,mask-2.png,mask-2.png,h,1,1.8605494999792427,h,0,0.28414230002090335,0.047592699993401766,0.04758349992334843,0.09963720000814646,0.10146789997816086,0.29802770004607737
RSVPLG03,cs,20260304-145700,1.0.2,20251105-084826,785,Experiment,Both,1,Automatic,main,34,20260304-150113,local,global,300,S,S,E,A,E-S.png,S-A.png,sS,sS,mask-3.png,mask-1.png,s,1,1.6377726000500843,h,0,0.21689700009301305,0.047523500048555434,0.048743799910880625,0.09774580004159361,0.09982119989581406,0.29802770004607737
RSVPLG03,cs,20260304-145700,1.0.2,20251105-084826,785,Experiment,Both,1,Automatic,main,35,20260304-150119,local,global,750,H,S,E,E,E-H.png,S-E.png,hH,sS,mask-2.png,mask-2.png,h,1,1.678134199930355,s,1,0.16528730001300573,0.0475138999754563,0.048504099948331714,0.10063389991410077,0.10054399992804974,0.7484102000016719
RSVPLG03,cs,20260304-145700,1.0.2,20251105-084826,785,Experiment,Both,1,Automatic,main,36,20260304-150125,global,local,750,H,S,E,E,H-E.png,E-S.png,hH,sS,mask-1.png,mask-2.png,h,1,0.8045700000366196,s,1,0.21686839999165386,0.047561699990183115,0.04641429998446256,0.09884400002192706,0.09951329999603331,0.7497047000797465
RSVPLG03,cs,20260304-145700,1.0.2,20251105-084826,785,Experiment,Both,1,Automatic,main,37,20260304-150130,global,global,300,S,H,E,E,S-E.png,H-E.png,sS,hH,mask-1.png,mask-4.png,s,1,0.731587800080888,h,1,0.39589749998413026,0.047704000025987625,0.04784629994537681,0.09983740001916885,0.09919509990140796,0.3010450000874698
RSVPLG03,cs,20260304-145700,1.0.2,20251105-084826,785,Experiment,Both,1,Automatic,main,38,20260304-150134,global,local,300,S,S,E,A,S-E.png,A-S.png,sS,sS,mask-3.png,mask-1.png,s,1,1.4040724999504164,s,1,0.22268779994919896,0.046686200075782835,0.04739350010640919,0.1005260000238195,0.0985615000827238,0.30052900000009686
RSVPLG03,cs,20260304-145700,1.0.2,20251105-084826,785,Experiment,Both,1,Automatic,main,39,20260304-150140,global,local,300,H,H,A,A,H-A.png,A-H.png,hH,hH,mask-4.png,mask-2.png,s,0,1.1013600999722257,h,1,0.1868062000721693,0.04743749997578561,0.047613600036129355,0.09946960001252592,0.09956850006710738,0.2998706999933347
RSVPLG03,cs,20260304-145700,1.0.2,20251105-084826,785,Experiment,Both,1,Automatic,main,40,20260304-150145,global,global,300,H,S,E,A,H-E.png,S-A.png,hH,sS,mask-2.png,mask-1.png,h,1,1.0756821000250056,s,1,0.22867600002791733,0.04764990007970482,0.047520500025711954,0.09962700004689395,0.09948259999509901,0.300059900037013
RSVPLG03,cs,20260304-145700,1.0.2,20251105-084826,785,Experiment,Both,1,Automatic,main,41,20260304-150150,local,local,750,H,H,E,A,E-H.png,A-H.png,hH,hH,mask-2.png,mask-1.png,h,1,0.8950033000437543,h,1,0.20448600000236183,0.0475685999263078,0.04575180006213486,0.10035540000535548,0.09878320002462715,0.7501257999101654
RSVPLG03,cs,20260304-145700,1.0.2,20251105-084826,785,Experiment,Both,1,Automatic,main,42,20260304-150155,local,local,300,S,H,E,A,E-S.png,A-H.png,sS,hH,mask-3.png,mask-3.png,s,1,1.6864615000085905,h,1,0.24972550000529736,0.047584000043570995,0.04754780000075698,0.10058530000969768,0.09890410001389682,0.30040279997047037
RSVPLG03,cs,20260304-145700,1.0.2,20251105-084826,785,Experiment,Both,1,Automatic,main,43,20260304-150201,local,local,750,H,S,A,E,A-H.png,E-S.png,hH,sS,mask-2.png,mask-1.png,h,1,3.1903094999725,s,1,0.07819829997606575,0.04752150003332645,0.04659640009049326,0.10152909997850657,0.10058580001350492,0.750380799989216
RSVPLG03,cs,20260304-145700,1.0.2,20251105-084826,785,Experiment,Both,1,Automatic,main,44,20260304-150208,global,local,300,H,S,A,A,H-A.png,A-S.png,hH,sS,mask-3.png,mask-3.png,h,1,0.8995996000012383,h,0,0.27730309998150915,0.047933500027284026,0.047586799948476255,0.10124280001036823,0.09980560000985861,0.2998489000601694
RSVPLG03,cs,20260304-145700,1.0.2,20251105-084826,785,Experiment,Both,1,Automatic,main,45,20260304-150213,global,global,750,H,H,A,A,H-A.png,H-A.png,hH,hH,mask-1.png,mask-2.png,h,1,0.7143876999616623,h,1,0.1660787999862805,0.047723299940116704,0.04669460002332926,0.09991789993364364,0.09817280003335327,0.7503379998961464
RSVPLG03,cs,20260304-145700,1.0.2,20251105-084826,785,Experiment,Both,1,Automatic,main,46,20260304-150218,global,global,750,H,S,E,E,H-E.png,S-E.png,hH,sS,mask-1.png,mask-1.png,h,1,0.6108462999109179,s,1,0.23626110004261136,0.04881599999498576,0.04666510003153235,0.1010244000935927,0.09984250005800277,0.7500205000396818
RSVPLG03,cs,20260304-145700,1.0.2,20251105-084826,785,Experiment,Both,1,Automatic,main,47,20260304-150223,local,global,750,H,S,E,E,E-H.png,S-E.png,hH,sS,mask-1.png,mask-4.png,h,1,1.2305255000246689,s,1,0.27415410010144114,0.04760419996455312,0.04867859999649227,0.09955090004950762,0.10095210000872612,0.7491390999639407
RSVPLG03,cs,20260304-145700,1.0.2,20251105-084826,785,Experiment,Both,1,Automatic,main,48,20260304-150229,global,local,750,H,S,A,A,H-A.png,A-S.png,hH,sS,mask-3.png,mask-3.png,h,1,1.5392232000594959,h,0,0.7723106999183074,0.0473970000166446,0.04666140000335872,0.10050580010283738,0.09988480003084987,0.7504581999965012
RSVPLG03,cs,20260304-145700,1.0.2,20251105-084826,785,Experiment,Both,1,Automatic,main,49,20260304-150235,global,global,750,H,H,A,A,H-A.png,H-A.png,hH,hH,mask-3.png,mask-3.png,h,1,0.4893731999909505,h,1,0.23305019992403686,0.0466020000167191,0.0493387000169605,0.1006020000204444,0.10021309996955097,0.7478326000273228
RSVPLG03,cs,20260304-145700,1.0.2,20251105-084826,785,Experiment,Both,1,Automatic,main,50,20260304-150240,local,local,300,S,S,A,E,A-S.png,E-S.png,sS,sS,mask-3.png,mask-4.png,h,0,0.5377992000430822,h,0,0.5183819000376388,0.0474277000175789,0.047074000001885,0.09921510005369782,0.1011720000533387,0.29887900000903755
RSVPLG03,cs,20260304-145700,1.0.2,20251105-084826,785,Experiment,Both,1,Automatic,main,51,20260304-150310,local,global,750,S,H,E,A,E-S.png,H-A.png,sS,hH,mask-3.png,mask-3.png,h,0,1.910339800058864,h,1,0.32422910002060235,0.04859819996636361,0.04678199999034405,0.10060559993144125,0.09935499995481223,0.7488693000050262
RSVPLG03,cs,20260304-145700,1.0.2,20251105-084826,785,Experiment,Both,1,Automatic,main,52,20260304-150316,local,global,750,H,S,E,A,E-H.png,S-A.png,hH,sS,mask-4.png,mask-4.png,s,0,0.6490587000735104,s,1,0.4554154999786988,0.04752240004017949,0.04960719996597618,0.09956850006710738,0.10044970002491027,0.7472540000453591
RSVPLG03,cs,20260304-145700,1.0.2,20251105-084826,785,Experiment,Both,1,Automatic,main,53,20260304-150321,local,local,300,S,S,A,A,A-S.png,A-S.png,sS,sS,mask-2.png,mask-4.png,s,1,0.5622814999660477,s,1,0.31451189995277673,0.04670800000894815,0.04949150001630187,0.09885499998927116,0.10056300007272512,0.2980405999114737
RSVPLG03,cs,20260304-145700,1.0.2,20251105-084826,785,Experiment,Both,1,Automatic,main,54,20260304-150326,local,local,300,S,S,E,A,E-S.png,A-S.png,sS,sS,mask-4.png,mask-4.png,s,1,0.43506889999844134,s,1,0.24937949993181974,0.04851410002447665,0.04865120002068579,0.10056799999438226,0.1010404999833554,0.2994914000155404
RSVPLG03,cs,20260304-145700,1.0.2,20251105-084826,785,Experiment,Both,1,Automatic,main,55,20260304-150330,local,global,750,H,S,E,E,E-H.png,S-E.png,hH,sS,mask-3.png,mask-4.png,h,1,0.7600076000671834,s,1,0.19124729989562184,0.04800890001934022,0.04769759997725487,0.10130440001375973,0.10093449999112636,0.750147599959746
RSVPLG03,cs,20260304-145700,1.0.2,20251105-084826,785,Experiment,Both,1,Automatic,main,56,20260304-150335,global,global,750,H,S,A,A,H-A.png,S-A.png,hH,sS,mask-3.png,mask-1.png,h,1,0.8088174000149593,s,1,0.16586449998430908,0.04777860001195222,0.04828360001556575,0.09900960000231862,0.10054669994860888,0.7484087999910116
RSVPLG03,cs,20260304-145700,1.0.2,20251105-084826,785,Experiment,Both,1,Automatic,main,57,20260304-150340,global,local,300,S,H,A,E,S-A.png,E-H.png,sS,hH,mask-4.png,mask-1.png,s,1,0.9986498000798747,s,0,0.10034910007379949,0.04748870001640171,0.04694310005288571,0.09969790000468493,0.09838980005588382,0.30133919999934733
RSVPLG03,cs,20260304-145700,1.0.2,20251105-084826,785,Experiment,Both,1,Automatic,main,58,20260304-150345,global,global,750,S,S,E,A,S-E.png,S-A.png,sS,sS,mask-4.png,mask-2.png,s,1,0.5729352999478579,s,1,0.11715930001810193,0.04851860005874187,0.047813599929213524,0.10162209998816252,0.10093299997970462,0.7496572000673041
RSVPLG03,cs,20260304-145700,1.0.2,20251105-084826,785,Experiment,Both,1,Automatic,main,59,20260304-150350,global,global,750,H,H,E,E,H-E.png,H-E.png,hH,hH,mask-1.png,mask-2.png,h,1,0.6153380000032485,h,1,0.15854390000458807,0.047718800022266805,0.04708659998141229,0.09933009999804199,0.10037289990577847,0.750074400100857
RSVPLG03,cs,20260304-145700,1.0.2,20251105-084826,785,Experiment,Both,1,Automatic,main,60,20260304-150355,local,global,300,H,H,A,A,A-H.png,H-A.png,hH,hH,mask-3.png,mask-3.png,h,1,1.0484734999481589,s,0,0.06084749998990446,0.04753270000219345,0.04964139999356121,0.10138740006368607,0.10165149997919798,0.2994048000546172
RSVPLG03,cs,20260304-145700,1.0.2,20251105-084826,785,Experiment,Both,1,Automatic,main,61,20260304-150359,local,global,750,H,S,A,E,A-H.png,S-E.png,hH,sS,mask-4.png,mask-2.png,h,1,1.0269332999596372,s,1,0.18961090000811964,0.04767040000297129,0.047677500057034194,0.09984629997052252,0.09986770001705736,0.7497583999065682
RSVPLG03,cs,20260304-145700,1.0.2,20251105-084826,785,Experiment,Both,1,Automatic,main,62,20260304-150405,global,local,750,H,S,E,E,H-E.png,E-S.png,hH,sS,mask-3.png,mask-1.png,h,1,0.53950299997814,s,1,0.12367530004121363,0.04748860001564026,0.04861589998472482,0.10049799992702901,0.10065859998576343,0.7488083000062034
RSVPLG03,cs,20260304-145700,1.0.2,20251105-084826,785,Experiment,Both,1,Automatic,main,63,20260304-150409,global,global,300,S,S,A,E,S-A.png,S-E.png,sS,sS,mask-3.png,mask-1.png,s,1,2.037420699954964,s,1,0.2143338000169024,0.04654279991518706,0.04754660010803491,0.09916999994311482,0.09956520004197955,0.2999828999163583
RSVPLG03,cs,20260304-145700,1.0.2,20251105-084826,785,Experiment,Both,1,Automatic,main,64,20260304-150415,global,local,750,H,H,E,A,H-E.png,A-H.png,hH,hH,mask-2.png,mask-1.png,s,0,0.5854971000226215,h,1,1.8580813000444323,0.045554300071671605,0.04701880004722625,0.09857789997477084,0.0990317000541836,0.7484197999583557
RSVPLG03,cs,20260304-145700,1.0.2,20251105-084826,785,Experiment,Both,1,Automatic,main,65,20260304-150422,global,local,300,H,S,A,E,H-A.png,E-S.png,hH,sS,mask-4.png,mask-4.png,h,1,0.943832999910228,s,1,0.8925288000609726,0.04821289994288236,0.04748079995624721,0.10101909993682057,0.0993833999382332,0.3009404999902472
RSVPLG03,cs,20260304-145700,1.0.2,20251105-084826,785,Experiment,Both,1,Automatic,main,66,20260304-150427,global,global,300,H,H,A,E,H-A.png,H-E.png,hH,hH,mask-2.png,mask-4.png,s,0,1.1220264999428764,h,1,0.1809736000141129,0.047699399990960956,0.046764900092966855,0.10008080000989139,0.09891110006719828,0.30070199992042035
RSVPLG03,cs,20260304-145700,1.0.2,20251105-084826,785,Experiment,Both,1,Automatic,main,67,20260304-150433,local,global,300,H,S,A,E,A-H.png,S-E.png,hH,sS,mask-3.png,mask-1.png,h,1,1.1381739999633282,h,0,0.285056299995631,0.04853149992413819,0.04680839995853603,0.10054469993337989,0.09976969996932894,0.30083209997974336
RSVPLG03,cs,20260304-145700,1.0.2,20251105-084826,785,Experiment,Both,1,Automatic,main,68,20260304-150438,local,global,750,H,S,E,A,E-H.png,S-A.png,hH,sS,mask-2.png,mask-4.png,h,1,0.964005000074394,s,1,0.08519219991285354,0.04761120001785457,0.04763469996396452,0.10059709998313338,0.1006446999963373,0.7498241999419406
RSVPLG03,cs,20260304-145700,1.0.2,20251105-084826,785,Experiment,Both,1,Automatic,main,69,20260304-150443,local,local,750,H,S,A,E,A-H.png,E-S.png,hH,sS,mask-3.png,mask-3.png,h,1,0.8690625999588519,s,1,0.1520405999617651,0.04668999998830259,0.04766820010263473,0.1002111000707373,0.09989589999895543,0.7493102999869734
RSVPLG03,cs,20260304-145700,1.0.2,20251105-084826,785,Experiment,Both,1,Automatic,main,70,20260304-150448,global,global,750,S,S,A,A,S-A.png,S-A.png,sS,sS,mask-4.png,mask-3.png,s,1,0.515406799968332,s,1,0.13553919992409647,0.04728120006620884,0.047385099926032126,0.10017170000355691,0.09866089990828186,0.7496275000739843
RSVPLG03,cs,20260304-145700,1.0.2,20251105-084826,785,Experiment,Both,1,Automatic,main,71,20260304-150453,global,local,750,S,S,E,A,S-E.png,A-S.png,sS,sS,mask-3.png,mask-1.png,s,1,0.8475589000154287,s,1,0.2010812999214977,0.04898760002106428,0.045712599996477365,0.10125210008118302,0.09880739997606725,0.7512746000429615
RSVPLG03,cs,20260304-145700,1.0.2,20251105-084826,785,Experiment,Both,1,Automatic,main,72,20260304-150458,local,global,750,H,H,E,E,E-H.png,H-E.png,hH,hH,mask-2.png,mask-2.png,s,0,2.710331100039184,s,0,0.9458520000334829,0.04866470000706613,0.04669380001723766,0.09989049995783716,0.0981753000523895,0.7504791999235749
RSVPLG03,cs,20260304-145700,1.0.2,20251105-084826,785,Experiment,Both,1,Automatic,main,73,20260304-150506,global,global,750,H,H,E,E,H-E.png,H-E.png,hH,hH,mask-3.png,mask-1.png,h,1,0.7880119000328705,h,1,0.16657890006899834,0.0463731000199914,0.04705579997971654,0.09923890000209212,0.09934339998289943,0.7493206000654027
RSVPLG03,cs,20260304-145700,1.0.2,20251105-084826,785,Experiment,Both,1,Automatic,main,74,20260304-150511,global,global,300,H,H,A,A,H-A.png,H-A.png,hH,hH,mask-3.png,mask-2.png,h,1,0.48846989998128265,h,1,0.1048509000102058,0.04724210000131279,0.046987999929115176,0.10027769999578595,0.09899949992541224,0.29982130008284
RSVPLG03,cs,20260304-145700,1.0.2,20251105-084826,785,Experiment,Both,1,Automatic,main,75,20260304-150515,local,global,300,H,H,E,E,E-H.png,H-E.png,hH,hH,mask-3.png,mask-1.png,h,1,1.6667578000342473,s,0,0.23969439999200404,0.04673750000074506,0.04670200007967651,0.09996000002138317,0.10100170003715903,0.3001277999719605
RSVPLG03,cs,20260304-145700,1.0.2,20251105-084826,785,Experiment,Both,1,Automatic,main,76,20260304-150554,local,local,750,H,H,E,E,E-H.png,E-H.png,hH,hH,mask-4.png,mask-2.png,h,1,1.521260599954985,h,1,0.3214063999475911,0.0477236999431625,0.048072699923068285,0.09993259992916137,0.10031809995416552,0.7499211999820545
RSVPLG03,cs,20260304-145700,1.0.2,20251105-084826,785,Experiment,Both,1,Automatic,main,77,20260304-150600,local,global,300,H,S,E,A,E-H.png,S-A.png,hH,sS,mask-2.png,mask-2.png,h,1,0.6798259998904541,h,0,0.35813469998538494,0.0487048999639228,0.04771430010441691,0.09975529997609556,0.0999747000169009,0.2994008999085054
RSVPLG03,cs,20260304-145700,1.0.2,20251105-084826,785,Experiment,Both,1,Automatic,main,78,20260304-150605,local,local,750,H,S,E,E,E-H.png,E-S.png,hH,sS,mask-3.png,mask-1.png,h,1,0.425811400054954,s,1,0.14698069996666163,0.045420699985697865,0.047530499985441566,0.09929349995218217,0.10051749995909631,0.7479020999744534
RSVPLG03,cs,20260304-145700,1.0.2,20251105-084826,785,Experiment,Both,1,Automatic,main,79,20260304-150609,global,global,300,S,S,E,A,S-E.png,S-A.png,sS,sS,mask-2.png,mask-2.png,s,1,0.5926534999161959,s,1,0.18844389996957034,0.047529200091958046,0.04580520000308752,0.10053020005580038,0.09904970007482916,0.3008372000185773
RSVPLG03,cs,20260304-145700,1.0.2,20251105-084826,785,Experiment,Both,1,Automatic,main,80,20260304-150614,local,local,300,S,H,E,E,E-S.png,E-H.png,sS,hH,mask-4.png,mask-2.png,s,1,0.8487284999573603,s,0,0.13014940009452403,0.047204900067299604,0.047532099997624755,0.10029910004232079,0.09962630004156381,0.3006266000447795
RSVPLG03,cs,20260304-145700,1.0.2,20251105-084826,785,Experiment,Both,1,Automatic,main,81,20260304-150619,global,local,750,H,H,E,E,H-E.png,E-H.png,hH,hH,mask-2.png,mask-2.png,h,1,0.8557822000002488,h,1,0.41793580004014075,0.04662040004041046,0.04673539998475462,0.09973150002770126,0.09990200004540384,0.7495874000014737
RSVPLG03,cs,20260304-145700,1.0.2,20251105-084826,785,Experiment,Both,1,Automatic,main,82,20260304-150624,global,local,300,S,S,E,A,S-E.png,A-S.png,sS,sS,mask-3.png,mask-1.png,s,1,0.4612275999970734,s,1,0.2512597000459209,0.04671050002798438,0.04856080003082752,0.09993379993829876,0.10066880006343126,0.2986896999645978
RSVPLG03,cs,20260304-145700,1.0.2,20251105-084826,785,Experiment,Both,1,Automatic,main,83,20260304-150628,local,local,750,S,S,A,E,A-S.png,E-S.png,sS,sS,mask-4.png,mask-1.png,s,1,0.7363752000965178,s,1,0.1087566000642255,0.04792000004090369,0.04753590002655983,0.09936959994956851,0.10051610006485134,0.750285099959001
RSVPLG03,cs,20260304-145700,1.0.2,20251105-084826,785,Experiment,Both,1,Automatic,main,84,20260304-150633,global,global,750,H,H,A,E,H-A.png,H-E.png,hH,hH,mask-3.png,mask-4.png,h,1,0.46128239994868636,h,1,0.08527200005482882,0.047698300099000335,0.047057799994945526,0.10088590008672327,0.10112050001043826,0.7499840999953449
RSVPLG03,cs,20260304-145700,1.0.2,20251105-084826,785,Experiment,Both,1,Automatic,main,85,20260304-150638,local,global,300,H,H,A,E,A-H.png,H-E.png,hH,hH,mask-1.png,mask-3.png,h,1,0.9234137999592349,h,1,0.31380699994042516,0.04764399991836399,0.04858790000434965,0.1005691000027582,0.1006014000158757,0.2995262999320403
RSVPLG03,cs,20260304-145700,1.0.2,20251105-084826,785,Experiment,Both,1,Automatic,main,86,20260304-150643,global,local,750,S,H,A,E,S-A.png,E-H.png,sS,hH,mask-2.png,mask-3.png,s,1,0.3858105998951942,s,0,0.07431580009870231,0.0466997999465093,0.0472171000437811,0.10162440000567585,0.10014059999957681,0.7496156999841332
RSVPLG03,cs,20260304-145700,1.0.2,20251105-084826,785,Experiment,Both,1,Automatic,main,87,20260304-150648,global,global,300,H,S,E,E,H-E.png,S-E.png,hH,sS,mask-2.png,mask-4.png,h,1,0.7255551000125706,s,1,0.10190490004606545,0.04801350005436689,0.04672490002121776,0.10086590005084872,0.09987769997678697,0.3008260000497103
RSVPLG03,cs,20260304-145700,1.0.2,20251105-084826,785,Experiment,Both,1,Automatic,main,88,20260304-150652,local,local,300,H,S,E,E,E-H.png,E-S.png,hH,sS,mask-2.png,mask-3.png,h,1,1.9815593999810517,s,1,0.07985890004783869,0.045545400003902614,0.04661819990724325,0.09856000007130206,0.09964809997472912,0.29919610009528697
RSVPLG03,cs,20260304-145700,1.0.2,20251105-084826,785,Experiment,Both,1,Automatic,main,89,20260304-150658,local,global,300,S,H,A,E,A-S.png,H-E.png,sS,hH,mask-1.png,mask-1.png,s,1,0.8894751000916585,h,1,0.2926934000570327,0.04722050006967038,0.04864410008303821,0.10134300007484853,0.1007069000042975,0.29972100001759827
RSVPLG03,cs,20260304-145700,1.0.2,20251105-084826,785,Experiment,Both,1,Automatic,main,90,20260304-150703,global,global,750,S,H,A,E,S-A.png,H-E.png,sS,hH,mask-4.png,mask-2.png,s,1,1.3207593000261113,h,1,0.3006814999971539,0.04764230002183467,0.04719879990443587,0.09963680000510067,0.10021439997944981,0.7488460000604391
RSVPLG03,cs,20260304-145700,1.0.2,20251105-084826,785,Experiment,Both,1,Automatic,main,91,20260304-150708,global,local,750,S,H,E,E,S-E.png,E-H.png,sS,hH,mask-3.png,mask-4.png,s,1,1.438512000022456,s,0,0.22362519998569041,0.04730059998109937,0.04769480007234961,0.10035960003733635,0.09995359997265041,0.7498922999948263
RSVPLG03,cs,20260304-145700,1.0.2,20251105-084826,785,Experiment,Both,1,Automatic,main,92,20260304-150714,local,local,750,H,H,E,E,E-H.png,E-H.png,hH,hH,mask-1.png,mask-2.png,h,1,0.6390577999409288,h,1,0.09249650000128895,0.04650070006027818,0.04750029998831451,0.09859349997714162,0.09861960005946457,0.7493553999811411
RSVPLG03,cs,20260304-145700,1.0.2,20251105-084826,785,Experiment,Both,1,Automatic,main,93,20260304-150719,global,local,750,S,H,E,A,S-E.png,A-H.png,sS,hH,mask-3.png,mask-4.png,s,1,0.5970925999572501,s,0,0.10824269999284297,0.04757400008384138,0.047999000060372055,0.10044439998455346,0.10111320007126778,0.7487297999905422
RSVPLG03,cs,20260304-145700,1.0.2,20251105-084826,785,Experiment,Both,1,Automatic,main,94,20260304-150724,global,global,300,H,H,E,A,H-E.png,H-A.png,hH,hH,mask-3.png,mask-3.png,h,1,0.7660673999926075,h,1,0.15239150007255375,0.04765140009112656,0.04856669995933771,0.10033380007371306,0.10059779998846352,0.2990569000830874
RSVPLG03,cs,20260304-145700,1.0.2,20251105-084826,785,Experiment,Both,1,Automatic,main,95,20260304-150728,global,local,750,H,H,A,A,H-A.png,A-H.png,hH,hH,mask-1.png,mask-2.png,h,1,0.6126767999958247,h,1,0.08732109994161874,0.04780279996339232,0.046907899901270866,0.10002849996089935,0.10008899995591491,0.7496822000248358
RSVPLG03,cs,20260304-145700,1.0.2,20251105-084826,785,Experiment,Both,1,Automatic,main,96,20260304-150733,local,local,750,H,H,A,E,A-H.png,E-H.png,hH,hH,mask-2.png,mask-4.png,h,1,0.660805799998343,h,1,0.06963849999010563,0.04717439995147288,0.047515899990685284,0.10126639995723963,0.09878470003604889,0.7510823999764398
RSVPLG03,cs,20260304-145700,1.0.2,20251105-084826,785,Experiment,Both,1,Automatic,main,97,20260304-150738,local,global,300,H,H,A,A,A-H.png,H-A.png,hH,hH,mask-1.png,mask-2.png,h,1,0.8621909000212327,h,1,0.09571409993804991,0.04673319996800274,0.04729889996815473,0.10003249999135733,0.0995705999666825,0.29899709997698665
RSVPLG03,cs,20260304-145700,1.0.2,20251105-084826,785,Experiment,Both,1,Automatic,main,98,20260304-150743,global,global,750,H,H,A,E,H-A.png,H-E.png,hH,hH,mask-4.png,mask-4.png,h,1,0.5288192000007257,h,1,0.08667310001328588,0.04707879992201924,0.04654190002474934,0.09942999994382262,0.09850570000708103,0.7497177999466658
RSVPLG03,cs,20260304-145700,1.0.2,20251105-084826,785,Experiment,Both,1,Automatic,main,99,20260304-150747,global,local,300,S,H,E,A,S-E.png,A-H.png,sS,hH,mask-1.png,mask-3.png,s,1,1.090826699975878,s,0,0.06952320004347712,0.046484700054861605,0.04598870000336319,0.09924630005843937,0.09902660001534969,0.2996597000164911
RSVPLG03,cs,20260304-145700,1.0.2,20251105-084826,785,Experiment,Both,1,Automatic,main,100,20260304-150752,local,local,750,S,H,A,A,A-S.png,A-H.png,sS,hH,mask-4.png,mask-2.png,s,1,0.9981286999536678,h,1,0.07152909995056689,0.04768580000381917,0.047686000005342066,0.09983490000013262,0.10093139996752143,0.7495456000324339
RSVPLG03,cs,20260304-151003,1.0.2,20251105-084826,785,Experiment,Both,1,Automatic,warmup,1,20260304-151023,local,global,750,H,S,E,E,E-H.png,S-E.png,hH,sS,mask-3.png,mask-2.png,h,1,0.7632069999817759,s,1,0.2910111000528559,0.04697579995263368,0.04852990002837032,0.10030739998910576,0.09958399995230138,0.7492002999642864
RSVPLG03,cs,20260304-151003,1.0.2,20251105-084826,785,Experiment,Both,1,Automatic,warmup,2,20260304-151028,local,global,300,S,S,A,E,A-S.png,S-E.png,sS,sS,mask-1.png,mask-2.png,s,1,1.1445046999724582,s,1,0.15033239999320358,0.046498000039719045,0.047589900088496506,0.09852050000336021,0.10061030008364469,0.2984912999672815
RSVPLG03,cs,20260304-151003,1.0.2,20251105-084826,785,Experiment,Both,1,Automatic,warmup,3,20260304-151033,local,local,750,H,H,E,A,E-H.png,A-H.png,hH,hH,mask-4.png,mask-2.png,s,0,0.9815300999907777,h,1,0.27636660006828606,0.04653749999124557,0.04762219998519868,0.09840709995478392,0.09943740000016987,0.7473509999690577
RSVPLG03,cs,20260304-151003,1.0.2,20251105-084826,785,Experiment,Both,1,Automatic,warmup,4,20260304-151039,global,global,300,S,S,A,E,S-A.png,S-E.png,sS,sS,mask-1.png,mask-2.png,s,1,0.7244991000043228,s,1,0.08516910008620471,0.04870970000047237,0.04663909994997084,0.10001199995167553,0.09972739999648184,0.30035659996792674
RSVPLG03,cs,20260304-151003,1.0.2,20251105-084826,785,Experiment,Both,1,Automatic,main,5,20260304-151043,global,global,750,H,H,A,A,H-A.png,H-A.png,hH,hH,mask-4.png,mask-1.png,h,1,0.5307074000593275,h,1,0.10628720000386238,0.04749889997765422,0.04754780000075698,0.10048230004031211,0.09975229995325208,0.7482903000200167
RSVPLG03,cs,20260304-151003,1.0.2,20251105-084826,785,Experiment,Both,1,Automatic,main,6,20260304-151048,local,local,750,H,H,E,A,E-H.png,A-H.png,hH,hH,mask-4.png,mask-2.png,s,0,0.9399300999939442,h,1,0.9889017000095919,0.04849319998174906,0.04795909998938441,0.10047990002203733,0.10051290004048496,0.7479650999885052
RSVPLG03,cs,20260304-151003,1.0.2,20251105-084826,785,Experiment,Both,1,Automatic,main,7,20260304-151054,local,local,750,S,H,A,E,A-S.png,E-H.png,sS,hH,mask-3.png,mask-1.png,s,1,1.3744845000328496,h,1,0.0743335000006482,0.045933400047942996,0.047512800083495677,0.09905800002161413,0.09950500004924834,0.7475233000004664
RSVPLG03,cs,20260304-151003,1.0.2,20251105-084826,785,Experiment,Both,1,Automatic,main,8,20260304-151059,local,local,300,H,S,E,A,E-H.png,A-S.png,hH,sS,mask-2.png,mask-4.png,h,1,1.1304829999571666,s,1,0.07022180000785738,0.04819240001961589,0.04742499999701977,0.10052470001392066,0.10052520001772791,0.3002114000264555
RSVPLG03,cs,20260304-151003,1.0.2,20251105-084826,785,Experiment,Both,1,Automatic,main,9,20260304-151104,global,global,300,S,S,A,A,S-A.png,S-A.png,sS,sS,mask-4.png,mask-2.png,s,1,2.2003429000033066,h,0,0.18470350001007318,0.04857940005604178,0.04730480001308024,0.10162620001938194,0.1001115000108257,0.3008673000149429
RSVPLG03,cs,20260304-151003,1.0.2,20251105-084826,785,Experiment,Both,1,Automatic,main,10,20260304-151110,local,global,750,S,S,A,A,A-S.png,S-A.png,sS,sS,mask-1.png,mask-3.png,s,1,1.2169655000325292,h,0,0.15329040004871786,0.04750899993814528,0.04756160010583699,0.0996756999520585,0.10032140009570867,0.7482583998935297
RSVPLG03,cs,20260304-151003,1.0.2,20251105-084826,785,Experiment,Both,1,Automatic,main,11,20260304-151116,global,global,750,S,S,A,E,S-A.png,S-E.png,sS,sS,mask-4.png,mask-3.png,s,1,0.7382744000060484,s,1,0.09672340005636215,0.04778909997548908,0.04780209995806217,0.09985200001392514,0.09941379993688315,0.7475081000011414
RSVPLG03,cs,20260304-151003,1.0.2,20251105-084826,785,Experiment,Both,1,Automatic,main,12,20260304-151121,local,global,300,S,H,E,A,E-S.png,H-A.png,sS,hH,mask-3.png,mask-1.png,s,1,0.5713049999903888,h,1,0.3103090999647975,0.046454899944365025,0.04765379999298602,0.10020109999459237,0.10011250001844019,0.2996712999884039
RSVPLG03,cs,20260304-151003,1.0.2,20251105-084826,785,Experiment,Both,1,Automatic,main,13,20260304-151125,global,global,750,H,H,E,E,H-E.png,H-E.png,hH,hH,mask-2.png,mask-3.png,h,1,0.37900159996934235,h,1,0.0871665000449866,0.04764280002564192,0.046472599962726235,0.09974910004530102,0.09855029999744147,0.7494223000248894
RSVPLG03,cs,20260304-151003,1.0.2,20251105-084826,785,Experiment,Both,1,Automatic,main,14,20260304-151130,global,global,750,H,H,E,E,H-E.png,H-E.png,hH,hH,mask-4.png,mask-4.png,h,1,0.47911860002204776,h,1,0.108308200025931,0.04851759993471205,0.044767600018531084,0.09999159991275519,0.09860950009897351,0.7500931998947635
RSVPLG03,cs,20260304-151003,1.0.2,20251105-084826,785,Experiment,Both,1,Automatic,main,15,20260304-151135,global,global,300,H,H,E,E,H-E.png,H-E.png,hH,hH,mask-2.png,mask-3.png,h,1,0.3784419000148773,h,1,0.08749269996769726,0.047534900018945336,0.0485327000496909,0.10053659998811781,0.09973719995468855,0.299172000028193
RSVPLG03,cs,20260304-151003,1.0.2,20251105-084826,785,Experiment,Both,1,Automatic,main,16,20260304-151139,global,local,300,H,H,A,E,H-A.png,E-H.png,hH,hH,mask-2.png,mask-3.png,h,1,0.5672242000000551,s,0,0.07584279996808618,0.048717299941927195,0.046146900043822825,0.10071629995945841,0.0985221000155434,0.3010065999114886
RSVPLG03,cs,20260304-151003,1.0.2,20251105-084826,785,Experiment,Both,1,Automatic,main,17,20260304-151143,global,local,750,H,H,A,A,H-A.png,A-H.png,hH,hH,mask-3.png,mask-3.png,h,1,0.4815414999611676,h,1,0.14466059999540448,0.04668529995251447,0.04777850001119077,0.09882610000204295,0.09908389998599887,0.7481807000003755
RSVPLG03,cs,20260304-151003,1.0.2,20251105-084826,785,Experiment,Both,1,Automatic,main,18,20260304-151148,global,global,750,H,S,A,E,H-A.png,S-E.png,hH,sS,mask-1.png,mask-2.png,h,1,0.5821175000164658,s,1,0.12620149995200336,0.04653679998591542,0.048604900017380714,0.10008490004111081,0.09960539999883622,0.7472073000390083
RSVPLG03,cs,20260304-151003,1.0.2,20251105-084826,785,Experiment,Both,1,Automatic,main,19,20260304-151153,local,local,750,H,H,E,E,E-H.png,E-H.png,hH,hH,mask-1.png,mask-4.png,h,1,0.8735961000202224,h,1,0.40499549999367446,0.04758610005956143,0.047677200054749846,0.09956960007548332,0.09965230000670999,0.7487936000106856
RSVPLG03,cs,20260304-151003,1.0.2,20251105-084826,785,Experiment,Both,1,Automatic,main,20,20260304-151158,local,global,750,S,H,E,E,E-S.png,H-E.png,sS,hH,mask-1.png,mask-4.png,s,1,1.2233711000299081,h,1,0.25408129999414086,0.047658000024966896,0.047355399932712317,0.09984679997432977,0.1000484999967739,0.748154400032945
RSVPLG03,cs,20260304-151003,1.0.2,20251105-084826,785,Experiment,Both,1,Automatic,main,21,20260304-151204,global,local,750,H,S,A,A,H-A.png,A-S.png,hH,sS,mask-2.png,mask-2.png,h,1,1.6471885000355542,s,1,0.09155539993662387,0.04616529995109886,0.04855210008099675,0.09829600004013628,0.09964799997396767,0.7469705999828875
RSVPLG03,cs,20260304-151003,1.0.2,20251105-084826,785,Experiment,Both,1,Automatic,main,22,20260304-151209,local,global,300,S,S,A,E,A-S.png,S-E.png,sS,sS,mask-1.png,mask-3.png,s,1,1.0308661999879405,h,0,0.17613839998375624,0.04861779999919236,0.047656500013545156,0.10094420006498694,0.10079580009914935,0.2993482999736443
RSVPLG03,cs,20260304-151003,1.0.2,20251105-084826,785,Experiment,Both,1,Automatic,main,23,20260304-151214,global,global,750,S,H,A,A,S-A.png,H-A.png,sS,hH,mask-3.png,mask-1.png,s,1,0.7203459999291226,h,1,0.12098490004427731,0.047663799952715635,0.046626699971966445,0.09983399999327958,0.099768599960953,0.7477481999667361
RSVPLG03,cs,20260304-151003,1.0.2,20251105-084826,785,Experiment,Both,1,Automatic,main,24,20260304-151219,global,local,750,H,S,A,A,H-A.png,A-S.png,hH,sS,mask-3.png,mask-1.png,h,1,1.5826044999994338,h,0,0.0938189000589773,0.046260599978268147,0.04581470007542521,0.10032460000365973,0.0993288999889046,0.7487052999204025
RSVPLG03,cs,20260304-151003,1.0.2,20251105-084826,785,Experiment,Both,1,Automatic,main,25,20260304-151225,global,local,300,S,S,E,E,S-E.png,E-S.png,sS,sS,mask-4.png,mask-2.png,s,1,0.7090065999655053,s,1,0.09194529999513179,0.04768570000305772,0.04787640005815774,0.09887610003352165,0.10091250005643815,0.29759450000710785
RSVPLG03,cs,20260304-151003,1.0.2,20251105-084826,785,Experiment,Both,1,Automatic,main,26,20260304-151304,global,local,300,S,S,E,E,S-E.png,E-S.png,sS,sS,mask-1.png,mask-2.png,s,1,0.6156671999488026,s,1,0.0696431000251323,0.04768680001143366,0.047190299956128,0.10034630005247891,0.10017170000355691,0.2998306000372395
RSVPLG03,cs,20260304-151003,1.0.2,20251105-084826,785,Experiment,Both,1,Automatic,main,27,20260304-151308,local,local,300,H,S,A,E,A-H.png,E-S.png,hH,sS,mask-2.png,mask-1.png,h,1,0.9664113000035286,s,1,0.044398300000466406,0.04781159991398454,0.04795050004031509,0.10085049993358552,0.09873060008976609,0.2997373999096453
RSVPLG03,cs,20260304-151003,1.0.2,20251105-084826,785,Experiment,Both,1,Automatic,main,28,20260304-151313,global,global,300,S,H,E,E,S-E.png,H-E.png,sS,hH,mask-4.png,mask-4.png,s,1,0.6642357999226078,s,0,0.07459700002800673,0.04716590000316501,0.04689580004196614,0.10015660000499338,0.10011739993933588,0.2999887999612838
RSVPLG03,cs,20260304-151003,1.0.2,20251105-084826,785,Experiment,Both,1,Automatic,main,29,20260304-151317,local,local,750,S,H,E,E,E-S.png,E-H.png,sS,hH,mask-4.png,mask-1.png,s,1,0.8362963000545278,h,1,0.10047249996569008,0.047016600030474365,0.04665389994625002,0.10087159997783601,0.10062299994751811,0.7482761000283062
RSVPLG03,cs,20260304-151003,1.0.2,20251105-084826,785,Experiment,Both,1,Automatic,main,30,20260304-151322,local,global,750,H,H,A,E,A-H.png,H-E.png,hH,hH,mask-4.png,mask-4.png,s,0,1.9534176000161096,s,0,0.13955910003278404,0.046837299945764244,0.04839759995229542,0.10095329990144819,0.0995319999055937,0.7484244999941438
RSVPLG03,cs,20260304-151003,1.0.2,20251105-084826,785,Experiment,Both,1,Automatic,main,31,20260304-151329,global,local,300,H,H,E,A,H-E.png,A-H.png,hH,hH,mask-4.png,mask-2.png,h,1,0.5282503999769688,h,1,0.03846099996007979,0.04749919997993857,0.04649910004809499,0.10050820000469685,0.09883170004468411,0.3007868999848142
RSVPLG03,cs,20260304-151003,1.0.2,20251105-084826,785,Experiment,Both,1,Automatic,main,32,20260304-151333,local,global,300,S,H,A,E,A-S.png,H-E.png,sS,hH,mask-2.png,mask-4.png,s,1,0.8103332000318915,s,0,0.3321334000211209,0.04849170008674264,0.04681969992816448,0.10149830009322613,0.09986929991282523,0.29969800007529557
RSVPLG03,cs,20260304-151003,1.0.2,20251105-084826,785,Experiment,Both,1,Automatic,main,33,20260304-151338,local,local,300,H,S,A,A,A-H.png,A-S.png,hH,sS,mask-1.png,mask-3.png,h,1,0.944468199973926,s,1,0.2304489000234753,0.047523100045509636,0.04617320001125336,0.1005260000238195,0.09923349996097386,0.30053550004959106
RSVPLG03,cs,20260304-151003,1.0.2,20251105-084826,785,Experiment,Both,1,Automatic,main,34,20260304-151343,global,global,750,H,S,A,E,H-A.png,S-E.png,hH,sS,mask-2.png,mask-1.png,h,1,0.6200098999543115,s,1,0.2365968000376597,0.04742319998331368,0.047502700006589293,0.10024080006405711,0.09953160001896322,0.7485142999794334
RSVPLG03,cs,20260304-151003,1.0.2,20251105-084826,785,Experiment,Both,1,Automatic,main,35,20260304-151348,local,local,300,H,H,E,A,E-H.png,A-H.png,hH,hH,mask-4.png,mask-3.png,h,1,0.8248665999853984,s,0,0.1270976000232622,0.0468867999734357,0.04723030002787709,0.10024780000094324,0.09898740006610751,0.2988526999251917
RSVPLG03,cs,20260304-151003,1.0.2,20251105-084826,785,Experiment,Both,1,Automatic,main,36,20260304-151352,local,local,750,H,H,A,E,A-H.png,E-H.png,hH,hH,mask-2.png,mask-3.png,h,1,0.7385380000341684,h,1,0.10472539998590946,0.045699200010858476,0.04676069994457066,0.09993010002654046,0.09843889996409416,0.7477133000502363
RSVPLG03,cs,20260304-151003,1.0.2,20251105-084826,785,Experiment,Both,1,Automatic,main,37,20260304-151357,global,global,750,H,H,A,A,H-A.png,H-A.png,hH,hH,mask-3.png,mask-1.png,h,1,0.22901020001154393,h,1,0.08755070006009191,0.047315599978901446,0.04573250003159046,0.09992989990860224,0.09860919998027384,0.7499291999265552
RSVPLG03,cs,20260304-151003,1.0.2,20251105-084826,785,Experiment,Both,1,Automatic,main,38,20260304-151401,global,local,300,S,S,E,A,S-E.png,A-S.png,sS,sS,mask-4.png,mask-2.png,h,0,0.4920004999730736,h,0,0.06209090002812445,0.04764840006828308,0.048438499914482236,0.0998816000064835,0.10064379998948425,0.2987656000768766
RSVPLG03,cs,20260304-151003,1.0.2,20251105-084826,785,Experiment,Both,1,Automatic,main,39,20260304-151406,local,local,750,H,S,A,E,A-H.png,E-S.png,hH,sS,mask-4.png,mask-1.png,h,1,0.6293800000566989,s,1,0.05929690005723387,0.047087599989026785,0.04773849993944168,0.1007567000342533,0.09988320001866668,0.7482131000142545
RSVPLG03,cs,20260304-151003,1.0.2,20251105-084826,785,Experiment,Both,1,Automatic,main,40,20260304-151410,global,local,750,H,H,A,A,H-A.png,A-H.png,hH,hH,mask-3.png,mask-1.png,h,1,0.5746810000855476,s,0,0.2554297000169754,0.048713100026361644,0.04670149995945394,0.09992639999836683,0.10013219993561506,0.7488928000675514
RSVPLG03,cs,20260304-151003,1.0.2,20251105-084826,785,Experiment,Both,1,Automatic,main,41,20260304-151415,global,global,750,H,H,A,A,H-A.png,H-A.png,hH,hH,mask-4.png,mask-3.png,h,1,0.4292707999702543,h,1,0.08600920008029789,0.04750360001344234,0.04755060002207756,0.10053890000563115,0.09955789998639375,0.7478707999689505
RSVPLG03,cs,20260304-151003,1.0.2,20251105-084826,785,Experiment,Both,1,Automatic,main,42,20260304-151420,local,global,750,S,H,E,A,E-S.png,H-A.png,sS,hH,mask-2.png,mask-3.png,s,1,0.6995459999889135,s,0,0.0679175000404939,0.04756520001683384,0.048509899992495775,0.09958999999798834,0.09999790007714182,0.7478078999556601
RSVPLG03,cs,20260304-151003,1.0.2,20251105-084826,785,Experiment,Both,1,Automatic,main,43,20260304-151425,local,global,300,H,S,E,E,E-H.png,S-E.png,hH,sS,mask-3.png,mask-3.png,h,1,1.0904787000035867,s,1,0.042813300038687885,0.046481600031256676,0.045781000051647425,0.10107600002083927,0.09987200004979968,0.3004640999715775
RSVPLG03,cs,20260304-151003,1.0.2,20251105-084826,785,Experiment,Both,1,Automatic,main,44,20260304-151430,global,local,300,S,S,A,E,S-A.png,E-S.png,sS,sS,mask-1.png,mask-3.png,s,1,0.6985545000061393,s,1,0.06054880004376173,0.04751659999601543,0.04576090001501143,0.09949689998757094,0.09909569995943457,0.3008122000610456
RSVPLG03,cs,20260304-151003,1.0.2,20251105-084826,785,Experiment,Both,1,Automatic,main,45,20260304-151434,global,global,750,S,S,A,A,S-A.png,S-A.png,sS,sS,mask-3.png,mask-2.png,s,1,0.3645385999698192,s,1,0.0862050000578165,0.046477099996991456,0.045789600000716746,0.09741899999789894,0.09799929999280721,0.7482510999543592
RSVPLG03,cs,20260304-151003,1.0.2,20251105-084826,785,Experiment,Both,1,Automatic,main,46,20260304-151439,local,local,300,S,H,E,E,E-S.png,E-H.png,sS,hH,mask-2.png,mask-4.png,s,1,0.81130599998869,s,0,0.09561799990478903,0.04759400000330061,0.04719469998963177,0.0999424000037834,0.09912419994361699,0.2990049000363797
RSVPLG03,cs,20260304-151003,1.0.2,20251105-084826,785,Experiment,Both,1,Automatic,main,47,20260304-151443,local,local,750,H,S,E,A,E-H.png,A-S.png,hH,sS,mask-1.png,mask-2.png,h,1,1.1931169000454247,h,0,0.3401546999812126,0.04757559997960925,0.04766340006608516,0.09977400000207126,0.1008569000987336,0.7479268999304622
RSVPLG03,cs,20260304-151003,1.0.2,20251105-084826,785,Experiment,Both,1,Automatic,main,48,20260304-151449,global,local,750,H,H,E,A,H-E.png,A-H.png,hH,hH,mask-1.png,mask-2.png,h,1,1.2383492999942973,h,1,0.6355270999483764,0.046309700002893806,0.048661999986507,0.09850840002764016,0.09973659995011985,0.7468868000432849
RSVPLG03,cs,20260304-151003,1.0.2,20251105-084826,785,Experiment,Both,1,Automatic,main,49,20260304-151455,local,global,750,S,S,E,E,E-S.png,S-E.png,sS,sS,mask-2.png,mask-1.png,s,1,0.838888099999167,s,1,0.21770329994615167,0.047475499915890396,0.04765389999374747,0.09943909989669919,0.09917100006714463,0.7474672999233007
RSVPLG03,cs,20260304-151003,1.0.2,20251105-084826,785,Experiment,Both,1,Automatic,main,50,20260304-151500,global,local,750,H,S,A,E,H-A.png,E-S.png,hH,sS,mask-3.png,mask-3.png,h,1,0.6261874999618158,s,1,0.16443820006679744,0.04769569996278733,0.04810080002062023,0.10062649997416884,0.10126809997018427,0.7478250999702141
RSVPLG03,cs,20260304-151003,1.0.2,20251105-084826,785,Experiment,Both,1,Automatic,main,51,20260304-151604,local,global,300,H,S,A,E,A-H.png,S-E.png,hH,sS,mask-2.png,mask-3.png,h,1,0.9231102999765426,s,1,0.13386020006146282,0.04749889997765422,0.04651979997288436,0.09949870000127703,0.09937209996860474,0.30018449993804097
RSVPLG03,cs,20260304-151003,1.0.2,20251105-084826,785,Experiment,Both,1,Automatic,main,52,20260304-151608,global,local,300,S,H,E,E,S-E.png,E-H.png,sS,hH,mask-3.png,mask-4.png,s,1,0.6238131000427529,s,0,0.10213120002299547,0.04727209999691695,0.04851069999858737,0.10018089995719492,0.10056649998296052,0.2991652999771759
RSVPLG03,cs,20260304-151003,1.0.2,20251105-084826,785,Experiment,Both,1,Automatic,main,53,20260304-151613,local,global,750,H,H,E,E,E-H.png,H-E.png,hH,hH,mask-3.png,mask-3.png,h,1,1.113841800019145,s,0,0.7959362999536097,0.048037300002761185,0.04678869992494583,0.09951950004324317,0.10000489989761263,0.7491116001037881
RSVPLG03,cs,20260304-151003,1.0.2,20251105-084826,785,Experiment,Both,1,Automatic,main,54,20260304-151619,local,local,750,S,S,A,A,A-S.png,A-S.png,sS,sS,mask-4.png,mask-4.png,s,1,0.4808875999879092,s,1,0.09642610000446439,0.04694440006278455,0.04731359996367246,0.10047950001899153,0.0987316999817267,0.7494114000583068
RSVPLG03,cs,20260304-151003,1.0.2,20251105-084826,785,Experiment,Both,1,Automatic,main,55,20260304-151624,global,global,750,H,H,E,E,H-E.png,H-E.png,hH,hH,mask-2.png,mask-1.png,h,1,0.3125935000134632,h,1,0.15599500003736466,0.045905600069090724,0.04861110006459057,0.09982620005030185,0.10167880007065833,0.7467305000172928
RSVPLG03,cs,20260304-151003,1.0.2,20251105-084826,785,Experiment,Both,1,Automatic,main,56,20260304-151628,global,global,300,S,H,A,E,S-A.png,H-E.png,sS,hH,mask-4.png,mask-3.png,s,1,1.515484599978663,h,1,1.03459189995192,0.04719299997668713,0.047937799943611026,0.10046340001281351,0.09984019992407411,0.30024300003424287
RSVPLG03,cs,20260304-151003,1.0.2,20251105-084826,785,Experiment,Both,1,Automatic,main,57,20260304-151634,local,global,750,S,H,E,A,E-S.png,H-A.png,sS,hH,mask-3.png,mask-4.png,s,1,0.5694953999482095,s,0,0.07038619997911155,0.04748810001183301,0.045602799975313246,0.09949219995178282,0.09962300001643598,0.7497884000185877
RSVPLG03,cs,20260304-151003,1.0.2,20251105-084826,785,Experiment,Both,1,Automatic,main,58,20260304-151639,local,global,750,S,H,E,E,E-S.png,H-E.png,sS,hH,mask-2.png,mask-2.png,s,1,0.46332830004394054,s,0,0.09245789994020015,0.04770949995145202,0.046724500018171966,0.100254200049676,0.09894850000273436,0.7494774999795482
RSVPLG03,cs,20260304-151003,1.0.2,20251105-084826,785,Experiment,Both,1,Automatic,main,59,20260304-151644,global,local,750,S,H,A,E,S-A.png,E-H.png,sS,hH,mask-1.png,mask-2.png,s,1,0.8902439000084996,h,1,0.17045139998663217,0.04695760004688054,0.04766009992454201,0.10020810004789382,0.09984029992483556,0.7483752000844106
RSVPLG03,cs,20260304-151003,1.0.2,20251105-084826,785,Experiment,Both,1,Automatic,main,60,20260304-151649,local,global,300,S,H,A,E,A-S.png,H-E.png,sS,hH,mask-3.png,mask-4.png,h,0,4.180360800004564,s,0,4.292300599976443,0.04678689991123974,0.04746140004135668,0.0998301999643445,0.10046340001281351,0.29940209991764277
RSVPLG03,cs,20260304-151003,1.0.2,20251105-084826,785,Experiment,Both,1,Automatic,main,61,20260304-151657,local,local,300,H,H,E,A,E-H.png,A-H.png,hH,hH,mask-4.png,mask-3.png,h,1,2.010202100034803,s,0,0.0881651999661699,0.047525899950414896,0.0468010000186041,0.10056940000504255,0.10044399998150766,0.2991664999863133
RSVPLG03,cs,20260304-151003,1.0.2,20251105-084826,785,Experiment,Both,1,Automatic,main,62,20260304-151703,global,global,300,S,S,A,E,S-A.png,S-E.png,sS,sS,mask-3.png,mask-4.png,h,0,1.122367799980566,s,1,1.234381299931556,0.04753470001742244,0.047229900024831295,0.10016550007276237,0.09999590006191283,0.29967460001353174
RSVPLG03,cs,20260304-151003,1.0.2,20251105-084826,785,Experiment,Both,1,Automatic,main,63,20260304-151708,global,global,300,S,H,E,E,S-E.png,H-E.png,sS,hH,mask-4.png,mask-4.png,s,1,1.8762967999791726,h,1,0.15108990005683154,0.04804140003398061,0.0461864999961108,0.10017600003629923,0.09918300004210323,0.2995769999688491
RSVPLG03,cs,20260304-151003,1.0.2,20251105-084826,785,Experiment,Both,1,Automatic,main,64,20260304-151713,global,global,300,H,S,A,A,H-A.png,S-A.png,hH,sS,mask-2.png,mask-4.png,h,1,1.7405161000788212,s,1,0.07211629999801517,0.04789140005595982,0.04709610005374998,0.10096339997835457,0.09968560002744198,0.30037589999847114
RSVPLG03,cs,20260304-151003,1.0.2,20251105-084826,785,Experiment,Both,1,Automatic,main,65,20260304-151719,global,local,300,S,S,A,E,S-A.png,E-S.png,sS,sS,mask-4.png,mask-2.png,s,1,0.5822649999754503,s,1,0.09131240006536245,0.04644070006906986,0.0470378000754863,0.09854579996317625,0.09930580004584044,0.29934759996831417
RSVPLG03,cs,20260304-151003,1.0.2,20251105-084826,785,Experiment,Both,1,Automatic,main,66,20260304-151723,local,local,300,S,S,A,E,A-S.png,E-S.png,sS,sS,mask-1.png,mask-2.png,s,1,0.49316949991043657,s,1,0.06743020005524158,0.04769490007311106,0.04709259991068393,0.10101540002506226,0.09896989993285388,0.3004640000872314
RSVPLG03,cs,20260304-151003,1.0.2,20251105-084826,785,Experiment,Both,1,Automatic,main,67,20260304-151727,local,local,750,H,S,E,A,E-H.png,A-S.png,hH,sS,mask-2.png,mask-2.png,h,1,1.8194683999754488,h,0,0.25882699992507696,0.046740599907934666,0.047681799973361194,0.09996539994608611,0.09814450005069375,0.7485726999584585
RSVPLG03,cs,20260304-151003,1.0.2,20251105-084826,785,Experiment,Both,1,Automatic,main,68,20260304-151733,global,local,750,S,H,E,A,S-E.png,A-H.png,sS,hH,mask-2.png,mask-3.png,s,1,1.028695399989374,s,0,0.08745479991193861,0.047336800023913383,0.04734589997678995,0.101506800041534,0.0985574999358505,0.7500368000473827
RSVPLG03,cs,20260304-151003,1.0.2,20251105-084826,785,Experiment,Both,1,Automatic,main,69,20260304-151739,local,global,750,S,H,E,E,E-S.png,H-E.png,sS,hH,mask-4.png,mask-3.png,s,1,0.7604228999698535,h,1,0.5881524999858811,0.04754290007986128,0.046882999944500625,0.09998679999262094,0.0999785999301821,0.7492309000808746
RSVPLG03,cs,20260304-151003,1.0.2,20251105-084826,785,Experiment,Both,1,Automatic,main,70,20260304-151744,global,global,300,S,S,A,E,S-A.png,S-E.png,sS,sS,mask-1.png,mask-4.png,s,1,0.5086232998874038,s,1,0.10600929998327047,0.047693299944512546,0.04744130000472069,0.09973179991357028,0.10065010003745556,0.2992874999763444
RSVPLG03,cs,20260304-151003,1.0.2,20251105-084826,785,Experiment,Both,1,Automatic,main,71,20260304-151749,global,global,300,S,S,A,A,S-A.png,S-A.png,sS,sS,mask-1.png,mask-1.png,s,1,0.3768607000820339,s,1,0.08804659999441355,0.04736890003550798,0.04739939991850406,0.10007579997181892,0.10039139993023127,0.2998306000372395
RSVPLG03,cs,20260304-151003,1.0.2,20251105-084826,785,Experiment,Both,1,Automatic,main,72,20260304-151753,global,local,300,S,H,E,E,S-E.png,E-H.png,sS,hH,mask-4.png,mask-1.png,s,1,0.28073640004731715,s,0,0.08651190006639808,0.045679999981075525,0.046951199998147786,0.09921580005902797,0.09959860006347299,0.2980805999832228
RSVPLG03,cs,20260304-151003,1.0.2,20251105-084826,785,Experiment,Both,1,Automatic,main,73,20260304-151757,global,global,750,H,S,E,E,H-E.png,S-E.png,hH,sS,mask-1.png,mask-2.png,h,1,0.3757297000847757,s,1,0.07697369996458292,0.0476958000799641,0.04749480006285012,0.09995260008145124,0.09947940008714795,0.7485152999870479
RSVPLG03,cs,20260304-151003,1.0.2,20251105-084826,785,Experiment,Both,1,Automatic,main,74,20260304-151801,local,global,750,S,S,A,E,A-S.png,S-E.png,sS,sS,mask-3.png,mask-3.png,s,1,0.825972400023602,s,1,0.09640270005911589,0.046855099964886904,0.04876879998482764,0.09940359997563064,0.1018930000718683,0.7472567999502644
RSVPLG03,cs,20260304-151003,1.0.2,20251105-084826,785,Experiment,Both,1,Automatic,main,75,20260304-151806,global,local,750,H,S,A,A,H-A.png,A-S.png,hH,sS,mask-2.png,mask-3.png,h,1,0.47524719999637455,h,0,0.21623450005427003,0.04848649993073195,0.04673009994439781,0.09974189999047667,0.10071179992519319,0.7488371999934316
RSVPLG03,cs,20260304-151003,1.0.2,20251105-084826,785,Experiment,Both,1,Automatic,main,76,20260304-151842,local,local,300,H,S,A,E,A-H.png,E-S.png,hH,sS,mask-4.png,mask-2.png,h,1,0.6368113999487832,s,1,0.04188349994365126,0.0475399000570178,0.04741710005328059,0.09970969997812063,0.09926990000531077,0.29981490003410727
RSVPLG03,cs,20260304-151003,1.0.2,20251105-084826,785,Experiment,Both,1,Automatic,main,77,20260304-151846,global,local,300,H,S,E,A,H-E.png,A-S.png,hH,sS,mask-1.png,mask-1.png,h,1,0.5502570000244305,s,1,0.4649328999221325,0.048941700020805,0.04725050006527454,0.10107510001398623,0.0990682999836281,0.3005694999592379
RSVPLG03,cs,20260304-151003,1.0.2,20251105-084826,785,Experiment,Both,1,Automatic,main,78,20260304-151851,global,local,750,S,H,A,E,S-A.png,E-H.png,sS,hH,mask-3.png,mask-3.png,s,1,0.46509219997096807,s,0,0.10309210000559688,0.04768499999772757,0.046786700026132166,0.09854210005141795,0.09968710003886372,0.7477679000003263
RSVPLG03,cs,20260304-151003,1.0.2,20251105-084826,785,Experiment,Both,1,Automatic,main,79,20260304-151855,global,local,750,S,H,A,E,S-A.png,E-H.png,sS,hH,mask-2.png,mask-3.png,s,1,0.4753677999833599,s,0,0.10901900008320808,0.047444699914194643,0.04878830001689494,0.1001350999576971,0.09980389999691397,0.7487138999858871
RSVPLG03,cs,20260304-151003,1.0.2,20251105-084826,785,Experiment,Both,1,Automatic,main,80,20260304-151900,global,local,750,H,H,E,E,H-E.png,E-H.png,hH,hH,mask-4.png,mask-3.png,h,1,0.4005666000302881,h,1,0.11067869991529733,0.0474197999574244,0.04769899998791516,0.09838949993718415,0.09984379995148629,0.7470780999865383
RSVPLG03,cs,20260304-151003,1.0.2,20251105-084826,785,Experiment,Both,1,Automatic,main,81,20260304-151905,local,local,300,S,S,E,A,E-S.png,A-S.png,sS,sS,mask-4.png,mask-1.png,s,1,1.353648400050588,h,0,0.03581220004707575,0.047794600017368793,0.046469800057820976,0.09999240003526211,0.09835910005494952,0.3007857999764383
RSVPLG03,cs,20260304-151003,1.0.2,20251105-084826,785,Experiment,Both,1,Automatic,main,82,20260304-151910,global,local,300,H,H,E,E,H-E.png,E-H.png,hH,hH,mask-3.png,mask-3.png,h,1,1.2424736000830308,s,0,0.09315109997987747,0.0478057999862358,0.046608899952843785,0.09885900001972914,0.09806939994450659,0.29993620002642274
RSVPLG03,cs,20260304-151003,1.0.2,20251105-084826,785,Experiment,Both,1,Automatic,main,83,20260304-151915,local,global,300,H,H,A,E,A-H.png,H-E.png,hH,hH,mask-3.png,mask-1.png,h,1,0.4429857999784872,h,1,0.05345609993673861,0.048588600009679794,0.0458084000274539,0.10159850004129112,0.09831489995121956,0.30022870004177094
RSVPLG03,cs,20260304-151003,1.0.2,20251105-084826,785,Experiment,Both,1,Automatic,main,84,20260304-151919,local,local,750,S,H,A,A,A-S.png,A-H.png,sS,hH,mask-4.png,mask-1.png,h,0,2.456177599960938,h,1,0.0895537999458611,0.04833620006684214,0.0477505000308156,0.10116309998556972,0.10000139998737723,0.7496782999951392
RSVPLG03,cs,20260304-151003,1.0.2,20251105-084826,785,Experiment,Both,1,Automatic,main,85,20260304-151926,global,global,300,H,S,E,A,H-E.png,S-A.png,hH,sS,mask-2.png,mask-1.png,h,1,0.544222499942407,s,1,0.47622499999124557,0.047728899982757866,0.04849019995890558,0.09975799999665469,0.0988449000287801,0.2996900000143796
RSVPLG03,cs,20260304-151003,1.0.2,20251105-084826,785,Experiment,Both,1,Automatic,main,86,20260304-151931,local,local,750,H,S,E,E,E-H.png,E-S.png,hH,sS,mask-2.png,mask-1.png,h,1,0.8742218000115827,s,1,0.08021559996996075,0.046542400028556585,0.04761550005059689,0.09870700002647936,0.10080240003298968,0.747038200031966
RSVPLG03,cs,20260304-151003,1.0.2,20251105-084826,785,Experiment,Both,1,Automatic,main,87,20260304-151936,global,global,300,S,S,E,E,S-E.png,S-E.png,sS,sS,mask-2.png,mask-3.png,s,1,0.46351730008609593,s,1,0.08783069998025894,0.04778879997320473,0.047533700009807944,0.0992848000023514,0.09945899993181229,0.3003288999898359
RSVPLG03,cs,20260304-151003,1.0.2,20251105-084826,785,Experiment,Both,1,Automatic,main,88,20260304-151940,local,global,750,S,H,E,E,E-S.png,H-E.png,sS,hH,mask-3.png,mask-4.png,s,1,0.590194100048393,h,1,0.13485999999102205,0.04705589998047799,0.046715699951164424,0.10032690002117306,0.09902880003210157,0.7489732999820262
RSVPLG03,cs,20260304-151003,1.0.2,20251105-084826,785,Experiment,Both,1,Automatic,main,89,20260304-151945,local,local,300,S,H,E,E,E-S.png,E-H.png,sS,hH,mask-4.png,mask-1.png,s,1,0.7030525000300258,h,1,0.07863330002874136,0.04718069999944419,0.04854069999419153,0.10108749999199063,0.10022130003198981,0.2986055000219494
RSVPLG03,cs,20260304-151003,1.0.2,20251105-084826,785,Experiment,Both,1,Automatic,main,90,20260304-151949,local,global,300,S,S,A,A,A-S.png,S-A.png,sS,sS,mask-1.png,mask-1.png,s,1,1.3034294999670237,h,0,0.1340862000361085,0.047674400033429265,0.04649679991416633,0.09934489999432117,0.09938599995803088,0.3006939000915736
RSVPLG03,cs,20260304-151003,1.0.2,20251105-084826,785,Experiment,Both,1,Automatic,main,91,20260304-151954,local,global,750,H,H,A,A,A-H.png,H-A.png,hH,hH,mask-4.png,mask-1.png,h,1,2.2361569999484345,h,1,0.09035680000670254,0.04642170004080981,0.04758180002681911,0.09813570010010153,0.09968920005485415,0.7485689000459388
RSVPLG03,cs,20260304-151003,1.0.2,20251105-084826,785,Experiment,Both,1,Automatic,main,92,20260304-152001,local,local,300,H,S,A,E,A-H.png,E-S.png,hH,sS,mask-3.png,mask-2.png,h,1,0.4519344000145793,h,0,0.06948609999381006,0.04740110004786402,0.04776700004003942,0.10069890005979687,0.09997010009828955,0.2987487999489531
RSVPLG03,cs,20260304-151003,1.0.2,20251105-084826,785,Experiment,Both,1,Automatic,main,93,20260304-152005,local,global,300,H,S,A,A,A-H.png,S-A.png,hH,sS,mask-1.png,mask-1.png,h,1,0.5325263999402523,s,1,0.07271350000519305,0.04770199989434332,0.04668569995556027,0.09966839989647269,0.09982080000918359,0.3004019999643788
RSVPLG03,cs,20260304-151003,1.0.2,20251105-084826,785,Experiment,Both,1,Automatic,main,94,20260304-152010,local,global,300,S,S,E,A,E-S.png,S-A.png,sS,sS,mask-1.png,mask-4.png,s,1,1.2621210999786854,h,0,0.43072900001425296,0.0474390999879688,0.04575469996780157,0.09938619995955378,0.0989691000431776,0.30017099995166063
RSVPLG03,cs,20260304-151003,1.0.2,20251105-084826,785,Experiment,Both,1,Automatic,main,95,20260304-152015,global,local,300,H,S,E,A,H-E.png,A-S.png,hH,sS,mask-1.png,mask-3.png,h,1,0.8876645000418648,h,0,0.40636519994586706,0.04871699993964285,0.04758200002834201,0.09990109992213547,0.09881220001261681,0.3005205999361351
RSVPLG03,cs,20260304-151003,1.0.2,20251105-084826,785,Experiment,Both,1,Automatic,main,96,20260304-152020,local,local,300,H,H,A,E,A-H.png,E-H.png,hH,hH,mask-4.png,mask-3.png,s,0,2.281585399992764,s,0,0.11727629997767508,0.04654929996468127,0.047715799999423325,0.09890989994164556,0.09977700002491474,0.29965229996014386
RSVPLG03,cs,20260304-151003,1.0.2,20251105-084826,785,Experiment,Both,1,Automatic,main,97,20260304-152026,local,global,300,H,S,E,E,E-H.png,S-E.png,hH,sS,mask-3.png,mask-3.png,h,1,2.296957799931988,s,1,0.10784139996394515,0.048685000045225024,0.04778759996406734,0.10035540000535548,0.09888219996355474,0.299699499970302
RSVPLG03,cs,20260304-151003,1.0.2,20251105-084826,785,Experiment,Both,1,Automatic,main,98,20260304-152032,global,global,300,S,H,A,A,S-A.png,H-A.png,sS,hH,mask-1.png,mask-2.png,s,1,1.7311116999480873,s,0,0.12371900002472103,0.04748740000650287,0.04653459996916354,0.09949289995711297,0.09858579991851002,0.30021290003787726
RSVPLG03,cs,20260304-151003,1.0.2,20251105-084826,785,Experiment,Both,1,Automatic,main,99,20260304-152038,local,local,750,S,H,E,A,E-S.png,A-H.png,sS,hH,mask-3.png,mask-2.png,s,1,0.3928919999161735,s,0,0.42849749990273267,0.046884699957445264,0.04750480002257973,0.09894609998445958,0.10049990005791187,0.7478144000051543
RSVPLG03,cs,20260304-151003,1.0.2,20251105-084826,785,Experiment,Both,1,Automatic,main,100,20260304-152043,local,global,300,H,S,A,A,A-H.png,S-A.png,hH,sS,mask-3.png,mask-1.png,h,1,1.087867600028403,s,1,0.15495500003453344,0.0476141000399366,0.047022700076922774,0.09954269998706877,0.09830930002499372,0.29993029998149723
