exp,exp_initials,runtime,ver,modtime,sub,blocktype,targets,cuetype,mode,trialtype,trial,trialtime,t1_level,t2_level,t2_lag,t1,t2,distractor1,distractor2,stimfile1,stimfile2,t1_corr,t2_corr,maskfile1,maskfile2,t1_resp,t1_acc,t1_rt,t2_resp,t2_acc,t2_rt,t1_dur,t2_dur,t1mask_soa,t2mask_soa,t1t2_soa
RSVPLG03,km,20251014-093745,1.0.1,20250923-093501,701,Introduction,T1,1,Automatic,main,1,20251014-093841,local,local,750,H,H,A,E,A-H.png,E-H.png,hH,hH,mask-1.png,mask-1.png,h,1,2.0884774001315236,none,-5,0,0.09567489987239242,0.10028499993495643,0.19334209989756346,0.20070029981434345,0.7414798999670893
RSVPLG03,km,20251014-093745,1.0.1,20250923-093501,701,Introduction,T1,1,Automatic,main,2,20251014-093848,global,local,750,H,S,A,E,H-A.png,E-S.png,hH,sS,mask-4.png,mask-2.png,h,1,1.1612632998730987,none,-5,0,0.1008301000110805,0.0994949999731034,0.20217099995352328,0.19861680013127625,0.7508175999391824
RSVPLG03,km,20251014-093745,1.0.1,20250923-093501,701,Introduction,T1,1,Automatic,main,3,20251014-093853,global,local,750,S,H,E,E,S-E.png,E-H.png,sS,hH,mask-1.png,mask-4.png,s,1,0.4023965001106262,none,-5,0,0.09713760018348694,0.09897719998843968,0.19696760014630854,0.1989482999779284,0.7479815999977291
RSVPLG03,km,20251014-093745,1.0.1,20250923-093501,701,Introduction,T1,1,Automatic,main,4,20251014-093857,local,local,750,H,H,E,E,E-H.png,E-H.png,hH,hH,mask-2.png,mask-1.png,h,1,0.7090143000241369,none,-5,0,0.09896390000358224,0.09948639990761876,0.20015150005929172,0.20048479991964996,0.7491135001182556
RSVPLG03,km,20251014-093745,1.0.1,20250923-093501,701,Introduction,T1,1,Automatic,main,5,20251014-093902,local,global,750,H,S,E,E,E-H.png,S-E.png,hH,sS,mask-4.png,mask-4.png,s,0,1.3202873999252915,none,-5,0,0.0985568999312818,0.0987639999948442,0.19839320005849004,0.19857510016299784,0.7495502999518067
RSVPLG03,km,20251014-093745,1.0.1,20250923-093501,701,Introduction,T1,1,Automatic,main,6,20251014-093908,global,global,750,S,S,A,A,S-A.png,S-A.png,sS,sS,mask-1.png,mask-3.png,s,1,0.6962373999413103,none,-5,0,0.09900280018337071,0.10098380013369024,0.2000250001437962,0.20095290010794997,0.7489193000365049
RSVPLG03,km,20251014-093745,1.0.1,20250923-093501,701,Introduction,T1,1,Automatic,main,7,20251014-093912,local,local,750,H,H,E,E,E-H.png,E-H.png,hH,hH,mask-2.png,mask-1.png,h,1,0.7223350000567734,none,-5,0,0.0989890000782907,0.09922820003703237,0.20078699989244342,0.19812169997021556,0.7491530999541283
RSVPLG03,km,20251014-093745,1.0.1,20250923-093501,701,Introduction,T1,1,Automatic,main,8,20251014-093917,local,local,750,H,S,E,A,E-H.png,A-S.png,hH,sS,mask-3.png,mask-3.png,s,0,1.785971000092104,none,-5,0,0.0998596001882106,0.10026969993487,0.1992125001270324,0.20098450011573732,0.7481855000369251
RSVPLG03,km,20251014-093745,1.0.1,20250923-093501,701,Introduction,T1,1,Automatic,main,9,20251014-093923,global,local,750,H,S,A,A,H-A.png,A-S.png,hH,sS,mask-3.png,mask-2.png,h,1,0.7594488000031561,none,-5,0,0.10013819998130202,0.10018049995414913,0.20000119996257126,0.20065020001493394,0.7482527999673039
RSVPLG03,km,20251014-093745,1.0.1,20250923-093501,701,Introduction,T1,1,Automatic,main,10,20251014-093928,local,global,750,H,S,A,E,A-H.png,S-E.png,hH,sS,mask-2.png,mask-3.png,h,1,2.4083826998248696,none,-5,0,0.09817739995196462,0.09643750009126961,0.19887059996835887,0.19837020011618733,0.7495732000097632
RSVPLG03,km,20251014-093745,1.0.1,20250923-093501,701,Introduction,T1,1,Automatic,main,11,20251014-093935,global,global,750,H,H,E,A,H-E.png,H-A.png,hH,hH,mask-1.png,mask-1.png,h,1,0.52319739991799,none,-5,0,0.10089020011946559,0.09672520007006824,0.2001797000411898,0.19709330005571246,0.7502196000423282
RSVPLG03,km,20251014-093745,1.0.1,20250923-093501,701,Introduction,T1,1,Automatic,main,12,20251014-093939,global,local,750,S,H,E,A,S-E.png,A-H.png,sS,hH,mask-1.png,mask-2.png,s,1,0.6447525001130998,none,-5,0,0.09953599981963634,0.10091329994611442,0.19855959992855787,0.20113569987006485,0.7473351999651641
RSVPLG03,km,20251014-093745,1.0.1,20250923-093501,701,Introduction,T1,1,Automatic,main,13,20251014-093944,local,global,750,S,S,A,A,A-S.png,S-A.png,sS,sS,mask-3.png,mask-1.png,h,0,2.781381200067699,none,-5,0,0.0994049001019448,0.09942510002292693,0.1998219999950379,0.19819419994018972,0.7499456000514328
RSVPLG03,km,20251014-093745,1.0.1,20250923-093501,701,Introduction,T1,1,Automatic,main,14,20251014-093951,local,global,750,S,S,A,E,A-S.png,S-E.png,sS,sS,mask-3.png,mask-4.png,s,1,0.6006006000097841,none,-5,0,0.09943139995448291,0.0997208000626415,0.19970279978588223,0.19975359993986785,0.7492704999167472
RSVPLG03,km,20251014-093745,1.0.1,20250923-093501,701,Introduction,T1,1,Automatic,main,15,20251014-093956,global,global,750,S,S,A,E,S-A.png,S-E.png,sS,sS,mask-3.png,mask-2.png,s,1,0.6224831000436097,none,-5,0,0.10041950014419854,0.09946310007944703,0.20019020000472665,0.19861089996993542,0.7501167000737041
RSVPLG03,km,20251014-093745,1.0.1,20250923-093501,701,Introduction,T1,1,Automatic,main,16,20251014-094001,global,global,750,H,S,A,E,H-A.png,S-E.png,hH,sS,mask-3.png,mask-1.png,h,1,0.9782622000202537,none,-5,0,0.09998980001546443,0.10104769980534911,0.19966210005804896,0.19936699979007244,0.7487493001390249
RSVPLG03,km,20251014-094031,1.0.1,20250923-093501,701,Practice,T1,1,Automatic,main,1,20251014-094118,local,local,300,S,S,A,E,A-S.png,E-S.png,sS,sS,mask-3.png,mask-1.png,h,0,1.6326323999091983,none,-5,0,0.044686099980026484,0.05017119995318353,0.09392859996296465,0.09823989984579384,0.2953049000352621
RSVPLG03,km,20251014-094031,1.0.1,20250923-093501,701,Practice,T1,1,Automatic,main,2,20251014-094123,global,global,750,H,H,A,E,H-A.png,H-E.png,hH,hH,mask-1.png,mask-3.png,h,1,0.5131991000380367,none,-5,0,0.04969420004636049,0.050564299803227186,0.09775689989328384,0.1011264999397099,0.7462788000702858
RSVPLG03,km,20251014-094031,1.0.1,20250923-093501,701,Practice,T1,1,Automatic,main,3,20251014-094128,local,global,300,H,S,A,E,A-H.png,S-E.png,hH,sS,mask-4.png,mask-4.png,s,0,0.5674453000538051,none,-5,0,0.049716100096702576,0.05022560013458133,0.09924090001732111,0.09969649999402463,0.29741299990564585
RSVPLG03,km,20251014-094031,1.0.1,20250923-093501,701,Practice,T1,1,Automatic,main,4,20251014-094132,local,local,750,S,S,E,E,E-S.png,E-S.png,sS,sS,mask-2.png,mask-4.png,s,1,0.4580755999777466,none,-5,0,0.04956959979608655,0.050867600133642554,0.10083269979804754,0.10076389997266233,0.7476297998800874
RSVPLG03,km,20251014-094031,1.0.1,20250923-093501,701,Practice,T1,1,Automatic,main,5,20251014-094136,local,global,750,S,S,A,E,A-S.png,S-E.png,sS,sS,mask-3.png,mask-2.png,s,1,0.6868879001121968,none,-5,0,0.04976959992200136,0.049373499816283584,0.09958899999037385,0.10031309979967773,0.748929199995473
RSVPLG03,km,20251014-094031,1.0.1,20250923-093501,701,Practice,T1,1,Automatic,main,6,20251014-094141,global,global,300,S,H,E,E,S-E.png,H-E.png,sS,hH,mask-2.png,mask-4.png,s,1,0.49498830013908446,none,-5,0,0.04895379999652505,0.04990779981017113,0.09877200005576015,0.10085339983925223,0.2976622001733631
RSVPLG03,km,20251014-094031,1.0.1,20250923-093501,701,Practice,T1,1,Automatic,main,7,20251014-094145,global,global,750,H,S,E,A,H-E.png,S-A.png,hH,sS,mask-4.png,mask-2.png,h,1,0.35926029994152486,none,-5,0,0.0496779999230057,0.04760850011371076,0.09969629999250174,0.09894339996390045,0.7483498000074178
RSVPLG03,km,20251014-094031,1.0.1,20250923-093501,701,Practice,T1,1,Automatic,main,8,20251014-094149,local,global,750,S,H,A,A,A-S.png,H-A.png,sS,hH,mask-2.png,mask-4.png,s,1,0.5244837000500411,none,-5,0,0.04887309996411204,0.04874940006993711,0.09904469992034137,0.09892649995163083,0.747252200031653
RSVPLG03,km,20251014-094031,1.0.1,20250923-093501,701,Practice,T1,1,Automatic,main,9,20251014-094154,global,local,300,H,S,A,A,H-A.png,A-S.png,hH,sS,mask-2.png,mask-3.png,h,1,0.6256554999854416,none,-5,0,0.049104400211945176,0.04763759998604655,0.0995677001774311,0.09800580004230142,0.299897100077942
RSVPLG03,km,20251014-094031,1.0.1,20250923-093501,701,Practice,T1,1,Automatic,main,10,20251014-094158,local,local,300,H,H,E,A,E-H.png,A-H.png,hH,hH,mask-2.png,mask-2.png,s,0,2.5279273001942784,none,-5,0,0.05067590018734336,0.04884269996546209,0.09880800009705126,0.09906199993565679,0.2983908001333475
RSVPLG03,km,20251014-094031,1.0.1,20250923-093501,701,Practice,T1,1,Automatic,main,11,20251014-094204,global,local,300,H,H,E,E,H-E.png,E-H.png,hH,hH,mask-3.png,mask-3.png,h,1,0.6076384999323636,none,-5,0,0.051032899878919125,0.049119999865069985,0.10016489983536303,0.09968909993767738,0.2985090999864042
RSVPLG03,km,20251014-094031,1.0.1,20250923-093501,701,Practice,T1,1,Automatic,main,12,20251014-094208,local,global,300,S,S,A,A,A-S.png,S-A.png,sS,sS,mask-2.png,mask-1.png,h,0,0.8242367999628186,none,-5,0,0.049705399898812175,0.05010650004260242,0.09971629991196096,0.09945129998959601,0.2991347999777645
RSVPLG03,km,20251014-094031,1.0.1,20250923-093501,701,Practice,T1,1,Automatic,main,13,20251014-094212,local,local,750,S,S,A,A,A-S.png,A-S.png,sS,sS,mask-3.png,mask-4.png,s,1,0.9063099001068622,none,-5,0,0.050312599865719676,0.04958040011115372,0.10042829997837543,0.09973159991204739,0.7473575999028981
RSVPLG03,km,20251014-094031,1.0.1,20250923-093501,701,Practice,T1,1,Automatic,main,14,20251014-094217,global,local,750,S,S,A,A,S-A.png,A-S.png,sS,sS,mask-2.png,mask-2.png,s,1,0.3573235999792814,none,-5,0,0.050926800118759274,0.05093630007468164,0.10137309995479882,0.09892180003225803,0.7489320999011397
RSVPLG03,km,20251014-094031,1.0.1,20250923-093501,701,Practice,T1,1,Automatic,main,15,20251014-094221,global,local,750,H,H,E,A,H-E.png,A-H.png,hH,hH,mask-3.png,mask-1.png,h,1,0.2756503999698907,none,-5,0,0.04886810015887022,0.0498070998582989,0.09888510010205209,0.0993097999598831,0.7473970002029091
RSVPLG03,km,20251014-094031,1.0.1,20250923-093501,701,Practice,T1,1,Automatic,main,16,20251014-094226,global,global,300,H,H,E,E,H-E.png,H-E.png,hH,hH,mask-2.png,mask-4.png,h,1,0.36724249995313585,none,-5,0,0.04972100001759827,0.0501520000398159,0.0976386999245733,0.10057869995944202,0.29787519993260503
RSVPLG03,km,20251014-094246,1.0.1,20250923-093501,701,Practice,T1,1,Automatic,main,1,20251014-094308,local,global,750,H,H,E,A,E-H.png,H-A.png,hH,hH,mask-3.png,mask-3.png,s,0,1.3182047000154853,none,-5,0,0.047607900109142065,0.048709699884057045,0.09791780007071793,0.09966879989951849,0.7494366001337767
RSVPLG03,km,20251014-094246,1.0.1,20250923-093501,701,Practice,T1,1,Automatic,main,2,20251014-094313,local,global,750,H,S,E,A,E-H.png,S-A.png,hH,sS,mask-4.png,mask-3.png,s,0,0.39857509988360107,none,-5,0,0.05076499981805682,0.0502040998544544,0.10204129992052913,0.1016003000549972,0.7516322999726981
RSVPLG03,km,20251014-094246,1.0.1,20250923-093501,701,Practice,T1,1,Automatic,main,3,20251014-094318,global,global,300,S,S,E,A,S-E.png,S-A.png,sS,sS,mask-1.png,mask-2.png,s,1,0.30069119995459914,none,-5,0,0.049827100010588765,0.04914040002040565,0.10065020015463233,0.09942750004120171,0.30118630011565983
RSVPLG03,km,20251014-094246,1.0.1,20250923-093501,701,Practice,T1,1,Automatic,main,4,20251014-094321,global,local,300,H,H,A,A,H-A.png,A-H.png,hH,hH,mask-2.png,mask-3.png,h,1,0.31824140017852187,none,-5,0,0.05098459986038506,0.04982930002734065,0.10056949988938868,0.10143899987451732,0.3011151999235153
RSVPLG03,km,20251014-094246,1.0.1,20250923-093501,701,Practice,T1,1,Automatic,main,5,20251014-094325,local,local,300,S,S,A,A,A-S.png,A-S.png,sS,sS,mask-4.png,mask-2.png,h,0,0.3729697000235319,none,-5,0,0.049859700025990605,0.04872560012154281,0.09965760004706681,0.09903610008768737,0.30194119992665946
RSVPLG03,km,20251014-094246,1.0.1,20250923-093501,701,Practice,T1,1,Automatic,main,6,20251014-094329,global,local,750,H,S,A,A,H-A.png,A-S.png,hH,sS,mask-3.png,mask-2.png,h,1,0.5716756000183523,none,-5,0,0.051751499995589256,0.04722320009022951,0.10246570012532175,0.0971754000056535,0.754129400011152
RSVPLG03,km,20251014-094246,1.0.1,20250923-093501,701,Practice,T1,1,Automatic,main,7,20251014-094334,global,local,300,S,S,A,A,S-A.png,A-S.png,sS,sS,mask-3.png,mask-1.png,s,1,0.34744509984739125,none,-5,0,0.05085189989767969,0.048742600018158555,0.10053170006722212,0.0993085999507457,0.30125289992429316
RSVPLG03,km,20251014-094246,1.0.1,20250923-093501,701,Practice,T1,1,Automatic,main,8,20251014-094338,global,global,750,S,S,A,A,S-A.png,S-A.png,sS,sS,mask-4.png,mask-1.png,s,1,0.3329129000194371,none,-5,0,0.049738300032913685,0.050662599969655275,0.10021890001371503,0.10069489991292357,0.7498848000541329
RSVPLG03,km,20251014-094246,1.0.1,20250923-093501,701,Practice,T1,1,Automatic,main,9,20251014-094342,local,local,750,S,S,E,E,E-S.png,E-S.png,sS,sS,mask-4.png,mask-1.png,s,1,0.31551340012811124,none,-5,0,0.05153520009480417,0.049807900097221136,0.10139570012688637,0.09872350003570318,0.7536462000571191
RSVPLG03,km,20251014-094246,1.0.1,20250923-093501,701,Practice,T1,1,Automatic,main,10,20251014-094346,local,local,750,H,S,A,A,A-H.png,A-S.png,hH,sS,mask-2.png,mask-1.png,h,1,0.7132780998945236,none,-5,0,0.04972420004196465,0.05011189985089004,0.10017240000888705,0.09984689997509122,0.7525546001270413
RSVPLG03,km,20251014-094246,1.0.1,20250923-093501,701,Practice,T1,1,Automatic,main,11,20251014-094351,local,global,300,H,S,E,E,E-H.png,S-E.png,hH,sS,mask-1.png,mask-3.png,h,1,1.1049071999732405,none,-5,0,0.05010370002128184,0.049046800006181,0.10118249990046024,0.09957440011203289,0.3026834998745471
RSVPLG03,km,20251014-094246,1.0.1,20250923-093501,701,Practice,T1,1,Automatic,main,12,20251014-094356,global,local,750,S,H,A,A,S-A.png,A-H.png,sS,hH,mask-1.png,mask-1.png,s,1,0.5981015998404473,none,-5,0,0.0487548999954015,0.0497979000210762,0.10037099989131093,0.10112720006145537,0.7504418999888003
RSVPLG03,km,20251014-094246,1.0.1,20250923-093501,701,Practice,T1,1,Automatic,main,13,20251014-094400,global,global,300,S,H,E,A,S-E.png,H-A.png,sS,hH,mask-3.png,mask-3.png,s,1,1.4437788999639452,none,-5,0,0.050111299846321344,0.049124799901619554,0.09992219996638596,0.10030729998834431,0.3005756998900324
RSVPLG03,km,20251014-094246,1.0.1,20250923-093501,701,Practice,T1,1,Automatic,main,14,20251014-094405,local,local,300,H,S,A,E,A-H.png,E-S.png,hH,sS,mask-2.png,mask-1.png,h,1,0.8438677999656647,none,-5,0,0.04975509992800653,0.0497893001884222,0.10080719995312393,0.1000165999867022,0.30022839992307127
RSVPLG03,km,20251014-094246,1.0.1,20250923-093501,701,Practice,T1,1,Automatic,main,15,20251014-094410,global,global,750,S,S,E,A,S-E.png,S-A.png,sS,sS,mask-4.png,mask-3.png,s,1,0.46025519981049,none,-5,0,0.0507835999596864,0.04811220010742545,0.10214129998348653,0.0990565000101924,0.7548199999146163
RSVPLG03,km,20251014-094246,1.0.1,20250923-093501,701,Practice,T1,1,Automatic,main,16,20251014-094414,local,global,300,H,H,E,E,E-H.png,H-E.png,hH,hH,mask-3.png,mask-4.png,h,1,0.3195253999438137,none,-5,0,0.050431800074875355,0.04919100017286837,0.09939360013231635,0.10002580005675554,0.30033629992976785
RSVPLG03,km,20251014-094546,1.0.1,20250923-093501,701,Introduction,Both,1,Automatic,main,1,20251014-094624,global,global,750,H,H,E,A,H-E.png,H-A.png,hH,hH,mask-4.png,mask-2.png,h,1,0.48012640001252294,s,0,1.759551899973303,0.09862580010667443,0.09999489993788302,0.19916600012220442,0.19921039999462664,0.7497255001217127
RSVPLG03,km,20251014-094546,1.0.1,20250923-093501,701,Introduction,Both,1,Automatic,main,2,20251014-094631,global,local,750,S,S,A,E,S-A.png,E-S.png,sS,sS,mask-4.png,mask-1.png,s,1,1.6240874000359327,s,1,0.5859754998236895,0.09938420006074011,0.09892519982531667,0.19968520011752844,0.19946449995040894,0.750272000208497
RSVPLG03,km,20251014-094546,1.0.1,20250923-093501,701,Introduction,Both,1,Automatic,main,3,20251014-094637,global,global,750,H,H,E,A,H-E.png,H-A.png,hH,hH,mask-1.png,mask-1.png,h,1,1.0571188000030816,h,1,1.3628957998007536,0.09977409988641739,0.10018840013071895,0.19975919998250902,0.19998460006900132,0.7501560999080539
RSVPLG03,km,20251014-094546,1.0.1,20250923-093501,701,Introduction,Both,1,Automatic,main,4,20251014-094644,global,global,750,H,S,E,E,H-E.png,S-E.png,hH,sS,mask-2.png,mask-3.png,h,1,2.250405899947509,s,1,0.4647337000351399,0.10073970002122223,0.09906879998743534,0.20264849998056889,0.19987830007448792,0.7498295998666435
RSVPLG03,km,20251014-094546,1.0.1,20250923-093501,701,Introduction,Both,1,Automatic,main,5,20251014-094651,global,local,750,H,S,A,A,H-A.png,A-S.png,hH,sS,mask-4.png,mask-4.png,h,1,0.8230653000064194,s,1,0.49835310014896095,0.10084400000050664,0.10077459993772209,0.2014963999390602,0.19915129989385605,0.7501703000161797
RSVPLG03,km,20251014-094546,1.0.1,20250923-093501,701,Introduction,Both,1,Automatic,main,6,20251014-094657,global,local,750,S,S,A,A,S-A.png,A-S.png,sS,sS,mask-3.png,mask-2.png,s,1,1.0044905000831932,h,0,0.49414359987713397,0.10017270012758672,0.1000647998880595,0.19981100014410913,0.1979292999021709,0.7513638001400977
RSVPLG03,km,20251014-094546,1.0.1,20250923-093501,701,Introduction,Both,1,Automatic,main,7,20251014-094702,local,global,750,S,H,E,E,E-S.png,H-E.png,sS,hH,mask-4.png,mask-2.png,s,1,1.6613326000515372,h,1,0.337207900127396,0.10126599995419383,0.10021910001523793,0.20053239981643856,0.19905759999528527,0.7501731999218464
RSVPLG03,km,20251014-094546,1.0.1,20250923-093501,701,Introduction,Both,1,Automatic,main,8,20251014-094708,global,global,750,H,S,E,E,H-E.png,S-E.png,hH,sS,mask-2.png,mask-3.png,h,1,1.0166395001579076,s,1,0.3346617000643164,0.09915150003507733,0.10159859992563725,0.19846499990671873,0.20099089993163943,0.7482211999595165
RSVPLG03,km,20251014-094546,1.0.1,20250923-093501,701,Introduction,Both,1,Automatic,main,9,20251014-094714,local,local,750,S,H,A,A,A-S.png,A-H.png,sS,hH,mask-1.png,mask-4.png,s,1,1.2079406001139432,h,1,0.5228238999843597,0.10009510000236332,0.098596700001508,0.200011600041762,0.20070099993608892,0.749939400004223
RSVPLG03,km,20251014-094546,1.0.1,20250923-093501,701,Introduction,Both,1,Automatic,main,10,20251014-094720,local,global,750,S,S,E,A,E-S.png,S-A.png,sS,sS,mask-2.png,mask-2.png,s,1,1.0594055999536067,h,0,0.49663019995205104,0.0998078000266105,0.09807089995592833,0.20122080016881227,0.2002543997950852,0.7512969002127647
RSVPLG03,km,20251014-094546,1.0.1,20250923-093501,701,Introduction,Both,1,Automatic,main,11,20251014-094726,local,local,750,S,S,A,E,A-S.png,E-S.png,sS,sS,mask-4.png,mask-2.png,s,1,1.130820400081575,s,1,0.3212313998956233,0.09997700015082955,0.10052619990892708,0.1995924999937415,0.20183449983596802,0.7501891001593322
RSVPLG03,km,20251014-094546,1.0.1,20250923-093501,701,Introduction,Both,1,Automatic,main,12,20251014-094732,local,local,750,S,S,A,A,A-S.png,A-S.png,sS,sS,mask-4.png,mask-3.png,s,1,0.3618212998844683,s,1,0.3361748999450356,0.09971560002304614,0.10009279986843467,0.1988891998771578,0.2000447998289019,0.7490942000877112
RSVPLG03,km,20251014-094546,1.0.1,20250923-093501,701,Introduction,Both,1,Automatic,main,13,20251014-094737,local,global,750,H,H,E,E,E-H.png,H-E.png,hH,hH,mask-2.png,mask-3.png,h,1,0.8755170002114028,s,0,0.4912465000525117,0.10080219991505146,0.10094520007260144,0.20080860005691648,0.20117029990069568,0.7489442999940366
RSVPLG03,km,20251014-094546,1.0.1,20250923-093501,701,Introduction,Both,1,Automatic,main,14,20251014-094742,local,local,750,S,H,A,A,A-S.png,A-H.png,sS,hH,mask-3.png,mask-1.png,s,1,1.1594525000546128,h,1,0.2822519999463111,0.10017829993739724,0.0990400998853147,0.20064030005596578,0.1984518999233842,0.7512646000832319
RSVPLG03,km,20251014-094546,1.0.1,20250923-093501,701,Introduction,Both,1,Automatic,main,15,20251014-094748,global,local,750,S,S,E,E,S-E.png,E-S.png,sS,sS,mask-3.png,mask-3.png,s,1,1.6301081001292914,s,1,0.21929669985547662,0.09954750002361834,0.10078470013104379,0.19825099990703166,0.2011353000998497,0.7481509998906404
RSVPLG03,km,20251014-094546,1.0.1,20250923-093501,701,Introduction,Both,1,Automatic,main,16,20251014-094754,local,global,750,H,S,E,A,E-H.png,S-A.png,hH,sS,mask-1.png,mask-3.png,h,1,1.6428064999636263,s,1,0.35366289992816746,0.09793839999474585,0.10196020011790097,0.19880990008823574,0.201532700099051,0.748808299889788
RSVPLG03,km,20251014-095001,1.0.1,20250923-093501,701,Experiment,Both,1,Automatic,warmup,1,20251014-095051,global,global,750,S,S,E,E,S-E.png,S-E.png,sS,sS,mask-3.png,mask-4.png,s,1,2.3594763001892716,h,0,0.6887854998931289,0.04997180006466806,0.05113029992207885,0.1013242001645267,0.1018259001430124,0.7420697000343353
RSVPLG03,km,20251014-095001,1.0.1,20250923-093501,701,Experiment,Both,1,Automatic,warmup,2,20251014-095058,local,global,750,S,H,A,E,A-S.png,H-E.png,sS,hH,mask-2.png,mask-2.png,s,1,0.8729856999125332,h,1,0.34519900009036064,0.05114250001497567,0.049861199920997024,0.09993980010040104,0.10113639989867806,0.7421425001230091
RSVPLG03,km,20251014-095001,1.0.1,20250923-093501,701,Experiment,Both,1,Automatic,warmup,3,20251014-095103,local,local,750,S,H,A,A,A-S.png,A-H.png,sS,hH,mask-4.png,mask-1.png,s,1,0.9829806999769062,h,1,0.28629070008173585,0.051758200163021684,0.050465199863538146,0.10355220013298094,0.10008939984254539,0.7447469001635909
RSVPLG03,km,20251014-095001,1.0.1,20250923-093501,701,Experiment,Both,1,Automatic,warmup,4,20251014-095108,local,global,300,H,S,A,E,A-H.png,S-E.png,hH,sS,mask-4.png,mask-2.png,s,0,2.130612300010398,h,0,0.41599510004743934,0.051621099933981895,0.050456499913707376,0.1021355998236686,0.10099289985373616,0.3057973999530077
RSVPLG03,km,20251014-095001,1.0.1,20250923-093501,701,Experiment,Both,1,Automatic,warmup,5,20251014-095115,global,local,750,H,H,E,E,H-E.png,E-H.png,hH,hH,mask-3.png,mask-2.png,h,1,1.1870403999928385,h,1,1.5302003000397235,0.05017309985123575,0.04966660006903112,0.10008899983949959,0.09861420001834631,0.7431301998440176
RSVPLG03,km,20251014-095001,1.0.1,20250923-093501,701,Experiment,Both,1,Automatic,main,6,20251014-095121,global,local,300,S,S,E,A,S-E.png,A-S.png,sS,sS,mask-1.png,mask-2.png,s,1,1.0257368001621217,h,0,0.33647119998931885,0.04974490008316934,0.05173800000920892,0.09973679995164275,0.10063340002670884,0.3032259999308735
RSVPLG03,km,20251014-095001,1.0.1,20250923-093501,701,Experiment,Both,1,Automatic,main,7,20251014-095126,global,global,300,S,S,A,E,S-A.png,S-E.png,sS,sS,mask-2.png,mask-2.png,s,1,0.9210711000487208,h,0,0.3707584000658244,0.05005769990384579,0.05157879996113479,0.10134020005352795,0.10156809980981052,0.3029859000816941
RSVPLG03,km,20251014-095001,1.0.1,20250923-093501,701,Experiment,Both,1,Automatic,main,8,20251014-095131,local,global,750,H,S,A,E,A-H.png,S-E.png,hH,sS,mask-1.png,mask-4.png,h,1,0.9729833998717368,s,1,1.5517131998203695,0.04862839984707534,0.05012420006096363,0.09940319997258484,0.10185920004732907,0.7418303999584168
RSVPLG03,km,20251014-095001,1.0.1,20250923-093501,701,Experiment,Both,1,Automatic,main,9,20251014-095138,local,local,300,S,S,A,A,A-S.png,A-S.png,sS,sS,mask-1.png,mask-2.png,s,1,0.6537403000984341,h,0,0.5472079000901431,0.05095219984650612,0.05031740013509989,0.1012943999376148,0.10137300007045269,0.30445549986325204
RSVPLG03,km,20251014-095001,1.0.1,20250923-093501,701,Experiment,Both,1,Automatic,main,10,20251014-095143,global,local,750,H,H,E,A,H-E.png,A-H.png,hH,hH,mask-2.png,mask-2.png,s,0,0.4504195998888463,h,1,0.8018684999551624,0.05171759985387325,0.05098270019516349,0.10119059984572232,0.10137980012223125,0.7436998998746276
RSVPLG03,km,20251014-095001,1.0.1,20250923-093501,701,Experiment,Both,1,Automatic,main,11,20251014-095148,global,local,300,H,S,E,E,H-E.png,E-S.png,hH,sS,mask-2.png,mask-4.png,h,1,0.68477200018242,s,1,0.2832937000785023,0.0530568000394851,0.05087130004540086,0.10235029994510114,0.1016629000660032,0.3047139998525381
RSVPLG03,km,20251014-095001,1.0.1,20250923-093501,701,Experiment,Both,1,Automatic,main,12,20251014-095153,global,global,300,H,H,E,A,H-E.png,H-A.png,hH,hH,mask-2.png,mask-4.png,h,1,0.441730999853462,s,0,0.3058348000049591,0.04990269988775253,0.05298539996147156,0.10072729992680252,0.1025235999841243,0.30176009982824326
RSVPLG03,km,20251014-095001,1.0.1,20250923-093501,701,Experiment,Both,1,Automatic,main,13,20251014-095157,global,global,750,H,H,E,E,H-E.png,H-E.png,hH,hH,mask-2.png,mask-4.png,h,1,0.4121381000149995,s,0,0.6521862000226974,0.047877399949356914,0.05071870004758239,0.09860339993610978,0.1026435000821948,0.7408149000257254
RSVPLG03,km,20251014-095001,1.0.1,20250923-093501,701,Experiment,Both,1,Automatic,main,14,20251014-095202,global,local,750,H,H,A,A,H-A.png,A-H.png,hH,hH,mask-2.png,mask-3.png,s,0,7.344685700023547,h,1,0.4474297999404371,0.051091300090774894,0.05042179999873042,0.10220490000210702,0.098883300088346,0.7442264000419527
RSVPLG03,km,20251014-095001,1.0.1,20250923-093501,701,Experiment,Both,1,Automatic,main,15,20251014-095214,global,global,750,S,H,A,E,S-A.png,H-E.png,sS,hH,mask-2.png,mask-3.png,s,1,0.37611000007018447,h,1,0.23666199995204806,0.050338299944996834,0.05009760009124875,0.10027930000796914,0.10111180017702281,0.741799799958244
RSVPLG03,km,20251014-095001,1.0.1,20250923-093501,701,Experiment,Both,1,Automatic,main,16,20251014-095219,local,local,750,H,H,E,A,E-H.png,A-H.png,hH,hH,mask-1.png,mask-2.png,h,1,0.5803771999198943,s,0,0.265699400100857,0.0493427999317646,0.05057190009392798,0.10132179991342127,0.10052020009607077,0.7428878999780864
RSVPLG03,km,20251014-095001,1.0.1,20250923-093501,701,Experiment,Both,1,Automatic,main,17,20251014-095224,local,local,750,H,S,A,A,A-H.png,A-S.png,hH,sS,mask-1.png,mask-3.png,h,1,0.6606250000186265,s,1,0.32266060006804764,0.051712599815800786,0.05183959985151887,0.10056189983151853,0.10172489983960986,0.7428341000340879
RSVPLG03,km,20251014-095001,1.0.1,20250923-093501,701,Experiment,Both,1,Automatic,main,18,20251014-095229,global,global,750,S,S,A,E,S-A.png,S-E.png,sS,sS,mask-1.png,mask-1.png,s,1,0.3881256999447942,s,1,0.8349377000704408,0.04941480001434684,0.05043790000490844,0.09912509983405471,0.10097229992970824,0.7415191999170929
RSVPLG03,km,20251014-095001,1.0.1,20250923-093501,701,Experiment,Both,1,Automatic,main,19,20251014-095234,global,global,300,H,H,E,A,H-E.png,H-A.png,hH,hH,mask-2.png,mask-2.png,s,0,0.7359722999390215,s,0,0.2566100999247283,0.0514686000533402,0.050607499899342656,0.1015391000546515,0.10223520011641085,0.3038534000515938
RSVPLG03,km,20251014-095001,1.0.1,20250923-093501,701,Experiment,Both,1,Automatic,main,20,20251014-095239,global,global,750,H,H,E,E,H-E.png,H-E.png,hH,hH,mask-1.png,mask-1.png,h,1,0.3868180999998003,h,1,0.24111089995130897,0.05114850006066263,0.050942800007760525,0.10202950006350875,0.10161210014484823,0.7422859999351203
RSVPLG03,km,20251014-095001,1.0.1,20250923-093501,701,Experiment,Both,1,Automatic,main,21,20251014-095244,local,global,300,H,H,A,E,A-H.png,H-E.png,hH,hH,mask-2.png,mask-2.png,h,1,0.5792064999695867,s,0,0.6557966000400484,0.05150689999572933,0.05178169999271631,0.1023802999407053,0.10228640004061162,0.30518199992366135
RSVPLG03,km,20251014-095001,1.0.1,20250923-093501,701,Experiment,Both,1,Automatic,main,22,20251014-095248,local,local,750,H,S,E,A,E-H.png,A-S.png,hH,sS,mask-3.png,mask-2.png,h,1,0.5492050000466406,s,1,0.04419509996660054,0.05091360001824796,0.05050930008292198,0.10062199993990362,0.10252279997803271,0.7419197999406606
RSVPLG03,km,20251014-095001,1.0.1,20250923-093501,701,Experiment,Both,1,Automatic,main,23,20251014-095253,local,local,300,H,S,A,E,A-H.png,E-S.png,hH,sS,mask-2.png,mask-2.png,h,1,0.4610982001759112,s,1,0.20852379989810288,0.051450900034978986,0.05021230014972389,0.10057560005225241,0.09967210004106164,0.30509639997035265
RSVPLG03,km,20251014-095001,1.0.1,20250923-093501,701,Experiment,Both,1,Automatic,main,24,20251014-095257,global,global,300,H,S,A,E,H-A.png,S-E.png,hH,sS,mask-3.png,mask-1.png,s,0,5.089780600043014,h,0,0.529662000015378,0.050188499968498945,0.05058779986575246,0.10030140005983412,0.10116539988666773,0.30380049999803305
RSVPLG03,km,20251014-095001,1.0.1,20250923-093501,701,Experiment,Both,1,Automatic,main,25,20251014-095307,global,global,750,S,S,A,E,S-A.png,S-E.png,sS,sS,mask-1.png,mask-2.png,h,0,0.5811668001115322,s,1,0.5135053999256343,0.0506821998860687,0.05192749993875623,0.10089649981819093,0.10239039990119636,0.741652499884367
RSVPLG03,km,20251014-095001,1.0.1,20250923-093501,701,Experiment,Both,1,Automatic,main,26,20251014-095357,global,global,300,S,H,E,E,S-E.png,H-E.png,sS,hH,mask-2.png,mask-4.png,h,0,0.8181961998343468,s,0,0.6539441000204533,0.05076699983328581,0.049691300140693784,0.10007139993831515,0.09982480015605688,0.3034182998817414
RSVPLG03,km,20251014-095001,1.0.1,20250923-093501,701,Experiment,Both,1,Automatic,main,27,20251014-095402,global,local,750,S,S,E,E,S-E.png,E-S.png,sS,sS,mask-2.png,mask-3.png,s,1,0.44010689994320273,h,0,1.277607100084424,0.049907300155609846,0.0501414998434484,0.09968730015680194,0.09953009989112616,0.7426969001535326
RSVPLG03,km,20251014-095001,1.0.1,20250923-093501,701,Experiment,Both,1,Automatic,main,28,20251014-095408,global,local,750,H,S,E,E,H-E.png,E-S.png,hH,sS,mask-4.png,mask-1.png,h,1,0.9000952001661062,s,1,0.2548704999499023,0.05049309995956719,0.051704099867492914,0.09999719983898103,0.10245290002785623,0.7408227999694645
RSVPLG03,km,20251014-095001,1.0.1,20250923-093501,701,Experiment,Both,1,Automatic,main,29,20251014-095413,global,local,300,H,H,A,E,H-A.png,E-H.png,hH,hH,mask-3.png,mask-3.png,h,1,0.7726545999757946,s,0,0.49928719992749393,0.05307770008221269,0.051034800009801984,0.10225150012411177,0.10158599982969463,0.30357990018092096
RSVPLG03,km,20251014-095001,1.0.1,20250923-093501,701,Experiment,Both,1,Automatic,main,30,20251014-095418,local,global,300,H,S,E,E,E-H.png,S-E.png,hH,sS,mask-2.png,mask-4.png,s,0,1.4161491999402642,s,1,0.31902280007489026,0.050948800053447485,0.0497204998973757,0.10147850005887449,0.09952059993520379,0.3064657000359148
RSVPLG03,km,20251014-095001,1.0.1,20250923-093501,701,Experiment,Both,1,Automatic,main,31,20251014-095424,global,local,750,S,S,A,A,S-A.png,A-S.png,sS,sS,mask-4.png,mask-3.png,h,0,0.4790286000352353,s,1,0.12882050010375679,0.05066639999859035,0.05146049987524748,0.101117700105533,0.10280640004202724,0.7414651000872254
RSVPLG03,km,20251014-095001,1.0.1,20250923-093501,701,Experiment,Both,1,Automatic,main,32,20251014-095428,local,global,300,H,S,E,E,E-H.png,S-E.png,hH,sS,mask-1.png,mask-1.png,h,1,0.3326911001931876,s,1,0.1851460998877883,0.04777149995788932,0.051049600122496486,0.10092879994772375,0.10299300006590784,0.3021197998896241
RSVPLG03,km,20251014-095001,1.0.1,20250923-093501,701,Experiment,Both,1,Automatic,main,33,20251014-095433,global,local,300,H,H,E,A,H-E.png,A-H.png,hH,hH,mask-3.png,mask-2.png,h,1,0.688233100110665,s,0,0.2405360999982804,0.05017339996993542,0.0501845998223871,0.10167409991845489,0.10237609990872443,0.3036007999908179
RSVPLG03,km,20251014-095001,1.0.1,20250923-093501,701,Experiment,Both,1,Automatic,main,34,20251014-095437,local,local,750,H,H,A,E,A-H.png,E-H.png,hH,hH,mask-3.png,mask-2.png,h,1,0.7597797000780702,s,0,0.11463050008751452,0.05136170005425811,0.05095399986021221,0.10218459996394813,0.09999329992569983,0.7421574001200497
RSVPLG03,km,20251014-095001,1.0.1,20250923-093501,701,Experiment,Both,1,Automatic,main,35,20251014-095442,global,local,300,H,H,A,E,H-A.png,E-H.png,hH,hH,mask-2.png,mask-4.png,h,1,0.41987470001913607,h,1,0.2574827999342233,0.05094070010818541,0.05193269997835159,0.1035869000479579,0.10194600000977516,0.30348090012557805
RSVPLG03,km,20251014-095001,1.0.1,20250923-093501,701,Experiment,Both,1,Automatic,main,36,20251014-095447,global,local,300,H,H,A,E,H-A.png,E-H.png,hH,hH,mask-2.png,mask-1.png,h,1,0.978471300099045,s,0,0.24173500016331673,0.04920540004968643,0.05147140007466078,0.10033460007980466,0.10136159998364747,0.3022475999314338
RSVPLG03,km,20251014-095001,1.0.1,20250923-093501,701,Experiment,Both,1,Automatic,main,37,20251014-095451,global,global,750,H,S,E,A,H-E.png,S-A.png,hH,sS,mask-2.png,mask-1.png,h,1,0.5002948998007923,s,1,0.12688859994523227,0.051052300026640296,0.050339600071311,0.10034299991093576,0.10094729997217655,0.7430837999563664
RSVPLG03,km,20251014-095001,1.0.1,20250923-093501,701,Experiment,Both,1,Automatic,main,38,20251014-095456,local,global,750,S,H,A,A,A-S.png,H-A.png,sS,hH,mask-2.png,mask-3.png,h,0,0.8421835000626743,h,1,0.22509389999322593,0.05076240003108978,0.051598999882116914,0.10048420005477965,0.10077859996818006,0.7429436000529677
RSVPLG03,km,20251014-095001,1.0.1,20250923-093501,701,Experiment,Both,1,Automatic,main,39,20251014-095501,local,local,300,H,H,A,A,A-H.png,A-H.png,hH,hH,mask-4.png,mask-4.png,h,1,0.40247750002890825,s,0,0.20403859997168183,0.05237750010564923,0.04992359993048012,0.10267659998498857,0.10099479998461902,0.3049550000578165
RSVPLG03,km,20251014-095001,1.0.1,20250923-093501,701,Experiment,Both,1,Automatic,main,40,20251014-095506,local,global,750,H,S,A,A,A-H.png,S-A.png,hH,sS,mask-2.png,mask-3.png,h,1,0.5054186000488698,s,1,0.11277619982138276,0.053568199975416064,0.052083600079640746,0.10151399997994304,0.10246840002946556,0.7425060998648405
RSVPLG03,km,20251014-095001,1.0.1,20250923-093501,701,Experiment,Both,1,Automatic,main,41,20251014-095510,global,global,750,S,H,E,A,S-E.png,H-A.png,sS,hH,mask-2.png,mask-4.png,s,1,0.35293699987232685,h,1,0.20754280011169612,0.049004399916157126,0.04950169986113906,0.09963399986736476,0.10067879990674555,0.7425877000205219
RSVPLG03,km,20251014-095001,1.0.1,20250923-093501,701,Experiment,Both,1,Automatic,main,42,20251014-095515,local,global,750,H,H,E,A,E-H.png,H-A.png,hH,hH,mask-4.png,mask-2.png,h,1,1.7764187001157552,h,1,0.2691093001049012,0.0504207001067698,0.050212099915370345,0.10077450005337596,0.10130939981900156,0.7431296000722796
RSVPLG03,km,20251014-095001,1.0.1,20250923-093501,701,Experiment,Both,1,Automatic,main,43,20251014-095521,global,global,750,S,S,E,E,S-E.png,S-E.png,sS,sS,mask-1.png,mask-2.png,h,0,0.9062566999346018,s,1,0.12424940010532737,0.05096079991199076,0.05089449998922646,0.10241219983436167,0.10120229981839657,0.7428208000492305
RSVPLG03,km,20251014-095001,1.0.1,20250923-093501,701,Experiment,Both,1,Automatic,main,44,20251014-095526,local,global,300,H,H,A,E,A-H.png,H-E.png,hH,hH,mask-2.png,mask-2.png,h,1,1.9887446998618543,s,0,0.1391044999472797,0.050533700035884976,0.04963209992274642,0.10145580000244081,0.09932159981690347,0.30585030000656843
RSVPLG03,km,20251014-095001,1.0.1,20250923-093501,701,Experiment,Both,1,Automatic,main,45,20251014-095532,global,local,300,H,H,A,E,H-A.png,E-H.png,hH,hH,mask-4.png,mask-1.png,h,1,0.9665486998856068,s,0,0.3693776000291109,0.048347000032663345,0.05206979997456074,0.10011560004204512,0.10150019987486303,0.30141140008345246
RSVPLG03,km,20251014-095001,1.0.1,20250923-093501,701,Experiment,Both,1,Automatic,main,46,20251014-095537,global,global,300,S,H,E,A,S-E.png,H-A.png,sS,hH,mask-4.png,mask-2.png,s,1,0.7442451000679284,h,1,0.14665089990012348,0.05113869998604059,0.050083599984645844,0.10288570006377995,0.10072660003788769,0.3039720000233501
RSVPLG03,km,20251014-095001,1.0.1,20250923-093501,701,Experiment,Both,1,Automatic,main,47,20251014-095542,local,local,300,H,H,E,E,E-H.png,E-H.png,hH,hH,mask-3.png,mask-3.png,s,0,0.672586299944669,h,1,0.14498879993334413,0.04927489999681711,0.05184949981048703,0.10138610005378723,0.10398919996805489,0.30209760018624365
RSVPLG03,km,20251014-095001,1.0.1,20250923-093501,701,Experiment,Both,1,Automatic,main,48,20251014-095546,local,local,750,H,H,E,E,E-H.png,E-H.png,hH,hH,mask-3.png,mask-3.png,s,0,0.5072349000256509,h,1,0.04857310000807047,0.049755699932575226,0.04984969994984567,0.10055919992737472,0.10166119993664324,0.7422855000477284
RSVPLG03,km,20251014-095001,1.0.1,20250923-093501,701,Experiment,Both,1,Automatic,main,49,20251014-095551,local,local,300,H,S,A,E,A-H.png,E-S.png,hH,sS,mask-3.png,mask-4.png,h,1,0.3190529001876712,s,1,0.06467460002750158,0.051369399996474385,0.048646399984136224,0.10072649992071092,0.09932069992646575,0.30585079989396036
RSVPLG03,km,20251014-095001,1.0.1,20250923-093501,701,Experiment,Both,1,Automatic,main,50,20251014-095555,global,local,300,H,H,E,E,H-E.png,E-H.png,hH,hH,mask-3.png,mask-4.png,h,1,0.5424239998683333,s,0,0.08178250002674758,0.05021419981494546,0.050166600150987506,0.10157789988443255,0.1014576000161469,0.30397559981793165
RSVPLG03,km,20251014-095001,1.0.1,20250923-093501,701,Experiment,Both,1,Automatic,main,51,20251014-095618,local,local,750,S,H,A,A,A-S.png,A-H.png,sS,hH,mask-3.png,mask-2.png,s,1,0.6952412999235094,h,1,0.2097694999538362,0.05030889995396137,0.04991269996389747,0.10217299987562001,0.10200559999793768,0.7428262999746948
RSVPLG03,km,20251014-095001,1.0.1,20250923-093501,701,Experiment,Both,1,Automatic,main,52,20251014-095623,local,global,750,H,H,A,E,A-H.png,H-E.png,hH,hH,mask-2.png,mask-1.png,h,1,1.2176844000350684,h,1,0.22366360016167164,0.05025020008906722,0.0493817999958992,0.10156530002132058,0.10145319998264313,0.743419999955222
RSVPLG03,km,20251014-095001,1.0.1,20250923-093501,701,Experiment,Both,1,Automatic,main,53,20251014-095629,local,global,300,S,S,A,E,A-S.png,S-E.png,sS,sS,mask-4.png,mask-2.png,s,1,0.6998234000056982,s,1,0.25141489994712174,0.048754299990832806,0.04969569994136691,0.09963089996017516,0.10064630000852048,0.3023677000310272
RSVPLG03,km,20251014-095001,1.0.1,20250923-093501,701,Experiment,Both,1,Automatic,main,54,20251014-095634,global,local,300,H,H,A,E,H-A.png,E-H.png,hH,hH,mask-2.png,mask-1.png,h,1,0.9043333998415619,s,0,0.11567469988949597,0.050225900020450354,0.05032529984600842,0.09993829997256398,0.10136760002933443,0.30229400005191565
RSVPLG03,km,20251014-095001,1.0.1,20250923-093501,701,Experiment,Both,1,Automatic,main,55,20251014-095638,global,global,750,S,S,E,A,S-E.png,S-A.png,sS,sS,mask-4.png,mask-3.png,s,1,0.6348349000327289,h,0,0.29711919999681413,0.05101330019533634,0.04908220004290342,0.10082440008409321,0.10082350019365549,0.7440404000226408
RSVPLG03,km,20251014-095001,1.0.1,20250923-093501,701,Experiment,Both,1,Automatic,main,56,20251014-095643,local,global,300,H,S,E,A,E-H.png,S-A.png,hH,sS,mask-1.png,mask-3.png,h,1,0.5190891998354346,s,1,0.20178900007158518,0.05134230013936758,0.050467400113120675,0.10143909999169409,0.10055900015868247,0.30492400005459785
RSVPLG03,km,20251014-095001,1.0.1,20250923-093501,701,Experiment,Both,1,Automatic,main,57,20251014-095648,global,global,300,S,S,A,E,S-A.png,S-E.png,sS,sS,mask-3.png,mask-3.png,s,1,0.666981500107795,s,1,0.19182209996506572,0.0509077999740839,0.049502299865707755,0.10102149983868003,0.10107619990594685,0.3046705999877304
RSVPLG03,km,20251014-095001,1.0.1,20250923-093501,701,Experiment,Both,1,Automatic,main,58,20251014-095652,local,global,300,H,H,E,E,E-H.png,H-E.png,hH,hH,mask-3.png,mask-2.png,h,1,1.162276400020346,h,1,0.11319289985112846,0.05117859994061291,0.050135500030592084,0.10100729996338487,0.1013671001419425,0.3041936999652535
RSVPLG03,km,20251014-095001,1.0.1,20250923-093501,701,Experiment,Both,1,Automatic,main,59,20251014-095657,local,local,750,S,S,A,A,A-S.png,A-S.png,sS,sS,mask-1.png,mask-2.png,s,1,0.4529639999382198,s,1,0.15278099989518523,0.05148719996213913,0.051065600011497736,0.10074569983407855,0.10201489995233715,0.7423862998839468
RSVPLG03,km,20251014-095001,1.0.1,20250923-093501,701,Experiment,Both,1,Automatic,main,60,20251014-095702,global,local,750,H,S,E,A,H-E.png,A-S.png,hH,sS,mask-3.png,mask-1.png,h,1,0.829250699840486,s,1,0.24998990003950894,0.05076849996112287,0.051232000114396214,0.10265430016443133,0.10244749998673797,0.7427978999912739
RSVPLG03,km,20251014-095001,1.0.1,20250923-093501,701,Experiment,Both,1,Automatic,main,61,20251014-095707,global,global,300,S,S,E,E,S-E.png,S-E.png,sS,sS,mask-2.png,mask-4.png,h,0,0.921665399800986,s,1,0.06586650013923645,0.05000559985637665,0.05039739981293678,0.10068470006808639,0.10088529996573925,0.3023262000642717
RSVPLG03,km,20251014-095001,1.0.1,20250923-093501,701,Experiment,Both,1,Automatic,main,62,20251014-095712,global,global,750,H,S,A,E,H-A.png,S-E.png,hH,sS,mask-2.png,mask-1.png,h,1,0.7965511998627335,s,1,0.14232330000959337,0.05036589992232621,0.052165200002491474,0.10166169982403517,0.10209609987214208,0.7420777999795973
RSVPLG03,km,20251014-095001,1.0.1,20250923-093501,701,Experiment,Both,1,Automatic,main,63,20251014-095717,local,global,300,H,H,E,E,E-H.png,H-E.png,hH,hH,mask-2.png,mask-1.png,h,1,0.7394858999177814,h,1,0.1262346999719739,0.0522425000090152,0.05003380007110536,0.10222470015287399,0.10066980007104576,0.30643250001594424
RSVPLG03,km,20251014-095001,1.0.1,20250923-093501,701,Experiment,Both,1,Automatic,main,64,20251014-095721,local,local,300,H,H,E,E,E-H.png,E-H.png,hH,hH,mask-3.png,mask-2.png,h,1,0.5549174998886883,h,1,0.2251983000896871,0.050908599980175495,0.05229309992864728,0.10149159980937839,0.10243400000035763,0.3032336998730898
RSVPLG03,km,20251014-095001,1.0.1,20250923-093501,701,Experiment,Both,1,Automatic,main,65,20251014-095726,local,local,300,H,H,A,E,A-H.png,E-H.png,hH,hH,mask-2.png,mask-2.png,h,1,0.55574019998312,h,1,0.24215739988721907,0.05225139996036887,0.05006429995410144,0.10263209999538958,0.10067200008779764,0.3065323999617249
RSVPLG03,km,20251014-095001,1.0.1,20250923-093501,701,Experiment,Both,1,Automatic,main,66,20251014-095730,local,local,750,H,S,E,A,E-H.png,A-S.png,hH,sS,mask-4.png,mask-3.png,h,1,0.7024556000251323,s,1,0.11275760014541447,0.05203979997895658,0.05071799992583692,0.10161930019967258,0.10173309990204871,0.7430126001127064
RSVPLG03,km,20251014-095001,1.0.1,20250923-093501,701,Experiment,Both,1,Automatic,main,67,20251014-095735,local,local,750,S,H,A,A,A-S.png,A-H.png,sS,hH,mask-1.png,mask-4.png,s,1,0.3856552999932319,h,1,0.38533389987424016,0.04969429993070662,0.04997300007380545,0.10168080008588731,0.10197769990190864,0.7416109000332654
RSVPLG03,km,20251014-095001,1.0.1,20250923-093501,701,Experiment,Both,1,Automatic,main,68,20251014-095740,global,local,300,H,S,E,E,H-E.png,E-S.png,hH,sS,mask-2.png,mask-3.png,h,1,0.8019119999371469,s,1,0.3333691998850554,0.050806700019165874,0.050408899784088135,0.10127649991773069,0.10011339979246259,0.30369090009480715
RSVPLG03,km,20251014-095001,1.0.1,20250923-093501,701,Experiment,Both,1,Automatic,main,69,20251014-095745,local,global,300,S,H,E,E,E-S.png,H-E.png,sS,hH,mask-3.png,mask-3.png,s,1,0.7896594000048935,h,1,0.3359344999771565,0.05126139987260103,0.050334899919107556,0.10029640002176166,0.10083730006590486,0.3041900999378413
RSVPLG03,km,20251014-095001,1.0.1,20250923-093501,701,Experiment,Both,1,Automatic,main,70,20251014-095749,global,local,750,S,H,A,A,S-A.png,A-H.png,sS,hH,mask-1.png,mask-3.png,s,1,0.33432070002891123,h,1,0.19407829991541803,0.05081179994158447,0.049966000020504,0.10006319987587631,0.09891900001093745,0.7433127998374403
RSVPLG03,km,20251014-095001,1.0.1,20250923-093501,701,Experiment,Both,1,Automatic,main,71,20251014-095754,local,global,750,H,H,A,A,A-H.png,H-A.png,hH,hH,mask-4.png,mask-1.png,h,1,0.9173536999151111,h,1,1.8262665998190641,0.05164959980174899,0.0496541999746114,0.1012311999220401,0.10099829989485443,0.7421989999711514
RSVPLG03,km,20251014-095001,1.0.1,20250923-093501,701,Experiment,Both,1,Automatic,main,72,20251014-095801,global,local,750,S,H,A,E,S-A.png,E-H.png,sS,hH,mask-2.png,mask-2.png,s,1,0.36266779992729425,h,1,0.20165969990193844,0.05090749985538423,0.05018879985436797,0.10093109984882176,0.10155379981733859,0.7428152000065893
RSVPLG03,km,20251014-095001,1.0.1,20250923-093501,701,Experiment,Both,1,Automatic,main,73,20251014-095805,global,local,300,H,H,A,A,H-A.png,A-H.png,hH,hH,mask-3.png,mask-2.png,h,1,0.8072381999809295,h,1,0.8888793999794871,0.05218079988844693,0.049594399984925985,0.10066089988686144,0.10002180002629757,0.30482749990187585
RSVPLG03,km,20251014-095001,1.0.1,20250923-093501,701,Experiment,Both,1,Automatic,main,74,20251014-095811,local,global,300,H,H,A,A,A-H.png,H-A.png,hH,hH,mask-1.png,mask-2.png,h,1,0.6057074998971075,s,0,0.17752909986302257,0.05209779995493591,0.051010599825531244,0.10180549998767674,0.1016480999533087,0.3058780001010746
RSVPLG03,km,20251014-095001,1.0.1,20250923-093501,701,Experiment,Both,1,Automatic,main,75,20251014-095815,local,local,750,S,S,E,E,E-S.png,E-S.png,sS,sS,mask-4.png,mask-1.png,s,1,0.3673948000650853,s,1,0.17269970010966063,0.049560199957340956,0.05098830000497401,0.1017340999096632,0.10114079993218184,0.7420083000324667
RSVPLG03,km,20251014-095001,1.0.1,20250923-093501,701,Experiment,Both,1,Automatic,main,76,20251014-095838,global,local,750,S,H,E,E,S-E.png,E-H.png,sS,hH,mask-1.png,mask-4.png,s,1,0.3636590999085456,h,1,0.18701429991051555,0.050018300069496036,0.04946910007856786,0.10160739999264479,0.10101590002886951,0.74416369991377
RSVPLG03,km,20251014-095001,1.0.1,20250923-093501,701,Experiment,Both,1,Automatic,main,77,20251014-095843,local,global,750,S,S,E,A,E-S.png,S-A.png,sS,sS,mask-2.png,mask-2.png,s,1,0.6777400998398662,h,0,0.15184780000708997,0.05159450019709766,0.05169590003788471,0.10218210006132722,0.10267450008541346,0.7432107001077384
RSVPLG03,km,20251014-095001,1.0.1,20250923-093501,701,Experiment,Both,1,Automatic,main,78,20251014-095848,local,global,300,H,S,A,E,A-H.png,S-E.png,hH,sS,mask-3.png,mask-1.png,h,1,0.5401703999377787,s,1,0.4962729001417756,0.049898300087079406,0.049252700060606,0.10197479999624193,0.10047689988277853,0.30498470016755164
RSVPLG03,km,20251014-095001,1.0.1,20250923-093501,701,Experiment,Both,1,Automatic,main,79,20251014-095852,local,global,750,H,H,E,A,E-H.png,H-A.png,hH,hH,mask-2.png,mask-3.png,h,1,1.062790400115773,h,1,0.14258610014803708,0.049389699939638376,0.04867190006189048,0.10105619998648763,0.09975300007499754,0.7439413999672979
RSVPLG03,km,20251014-095001,1.0.1,20250923-093501,701,Experiment,Both,1,Automatic,main,80,20251014-095858,global,global,750,S,H,E,A,S-E.png,H-A.png,sS,hH,mask-2.png,mask-4.png,h,0,0.5613311000633985,s,0,0.09816460008732975,0.05152840004302561,0.049288100097328424,0.1012935999315232,0.10117530007846653,0.7429640998598188
RSVPLG03,km,20251014-095001,1.0.1,20250923-093501,701,Experiment,Both,1,Automatic,main,81,20251014-095902,local,global,750,H,H,A,A,A-H.png,H-A.png,hH,hH,mask-2.png,mask-1.png,h,1,0.6134873998817056,h,1,0.14595929998904467,0.050899599911645055,0.049804499838501215,0.10088899987749755,0.10137799987569451,0.7429037000983953
RSVPLG03,km,20251014-095001,1.0.1,20250923-093501,701,Experiment,Both,1,Automatic,main,82,20251014-095907,local,global,300,S,H,E,E,E-S.png,H-E.png,sS,hH,mask-1.png,mask-1.png,s,1,0.4695175001397729,h,1,0.24258440011180937,0.0487118000164628,0.050103799905627966,0.10003229998983443,0.1003467000555247,0.30296849994920194
RSVPLG03,km,20251014-095001,1.0.1,20250923-093501,701,Experiment,Both,1,Automatic,main,83,20251014-095912,global,local,300,S,S,E,E,S-E.png,E-S.png,sS,sS,mask-3.png,mask-2.png,s,1,1.4918069001287222,h,0,0.46589530003257096,0.05039990018121898,0.04982469999231398,0.10121090011671185,0.09977749991230667,0.3053876000922173
RSVPLG03,km,20251014-095001,1.0.1,20250923-093501,701,Experiment,Both,1,Automatic,main,84,20251014-095917,local,local,750,S,H,A,E,A-S.png,E-H.png,sS,hH,mask-4.png,mask-1.png,s,1,0.7313651000149548,h,1,0.27073059999383986,0.04983809986151755,0.049845300149172544,0.0985820998903364,0.10230050003156066,0.7418983997777104
RSVPLG03,km,20251014-095001,1.0.1,20250923-093501,701,Experiment,Both,1,Automatic,main,85,20251014-095922,global,local,750,S,H,E,A,S-E.png,A-H.png,sS,hH,mask-4.png,mask-4.png,s,1,0.6932947998866439,s,0,0.23766470002010465,0.05072470009326935,0.05111530004069209,0.09997049998492002,0.10219800006598234,0.7415928000118583
RSVPLG03,km,20251014-095001,1.0.1,20250923-093501,701,Experiment,Both,1,Automatic,main,86,20251014-095928,global,global,300,H,S,E,E,H-E.png,S-E.png,hH,sS,mask-2.png,mask-1.png,s,0,1.6510506998747587,s,1,0.1790622000116855,0.05205489997752011,0.04907199996523559,0.10415240004658699,0.1008772999048233,0.30613160016946495
RSVPLG03,km,20251014-095001,1.0.1,20250923-093501,701,Experiment,Both,1,Automatic,main,87,20251014-095933,local,global,300,H,S,A,E,A-H.png,S-E.png,hH,sS,mask-1.png,mask-4.png,h,1,0.4318926001433283,h,0,0.7137772999703884,0.04980139993131161,0.04867199994623661,0.1002180001232773,0.09906179993413389,0.30440849997103214
RSVPLG03,km,20251014-095001,1.0.1,20250923-093501,701,Experiment,Both,1,Automatic,main,88,20251014-095938,local,global,750,S,S,A,A,A-S.png,S-A.png,sS,sS,mask-4.png,mask-3.png,s,1,0.41055119992233813,h,0,0.09708320000208914,0.050119200022891164,0.05015059979632497,0.09997059986926615,0.10164060001261532,0.7414267000276595
RSVPLG03,km,20251014-095001,1.0.1,20250923-093501,701,Experiment,Both,1,Automatic,main,89,20251014-095943,global,local,750,S,H,A,A,S-A.png,A-H.png,sS,hH,mask-2.png,mask-3.png,s,1,0.8542980998754501,h,1,0.09063980006612837,0.05006980011239648,0.049735600128769875,0.1011838000267744,0.1006012000143528,0.7446594999637455
RSVPLG03,km,20251014-095001,1.0.1,20250923-093501,701,Experiment,Both,1,Automatic,main,90,20251014-095948,global,global,300,H,H,A,A,H-A.png,H-A.png,hH,hH,mask-3.png,mask-1.png,h,1,0.7115027999971062,h,1,0.6107730001676828,0.051036000018939376,0.05165579984895885,0.10205759992823005,0.10129279992543161,0.3043130000587553
RSVPLG03,km,20251014-095001,1.0.1,20250923-093501,701,Experiment,Both,1,Automatic,main,91,20251014-095953,local,local,300,H,S,A,E,A-H.png,E-S.png,hH,sS,mask-4.png,mask-4.png,s,0,0.5614007001277059,s,1,0.46671200008131564,0.05194239993579686,0.05233149998821318,0.10150380013510585,0.10087449988350272,0.3039351000916213
RSVPLG03,km,20251014-095001,1.0.1,20250923-093501,701,Experiment,Both,1,Automatic,main,92,20251014-095957,local,local,300,H,S,E,A,E-H.png,A-S.png,hH,sS,mask-1.png,mask-3.png,h,1,0.7812108998186886,s,1,0.13666469999589026,0.051924899918958545,0.05047509982250631,0.10189029993489385,0.1000373000279069,0.3041934999637306
RSVPLG03,km,20251014-095001,1.0.1,20250923-093501,701,Experiment,Both,1,Automatic,main,93,20251014-100002,global,global,300,H,H,A,E,H-A.png,H-E.png,hH,hH,mask-2.png,mask-2.png,h,1,1.1920591001398861,s,0,0.13138600019738078,0.050105399917811155,0.05231109983287752,0.10004399996250868,0.10276379995048046,0.30170960002578795
RSVPLG03,km,20251014-095001,1.0.1,20250923-093501,701,Experiment,Both,1,Automatic,main,94,20251014-100007,local,local,750,S,S,A,E,A-S.png,E-S.png,sS,sS,mask-2.png,mask-3.png,s,1,0.5012399000115693,s,1,0.20910219987854362,0.0511842998676002,0.04975060001015663,0.1012978998478502,0.10118270013481379,0.7419933998025954
RSVPLG03,km,20251014-095001,1.0.1,20250923-093501,701,Experiment,Both,1,Automatic,main,95,20251014-100012,local,local,750,S,S,E,E,E-S.png,E-S.png,sS,sS,mask-1.png,mask-1.png,s,1,0.8638338001910597,s,1,0.16098290006630123,0.05246039992198348,0.05089770001359284,0.1019678998272866,0.10315580014139414,0.7428436998743564
RSVPLG03,km,20251014-095001,1.0.1,20250923-093501,701,Experiment,Both,1,Automatic,main,96,20251014-100017,global,local,750,H,S,E,A,H-E.png,A-S.png,hH,sS,mask-1.png,mask-1.png,s,0,0.6068969999905676,s,1,0.22080949996598065,0.05227049998939037,0.04904869990423322,0.10383869986981153,0.09980159997940063,0.7445308999158442
RSVPLG03,km,20251014-095001,1.0.1,20250923-093501,701,Experiment,Both,1,Automatic,main,97,20251014-100022,local,global,300,S,S,E,E,E-S.png,S-E.png,sS,sS,mask-3.png,mask-2.png,s,1,2.0341688999906182,h,0,0.12382239988073707,0.052680700086057186,0.05215130001306534,0.10216960008256137,0.10122529999352992,0.30446240003220737
RSVPLG03,km,20251014-095001,1.0.1,20250923-093501,701,Experiment,Both,1,Automatic,main,98,20251014-100028,global,local,750,S,H,A,E,S-A.png,E-H.png,sS,hH,mask-1.png,mask-2.png,h,0,0.9759366000071168,s,0,0.2895229000132531,0.05000589997507632,0.05193429999053478,0.1015779001172632,0.10205779992975295,0.7417071000672877
RSVPLG03,km,20251014-095001,1.0.1,20250923-093501,701,Experiment,Both,1,Automatic,main,99,20251014-100033,global,local,750,H,H,A,E,H-A.png,E-H.png,hH,hH,mask-4.png,mask-4.png,h,1,0.6448121999856085,s,0,0.9469492000062019,0.05118630011565983,0.05089730001054704,0.10097289993427694,0.10171229997649789,0.7416316999588162
RSVPLG03,km,20251014-095001,1.0.1,20250923-093501,701,Experiment,Both,1,Automatic,main,100,20251014-100039,global,local,300,S,H,A,A,S-A.png,A-H.png,sS,hH,mask-1.png,mask-1.png,s,1,1.1622385000810027,s,0,0.27091989992186427,0.050386699847877026,0.050873199943453074,0.10171339986845851,0.10021029994823039,0.304607099853456
RSVPLG03,km,20251014-095001,1.0.1,20250923-093501,701,Experiment,Both,1,Automatic,main,101,20251014-100049,local,local,300,S,S,E,A,E-S.png,A-S.png,sS,sS,mask-3.png,mask-1.png,h,0,0.7073351999279112,h,0,0.666399999987334,0.04931050003506243,0.04946150002069771,0.10115980007685721,0.1009400999173522,0.30480120005086064
RSVPLG03,km,20251014-095001,1.0.1,20250923-093501,701,Experiment,Both,1,Automatic,main,102,20251014-100054,local,local,300,S,H,E,E,E-S.png,E-H.png,sS,hH,mask-1.png,mask-3.png,s,1,0.4516213999595493,s,0,0.49852919997647405,0.05166950006969273,0.05110049992799759,0.10090720001608133,0.10238129994831979,0.3038109999615699
RSVPLG03,km,20251014-095001,1.0.1,20250923-093501,701,Experiment,Both,1,Automatic,main,103,20251014-100058,global,global,750,H,S,A,E,H-A.png,S-E.png,hH,sS,mask-3.png,mask-3.png,h,1,0.5819545001722872,s,1,0.173917300067842,0.05061749997548759,0.04910849989391863,0.10218190005980432,0.10010189982131124,0.7440895000472665
RSVPLG03,km,20251014-095001,1.0.1,20250923-093501,701,Experiment,Both,1,Automatic,main,104,20251014-100103,global,global,750,S,H,A,E,S-A.png,H-E.png,sS,hH,mask-2.png,mask-2.png,s,1,0.350152799859643,h,1,0.19343630014918745,0.051541199907660484,0.04976000008173287,0.10170739982277155,0.10109689994715154,0.7440871999133378
RSVPLG03,km,20251014-095001,1.0.1,20250923-093501,701,Experiment,Both,1,Automatic,main,105,20251014-100108,global,local,750,H,S,A,A,H-A.png,A-S.png,hH,sS,mask-1.png,mask-4.png,s,0,1.07105390005745,h,0,0.258416400058195,0.04947449988685548,0.04868689994327724,0.09969409997574985,0.0998389997985214,0.7430354000534862
RSVPLG03,km,20251014-095001,1.0.1,20250923-093501,701,Experiment,Both,1,Automatic,main,106,20251014-100113,local,global,750,H,S,E,E,E-H.png,S-E.png,hH,sS,mask-1.png,mask-4.png,h,1,0.6374729999806732,s,1,0.17062310012988746,0.05077320011332631,0.05335679999552667,0.1013712000567466,0.10134209995158017,0.742318200180307
RSVPLG03,km,20251014-095001,1.0.1,20250923-093501,701,Experiment,Both,1,Automatic,main,107,20251014-100118,local,global,750,H,S,A,A,A-H.png,S-A.png,hH,sS,mask-1.png,mask-2.png,h,1,0.8856055000796914,h,0,0.18297370010986924,0.050832100212574005,0.0508842000272125,0.10086180013604462,0.10071339993737638,0.742637500166893
RSVPLG03,km,20251014-095001,1.0.1,20250923-093501,701,Experiment,Both,1,Automatic,main,108,20251014-100123,local,global,300,H,S,E,E,E-H.png,S-E.png,hH,sS,mask-4.png,mask-2.png,h,1,0.753448799951002,s,1,0.21403879998251796,0.050942600006237626,0.05003550020046532,0.10281519987620413,0.10165100009180605,0.3060490998905152
RSVPLG03,km,20251014-095001,1.0.1,20250923-093501,701,Experiment,Both,1,Automatic,main,109,20251014-100128,local,local,300,S,H,A,A,A-S.png,A-H.png,sS,hH,mask-3.png,mask-3.png,h,0,1.3906641998328269,s,0,0.27450620010495186,0.05092389998026192,0.051514700055122375,0.1010374000761658,0.10241699987091124,0.3027200000360608
RSVPLG03,km,20251014-095001,1.0.1,20250923-093501,701,Experiment,Both,1,Automatic,main,110,20251014-100133,local,global,750,H,H,E,E,E-H.png,H-E.png,hH,hH,mask-2.png,mask-1.png,h,1,0.5424916001502424,s,0,0.20781819988042116,0.048872899962589145,0.052253999980166554,0.09841509978286922,0.10225909994915128,0.7409254999365658
RSVPLG03,km,20251014-095001,1.0.1,20250923-093501,701,Experiment,Both,1,Automatic,main,111,20251014-100138,global,global,300,H,S,A,E,H-A.png,S-E.png,hH,sS,mask-1.png,mask-3.png,h,1,0.7725490001030266,s,1,0.17830409994348884,0.051342800026759505,0.05116289993748069,0.10241329995915294,0.10191520000807941,0.30423890007659793
RSVPLG03,km,20251014-095001,1.0.1,20250923-093501,701,Experiment,Both,1,Automatic,main,112,20251014-100143,local,local,300,S,S,E,E,E-S.png,E-S.png,sS,sS,mask-4.png,mask-2.png,s,1,1.9284961998928338,h,0,0.2339298001024872,0.05171249993145466,0.049946899991482496,0.10277520003728569,0.10171449999324977,0.30455000000074506
RSVPLG03,km,20251014-095001,1.0.1,20250923-093501,701,Experiment,Both,1,Automatic,main,113,20251014-100148,global,global,750,H,S,A,E,H-A.png,S-E.png,hH,sS,mask-2.png,mask-1.png,h,1,0.5903483999427408,s,1,0.14075320004485548,0.05040620011277497,0.049674300011247396,0.10083730006590486,0.09953350014984608,0.7429986000061035
RSVPLG03,km,20251014-095001,1.0.1,20250923-093501,701,Experiment,Both,1,Automatic,main,114,20251014-100153,local,local,750,H,S,E,A,E-H.png,A-S.png,hH,sS,mask-2.png,mask-2.png,h,1,1.4425276999827474,s,1,0.5146741999778897,0.048211000161245465,0.05169899994507432,0.09858860005624592,0.10154599999077618,0.7412477000616491
RSVPLG03,km,20251014-095001,1.0.1,20250923-093501,701,Experiment,Both,1,Automatic,main,115,20251014-100159,local,local,300,S,S,E,A,E-S.png,A-S.png,sS,sS,mask-1.png,mask-2.png,s,1,1.6244491999968886,h,0,0.17794810002669692,0.048777899937704206,0.05175420013256371,0.10077690007165074,0.10166450007818639,0.30311300000175834
RSVPLG03,km,20251014-095001,1.0.1,20250923-093501,701,Experiment,Both,1,Automatic,main,116,20251014-100205,local,global,750,S,S,E,A,E-S.png,S-A.png,sS,sS,mask-4.png,mask-1.png,h,0,0.8474278999492526,h,0,0.19421180011704564,0.04978629993274808,0.05077029997482896,0.10014389990828931,0.10041049984283745,0.7417659000493586
RSVPLG03,km,20251014-095001,1.0.1,20250923-093501,701,Experiment,Both,1,Automatic,main,117,20251014-100210,local,local,750,H,S,A,E,A-H.png,E-S.png,hH,sS,mask-1.png,mask-3.png,h,1,0.8102440000511706,h,0,0.46489699999801815,0.052737400168552995,0.05084859998896718,0.10208810004405677,0.09963389998301864,0.7445682000834495
RSVPLG03,km,20251014-095001,1.0.1,20250923-093501,701,Experiment,Both,1,Automatic,main,118,20251014-100215,global,global,750,S,S,E,E,S-E.png,S-E.png,sS,sS,mask-1.png,mask-4.png,h,0,0.43894940009340644,s,1,0.2819354000966996,0.05135129997506738,0.052030100021511316,0.1029453999362886,0.10268980008549988,0.7437024998944253
RSVPLG03,km,20251014-095001,1.0.1,20250923-093501,701,Experiment,Both,1,Automatic,main,119,20251014-100220,global,local,300,H,S,E,A,H-E.png,A-S.png,hH,sS,mask-2.png,mask-1.png,h,1,0.8039803998544812,s,1,0.18686389992944896,0.04975040000863373,0.051427800208330154,0.1011646999977529,0.10193520016036928,0.3031013999134302
RSVPLG03,km,20251014-095001,1.0.1,20250923-093501,701,Experiment,Both,1,Automatic,main,120,20251014-100225,global,global,300,S,H,E,A,S-E.png,H-A.png,sS,hH,mask-4.png,mask-2.png,h,0,1.2440698000136763,s,0,0.3579754000529647,0.049946899991482496,0.05174840008839965,0.10074970009736717,0.10164209990762174,0.30419560009613633
RSVPLG03,km,20251014-095001,1.0.1,20250923-093501,701,Experiment,Both,1,Automatic,main,121,20251014-100230,local,local,300,H,H,A,A,A-H.png,A-H.png,hH,hH,mask-1.png,mask-1.png,h,1,0.5080486000515521,s,0,0.1519088998902589,0.05062450002878904,0.05145479994826019,0.10144040011800826,0.09938129992224276,0.304761900100857
RSVPLG03,km,20251014-095001,1.0.1,20250923-093501,701,Experiment,Both,1,Automatic,main,122,20251014-100235,local,global,750,S,S,E,A,E-S.png,S-A.png,sS,sS,mask-4.png,mask-3.png,s,1,0.3267352001275867,h,0,0.17733430000953376,0.05133030004799366,0.05072989990003407,0.10094809997826815,0.10093009984120727,0.7428121999837458
RSVPLG03,km,20251014-095001,1.0.1,20250923-093501,701,Experiment,Both,1,Automatic,main,123,20251014-100239,global,local,300,H,H,E,A,H-E.png,A-H.png,hH,hH,mask-3.png,mask-1.png,s,0,0.7288347000721842,h,1,0.41664629988372326,0.04895929992198944,0.050566700054332614,0.09953709994442761,0.10124240000732243,0.30334370001219213
RSVPLG03,km,20251014-095001,1.0.1,20250923-093501,701,Experiment,Both,1,Automatic,main,124,20251014-100244,global,global,300,H,S,E,A,H-E.png,S-A.png,hH,sS,mask-4.png,mask-2.png,h,1,0.42825170001015067,s,1,0.23433890007436275,0.04934959998354316,0.04979329998604953,0.10093609988689423,0.10214189998805523,0.3034604999702424
RSVPLG03,km,20251014-095001,1.0.1,20250923-093501,701,Experiment,Both,1,Automatic,main,125,20251014-100248,global,global,300,H,S,E,A,H-E.png,S-A.png,hH,sS,mask-2.png,mask-1.png,h,1,0.3235547000076622,s,1,0.17900940007530153,0.05051420000381768,0.051120700081810355,0.10210389993153512,0.10230399994179606,0.3037696999963373
RSVPLG03,km,20251014-100432,1.0.1,20250923-093501,701,Experiment,Both,1,Automatic,warmup,1,20251014-100455,global,local,300,H,H,A,E,H-A.png,E-H.png,hH,hH,mask-4.png,mask-4.png,h,1,0.8465927999932319,s,0,0.3522550000343472,0.04109929990954697,0.05044049979187548,0.0927962998393923,0.09923549997620285,0.29354360001161695
RSVPLG03,km,20251014-100432,1.0.1,20250923-093501,701,Experiment,Both,1,Automatic,warmup,2,20251014-100500,local,global,300,S,H,E,A,E-S.png,H-A.png,sS,hH,mask-3.png,mask-4.png,s,1,0.5928659001365304,s,0,1.6342999001499265,0.05080470000393689,0.05031329998746514,0.09994239988736808,0.10001060017384589,0.3031966998241842
RSVPLG03,km,20251014-100432,1.0.1,20250923-093501,701,Experiment,Both,1,Automatic,warmup,3,20251014-100506,local,global,750,S,S,A,E,A-S.png,S-E.png,sS,sS,mask-4.png,mask-4.png,s,1,0.5104499000590295,s,1,0.23693510005250573,0.050426899921149015,0.049788600066676736,0.100853499956429,0.10187550005502999,0.7551404999103397
RSVPLG03,km,20251014-100432,1.0.1,20250923-093501,701,Experiment,Both,1,Automatic,warmup,4,20251014-100511,global,global,750,H,H,A,E,H-A.png,H-E.png,hH,hH,mask-1.png,mask-3.png,h,1,1.3417829000391066,s,0,0.1787971002049744,0.048511500004678965,0.05220910022035241,0.10025379993021488,0.1028539000544697,0.7534828998614103
RSVPLG03,km,20251014-100432,1.0.1,20250923-093501,701,Experiment,Both,1,Automatic,warmup,5,20251014-100517,local,local,300,S,H,E,A,E-S.png,A-H.png,sS,hH,mask-1.png,mask-1.png,s,1,0.6665987998712808,h,1,0.2657103000674397,0.05078799999319017,0.050522200064733624,0.09982620016671717,0.10189049993641675,0.30194210004992783
RSVPLG03,km,20251014-100432,1.0.1,20250923-093501,701,Experiment,Both,1,Automatic,main,6,20251014-100521,local,local,750,H,S,E,E,E-H.png,E-S.png,hH,sS,mask-2.png,mask-2.png,h,1,0.8616759001743048,s,1,0.1910743999760598,0.04832540010102093,0.05042739980854094,0.10149669996462762,0.10131769999861717,0.7546569001860917
RSVPLG03,km,20251014-100432,1.0.1,20250923-093501,701,Experiment,Both,1,Automatic,main,7,20251014-100526,local,local,300,S,S,A,E,A-S.png,E-S.png,sS,sS,mask-2.png,mask-3.png,s,1,0.9730112000834197,s,1,0.19436260010115802,0.049306799890473485,0.05144579987972975,0.10199970006942749,0.10136709990911186,0.3010434000752866
RSVPLG03,km,20251014-100432,1.0.1,20250923-093501,701,Experiment,Both,1,Automatic,main,8,20251014-100531,global,local,300,S,S,E,A,S-E.png,A-S.png,sS,sS,mask-3.png,mask-3.png,s,1,1.8173776001203805,s,1,0.6703745999839157,0.051790500059723854,0.04874060000292957,0.09971079998649657,0.09980880003422499,0.30357189988717437
RSVPLG03,km,20251014-100432,1.0.1,20250923-093501,701,Experiment,Both,1,Automatic,main,9,20251014-100537,global,global,750,H,S,E,A,H-E.png,S-A.png,hH,sS,mask-3.png,mask-1.png,h,1,0.46110060019418597,s,1,0.20112620014697313,0.049869699869304895,0.050696599995717406,0.10216289991512895,0.10096149984747171,0.7557204000186175
RSVPLG03,km,20251014-100432,1.0.1,20250923-093501,701,Experiment,Both,1,Automatic,main,10,20251014-100542,local,local,750,S,H,E,E,E-S.png,E-H.png,sS,hH,mask-4.png,mask-2.png,s,1,0.8192197000607848,h,1,0.12966160010546446,0.04988499986939132,0.04939389997161925,0.09986760001629591,0.10001519997604191,0.7558736000210047
RSVPLG03,km,20251014-100432,1.0.1,20250923-093501,701,Experiment,Both,1,Automatic,main,11,20251014-100547,local,local,750,H,H,A,A,A-H.png,A-H.png,hH,hH,mask-2.png,mask-1.png,h,1,1.1724915001541376,s,0,0.14109970000572503,0.05076289991848171,0.05090670008212328,0.10075240000151098,0.10069220000877976,0.7547140999231488
RSVPLG03,km,20251014-100432,1.0.1,20250923-093501,701,Experiment,Both,1,Automatic,main,12,20251014-100553,local,local,300,S,H,E,A,E-S.png,A-H.png,sS,hH,mask-1.png,mask-4.png,s,1,0.874056400032714,s,0,0.3710451000370085,0.05013129999861121,0.050092299934476614,0.10060969996266067,0.10125870001502335,0.30305189988575876
RSVPLG03,km,20251014-100432,1.0.1,20250923-093501,701,Experiment,Both,1,Automatic,main,13,20251014-100557,global,local,300,S,S,E,A,S-E.png,A-S.png,sS,sS,mask-4.png,mask-4.png,s,1,0.6314741999376565,s,1,0.2699539999011904,0.04898250009864569,0.050272699911147356,0.10148620000109076,0.1005231998860836,0.3021295000799
RSVPLG03,km,20251014-100432,1.0.1,20250923-093501,701,Experiment,Both,1,Automatic,main,14,20251014-100602,global,local,300,H,S,A,E,H-A.png,E-S.png,hH,sS,mask-4.png,mask-4.png,h,1,0.5046900000888854,s,1,0.09086150000803173,0.051830099895596504,0.05136219994165003,0.10232990002259612,0.10083759995177388,0.30227410001680255
RSVPLG03,km,20251014-100432,1.0.1,20250923-093501,701,Experiment,Both,1,Automatic,main,15,20251014-100606,global,global,300,S,S,A,E,S-A.png,S-E.png,sS,sS,mask-4.png,mask-2.png,s,1,0.6931815000716597,h,0,0.026353799970820546,0.050818300107494,0.051911499816924334,0.10020620003342628,0.10230399994179606,0.3017341000959277
RSVPLG03,km,20251014-100432,1.0.1,20250923-093501,701,Experiment,Both,1,Automatic,main,16,20251014-100611,global,local,750,S,S,A,A,S-A.png,A-S.png,sS,sS,mask-2.png,mask-2.png,s,1,0.46654550009407103,h,0,0.04960209992714226,0.04906310001388192,0.050547700142487884,0.09951599990017712,0.09965950017794967,0.7558108998928219
RSVPLG03,km,20251014-100432,1.0.1,20250923-093501,701,Experiment,Both,1,Automatic,main,17,20251014-100616,global,global,750,H,S,E,E,H-E.png,S-E.png,hH,sS,mask-2.png,mask-1.png,h,1,0.2592665001284331,s,1,0.12322099995799363,0.05002019996754825,0.051128200022503734,0.1015905998647213,0.10075310012325644,0.7557269998360425
RSVPLG03,km,20251014-100432,1.0.1,20250923-093501,701,Experiment,Both,1,Automatic,main,18,20251014-100620,global,global,300,H,H,A,A,H-A.png,H-A.png,hH,hH,mask-2.png,mask-4.png,h,1,0.5071056000888348,h,1,0.27466170000843704,0.05056539992801845,0.049641100224107504,0.1018344999756664,0.09981360007077456,0.30357679980807006
RSVPLG03,km,20251014-100432,1.0.1,20250923-093501,701,Experiment,Both,1,Automatic,main,19,20251014-100625,global,local,300,H,S,E,A,H-E.png,A-S.png,hH,sS,mask-3.png,mask-1.png,h,1,0.5288395001552999,h,0,0.18617190001532435,0.050171100068837404,0.04960849997587502,0.09890819992870092,0.10124589991755784,0.3009212000761181
RSVPLG03,km,20251014-100432,1.0.1,20250923-093501,701,Experiment,Both,1,Automatic,main,20,20251014-100629,local,global,750,H,H,A,E,A-H.png,H-E.png,hH,hH,mask-1.png,mask-4.png,h,1,1.1232316000387073,h,1,0.18691549985669553,0.05108839995227754,0.05029370007105172,0.10217539989389479,0.10231019998900592,0.7565897998865694
RSVPLG03,km,20251014-100432,1.0.1,20250923-093501,701,Experiment,Both,1,Automatic,main,21,20251014-100634,global,local,750,H,S,A,E,H-A.png,E-S.png,hH,sS,mask-4.png,mask-4.png,h,1,0.538234299980104,s,1,0.21072269999422133,0.050871399929746985,0.051780200097709894,0.09932309994474053,0.10143000003881752,0.7545443999115378
RSVPLG03,km,20251014-100432,1.0.1,20250923-093501,701,Experiment,Both,1,Automatic,main,22,20251014-100639,local,local,750,S,H,E,E,E-S.png,E-H.png,sS,hH,mask-2.png,mask-1.png,s,1,0.564384900033474,h,1,0.43097250000573695,0.05156129994429648,0.05095759988762438,0.10165959992446005,0.1015039999037981,0.7561725999694318
RSVPLG03,km,20251014-100432,1.0.1,20250923-093501,701,Experiment,Both,1,Automatic,main,23,20251014-100644,local,global,300,H,H,A,E,A-H.png,H-E.png,hH,hH,mask-3.png,mask-1.png,s,0,2.2758976998738945,h,1,0.16272180015221238,0.05102350004017353,0.050964900059625506,0.1009894001763314,0.1019411999732256,0.3019266000483185
RSVPLG03,km,20251014-100432,1.0.1,20250923-093501,701,Experiment,Both,1,Automatic,main,24,20251014-100651,global,global,750,H,H,A,A,H-A.png,H-A.png,hH,hH,mask-2.png,mask-2.png,h,1,0.47593990014865994,h,1,0.2687836999539286,0.049674300011247396,0.05139080015942454,0.10048969998024404,0.10193010000512004,0.7543120000045747
RSVPLG03,km,20251014-100432,1.0.1,20250923-093501,701,Experiment,Both,1,Automatic,main,25,20251014-100655,global,global,750,S,S,E,A,S-E.png,S-A.png,sS,sS,mask-2.png,mask-1.png,s,1,0.4931314999703318,s,1,0.2590018999762833,0.04886190011166036,0.05104460008442402,0.09895210014656186,0.10058859991841018,0.7548028000164777
RSVPLG03,km,20251014-100432,1.0.1,20250923-093501,701,Experiment,Both,1,Automatic,main,26,20251014-100713,global,local,300,S,S,A,A,S-A.png,A-S.png,sS,sS,mask-3.png,mask-3.png,s,1,0.538207900011912,h,0,0.24215700011700392,0.050004399847239256,0.0495684000197798,0.10064019984565675,0.09899570001289248,0.30292739998549223
RSVPLG03,km,20251014-100432,1.0.1,20250923-093501,701,Experiment,Both,1,Automatic,main,27,20251014-100717,local,global,750,H,S,A,E,A-H.png,S-E.png,hH,sS,mask-3.png,mask-2.png,h,1,0.7969897000584751,s,1,0.18445899989455938,0.04988119984045625,0.051159000024199486,0.10003890004009008,0.10279730008915067,0.7538901998195797
RSVPLG03,km,20251014-100432,1.0.1,20250923-093501,701,Experiment,Both,1,Automatic,main,28,20251014-100722,local,local,750,H,S,A,A,A-H.png,A-S.png,hH,sS,mask-4.png,mask-3.png,h,1,0.4907044998835772,s,1,0.1463764999061823,0.049626300111413,0.05001110001467168,0.09980560000985861,0.09988040011376143,0.7555388000328094
RSVPLG03,km,20251014-100432,1.0.1,20250923-093501,701,Experiment,Both,1,Automatic,main,29,20251014-100727,local,global,750,H,S,A,A,A-H.png,S-A.png,hH,sS,mask-3.png,mask-1.png,h,1,0.3985704001970589,s,1,0.14630400016903877,0.05101480009034276,0.050707700196653605,0.09976100013591349,0.10024600010365248,0.754981999984011
RSVPLG03,km,20251014-100432,1.0.1,20250923-093501,701,Experiment,Both,1,Automatic,main,30,20251014-100732,global,local,750,H,S,E,E,H-E.png,E-S.png,hH,sS,mask-3.png,mask-3.png,h,1,0.5596068000886589,s,1,0.10430869995616376,0.050578200025483966,0.050785599974915385,0.10062330006621778,0.1021070999559015,0.7553277001716197
RSVPLG03,km,20251014-100432,1.0.1,20250923-093501,701,Experiment,Both,1,Automatic,main,31,20251014-100736,global,local,300,H,H,E,A,H-E.png,A-H.png,hH,hH,mask-2.png,mask-2.png,h,1,0.6110125000122935,h,1,0.2090572000015527,0.04921259987168014,0.049992999993264675,0.10007429984398186,0.10099409986287355,0.30077269999310374
RSVPLG03,km,20251014-100432,1.0.1,20250923-093501,701,Experiment,Both,1,Automatic,main,32,20251014-100741,local,global,300,S,H,A,E,A-S.png,H-E.png,sS,hH,mask-3.png,mask-4.png,h,0,0.745045900112018,h,1,0.33780430001206696,0.05102459993213415,0.0512297002132982,0.10125790000893176,0.09967930009588599,0.3027807998005301
RSVPLG03,km,20251014-100432,1.0.1,20250923-093501,701,Experiment,Both,1,Automatic,main,33,20251014-100746,global,global,750,S,S,E,A,S-E.png,S-A.png,sS,sS,mask-4.png,mask-1.png,s,1,0.5079721000511199,s,1,0.22218600008636713,0.05062350002117455,0.05030270013958216,0.10032500000670552,0.10128080006688833,0.7556767000351101
RSVPLG03,km,20251014-100432,1.0.1,20250923-093501,701,Experiment,Both,1,Automatic,main,34,20251014-100751,local,global,750,S,S,E,A,E-S.png,S-A.png,sS,sS,mask-1.png,mask-1.png,s,1,0.3307236998807639,s,1,0.19462570012547076,0.050932700047269464,0.05208879988640547,0.10112380003556609,0.10079810000024736,0.7551869000308216
RSVPLG03,km,20251014-100432,1.0.1,20250923-093501,701,Experiment,Both,1,Automatic,main,35,20251014-100755,local,global,750,H,H,E,E,E-H.png,H-E.png,hH,hH,mask-2.png,mask-2.png,s,0,0.49957179999910295,h,1,0.23266270011663437,0.05042650015093386,0.050450799986720085,0.09991570003330708,0.10075199999846518,0.7544100000523031
RSVPLG03,km,20251014-100432,1.0.1,20250923-093501,701,Experiment,Both,1,Automatic,main,36,20251014-100800,global,local,750,H,H,E,A,H-E.png,A-H.png,hH,hH,mask-1.png,mask-1.png,h,1,0.39986840006895363,h,1,0.2194945001974702,0.05138489999808371,0.05060829990543425,0.10081400000490248,0.10248959995806217,0.7561160000041127
RSVPLG03,km,20251014-100432,1.0.1,20250923-093501,701,Experiment,Both,1,Automatic,main,37,20251014-100805,global,local,750,S,H,E,E,S-E.png,E-H.png,sS,hH,mask-4.png,mask-4.png,s,1,0.48094479995779693,s,0,0.22603879985399544,0.04831390012986958,0.05204989993944764,0.1001964001916349,0.10012319986708462,0.7540546001400799
RSVPLG03,km,20251014-100432,1.0.1,20250923-093501,701,Experiment,Both,1,Automatic,main,38,20251014-100810,local,global,750,S,S,A,E,A-S.png,S-E.png,sS,sS,mask-2.png,mask-3.png,h,0,0.8504713999573141,s,1,0.3356293998658657,0.04973319987766445,0.04959550010971725,0.09982319991104305,0.10248779994435608,0.7538030999712646
RSVPLG03,km,20251014-100432,1.0.1,20250923-093501,701,Experiment,Both,1,Automatic,main,39,20251014-100815,global,global,750,S,H,A,A,S-A.png,H-A.png,sS,hH,mask-4.png,mask-1.png,s,1,0.3266774998046458,h,1,0.08189109992235899,0.05007160012610257,0.051298300037160516,0.10145470011048019,0.10109789995476604,0.7552980000618845
RSVPLG03,km,20251014-100432,1.0.1,20250923-093501,701,Experiment,Both,1,Automatic,main,40,20251014-100820,global,global,750,H,S,E,A,H-E.png,S-A.png,hH,sS,mask-2.png,mask-4.png,h,1,1.0991619999986142,s,1,0.28974130004644394,0.04927379987202585,0.050423899898305535,0.10153879993595183,0.09864560002461076,0.7568202000111341
RSVPLG03,km,20251014-100432,1.0.1,20250923-093501,701,Experiment,Both,1,Automatic,main,41,20251014-100825,local,global,300,H,H,E,A,E-H.png,H-A.png,hH,hH,mask-1.png,mask-1.png,h,1,0.5392044000327587,s,0,0.4790881001390517,0.05038010003045201,0.048442000057548285,0.10079940012656152,0.09893330000340939,0.3036474999971688
RSVPLG03,km,20251014-100432,1.0.1,20250923-093501,701,Experiment,Both,1,Automatic,main,42,20251014-100830,global,local,750,H,S,E,A,H-E.png,A-S.png,hH,sS,mask-2.png,mask-3.png,h,1,0.7013218000065535,s,1,0.14470460009761155,0.049798799911513925,0.04959780001081526,0.09972990001551807,0.09948220010846853,0.7560373998712748
RSVPLG03,km,20251014-100432,1.0.1,20250923-093501,701,Experiment,Both,1,Automatic,main,43,20251014-100835,local,local,300,H,S,A,A,A-H.png,A-S.png,hH,sS,mask-1.png,mask-1.png,h,1,0.55359230004251,s,1,0.136621099896729,0.0478645998518914,0.0491520999930799,0.09977969992905855,0.10069829993881285,0.30198480002582073
RSVPLG03,km,20251014-100432,1.0.1,20250923-093501,701,Experiment,Both,1,Automatic,main,44,20251014-100839,global,local,750,S,S,A,E,S-A.png,E-S.png,sS,sS,mask-3.png,mask-1.png,s,1,0.41290699993260205,s,1,0.1466728001832962,0.049419499933719635,0.0499810001347214,0.10134829999879003,0.10014550015330315,0.7555851999204606
RSVPLG03,km,20251014-100432,1.0.1,20250923-093501,701,Experiment,Both,1,Automatic,main,45,20251014-100844,local,global,750,H,S,E,A,E-H.png,S-A.png,hH,sS,mask-3.png,mask-3.png,s,0,0.41148909996263683,s,1,0.20211870013736188,0.05094649991951883,0.04984839982353151,0.09961399994790554,0.1001877998933196,0.7560529001057148
RSVPLG03,km,20251014-100432,1.0.1,20250923-093501,701,Experiment,Both,1,Automatic,main,46,20251014-100849,local,local,750,H,S,A,E,A-H.png,E-S.png,hH,sS,mask-3.png,mask-3.png,s,0,0.2727286999579519,s,1,0.1620439998805523,0.04909620014950633,0.05059390002861619,0.10115930018946528,0.10000910004600883,0.755838799988851
RSVPLG03,km,20251014-100432,1.0.1,20250923-093501,701,Experiment,Both,1,Automatic,main,47,20251014-100853,local,local,750,H,S,E,A,E-H.png,A-S.png,hH,sS,mask-2.png,mask-3.png,s,0,0.5593026001006365,h,0,0.09560500015504658,0.049739999929443,0.04859520005993545,0.10164719983004034,0.09971880004741251,0.7565903998911381
RSVPLG03,km,20251014-100432,1.0.1,20250923-093501,701,Experiment,Both,1,Automatic,main,48,20251014-100858,local,local,300,S,S,E,E,E-S.png,E-S.png,sS,sS,mask-1.png,mask-3.png,s,1,1.1971656000241637,s,1,0.16249900008551776,0.048924600007012486,0.05199260008521378,0.09995069983415306,0.10152969998307526,0.3007171999197453
RSVPLG03,km,20251014-100432,1.0.1,20250923-093501,701,Experiment,Both,1,Automatic,main,49,20251014-100903,local,local,750,H,S,E,E,E-H.png,E-S.png,hH,sS,mask-3.png,mask-3.png,s,0,0.3376250001601875,s,1,0.10852080001495779,0.049028499983251095,0.051955899922177196,0.10080529982224107,0.10095599992200732,0.7543122998904437
RSVPLG03,km,20251014-100432,1.0.1,20250923-093501,701,Experiment,Both,1,Automatic,main,50,20251014-100908,global,global,750,H,S,A,A,H-A.png,S-A.png,hH,sS,mask-1.png,mask-3.png,h,1,0.5790289998985827,h,0,0.11364930006675422,0.05004180013202131,0.04984610015526414,0.10031430004164577,0.10101029998622835,0.7541531999595463
RSVPLG03,km,20251014-100432,1.0.1,20250923-093501,701,Experiment,Both,1,Automatic,main,51,20251014-100914,global,global,300,H,H,E,A,H-E.png,H-A.png,hH,hH,mask-4.png,mask-1.png,h,1,0.5448684999719262,s,0,0.704891299828887,0.050692399963736534,0.05051890015602112,0.10176369990222156,0.10045040003024042,0.3017912998329848
RSVPLG03,km,20251014-100432,1.0.1,20250923-093501,701,Experiment,Both,1,Automatic,main,52,20251014-100919,global,local,750,S,S,A,A,S-A.png,A-S.png,sS,sS,mask-3.png,mask-2.png,s,1,0.30479610012844205,h,0,0.03343950002454221,0.05008130008354783,0.050677600083872676,0.099495799979195,0.10254060011357069,0.7549389998894185
RSVPLG03,km,20251014-100432,1.0.1,20250923-093501,701,Experiment,Both,1,Automatic,main,53,20251014-100923,local,local,750,S,S,E,E,E-S.png,E-S.png,sS,sS,mask-2.png,mask-3.png,s,1,0.4546497999690473,h,0,0.11439420003443956,0.04985109996050596,0.05021190014667809,0.09968860005028546,0.09924750006757677,0.7560627998318523
RSVPLG03,km,20251014-100432,1.0.1,20250923-093501,701,Experiment,Both,1,Automatic,main,54,20251014-100928,global,global,300,H,H,A,A,H-A.png,H-A.png,hH,hH,mask-3.png,mask-3.png,h,1,0.8706593001261353,s,0,0.2660711999051273,0.05109549988992512,0.04903690004721284,0.09979999996721745,0.09788700006902218,0.3038347999099642
RSVPLG03,km,20251014-100432,1.0.1,20250923-093501,701,Experiment,Both,1,Automatic,main,55,20251014-100933,local,global,750,S,S,A,E,A-S.png,S-E.png,sS,sS,mask-3.png,mask-4.png,h,0,1.4107551998458803,s,1,0.623105000006035,0.05092990002594888,0.05039090011268854,0.10117259994149208,0.10048530017957091,0.7551131998188794
RSVPLG03,km,20251014-100432,1.0.1,20250923-093501,701,Experiment,Both,1,Automatic,main,56,20251014-100939,local,local,750,H,S,A,E,A-H.png,E-S.png,hH,sS,mask-2.png,mask-4.png,h,1,0.31914170016534626,s,1,0.21065469994209707,0.05008459999226034,0.05028409999795258,0.1023804999422282,0.10116950003430247,0.7543943000491709
RSVPLG03,km,20251014-100432,1.0.1,20250923-093501,701,Experiment,Both,1,Automatic,main,57,20251014-100944,local,global,300,H,H,E,E,E-H.png,H-E.png,hH,hH,mask-4.png,mask-2.png,h,1,0.7169787001330405,s,0,0.08986139995977283,0.05113370018079877,0.05025999993085861,0.09993920009583235,0.1010646999347955,0.30218380014412105
RSVPLG03,km,20251014-100432,1.0.1,20250923-093501,701,Experiment,Both,1,Automatic,main,58,20251014-100948,local,global,300,H,S,E,A,E-H.png,S-A.png,hH,sS,mask-4.png,mask-4.png,s,0,0.7340464000590146,s,1,0.15344389993697405,0.05062939994968474,0.050193200120702386,0.10023329989053309,0.10119740013033152,0.3019198998808861
RSVPLG03,km,20251014-100432,1.0.1,20250923-093501,701,Experiment,Both,1,Automatic,main,59,20251014-100953,local,local,300,H,S,E,A,E-H.png,A-S.png,hH,sS,mask-2.png,mask-1.png,h,1,1.2356972999405116,s,1,0.011445899959653616,0.05055549996905029,0.049563500098884106,0.09914780012331903,0.10031490004621446,0.300580499926582
RSVPLG03,km,20251014-100432,1.0.1,20250923-093501,701,Experiment,Both,1,Automatic,main,60,20251014-100958,global,local,750,S,H,A,A,S-A.png,A-H.png,sS,hH,mask-2.png,mask-1.png,s,1,0.5205814999062568,h,1,0.17918089986778796,0.0508610000833869,0.0490791997872293,0.10097700008191168,0.09963919990696013,0.7560913001652807
RSVPLG03,km,20251014-100432,1.0.1,20250923-093501,701,Experiment,Both,1,Automatic,main,61,20251014-101003,global,global,300,H,S,E,A,H-E.png,S-A.png,hH,sS,mask-1.png,mask-4.png,h,1,2.063474099850282,s,1,0.33954209997318685,0.050569500075653195,0.048588600009679794,0.10091360006481409,0.10077010001987219,0.3042554999701679
RSVPLG03,km,20251014-100432,1.0.1,20250923-093501,701,Experiment,Both,1,Automatic,main,62,20251014-101009,local,global,300,H,H,A,A,A-H.png,H-A.png,hH,hH,mask-2.png,mask-4.png,h,1,0.6900241000112146,s,0,0.30436680000275373,0.05099990009330213,0.04933189996518195,0.10159179987385869,0.09899599989876151,0.3034518000204116
RSVPLG03,km,20251014-100432,1.0.1,20250923-093501,701,Experiment,Both,1,Automatic,main,63,20251014-101014,local,global,300,H,S,A,E,A-H.png,S-E.png,hH,sS,mask-2.png,mask-4.png,h,1,0.46453969995491207,s,1,0.2867384001147002,0.05075629986822605,0.04914480005390942,0.09919360000640154,0.09897469985298812,0.3033749000169337
RSVPLG03,km,20251014-100432,1.0.1,20250923-093501,701,Experiment,Both,1,Automatic,main,64,20251014-101018,local,global,300,S,H,A,E,A-S.png,H-E.png,sS,hH,mask-1.png,mask-3.png,s,1,0.7308227999601513,s,0,0.2642596000805497,0.051335800206288695,0.050314499996602535,0.10089800017885864,0.09983769990503788,0.30314200022257864
RSVPLG03,km,20251014-100432,1.0.1,20250923-093501,701,Experiment,Both,1,Automatic,main,65,20251014-101023,local,local,300,S,H,A,E,A-S.png,E-H.png,sS,hH,mask-4.png,mask-4.png,s,1,0.8771910001523793,h,1,0.11383639997802675,0.05073720007203519,0.05250960006378591,0.10118170012719929,0.10021400009281933,0.3024037000723183
RSVPLG03,km,20251014-100432,1.0.1,20250923-093501,701,Experiment,Both,1,Automatic,main,66,20251014-101027,global,global,300,S,H,E,E,S-E.png,H-E.png,sS,hH,mask-3.png,mask-3.png,s,1,2.175640899920836,s,0,0.23812390002422035,0.050734799820929766,0.049911600071936846,0.10167369991540909,0.10127470013685524,0.3028805998619646
RSVPLG03,km,20251014-100432,1.0.1,20250923-093501,701,Experiment,Both,1,Automatic,main,67,20251014-101034,global,local,300,S,H,E,A,S-E.png,A-H.png,sS,hH,mask-1.png,mask-1.png,s,1,0.6790283001028001,h,1,0.10361970006488264,0.050372600089758635,0.052238899981603026,0.10178130003623664,0.10189070017077029,0.3028500999789685
RSVPLG03,km,20251014-100432,1.0.1,20250923-093501,701,Experiment,Both,1,Automatic,main,68,20251014-101038,global,global,300,S,S,A,E,S-A.png,S-E.png,sS,sS,mask-3.png,mask-1.png,s,1,0.3397329000290483,s,1,0.19137160014361143,0.049061400117352605,0.050862499978393316,0.1012079999782145,0.10135299991816282,0.3014436000958085
RSVPLG03,km,20251014-100432,1.0.1,20250923-093501,701,Experiment,Both,1,Automatic,main,69,20251014-101042,global,local,750,H,H,A,A,H-A.png,A-H.png,hH,hH,mask-4.png,mask-2.png,h,1,0.48822000017389655,h,1,0.1875971001572907,0.050251500215381384,0.05081039993092418,0.10191870015114546,0.10120249981991947,0.7561241001822054
RSVPLG03,km,20251014-100432,1.0.1,20250923-093501,701,Experiment,Both,1,Automatic,main,70,20251014-101047,local,local,750,H,S,A,E,A-H.png,E-S.png,hH,sS,mask-3.png,mask-3.png,h,1,0.4911217000335455,s,1,0.1121310000307858,0.049837900092825294,0.04585139988921583,0.10128349997103214,0.09621999994851649,0.7597523999866098
RSVPLG03,km,20251014-100432,1.0.1,20250923-093501,701,Experiment,Both,1,Automatic,main,71,20251014-101052,global,local,300,S,S,A,E,S-A.png,E-S.png,sS,sS,mask-3.png,mask-1.png,h,0,0.8231855998747051,s,1,0.08788880007341504,0.052535400027409196,0.04919390007853508,0.10036100004799664,0.09898489993065596,0.3043776999693364
RSVPLG03,km,20251014-100432,1.0.1,20250923-093501,701,Experiment,Both,1,Automatic,main,72,20251014-101056,global,local,750,H,H,A,A,H-A.png,A-H.png,hH,hH,mask-1.png,mask-2.png,h,1,0.5124902999959886,s,0,0.032885099994018674,0.05001440015621483,0.050074199913069606,0.10204540006816387,0.09880969999358058,0.7568147000856698
RSVPLG03,km,20251014-100432,1.0.1,20250923-093501,701,Experiment,Both,1,Automatic,main,73,20251014-101101,local,local,300,S,H,A,E,A-S.png,E-H.png,sS,hH,mask-2.png,mask-1.png,h,0,0.7760080001316965,s,0,0.10478140017949045,0.049174799816682935,0.04964870004914701,0.10063949995674193,0.10085990000516176,0.302584599936381
RSVPLG03,km,20251014-100432,1.0.1,20250923-093501,701,Experiment,Both,1,Automatic,main,74,20251014-101106,global,local,750,S,H,E,E,S-E.png,E-H.png,sS,hH,mask-1.png,mask-2.png,s,1,0.4070272999815643,h,1,0.2212183999363333,0.04962659999728203,0.050783699844032526,0.10070360009558499,0.10102709988132119,0.7552179000340402
RSVPLG03,km,20251014-100432,1.0.1,20250923-093501,701,Experiment,Both,1,Automatic,main,75,20251014-101110,global,global,300,H,S,A,E,H-A.png,S-E.png,hH,sS,mask-2.png,mask-1.png,h,1,1.4266520999372005,h,0,0.11482539982534945,0.0496204998344183,0.04983699996955693,0.09875699994154274,0.0994730000384152,0.30214099981822073
RSVPLG03,km,20251014-100432,1.0.1,20250923-093501,701,Experiment,Both,1,Automatic,main,76,20251014-101117,local,local,300,H,S,A,E,A-H.png,E-S.png,hH,sS,mask-4.png,mask-2.png,s,0,0.31798749999143183,h,0,0.44593119993805885,0.05037469998933375,0.04831189988180995,0.10019690007902682,0.09847339987754822,0.3037652000784874
RSVPLG03,km,20251014-100432,1.0.1,20250923-093501,701,Experiment,Both,1,Automatic,main,77,20251014-101121,global,local,300,S,S,A,A,S-A.png,A-S.png,sS,sS,mask-2.png,mask-4.png,s,1,0.2881248998455703,h,0,0.07602949999272823,0.050410799914970994,0.04904369986616075,0.10036629997193813,0.10011629993095994,0.30292439996264875
RSVPLG03,km,20251014-100432,1.0.1,20250923-093501,701,Experiment,Both,1,Automatic,main,78,20251014-101125,local,local,750,S,H,A,A,A-S.png,A-H.png,sS,hH,mask-4.png,mask-4.png,h,0,0.34709600009955466,s,0,0.25901639997027814,0.050685200141742826,0.050926299998536706,0.09961639996618032,0.10091560008004308,0.7535594999790192
RSVPLG03,km,20251014-100432,1.0.1,20250923-093501,701,Experiment,Both,1,Automatic,main,79,20251014-101130,global,global,750,S,H,E,E,S-E.png,H-E.png,sS,hH,mask-4.png,mask-1.png,s,1,0.6038325999397784,h,1,0.12453030003234744,0.049841499887406826,0.05114930006675422,0.10082160006277263,0.09975649998523295,0.7555205998942256
RSVPLG03,km,20251014-100432,1.0.1,20250923-093501,701,Experiment,Both,1,Automatic,main,80,20251014-101135,local,global,750,H,S,A,E,A-H.png,S-E.png,hH,sS,mask-3.png,mask-2.png,h,1,1.1883795999456197,h,0,0.4661379000172019,0.05237479996867478,0.04990240000188351,0.10206950013525784,0.09975249995477498,0.7568074001464993
RSVPLG03,km,20251014-100432,1.0.1,20250923-093501,701,Experiment,Both,1,Automatic,main,81,20251014-101141,local,global,750,H,H,A,E,A-H.png,H-E.png,hH,hH,mask-1.png,mask-4.png,h,1,0.8179106998723,s,0,0.08005029987543821,0.04930820013396442,0.048945299815386534,0.10144670004956424,0.09879509988240898,0.7559842001646757
RSVPLG03,km,20251014-100432,1.0.1,20250923-093501,701,Experiment,Both,1,Automatic,main,82,20251014-101146,global,global,300,H,H,E,A,H-E.png,H-A.png,hH,hH,mask-2.png,mask-2.png,h,1,0.7206543998327106,h,1,0.09102339996024966,0.04830390005372465,0.05077410000376403,0.09920649998821318,0.10174429998733103,0.3005884001031518
RSVPLG03,km,20251014-100432,1.0.1,20250923-093501,701,Experiment,Both,1,Automatic,main,83,20251014-101150,global,local,300,S,S,A,E,S-A.png,E-S.png,sS,sS,mask-1.png,mask-4.png,s,1,1.6118504998739809,s,1,0.12923180009238422,0.04923929995857179,0.05097709991969168,0.09868109994567931,0.10092979995533824,0.3004681000020355
RSVPLG03,km,20251014-100432,1.0.1,20250923-093501,701,Experiment,Both,1,Automatic,main,84,20251014-101156,global,local,300,H,S,E,A,H-E.png,A-S.png,hH,sS,mask-4.png,mask-2.png,h,1,1.265637299977243,h,0,0.25949599989689887,0.04934479994699359,0.05078599997796118,0.10039809998124838,0.10140600008890033,0.2999523999169469
RSVPLG03,km,20251014-100432,1.0.1,20250923-093501,701,Experiment,Both,1,Automatic,main,85,20251014-101201,local,global,750,H,S,E,E,E-H.png,S-E.png,hH,sS,mask-3.png,mask-1.png,h,1,0.8677441999316216,s,1,0.09304130007512867,0.050099699990823865,0.05266319983638823,0.10042520007118583,0.10299449996091425,0.7543193001765758
RSVPLG03,km,20251014-100432,1.0.1,20250923-093501,701,Experiment,Both,1,Automatic,main,86,20251014-101206,local,local,300,H,S,A,E,A-H.png,E-S.png,hH,sS,mask-2.png,mask-2.png,h,1,0.42015719995833933,s,1,0.05012080003507435,0.050808200147002935,0.05000720010139048,0.10133440000936389,0.1003093000035733,0.3027902999892831
RSVPLG03,km,20251014-100432,1.0.1,20250923-093501,701,Experiment,Both,1,Automatic,main,87,20251014-101210,local,global,300,H,H,A,E,A-H.png,H-E.png,hH,hH,mask-4.png,mask-1.png,h,1,0.5228366998489946,h,1,0.1748816000763327,0.05158710014075041,0.05063640000298619,0.10046920017339289,0.10047080018557608,0.3031882999930531
RSVPLG03,km,20251014-100432,1.0.1,20250923-093501,701,Experiment,Both,1,Automatic,main,88,20251014-101214,global,global,300,S,S,E,E,S-E.png,S-E.png,sS,sS,mask-1.png,mask-2.png,s,1,0.411765499971807,s,1,0.16677549993619323,0.05223959987051785,0.049063999904319644,0.10222149989567697,0.10096940002404153,0.30281640007160604
RSVPLG03,km,20251014-100432,1.0.1,20250923-093501,701,Experiment,Both,1,Automatic,main,89,20251014-101219,local,local,750,H,S,E,E,E-H.png,E-S.png,hH,sS,mask-4.png,mask-3.png,h,1,1.1538346998859197,s,1,0.06127690011635423,0.04828580003231764,0.050224400125443935,0.09821400023065507,0.10085589997470379,0.754355400102213
RSVPLG03,km,20251014-100432,1.0.1,20250923-093501,701,Experiment,Both,1,Automatic,main,90,20251014-101224,local,global,300,S,S,A,E,A-S.png,S-E.png,sS,sS,mask-1.png,mask-4.png,h,0,0.4879250000230968,s,1,0.06554169999435544,0.050596300046890974,0.049370700027793646,0.10039840009994805,0.10146329994313419,0.30262470012530684
RSVPLG03,km,20251014-100432,1.0.1,20250923-093501,701,Experiment,Both,1,Automatic,main,91,20251014-101228,local,local,750,H,H,A,A,A-H.png,A-H.png,hH,hH,mask-1.png,mask-4.png,s,0,0.734864299884066,h,1,0.11410559993237257,0.0523868000600487,0.05075679998844862,0.10144890006631613,0.10009599989280105,0.7560878000222147
RSVPLG03,km,20251014-100432,1.0.1,20250923-093501,701,Experiment,Both,1,Automatic,main,92,20251014-101233,global,global,750,H,H,A,A,H-A.png,H-A.png,hH,hH,mask-3.png,mask-2.png,h,1,0.45618569990620017,h,1,0.1756461001932621,0.05229660007171333,0.047792699886485934,0.10237530013546348,0.09962739981710911,0.7583422001916915
RSVPLG03,km,20251014-100432,1.0.1,20250923-093501,701,Experiment,Both,1,Automatic,main,93,20251014-101238,local,local,750,H,S,E,E,E-H.png,E-S.png,hH,sS,mask-1.png,mask-3.png,s,0,0.31691220006905496,s,1,0.22651869989931583,0.05189830018207431,0.05189109989441931,0.10183840012177825,0.1001035999506712,0.7555303000845015
RSVPLG03,km,20251014-100432,1.0.1,20250923-093501,701,Experiment,Both,1,Automatic,main,94,20251014-101243,global,local,750,H,H,E,E,H-E.png,E-H.png,hH,hH,mask-2.png,mask-4.png,h,1,0.5303414000663906,h,1,0.15930420020595193,0.049299499951303005,0.04975400003604591,0.1001383000984788,0.10080880019813776,0.7548080999404192
RSVPLG03,km,20251014-100432,1.0.1,20250923-093501,701,Experiment,Both,1,Automatic,main,95,20251014-101248,local,local,300,S,H,A,E,A-S.png,E-H.png,sS,hH,mask-3.png,mask-3.png,s,1,1.1568453998770565,h,1,0.2898597000166774,0.050066799856722355,0.05155580001883209,0.1020841000135988,0.10275100008584559,0.30223209992982447
RSVPLG03,km,20251014-100432,1.0.1,20250923-093501,701,Experiment,Both,1,Automatic,main,96,20251014-101253,local,global,750,H,S,E,E,E-H.png,S-E.png,hH,sS,mask-3.png,mask-2.png,s,0,2.2477218999993056,h,0,0.26714609982445836,0.048809299943968654,0.04983359994366765,0.09821429988369346,0.10127309989184141,0.7539892999920994
RSVPLG03,km,20251014-100432,1.0.1,20250923-093501,701,Experiment,Both,1,Automatic,main,97,20251014-101259,global,global,300,S,H,E,E,S-E.png,H-E.png,sS,hH,mask-4.png,mask-2.png,s,1,0.4699019000399858,h,1,0.11437309999018908,0.05242959992028773,0.04979779990389943,0.10166259994730353,0.10208530002273619,0.30208449997007847
RSVPLG03,km,20251014-100432,1.0.1,20250923-093501,701,Experiment,Both,1,Automatic,main,98,20251014-101304,local,global,300,S,S,E,E,E-S.png,S-E.png,sS,sS,mask-3.png,mask-1.png,s,1,0.46954430011101067,h,0,0.01943730004131794,0.049262199783697724,0.04818019992671907,0.09875489980913699,0.09886620007455349,0.302667599869892
RSVPLG03,km,20251014-100432,1.0.1,20250923-093501,701,Experiment,Both,1,Automatic,main,99,20251014-101308,global,global,300,S,S,E,A,S-E.png,S-A.png,sS,sS,mask-3.png,mask-1.png,s,1,1.5026488001458347,h,0,0.11441160016693175,0.04923700005747378,0.05150959989987314,0.10018360009416938,0.10155249992385507,0.30227300012484193
RSVPLG03,km,20251014-100432,1.0.1,20250923-093501,701,Experiment,Both,1,Automatic,main,100,20251014-101313,local,local,300,H,H,A,A,A-H.png,A-H.png,hH,hH,mask-4.png,mask-2.png,h,1,0.38967219996266067,s,0,0.08124780002981424,0.04920920007862151,0.050857300171628594,0.10105199995450675,0.10029740002937615,0.30163539992645383
RSVPLG03,km,20251014-100432,1.0.1,20250923-093501,701,Experiment,Both,1,Automatic,main,101,20251014-101351,global,global,750,S,S,A,A,S-A.png,S-A.png,sS,sS,mask-1.png,mask-1.png,s,1,0.6009089001454413,s,1,0.1067084998358041,0.04935480002313852,0.05146329989656806,0.10040840017609298,0.09960429999046028,0.7540818001143634
RSVPLG03,km,20251014-100432,1.0.1,20250923-093501,701,Experiment,Both,1,Automatic,main,102,20251014-101356,local,local,300,H,H,E,E,E-H.png,E-H.png,hH,hH,mask-1.png,mask-3.png,h,1,1.2017117000650615,h,1,0.22436639992520213,0.05195680004544556,0.05112279998138547,0.10115669993683696,0.10192329995334148,0.30214440007694066
RSVPLG03,km,20251014-100432,1.0.1,20250923-093501,701,Experiment,Both,1,Automatic,main,103,20251014-101401,global,global,750,S,H,E,A,S-E.png,H-A.png,sS,hH,mask-4.png,mask-4.png,s,1,0.7062784000299871,h,1,0.20416030008345842,0.05094019998796284,0.04960449994541705,0.09973810007795691,0.10054000001400709,0.7552660000510514
RSVPLG03,km,20251014-100432,1.0.1,20250923-093501,701,Experiment,Both,1,Automatic,main,104,20251014-101406,local,global,750,H,H,A,E,A-H.png,H-E.png,hH,hH,mask-4.png,mask-1.png,s,0,0.8090679999440908,h,1,0.17071580002084374,0.05065610003657639,0.051127699902281165,0.10133800003677607,0.10187179991044104,0.7545460001565516
RSVPLG03,km,20251014-100432,1.0.1,20250923-093501,701,Experiment,Both,1,Automatic,main,105,20251014-101411,local,local,300,H,S,E,A,E-H.png,A-S.png,hH,sS,mask-2.png,mask-2.png,h,1,0.5293387998826802,s,1,0.1349267999175936,0.051578199956566095,0.048792599933221936,0.10236690007150173,0.10177029995247722,0.3019777999725193
RSVPLG03,km,20251014-100432,1.0.1,20250923-093501,701,Experiment,Both,1,Automatic,main,106,20251014-101415,local,global,300,H,S,A,A,A-H.png,S-A.png,hH,sS,mask-4.png,mask-1.png,h,1,0.4768759000580758,s,1,0.12662340002134442,0.05095209996215999,0.051030199974775314,0.10102829989045858,0.10218379995785654,0.3019999999087304
RSVPLG03,km,20251014-100432,1.0.1,20250923-093501,701,Experiment,Both,1,Automatic,main,107,20251014-101420,global,global,300,H,H,A,A,H-A.png,H-A.png,hH,hH,mask-1.png,mask-4.png,h,1,0.4927495000883937,s,0,0.1625618999823928,0.05153960012830794,0.049841800006106496,0.10084660002030432,0.0998507000040263,0.3040117002092302
RSVPLG03,km,20251014-100432,1.0.1,20250923-093501,701,Experiment,Both,1,Automatic,main,108,20251014-101424,global,local,750,S,S,E,A,S-E.png,A-S.png,sS,sS,mask-1.png,mask-1.png,s,1,0.4721588999964297,h,0,0.23719069990329444,0.05150159983895719,0.05083109997212887,0.1026908999774605,0.1020025999750942,0.755234899930656
RSVPLG03,km,20251014-100432,1.0.1,20250923-093501,701,Experiment,Both,1,Automatic,main,109,20251014-101429,global,local,300,H,H,E,A,H-E.png,A-H.png,hH,hH,mask-4.png,mask-4.png,h,1,0.9703695999924093,s,0,0.13071880000643432,0.048914399929344654,0.05006850021891296,0.10030619986355305,0.09978140005841851,0.3020388998556882
RSVPLG03,km,20251014-100432,1.0.1,20250923-093501,701,Experiment,Both,1,Automatic,main,110,20251014-101434,local,local,300,H,S,E,E,E-H.png,E-S.png,hH,sS,mask-2.png,mask-4.png,h,1,1.038921299856156,s,1,0.09865920012816787,0.05012999987229705,0.05000249994918704,0.10209449985995889,0.09978249995037913,0.3026079998817295
RSVPLG03,km,20251014-100432,1.0.1,20250923-093501,701,Experiment,Both,1,Automatic,main,111,20251014-101438,global,global,750,S,H,A,E,S-A.png,H-E.png,sS,hH,mask-2.png,mask-2.png,s,1,0.5309913998935372,h,1,0.16143999993801117,0.05033740005455911,0.05109569989144802,0.10050650010816753,0.1009406999219209,0.7539890001062304
RSVPLG03,km,20251014-100432,1.0.1,20250923-093501,701,Experiment,Both,1,Automatic,main,112,20251014-101443,local,global,300,S,H,A,E,A-S.png,H-E.png,sS,hH,mask-2.png,mask-3.png,h,0,1.0806336000096053,h,1,0.126565600046888,0.04916829988360405,0.050453800009563565,0.09879299998283386,0.10049270000308752,0.3009589998982847
RSVPLG03,km,20251014-100432,1.0.1,20250923-093501,701,Experiment,Both,1,Automatic,main,113,20251014-101448,global,global,300,H,H,A,A,H-A.png,H-A.png,hH,hH,mask-2.png,mask-4.png,h,1,1.3014809999149293,s,0,0.10998619999736547,0.04985859990119934,0.05006879987195134,0.1008827998302877,0.09983349987305701,0.3028279999271035
RSVPLG03,km,20251014-100432,1.0.1,20250923-093501,701,Experiment,Both,1,Automatic,main,114,20251014-101453,local,local,300,S,H,A,A,A-S.png,A-H.png,sS,hH,mask-1.png,mask-1.png,s,1,0.6249563000164926,h,1,0.33613579999655485,0.051784400129690766,0.051072000060230494,0.10124520002864301,0.1009402999188751,0.3016755001153797
RSVPLG03,km,20251014-100432,1.0.1,20250923-093501,701,Experiment,Both,1,Automatic,main,115,20251014-101458,local,global,300,S,S,E,A,E-S.png,S-A.png,sS,sS,mask-1.png,mask-4.png,h,0,0.5527702998369932,s,1,0.08288990007713437,0.05129169998690486,0.051106000086292624,0.10184759995900095,0.10140900011174381,0.3026208998635411
RSVPLG03,km,20251014-100432,1.0.1,20250923-093501,701,Experiment,Both,1,Automatic,main,116,20251014-101502,global,global,300,H,H,E,A,H-E.png,H-A.png,hH,hH,mask-3.png,mask-3.png,h,1,0.5272996001876891,s,0,0.08196149999275804,0.05006380006670952,0.0511956000700593,0.09998240019194782,0.1012091999873519,0.300798200070858
RSVPLG03,km,20251014-100432,1.0.1,20250923-093501,701,Experiment,Both,1,Automatic,main,117,20251014-101507,global,global,750,H,S,E,A,H-E.png,S-A.png,hH,sS,mask-1.png,mask-3.png,h,1,0.3428497000131756,s,1,0.07559720007702708,0.04974250006489456,0.05046540009789169,0.10180440009571612,0.10186029993928969,0.7540802999865264
RSVPLG03,km,20251014-100432,1.0.1,20250923-093501,701,Experiment,Both,1,Automatic,main,118,20251014-101511,local,global,300,H,H,E,E,E-H.png,H-E.png,hH,hH,mask-1.png,mask-4.png,s,0,0.5666988999582827,h,1,0.11501759989187121,0.052068599965423346,0.04949470004066825,0.10194359999150038,0.1000883998349309,0.30343440012075007
RSVPLG03,km,20251014-100432,1.0.1,20250923-093501,701,Experiment,Both,1,Automatic,main,119,20251014-101516,local,global,750,H,S,E,E,E-H.png,S-E.png,hH,sS,mask-1.png,mask-3.png,h,1,1.0218837999273092,s,1,0.04935400001704693,0.05183689994737506,0.052488300018012524,0.10072809993289411,0.10212349984794855,0.7549990999978036
RSVPLG03,km,20251014-100432,1.0.1,20250923-093501,701,Experiment,Both,1,Automatic,main,120,20251014-101521,global,local,300,S,S,A,E,S-A.png,E-S.png,sS,sS,mask-3.png,mask-2.png,s,1,0.3387585999444127,s,1,0.15418720012530684,0.0516788000240922,0.04989739996381104,0.10019039991311729,0.09992519998922944,0.301766199991107
RSVPLG03,km,20251014-100432,1.0.1,20250923-093501,701,Experiment,Both,1,Automatic,main,121,20251014-101525,local,global,750,H,H,E,E,E-H.png,H-E.png,hH,hH,mask-1.png,mask-1.png,h,1,0.5655918999109417,h,1,0.17071520001627505,0.049354600021615624,0.04983350005932152,0.10007249983027577,0.10248830006457865,0.753560199867934
RSVPLG03,km,20251014-100432,1.0.1,20250923-093501,701,Experiment,Both,1,Automatic,main,122,20251014-101530,global,local,750,H,H,E,A,H-E.png,A-H.png,hH,hH,mask-4.png,mask-3.png,h,1,1.2967257001437247,h,1,0.14493519999086857,0.05055089993402362,0.050657200161367655,0.10061259986832738,0.10073060006834567,0.7554934998042881
RSVPLG03,km,20251014-100432,1.0.1,20250923-093501,701,Experiment,Both,1,Automatic,main,123,20251014-101536,global,local,300,S,H,E,A,S-E.png,A-H.png,sS,hH,mask-2.png,mask-3.png,s,1,0.34671009983867407,h,1,0.097390899900347,0.04936409997753799,0.049814799800515175,0.09887699992395937,0.09895539982244372,0.3020925000309944
