exp,exp_initials,runtime,ver,modtime,sub,blocktype,targets,cuetype,mode,trialtype,trial,trialtime,t1_level,t2_level,t2_lag,t1,t2,distractor1,distractor2,stimfile1,stimfile2,t1_corr,t2_corr,maskfile1,maskfile2,t1_resp,t1_acc,t1_rt,t2_resp,t2_acc,t2_rt,t1_dur,t2_dur,t1mask_soa,t2mask_soa,t1t2_soa
RSVPLG03,,20251028-100810,1.0.1,20251020-085245,719,Introduction,T1,1,Automatic,main,1,20251028-110038,global,global,750,H,S,E,A,H-E.png,S-A.png,hH,sS,mask-2.png,mask-3.png,h,1,2.686245599994436,none,-5,0,0.09354359994176775,0.09697269997559488,0.1954498999984935,0.1999301000032574,0.7458315000403672
RSVPLG03,,20251028-100810,1.0.1,20251020-085245,719,Introduction,T1,1,Automatic,main,2,20251028-110045,global,global,750,H,S,E,E,H-E.png,S-E.png,hH,sS,mask-2.png,mask-4.png,h,1,2.4641371000325307,none,-5,0,0.09746239997912198,0.09755170007701963,0.19952749996446073,0.19968790002167225,0.7499483999563381
RSVPLG03,,20251028-100810,1.0.1,20251020-085245,719,Introduction,T1,1,Automatic,main,3,20251028-110052,local,global,750,S,S,A,A,A-S.png,S-A.png,sS,sS,mask-4.png,mask-1.png,s,1,2.094224200001918,none,-5,0,0.09767719998490065,0.09860070003196597,0.19798459997400641,0.2007236999925226,0.7490830000024289
RSVPLG03,,20251028-100810,1.0.1,20251020-085245,719,Introduction,T1,1,Automatic,main,4,20251028-110058,local,local,750,H,S,A,A,A-H.png,A-S.png,hH,sS,mask-2.png,mask-3.png,h,1,1.011461399961263,none,-5,0,0.09730170003604144,0.09768920007627457,0.20038519997615367,0.20075780001934618,0.7495098999934271
RSVPLG03,,20251028-100810,1.0.1,20251020-085245,719,Introduction,T1,1,Automatic,main,5,20251028-110103,global,local,750,S,S,E,E,S-E.png,E-S.png,sS,sS,mask-4.png,mask-3.png,s,1,1.105296100024134,none,-5,0,0.09657089994288981,0.09751340001821518,0.19965239998418838,0.20138870005030185,0.7493161999154836
RSVPLG03,,20251028-100810,1.0.1,20251020-085245,719,Introduction,T1,1,Automatic,main,6,20251028-110108,global,local,750,S,H,E,E,S-E.png,E-H.png,sS,hH,mask-2.png,mask-1.png,s,1,0.7506719999946654,none,-5,0,0.09855770005378872,0.09757919993717223,0.2005076000932604,0.19966149993706495,0.7518590000690892
RSVPLG03,,20251028-100810,1.0.1,20251020-085245,719,Introduction,T1,1,Automatic,main,7,20251028-110113,local,global,750,H,S,E,A,E-H.png,S-A.png,hH,sS,mask-1.png,mask-2.png,h,1,0.5833581999177113,none,-5,0,0.09756480006035417,0.09649150003679097,0.20150990004185587,0.2003442000132054,0.7515133999986574
RSVPLG03,,20251028-100810,1.0.1,20251020-085245,719,Introduction,T1,1,Automatic,main,8,20251028-110118,global,global,750,S,H,E,E,S-E.png,H-E.png,sS,hH,mask-2.png,mask-1.png,s,1,1.492628899984993,none,-5,0,0.09730679995846003,0.09736810007598251,0.1999971999321133,0.2002285000635311,0.7511874999618158
RSVPLG03,,20251028-100810,1.0.1,20251020-085245,719,Introduction,T1,1,Automatic,main,9,20251028-110124,global,local,750,H,H,A,A,H-A.png,A-H.png,hH,hH,mask-2.png,mask-2.png,h,1,0.9152775999391451,none,-5,0,0.09724139992613345,0.09755669999867678,0.19997309998143464,0.1992850999813527,0.7509573999559507
RSVPLG03,,20251028-100810,1.0.1,20251020-085245,719,Introduction,T1,1,Automatic,main,10,20251028-110129,local,global,750,H,H,E,E,E-H.png,H-E.png,hH,hH,mask-2.png,mask-1.png,h,1,0.8729717000387609,none,-5,0,0.09675169992260635,0.09754560003057122,0.19988469989039004,0.20058940001763403,0.7499953999649733
RSVPLG03,,20251028-100810,1.0.1,20251020-085245,719,Introduction,T1,1,Automatic,main,11,20251028-110134,local,global,750,S,H,A,E,A-S.png,H-E.png,sS,hH,mask-2.png,mask-1.png,s,1,0.7975182000081986,none,-5,0,0.09744559996761382,0.09736510005313903,0.2002768999664113,0.2002152999630198,0.7509315999923274
RSVPLG03,,20251028-100810,1.0.1,20251020-085245,719,Introduction,T1,1,Automatic,main,12,20251028-110139,local,local,750,S,S,A,E,A-S.png,E-S.png,sS,sS,mask-2.png,mask-3.png,s,1,0.4850037000142038,none,-5,0,0.0974398999242112,0.09936830005608499,0.1999422999797389,0.2002462000818923,0.7501257999101654
RSVPLG03,,20251028-100810,1.0.1,20251020-085245,719,Introduction,T1,1,Automatic,main,13,20251028-110144,local,local,750,S,H,E,E,E-S.png,E-H.png,sS,hH,mask-2.png,mask-2.png,s,1,0.6619248000206426,none,-5,0,0.0973981999559328,0.0962767000310123,0.20029819989576936,0.20026379998307675,0.7507682999130338
RSVPLG03,,20251028-100810,1.0.1,20251020-085245,719,Introduction,T1,1,Automatic,main,14,20251028-110148,global,global,750,S,S,A,E,S-A.png,S-E.png,sS,sS,mask-4.png,mask-4.png,s,1,0.8679165999637917,none,-5,0,0.09739740006625652,0.09736430004704744,0.2002722000470385,0.2002315999707207,0.7504308000206947
RSVPLG03,,20251028-100810,1.0.1,20251020-085245,719,Introduction,T1,1,Automatic,main,15,20251028-110153,local,local,750,S,H,E,E,E-S.png,E-H.png,sS,hH,mask-1.png,mask-2.png,s,1,0.4526808001101017,none,-5,0,0.09744529996532947,0.09749950002878904,0.20138789992779493,0.20044250006321818,0.7514881999231875
RSVPLG03,,20251028-100810,1.0.1,20251020-085245,719,Introduction,T1,1,Automatic,main,16,20251028-110158,global,local,750,H,S,E,E,H-E.png,E-S.png,hH,sS,mask-4.png,mask-4.png,h,1,0.7974849999882281,none,-5,0,0.09725789993535727,0.0973985999589786,0.2000866000307724,0.19929150003008544,0.7507593999616802
RSVPLG03,,20251028-110315,1.0.1,20251020-085245,719,Practice,T1,1,Automatic,main,1,20251028-110328,global,global,750,H,H,A,E,H-A.png,H-E.png,hH,hH,mask-3.png,mask-3.png,h,1,1.4693976000417024,none,-5,0,0.04078480007592589,0.04765139997471124,0.09346980007831007,0.09985830006189644,0.7453409000299871
RSVPLG03,,20251028-110315,1.0.1,20251020-085245,719,Practice,T1,1,Automatic,main,2,20251028-110334,local,local,750,H,H,A,E,A-H.png,E-H.png,hH,hH,mask-2.png,mask-3.png,h,1,0.544980000006035,none,-5,0,0.04771469999104738,0.047520100022666156,0.0999360999558121,0.0996012999676168,0.7518229000270367
RSVPLG03,,20251028-110315,1.0.1,20251020-085245,719,Practice,T1,1,Automatic,main,3,20251028-110339,local,local,750,S,H,A,A,A-S.png,A-H.png,sS,hH,mask-1.png,mask-4.png,s,1,1.1796410999959335,none,-5,0,0.047468399978242815,0.04605560004711151,0.09965870005544275,0.0993286999873817,0.7520916999783367
RSVPLG03,,20251028-110315,1.0.1,20251020-085245,719,Practice,T1,1,Automatic,main,4,20251028-110344,local,global,750,S,S,A,E,A-S.png,S-E.png,sS,sS,mask-1.png,mask-2.png,s,1,0.5548739000223577,none,-5,0,0.04668649996165186,0.04769260005559772,0.0982293999986723,0.1008819000562653,0.7494355000089854
RSVPLG03,,20251028-110315,1.0.1,20251020-085245,719,Practice,T1,1,Automatic,main,5,20251028-110348,local,global,750,S,S,A,E,A-S.png,S-E.png,sS,sS,mask-2.png,mask-1.png,s,1,0.38870700006373227,none,-5,0,0.04750970005989075,0.04769979999400675,0.09969490009825677,0.09974890004377812,0.7496869000606239
RSVPLG03,,20251028-110315,1.0.1,20251020-085245,719,Practice,T1,1,Automatic,main,6,20251028-110353,global,global,300,S,H,A,E,S-A.png,H-E.png,sS,hH,mask-4.png,mask-3.png,s,1,0.4329452000092715,none,-5,0,0.04680670006200671,0.047500899992883205,0.10047360009048134,0.0995104000903666,0.3007897000061348
RSVPLG03,,20251028-110315,1.0.1,20251020-085245,719,Practice,T1,1,Automatic,main,7,20251028-110357,global,global,750,S,S,A,A,S-A.png,S-A.png,sS,sS,mask-4.png,mask-3.png,s,1,0.49866719997953624,none,-5,0,0.04769140004646033,0.04769869998563081,0.09987360006198287,0.10088140005245805,0.7496045000152662
RSVPLG03,,20251028-110315,1.0.1,20251020-085245,719,Practice,T1,1,Automatic,main,8,20251028-110401,local,global,300,H,H,A,E,A-H.png,H-E.png,hH,hH,mask-4.png,mask-4.png,h,1,1.0854752999730408,none,-5,0,0.0466806999174878,0.04841869999654591,0.09989640000276268,0.1010787000413984,0.2992169999051839
RSVPLG03,,20251028-110315,1.0.1,20251020-085245,719,Practice,T1,1,Automatic,main,9,20251028-110406,local,local,300,H,S,E,E,E-H.png,E-S.png,hH,sS,mask-4.png,mask-3.png,h,1,0.926917300093919,none,-5,0,0.047493800055235624,0.047678699949756265,0.10065290005877614,0.09997970005497336,0.3011737000197172
RSVPLG03,,20251028-110315,1.0.1,20251020-085245,719,Practice,T1,1,Automatic,main,10,20251028-110411,global,local,750,S,H,A,A,S-A.png,A-H.png,sS,hH,mask-2.png,mask-4.png,s,1,0.5347303000744432,none,-5,0,0.046478900010697544,0.047689400031231344,0.0992666999809444,0.09985950007103384,0.7498383999336511
RSVPLG03,,20251028-110315,1.0.1,20251020-085245,719,Practice,T1,1,Automatic,main,11,20251028-110415,local,local,300,H,S,A,A,A-H.png,A-S.png,hH,sS,mask-1.png,mask-3.png,h,1,0.6866933000274003,none,-5,0,0.048702500062063336,0.0457153000170365,0.10097819997463375,0.10000129998661578,0.30166890006512403
RSVPLG03,,20251028-110315,1.0.1,20251020-085245,719,Practice,T1,1,Automatic,main,12,20251028-110420,global,local,750,H,H,A,E,H-A.png,E-H.png,hH,hH,mask-1.png,mask-2.png,h,1,0.880181199987419,none,-5,0,0.047690700041130185,0.04765969992149621,0.09976280003320426,0.10105800000019372,0.7495312000392005
RSVPLG03,,20251028-110315,1.0.1,20251020-085245,719,Practice,T1,1,Automatic,main,13,20251028-110424,local,global,300,S,S,E,A,E-S.png,S-A.png,sS,sS,mask-2.png,mask-4.png,s,1,0.7242251000134274,none,-5,0,0.04768570000305772,0.04766659997403622,0.09985679993405938,0.09984779998194426,0.301417600014247
RSVPLG03,,20251028-110315,1.0.1,20251020-085245,719,Practice,T1,1,Automatic,main,14,20251028-110429,global,local,300,S,H,A,A,S-A.png,A-H.png,sS,hH,mask-3.png,mask-2.png,s,1,0.6308030999498442,none,-5,0,0.047658300027251244,0.046659399988129735,0.09986219997517765,0.09987040003761649,0.3004627999616787
RSVPLG03,,20251028-110315,1.0.1,20251020-085245,719,Practice,T1,1,Automatic,main,15,20251028-110433,global,global,300,H,H,A,E,H-A.png,H-E.png,hH,hH,mask-3.png,mask-3.png,h,1,0.6061019999906421,none,-5,0,0.048755900003015995,0.04766000004019588,0.10092060000170022,0.09980129997711629,0.3011434000218287
RSVPLG03,,20251028-110315,1.0.1,20251020-085245,719,Practice,T1,1,Automatic,main,16,20251028-110437,global,local,300,S,S,E,A,S-E.png,A-S.png,sS,sS,mask-1.png,mask-1.png,s,1,1.34387749992311,none,-5,0,0.047727399971336126,0.04768269998021424,0.0998842999106273,0.10188199998810887,0.2997654000064358
RSVPLG03,md,20251028-110606,1.0.1,20251020-085245,719,Practice,Both,1,Automatic,main,1,20251028-110624,local,global,300,H,S,E,A,E-H.png,S-A.png,hH,sS,mask-4.png,mask-4.png,s,0,1.284159200033173,s,1,0.9496800999622792,0.03999630000907928,0.046419400023296475,0.09318379999604076,0.0993406999623403,0.2933403999777511
RSVPLG03,md,20251028-110606,1.0.1,20251020-085245,719,Practice,Both,1,Automatic,main,2,20251028-110630,local,local,750,H,S,E,E,E-H.png,E-S.png,hH,sS,mask-2.png,mask-1.png,s,0,1.3492810999741778,h,0,0.35397119994740933,0.04652249999344349,0.04776980006136,0.10012879990972579,0.1002550000557676,0.7483818999025971
RSVPLG03,md,20251028-110606,1.0.1,20251020-085245,719,Practice,Both,1,Automatic,main,3,20251028-110636,global,global,750,H,H,E,A,H-E.png,H-A.png,hH,hH,mask-2.png,mask-3.png,h,1,1.6995661000255495,s,0,0.3453771999338642,0.0475946000078693,0.04774670000188053,0.09969619999174029,0.0987292000791058,0.74936879996676
RSVPLG03,md,20251028-110606,1.0.1,20251020-085245,719,Practice,Both,1,Automatic,main,4,20251028-110643,local,local,750,H,S,E,E,E-H.png,E-S.png,hH,sS,mask-3.png,mask-4.png,h,1,1.457928599906154,h,0,0.21797789994161576,0.04771179996896535,0.046949699986726046,0.09992180007975549,0.09823330002836883,0.7499248000094667
RSVPLG03,md,20251028-110606,1.0.1,20251020-085245,719,Practice,Both,1,Automatic,main,5,20251028-110648,global,local,750,S,H,A,A,S-A.png,A-H.png,sS,hH,mask-4.png,mask-4.png,s,1,2.044037300045602,h,1,0.3138890000991523,0.04769270005635917,0.047705600038170815,0.09966040006838739,0.09901980007998645,0.7496486000018194
RSVPLG03,md,20251028-110606,1.0.1,20251020-085245,719,Practice,Both,1,Automatic,main,6,20251028-110655,global,local,300,H,S,A,A,H-A.png,A-S.png,hH,sS,mask-2.png,mask-3.png,h,1,0.9265698000090197,h,0,0.13449159997981042,0.04647339996881783,0.04761730006430298,0.09956929995678365,0.09982430003583431,0.29914709995500743
RSVPLG03,md,20251028-110606,1.0.1,20251020-085245,719,Practice,Both,1,Automatic,main,7,20251028-110700,local,global,750,S,S,E,A,E-S.png,S-A.png,sS,sS,mask-1.png,mask-3.png,s,1,0.8700282999780029,s,1,0.15440590004436672,0.046857999986968935,0.04750909993890673,0.10175599996000528,0.09953209990635514,0.7503999000182375
RSVPLG03,md,20251028-110606,1.0.1,20251020-085245,719,Practice,Both,1,Automatic,main,8,20251028-110705,global,global,750,H,H,A,A,H-A.png,H-A.png,hH,hH,mask-2.png,mask-2.png,h,1,0.6156872999854386,h,1,0.15106569998897612,0.04742610000539571,0.04734259995166212,0.10025560006033629,0.09845209994819015,0.7500972000416368
RSVPLG03,md,20251028-110606,1.0.1,20251020-085245,719,Practice,Both,1,Automatic,main,9,20251028-110710,local,global,750,S,H,E,E,E-S.png,H-E.png,sS,hH,mask-2.png,mask-2.png,s,1,1.7005953999469057,h,1,0.35852190002333373,0.04729979997500777,0.046722899889573455,0.09918220003601164,0.09894529997836798,0.7497793000657111
RSVPLG03,md,20251028-110606,1.0.1,20251020-085245,719,Practice,Both,1,Automatic,main,10,20251028-110716,global,global,300,H,H,E,A,H-E.png,H-A.png,hH,hH,mask-1.png,mask-2.png,s,0,1.0097337999613956,h,1,1.1220986999105662,0.04809409996960312,0.04868829995393753,0.10090019996277988,0.10086150001734495,0.2996852999785915
RSVPLG03,md,20251028-110606,1.0.1,20251020-085245,719,Practice,Both,1,Automatic,main,11,20251028-110721,global,global,300,H,S,A,A,H-A.png,S-A.png,hH,sS,mask-1.png,mask-4.png,h,1,1.038478499976918,s,1,0.4584242000710219,0.04660140001215041,0.045719999936409295,0.0996037001023069,0.09985220001544803,0.3001693000551313
RSVPLG03,md,20251028-110606,1.0.1,20251020-085245,719,Practice,Both,1,Automatic,main,12,20251028-110726,global,local,750,H,H,A,E,H-A.png,E-H.png,hH,hH,mask-3.png,mask-2.png,h,1,1.28123790002428,s,0,0.35119870002381504,0.047687700018286705,0.04681979992892593,0.09924620005767792,0.09841710003092885,0.7489663000451401
RSVPLG03,md,20251028-110606,1.0.1,20251020-085245,719,Practice,Both,1,Automatic,main,13,20251028-110732,global,local,300,S,H,A,A,S-A.png,A-H.png,sS,hH,mask-3.png,mask-2.png,s,1,0.9308739000698552,h,1,0.31026810000184923,0.04757079994305968,0.04757000005338341,0.09854149993043393,0.09855960006825626,0.29982099996414036
RSVPLG03,md,20251028-110606,1.0.1,20251020-085245,719,Practice,Both,1,Automatic,main,14,20251028-110736,local,local,300,S,H,A,E,A-S.png,E-H.png,sS,hH,mask-1.png,mask-1.png,s,1,0.8902461000252515,h,1,0.2261597999604419,0.04655209998600185,0.046496399911120534,0.10066270001698285,0.09858029999304563,0.2999251000583172
RSVPLG03,md,20251028-110606,1.0.1,20251020-085245,719,Practice,Both,1,Automatic,main,15,20251028-110741,local,global,300,S,S,A,A,A-S.png,S-A.png,sS,sS,mask-2.png,mask-3.png,s,1,1.812126100063324,h,0,0.18878089997451752,0.04673729999922216,0.04774800001177937,0.09877360006794333,0.10101420001592487,0.29834420001134276
RSVPLG03,md,20251028-110606,1.0.1,20251020-085245,719,Practice,Both,1,Automatic,main,16,20251028-110747,local,local,300,S,S,A,A,A-S.png,A-S.png,sS,sS,mask-1.png,mask-4.png,s,1,0.8843795000575483,s,1,0.2517292998963967,0.04867789999116212,0.04653139994479716,0.10159860004205257,0.10071499994955957,0.30080030008684844
RSVPLG03,md,20251028-110822,1.0.1,20251020-085245,719,Practice,Both,1,Automatic,main,1,20251028-110838,global,local,300,S,S,E,A,S-E.png,A-S.png,sS,sS,mask-1.png,mask-1.png,s,1,1.6947490000166,h,0,0.04968729999382049,0.04395939991809428,0.047046100022271276,0.09802439995110035,0.10025669995229691,0.2969647999852896
RSVPLG03,md,20251028-110822,1.0.1,20251020-085245,719,Practice,Both,1,Automatic,main,2,20251028-110844,local,global,300,H,H,E,E,E-H.png,H-E.png,hH,hH,mask-2.png,mask-3.png,s,0,0.8733204000163823,h,1,0.07076930010225624,0.04633509996347129,0.04839989996980876,0.10029450000729412,0.10123799997381866,0.29857410001568496
RSVPLG03,md,20251028-110822,1.0.1,20251020-085245,719,Practice,Both,1,Automatic,main,3,20251028-110848,local,local,300,H,S,A,A,A-H.png,A-S.png,hH,sS,mask-2.png,mask-1.png,h,1,1.0067331000464037,s,1,0.08710720005910844,0.04779069998767227,0.046700399951078,0.1000983000267297,0.1003316999413073,0.300853900029324
RSVPLG03,md,20251028-110822,1.0.1,20251020-085245,719,Practice,Both,1,Automatic,main,4,20251028-110853,global,local,750,S,S,A,A,S-A.png,A-S.png,sS,sS,mask-4.png,mask-1.png,s,1,1.258038999978453,h,0,0.15160810004454106,0.047684499993920326,0.04860680003184825,0.09958110004663467,0.10158410004805773,0.7487886999733746
RSVPLG03,md,20251028-110822,1.0.1,20251020-085245,719,Practice,Both,1,Automatic,main,5,20251028-110859,local,local,300,S,S,A,E,A-S.png,E-S.png,sS,sS,mask-2.png,mask-2.png,s,1,0.8584605000214651,s,1,0.12000789993908256,0.04670020006597042,0.04768069996498525,0.10016809997614473,0.09989109996240586,0.3002298000501469
RSVPLG03,md,20251028-110822,1.0.1,20251020-085245,719,Practice,Both,1,Automatic,main,6,20251028-110904,global,local,750,H,S,E,E,H-E.png,E-S.png,hH,sS,mask-1.png,mask-4.png,h,1,1.0833604999352247,s,1,0.17580670001916587,0.04571520001627505,0.045697699999436736,0.09985910006798804,0.09977819991763681,0.7497487000655383
RSVPLG03,md,20251028-110822,1.0.1,20251020-085245,719,Practice,Both,1,Automatic,main,7,20251028-110909,local,global,750,H,H,A,A,A-H.png,H-A.png,hH,hH,mask-2.png,mask-4.png,h,1,1.5904900999739766,s,0,0.261004599975422,0.04873410006985068,0.04571610002312809,0.09984679997432977,0.09971540002152324,0.7515408999752253
RSVPLG03,md,20251028-110822,1.0.1,20251020-085245,719,Practice,Both,1,Automatic,main,8,20251028-110915,global,global,300,H,S,A,E,H-A.png,S-E.png,hH,sS,mask-2.png,mask-3.png,h,1,0.8320573000237346,s,1,0.14864060003310442,0.04661369998939335,0.046619299915619195,0.09967649995815009,0.09952089993748814,0.2999287999700755
RSVPLG03,md,20251028-110822,1.0.1,20251020-085245,719,Practice,Both,1,Automatic,main,9,20251028-110920,local,local,750,H,H,E,A,E-H.png,A-H.png,hH,hH,mask-1.png,mask-3.png,s,0,2.466423200094141,h,1,0.08451229997444898,0.048711299896240234,0.04667189996689558,0.09977519989479333,0.09988029999658465,0.7511602999875322
RSVPLG03,md,20251028-110822,1.0.1,20251020-085245,719,Practice,Both,1,Automatic,main,10,20251028-110926,local,local,750,S,H,E,A,E-S.png,A-H.png,sS,hH,mask-1.png,mask-2.png,s,1,1.0716087999753654,h,1,0.13797359995078295,0.04771260009147227,0.0476695999968797,0.10090890002902597,0.09987809997983277,0.74979270005133
RSVPLG03,md,20251028-110822,1.0.1,20251020-085245,719,Practice,Both,1,Automatic,main,11,20251028-110932,local,global,750,S,H,E,E,E-S.png,H-E.png,sS,hH,mask-3.png,mask-2.png,s,1,2.127241100068204,s,0,0.18782270001247525,0.04556390002835542,0.04635610000696033,0.09857120004016906,0.09753879997879267,0.749529300024733
RSVPLG03,md,20251028-110822,1.0.1,20251020-085245,719,Practice,Both,1,Automatic,main,12,20251028-110938,global,local,300,S,H,A,E,S-A.png,E-H.png,sS,hH,mask-4.png,mask-1.png,s,1,1.2027618999127299,h,1,0.46916129998862743,0.04755449993535876,0.04756469989661127,0.10058009997010231,0.10174809989985079,0.29981590004172176
RSVPLG03,md,20251028-110822,1.0.1,20251020-085245,719,Practice,Both,1,Automatic,main,13,20251028-110944,global,global,300,S,S,A,A,S-A.png,S-A.png,sS,sS,mask-2.png,mask-2.png,s,1,1.4348395999986678,s,1,0.25841650005895644,0.047558599966578186,0.04861589998472482,0.09960059996228665,0.10056069993879646,0.29923210002016276
RSVPLG03,md,20251028-110822,1.0.1,20251020-085245,719,Practice,Both,1,Automatic,main,14,20251028-110949,global,global,750,H,H,E,A,H-E.png,H-A.png,hH,hH,mask-3.png,mask-4.png,h,1,0.8285282000433654,h,1,0.15684149996377528,0.04746130004059523,0.04851899994537234,0.09877039992716163,0.10053289995994419,0.7482285000151023
RSVPLG03,md,20251028-110822,1.0.1,20251020-085245,719,Practice,Both,1,Automatic,main,15,20251028-110954,local,global,300,H,H,E,A,E-H.png,H-A.png,hH,hH,mask-3.png,mask-1.png,h,1,1.5668453000253066,s,0,0.1184482000535354,0.04754610010422766,0.04754870000761002,0.09963010007049888,0.10007070004940033,0.30004520004149526
RSVPLG03,md,20251028-110822,1.0.1,20251020-085245,719,Practice,Both,1,Automatic,main,16,20251028-111000,global,global,750,S,S,E,A,S-E.png,S-A.png,sS,sS,mask-3.png,mask-1.png,s,1,1.0852331999922171,h,0,0.1880034999921918,0.048419600003398955,0.04664789990056306,0.10064600000623614,0.09846939996350557,0.750655300100334
RSVPLG03,,20251028-111016,1.0.1,20251020-085245,719,Practice,Both,1,Automatic,main,1,20251028-111032,local,local,750,S,H,A,A,A-S.png,A-H.png,sS,hH,mask-3.png,mask-3.png,s,1,1.0913363000145182,h,1,0.15308269998058677,0.04041220003273338,0.0477124999742955,0.09305160003714263,0.099097799975425,0.7448363000294194
RSVPLG03,,20251028-111016,1.0.1,20251020-085245,719,Practice,Both,1,Automatic,main,2,20251028-111038,local,global,300,S,S,A,A,A-S.png,S-A.png,sS,sS,mask-3.png,mask-2.png,s,1,1.5165122000034899,h,0,0.1131780999712646,0.04769140004646033,0.04767240001820028,0.0998931999783963,0.09950460004620254,0.30073759995866567
RSVPLG03,,20251028-111016,1.0.1,20251020-085245,719,Practice,Both,1,Automatic,main,3,20251028-111043,global,local,750,H,S,A,E,H-A.png,E-S.png,hH,sS,mask-2.png,mask-1.png,h,1,1.0922818999970332,s,1,0.16991449997294694,0.0472364000743255,0.04773610003758222,0.10040420002769679,0.09982050000689924,0.7519871999975294
RSVPLG03,,20251028-111016,1.0.1,20251020-085245,719,Practice,Both,1,Automatic,main,4,20251028-111049,local,local,750,S,H,E,A,E-S.png,A-H.png,sS,hH,mask-3.png,mask-4.png,s,1,0.9938808999722824,h,1,0.10057589993812144,0.04764730005990714,0.04669549991376698,0.09979620005469769,0.09987279993947595,0.75276250008028
RSVPLG03,,20251028-111016,1.0.1,20251020-085245,719,Practice,Both,1,Automatic,main,5,20251028-111054,local,global,750,S,S,E,E,E-S.png,S-E.png,sS,sS,mask-4.png,mask-4.png,s,1,1.9518752999138087,s,1,0.12188840005546808,0.04769800009671599,0.04850879998411983,0.09975950000807643,0.09947460005059838,0.751918200054206
RSVPLG03,,20251028-111016,1.0.1,20251020-085245,719,Practice,Both,1,Automatic,main,6,20251028-111100,global,global,300,S,H,E,A,S-E.png,H-A.png,sS,hH,mask-1.png,mask-1.png,s,1,1.8464273000136018,h,1,0.05513819993939251,0.04666790005285293,0.04667169996537268,0.09985330002382398,0.0988567000022158,0.3003055000444874
RSVPLG03,,20251028-111016,1.0.1,20251020-085245,719,Practice,Both,1,Automatic,main,7,20251028-111106,global,global,300,H,H,E,A,H-E.png,H-A.png,hH,hH,mask-2.png,mask-3.png,h,1,1.7089446999598294,s,0,0.026193899917416275,0.04650350008159876,0.04755550005938858,0.09850750002078712,0.10060050000902265,0.30052799999248236
RSVPLG03,,20251028-111016,1.0.1,20251020-085245,719,Practice,Both,1,Automatic,main,8,20251028-111111,global,local,300,H,S,E,A,H-E.png,A-S.png,hH,sS,mask-1.png,mask-1.png,h,1,0.9517913999734446,h,0,0.10846760007552803,0.047569400048814714,0.04757260007318109,0.10054520005360246,0.10051670006942004,0.29985169996507466
RSVPLG03,,20251028-111016,1.0.1,20251020-085245,719,Practice,Both,1,Automatic,main,9,20251028-111116,global,local,750,H,H,A,E,H-A.png,E-H.png,hH,hH,mask-3.png,mask-3.png,h,1,1.5215502999490127,s,0,0.13412110006902367,0.04700890008825809,0.047786899958737195,0.10001729999203235,0.10001789999660105,0.751357400091365
RSVPLG03,,20251028-111016,1.0.1,20251020-085245,719,Practice,Both,1,Automatic,main,10,20251028-111122,local,local,300,H,S,E,A,E-H.png,A-S.png,hH,sS,mask-3.png,mask-4.png,h,1,2.545977900037542,s,1,0.15036460000555962,0.047767700045369565,0.04750790004618466,0.09985020000021905,0.10150410002097487,0.3001603999873623
RSVPLG03,,20251028-111016,1.0.1,20251020-085245,719,Practice,Both,1,Automatic,main,11,20251028-111128,local,global,300,S,S,E,E,E-S.png,S-E.png,sS,sS,mask-1.png,mask-2.png,s,1,1.2005407999968156,s,1,0.29798379994463176,0.046231099986471236,0.04751220007892698,0.09933190001174808,0.10057310003321618,0.29957909998483956
RSVPLG03,,20251028-111016,1.0.1,20251020-085245,719,Practice,Both,1,Automatic,main,12,20251028-111134,global,global,750,H,H,A,E,H-A.png,H-E.png,hH,hH,mask-1.png,mask-2.png,h,1,1.082432199968025,h,1,0.1371547000017017,0.048647499992512167,0.04765469999983907,0.09987699997145683,0.09986299998126924,0.7521963999606669
RSVPLG03,,20251028-111016,1.0.1,20251020-085245,719,Practice,Both,1,Automatic,main,13,20251028-111139,global,local,300,S,H,A,E,S-A.png,E-H.png,sS,hH,mask-2.png,mask-3.png,s,1,2.242714799940586,h,1,0.4223248000489548,0.04751469998154789,0.047435699962079525,0.10152769996784627,0.09945560002233833,0.3015083000063896
RSVPLG03,,20251028-111016,1.0.1,20251020-085245,719,Practice,Both,1,Automatic,main,14,20251028-111145,local,global,750,S,H,E,E,E-S.png,H-E.png,sS,hH,mask-1.png,mask-4.png,s,1,0.696283399942331,s,0,0.14767029997892678,0.04755839996505529,0.04748489998746663,0.1006315000122413,0.10053230007179081,0.7524096999550238
RSVPLG03,,20251028-111016,1.0.1,20251020-085245,719,Practice,Both,1,Automatic,main,15,20251028-111150,local,local,300,H,H,A,A,A-H.png,A-H.png,hH,hH,mask-3.png,mask-3.png,h,1,2.2638253999175504,s,0,0.07437640009447932,0.04686999996192753,0.04665090003982186,0.10114629997406155,0.09937640000134706,0.3008549999212846
RSVPLG03,,20251028-111016,1.0.1,20251020-085245,719,Practice,Both,1,Automatic,main,16,20251028-111157,global,global,750,H,S,E,A,H-E.png,S-A.png,hH,sS,mask-3.png,mask-2.png,h,1,0.9153204000322148,s,1,0.17456039995886385,0.04768389998935163,0.047739399946294725,0.09887979994527996,0.09994189999997616,0.7505648999940604
RSVPLG03,md,20251028-111355,1.0.1,20251020-085245,719,Experiment,Both,1,Automatic,warmup,1,20251028-111412,local,global,300,S,S,E,E,E-S.png,S-E.png,sS,sS,mask-1.png,mask-2.png,h,0,1.787762299994938,s,1,0.3059247999917716,0.04661009996198118,0.04771670000627637,0.10084890003781766,0.1004562999587506,0.3005618000170216
RSVPLG03,md,20251028-111355,1.0.1,20251020-085245,719,Experiment,Both,1,Automatic,warmup,2,20251028-111418,global,global,750,S,S,A,E,S-A.png,S-E.png,sS,sS,mask-4.png,mask-4.png,s,1,0.7798642999259755,s,1,0.06127910001669079,0.04765850002877414,0.04864579997956753,0.09987170004751533,0.10013949999120086,0.7505470999749377
RSVPLG03,md,20251028-111355,1.0.1,20251020-085245,719,Experiment,Both,1,Automatic,warmup,3,20251028-111423,local,global,750,H,H,A,E,A-H.png,H-E.png,hH,hH,mask-1.png,mask-2.png,h,1,1.130800399929285,s,0,0.022838399978354573,0.04777619999367744,0.04719650000333786,0.10099369997624308,0.09962029999587685,0.7519246999872848
RSVPLG03,md,20251028-111355,1.0.1,20251020-085245,719,Experiment,Both,1,Automatic,warmup,4,20251028-111429,local,local,750,H,H,A,E,A-H.png,E-H.png,hH,hH,mask-4.png,mask-3.png,h,1,0.9404028001008555,s,0,0.0866772000445053,0.047559100086800754,0.04763240006286651,0.10007730009965599,0.10035680001601577,0.751329299993813
RSVPLG03,md,20251028-111355,1.0.1,20251020-085245,719,Experiment,Both,1,Automatic,warmup,5,20251028-111434,global,local,300,S,S,A,E,S-A.png,E-S.png,sS,sS,mask-2.png,mask-1.png,h,0,0.7269734999863431,s,1,0.2199920000275597,0.047915699891746044,0.04810959997121245,0.10004999989178032,0.09962760005146265,0.3003060999326408
RSVPLG03,md,20251028-111355,1.0.1,20251020-085245,719,Experiment,Both,1,Automatic,main,6,20251028-111439,local,local,750,S,H,A,A,A-S.png,A-H.png,sS,hH,mask-2.png,mask-1.png,s,1,0.46248210000339895,h,1,0.1414365000091493,0.04759319999720901,0.04753440001513809,0.10154579998925328,0.09955400007311255,0.7518819000106305
RSVPLG03,md,20251028-111355,1.0.1,20251020-085245,719,Experiment,Both,1,Automatic,main,7,20251028-111443,local,local,750,S,H,A,A,A-S.png,A-H.png,sS,hH,mask-2.png,mask-3.png,h,0,0.6928689000196755,h,1,0.08492689998820424,0.047697899979539216,0.04690730001311749,0.09973549994174391,0.09902690001763403,0.7508572000078857
RSVPLG03,md,20251028-111355,1.0.1,20251020-085245,719,Experiment,Both,1,Automatic,main,8,20251028-111448,global,local,300,S,S,A,E,S-A.png,E-S.png,sS,sS,mask-4.png,mask-4.png,s,1,0.6893728999421,s,1,0.09637649997603148,0.04794650000985712,0.04759830003604293,0.10017999995034188,0.10079240007326007,0.29996979993302375
RSVPLG03,md,20251028-111355,1.0.1,20251020-085245,719,Experiment,Both,1,Automatic,main,9,20251028-111453,local,local,750,H,H,A,A,A-H.png,A-H.png,hH,hH,mask-3.png,mask-4.png,h,1,1.8865142000140622,h,1,0.07423090003430843,0.046413500094786286,0.047490700031630695,0.10040690004825592,0.09931239997968078,0.750343200052157
RSVPLG03,md,20251028-111355,1.0.1,20251020-085245,719,Experiment,Both,1,Automatic,main,10,20251028-111459,global,local,300,S,S,E,E,S-E.png,E-S.png,sS,sS,mask-4.png,mask-3.png,s,1,0.7904002000577748,h,0,0.2751002999721095,0.047607599990442395,0.047517099999822676,0.10063790006097406,0.09956969995982945,0.30093550006859004
RSVPLG03,md,20251028-111355,1.0.1,20251020-085245,719,Experiment,Both,1,Automatic,main,11,20251028-111504,global,local,750,S,H,E,A,S-E.png,A-H.png,sS,hH,mask-3.png,mask-3.png,s,1,0.5211658000480384,h,1,0.09301949990913272,0.047492200043052435,0.046686100075021386,0.09987300005741417,0.09982070000842214,0.751616399968043
RSVPLG03,md,20251028-111355,1.0.1,20251020-085245,719,Experiment,Both,1,Automatic,main,12,20251028-111509,global,global,300,S,S,E,A,S-E.png,S-A.png,sS,sS,mask-4.png,mask-3.png,s,1,0.44487010000739247,s,1,0.0835668999934569,0.04578759998548776,0.04778750007972121,0.09887019998859614,0.10117520007770509,0.2991431999253109
RSVPLG03,md,20251028-111355,1.0.1,20251020-085245,719,Experiment,Both,1,Automatic,main,13,20251028-111513,local,local,300,H,H,A,E,A-H.png,E-H.png,hH,hH,mask-1.png,mask-3.png,h,1,1.6703459999989718,h,1,0.089153700042516,0.0478249000152573,0.04760070005431771,0.10030379996169358,0.10155200003646314,0.3004471999593079
RSVPLG03,md,20251028-111355,1.0.1,20251020-085245,719,Experiment,Both,1,Automatic,main,14,20251028-111518,global,local,300,S,S,A,A,S-A.png,A-S.png,sS,sS,mask-3.png,mask-1.png,s,1,0.4926225000526756,h,0,0.268711999990046,0.04772370005957782,0.047701100003905594,0.099113600095734,0.09895300003699958,0.2998593000229448
RSVPLG03,md,20251028-111355,1.0.1,20251020-085245,719,Experiment,Both,1,Automatic,main,15,20251028-111523,global,global,750,H,S,E,E,H-E.png,S-E.png,hH,sS,mask-2.png,mask-3.png,h,1,1.1246573000680655,s,1,0.051581399980932474,0.04779520002193749,0.04650049994233996,0.10003860003780574,0.09860529995057732,0.7513082000659779
RSVPLG03,md,20251028-111355,1.0.1,20251020-085245,719,Experiment,Both,1,Automatic,main,16,20251028-111528,local,local,750,H,H,E,E,E-H.png,E-H.png,hH,hH,mask-4.png,mask-4.png,s,0,1.2493563999887556,h,1,0.05641180009115487,0.04766680009197444,0.04782169999089092,0.10120500007178634,0.1009738000575453,0.7513744999887422
RSVPLG03,md,20251028-111355,1.0.1,20251020-085245,719,Experiment,Both,1,Automatic,main,17,20251028-111533,global,global,300,S,H,A,E,S-A.png,H-E.png,sS,hH,mask-3.png,mask-4.png,h,0,0.7803868999471888,s,0,0.562834499985911,0.04766200005542487,0.04759370000101626,0.09889100003056228,0.09981030004564673,0.30049930000677705
RSVPLG03,md,20251028-111355,1.0.1,20251020-085245,719,Experiment,Both,1,Automatic,main,18,20251028-111538,global,global,300,S,S,A,A,S-A.png,S-A.png,sS,sS,mask-1.png,mask-4.png,s,1,0.5254765000427142,s,1,0.19151200004853308,0.04768650000914931,0.04759680002462119,0.0998072000220418,0.09945580002386123,0.2995342999929562
RSVPLG03,md,20251028-111355,1.0.1,20251020-085245,719,Experiment,Both,1,Automatic,main,19,20251028-111543,global,global,300,H,H,E,E,H-E.png,H-E.png,hH,hH,mask-2.png,mask-4.png,h,1,0.49605740001425147,h,1,0.08384170010685921,0.04851870005950332,0.04742760001681745,0.10050910001154989,0.10040820005815476,0.299968000035733
RSVPLG03,md,20251028-111355,1.0.1,20251020-085245,719,Experiment,Both,1,Automatic,main,20,20251028-111547,global,local,300,S,H,A,E,S-A.png,E-H.png,sS,hH,mask-1.png,mask-1.png,s,1,0.71017189999111,s,0,0.28578759997617453,0.04753590002655983,0.04752820008434355,0.09956160001456738,0.10156470001675189,0.29982359998393804
RSVPLG03,md,20251028-111355,1.0.1,20251020-085245,719,Experiment,Both,1,Automatic,main,21,20251028-111552,local,global,750,S,S,E,E,E-S.png,S-E.png,sS,sS,mask-4.png,mask-4.png,s,1,0.7242575000273064,s,1,0.12391019996721298,0.047546799993142486,0.047574899974279106,0.10149420006200671,0.1015614999923855,0.7507153000915423
RSVPLG03,md,20251028-111355,1.0.1,20251020-085245,719,Experiment,Both,1,Automatic,main,22,20251028-111557,local,local,300,H,H,A,A,A-H.png,A-H.png,hH,hH,mask-4.png,mask-2.png,h,1,0.5720522999763489,h,1,0.252876800019294,0.04679680010303855,0.04751699999906123,0.10093450010754168,0.10055769991595298,0.3002829001052305
RSVPLG03,md,20251028-111355,1.0.1,20251020-085245,719,Experiment,Both,1,Automatic,main,23,20251028-111601,local,local,750,H,S,E,A,E-H.png,A-S.png,hH,sS,mask-4.png,mask-1.png,h,1,0.5966235001105815,h,0,0.10298119997605681,0.045850499998778105,0.04672209999989718,0.09893269999884069,0.10090459999628365,0.7502155000111088
RSVPLG03,md,20251028-111355,1.0.1,20251020-085245,719,Experiment,Both,1,Automatic,main,24,20251028-111606,local,local,300,S,S,E,A,E-S.png,A-S.png,sS,sS,mask-4.png,mask-2.png,s,1,1.483784499927424,s,1,0.1789229999994859,0.047712999978102744,0.04873560008127242,0.10091829998418689,0.10093750001396984,0.30052229994907975
RSVPLG03,md,20251028-111355,1.0.1,20251020-085245,719,Experiment,Both,1,Automatic,main,25,20251028-111612,local,local,300,H,H,E,E,E-H.png,E-H.png,hH,hH,mask-3.png,mask-3.png,h,1,1.3801558000268415,h,1,0.08079689997248352,0.04856259992811829,0.04762450000271201,0.0994134999345988,0.10064190009143203,0.29961609991732985
RSVPLG03,md,20251028-111355,1.0.1,20251020-085245,719,Experiment,Both,1,Automatic,main,26,20251028-111624,local,global,750,H,S,A,A,A-H.png,S-A.png,hH,sS,mask-1.png,mask-1.png,h,1,0.38686979992780834,h,0,0.07548820006195456,0.047502500005066395,0.04766380006913096,0.09963070007506758,0.10143210005480796,0.7502608000067994
RSVPLG03,md,20251028-111355,1.0.1,20251020-085245,719,Experiment,Both,1,Automatic,main,27,20251028-111628,local,global,750,H,S,E,A,E-H.png,S-A.png,hH,sS,mask-2.png,mask-1.png,h,1,0.8582729999907315,s,1,0.09852570004295558,0.0476998999947682,0.047681900090537965,0.09989980002865195,0.10005550005007535,0.7501313999528065
RSVPLG03,md,20251028-111355,1.0.1,20251020-085245,719,Experiment,Both,1,Automatic,main,28,20251028-111633,global,local,750,S,H,E,E,S-E.png,E-H.png,sS,hH,mask-4.png,mask-3.png,s,1,0.686553500010632,h,1,0.3806722000008449,0.047514399979263544,0.046886100084520876,0.09868449997156858,0.10016420006286353,0.7494349998887628
RSVPLG03,md,20251028-111355,1.0.1,20251020-085245,719,Experiment,Both,1,Automatic,main,29,20251028-111638,local,local,750,S,H,E,A,E-S.png,A-H.png,sS,hH,mask-2.png,mask-2.png,s,1,0.46216800005640835,s,0,0.08464240003377199,0.04982090007979423,0.04668850009329617,0.10196230001747608,0.09989380009938031,0.7524153999984264
RSVPLG03,md,20251028-111355,1.0.1,20251020-085245,719,Experiment,Both,1,Automatic,main,30,20251028-111643,global,local,300,S,H,A,A,S-A.png,A-H.png,sS,hH,mask-2.png,mask-4.png,s,1,1.3607819000026211,h,1,1.4567643000045791,0.04768530000001192,0.046690699993632734,0.09905560000333935,0.09988610004074872,0.3008242000360042
RSVPLG03,md,20251028-111355,1.0.1,20251020-085245,719,Experiment,Both,1,Automatic,main,31,20251028-111648,local,global,300,H,H,A,A,A-H.png,H-A.png,hH,hH,mask-4.png,mask-3.png,h,1,0.588081399910152,h,1,0.07659579999744892,0.047512599965557456,0.04765860002953559,0.10068649996537715,0.09983740001916885,0.30103530001360923
RSVPLG03,md,20251028-111355,1.0.1,20251020-085245,719,Experiment,Both,1,Automatic,main,32,20251028-111652,local,local,300,S,S,E,E,E-S.png,E-S.png,sS,sS,mask-1.png,mask-3.png,s,1,0.38107159989885986,s,1,0.08729549997951835,0.048674199962988496,0.04667009995318949,0.10087820002809167,0.09983899991493672,0.30122360005043447
RSVPLG03,md,20251028-111355,1.0.1,20251020-085245,719,Experiment,Both,1,Automatic,main,33,20251028-111657,global,local,300,S,H,E,A,S-E.png,A-H.png,sS,hH,mask-2.png,mask-2.png,s,1,1.0379606999922544,h,1,0.05512470006942749,0.04942599998321384,0.0487239999929443,0.10146010003518313,0.10178589995484799,0.30070740007795393
RSVPLG03,md,20251028-111355,1.0.1,20251020-085245,719,Experiment,Both,1,Automatic,main,34,20251028-111701,global,local,750,H,H,A,E,H-A.png,E-H.png,hH,hH,mask-4.png,mask-2.png,h,1,0.7020980999805033,s,0,0.06655870005488396,0.04741940007079393,0.04730940004810691,0.10046640003565699,0.10151740000583231,0.7500187000259757
RSVPLG03,md,20251028-111355,1.0.1,20251020-085245,719,Experiment,Both,1,Automatic,main,35,20251028-111706,local,global,300,H,H,E,E,E-H.png,H-E.png,hH,hH,mask-4.png,mask-4.png,h,1,0.9263458999339491,s,0,0.021787600009702146,0.04771830001845956,0.046706699999049306,0.09990080003626645,0.09991019999142736,0.3004977999953553
RSVPLG03,md,20251028-111355,1.0.1,20251020-085245,719,Experiment,Both,1,Automatic,main,36,20251028-111711,global,global,300,S,S,A,E,S-A.png,S-E.png,sS,sS,mask-1.png,mask-1.png,s,1,0.5414754999801517,s,1,0.31318349996581674,0.04571179999038577,0.0489225999917835,0.09988600003998727,0.10096479998901486,0.2988402000628412
RSVPLG03,md,20251028-111355,1.0.1,20251020-085245,719,Experiment,Both,1,Automatic,main,37,20251028-111716,local,global,300,H,H,A,E,A-H.png,H-E.png,hH,hH,mask-3.png,mask-3.png,h,1,1.7914374999236315,h,1,0.11517730006016791,0.04775330005213618,0.047838600003160536,0.09997540002223104,0.10001409996766597,0.30003030004445463
RSVPLG03,md,20251028-111355,1.0.1,20251020-085245,719,Experiment,Both,1,Automatic,main,38,20251028-111721,local,global,750,S,H,E,A,E-S.png,H-A.png,sS,hH,mask-2.png,mask-4.png,s,1,0.8601403000066057,s,0,0.1196087000425905,0.04757139994762838,0.046573499916121364,0.10066229989752173,0.09880079992581159,0.7510095000034198
RSVPLG03,md,20251028-111355,1.0.1,20251020-085245,719,Experiment,Both,1,Automatic,main,39,20251028-111726,local,local,750,H,S,A,A,A-H.png,A-S.png,hH,sS,mask-4.png,mask-1.png,s,0,0.9805858000181615,s,1,0.0710719000780955,0.047080199932679534,0.04656839999370277,0.10055919992737472,0.09962540003471076,0.7509868999477476
RSVPLG03,md,20251028-111355,1.0.1,20251020-085245,719,Experiment,Both,1,Automatic,main,40,20251028-111731,global,global,750,H,S,A,E,H-A.png,S-E.png,hH,sS,mask-2.png,mask-1.png,h,1,0.6792162999045104,s,1,0.0037776000099256635,0.04729850008152425,0.04681999993044883,0.10008470003958791,0.09987559996079654,0.7514022000832483
RSVPLG03,md,20251028-111355,1.0.1,20251020-085245,719,Experiment,Both,1,Automatic,main,41,20251028-111736,local,global,300,H,H,A,E,A-H.png,H-E.png,hH,hH,mask-1.png,mask-1.png,h,1,0.5363344000652432,h,1,0.07333820010535419,0.0475683999247849,0.04654170002322644,0.1006434999871999,0.09959719993639737,0.30095279996749014
RSVPLG03,md,20251028-111355,1.0.1,20251020-085245,719,Experiment,Both,1,Automatic,main,42,20251028-111741,global,global,300,H,S,E,E,H-E.png,S-E.png,hH,sS,mask-2.png,mask-2.png,h,1,0.46713140001520514,s,1,0.08157280005980283,0.04762600001413375,0.04852960002608597,0.09969579998869449,0.10151930002029985,0.29884379997383803
RSVPLG03,md,20251028-111355,1.0.1,20251020-085245,719,Experiment,Both,1,Automatic,main,43,20251028-111745,local,global,300,H,H,A,E,A-H.png,H-E.png,hH,hH,mask-2.png,mask-1.png,h,1,0.617703799973242,h,1,0.28412969992496073,0.04773420002311468,0.04952840006444603,0.10027020005509257,0.10079609998501837,0.2992330000270158
RSVPLG03,md,20251028-111355,1.0.1,20251020-085245,719,Experiment,Both,1,Automatic,main,44,20251028-111749,global,local,300,H,S,E,A,H-E.png,A-S.png,hH,sS,mask-4.png,mask-4.png,h,1,0.4346259000012651,h,0,0.157314500072971,0.046715599950402975,0.04670620011165738,0.09893259999807924,0.0999733000062406,0.2998275998979807
RSVPLG03,md,20251028-111355,1.0.1,20251020-085245,719,Experiment,Both,1,Automatic,main,45,20251028-111754,local,global,750,H,H,E,A,E-H.png,H-A.png,hH,hH,mask-4.png,mask-1.png,h,1,0.3407328000757843,s,0,0.05479530000593513,0.047106900019571185,0.04747769993264228,0.10015120008029044,0.10128379997331649,0.7498423000797629
RSVPLG03,md,20251028-111355,1.0.1,20251020-085245,719,Experiment,Both,1,Automatic,main,46,20251028-111758,global,global,750,H,H,A,A,H-A.png,H-A.png,hH,hH,mask-2.png,mask-2.png,h,1,0.2817382999928668,h,1,0.09968030010350049,0.04780229995958507,0.04772450006566942,0.09999899996910244,0.10194390011020005,0.7504839999601245
RSVPLG03,md,20251028-111355,1.0.1,20251020-085245,719,Experiment,Both,1,Automatic,main,47,20251028-111803,global,local,750,H,S,E,A,H-E.png,A-S.png,hH,sS,mask-3.png,mask-2.png,h,1,0.5825663000578061,s,1,0.11500170000363141,0.04666280001401901,0.04765910003334284,0.09940810000989586,0.09967619995586574,0.7502384000690654
RSVPLG03,md,20251028-111355,1.0.1,20251020-085245,719,Experiment,Both,1,Automatic,main,48,20251028-111808,global,global,750,S,S,A,A,S-A.png,S-A.png,sS,sS,mask-1.png,mask-3.png,s,1,0.3652248999569565,s,1,0.12188910006079823,0.04769979999400675,0.04726310004480183,0.09992399998009205,0.10004020004998893,0.7497502999613062
RSVPLG03,md,20251028-111355,1.0.1,20251020-085245,719,Experiment,Both,1,Automatic,main,49,20251028-111812,local,global,300,H,S,A,A,A-H.png,S-A.png,hH,sS,mask-2.png,mask-3.png,h,1,1.378071799990721,h,0,0.09203580010216683,0.04727770003955811,0.047077200026251376,0.10047780000604689,0.10013909998815507,0.30016510002315044
RSVPLG03,md,20251028-111355,1.0.1,20251020-085245,719,Experiment,Both,1,Automatic,main,50,20251028-111817,local,local,750,H,S,A,A,A-H.png,A-S.png,hH,sS,mask-3.png,mask-3.png,s,0,1.5195403000107035,s,1,0.07277359999716282,0.046056099934503436,0.04755020001903176,0.09781969990581274,0.0996193999890238,0.7489268999779597
RSVPLG03,md,20251028-111355,1.0.1,20251020-085245,719,Experiment,Both,1,Automatic,main,51,20251028-111825,local,global,300,H,H,A,E,A-H.png,H-E.png,hH,hH,mask-4.png,mask-1.png,s,0,0.8349504000507295,h,1,0.1524273999966681,0.04670009994879365,0.04770610004197806,0.09892909997142851,0.10095370002090931,0.2985625999281183
RSVPLG03,md,20251028-111355,1.0.1,20251020-085245,719,Experiment,Both,1,Automatic,main,52,20251028-111830,local,local,300,H,S,A,A,A-H.png,A-S.png,hH,sS,mask-1.png,mask-3.png,h,1,0.8553159000584856,s,1,0.09248350001871586,0.04864539997652173,0.047512599965557456,0.10071010002866387,0.09959889994934201,0.3010393000440672
RSVPLG03,md,20251028-111355,1.0.1,20251020-085245,719,Experiment,Both,1,Automatic,main,53,20251028-111834,global,local,300,H,S,E,E,H-E.png,E-S.png,hH,sS,mask-4.png,mask-2.png,h,1,0.8534361000638455,s,1,0.06909180001821369,0.047403400065377355,0.047535300021991134,0.10036270006094128,0.10052749991882592,0.300533700035885
RSVPLG03,md,20251028-111355,1.0.1,20251020-085245,719,Experiment,Both,1,Automatic,main,54,20251028-111839,local,global,300,H,S,E,E,E-H.png,S-E.png,hH,sS,mask-3.png,mask-2.png,s,0,1.1810108000645414,s,1,0.08978579996619374,0.04711789998691529,0.047334900009445846,0.09933260001707822,0.09984489995986223,0.2997941999929026
RSVPLG03,md,20251028-111355,1.0.1,20251020-085245,719,Experiment,Both,1,Automatic,main,55,20251028-111844,global,global,750,S,H,E,A,S-E.png,H-A.png,sS,hH,mask-1.png,mask-2.png,s,1,0.6183044000063092,h,1,0.09285569994244725,0.045776500017382205,0.047588400077074766,0.09926390007603914,0.09944260003976524,0.7501985999988392
RSVPLG03,md,20251028-111355,1.0.1,20251020-085245,719,Experiment,Both,1,Automatic,main,56,20251028-111849,local,local,300,S,H,E,A,E-S.png,A-H.png,sS,hH,mask-2.png,mask-2.png,s,1,1.5328106000088155,s,0,0.2758089000126347,0.04911909997463226,0.04850320005789399,0.10046430001966655,0.09944640006870031,0.3018840999575332
RSVPLG03,md,20251028-111355,1.0.1,20251020-085245,719,Experiment,Both,1,Automatic,main,57,20251028-111854,local,global,750,S,H,E,A,E-S.png,H-A.png,sS,hH,mask-1.png,mask-3.png,s,1,0.6609511999413371,h,1,0.21564260008744895,0.046918699983507395,0.04691110004205257,0.101094999932684,0.09877220005728304,0.7521928999340162
RSVPLG03,md,20251028-111355,1.0.1,20251020-085245,719,Experiment,Both,1,Automatic,main,58,20251028-111859,local,global,300,S,S,A,A,A-S.png,S-A.png,sS,sS,mask-3.png,mask-4.png,s,1,0.64494220004417,s,1,0.1288351999828592,0.047149999998509884,0.04640370002016425,0.0994831999996677,0.09905130008701235,0.30005780002102256
RSVPLG03,md,20251028-111355,1.0.1,20251020-085245,719,Experiment,Both,1,Automatic,main,59,20251028-111904,global,global,750,H,H,A,E,H-A.png,H-E.png,hH,hH,mask-4.png,mask-3.png,s,0,0.3968071999261156,s,0,0.08894929999951273,0.04682620009407401,0.047786900075152516,0.10047490010038018,0.10101010010112077,0.751316100009717
RSVPLG03,md,20251028-111355,1.0.1,20251020-085245,719,Experiment,Both,1,Automatic,main,60,20251028-111908,local,local,300,H,H,E,A,E-H.png,A-H.png,hH,hH,mask-2.png,mask-2.png,h,1,1.2341226999415085,s,0,0.050848099985159934,0.04901969991624355,0.046884600073099136,0.09999139991123229,0.10108070005662739,0.30091379990335554
RSVPLG03,md,20251028-111355,1.0.1,20251020-085245,719,Experiment,Both,1,Automatic,main,61,20251028-111913,global,global,750,S,S,A,E,S-A.png,S-E.png,sS,sS,mask-4.png,mask-1.png,s,1,0.5177983999019489,s,1,0.08852099999785423,0.04815029993187636,0.04742349998559803,0.09964739996939898,0.10095850005745888,0.7511682999320328
RSVPLG03,md,20251028-111355,1.0.1,20251020-085245,719,Experiment,Both,1,Automatic,main,62,20251028-111918,local,local,750,S,S,E,E,E-S.png,E-S.png,sS,sS,mask-1.png,mask-1.png,s,1,0.945257700048387,s,1,0.09051400003954768,0.047217799932695925,0.04834450001362711,0.0996756999520585,0.10036540008150041,0.7490555999102071
RSVPLG03,md,20251028-111355,1.0.1,20251020-085245,719,Experiment,Both,1,Automatic,main,63,20251028-111923,local,global,750,S,H,A,E,A-S.png,H-E.png,sS,hH,mask-3.png,mask-2.png,s,1,0.3907033000141382,s,0,0.09702779992949218,0.04864729999098927,0.04765459999907762,0.09992240008432418,0.09930040000472218,0.7525643000844866
RSVPLG03,md,20251028-111355,1.0.1,20251020-085245,719,Experiment,Both,1,Automatic,main,64,20251028-111927,global,local,300,S,S,E,E,S-E.png,E-S.png,sS,sS,mask-1.png,mask-3.png,s,1,0.4354426999343559,s,1,0.07776889996603131,0.046909700031392276,0.04656669998075813,0.09943100006785244,0.09984349994920194,0.30151220003608614
RSVPLG03,md,20251028-111355,1.0.1,20251020-085245,719,Experiment,Both,1,Automatic,main,65,20251028-111932,local,global,750,H,H,A,E,A-H.png,H-E.png,hH,hH,mask-3.png,mask-2.png,s,0,1.1071654999395832,s,0,0.1524656000547111,0.047558499965816736,0.048286200035363436,0.1021702999714762,0.10220900003332645,0.7511889999732375
RSVPLG03,md,20251028-111355,1.0.1,20251020-085245,719,Experiment,Both,1,Automatic,main,66,20251028-111937,global,global,300,S,H,A,E,S-A.png,H-E.png,sS,hH,mask-3.png,mask-4.png,s,1,0.3587505000177771,h,1,0.01654510002117604,0.046937800012528896,0.04926659993361682,0.10140809998847544,0.10182069998700172,0.29989110003225505
RSVPLG03,md,20251028-111355,1.0.1,20251020-085245,719,Experiment,Both,1,Automatic,main,67,20251028-111941,global,global,300,S,S,E,E,S-E.png,S-E.png,sS,sS,mask-2.png,mask-1.png,s,1,0.5495283000636846,s,1,0.2225760999135673,0.04728370008524507,0.04716399998869747,0.10113060008734465,0.10228390002157539,0.2999869000632316
RSVPLG03,md,20251028-111355,1.0.1,20251020-085245,719,Experiment,Both,1,Automatic,main,68,20251028-111946,global,local,300,H,S,A,E,H-A.png,E-S.png,hH,sS,mask-4.png,mask-2.png,h,1,0.3848987999372184,s,1,0.07250390003900975,0.0488599999807775,0.04763319995254278,0.10116259998176247,0.10065020003821701,0.3016928000142798
RSVPLG03,md,20251028-111355,1.0.1,20251020-085245,719,Experiment,Both,1,Automatic,main,69,20251028-111950,global,global,300,H,S,E,A,H-E.png,S-A.png,hH,sS,mask-3.png,mask-1.png,s,0,0.804874400026165,h,0,0.12776329996995628,0.046932300087064505,0.04789749998599291,0.1007764000678435,0.1008544999640435,0.2996802000561729
RSVPLG03,md,20251028-111355,1.0.1,20251020-085245,719,Experiment,Both,1,Automatic,main,70,20251028-111954,global,global,750,S,S,E,E,S-E.png,S-E.png,sS,sS,mask-4.png,mask-1.png,s,1,0.4865258999634534,h,0,0.016789100016467273,0.04708250006660819,0.046866499935276806,0.10003299999516457,0.0987526000244543,0.751242300029844
RSVPLG03,md,20251028-111355,1.0.1,20251020-085245,719,Experiment,Both,1,Automatic,main,71,20251028-111959,global,global,300,H,H,A,E,H-A.png,H-E.png,hH,hH,mask-1.png,mask-2.png,h,1,0.37268339993897825,h,1,0.06538759998511523,0.048420500010252,0.04709880007430911,0.09978679998312145,0.09988200000952929,0.30217129993252456
RSVPLG03,md,20251028-111355,1.0.1,20251020-085245,719,Experiment,Both,1,Automatic,main,72,20251028-112003,local,global,300,S,S,A,E,A-S.png,S-E.png,sS,sS,mask-3.png,mask-2.png,s,1,0.5104228000855073,s,1,0.09124249999877065,0.047977399895899,0.04714289994444698,0.10011689993552864,0.1001605000346899,0.30053769994992763
RSVPLG03,md,20251028-111355,1.0.1,20251020-085245,719,Experiment,Both,1,Automatic,main,73,20251028-112007,local,local,750,H,H,A,E,A-H.png,E-H.png,hH,hH,mask-2.png,mask-2.png,h,1,0.7490335999755189,h,1,0.6126023000106215,0.04756540001835674,0.04858900001272559,0.09967779996804893,0.10074330004863441,0.7490986000047997
RSVPLG03,md,20251028-111355,1.0.1,20251020-085245,719,Experiment,Both,1,Automatic,main,74,20251028-112013,global,local,750,H,S,A,E,H-A.png,E-S.png,hH,sS,mask-4.png,mask-1.png,h,1,0.46338259999174625,s,1,0.21289739990606904,0.047450599959120154,0.04762470000423491,0.09936960006598383,0.0994909000582993,0.7504114999901503
RSVPLG03,md,20251028-111355,1.0.1,20251020-085245,719,Experiment,Both,1,Automatic,main,75,20251028-112018,local,local,750,H,H,E,E,E-H.png,E-H.png,hH,hH,mask-3.png,mask-4.png,s,0,0.6640842000488192,h,1,0.9235641999403015,0.04748439998365939,0.04750409990083426,0.09989690000656992,0.09876759990584105,0.7512495000846684
RSVPLG03,md,20251028-111355,1.0.1,20251020-085245,719,Experiment,Both,1,Automatic,main,76,20251028-112028,global,local,750,H,H,A,A,H-A.png,A-H.png,hH,hH,mask-4.png,mask-3.png,h,1,0.3297010000096634,h,1,0.11658259993419051,0.04752440005540848,0.04759489989373833,0.09953800006769598,0.09982899995520711,0.7519848000956699
RSVPLG03,md,20251028-111355,1.0.1,20251020-085245,719,Experiment,Both,1,Automatic,main,77,20251028-112032,global,local,750,H,H,E,E,H-E.png,E-H.png,hH,hH,mask-3.png,mask-1.png,h,1,0.6166695000138134,h,1,0.28736439999192953,0.04695340001489967,0.04775500006508082,0.09983189997728914,0.09818950004409999,0.7513503999216482
RSVPLG03,md,20251028-111355,1.0.1,20251020-085245,719,Experiment,Both,1,Automatic,main,78,20251028-112037,global,local,750,S,H,A,E,S-A.png,E-H.png,sS,hH,mask-1.png,mask-4.png,s,1,0.417976800003089,s,0,0.3318837999831885,0.0473498998908326,0.04689809994306415,0.09839089994784445,0.09999029990285635,0.7505499999970198
RSVPLG03,md,20251028-111355,1.0.1,20251020-085245,719,Experiment,Both,1,Automatic,main,79,20251028-112042,local,local,300,S,H,A,E,A-S.png,E-H.png,sS,hH,mask-4.png,mask-1.png,s,1,1.0857187000801787,h,1,0.05968629999551922,0.047512799967080355,0.04751550010405481,0.10052420001011342,0.10062540008220822,0.30012669996358454
RSVPLG03,md,20251028-111355,1.0.1,20251020-085245,719,Experiment,Both,1,Automatic,main,80,20251028-112047,global,local,300,H,S,A,A,H-A.png,A-S.png,hH,sS,mask-4.png,mask-2.png,h,1,0.9626279999502003,s,1,0.20983639999758452,0.04660800006240606,0.047528000082820654,0.0996313999639824,0.1006945000262931,0.2999582999618724
RSVPLG03,md,20251028-111355,1.0.1,20251020-085245,719,Experiment,Both,1,Automatic,main,81,20251028-112052,local,global,750,S,H,A,E,A-S.png,H-E.png,sS,hH,mask-4.png,mask-1.png,s,1,0.7796203000470996,h,1,0.49965470004826784,0.0475021000020206,0.0478360999841243,0.10068649996537715,0.09985930006951094,0.750283099943772
RSVPLG03,md,20251028-111355,1.0.1,20251020-085245,719,Experiment,Both,1,Automatic,main,82,20251028-112058,global,global,750,S,S,A,E,S-A.png,S-E.png,sS,sS,mask-4.png,mask-2.png,s,1,0.8341509000165388,s,1,0.10253080003894866,0.04770450002979487,0.04776830004993826,0.0999117000028491,0.1000257000559941,0.7519563999958336
RSVPLG03,md,20251028-111355,1.0.1,20251020-085245,719,Experiment,Both,1,Automatic,main,83,20251028-112103,global,global,750,S,S,A,E,S-A.png,S-E.png,sS,sS,mask-3.png,mask-1.png,s,1,0.35853700002189726,s,1,0.393890899955295,0.0475374999223277,0.04770180000923574,0.09955339995212853,0.10194560000672936,0.7496713999425992
RSVPLG03,md,20251028-111355,1.0.1,20251020-085245,719,Experiment,Both,1,Automatic,main,84,20251028-112108,local,local,300,S,S,E,A,E-S.png,A-S.png,sS,sS,mask-2.png,mask-2.png,s,1,0.4362756999908015,s,1,0.13368650001939386,0.04681470000650734,0.04872249998152256,0.09903990000020713,0.0999169999267906,0.29965709999669343
RSVPLG03,md,20251028-111355,1.0.1,20251020-085245,719,Experiment,Both,1,Automatic,main,85,20251028-112112,global,global,750,H,H,A,A,H-A.png,H-A.png,hH,hH,mask-4.png,mask-1.png,h,1,0.40659460006281734,h,1,0.10708759992849082,0.04775999998673797,0.04675959993619472,0.10024850000627339,0.09992029995191842,0.7509075000416487
RSVPLG03,md,20251028-111355,1.0.1,20251020-085245,719,Experiment,Both,1,Automatic,main,86,20251028-112117,local,local,300,S,S,E,E,E-S.png,E-S.png,sS,sS,mask-2.png,mask-1.png,s,1,0.36157129995990545,s,1,0.1162609999300912,0.04760450008325279,0.04665829997975379,0.0998263000510633,0.09987039992120117,0.3005687000695616
RSVPLG03,md,20251028-111355,1.0.1,20251020-085245,719,Experiment,Both,1,Automatic,main,87,20251028-112121,local,global,750,H,S,A,A,A-H.png,S-A.png,hH,sS,mask-3.png,mask-3.png,s,0,0.32023980002850294,s,1,0.13939440005924553,0.046685999957844615,0.04576640005689114,0.09992059995420277,0.09813759999815375,0.7510635999497026
RSVPLG03,md,20251028-111355,1.0.1,20251020-085245,719,Experiment,Both,1,Automatic,main,88,20251028-112125,local,global,750,S,H,A,E,A-S.png,H-E.png,sS,hH,mask-1.png,mask-1.png,s,1,0.46043410000856966,s,0,0.1401787999784574,0.0477507000323385,0.04769539996050298,0.09998030005954206,0.09975519997533411,0.7505872000474483
RSVPLG03,md,20251028-111355,1.0.1,20251020-085245,719,Experiment,Both,1,Automatic,main,89,20251028-112130,global,local,300,H,S,A,E,H-A.png,E-S.png,hH,sS,mask-1.png,mask-3.png,h,1,1.2903431999729946,s,1,0.20398639992345124,0.048777799936942756,0.04663029999937862,0.10184869996737689,0.09815650002565235,0.3020247999811545
RSVPLG03,md,20251028-111355,1.0.1,20251020-085245,719,Experiment,Both,1,Automatic,main,90,20251028-112135,local,local,300,S,S,E,A,E-S.png,A-S.png,sS,sS,mask-1.png,mask-4.png,s,1,0.3289828000124544,s,1,0.10343629994895309,0.047684499993920326,0.047692200052551925,0.10091189993545413,0.0999511000700295,0.3014074999373406
RSVPLG03,md,20251028-111355,1.0.1,20251020-085245,719,Experiment,Both,1,Automatic,main,91,20251028-112140,global,global,300,H,S,A,A,H-A.png,S-A.png,hH,sS,mask-3.png,mask-4.png,h,1,0.3688920000568032,s,1,0.1719573000445962,0.047324900049716234,0.04863229999318719,0.09952559997327626,0.10068020003382117,0.2989813999738544
RSVPLG03,md,20251028-111355,1.0.1,20251020-085245,719,Experiment,Both,1,Automatic,main,92,20251028-112144,global,global,750,S,H,E,E,S-E.png,H-E.png,sS,hH,mask-3.png,mask-1.png,s,1,0.8108419999480247,h,1,0.20591000001877546,0.04761010000947863,0.047462400048971176,0.10166659997776151,0.09896430000662804,0.7525449999375269
RSVPLG03,md,20251028-111355,1.0.1,20251020-085245,719,Experiment,Both,1,Automatic,main,93,20251028-112149,global,local,750,S,S,A,E,S-A.png,E-S.png,sS,sS,mask-2.png,mask-2.png,s,1,1.9303154000081122,s,1,0.34110570000484586,0.047561599989421666,0.04769180004950613,0.09961739997379482,0.09991119999904186,0.7509179000044242
RSVPLG03,md,20251028-111355,1.0.1,20251020-085245,719,Experiment,Both,1,Automatic,main,94,20251028-112155,local,global,750,H,H,E,A,E-H.png,H-A.png,hH,hH,mask-3.png,mask-3.png,s,0,0.6717977999942377,s,0,0.08575490000657737,0.0470811000559479,0.04618490010034293,0.09940359997563064,0.09944400005042553,0.7501337999710813
RSVPLG03,md,20251028-111355,1.0.1,20251020-085245,719,Experiment,Both,1,Automatic,main,95,20251028-112200,global,global,300,S,S,E,A,S-E.png,S-A.png,sS,sS,mask-3.png,mask-1.png,s,1,0.560940399998799,h,0,0.227763699949719,0.04679649998433888,0.045879999990575016,0.1009906999533996,0.09901680005714297,0.3013336999574676
RSVPLG03,md,20251028-111355,1.0.1,20251020-085245,719,Experiment,Both,1,Automatic,main,96,20251028-112205,local,global,300,S,H,E,E,E-S.png,H-E.png,sS,hH,mask-1.png,mask-3.png,s,1,0.5987183999968693,s,0,0.13994269992690533,0.047683199984021485,0.0475643000099808,0.10092899994924664,0.10022060002665967,0.30057029996532947
RSVPLG03,md,20251028-111355,1.0.1,20251020-085245,719,Experiment,Both,1,Automatic,main,97,20251028-112209,local,global,750,H,H,E,A,E-H.png,H-A.png,hH,hH,mask-1.png,mask-2.png,s,0,0.4092973000369966,h,1,0.2685242999577895,0.04659599997103214,0.04741940007079393,0.10056359996087849,0.10042290005367249,0.750421299948357
RSVPLG03,md,20251028-111355,1.0.1,20251020-085245,719,Experiment,Both,1,Automatic,main,98,20251028-112214,local,global,750,S,S,A,A,A-S.png,S-A.png,sS,sS,mask-3.png,mask-1.png,s,1,0.5048316000029445,h,0,0.21823860006406903,0.04769590008072555,0.04679260007105768,0.09993820008821785,0.10093700001016259,0.7506437000120059
RSVPLG03,md,20251028-111355,1.0.1,20251020-085245,719,Experiment,Both,1,Automatic,main,99,20251028-112219,local,global,300,H,S,A,E,A-H.png,S-E.png,hH,sS,mask-3.png,mask-1.png,s,0,0.4902903001056984,s,1,0.0904920999892056,0.04650900000706315,0.047536500031128526,0.10051230003591627,0.09956020000390708,0.30084180005360395
RSVPLG03,md,20251028-111355,1.0.1,20251020-085245,719,Experiment,Both,1,Automatic,main,100,20251028-112223,local,global,300,S,H,A,A,A-S.png,H-A.png,sS,hH,mask-1.png,mask-1.png,s,1,0.6564707000507042,h,1,0.7918386999517679,0.04749430005904287,0.047155799926258624,0.09864270000252873,0.0992337999632582,0.3004169000778347
RSVPLG03,md,20251028-111355,1.0.1,20251020-085245,719,Experiment,Both,1,Automatic,main,101,20251028-112242,local,local,300,S,S,A,A,A-S.png,A-S.png,sS,sS,mask-2.png,mask-1.png,s,1,0.3877210000064224,s,1,0.10657810000702739,0.047750000027008355,0.048307099961675704,0.10089800006244332,0.10043899994343519,0.300260900054127
RSVPLG03,md,20251028-111355,1.0.1,20251020-085245,719,Experiment,Both,1,Automatic,main,102,20251028-112246,local,local,300,S,H,A,A,A-S.png,A-H.png,sS,hH,mask-3.png,mask-4.png,s,1,0.4164343999000266,s,0,0.1125404000049457,0.04693710000719875,0.047708199941553175,0.1001924000447616,0.10036449995823205,0.2994598000077531
RSVPLG03,md,20251028-111355,1.0.1,20251020-085245,719,Experiment,Both,1,Automatic,main,103,20251028-112250,global,local,750,S,S,A,E,S-A.png,E-S.png,sS,sS,mask-1.png,mask-2.png,s,1,0.34352939995005727,s,1,0.13504069996997714,0.04768730001524091,0.04766259994357824,0.09991819993592799,0.09986329998355359,0.7501198999816552
RSVPLG03,md,20251028-111355,1.0.1,20251020-085245,719,Experiment,Both,1,Automatic,main,104,20251028-112255,global,global,750,S,H,A,A,S-A.png,H-A.png,sS,hH,mask-2.png,mask-3.png,s,1,0.20349989994429052,h,1,0.10006560001056641,0.04805159999523312,0.04794570000376552,0.09997009998187423,0.09984740009531379,0.7508158999262378
RSVPLG03,md,20251028-111355,1.0.1,20251020-085245,719,Experiment,Both,1,Automatic,main,105,20251028-112259,global,local,300,H,H,E,A,H-E.png,A-H.png,hH,hH,mask-1.png,mask-2.png,h,1,0.42959300009533763,h,1,0.10652340005617589,0.04850520007312298,0.047677600057795644,0.10069190000649542,0.0998189999954775,0.30130569997709244
RSVPLG03,md,20251028-111355,1.0.1,20251020-085245,719,Experiment,Both,1,Automatic,main,106,20251028-112303,global,global,750,H,S,E,A,H-E.png,S-A.png,hH,sS,mask-2.png,mask-3.png,h,1,0.27370779996272177,s,1,0.18147810001391917,0.04867970000486821,0.046933600096963346,0.09970769996289164,0.09914260008372366,0.7514139999402687
RSVPLG03,md,20251028-111355,1.0.1,20251020-085245,719,Experiment,Both,1,Automatic,main,107,20251028-112308,global,local,750,H,H,A,E,H-A.png,E-H.png,hH,hH,mask-1.png,mask-1.png,h,1,0.5234130999306217,s,0,0.2051733999978751,0.04750630003400147,0.04751360008958727,0.1005388000048697,0.10150240000803024,0.7498903999803588
RSVPLG03,md,20251028-111355,1.0.1,20251020-085245,719,Experiment,Both,1,Automatic,main,108,20251028-112313,global,local,300,H,H,E,E,H-E.png,E-H.png,hH,hH,mask-3.png,mask-1.png,h,1,0.43697339994832873,h,1,0.08365479996427894,0.047519000014290214,0.04712110001128167,0.10058040008880198,0.1004333000164479,0.2998215000843629
RSVPLG03,md,20251028-111355,1.0.1,20251020-085245,719,Experiment,Both,1,Automatic,main,109,20251028-112317,global,global,300,S,H,E,A,S-E.png,H-A.png,sS,hH,mask-2.png,mask-2.png,s,1,0.3092539000790566,h,1,0.1282754000276327,0.04799379990436137,0.04735240002628416,0.10109439992811531,0.10017240000888705,0.30127989989705384
RSVPLG03,md,20251028-111355,1.0.1,20251020-085245,719,Experiment,Both,1,Automatic,main,110,20251028-112321,global,local,750,H,H,A,A,H-A.png,A-H.png,hH,hH,mask-4.png,mask-2.png,h,1,0.4848748000804335,h,1,0.09355960006359965,0.04834740003570914,0.04710019996855408,0.10025979997590184,0.09933629992883652,0.7521961000747979
RSVPLG03,md,20251028-111355,1.0.1,20251020-085245,719,Experiment,Both,1,Automatic,main,111,20251028-112326,global,local,750,S,H,A,E,S-A.png,E-H.png,sS,hH,mask-1.png,mask-3.png,h,0,0.6626853999914601,h,1,0.08181130001321435,0.046614799997769296,0.04753659991547465,0.09943409997504205,0.10156949993688613,0.7504769000224769
RSVPLG03,md,20251028-111355,1.0.1,20251020-085245,719,Experiment,Both,1,Automatic,main,112,20251028-112331,local,global,300,H,S,E,E,E-H.png,S-E.png,hH,sS,mask-2.png,mask-4.png,h,1,1.0164263000478968,s,1,0.11440229997970164,0.04856120003387332,0.04656450008042157,0.10076960001606494,0.09859010006766766,0.30110569996759295
RSVPLG03,md,20251028-111355,1.0.1,20251020-085245,719,Experiment,Both,1,Automatic,main,113,20251028-112336,global,global,300,S,S,E,E,S-E.png,S-E.png,sS,sS,mask-2.png,mask-3.png,s,1,0.3459521000040695,s,1,0.314729499979876,0.04699369997251779,0.047262500040233135,0.10011999995913357,0.10031030001118779,0.300292499945499
RSVPLG03,md,20251028-111355,1.0.1,20251020-085245,719,Experiment,Both,1,Automatic,main,114,20251028-112340,local,global,300,S,S,E,E,E-S.png,S-E.png,sS,sS,mask-1.png,mask-4.png,h,0,2.1904448999557644,s,1,0.11500439990777522,0.046751299989409745,0.04763939999975264,0.09993989998474717,0.10078159999102354,0.2988512000301853
RSVPLG03,md,20251028-111355,1.0.1,20251020-085245,719,Experiment,Both,1,Automatic,main,115,20251028-112346,global,local,750,H,S,A,A,H-A.png,A-S.png,hH,sS,mask-4.png,mask-4.png,h,1,0.7215528000378981,h,0,0.07760170008987188,0.04758220002986491,0.048446299973875284,0.10066570003982633,0.10130820004269481,0.7499223999911919
RSVPLG03,md,20251028-111355,1.0.1,20251020-085245,719,Experiment,Both,1,Automatic,main,116,20251028-112351,global,local,300,H,S,E,A,H-E.png,A-S.png,hH,sS,mask-4.png,mask-3.png,h,1,0.6642859999556094,h,0,0.0752943999832496,0.0487081001047045,0.047727699973620474,0.10175970010459423,0.09975179994944483,0.3011639000615105
RSVPLG03,md,20251028-111355,1.0.1,20251020-085245,719,Experiment,Both,1,Automatic,main,117,20251028-112355,local,local,750,S,S,E,A,E-S.png,A-S.png,sS,sS,mask-4.png,mask-2.png,s,1,0.9470334999496117,h,0,0.05771339999046177,0.048612400074489415,0.049247700022533536,0.1014641000656411,0.10146870010066777,0.7512065999908373
RSVPLG03,md,20251028-111355,1.0.1,20251020-085245,719,Experiment,Both,1,Automatic,main,118,20251028-112401,global,global,750,H,H,A,E,H-A.png,H-E.png,hH,hH,mask-3.png,mask-1.png,h,1,0.14768880000337958,h,1,0.1067860999610275,0.04767550004180521,0.0473701999289915,0.09979950007982552,0.10061949992086738,0.7517853000899777
RSVPLG03,md,20251028-111355,1.0.1,20251020-085245,719,Experiment,Both,1,Automatic,main,119,20251028-112405,local,global,750,H,H,E,E,E-H.png,H-E.png,hH,hH,mask-2.png,mask-4.png,h,1,0.4424434000393376,s,0,0.18138030008412898,0.046674299985170364,0.047669699997641146,0.09986259997822344,0.0999129000119865,0.7496392000466585
RSVPLG03,md,20251028-111355,1.0.1,20251020-085245,719,Experiment,Both,1,Automatic,main,120,20251028-112410,local,local,750,S,H,E,A,E-S.png,A-H.png,sS,hH,mask-4.png,mask-3.png,s,1,0.32931890001054853,s,0,0.1541938999434933,0.04805159999523312,0.047520100022666156,0.10014029999729246,0.10054640006273985,0.7519964999519289
RSVPLG03,md,20251028-111355,1.0.1,20251020-085245,719,Experiment,Both,1,Automatic,main,121,20251028-112414,local,local,750,S,S,A,A,A-S.png,A-S.png,sS,sS,mask-1.png,mask-4.png,s,1,0.9207821999443695,s,1,0.08954850002191961,0.04754169995430857,0.04755040002055466,0.09958489995915443,0.09796329995151609,0.7515245999675244
RSVPLG03,md,20251028-111355,1.0.1,20251020-085245,719,Experiment,Both,1,Automatic,main,122,20251028-112419,global,local,750,H,H,E,E,H-E.png,E-H.png,hH,hH,mask-1.png,mask-3.png,h,1,0.4700955000007525,s,0,0.28238480002619326,0.04652790003456175,0.04751219996251166,0.09974620002321899,0.09996040002442896,0.7509529000381008
RSVPLG03,md,20251028-111355,1.0.1,20251020-085245,719,Experiment,Both,1,Automatic,main,123,20251028-112424,local,local,300,H,H,A,E,A-H.png,E-H.png,hH,hH,mask-1.png,mask-4.png,s,0,0.9285074999788776,s,0,0.08531200001016259,0.04768580000381917,0.04784250003285706,0.09987399994861335,0.1010518999537453,0.2994573999894783
RSVPLG03,md,20251028-111355,1.0.1,20251020-085245,719,Experiment,Both,1,Automatic,main,124,20251028-112429,global,global,300,S,H,A,A,S-A.png,H-A.png,sS,hH,mask-4.png,mask-2.png,s,1,0.3621361000696197,h,1,0.14301500003784895,0.04672570002730936,0.04883029998745769,0.10023139999248087,0.10099449998233467,0.29935550002846867
RSVPLG03,md,20251028-111355,1.0.1,20251020-085245,719,Experiment,Both,1,Automatic,main,125,20251028-112433,local,local,750,H,S,E,A,E-H.png,A-S.png,hH,sS,mask-2.png,mask-1.png,h,1,0.43861690000630915,h,0,0.09042250004131347,0.047651899978518486,0.04760980000719428,0.10046059999149293,0.09968129999469966,0.7503014999674633
RSVPLG03,md,20251028-112532,1.0.1,20251020-085245,719,Experiment,Both,1,Automatic,warmup,1,20251028-112555,global,local,300,H,S,E,A,H-E.png,A-S.png,hH,sS,mask-2.png,mask-2.png,h,1,0.7961047999560833,h,0,0.04360769991762936,0.040000999928452075,0.04757110006175935,0.09201090002898127,0.09957010007929057,0.293349799932912
RSVPLG03,md,20251028-112532,1.0.1,20251020-085245,719,Experiment,Both,1,Automatic,warmup,2,20251028-112600,global,global,300,S,H,A,E,S-A.png,H-E.png,sS,hH,mask-2.png,mask-1.png,s,1,0.2932031999807805,h,1,0.027353900019079447,0.04766680009197444,0.04810809995979071,0.0997828000690788,0.09937069995794445,0.29945280007086694
RSVPLG03,md,20251028-112532,1.0.1,20251020-085245,719,Experiment,Both,1,Automatic,warmup,3,20251028-112604,local,local,300,S,S,A,E,A-S.png,E-S.png,sS,sS,mask-1.png,mask-2.png,s,1,0.30690470000263304,s,1,0.10731410002335906,0.04754739999771118,0.047560099977999926,0.09959529992192984,0.09970749996136874,0.29989579995162785
RSVPLG03,md,20251028-112532,1.0.1,20251020-085245,719,Experiment,Both,1,Automatic,warmup,4,20251028-112608,local,global,750,S,H,E,E,E-S.png,H-E.png,sS,hH,mask-1.png,mask-1.png,s,1,0.37658379995264113,h,1,0.017534000100567937,0.04748840001411736,0.04649570002220571,0.09950060001574457,0.09952099993824959,0.7502339000348002
RSVPLG03,md,20251028-112532,1.0.1,20251020-085245,719,Experiment,Both,1,Automatic,warmup,5,20251028-112612,global,local,750,H,S,A,A,H-A.png,A-S.png,hH,sS,mask-4.png,mask-4.png,h,1,0.5514239000622183,s,1,0.03742499998770654,0.04674779996275902,0.04771700000856072,0.09907270001713187,0.09999060002155602,0.7500179000198841
RSVPLG03,md,20251028-112532,1.0.1,20251020-085245,719,Experiment,Both,1,Automatic,main,6,20251028-112617,local,local,750,H,H,A,E,A-H.png,E-H.png,hH,hH,mask-2.png,mask-1.png,h,1,0.39995240001007915,h,1,0.07623190002050251,0.04767180001363158,0.04767510003875941,0.09987319994252175,0.098896500072442,0.7511545999441296
RSVPLG03,md,20251028-112532,1.0.1,20251020-085245,719,Experiment,Both,1,Automatic,main,7,20251028-112622,global,global,300,S,S,A,E,S-A.png,S-E.png,sS,sS,mask-3.png,mask-3.png,s,1,0.2427408000221476,s,1,0.23892280005384237,0.04688569996505976,0.04765109997242689,0.09972399997059256,0.09982899995520711,0.3003709999611601
RSVPLG03,md,20251028-112532,1.0.1,20251020-085245,719,Experiment,Both,1,Automatic,main,8,20251028-112626,global,local,300,S,H,E,E,S-E.png,E-H.png,sS,hH,mask-2.png,mask-3.png,h,0,0.31872500001918525,h,1,0.18228810001164675,0.047948500025086105,0.048704000073485076,0.10008649993687868,0.09927030000835657,0.30068939994089305
RSVPLG03,md,20251028-112532,1.0.1,20251020-085245,719,Experiment,Both,1,Automatic,main,9,20251028-112630,local,local,300,H,S,E,E,E-H.png,E-S.png,hH,sS,mask-3.png,mask-1.png,h,1,0.24012959992978722,s,1,0.04955369990784675,0.0476460000500083,0.04855420009698719,0.09981849999167025,0.10177990002557635,0.2987826999742538
RSVPLG03,md,20251028-112532,1.0.1,20251020-085245,719,Experiment,Both,1,Automatic,main,10,20251028-112634,global,local,750,S,H,E,A,S-E.png,A-H.png,sS,hH,mask-1.png,mask-3.png,s,1,0.19825300003867596,h,1,0.128109100041911,0.047699299990199506,0.04866920004133135,0.09952369995880872,0.10006440000142902,0.7495668999617919
RSVPLG03,md,20251028-112532,1.0.1,20251020-085245,719,Experiment,Both,1,Automatic,main,11,20251028-112638,local,local,300,S,H,E,A,E-S.png,A-H.png,sS,hH,mask-3.png,mask-3.png,s,1,0.28774379997048527,h,1,0.0721549999434501,0.04750780004542321,0.048429999966174364,0.10056550009176135,0.10061119997408241,0.3000014000572264
RSVPLG03,md,20251028-112532,1.0.1,20251020-085245,719,Experiment,Both,1,Automatic,main,12,20251028-112643,local,global,750,S,H,E,E,E-S.png,H-E.png,sS,hH,mask-3.png,mask-4.png,s,1,0.3498830000171438,s,0,0.7539353999309242,0.04771620000246912,0.04695879993960261,0.10012139996979386,0.1001037999521941,0.7496188000077382
RSVPLG03,md,20251028-112532,1.0.1,20251020-085245,719,Experiment,Both,1,Automatic,main,13,20251028-112648,local,local,300,H,S,E,E,E-H.png,E-S.png,hH,sS,mask-1.png,mask-4.png,s,0,0.4857181999832392,s,1,0.08950559992808849,0.046543900039978325,0.04859040002338588,0.09938879997935146,0.10079419997055084,0.298957800026983
RSVPLG03,md,20251028-112532,1.0.1,20251020-085245,719,Experiment,Both,1,Automatic,main,14,20251028-112652,global,global,300,S,H,E,E,S-E.png,H-E.png,sS,hH,mask-1.png,mask-4.png,s,1,0.3723645999561995,h,1,0.1344681999180466,0.04733269999269396,0.04723919997923076,0.10151409998070449,0.10141399991698563,0.30016390001401305
RSVPLG03,md,20251028-112532,1.0.1,20251020-085245,719,Experiment,Both,1,Automatic,main,15,20251028-112656,local,local,750,H,H,E,E,E-H.png,E-H.png,hH,hH,mask-2.png,mask-1.png,h,1,0.6005469000665471,s,0,0.15630699996836483,0.047558699967339635,0.046900699962861836,0.09963079995941371,0.09978249995037913,0.7499920000554994
RSVPLG03,md,20251028-112532,1.0.1,20251020-085245,719,Experiment,Both,1,Automatic,main,16,20251028-112701,local,local,300,H,S,E,A,E-H.png,A-S.png,hH,sS,mask-1.png,mask-2.png,h,1,0.5505702000809833,s,1,0.14010760001838207,0.046534799970686436,0.047120400005951524,0.09857459994964302,0.1001854999922216,0.29980719997547567
RSVPLG03,md,20251028-112532,1.0.1,20251020-085245,719,Experiment,Both,1,Automatic,main,17,20251028-112706,global,local,300,H,S,E,E,H-E.png,E-S.png,hH,sS,mask-1.png,mask-1.png,h,1,0.3930873000063002,s,1,0.15048269997350872,0.047529199975542724,0.04752380005083978,0.09853159997146577,0.10050569998566061,0.29976159997750074
RSVPLG03,md,20251028-112532,1.0.1,20251020-085245,719,Experiment,Both,1,Automatic,main,18,20251028-112710,global,global,750,H,H,E,A,H-E.png,H-A.png,hH,hH,mask-3.png,mask-1.png,h,1,0.23565919999964535,h,1,0.11112000001594424,0.046934899990446866,0.047398800030350685,0.09995950001757592,0.10028790007345378,0.7489978999365121
RSVPLG03,md,20251028-112532,1.0.1,20251020-085245,719,Experiment,Both,1,Automatic,main,19,20251028-112714,global,local,300,H,H,E,A,H-E.png,A-H.png,hH,hH,mask-3.png,mask-2.png,h,1,0.388198500033468,h,1,0.0915706999367103,0.04760960000567138,0.04851930006407201,0.10064930003136396,0.1005194999743253,0.2999634000007063
RSVPLG03,md,20251028-112532,1.0.1,20251020-085245,719,Experiment,Both,1,Automatic,main,20,20251028-112719,local,global,750,S,H,E,A,E-S.png,H-A.png,sS,hH,mask-4.png,mask-1.png,s,1,1.8894113000715151,s,0,0.10364169999957085,0.04652510001324117,0.047729199985042214,0.09956040000542998,0.09992199996486306,0.7496203000191599
RSVPLG03,md,20251028-112532,1.0.1,20251020-085245,719,Experiment,Both,1,Automatic,main,21,20251028-112725,local,global,300,S,S,E,E,E-S.png,S-E.png,sS,sS,mask-4.png,mask-3.png,s,1,0.2720022000139579,s,1,0.11746650002896786,0.04598950000945479,0.04736700002104044,0.10009970003739,0.10050579998642206,0.2995208000065759
RSVPLG03,md,20251028-112532,1.0.1,20251020-085245,719,Experiment,Both,1,Automatic,main,22,20251028-112729,global,global,750,H,H,A,E,H-A.png,H-E.png,hH,hH,mask-4.png,mask-4.png,h,1,0.23188500001560897,h,1,0.06726069992873818,0.04668629996012896,0.0466524000512436,0.09989569999743253,0.09987660008482635,0.7505745999515057
RSVPLG03,md,20251028-112532,1.0.1,20251020-085245,719,Experiment,Both,1,Automatic,main,23,20251028-112733,local,global,750,S,H,A,E,A-S.png,H-E.png,sS,hH,mask-2.png,mask-3.png,s,1,0.35242209990974516,s,0,0.07262039999477565,0.04611060000024736,0.04580870002973825,0.0992231999989599,0.09981609997339547,0.7513499000342563
RSVPLG03,md,20251028-112532,1.0.1,20251020-085245,719,Experiment,Both,1,Automatic,main,24,20251028-112738,global,local,750,S,S,E,E,S-E.png,E-S.png,sS,sS,mask-4.png,mask-4.png,s,1,0.3493980000494048,h,0,0.6772984999697655,0.047738100052811205,0.047699700109660625,0.09994690003804862,0.10094110004138201,0.7494920999743044
RSVPLG03,md,20251028-112532,1.0.1,20251020-085245,719,Experiment,Both,1,Automatic,main,25,20251028-112743,global,local,750,S,H,E,E,S-E.png,E-H.png,sS,hH,mask-1.png,mask-2.png,h,0,0.6798622000496835,s,0,0.3122481000609696,0.04669270000886172,0.04767060000449419,0.09986399998888373,0.10084150009788573,0.7499083000002429
RSVPLG03,md,20251028-112532,1.0.1,20251020-085245,719,Experiment,Both,1,Automatic,main,26,20251028-112829,global,global,300,H,S,E,E,H-E.png,S-E.png,hH,sS,mask-4.png,mask-3.png,s,0,1.816679700044915,h,0,0.042383500025607646,0.047774999984540045,0.04709100001491606,0.09994270000606775,0.0988772000418976,0.30055479996372014
RSVPLG03,md,20251028-112532,1.0.1,20251020-085245,719,Experiment,Both,1,Automatic,main,27,20251028-112834,global,global,300,S,S,E,E,S-E.png,S-E.png,sS,sS,mask-1.png,mask-3.png,s,1,0.7881581999827176,h,0,0.04293820005841553,0.047582600032910705,0.045999999972991645,0.09789940004702657,0.1001153999241069,0.3002713000169024
RSVPLG03,md,20251028-112532,1.0.1,20251020-085245,719,Experiment,Both,1,Automatic,main,28,20251028-112839,local,local,750,S,S,E,E,E-S.png,E-S.png,sS,sS,mask-1.png,mask-3.png,s,1,0.2876244999933988,s,1,0.07344509998802096,0.04847179993521422,0.04581839998718351,0.09956130001228303,0.09962649992667139,0.7513159000081941
RSVPLG03,md,20251028-112532,1.0.1,20251020-085245,719,Experiment,Both,1,Automatic,main,29,20251028-112843,global,local,750,S,S,A,E,S-A.png,E-S.png,sS,sS,mask-2.png,mask-3.png,h,0,0.33618800004478544,s,1,0.019454400055110455,0.046899499953724444,0.048899399931542575,0.09991329989861697,0.10198779997881502,0.7492014999734238
RSVPLG03,md,20251028-112532,1.0.1,20251020-085245,719,Experiment,Both,1,Automatic,main,30,20251028-112848,local,local,300,H,S,E,A,E-H.png,A-S.png,hH,sS,mask-2.png,mask-1.png,s,0,0.3927164999768138,h,0,0.10829410003498197,0.048450600006617606,0.0475567999528721,0.10060759994667023,0.09855999995488673,0.30140160000883043
RSVPLG03,md,20251028-112532,1.0.1,20251020-085245,719,Experiment,Both,1,Automatic,main,31,20251028-112852,local,global,300,S,H,A,A,A-S.png,H-A.png,sS,hH,mask-3.png,mask-4.png,s,1,0.3292860999936238,s,0,0.0871827999362722,0.04849640000611544,0.04749260004609823,0.10048539994750172,0.10051759995985776,0.2996878999983892
RSVPLG03,md,20251028-112532,1.0.1,20251020-085245,719,Experiment,Both,1,Automatic,main,32,20251028-112856,global,global,750,S,H,E,A,S-E.png,H-A.png,sS,hH,mask-4.png,mask-4.png,s,1,0.2905031000263989,h,1,0.10864780005067587,0.04767949995584786,0.04867009993176907,0.09993269992992282,0.09986439999192953,0.7491135000018403
RSVPLG03,md,20251028-112532,1.0.1,20251020-085245,719,Experiment,Both,1,Automatic,main,33,20251028-112901,local,local,750,H,H,A,A,A-H.png,A-H.png,hH,hH,mask-2.png,mask-3.png,h,1,0.212941600009799,h,1,0.10515650000888854,0.04776350001338869,0.04668949998449534,0.09973929997067899,0.09803049999754876,0.7502082999562845
RSVPLG03,md,20251028-112532,1.0.1,20251020-085245,719,Experiment,Both,1,Automatic,main,34,20251028-112905,local,local,300,H,H,E,E,E-H.png,E-H.png,hH,hH,mask-4.png,mask-3.png,s,0,0.36021809990052134,h,1,0.5024109000805765,0.047495400067418814,0.04670649999752641,0.10049660003278404,0.09970099991187453,0.3011663000797853
RSVPLG03,md,20251028-112532,1.0.1,20251020-085245,719,Experiment,Both,1,Automatic,main,35,20251028-112910,local,global,750,H,S,E,A,E-H.png,S-A.png,hH,sS,mask-4.png,mask-4.png,s,0,0.2886836000252515,s,1,0.10921749996487051,0.04754169995430857,0.047529099974781275,0.09854409995023161,0.09954279998783022,0.7501172999618575
RSVPLG03,md,20251028-112532,1.0.1,20251020-085245,719,Experiment,Both,1,Automatic,main,36,20251028-112914,local,global,300,S,H,E,E,E-S.png,H-E.png,sS,hH,mask-1.png,mask-1.png,s,1,0.24995560001116246,s,0,0.12101270002312958,0.04764900007285178,0.04788349999580532,0.09982730005867779,0.10070390009786934,0.2984011999797076
RSVPLG03,md,20251028-112532,1.0.1,20251020-085245,719,Experiment,Both,1,Automatic,main,37,20251028-112918,local,local,750,S,S,A,A,A-S.png,A-S.png,sS,sS,mask-2.png,mask-3.png,s,1,0.3001722999615595,s,1,0.45564309996552765,0.047467200085520744,0.0474945999449119,0.10021990002132952,0.10150879994034767,0.7506468000356108
RSVPLG03,md,20251028-112532,1.0.1,20251020-085245,719,Experiment,Both,1,Automatic,main,38,20251028-112923,global,local,750,H,S,E,A,H-E.png,A-S.png,hH,sS,mask-2.png,mask-4.png,h,1,0.18845160002820194,s,1,0.15002119995187968,0.04663060000166297,0.046675499994307756,0.09946350008249283,0.09998270007781684,0.7501410000259057
RSVPLG03,md,20251028-112532,1.0.1,20251020-085245,719,Experiment,Both,1,Automatic,main,39,20251028-112928,global,global,750,H,H,A,E,H-A.png,H-E.png,hH,hH,mask-2.png,mask-1.png,h,1,0.29365360003430396,h,1,0.125328499940224,0.04749889997765422,0.04760269995313138,0.1003282000310719,0.10084559989627451,0.7506831000791863
RSVPLG03,md,20251028-112532,1.0.1,20251020-085245,719,Experiment,Both,1,Automatic,main,40,20251028-112933,local,local,300,H,S,E,A,E-H.png,A-S.png,hH,sS,mask-3.png,mask-2.png,s,0,0.3798786000115797,h,0,0.1344515000237152,0.049468399956822395,0.048580799950286746,0.10153520002495497,0.09957500000018626,0.3006515000015497
RSVPLG03,md,20251028-112532,1.0.1,20251020-085245,719,Experiment,Both,1,Automatic,main,41,20251028-112937,local,local,750,H,S,E,E,E-H.png,E-S.png,hH,sS,mask-4.png,mask-3.png,h,1,0.26185559993609786,s,1,0.07626080000773072,0.046546800062060356,0.04849399998784065,0.0992104000179097,0.0994842000072822,0.7494397000409663
RSVPLG03,md,20251028-112532,1.0.1,20251020-085245,719,Experiment,Both,1,Automatic,main,42,20251028-112941,local,local,300,H,H,E,A,E-H.png,A-H.png,hH,hH,mask-4.png,mask-4.png,h,1,0.8011437000241131,h,1,0.07279430003836751,0.047474200022406876,0.047515799989923835,0.09950600005686283,0.1004949000198394,0.299686299986206
RSVPLG03,md,20251028-112532,1.0.1,20251020-085245,719,Experiment,Both,1,Automatic,main,43,20251028-112946,local,global,750,H,S,A,E,A-H.png,S-E.png,hH,sS,mask-1.png,mask-1.png,h,1,0.4209547999780625,h,0,0.044659300008788705,0.04754119995050132,0.04748539999127388,0.09955519996583462,0.10044670000206679,0.7495351999532431
RSVPLG03,md,20251028-112532,1.0.1,20251020-085245,719,Experiment,Both,1,Automatic,main,44,20251028-112950,global,local,750,S,H,A,A,S-A.png,A-H.png,sS,hH,mask-1.png,mask-2.png,h,0,0.3816645999904722,h,1,0.05915859993547201,0.047512699966318905,0.04853320005349815,0.09951029997318983,0.1005459000589326,0.7494746999582276
RSVPLG03,md,20251028-112532,1.0.1,20251020-085245,719,Experiment,Both,1,Automatic,main,45,20251028-112955,global,global,750,S,H,E,A,S-E.png,H-A.png,sS,hH,mask-4.png,mask-4.png,s,1,0.27074559999164194,h,1,0.10388890001922846,0.04753290000371635,0.04754129995126277,0.10056709998752922,0.1006313000107184,0.7500642000231892
RSVPLG03,md,20251028-112532,1.0.1,20251020-085245,719,Experiment,Both,1,Automatic,main,46,20251028-112959,global,local,300,H,S,A,E,H-A.png,E-S.png,hH,sS,mask-4.png,mask-2.png,h,1,0.4392305000219494,h,0,0.027609100099653006,0.04748249996919185,0.04748589999508113,0.10062559996731579,0.09944259992334992,0.30082270002458245
RSVPLG03,md,20251028-112532,1.0.1,20251020-085245,719,Experiment,Both,1,Automatic,main,47,20251028-113004,global,local,750,S,S,A,E,S-A.png,E-S.png,sS,sS,mask-4.png,mask-3.png,s,1,0.48091799998655915,h,0,0.07989359996281564,0.04749000002630055,0.047519000014290214,0.10049049998633564,0.098583500017412,0.7515806000446901
RSVPLG03,md,20251028-112532,1.0.1,20251020-085245,719,Experiment,Both,1,Automatic,main,48,20251028-113008,global,global,750,S,H,A,E,S-A.png,H-E.png,sS,hH,mask-2.png,mask-2.png,s,1,0.31834529992192984,h,1,0.32742720004171133,0.048483200022019446,0.0466885999776423,0.1004458999959752,0.09959330002311617,0.7510181999532506
RSVPLG03,md,20251028-112532,1.0.1,20251020-085245,719,Experiment,Both,1,Automatic,main,49,20251028-113013,local,global,300,S,H,A,E,A-S.png,H-E.png,sS,hH,mask-2.png,mask-3.png,s,1,0.43868460005614907,s,0,0.10106160002760589,0.04766789998393506,0.0481906000059098,0.09985270001925528,0.10199939995072782,0.29882290004752576
RSVPLG03,md,20251028-112532,1.0.1,20251020-085245,719,Experiment,Both,1,Automatic,main,50,20251028-113018,global,global,750,H,S,E,A,H-E.png,S-A.png,hH,sS,mask-3.png,mask-3.png,h,1,0.3035611999221146,s,1,0.12318839994259179,0.04768580000381917,0.04674119991250336,0.09939640003722161,0.09979429992381483,0.749919900088571
RSVPLG03,md,20251028-112532,1.0.1,20251020-085245,719,Experiment,Both,1,Automatic,main,51,20251028-113036,local,local,300,H,S,E,E,E-H.png,E-S.png,hH,sS,mask-4.png,mask-2.png,s,0,0.3784365999745205,s,1,0.07448280008975416,0.046677200007252395,0.04767959995660931,0.09987569996155798,0.09985360002610832,0.2994905000086874
RSVPLG03,md,20251028-112532,1.0.1,20251020-085245,719,Experiment,Both,1,Automatic,main,52,20251028-113040,global,global,750,H,H,E,E,H-E.png,H-E.png,hH,hH,mask-2.png,mask-2.png,h,1,0.13062489998992532,h,1,0.07699179998598993,0.04874210001435131,0.047670100000686944,0.10097250004764646,0.09972619998734444,0.7511467000003904
RSVPLG03,md,20251028-112532,1.0.1,20251020-085245,719,Experiment,Both,1,Automatic,main,53,20251028-113044,global,global,300,H,S,E,E,H-E.png,S-E.png,hH,sS,mask-1.png,mask-4.png,h,1,0.44803119997959584,s,1,0.08689150004647672,0.04732979997061193,0.04748870001640171,0.10014009999576956,0.09937900002114475,0.30035050003789365
RSVPLG03,md,20251028-112532,1.0.1,20251020-085245,719,Experiment,Both,1,Automatic,main,54,20251028-113049,global,global,300,H,H,A,A,H-A.png,H-A.png,hH,hH,mask-2.png,mask-3.png,h,1,0.2957490999251604,h,1,0.16282490000594407,0.047554600052535534,0.047548200003802776,0.10063390003051609,0.10060299991164356,0.2999075000407174
RSVPLG03,md,20251028-112532,1.0.1,20251020-085245,719,Experiment,Both,1,Automatic,main,55,20251028-113053,local,global,750,S,H,A,A,A-S.png,H-A.png,sS,hH,mask-4.png,mask-1.png,s,1,0.48171480000019073,h,1,0.1954183999914676,0.045718900044448674,0.04752220003865659,0.0993583999807015,0.10055050009395927,0.7499503999715671
RSVPLG03,md,20251028-112532,1.0.1,20251020-085245,719,Experiment,Both,1,Automatic,main,56,20251028-113058,local,local,300,S,S,E,A,E-S.png,A-S.png,sS,sS,mask-2.png,mask-1.png,s,1,0.3011119000148028,h,0,0.10804329998791218,0.04760249995160848,0.04750310000963509,0.09958609996829182,0.09851989999879152,0.3002371999900788
RSVPLG03,md,20251028-112532,1.0.1,20251020-085245,719,Experiment,Both,1,Automatic,main,57,20251028-113102,local,global,300,S,S,A,E,A-S.png,S-E.png,sS,sS,mask-4.png,mask-3.png,s,1,0.32880509993992746,s,1,0.10290629998780787,0.04749710008036345,0.048592599923722446,0.09850060008466244,0.09959669993259013,0.2991179000819102
RSVPLG03,md,20251028-112532,1.0.1,20251020-085245,719,Experiment,Both,1,Automatic,main,58,20251028-113106,local,local,750,H,H,A,A,A-H.png,A-H.png,hH,hH,mask-3.png,mask-4.png,s,0,0.3913495000451803,s,0,0.07565919996704906,0.04756999993696809,0.04756360000465065,0.09969579998869449,0.09959710005205125,0.7500868999632075
RSVPLG03,md,20251028-112532,1.0.1,20251020-085245,719,Experiment,Both,1,Automatic,main,59,20251028-113110,local,local,300,H,S,E,E,E-H.png,E-S.png,hH,sS,mask-4.png,mask-2.png,h,1,0.33218470006249845,s,1,0.08877220004796982,0.046469499939121306,0.04752550006378442,0.10008929995819926,0.1005152000579983,0.3004770999541506
RSVPLG03,md,20251028-112532,1.0.1,20251020-085245,719,Experiment,Both,1,Automatic,main,60,20251028-113115,global,local,750,H,H,A,E,H-A.png,E-H.png,hH,hH,mask-2.png,mask-3.png,h,1,0.3556021999102086,s,0,0.12503730005118996,0.04849280009511858,0.048434600001201034,0.10049830004572868,0.10094879998359829,0.7494126000674441
RSVPLG03,md,20251028-112532,1.0.1,20251020-085245,719,Experiment,Both,1,Automatic,main,61,20251028-113119,global,local,750,H,S,A,A,H-A.png,A-S.png,hH,sS,mask-3.png,mask-1.png,h,1,0.45033499994315207,h,0,0.09761059994343668,0.04732519993558526,0.04651519993785769,0.09833619999699295,0.1004967000335455,0.749818200012669
RSVPLG03,md,20251028-112532,1.0.1,20251020-085245,719,Experiment,Both,1,Automatic,main,62,20251028-113124,local,global,300,S,H,E,E,E-S.png,H-E.png,sS,hH,mask-4.png,mask-3.png,s,1,0.41040970000904053,s,0,0.10556840000208467,0.0489969999762252,0.04721849993802607,0.10004250006750226,0.09905359998811036,0.3018181000370532
RSVPLG03,md,20251028-112532,1.0.1,20251020-085245,719,Experiment,Both,1,Automatic,main,63,20251028-113128,local,global,300,S,S,A,E,A-S.png,S-E.png,sS,sS,mask-3.png,mask-2.png,s,1,0.5875573999946937,s,1,0.09156500000972301,0.04746010003145784,0.04749940009787679,0.10042909998446703,0.09947750007268041,0.3006906999507919
RSVPLG03,md,20251028-112532,1.0.1,20251020-085245,719,Experiment,Both,1,Automatic,main,64,20251028-113133,local,global,750,H,H,A,A,A-H.png,H-A.png,hH,hH,mask-1.png,mask-4.png,h,1,0.6161238999338821,s,0,0.10512079996988177,0.04766619997099042,0.045983899966813624,0.09986550000030547,0.09974799992050976,0.7498360000317916
RSVPLG03,md,20251028-112532,1.0.1,20251020-085245,719,Experiment,Both,1,Automatic,main,65,20251028-113137,global,local,300,S,S,A,A,S-A.png,A-S.png,sS,sS,mask-3.png,mask-4.png,s,1,0.37913919996935874,s,1,0.08369649993255734,0.04750330001115799,0.04752090002875775,0.100849200040102,0.09960050007794052,0.3002349999733269
RSVPLG03,md,20251028-112532,1.0.1,20251020-085245,719,Experiment,Both,1,Automatic,main,66,20251028-113142,global,local,750,S,S,E,A,S-E.png,A-S.png,sS,sS,mask-1.png,mask-4.png,s,1,0.6379053000127897,s,1,0.25361979997251183,0.04774469998665154,0.047515799989923835,0.09904749994166195,0.09819689998403192,0.7506322999252006
RSVPLG03,md,20251028-112532,1.0.1,20251020-085245,719,Experiment,Both,1,Automatic,main,67,20251028-113147,global,global,300,S,H,E,A,S-E.png,H-A.png,sS,hH,mask-1.png,mask-1.png,s,1,0.31300790002569556,h,1,0.08457140007521957,0.0477122999727726,0.04698870005086064,0.10015930002555251,0.10006229998543859,0.3001564999576658
RSVPLG03,md,20251028-112532,1.0.1,20251020-085245,719,Experiment,Both,1,Automatic,main,68,20251028-113151,global,global,300,H,S,E,E,H-E.png,S-E.png,hH,sS,mask-1.png,mask-2.png,h,1,0.3546899000648409,s,1,0.13817779999226332,0.04750949994195253,0.04749709996394813,0.09954279998783022,0.09975109994411469,0.299659900018014
RSVPLG03,md,20251028-112532,1.0.1,20251020-085245,719,Experiment,Both,1,Automatic,main,69,20251028-113155,global,global,750,S,S,A,A,S-A.png,S-A.png,sS,sS,mask-1.png,mask-4.png,s,1,0.5125383000122383,h,0,0.1853987000649795,0.049090499989688396,0.048706999979913235,0.1013559999410063,0.10079020005650818,0.7505227999063209
RSVPLG03,md,20251028-112532,1.0.1,20251020-085245,719,Experiment,Both,1,Automatic,main,70,20251028-113200,global,global,750,S,S,A,A,S-A.png,S-A.png,sS,sS,mask-4.png,mask-3.png,s,1,0.07131909998133779,s,1,0.15541050001047552,0.04659619997255504,0.04751920001581311,0.09865339996758848,0.10054310003761202,0.7494593999581411
RSVPLG03,md,20251028-112532,1.0.1,20251020-085245,719,Experiment,Both,1,Automatic,main,71,20251028-113204,local,local,750,S,S,A,A,A-S.png,A-S.png,sS,sS,mask-3.png,mask-2.png,s,1,0.565073800040409,s,1,0.09310719999484718,0.04758750007022172,0.0485796999419108,0.0986896000104025,0.10036489996127784,0.7486031000735238
RSVPLG03,md,20251028-112532,1.0.1,20251020-085245,719,Experiment,Both,1,Automatic,main,72,20251028-113209,global,global,750,H,S,A,E,H-A.png,S-E.png,hH,sS,mask-2.png,mask-4.png,h,1,0.9421452000970021,s,1,0.12262280005961657,0.04771840001922101,0.048493699985556304,0.0999312000349164,0.10042389994487166,0.7498195000225678
RSVPLG03,md,20251028-112532,1.0.1,20251020-085245,719,Experiment,Both,1,Automatic,main,73,20251028-113214,local,global,300,H,H,A,A,A-H.png,H-A.png,hH,hH,mask-1.png,mask-2.png,h,1,0.7781614999985322,h,1,0.08635349990800023,0.04767110000830144,0.04648720007389784,0.09913119999691844,0.09951860003639013,0.2999871999491006
RSVPLG03,md,20251028-112532,1.0.1,20251020-085245,719,Experiment,Both,1,Automatic,main,74,20251028-113219,global,local,300,H,S,E,A,H-E.png,A-S.png,hH,sS,mask-1.png,mask-2.png,h,1,0.5837758000707254,h,0,0.2041844999184832,0.04497669998090714,0.04647349996957928,0.10007460007909685,0.09956120001152158,0.30015350005123764
RSVPLG03,md,20251028-112532,1.0.1,20251020-085245,719,Experiment,Both,1,Automatic,main,75,20251028-113223,local,global,750,H,H,A,A,A-H.png,H-A.png,hH,hH,mask-4.png,mask-4.png,h,1,0.23611759999766946,s,0,0.08744260005187243,0.04647479997947812,0.048494899994693696,0.0986942999297753,0.10025519994087517,0.7490158999571577
RSVPLG03,md,20251028-112532,1.0.1,20251020-085245,719,Experiment,Both,1,Automatic,main,76,20251028-113234,local,global,750,S,S,E,A,E-S.png,S-A.png,sS,sS,mask-1.png,mask-4.png,s,1,0.3819110000040382,s,1,0.07139619998633862,0.045772099983878434,0.047535300021991134,0.0988062999676913,0.0988967000739649,0.7503412999212742
RSVPLG03,md,20251028-112532,1.0.1,20251020-085245,719,Experiment,Both,1,Automatic,main,77,20251028-113239,global,local,300,S,S,E,A,S-E.png,A-S.png,sS,sS,mask-1.png,mask-2.png,s,1,0.3914407000411302,h,0,0.04513310000766069,0.04766760009806603,0.04769759997725487,0.10086560004856437,0.09977369999978691,0.30044950009323657
RSVPLG03,md,20251028-112532,1.0.1,20251020-085245,719,Experiment,Both,1,Automatic,main,78,20251028-113243,global,global,300,S,S,A,E,S-A.png,S-E.png,sS,sS,mask-2.png,mask-3.png,s,1,0.22950889996718615,s,1,0.08296020003035665,0.048654899932444096,0.047659400035627186,0.10185959993395954,0.09971520002000034,0.30180539994034916
RSVPLG03,md,20251028-112532,1.0.1,20251020-085245,719,Experiment,Both,1,Automatic,main,79,20251028-113247,local,global,300,H,H,A,E,A-H.png,H-E.png,hH,hH,mask-4.png,mask-4.png,h,1,0.30273190001025796,s,0,0.4283463000319898,0.0474899000255391,0.04817690001800656,0.10048870008904487,0.10097550007048994,0.2994290000060573
RSVPLG03,md,20251028-112532,1.0.1,20251020-085245,719,Experiment,Both,1,Automatic,main,80,20251028-113252,local,local,750,H,S,A,A,A-H.png,A-S.png,hH,sS,mask-3.png,mask-3.png,s,0,0.5174113000975922,s,1,0.13217810005880892,0.04672430001664907,0.04654119990300387,0.09995250008068979,0.09960059996228665,0.7496892000781372
RSVPLG03,md,20251028-112532,1.0.1,20251020-085245,719,Experiment,Both,1,Automatic,main,81,20251028-113256,local,global,300,S,H,E,E,E-S.png,H-E.png,sS,hH,mask-3.png,mask-1.png,s,1,0.44543559988960624,s,0,0.2958713999250904,0.045763000031001866,0.048517399933189154,0.09898580005392432,0.10152509994804859,0.2992657000431791
RSVPLG03,md,20251028-112532,1.0.1,20251020-085245,719,Experiment,Both,1,Automatic,main,82,20251028-113301,local,global,750,S,H,E,A,E-S.png,H-A.png,sS,hH,mask-2.png,mask-1.png,s,1,0.35586959996726364,h,1,0.1851740999845788,0.0485211000777781,0.04751149995718151,0.09962560003623366,0.09856860002037138,0.7518395000370219
RSVPLG03,md,20251028-112532,1.0.1,20251020-085245,719,Experiment,Both,1,Automatic,main,83,20251028-113305,global,global,300,S,S,E,E,S-E.png,S-E.png,sS,sS,mask-4.png,mask-3.png,h,0,0.5967791998991743,s,1,0.05497040005866438,0.04856120003387332,0.04750280000735074,0.1006272000959143,0.10152510006446391,0.2997074000304565
RSVPLG03,md,20251028-112532,1.0.1,20251020-085245,719,Experiment,Both,1,Automatic,main,84,20251028-113310,global,global,750,S,S,A,A,S-A.png,S-A.png,sS,sS,mask-2.png,mask-2.png,s,1,0.35631279996596277,s,1,0.09180010005366057,0.047475799918174744,0.047534900018945336,0.10002479993272573,0.0997252999804914,0.7509588999673724
RSVPLG03,md,20251028-112532,1.0.1,20251020-085245,719,Experiment,Both,1,Automatic,main,85,20251028-113314,local,global,750,H,H,A,E,A-H.png,H-E.png,hH,hH,mask-2.png,mask-3.png,h,1,0.38892169995233417,s,0,0.13540270004887134,0.046471400070004165,0.04687819990795106,0.10090230009518564,0.10106089990586042,0.750502800103277
RSVPLG03,md,20251028-112532,1.0.1,20251020-085245,719,Experiment,Both,1,Automatic,main,86,20251028-113319,local,local,300,S,H,A,A,A-S.png,A-H.png,sS,hH,mask-4.png,mask-4.png,h,0,0.5453318000072613,s,0,0.11952519998885691,0.04762470000423491,0.04775079991668463,0.0998181999893859,0.1002088999375701,0.29991529998369515
RSVPLG03,md,20251028-112532,1.0.1,20251020-085245,719,Experiment,Both,1,Automatic,main,87,20251028-113323,global,local,750,S,S,A,A,S-A.png,A-S.png,sS,sS,mask-3.png,mask-4.png,s,1,0.35156969993840903,h,0,0.12297740008216351,0.04749340005218983,0.048123600077815354,0.10048569994978607,0.10094130004290491,0.7508956999517977
RSVPLG03,md,20251028-112532,1.0.1,20251020-085245,719,Experiment,Both,1,Automatic,main,88,20251028-113328,global,local,750,S,H,E,E,S-E.png,E-H.png,sS,hH,mask-3.png,mask-1.png,s,1,0.3897647000849247,h,1,0.27535140002146363,0.04749330005142838,0.04749150003772229,0.09850550000555813,0.09847039997112006,0.7505362000083551
RSVPLG03,md,20251028-112532,1.0.1,20251020-085245,719,Experiment,Both,1,Automatic,main,89,20251028-113333,local,global,300,S,S,E,E,E-S.png,S-E.png,sS,sS,mask-3.png,mask-4.png,s,1,0.3114671999355778,s,1,0.10349520004820079,0.04652199998963624,0.04757559997960925,0.09955929999705404,0.10087460000067949,0.2992561999708414
RSVPLG03,md,20251028-112532,1.0.1,20251020-085245,719,Experiment,Both,1,Automatic,main,90,20251028-113337,global,local,300,H,S,A,E,H-A.png,E-S.png,hH,sS,mask-1.png,mask-1.png,h,1,0.3153080999618396,s,1,0.131367800058797,0.04753099998924881,0.046493600006215274,0.09950140002183616,0.10054859996307641,0.29985569999553263
RSVPLG03,md,20251028-112532,1.0.1,20251020-085245,719,Experiment,Both,1,Automatic,main,91,20251028-113341,local,global,750,S,H,E,A,E-S.png,H-A.png,sS,hH,mask-4.png,mask-4.png,s,1,0.44533640006557107,s,0,0.08503670000936836,0.04670740000437945,0.046699400059878826,0.10011949995532632,0.0998801999958232,0.7512991999974474
RSVPLG03,md,20251028-112532,1.0.1,20251020-085245,719,Experiment,Both,1,Automatic,main,92,20251028-113346,local,global,300,H,H,A,A,A-H.png,H-A.png,hH,hH,mask-3.png,mask-3.png,h,1,0.3462953999405727,s,0,0.10876139998435974,0.046573400031775236,0.046782399993389845,0.10048959997948259,0.09988860005978495,0.30072920001111925
RSVPLG03,md,20251028-112532,1.0.1,20251020-085245,719,Experiment,Both,1,Automatic,main,93,20251028-113350,global,local,300,H,S,A,A,H-A.png,A-S.png,hH,sS,mask-2.png,mask-2.png,h,1,0.3069701000349596,h,0,0.0562283000908792,0.04652249999344349,0.048573800013400614,0.09957089996896684,0.10053619998507202,0.29886700003407896
RSVPLG03,md,20251028-112532,1.0.1,20251020-085245,719,Experiment,Both,1,Automatic,main,94,20251028-113354,local,global,300,S,H,E,E,E-S.png,H-E.png,sS,hH,mask-3.png,mask-3.png,s,1,0.2872880999930203,s,0,0.07067729998379946,0.049503999995067716,0.047623799997381866,0.10075069998856634,0.09994089999236166,0.3022091999882832
RSVPLG03,md,20251028-112532,1.0.1,20251020-085245,719,Experiment,Both,1,Automatic,main,95,20251028-113358,local,local,750,S,H,E,A,E-S.png,A-H.png,sS,hH,mask-4.png,mask-3.png,s,1,0.4133781000273302,h,1,0.4923210999695584,0.04574950004462153,0.047666899976320565,0.09985540003981441,0.09964939998462796,0.7501522999955341
RSVPLG03,md,20251028-112532,1.0.1,20251020-085245,719,Experiment,Both,1,Automatic,main,96,20251028-113403,global,local,300,H,H,E,A,H-E.png,A-H.png,hH,hH,mask-3.png,mask-4.png,h,1,0.4220628999173641,h,1,0.08102590008638799,0.04603459988720715,0.04751539998687804,0.09966919990256429,0.10052139998879284,0.2999684999231249
RSVPLG03,md,20251028-112532,1.0.1,20251020-085245,719,Experiment,Both,1,Automatic,main,97,20251028-113407,global,local,750,S,S,A,E,S-A.png,E-S.png,sS,sS,mask-2.png,mask-2.png,s,1,0.17689619993325323,h,0,0.004318300052545965,0.04751820000819862,0.04855539998970926,0.09959180001169443,0.10058349999599159,0.7487438999814913
RSVPLG03,md,20251028-112532,1.0.1,20251020-085245,719,Experiment,Both,1,Automatic,main,98,20251028-113412,local,local,750,H,S,A,A,A-H.png,A-S.png,hH,sS,mask-3.png,mask-2.png,h,1,0.9423277999740094,s,1,0.054193299962207675,0.04763669997919351,0.04862220003269613,0.09964249993208796,0.10049049998633564,0.7487084999447688
RSVPLG03,md,20251028-112532,1.0.1,20251020-085245,719,Experiment,Both,1,Automatic,main,99,20251028-113417,global,local,300,H,S,E,A,H-E.png,A-S.png,hH,sS,mask-3.png,mask-3.png,h,1,0.7209029000950977,h,0,0.03730819991324097,0.048583999974653125,0.04755809996277094,0.10064359998796135,0.09954599989578128,0.3010371000273153
RSVPLG03,md,20251028-112532,1.0.1,20251020-085245,719,Experiment,Both,1,Automatic,main,100,20251028-113421,local,local,300,S,H,E,E,E-S.png,E-H.png,sS,hH,mask-3.png,mask-1.png,s,1,0.24777820007875562,h,1,0.8202547000255436,0.04847999999765307,0.04764420003630221,0.10031260002870113,0.10085270006675273,0.30023239995352924
RSVPLG03,md,20251028-112532,1.0.1,20251020-085245,719,Experiment,Both,1,Automatic,main,101,20251028-113512,global,local,750,S,H,E,A,S-E.png,A-H.png,sS,hH,mask-2.png,mask-1.png,s,1,0.2036655000410974,h,1,0.027065100031904876,0.04701229999773204,0.04869270010385662,0.09862449998036027,0.10187230003066361,0.7487971999216825
RSVPLG03,md,20251028-112532,1.0.1,20251020-085245,719,Experiment,Both,1,Automatic,main,102,20251028-113516,global,local,300,S,S,E,A,S-E.png,A-S.png,sS,sS,mask-1.png,mask-1.png,s,1,0.3118238999741152,h,0,0.011648099985904992,0.04770350002218038,0.047718900023028255,0.09955889999400824,0.10063640004955232,0.300167000037618
RSVPLG03,md,20251028-112532,1.0.1,20251020-085245,719,Experiment,Both,1,Automatic,main,103,20251028-113520,global,global,300,S,S,A,A,S-A.png,S-A.png,sS,sS,mask-2.png,mask-4.png,h,0,0.1319260000018403,s,1,0.04957180004566908,0.047607599990442395,0.04752240004017949,0.10064080008305609,0.10057200002484024,0.299992399988696
RSVPLG03,md,20251028-112532,1.0.1,20251020-085245,719,Experiment,Both,1,Automatic,main,104,20251028-113524,global,global,750,H,S,A,E,H-A.png,S-E.png,hH,sS,mask-1.png,mask-1.png,h,1,0.22331359994132072,s,1,0.0377349000191316,0.0479924000101164,0.047799899941310287,0.10069240001030266,0.10052400000859052,0.7504304000176489
RSVPLG03,md,20251028-112532,1.0.1,20251020-085245,719,Experiment,Both,1,Automatic,main,105,20251028-113528,local,global,750,S,H,E,E,E-S.png,H-E.png,sS,hH,mask-3.png,mask-2.png,s,1,0.22828699997626245,s,0,0.09962200000882149,0.047323100036010146,0.04631939996033907,0.10014049999881536,0.09851149993482977,0.751323000062257
RSVPLG03,md,20251028-112532,1.0.1,20251020-085245,719,Experiment,Both,1,Automatic,main,106,20251028-113533,global,local,300,S,S,A,A,S-A.png,A-S.png,sS,sS,mask-4.png,mask-2.png,s,1,0.2427296000532806,h,0,0.09670330001972616,0.0477120999712497,0.04666999995242804,0.0998000999679789,0.099842399940826,0.30028079997282475
