exp,exp_initials,runtime,ver,modtime,sub,blocktype,targets,cuetype,mode,trialtype,trial,trialtime,t1_level,t2_level,t2_lag,t1,t2,distractor1,distractor2,stimfile1,stimfile2,t1_corr,t2_corr,maskfile1,maskfile2,t1_resp,t1_acc,t1_rt,t2_resp,t2_acc,t2_rt,t1_dur,t2_dur,t1mask_soa,t2mask_soa,t1t2_soa
RSVPLG03,si,20260430-151425,1.0.2,20260219-152011,832,Introduction,T1,1,Automatic,main,1,20260430-151453,local,local,750,S,S,A,E,A-S.png,E-S.png,sS,sS,mask-1.png,mask-3.png,h,0,9.42435420001857,none,-5,0,0.09313510009087622,0.09980650013312697,0.1923873999621719,0.198817600030452,0.7426757998764515
RSVPLG03,si,20260430-151425,1.0.2,20260219-152011,832,Introduction,T1,1,Automatic,main,2,20260430-151507,local,local,750,H,H,A,A,A-H.png,A-H.png,hH,hH,mask-3.png,mask-4.png,h,1,2.2359939999878407,none,-5,0,0.10030429996550083,0.10106559982523322,0.20096489996649325,0.20139959990046918,0.7489012000150979
RSVPLG03,si,20260430-151425,1.0.2,20260219-152011,832,Introduction,T1,1,Automatic,main,3,20260430-151513,global,global,750,S,H,E,E,S-E.png,H-E.png,sS,hH,mask-2.png,mask-4.png,s,1,0.4829854001291096,none,-5,0,0.10044820001348853,0.1014059002045542,0.20059820008464158,0.20020890003070235,0.7498367999214679
RSVPLG03,si,20260430-151425,1.0.2,20260219-152011,832,Introduction,T1,1,Automatic,main,4,20260430-151518,local,local,750,S,H,E,E,E-S.png,E-H.png,sS,hH,mask-3.png,mask-1.png,h,0,4.046694800024852,none,-5,0,0.09987420006655157,0.09701340016908944,0.20016250014305115,0.19625989999622107,0.7532009000424296
RSVPLG03,si,20260430-151425,1.0.2,20260219-152011,832,Introduction,T1,1,Automatic,main,5,20260430-151526,global,local,750,H,S,E,A,H-E.png,A-S.png,hH,sS,mask-4.png,mask-2.png,h,1,1.801414400106296,none,-5,0,0.09947329992428422,0.0967944001313299,0.1998044999781996,0.19630940002389252,0.7537809999193996
RSVPLG03,si,20260430-151425,1.0.2,20260219-152011,832,Introduction,T1,1,Automatic,main,6,20260430-151532,global,local,750,S,H,E,E,S-E.png,E-H.png,sS,hH,mask-3.png,mask-2.png,s,1,0.2942800000309944,none,-5,0,0.10130350012332201,0.09983700001612306,0.2004460000898689,0.20000689988955855,0.7516276000533253
RSVPLG03,si,20260430-151425,1.0.2,20260219-152011,832,Introduction,T1,1,Automatic,main,7,20260430-151536,local,global,750,S,H,A,A,A-S.png,H-A.png,sS,hH,mask-4.png,mask-4.png,h,0,0.825793500058353,none,-5,0,0.10057919984683394,0.10051029990427196,0.20084469998255372,0.1997607999946922,0.7495923999231309
RSVPLG03,si,20260430-151425,1.0.2,20260219-152011,832,Introduction,T1,1,Automatic,main,8,20260430-151541,global,global,750,H,S,A,A,H-A.png,S-A.png,hH,sS,mask-1.png,mask-1.png,s,0,1.6745951001066715,none,-5,0,0.09701510006561875,0.09891210007481277,0.19710229989141226,0.1991989000234753,0.7478771000169218
RSVPLG03,si,20260430-151425,1.0.2,20260219-152011,832,Introduction,T1,1,Automatic,main,9,20260430-151547,global,local,750,S,H,E,A,S-E.png,A-H.png,sS,hH,mask-1.png,mask-3.png,s,1,4.7698240000754595,none,-5,0,0.1005186999682337,0.09998150006867945,0.20066529978066683,0.19809999992139637,0.7511358999181539
RSVPLG03,si,20260430-151425,1.0.2,20260219-152011,832,Introduction,T1,1,Automatic,main,10,20260430-151556,global,global,750,H,H,A,E,H-A.png,H-E.png,hH,hH,mask-2.png,mask-4.png,s,0,0.5828881000634283,none,-5,0,0.10056200018152595,0.09904860006645322,0.19893000018782914,0.19933950016275048,0.7488170999567956
RSVPLG03,si,20260430-151425,1.0.2,20260219-152011,832,Introduction,T1,1,Automatic,main,11,20260430-151601,global,local,750,H,H,A,E,H-A.png,E-H.png,hH,hH,mask-2.png,mask-4.png,s,0,1.3912591999396682,none,-5,0,0.09838489978574216,0.09936079988256097,0.199011699995026,0.1989633000921458,0.7490250999107957
RSVPLG03,si,20260430-151425,1.0.2,20260219-152011,832,Introduction,T1,1,Automatic,main,12,20260430-151607,local,local,750,H,S,E,A,E-H.png,A-S.png,hH,sS,mask-1.png,mask-2.png,s,0,2.7140802999492735,none,-5,0,0.0990599999204278,0.09924370003864169,0.20076179993338883,0.19939200021326542,0.7501776998396963
RSVPLG03,si,20260430-151425,1.0.2,20260219-152011,832,Introduction,T1,1,Automatic,main,13,20260430-151613,local,global,750,S,H,E,E,E-S.png,H-E.png,sS,hH,mask-2.png,mask-3.png,s,1,1.3030660999938846,none,-5,0,0.09933870006352663,0.10001559997908771,0.2002978001255542,0.19967499980702996,0.7489083001855761
RSVPLG03,si,20260430-151425,1.0.2,20260219-152011,832,Introduction,T1,1,Automatic,main,14,20260430-151619,global,global,750,S,H,A,E,S-A.png,H-E.png,sS,hH,mask-2.png,mask-1.png,s,1,1.180949600180611,none,-5,0,0.09967729984782636,0.10178190004080534,0.19964829995296896,0.20081080007366836,0.7487354998011142
RSVPLG03,si,20260430-151425,1.0.2,20260219-152011,832,Introduction,T1,1,Automatic,main,15,20260430-151624,local,global,750,S,H,E,A,E-S.png,H-A.png,sS,hH,mask-3.png,mask-3.png,s,1,1.6413221000693738,none,-5,0,0.09856770001351833,0.10087189986370504,0.200215500080958,0.198971499921754,0.7494189001154155
RSVPLG03,si,20260430-151425,1.0.2,20260219-152011,832,Introduction,T1,1,Automatic,main,16,20260430-151630,local,global,750,H,S,E,A,E-H.png,S-A.png,hH,sS,mask-3.png,mask-3.png,h,1,3.905985400080681,none,-5,0,0.09987240005284548,0.1006774001289159,0.1998183000832796,0.2007033999543637,0.7486636999528855
RSVPLG03,si,20260430-151713,1.0.2,20260219-152011,832,Practice,T1,1,Automatic,main,1,20260430-151758,global,global,300,S,S,A,A,S-A.png,S-A.png,sS,sS,mask-3.png,mask-3.png,s,1,2.3903799999970943,none,-5,0,0.04884880012832582,0.049991299863904715,0.10048160003498197,0.1004572999663651,0.2996948000509292
RSVPLG03,si,20260430-151713,1.0.2,20260219-152011,832,Practice,T1,1,Automatic,main,2,20260430-151804,global,local,750,S,H,A,A,S-A.png,A-H.png,sS,hH,mask-4.png,mask-2.png,s,1,1.0823510999325663,none,-5,0,0.050089299911633134,0.05049979989416897,0.10020249988883734,0.10087669990025461,0.7495973000768572
RSVPLG03,si,20260430-151713,1.0.2,20260219-152011,832,Practice,T1,1,Automatic,main,3,20260430-151809,global,global,750,S,H,E,A,S-E.png,H-A.png,sS,hH,mask-1.png,mask-4.png,s,1,0.4417028999887407,none,-5,0,0.05196449998766184,0.049697599839419127,0.10103749996051192,0.0991884998511523,0.7510400000028312
RSVPLG03,si,20260430-151713,1.0.2,20260219-152011,832,Practice,T1,1,Automatic,main,4,20260430-151814,global,local,750,H,S,E,A,H-E.png,A-S.png,hH,sS,mask-3.png,mask-2.png,h,1,0.8754614000208676,none,-5,0,0.04982029995881021,0.05158960004337132,0.10085019981488585,0.1008061000611633,0.7486957998480648
RSVPLG03,si,20260430-151713,1.0.2,20260219-152011,832,Practice,T1,1,Automatic,main,5,20260430-151819,local,global,750,S,H,A,E,A-S.png,H-E.png,sS,hH,mask-4.png,mask-2.png,s,1,1.6387537999544293,none,-5,0,0.050054100109264255,0.04883070010691881,0.10037910006940365,0.0975734000094235,0.7523137999232858
RSVPLG03,si,20260430-151713,1.0.2,20260219-152011,832,Practice,T1,1,Automatic,main,6,20260430-151824,local,local,300,H,H,E,A,E-H.png,A-H.png,hH,hH,mask-2.png,mask-1.png,h,1,2.2457465999759734,none,-5,0,0.04975660005584359,0.050226799910888076,0.10063060000538826,0.10005409992299974,0.29947399999946356
RSVPLG03,si,20260430-151713,1.0.2,20260219-152011,832,Practice,T1,1,Automatic,main,7,20260430-151830,local,global,300,S,S,A,E,A-S.png,S-E.png,sS,sS,mask-2.png,mask-3.png,s,1,1.4022973999381065,none,-5,0,0.05020419997163117,0.050632699858397245,0.1004290001001209,0.09884390002116561,0.3004819001071155
RSVPLG03,si,20260430-151713,1.0.2,20260219-152011,832,Practice,T1,1,Automatic,main,8,20260430-151835,local,local,300,S,H,E,E,E-S.png,E-H.png,sS,hH,mask-1.png,mask-4.png,s,1,1.2661991000641137,none,-5,0,0.05210809991694987,0.050638399785384536,0.10205149999819696,0.09969289996661246,0.30001410003751516
RSVPLG03,si,20260430-151713,1.0.2,20260219-152011,832,Practice,T1,1,Automatic,main,9,20260430-151840,global,global,300,H,S,A,A,H-A.png,S-A.png,hH,sS,mask-1.png,mask-1.png,h,1,0.8737049999181181,none,-5,0,0.050142700085416436,0.049526199931278825,0.09895289991982281,0.09912490006536245,0.3013498999644071
RSVPLG03,si,20260430-151713,1.0.2,20260219-152011,832,Practice,T1,1,Automatic,main,10,20260430-151845,local,global,750,H,S,A,A,A-H.png,S-A.png,hH,sS,mask-4.png,mask-3.png,h,1,0.9144194000400603,none,-5,0,0.04846409987658262,0.0499381001573056,0.09998840000480413,0.10006209998391569,0.7477491998579353
RSVPLG03,si,20260430-151713,1.0.2,20260219-152011,832,Practice,T1,1,Automatic,main,11,20260430-151850,local,global,300,H,H,A,A,A-H.png,H-A.png,hH,hH,mask-4.png,mask-1.png,s,0,1.2356859999708831,none,-5,0,0.0488175000064075,0.052406599977985024,0.09999409993179142,0.09989390010014176,0.30021069990471005
RSVPLG03,si,20260430-151713,1.0.2,20260219-152011,832,Practice,T1,1,Automatic,main,12,20260430-151854,global,local,300,H,S,E,A,H-E.png,A-S.png,hH,sS,mask-1.png,mask-4.png,h,1,1.2097468001302332,none,-5,0,0.049415400018915534,0.049192799953743815,0.0983192001003772,0.10065039992332458,0.2988073001615703
RSVPLG03,si,20260430-151713,1.0.2,20260219-152011,832,Practice,T1,1,Automatic,main,13,20260430-151859,local,local,750,H,S,A,E,A-H.png,E-S.png,hH,sS,mask-2.png,mask-2.png,h,1,0.8498303000815213,none,-5,0,0.05024839984253049,0.04998970008455217,0.10002380004152656,0.10034339991398156,0.7509085999336094
RSVPLG03,si,20260430-151713,1.0.2,20260219-152011,832,Practice,T1,1,Automatic,main,14,20260430-151904,global,global,750,H,H,A,E,H-A.png,H-E.png,hH,hH,mask-3.png,mask-3.png,h,1,0.36828649998642504,none,-5,0,0.05061819986440241,0.05108430003747344,0.10025230003520846,0.10127300000749528,0.7492608998436481
RSVPLG03,si,20260430-151713,1.0.2,20260219-152011,832,Practice,T1,1,Automatic,main,15,20260430-151908,local,local,750,S,H,E,E,E-S.png,E-H.png,sS,hH,mask-2.png,mask-3.png,h,0,1.4227957997936755,none,-5,0,0.049842100124806166,0.049047499895095825,0.10011849994771183,0.09891929989680648,0.7516167000867426
RSVPLG03,si,20260430-151713,1.0.2,20260219-152011,832,Practice,T1,1,Automatic,main,16,20260430-151914,global,local,300,H,S,A,A,H-A.png,A-S.png,hH,sS,mask-4.png,mask-1.png,h,1,2.9271025999914855,none,-5,0,0.050191499991342425,0.04936429997906089,0.10000500013120472,0.09986700001172721,0.2999493000097573
RSVPLG03,si,20260430-151944,1.0.2,20260219-152011,832,Introduction,Both,1,Automatic,main,1,20260430-152009,local,global,750,H,S,A,A,A-H.png,S-A.png,hH,sS,mask-4.png,mask-4.png,h,1,5.568094199988991,s,1,1.2204440999776125,0.10053850011900067,0.10075139999389648,0.19989340007305145,0.20165150007233024,0.7505550000350922
RSVPLG03,si,20260430-151944,1.0.2,20260219-152011,832,Introduction,Both,1,Automatic,main,2,20260430-152020,global,global,750,H,S,A,A,H-A.png,S-A.png,hH,sS,mask-4.png,mask-2.png,h,1,0.8147875999566168,s,1,0.9487997000105679,0.09996409993618727,0.09988510003313422,0.20142080006189644,0.199993799906224,0.7503529000096023
RSVPLG03,si,20260430-151944,1.0.2,20260219-152011,832,Introduction,Both,1,Automatic,main,3,20260430-152026,global,local,750,H,H,A,A,H-A.png,A-H.png,hH,hH,mask-2.png,mask-1.png,h,1,0.9972065000329167,h,1,0.3137942999601364,0.10046220012009144,0.10097679984755814,0.19984650006517768,0.19903869996778667,0.7499180000741035
RSVPLG03,si,20260430-151944,1.0.2,20260219-152011,832,Introduction,Both,1,Automatic,main,4,20260430-152031,global,local,750,S,S,E,E,S-E.png,E-S.png,sS,sS,mask-3.png,mask-4.png,s,1,0.7286580000072718,s,1,0.46396089997142553,0.09854739997535944,0.10033150017261505,0.19922690000385046,0.19970030011609197,0.7495663999579847
RSVPLG03,si,20260430-151944,1.0.2,20260219-152011,832,Introduction,Both,1,Automatic,main,5,20260430-152037,global,local,750,H,H,A,E,H-A.png,E-H.png,hH,hH,mask-1.png,mask-4.png,h,1,1.4588132000062615,h,1,0.30513090011663735,0.1013319999910891,0.10151989990845323,0.20026930002495646,0.20325760007835925,0.7494826000183821
RSVPLG03,si,20260430-151944,1.0.2,20260219-152011,832,Introduction,Both,1,Automatic,main,6,20260430-152043,global,global,750,S,H,E,E,S-E.png,H-E.png,sS,hH,mask-2.png,mask-2.png,s,1,1.0421637000981718,h,1,0.04912970005534589,0.09905129997059703,0.09996820008382201,0.20016769994981587,0.20073550008237362,0.7505228999070823
RSVPLG03,si,20260430-151944,1.0.2,20260219-152011,832,Introduction,Both,1,Automatic,main,7,20260430-152048,global,global,750,S,H,E,E,S-E.png,H-E.png,sS,hH,mask-4.png,mask-3.png,s,1,0.8215301998425275,h,1,0.08963779988698661,0.09908060007728636,0.10086949984543025,0.20045730005949736,0.20025200000964105,0.7507126000709832
RSVPLG03,si,20260430-151944,1.0.2,20260219-152011,832,Introduction,Both,1,Automatic,main,8,20260430-152054,local,global,750,H,S,E,E,E-H.png,S-E.png,hH,sS,mask-1.png,mask-1.png,s,0,2.13989150011912,h,0,0.008857600158080459,0.10103550017811358,0.10083790007047355,0.20134600019082427,0.2002498998772353,0.7502183001488447
RSVPLG03,si,20260430-151944,1.0.2,20260219-152011,832,Introduction,Both,1,Automatic,main,9,20260430-152100,local,local,750,H,H,A,E,A-H.png,E-H.png,hH,hH,mask-2.png,mask-3.png,h,1,0.9495983000379056,h,1,0.11118149990215898,0.10041840001940727,0.10110999993048608,0.20004460006020963,0.20027310005389154,0.7510460999328643
RSVPLG03,si,20260430-151944,1.0.2,20260219-152011,832,Introduction,Both,1,Automatic,main,10,20260430-152105,local,local,750,S,H,A,E,A-S.png,E-H.png,sS,hH,mask-2.png,mask-1.png,h,0,2.270558699965477,h,1,0.3517741998657584,0.09952940000221133,0.09952920000068843,0.19916690001264215,0.19947159988805652,0.7508853999897838
RSVPLG03,si,20260430-151944,1.0.2,20260219-152011,832,Introduction,Both,1,Automatic,main,11,20260430-152113,local,local,750,S,H,E,E,E-S.png,E-H.png,sS,hH,mask-2.png,mask-1.png,s,1,1.024504599859938,h,1,0.03373460005968809,0.09879949991591275,0.09955219994299114,0.19945720001123846,0.20051299990154803,0.7499597000423819
RSVPLG03,si,20260430-151944,1.0.2,20260219-152011,832,Introduction,Both,1,Automatic,main,12,20260430-152118,global,global,750,H,H,E,E,H-E.png,H-E.png,hH,hH,mask-3.png,mask-3.png,h,1,0.3998638999182731,h,1,0.13466649991460145,0.09922760003246367,0.10001860000193119,0.19802149990573525,0.19925559987314045,0.7501807000953704
RSVPLG03,si,20260430-151944,1.0.2,20260219-152011,832,Introduction,Both,1,Automatic,main,13,20260430-152123,local,global,750,S,S,A,E,A-S.png,S-E.png,sS,sS,mask-3.png,mask-2.png,h,0,1.083929599961266,s,1,0.01513900002464652,0.09922070009633899,0.10021100006997585,0.2006202999036759,0.19944090000353754,0.7502109999768436
RSVPLG03,si,20260430-151944,1.0.2,20260219-152011,832,Introduction,Both,1,Automatic,main,14,20260430-152128,local,global,750,S,H,A,A,A-S.png,H-A.png,sS,hH,mask-2.png,mask-2.png,h,0,1.137362299952656,h,1,0.05353419994935393,0.09870030009187758,0.09985949983820319,0.2000484000891447,0.19911569985561073,0.7503637000918388
RSVPLG03,si,20260430-151944,1.0.2,20260219-152011,832,Introduction,Both,1,Automatic,main,15,20260430-152133,local,local,750,S,H,A,E,A-S.png,E-H.png,sS,hH,mask-1.png,mask-1.png,h,0,1.8423381999600679,h,1,0.1412760999519378,0.10001070005819201,0.09762450004927814,0.2001260002143681,0.20017939992249012,0.7517660001758486
RSVPLG03,si,20260430-151944,1.0.2,20260219-152011,832,Introduction,Both,1,Automatic,main,16,20260430-152140,global,local,750,H,H,E,E,H-E.png,E-H.png,hH,hH,mask-1.png,mask-4.png,h,1,0.635421099839732,h,1,0.11085960012860596,0.09896100009791553,0.09898549993522465,0.20012810011394322,0.19906600005924702,0.7507352000102401
RSVPLG03,si,20260430-152223,1.0.2,20260219-152011,832,Practice,Both,1,Automatic,main,1,20260430-152243,global,local,750,S,H,A,A,S-A.png,A-H.png,sS,hH,mask-3.png,mask-3.png,s,1,1.7000303999520838,h,1,0.0223129999358207,0.048860899871215224,0.05015949998050928,0.09892689995467663,0.10193180013448,0.7497071998659521
RSVPLG03,si,20260430-152223,1.0.2,20260219-152011,832,Practice,Both,1,Automatic,main,2,20260430-152249,local,local,300,H,S,E,E,E-H.png,E-S.png,hH,sS,mask-1.png,mask-3.png,h,1,1.561589599819854,s,1,0.05409480002708733,0.05252270004712045,0.049284599954262376,0.09947829996235669,0.09863630007021129,0.3013875000178814
RSVPLG03,si,20260430-152223,1.0.2,20260219-152011,832,Practice,Both,1,Automatic,main,3,20260430-152254,local,local,300,H,S,A,E,A-H.png,E-S.png,hH,sS,mask-3.png,mask-3.png,h,1,1.4473739999812096,s,1,0.1269427000079304,0.04981630016118288,0.050640800036489964,0.10129859996959567,0.09997129999101162,0.30045400001108646
RSVPLG03,si,20260430-152223,1.0.2,20260219-152011,832,Practice,Both,1,Automatic,main,4,20260430-152259,global,global,750,S,S,A,A,S-A.png,S-A.png,sS,sS,mask-2.png,mask-3.png,s,1,1.3596329998690635,s,1,0.053569099865853786,0.051118499832227826,0.04903619992546737,0.10016299993731081,0.09818370011635125,0.7521587999071926
RSVPLG03,si,20260430-152223,1.0.2,20260219-152011,832,Practice,Both,1,Automatic,main,5,20260430-152305,local,local,750,S,S,E,A,E-S.png,A-S.png,sS,sS,mask-3.png,mask-3.png,s,1,1.0078008000273257,h,0,0.03044120012782514,0.04975009988993406,0.04921699990518391,0.0998072000220418,0.10049819992855191,0.7495581000111997
RSVPLG03,si,20260430-152223,1.0.2,20260219-152011,832,Practice,Both,1,Automatic,main,6,20260430-152310,local,local,750,H,S,A,A,A-H.png,A-S.png,hH,sS,mask-1.png,mask-1.png,h,1,1.20566640002653,s,1,0.02453479985706508,0.04869730002246797,0.05137140001170337,0.09898959985002875,0.10045489994809031,0.749252799898386
RSVPLG03,si,20260430-152223,1.0.2,20260219-152011,832,Practice,Both,1,Automatic,main,7,20260430-152315,local,global,300,S,S,E,E,E-S.png,S-E.png,sS,sS,mask-3.png,mask-1.png,h,0,2.8979642000049353,s,1,0.07811439991928637,0.04978649993427098,0.049864100059494376,0.09961449983529747,0.09962229989469051,0.3005929999053478
RSVPLG03,si,20260430-152223,1.0.2,20260219-152011,832,Practice,Both,1,Automatic,main,8,20260430-152322,global,local,750,H,S,A,E,H-A.png,E-S.png,hH,sS,mask-2.png,mask-3.png,h,1,1.8815548000857234,h,0,1.526867400156334,0.050333699909970164,0.047778100008144975,0.10120599996298552,0.09934259997680783,0.7524784998968244
RSVPLG03,si,20260430-152223,1.0.2,20260219-152011,832,Practice,Both,1,Automatic,main,9,20260430-152330,global,local,300,H,H,E,A,H-E.png,A-H.png,hH,hH,mask-1.png,mask-2.png,h,1,1.3130812000017613,h,1,0.16476340009830892,0.049422299955040216,0.05106399999931455,0.09922390012070537,0.10089790006168187,0.29976160009391606
RSVPLG03,si,20260430-152223,1.0.2,20260219-152011,832,Practice,Both,1,Automatic,main,10,20260430-152335,global,global,300,S,H,A,E,S-A.png,H-E.png,sS,hH,mask-1.png,mask-2.png,h,0,1.290125200059265,s,0,0.01651499979197979,0.05115609988570213,0.049053699942305684,0.10141379991546273,0.1002477000001818,0.3012602999806404
RSVPLG03,si,20260430-152223,1.0.2,20260219-152011,832,Practice,Both,1,Automatic,main,11,20260430-152340,global,global,300,S,S,A,E,S-A.png,S-E.png,sS,sS,mask-1.png,mask-1.png,s,1,0.8173281999770552,h,0,0.12652729987166822,0.04683550004847348,0.049471900099888444,0.09580280003137887,0.09944720007479191,0.29686779994517565
RSVPLG03,si,20260430-152223,1.0.2,20260219-152011,832,Practice,Both,1,Automatic,main,12,20260430-152345,local,global,750,S,H,E,E,E-S.png,H-E.png,sS,hH,mask-4.png,mask-3.png,s,1,2.192016600165516,h,1,0.06453600013628602,0.04898530011996627,0.049940000055357814,0.10020179999992251,0.10191320022568107,0.7515426999889314
RSVPLG03,si,20260430-152223,1.0.2,20260219-152011,832,Practice,Both,1,Automatic,main,13,20260430-152351,global,local,300,S,H,A,E,S-A.png,E-H.png,sS,hH,mask-1.png,mask-4.png,s,1,0.9997892999090254,h,1,0.055491099832579494,0.04991469997912645,0.051299900049343705,0.1000261998269707,0.10189040005207062,0.29837109986692667
RSVPLG03,si,20260430-152223,1.0.2,20260219-152011,832,Practice,Both,1,Automatic,main,14,20260430-152356,local,global,750,H,H,A,A,A-H.png,H-A.png,hH,hH,mask-3.png,mask-1.png,s,0,0.8218902999069542,h,1,0.01753469998948276,0.051695199916139245,0.05069559998810291,0.10120699997060001,0.10120930010452867,0.7499664998613298
RSVPLG03,si,20260430-152223,1.0.2,20260219-152011,832,Practice,Both,1,Automatic,main,15,20260430-152401,global,global,750,H,S,A,A,H-A.png,S-A.png,hH,sS,mask-2.png,mask-4.png,s,0,1.7197040999308228,h,0,0.04815190006047487,0.05007769982330501,0.04902929998934269,0.09915239992551506,0.09964479994960129,0.7503571000415832
RSVPLG03,si,20260430-152223,1.0.2,20260219-152011,832,Practice,Both,1,Automatic,main,16,20260430-152407,local,global,300,S,H,A,A,A-S.png,H-A.png,sS,hH,mask-2.png,mask-3.png,s,1,1.6533784999046475,h,1,0.04742299998179078,0.049966600025072694,0.04960160003975034,0.10007199994288385,0.10098230000585318,0.3004124998115003
RSVPLG03,si,20260430-152454,1.0.2,20260219-152011,832,Practice,Both,1,Automatic,main,1,20260430-152531,global,local,750,H,H,A,E,H-A.png,E-H.png,hH,hH,mask-3.png,mask-3.png,h,1,1.4270083999726921,s,0,0.8283681999891996,0.04129820014350116,0.051326399901881814,0.09089530003257096,0.1002072999253869,0.7408227000851184
RSVPLG03,si,20260430-152454,1.0.2,20260219-152011,832,Practice,Both,1,Automatic,main,2,20260430-152537,local,global,750,S,S,A,A,A-S.png,S-A.png,sS,sS,mask-1.png,mask-2.png,h,0,1.6128654999192804,s,1,0.048529700143262744,0.0496458001434803,0.05114510003477335,0.09923469997011125,0.10004379996098578,0.7500823000445962
RSVPLG03,si,20260430-152454,1.0.2,20260219-152011,832,Practice,Both,1,Automatic,main,3,20260430-152543,local,global,300,H,S,E,A,E-H.png,S-A.png,hH,sS,mask-4.png,mask-3.png,h,1,2.05793199990876,s,1,0.03914669994264841,0.04733910015784204,0.05003629997372627,0.09732850012369454,0.10100500006228685,0.29837119998410344
RSVPLG03,si,20260430-152454,1.0.2,20260219-152011,832,Practice,Both,1,Automatic,main,4,20260430-152549,local,local,300,H,S,E,A,E-H.png,A-S.png,hH,sS,mask-3.png,mask-2.png,s,0,5.949024300090969,h,0,0.376301399897784,0.04999599978327751,0.05006850021891296,0.09986159997060895,0.10026500001549721,0.300118199782446
RSVPLG03,si,20260430-152454,1.0.2,20260219-152011,832,Practice,Both,1,Automatic,main,5,20260430-152559,local,local,300,S,S,A,E,A-S.png,E-S.png,sS,sS,mask-3.png,mask-3.png,s,1,1.636178399901837,h,0,0.03968739998526871,0.04979249997995794,0.048484700033441186,0.10042509995400906,0.09872340015135705,0.3016674998216331
RSVPLG03,si,20260430-152454,1.0.2,20260219-152011,832,Practice,Both,1,Automatic,main,6,20260430-152604,local,local,750,S,S,A,E,A-S.png,E-S.png,sS,sS,mask-4.png,mask-3.png,s,1,2.233310899930075,h,0,0.12803420005366206,0.05090030003339052,0.05008900002576411,0.10090929991565645,0.10174269997514784,0.7498935000039637
RSVPLG03,si,20260430-152454,1.0.2,20260219-152011,832,Practice,Both,1,Automatic,main,7,20260430-152611,global,local,750,S,H,E,A,S-E.png,A-H.png,sS,hH,mask-3.png,mask-2.png,s,1,3.027803100179881,h,1,0.09481299994513392,0.049990199971944094,0.04859400005079806,0.09990009991452098,0.1001657999586314,0.7513639000244439
RSVPLG03,si,20260430-152454,1.0.2,20260219-152011,832,Practice,Both,1,Automatic,main,8,20260430-152618,global,global,300,H,H,A,A,H-A.png,H-A.png,hH,hH,mask-4.png,mask-2.png,h,1,1.5300549000967294,h,1,0.049961700104177,0.048272000160068274,0.04992299992591143,0.09832240012474358,0.10108590009622276,0.29861210007220507
RSVPLG03,si,20260430-152454,1.0.2,20260219-152011,832,Practice,Both,1,Automatic,main,9,20260430-152623,global,global,750,H,S,E,E,H-E.png,S-E.png,hH,sS,mask-1.png,mask-1.png,h,1,0.7596690999343991,s,1,0.10384949995204806,0.049376799957826734,0.05057530011981726,0.09925769991241395,0.10054550017230213,0.750032999785617
RSVPLG03,si,20260430-152454,1.0.2,20260219-152011,832,Practice,Both,1,Automatic,main,10,20260430-152628,global,local,300,H,S,A,E,H-A.png,E-S.png,hH,sS,mask-1.png,mask-3.png,h,1,1.6298031001351774,h,0,2.095216699875891,0.04955810005776584,0.05046479986049235,0.10023480001837015,0.10080769984051585,0.30014110007323325
RSVPLG03,si,20260430-152454,1.0.2,20260219-152011,832,Practice,Both,1,Automatic,main,11,20260430-152636,global,global,750,H,S,A,A,H-A.png,S-A.png,hH,sS,mask-4.png,mask-3.png,h,1,1.0076925000175834,s,1,0.08671330008655787,0.05077889980748296,0.050020999973639846,0.10116599989123642,0.10002180002629757,0.7517991999629885
RSVPLG03,si,20260430-152454,1.0.2,20260219-152011,832,Practice,Both,1,Automatic,main,12,20260430-152641,local,local,750,S,H,E,A,E-S.png,A-H.png,sS,hH,mask-4.png,mask-1.png,s,1,0.7828032001852989,h,1,0.09469579998403788,0.05008409987203777,0.050874900072813034,0.09915319993160665,0.09972330019809306,0.751046999823302
RSVPLG03,si,20260430-152454,1.0.2,20260219-152011,832,Practice,Both,1,Automatic,main,13,20260430-152646,global,global,300,H,H,A,E,H-A.png,H-E.png,hH,hH,mask-4.png,mask-3.png,h,1,1.1088976999744773,h,1,0.29716169997118413,0.05041339993476868,0.054041300201788545,0.10156430001370609,0.10097960010170937,0.30076079978607595
RSVPLG03,si,20260430-152454,1.0.2,20260219-152011,832,Practice,Both,1,Automatic,main,14,20260430-152651,global,local,300,H,S,E,E,H-E.png,E-S.png,hH,sS,mask-4.png,mask-3.png,h,1,1.9806969999335706,s,1,0.06415349990129471,0.048090599942952394,0.05014010006561875,0.09903629985637963,0.10114259994588792,0.2986770998686552
RSVPLG03,si,20260430-152454,1.0.2,20260219-152011,832,Practice,Both,1,Automatic,main,15,20260430-152657,local,global,750,H,S,A,E,A-H.png,S-E.png,hH,sS,mask-1.png,mask-1.png,h,1,0.9364185999147594,s,1,0.04798759985715151,0.049643199890851974,0.051229999866336584,0.09960659989155829,0.10144899995066226,0.7504086000844836
RSVPLG03,si,20260430-152454,1.0.2,20260219-152011,832,Practice,Both,1,Automatic,main,16,20260430-152702,local,global,300,S,H,A,A,A-S.png,H-A.png,sS,hH,mask-4.png,mask-4.png,s,1,1.2989734001457691,h,1,0.04042380000464618,0.05100689991377294,0.04999609990045428,0.10011849994771183,0.10010929987765849,0.2997276000678539
RSVPLG03,si,20260430-152750,1.0.2,20260219-152011,832,Experiment,Both,1,Automatic,warmup,1,20260430-152825,local,global,300,S,H,A,E,A-S.png,H-E.png,sS,hH,mask-4.png,mask-3.png,s,1,1.511153900064528,h,1,0.02192309987731278,0.041939300019294024,0.050397400045767426,0.0919987999368459,0.09996289992704988,0.29354240000247955
RSVPLG03,si,20260430-152750,1.0.2,20260219-152011,832,Experiment,Both,1,Automatic,warmup,2,20260430-152830,local,global,750,S,H,E,A,E-S.png,H-A.png,sS,hH,mask-4.png,mask-3.png,s,1,1.4308072000276297,h,1,3.4621175001375377,0.04840660002082586,0.049016499891877174,0.09978009993210435,0.09941989998333156,0.7510450000409037
RSVPLG03,si,20260430-152750,1.0.2,20260219-152011,832,Experiment,Both,1,Automatic,warmup,3,20260430-152839,local,local,750,S,H,A,E,A-S.png,E-H.png,sS,hH,mask-1.png,mask-4.png,s,1,1.8311548000201583,h,1,0.052633400075137615,0.0495840001385659,0.05110469995997846,0.098970300052315,0.0998730999417603,0.7496066000312567
RSVPLG03,si,20260430-152750,1.0.2,20260219-152011,832,Experiment,Both,1,Automatic,warmup,4,20260430-152845,global,global,750,H,H,E,E,H-E.png,H-E.png,hH,hH,mask-2.png,mask-4.png,h,1,1.0273504999931902,h,1,0.10449389996938407,0.04876989987678826,0.0496741000097245,0.09819009993225336,0.100772799924016,0.749058699933812
RSVPLG03,si,20260430-152750,1.0.2,20260219-152011,832,Experiment,Both,1,Automatic,main,5,20260430-152850,global,global,750,S,S,E,E,S-E.png,S-E.png,sS,sS,mask-3.png,mask-1.png,s,1,0.9325512000359595,s,1,0.03094929992221296,0.050253599882125854,0.0488597999792546,0.10025050002150238,0.09883789997547865,0.7518595000728965
RSVPLG03,si,20260430-152750,1.0.2,20260219-152011,832,Experiment,Both,1,Automatic,main,6,20260430-152856,local,global,750,S,H,E,E,E-S.png,H-E.png,sS,hH,mask-3.png,mask-3.png,s,1,0.7544831000268459,h,1,0.0725030000321567,0.05121459998190403,0.050012300023809075,0.09968990017659962,0.09903839998878539,0.7508878000080585
RSVPLG03,si,20260430-152750,1.0.2,20260219-152011,832,Experiment,Both,1,Automatic,main,7,20260430-152900,local,local,300,H,S,E,A,E-H.png,A-S.png,hH,sS,mask-2.png,mask-2.png,h,1,1.4221365998964757,s,1,0.07915200013667345,0.04900489980354905,0.049546000082045794,0.0990644998382777,0.1002847000490874,0.29942049994133413
RSVPLG03,si,20260430-152750,1.0.2,20260219-152011,832,Experiment,Both,1,Automatic,main,8,20260430-152906,global,local,300,H,H,A,E,H-A.png,E-H.png,hH,hH,mask-1.png,mask-2.png,h,1,1.0724128999281675,h,1,0.0785211999900639,0.04911609995178878,0.04822159977629781,0.10043639992363751,0.09853079984895885,0.3007328000385314
RSVPLG03,si,20260430-152750,1.0.2,20260219-152011,832,Experiment,Both,1,Automatic,main,9,20260430-152910,global,global,300,S,S,A,E,S-A.png,S-E.png,sS,sS,mask-4.png,mask-3.png,s,1,1.184467500075698,s,1,0.0704421999398619,0.05052719986997545,0.050907500088214874,0.09944609995000064,0.10136929992586374,0.2995962998829782
RSVPLG03,si,20260430-152750,1.0.2,20260219-152011,832,Experiment,Both,1,Automatic,main,10,20260430-152915,local,local,300,H,H,A,E,A-H.png,E-H.png,hH,hH,mask-4.png,mask-1.png,h,1,2.234268300002441,s,0,1.1033784998580813,0.04923230013810098,0.049646199913695455,0.09962780005298555,0.09978469996713102,0.2997107000555843
RSVPLG03,si,20260430-152750,1.0.2,20260219-152011,832,Experiment,Both,1,Automatic,main,11,20260430-152922,global,local,750,S,H,E,A,S-E.png,A-H.png,sS,hH,mask-3.png,mask-4.png,s,1,1.0442945000249892,h,1,0.08001759997569025,0.05129149998538196,0.05124890012666583,0.10163900000043213,0.0993862000759691,0.7511988999322057
RSVPLG03,si,20260430-152750,1.0.2,20260219-152011,832,Experiment,Both,1,Automatic,main,12,20260430-152927,global,global,750,H,S,E,E,H-E.png,S-E.png,hH,sS,mask-4.png,mask-3.png,s,0,1.0978177001234144,h,0,0.025234099943190813,0.047673100139945745,0.05000740010291338,0.098156200023368,0.0998923999723047,0.7483218000270426
RSVPLG03,si,20260430-152750,1.0.2,20260219-152011,832,Experiment,Both,1,Automatic,main,13,20260430-152933,global,local,750,S,H,E,A,S-E.png,A-H.png,sS,hH,mask-4.png,mask-2.png,h,0,0.6823715998325497,s,0,0.00896240002475679,0.04919679998420179,0.05225339997559786,0.09926809999160469,0.10046810004860163,0.749260799959302
RSVPLG03,si,20260430-152750,1.0.2,20260219-152011,832,Experiment,Both,1,Automatic,main,14,20260430-152938,local,global,300,H,H,A,E,A-H.png,H-E.png,hH,hH,mask-4.png,mask-4.png,h,1,1.7854059000965208,h,1,0.12064160010777414,0.05035829986445606,0.0511799999512732,0.09877669997513294,0.10057630017399788,0.29929269989952445
RSVPLG03,si,20260430-152750,1.0.2,20260219-152011,832,Experiment,Both,1,Automatic,main,15,20260430-152943,global,local,750,H,S,E,E,H-E.png,E-S.png,hH,sS,mask-3.png,mask-1.png,h,1,0.8848745001014322,s,1,0.08048290014266968,0.049767700023949146,0.04829340009018779,0.10010719997808337,0.09863539994694293,0.7506981999613345
RSVPLG03,si,20260430-152750,1.0.2,20260219-152011,832,Experiment,Both,1,Automatic,main,16,20260430-152948,global,local,750,H,S,E,E,H-E.png,E-S.png,hH,sS,mask-1.png,mask-3.png,h,1,0.7719521999824792,s,1,0.046244800090789795,0.05015199980698526,0.049897999968379736,0.0993286999873817,0.10159279988147318,0.7506641999352723
RSVPLG03,si,20260430-152750,1.0.2,20260219-152011,832,Experiment,Both,1,Automatic,main,17,20260430-152953,local,global,750,H,S,A,E,A-H.png,S-E.png,hH,sS,mask-4.png,mask-1.png,h,1,1.0016095999162644,s,1,0.07860409980639815,0.04972470016218722,0.05090170004405081,0.09940800000913441,0.09997050021775067,0.7504698999691755
RSVPLG03,si,20260430-152750,1.0.2,20260219-152011,832,Experiment,Both,1,Automatic,main,18,20260430-152958,local,global,750,S,S,A,A,A-S.png,S-A.png,sS,sS,mask-1.png,mask-4.png,s,1,1.3112821001559496,h,0,0.031328000128269196,0.04922639997676015,0.04998639994300902,0.09959389991126955,0.09978479985147715,0.7506917000282556
RSVPLG03,si,20260430-152750,1.0.2,20260219-152011,832,Experiment,Both,1,Automatic,main,19,20260430-153004,local,local,300,S,S,E,E,E-S.png,E-S.png,sS,sS,mask-1.png,mask-2.png,s,1,2.0750994998961687,h,0,0.04165420006029308,0.049189900048077106,0.05046639987267554,0.0994679001159966,0.09975979989394546,0.29953530011698604
RSVPLG03,si,20260430-152750,1.0.2,20260219-152011,832,Experiment,Both,1,Automatic,main,20,20260430-153010,local,global,750,S,S,A,E,A-S.png,S-E.png,sS,sS,mask-1.png,mask-4.png,h,0,1.36563799995929,s,1,0.06356890010647476,0.05087979999370873,0.05107499985024333,0.10146269993856549,0.1010654999408871,0.7510758000425994
RSVPLG03,si,20260430-152750,1.0.2,20260219-152011,832,Experiment,Both,1,Automatic,main,21,20260430-153015,global,local,300,H,H,E,A,H-E.png,A-H.png,hH,hH,mask-1.png,mask-4.png,h,1,2.071831800043583,s,0,0.0609116000123322,0.049979500006884336,0.049367900006473064,0.09898220002651215,0.10103140003047884,0.29881780012510717
RSVPLG03,si,20260430-152750,1.0.2,20260219-152011,832,Experiment,Both,1,Automatic,main,22,20260430-153021,local,local,750,H,H,E,E,E-H.png,E-H.png,hH,hH,mask-3.png,mask-1.png,h,1,1.781049899989739,h,1,0.14538340014405549,0.04978900006972253,0.050078999949619174,0.10015530022792518,0.10116409999318421,0.7500293001066893
RSVPLG03,si,20260430-152750,1.0.2,20260219-152011,832,Experiment,Both,1,Automatic,main,23,20260430-153027,local,local,300,S,S,E,E,E-S.png,E-S.png,sS,sS,mask-3.png,mask-1.png,h,0,1.4315016998443753,h,0,0.23024240019731224,0.05022360011935234,0.05075710010714829,0.10077450005337596,0.09925070009194314,0.3015980999916792
RSVPLG03,si,20260430-152750,1.0.2,20260219-152011,832,Experiment,Both,1,Automatic,main,24,20260430-153032,local,global,300,S,S,E,E,E-S.png,S-E.png,sS,sS,mask-3.png,mask-1.png,h,0,1.5672202999703586,h,0,0.9440530000720173,0.04884810000658035,0.04862429993227124,0.1000844999216497,0.09871940012089908,0.3001111999619752
RSVPLG03,si,20260430-152750,1.0.2,20260219-152011,832,Experiment,Both,1,Automatic,main,25,20260430-153038,global,local,300,S,S,E,A,S-E.png,A-S.png,sS,sS,mask-1.png,mask-4.png,s,1,1.1682005000766367,h,0,0.160557699855417,0.049724899930879474,0.050256399903446436,0.10028229979798198,0.09979070001281798,0.30002239998430014
RSVPLG03,si,20260430-152750,1.0.2,20260219-152011,832,Experiment,Both,1,Automatic,main,26,20260430-153105,global,global,300,S,H,E,E,S-E.png,H-E.png,sS,hH,mask-4.png,mask-1.png,h,0,1.8801068998873234,s,0,0.07119489996694028,0.05067220004275441,0.04986819997429848,0.09969409997574985,0.09975009993650019,0.30133779998868704
RSVPLG03,si,20260430-152750,1.0.2,20260219-152011,832,Experiment,Both,1,Automatic,main,27,20260430-153111,global,local,750,H,H,E,A,H-E.png,A-H.png,hH,hH,mask-2.png,mask-2.png,h,1,1.2245919001288712,h,1,0.09586840006522834,0.049951199907809496,0.0508730998262763,0.10102879977785051,0.09907739982008934,0.7518792999908328
RSVPLG03,si,20260430-152750,1.0.2,20260219-152011,832,Experiment,Both,1,Automatic,main,28,20260430-153116,local,local,300,H,H,E,E,E-H.png,E-H.png,hH,hH,mask-3.png,mask-4.png,h,1,1.1613058999646455,s,0,0.16982970014214516,0.051065800013020635,0.05040819989517331,0.10137689998373389,0.10091720009222627,0.29991489998064935
RSVPLG03,si,20260430-152750,1.0.2,20260219-152011,832,Experiment,Both,1,Automatic,main,29,20260430-153121,global,global,300,S,S,A,E,S-A.png,S-E.png,sS,sS,mask-1.png,mask-1.png,s,1,0.9217757999431342,h,0,0.07952669984661043,0.04950940003618598,0.048736399970948696,0.10072360001504421,0.09988659992814064,0.30127399996854365
RSVPLG03,si,20260430-152750,1.0.2,20260219-152011,832,Experiment,Both,1,Automatic,main,30,20260430-153126,global,global,750,S,H,E,E,S-E.png,H-E.png,sS,hH,mask-4.png,mask-2.png,s,1,0.4243707999121398,h,1,0.12020429992116988,0.05151350004598498,0.05012260004878044,0.10014670016244054,0.10038499999791384,0.7513459001202136
RSVPLG03,si,20260430-152750,1.0.2,20260219-152011,832,Experiment,Both,1,Automatic,main,31,20260430-153130,global,local,750,S,S,A,E,S-A.png,E-S.png,sS,sS,mask-2.png,mask-4.png,s,1,0.7803404999431223,h,0,0.2484384998679161,0.05055809998884797,0.048436000011861324,0.09911489998921752,0.09965760004706681,0.7506327000446618
RSVPLG03,si,20260430-152750,1.0.2,20260219-152011,832,Experiment,Both,1,Automatic,main,32,20260430-153136,local,local,300,S,S,A,E,A-S.png,E-S.png,sS,sS,mask-4.png,mask-2.png,h,0,0.5856451001018286,s,1,0.11228640004992485,0.05030259978957474,0.05302290013059974,0.10093749989755452,0.09950370015576482,0.3009354998357594
RSVPLG03,si,20260430-152750,1.0.2,20260219-152011,832,Experiment,Both,1,Automatic,main,33,20260430-153140,local,global,300,S,H,A,E,A-S.png,H-E.png,sS,hH,mask-1.png,mask-1.png,h,0,1.1409074000548571,h,1,0.10888989991508424,0.048798799980431795,0.04996890015900135,0.0999555999878794,0.10045020002871752,0.2991363999899477
RSVPLG03,si,20260430-152750,1.0.2,20260219-152011,832,Experiment,Both,1,Automatic,main,34,20260430-153145,global,global,300,H,S,A,A,H-A.png,S-A.png,hH,sS,mask-1.png,mask-3.png,h,1,0.7216314000543207,s,1,0.14293550001457334,0.05046259984374046,0.050157299963757396,0.09805019991472363,0.10134349996224046,0.29837449989281595
RSVPLG03,si,20260430-152750,1.0.2,20260219-152011,832,Experiment,Both,1,Automatic,main,35,20260430-153149,global,global,300,H,S,A,E,H-A.png,S-E.png,hH,sS,mask-1.png,mask-1.png,h,1,1.0013762000016868,s,1,0.055749500170350075,0.04905740008689463,0.05017860000953078,0.10040790005587041,0.10037939995527267,0.2974758001510054
RSVPLG03,si,20260430-152750,1.0.2,20260219-152011,832,Experiment,Both,1,Automatic,main,36,20260430-153154,local,global,750,H,H,A,A,A-H.png,H-A.png,hH,hH,mask-4.png,mask-3.png,s,0,1.221206899965182,h,1,0.07340110000222921,0.05004290002398193,0.04991740011610091,0.10010639997199178,0.10024449997581542,0.7501733999233693
RSVPLG03,si,20260430-152750,1.0.2,20260219-152011,832,Experiment,Both,1,Automatic,main,37,20260430-153200,global,global,300,H,H,E,E,H-E.png,H-E.png,hH,hH,mask-3.png,mask-4.png,h,1,1.182899400126189,h,1,0.17415580013766885,0.05094289989210665,0.0509937999304384,0.10071710008196533,0.10117030004039407,0.30066539999097586
RSVPLG03,si,20260430-152750,1.0.2,20260219-152011,832,Experiment,Both,1,Automatic,main,38,20260430-153205,local,local,750,H,S,A,A,A-H.png,A-S.png,hH,sS,mask-2.png,mask-1.png,h,1,1.3377831999678165,h,0,0.39931960008107126,0.050059600034728646,0.04848339990712702,0.09953140001744032,0.10058839991688728,0.750028399983421
RSVPLG03,si,20260430-152750,1.0.2,20260219-152011,832,Experiment,Both,1,Automatic,main,39,20260430-153211,global,local,300,S,S,E,E,S-E.png,E-S.png,sS,sS,mask-2.png,mask-3.png,h,0,1.4457809999585152,s,1,0.190251300111413,0.05058220005594194,0.048129400005564094,0.09959870018064976,0.09939060010947287,0.30150569998659194
RSVPLG03,si,20260430-152750,1.0.2,20260219-152011,832,Experiment,Both,1,Automatic,main,40,20260430-153216,local,global,750,S,S,A,A,A-S.png,S-A.png,sS,sS,mask-3.png,mask-3.png,h,0,1.5203954000025988,s,1,0.08076280006207526,0.04922530008479953,0.048709499882534146,0.09915939997881651,0.09992949990555644,0.7511428000871092
RSVPLG03,si,20260430-152750,1.0.2,20260219-152011,832,Experiment,Both,1,Automatic,main,41,20260430-153222,local,global,750,H,S,A,E,A-H.png,S-E.png,hH,sS,mask-4.png,mask-3.png,h,1,1.725204600021243,s,1,0.08185090008191764,0.04997409996576607,0.05025029997341335,0.10064640012569726,0.09975040005519986,0.7502516000531614
RSVPLG03,si,20260430-152750,1.0.2,20260219-152011,832,Experiment,Both,1,Automatic,main,42,20260430-153227,local,local,750,H,S,A,A,A-H.png,A-S.png,hH,sS,mask-4.png,mask-3.png,s,0,1.4205791000276804,h,0,0.015397600131109357,0.05013910005800426,0.048690499970689416,0.1000844999216497,0.09938909998163581,0.7517156999092549
RSVPLG03,si,20260430-152750,1.0.2,20260219-152011,832,Experiment,Both,1,Automatic,main,43,20260430-153233,global,global,300,S,H,A,A,S-A.png,H-A.png,sS,hH,mask-4.png,mask-3.png,s,1,1.201843500137329,h,1,0.04842899995855987,0.04926269990392029,0.0507787000387907,0.09866569982841611,0.09914959990419447,0.2988843999337405
RSVPLG03,si,20260430-152750,1.0.2,20260219-152011,832,Experiment,Both,1,Automatic,main,44,20260430-153238,global,global,300,S,S,A,E,S-A.png,S-E.png,sS,sS,mask-3.png,mask-3.png,s,1,1.6592952001374215,h,0,0.10354710021056235,0.04948990000411868,0.04977330006659031,0.10011380002833903,0.0999889001250267,0.30012469994835556
RSVPLG03,si,20260430-152750,1.0.2,20260219-152011,832,Experiment,Both,1,Automatic,main,45,20260430-153243,global,local,300,H,S,A,A,H-A.png,A-S.png,hH,sS,mask-4.png,mask-2.png,s,0,1.1978505000006407,h,0,0.0546017000451684,0.05054820002987981,0.04983199993148446,0.09983249986544251,0.09983829990960658,0.3003444999922067
RSVPLG03,si,20260430-152750,1.0.2,20260219-152011,832,Experiment,Both,1,Automatic,main,46,20260430-153248,global,global,300,H,H,A,A,H-A.png,H-A.png,hH,hH,mask-1.png,mask-2.png,h,1,1.6619627000764012,h,1,0.062849200097844,0.05089650000445545,0.05151530005969107,0.10006620013155043,0.09923799987882376,0.3003623001277447
RSVPLG03,si,20260430-152750,1.0.2,20260219-152011,832,Experiment,Both,1,Automatic,main,47,20260430-153254,global,local,750,S,S,A,A,S-A.png,A-S.png,sS,sS,mask-2.png,mask-2.png,h,0,1.0364568999502808,h,0,0.10442050010897219,0.050445899832993746,0.050448400201275945,0.10027339984662831,0.10071430006064475,0.7499894998036325
RSVPLG03,si,20260430-152750,1.0.2,20260219-152011,832,Experiment,Both,1,Automatic,main,48,20260430-153259,global,global,750,S,S,A,E,S-A.png,S-E.png,sS,sS,mask-4.png,mask-1.png,s,1,1.0827882001176476,s,1,0.07400919985957444,0.051032100105658174,0.05018390016630292,0.10073760012164712,0.09978120005689561,0.7503496999852359
RSVPLG03,si,20260430-152750,1.0.2,20260219-152011,832,Experiment,Both,1,Automatic,main,49,20260430-153304,global,global,750,S,H,A,E,S-A.png,H-E.png,sS,hH,mask-4.png,mask-4.png,s,1,0.43945359997451305,h,1,0.08196910005062819,0.0489701998885721,0.05009289993904531,0.09819679986685514,0.10017580003477633,0.748503000009805
RSVPLG03,si,20260430-152750,1.0.2,20260219-152011,832,Experiment,Both,1,Automatic,main,50,20260430-153309,local,local,750,S,S,A,E,A-S.png,E-S.png,sS,sS,mask-4.png,mask-4.png,h,0,0.4442521999590099,h,0,0.10561680002138019,0.04966680007055402,0.04553300002589822,0.1009164999704808,0.09580769995227456,0.7547641999553889
RSVPLG03,si,20260430-152750,1.0.2,20260219-152011,832,Experiment,Both,1,Automatic,main,51,20260430-153320,local,global,300,H,H,A,E,A-H.png,H-E.png,hH,hH,mask-1.png,mask-1.png,h,1,0.4798630001023412,h,1,0.06084370007738471,0.04956660000607371,0.050834199879318476,0.101437299977988,0.10069300001487136,0.30053690006025136
RSVPLG03,si,20260430-152750,1.0.2,20260219-152011,832,Experiment,Both,1,Automatic,main,52,20260430-153324,global,global,750,S,H,E,A,S-E.png,H-A.png,sS,hH,mask-1.png,mask-2.png,s,1,0.6768355998210609,h,1,0.03953510010614991,0.05012049991637468,0.05061020003631711,0.10047929990105331,0.10060640005394816,0.7505687999073416
RSVPLG03,si,20260430-152750,1.0.2,20260219-152011,832,Experiment,Both,1,Automatic,main,53,20260430-153329,global,global,750,H,H,A,A,H-A.png,H-A.png,hH,hH,mask-3.png,mask-3.png,h,1,0.34754360001534224,h,1,0.06930399988777936,0.0482530000153929,0.04999359999783337,0.09942390001378953,0.09887170000001788,0.7499777998309582
RSVPLG03,si,20260430-152750,1.0.2,20260219-152011,832,Experiment,Both,1,Automatic,main,54,20260430-153334,local,global,300,H,H,A,A,A-H.png,H-A.png,hH,hH,mask-3.png,mask-1.png,h,1,0.5016852000262588,h,1,0.07076699985191226,0.04862189991399646,0.048632699996232986,0.09846809995360672,0.09908670000731945,0.2993836998939514
RSVPLG03,si,20260430-152750,1.0.2,20260219-152011,832,Experiment,Both,1,Automatic,main,55,20260430-153338,local,local,750,S,S,A,A,A-S.png,A-S.png,sS,sS,mask-1.png,mask-4.png,h,0,0.7125312001444399,h,0,0.13296720013022423,0.05172290001064539,0.05101380008272827,0.10012640012428164,0.0987839000299573,0.7517943000420928
RSVPLG03,si,20260430-152750,1.0.2,20260219-152011,832,Experiment,Both,1,Automatic,main,56,20260430-153343,global,local,300,S,S,A,A,S-A.png,A-S.png,sS,sS,mask-3.png,mask-1.png,s,1,2.5247494000941515,h,0,0.1446868998464197,0.048942700028419495,0.05071159987710416,0.09952259995043278,0.09946579998359084,0.3000451000407338
RSVPLG03,si,20260430-152750,1.0.2,20260219-152011,832,Experiment,Both,1,Automatic,main,57,20260430-153349,local,global,300,S,S,E,E,E-S.png,S-E.png,sS,sS,mask-3.png,mask-3.png,s,1,2.7798428998794407,h,0,0.027856600005179644,0.04922939999960363,0.05029730009846389,0.09962400002405047,0.10112410015426576,0.29975040000863373
RSVPLG03,si,20260430-152750,1.0.2,20260219-152011,832,Experiment,Both,1,Automatic,main,58,20260430-153356,local,global,300,H,H,E,E,E-H.png,H-E.png,hH,hH,mask-1.png,mask-1.png,h,1,1.3524396000429988,h,1,0.0795038000214845,0.05014090007171035,0.05157470004633069,0.09917739988304675,0.10071179992519319,0.29883059998974204
RSVPLG03,si,20260430-152750,1.0.2,20260219-152011,832,Experiment,Both,1,Automatic,main,59,20260430-153401,local,local,750,H,H,A,E,A-H.png,E-H.png,hH,hH,mask-1.png,mask-2.png,s,0,1.296565999975428,s,0,0.0948367000091821,0.048980999970808625,0.049105399986729026,0.0993508999235928,0.0989882000721991,0.7506039999425411
RSVPLG03,si,20260430-152750,1.0.2,20260219-152011,832,Experiment,Both,1,Automatic,main,60,20260430-153406,local,global,300,S,H,A,E,A-S.png,H-E.png,sS,hH,mask-1.png,mask-4.png,h,0,0.5782183001283556,h,1,0.06350189982913435,0.05115809990093112,0.049161499831825495,0.10034839995205402,0.09979979996569455,0.30091340001672506
RSVPLG03,si,20260430-152750,1.0.2,20260219-152011,832,Experiment,Both,1,Automatic,main,61,20260430-153410,global,local,300,H,S,E,A,H-E.png,A-S.png,hH,sS,mask-3.png,mask-3.png,h,1,0.6055111999157816,h,0,0.08260760013945401,0.05109469988383353,0.05040940013714135,0.09885239996947348,0.10139490012079477,0.29914979985915124
RSVPLG03,si,20260430-152750,1.0.2,20260219-152011,832,Experiment,Both,1,Automatic,main,62,20260430-153415,global,local,750,S,S,A,E,S-A.png,E-S.png,sS,sS,mask-2.png,mask-4.png,s,1,0.6458137999288738,s,1,0.054650899954140186,0.04991790000349283,0.049410799983888865,0.09825689997524023,0.10062080016359687,0.748925199965015
RSVPLG03,si,20260430-152750,1.0.2,20260219-152011,832,Experiment,Both,1,Automatic,main,63,20260430-153420,local,local,300,S,H,A,A,A-S.png,A-H.png,sS,hH,mask-2.png,mask-2.png,h,0,0.5814629998058081,h,1,0.0790870999917388,0.04906150000169873,0.04930469999089837,0.09808050002902746,0.09838640014640987,0.3005955000407994
RSVPLG03,si,20260430-152750,1.0.2,20260219-152011,832,Experiment,Both,1,Automatic,main,64,20260430-153424,local,local,750,H,S,E,A,E-H.png,A-S.png,hH,sS,mask-2.png,mask-4.png,h,1,0.7544927999842912,h,0,0.12714749993756413,0.04897340014576912,0.047315499978139997,0.10014820005744696,0.09757409989833832,0.7507433001883328
RSVPLG03,si,20260430-152750,1.0.2,20260219-152011,832,Experiment,Both,1,Automatic,main,65,20260430-153429,global,local,750,S,H,A,E,S-A.png,E-H.png,sS,hH,mask-4.png,mask-1.png,h,0,0.47802149993367493,h,1,0.0972725001629442,0.05053290002979338,0.05049520009197295,0.09998490009456873,0.09928250010125339,0.7514869999140501
RSVPLG03,si,20260430-152750,1.0.2,20260219-152011,832,Experiment,Both,1,Automatic,main,66,20260430-153433,local,local,300,S,H,E,A,E-S.png,A-H.png,sS,hH,mask-2.png,mask-4.png,s,1,0.6418612999841571,h,1,0.06744080013595521,0.0509376002009958,0.05026929988525808,0.10080970008857548,0.09906539996154606,0.30040390021167696
RSVPLG03,si,20260430-152750,1.0.2,20260219-152011,832,Experiment,Both,1,Automatic,main,67,20260430-153438,local,local,300,H,S,E,A,E-H.png,A-S.png,hH,sS,mask-3.png,mask-4.png,s,0,2.504760199924931,h,0,0.06248380010947585,0.05002929992042482,0.049140699906274676,0.09989760001190007,0.09991519991308451,0.30145779997110367
RSVPLG03,si,20260430-152750,1.0.2,20260219-152011,832,Experiment,Both,1,Automatic,main,68,20260430-153444,global,global,300,S,S,A,A,S-A.png,S-A.png,sS,sS,mask-1.png,mask-3.png,h,0,1.1057778999675065,h,0,0.11946800001896918,0.04952339990995824,0.05009889998473227,0.09855089988559484,0.10054690018296242,0.298861299874261
RSVPLG03,si,20260430-152750,1.0.2,20260219-152011,832,Experiment,Both,1,Automatic,main,69,20260430-153449,global,local,300,H,H,E,A,H-E.png,A-H.png,hH,hH,mask-2.png,mask-3.png,h,1,0.6038141001481563,h,1,0.08465029997751117,0.04869500012136996,0.050766600063070655,0.09959280001930892,0.10019650007598102,0.30039010010659695
RSVPLG03,si,20260430-152750,1.0.2,20260219-152011,832,Experiment,Both,1,Automatic,main,70,20260430-153453,local,global,750,H,H,E,E,E-H.png,H-E.png,hH,hH,mask-3.png,mask-2.png,s,0,1.2637708000838757,s,0,0.006959700025618076,0.04957300005480647,0.04922530008479953,0.10032339999452233,0.099592300131917,0.7501445999369025
RSVPLG03,si,20260430-152750,1.0.2,20260219-152011,832,Experiment,Both,1,Automatic,main,71,20260430-153459,local,global,750,S,S,E,A,E-S.png,S-A.png,sS,sS,mask-3.png,mask-1.png,s,1,1.6739533001091331,s,1,0.14167449995875359,0.05089449998922646,0.05094809993170202,0.10021189996041358,0.1000747000798583,0.7498145999852568
RSVPLG03,si,20260430-152750,1.0.2,20260219-152011,832,Experiment,Both,1,Automatic,main,72,20260430-153505,local,local,300,S,S,E,E,E-S.png,E-S.png,sS,sS,mask-3.png,mask-4.png,s,1,0.7575170998461545,h,0,0.031225200043991208,0.050656900042667985,0.04922219994477928,0.10023230011574924,0.09977290011011064,0.30049420008435845
RSVPLG03,si,20260430-152750,1.0.2,20260219-152011,832,Experiment,Both,1,Automatic,main,73,20260430-153509,global,global,750,S,S,E,E,S-E.png,S-E.png,sS,sS,mask-2.png,mask-2.png,s,1,0.5020265001803637,s,1,0.047640099888667464,0.04966649995185435,0.04881289997138083,0.09905279986560345,0.09827960003167391,0.7512012999504805
RSVPLG03,si,20260430-152750,1.0.2,20260219-152011,832,Experiment,Both,1,Automatic,main,74,20260430-153514,local,local,750,H,S,A,A,A-H.png,A-S.png,hH,sS,mask-1.png,mask-3.png,h,1,0.48138009989634156,h,0,0.07907039998099208,0.04895270010456443,0.05118319997563958,0.09985280013643205,0.10048729996196926,0.7497372000943869
RSVPLG03,si,20260430-152750,1.0.2,20260219-152011,832,Experiment,Both,1,Automatic,main,75,20260430-153519,local,global,300,S,H,A,E,A-S.png,H-E.png,sS,hH,mask-3.png,mask-2.png,s,1,1.053075599949807,h,1,0.03923160000704229,0.04988580010831356,0.04962649988010526,0.09955180017277598,0.09995079995132983,0.29953090008348227
RSVPLG03,si,20260430-152750,1.0.2,20260219-152011,832,Experiment,Both,1,Automatic,main,76,20260430-153533,local,global,300,S,H,A,E,A-S.png,H-E.png,sS,hH,mask-3.png,mask-3.png,h,0,0.7545320999342948,h,1,0.09743979992344975,0.05166059988550842,0.04968139994889498,0.10053310007788241,0.09946759999729693,0.3011191999539733
RSVPLG03,si,20260430-152750,1.0.2,20260219-152011,832,Experiment,Both,1,Automatic,main,77,20260430-153537,local,local,750,H,H,A,A,A-H.png,A-H.png,hH,hH,mask-1.png,mask-1.png,h,1,0.9070452000014484,h,1,0.1099590000230819,0.04862770019099116,0.050778800155967474,0.09863190003670752,0.10045730019919574,0.7490517999976873
RSVPLG03,si,20260430-152750,1.0.2,20260219-152011,832,Experiment,Both,1,Automatic,main,78,20260430-153542,local,global,750,S,H,A,A,A-S.png,H-A.png,sS,hH,mask-4.png,mask-1.png,h,0,0.9955678000114858,h,1,0.07785700005479157,0.049656299874186516,0.05079070013016462,0.10035769990645349,0.099156100070104,0.7500624998938292
RSVPLG03,si,20260430-152750,1.0.2,20260219-152011,832,Experiment,Both,1,Automatic,main,79,20260430-153548,local,global,750,H,S,A,A,A-H.png,S-A.png,hH,sS,mask-1.png,mask-3.png,h,1,0.33518149983137846,s,1,0.04027019999921322,0.04934470006264746,0.048317700158804655,0.09952240018174052,0.09886880009435117,0.7508461000397801
RSVPLG03,si,20260430-152750,1.0.2,20260219-152011,832,Experiment,Both,1,Automatic,main,80,20260430-153552,local,local,300,H,S,A,A,A-H.png,A-S.png,hH,sS,mask-4.png,mask-4.png,h,1,2.0590685000643134,s,1,0.5207091001793742,0.05012020003050566,0.050851000007241964,0.10005100001581013,0.10099479998461902,0.2988408000674099
RSVPLG03,si,20260430-152750,1.0.2,20260219-152011,832,Experiment,Both,1,Automatic,main,81,20260430-153558,global,local,300,S,S,E,E,S-E.png,E-S.png,sS,sS,mask-3.png,mask-1.png,h,0,2.0352351998444647,s,1,0.0064790998585522175,0.05010009999386966,0.050239200005307794,0.1005001999437809,0.10089090000838041,0.29994039982557297
RSVPLG03,si,20260430-152750,1.0.2,20260219-152011,832,Experiment,Both,1,Automatic,main,82,20260430-153604,global,local,300,H,H,A,E,H-A.png,E-H.png,hH,hH,mask-3.png,mask-4.png,h,1,0.9782956000417471,s,0,0.05900470004417002,0.05068320012651384,0.04843820002861321,0.09986030007712543,0.10067509999498725,0.3002989001106471
RSVPLG03,si,20260430-152750,1.0.2,20260219-152011,832,Experiment,Both,1,Automatic,main,83,20260430-153609,global,global,750,S,H,A,E,S-A.png,H-E.png,sS,hH,mask-2.png,mask-4.png,s,1,1.3169591000769287,h,1,0.08156770002096891,0.04927469999529421,0.0504093999043107,0.09833369986154139,0.09922169987112284,0.7497785999439657
RSVPLG03,si,20260430-152750,1.0.2,20260219-152011,832,Experiment,Both,1,Automatic,main,84,20260430-153614,global,global,300,S,S,A,A,S-A.png,S-A.png,sS,sS,mask-2.png,mask-3.png,s,1,0.8601865000091493,s,1,0.0637448001652956,0.049668299965560436,0.05037210020236671,0.10152100003324449,0.10014330013655126,0.3013986998703331
RSVPLG03,si,20260430-152750,1.0.2,20260219-152011,832,Experiment,Both,1,Automatic,main,85,20260430-153619,local,local,750,H,S,A,E,A-H.png,E-S.png,hH,sS,mask-2.png,mask-4.png,h,1,0.3828611997887492,s,1,0.009466399904340506,0.049535300116986036,0.04936799989081919,0.1006012000143528,0.10004249983467162,0.7511971001513302
RSVPLG03,si,20260430-152750,1.0.2,20260219-152011,832,Experiment,Both,1,Automatic,main,86,20260430-153623,global,local,750,H,S,A,A,H-A.png,A-S.png,hH,sS,mask-2.png,mask-4.png,h,1,0.593434999929741,h,0,0.1359023000113666,0.050235999980941415,0.04873209982179105,0.10077180014923215,0.09961259993724525,0.7520847001578659
RSVPLG03,si,20260430-152750,1.0.2,20260219-152011,832,Experiment,Both,1,Automatic,main,87,20260430-153628,global,global,750,H,H,E,E,H-E.png,H-E.png,hH,hH,mask-3.png,mask-3.png,h,1,0.9790477999486029,h,1,0.14306840021163225,0.04865249991416931,0.049136900110170245,0.09914529998786747,0.09941980009898543,0.7500944999046624
RSVPLG03,si,20260430-152750,1.0.2,20260219-152011,832,Experiment,Both,1,Automatic,main,88,20260430-153633,local,local,300,H,S,A,E,A-H.png,E-S.png,hH,sS,mask-1.png,mask-4.png,h,1,1.021887500071898,s,1,0.10222709993831813,0.048874900210648775,0.04931699996814132,0.09889900009147823,0.10052069998346269,0.2990374001674354
RSVPLG03,si,20260430-152750,1.0.2,20260219-152011,832,Experiment,Both,1,Automatic,main,89,20260430-153638,global,global,300,S,H,A,A,S-A.png,H-A.png,sS,hH,mask-2.png,mask-3.png,s,1,1.0343091001268476,h,1,0.04174589994363487,0.04957740008831024,0.05020059994421899,0.09881540015339851,0.10128269996494055,0.29907110007479787
RSVPLG03,si,20260430-152750,1.0.2,20260219-152011,832,Experiment,Both,1,Automatic,main,90,20260430-153643,global,global,750,S,H,A,E,S-A.png,H-E.png,sS,hH,mask-2.png,mask-4.png,s,1,0.53372299997136,s,0,0.14405940007418394,0.04910659999586642,0.05093320016749203,0.10035560000687838,0.10020790016278625,0.749798099976033
RSVPLG03,si,20260430-152750,1.0.2,20260219-152011,832,Experiment,Both,1,Automatic,main,91,20260430-153648,global,global,750,H,S,A,A,H-A.png,S-A.png,hH,sS,mask-3.png,mask-4.png,h,1,1.3826047000475228,s,1,0.07912599993869662,0.049791699973866343,0.0505148998927325,0.09978899988345802,0.10015690000727773,0.7497076999861747
RSVPLG03,si,20260430-152750,1.0.2,20260219-152011,832,Experiment,Both,1,Automatic,main,92,20260430-153653,local,local,750,S,S,E,A,E-S.png,A-S.png,sS,sS,mask-4.png,mask-1.png,h,0,0.6914264000952244,s,1,0.4555538999848068,0.05069150007329881,0.048849500017240644,0.10062950011342764,0.09847460011951625,0.7520073000341654
RSVPLG03,si,20260430-152750,1.0.2,20260219-152011,832,Experiment,Both,1,Automatic,main,93,20260430-153659,global,local,750,H,S,E,E,H-E.png,E-S.png,hH,sS,mask-1.png,mask-1.png,h,1,1.1080108999740332,s,1,0.038897099904716015,0.04938809992745519,0.04905289993621409,0.09979930007830262,0.09954399988055229,0.7519127000123262
RSVPLG03,si,20260430-152750,1.0.2,20260219-152011,832,Experiment,Both,1,Automatic,main,94,20260430-153704,local,local,750,S,H,A,E,A-S.png,E-H.png,sS,hH,mask-3.png,mask-2.png,h,0,0.8251702999696136,s,0,0.04562580003403127,0.05007959995418787,0.04768700012937188,0.10008629993535578,0.09950820007361472,0.7514941999688745
RSVPLG03,si,20260430-152750,1.0.2,20260219-152011,832,Experiment,Both,1,Automatic,main,95,20260430-153709,global,local,300,S,H,E,E,S-E.png,E-H.png,sS,hH,mask-4.png,mask-3.png,h,0,0.6200248999521136,s,0,0.013727999990805984,0.04983319994062185,0.04865630017593503,0.09984099981375039,0.0995336000341922,0.2996019998099655
RSVPLG03,si,20260430-152750,1.0.2,20260219-152011,832,Experiment,Both,1,Automatic,main,96,20260430-153713,local,global,300,H,H,E,A,E-H.png,H-A.png,hH,hH,mask-3.png,mask-3.png,h,1,1.5228462999220937,h,1,0.08633560012094676,0.0500166998244822,0.04943690006621182,0.09951279987581074,0.09866819996386766,0.29969089990481734
RSVPLG03,si,20260430-152750,1.0.2,20260219-152011,832,Experiment,Both,1,Automatic,main,97,20260430-153719,global,local,750,H,S,A,E,H-A.png,E-S.png,hH,sS,mask-1.png,mask-2.png,h,1,0.3303831999655813,s,1,0.22802600008435547,0.0488758001010865,0.05015389993786812,0.09893000009469688,0.10108659998513758,0.749777200166136
RSVPLG03,si,20260430-152750,1.0.2,20260219-152011,832,Experiment,Both,1,Automatic,main,98,20260430-153723,local,global,750,H,S,A,E,A-H.png,S-E.png,hH,sS,mask-2.png,mask-1.png,h,1,0.7482253999914974,s,1,0.12631870014593005,0.049825499998405576,0.049843299901112914,0.09896259987726808,0.09984759986400604,0.7506168999243528
RSVPLG03,si,20260430-152750,1.0.2,20260219-152011,832,Experiment,Both,1,Automatic,main,99,20260430-153728,global,local,300,H,S,E,E,H-E.png,E-S.png,hH,sS,mask-1.png,mask-2.png,s,0,1.5256566000171006,h,0,0.08776320004835725,0.04888440016657114,0.05043130018748343,0.09995240019634366,0.09917100006714463,0.2993811999913305
RSVPLG03,si,20260430-152750,1.0.2,20260219-152011,832,Experiment,Both,1,Automatic,main,100,20260430-153734,local,global,300,S,H,E,A,E-S.png,H-A.png,sS,hH,mask-3.png,mask-4.png,s,1,0.7576685000676662,h,1,0.0895222001709044,0.05059810006059706,0.04954119981266558,0.09974170010536909,0.09888889989815652,0.300436400109902
RSVPLG03,si,20260430-153824,1.0.2,20260219-152011,832,Experiment,Both,1,Automatic,warmup,1,20260430-153906,local,global,300,S,H,A,E,A-S.png,H-E.png,sS,hH,mask-3.png,mask-4.png,h,0,1.634461399866268,s,0,0.6942485000472516,0.044269900070503354,0.04905140004120767,0.0946641000919044,0.10053559998050332,0.2960222000256181
RSVPLG03,si,20260430-153824,1.0.2,20260219-152011,832,Experiment,Both,1,Automatic,warmup,2,20260430-153912,global,global,300,H,S,E,E,H-E.png,S-E.png,hH,sS,mask-4.png,mask-1.png,h,1,1.0917253999505192,s,1,0.6457100000698119,0.050051100086420774,0.04763830010779202,0.10003109998069704,0.09842139994725585,0.3015175999607891
RSVPLG03,si,20260430-153824,1.0.2,20260219-152011,832,Experiment,Both,1,Automatic,warmup,3,20260430-153918,global,global,750,S,S,E,E,S-E.png,S-E.png,sS,sS,mask-1.png,mask-1.png,h,0,1.4762405999936163,s,1,0.015311800176277757,0.04863229999318719,0.05289170006290078,0.09996589994989336,0.10013780021108687,0.7521593999117613
RSVPLG03,si,20260430-153824,1.0.2,20260219-152011,832,Experiment,Both,1,Automatic,warmup,4,20260430-153923,local,global,750,S,H,A,A,A-S.png,H-A.png,sS,hH,mask-4.png,mask-2.png,h,0,0.7639657999388874,h,1,0.1361108000855893,0.049889300018548965,0.049106999998912215,0.1008837001863867,0.10077280015684664,0.7527300000656396
RSVPLG03,si,20260430-153824,1.0.2,20260219-152011,832,Experiment,Both,1,Automatic,main,5,20260430-153928,global,global,750,H,H,E,E,H-E.png,H-E.png,hH,hH,mask-4.png,mask-2.png,h,1,0.4197721001692116,h,1,0.10229319985955954,0.04988700011745095,0.05067680007778108,0.09998100018128753,0.09944620006717741,0.7519084999803454
RSVPLG03,si,20260430-153824,1.0.2,20260219-152011,832,Experiment,Both,1,Automatic,main,6,20260430-153933,global,local,300,H,S,A,E,H-A.png,E-S.png,hH,sS,mask-3.png,mask-2.png,h,1,0.750097299925983,h,0,0.11940379999577999,0.05020170006901026,0.04949910007417202,0.10020980006083846,0.09978690021671355,0.30060179997235537
RSVPLG03,si,20260430-153824,1.0.2,20260219-152011,832,Experiment,Both,1,Automatic,main,7,20260430-153938,local,global,300,H,S,A,A,A-H.png,S-A.png,hH,sS,mask-4.png,mask-3.png,h,1,0.9163510999642313,s,1,0.12794309994205832,0.0487313000485301,0.0504058999940753,0.09783550002612174,0.10163290007039905,0.29859789996407926
RSVPLG03,si,20260430-153824,1.0.2,20260219-152011,832,Experiment,Both,1,Automatic,main,8,20260430-153942,local,global,750,H,H,E,A,E-H.png,H-A.png,hH,hH,mask-4.png,mask-3.png,h,1,1.1579805000219494,h,1,0.06314740004017949,0.048552699852734804,0.05074229999445379,0.09973379992879927,0.10071990010328591,0.7508558998815715
RSVPLG03,si,20260430-153824,1.0.2,20260219-152011,832,Experiment,Both,1,Automatic,main,9,20260430-153948,global,local,750,S,S,E,E,S-E.png,E-S.png,sS,sS,mask-4.png,mask-4.png,h,0,0.9042580998502672,s,1,0.072361099999398,0.04976700013503432,0.05004199990071356,0.10018480010330677,0.09985310002230108,0.7521296001505107
RSVPLG03,si,20260430-153824,1.0.2,20260219-152011,832,Experiment,Both,1,Automatic,main,10,20260430-153953,local,global,300,H,H,A,A,A-H.png,H-A.png,hH,hH,mask-1.png,mask-2.png,s,0,1.739063800079748,h,1,0.024193800054490566,0.0512192000169307,0.04917590017430484,0.1005353000946343,0.09989070007577538,0.30188259994611144
RSVPLG03,si,20260430-153824,1.0.2,20260219-152011,832,Experiment,Both,1,Automatic,main,11,20260430-153958,local,global,750,S,S,A,A,A-S.png,S-A.png,sS,sS,mask-3.png,mask-3.png,h,0,0.5265294001437724,s,1,0.015353200025856495,0.05054350011050701,0.049907400039955974,0.10097740008495748,0.09928430011495948,0.7515640000347048
RSVPLG03,si,20260430-153824,1.0.2,20260219-152011,832,Experiment,Both,1,Automatic,main,12,20260430-154003,local,global,750,S,S,A,E,A-S.png,S-E.png,sS,sS,mask-3.png,mask-3.png,h,0,1.4775235999841243,s,1,0.184461000142619,0.049819199834018946,0.05233370000496507,0.09830299997702241,0.10260450001806021,0.749820000026375
RSVPLG03,si,20260430-153824,1.0.2,20260219-152011,832,Experiment,Both,1,Automatic,main,13,20260430-154009,global,global,300,H,H,A,E,H-A.png,H-E.png,hH,hH,mask-2.png,mask-3.png,h,1,0.3194528999738395,h,1,0.06262199999764562,0.048907200107350945,0.05032059992663562,0.09928430011495948,0.10075529990717769,0.3007400000933558
RSVPLG03,si,20260430-153824,1.0.2,20260219-152011,832,Experiment,Both,1,Automatic,main,14,20260430-154013,local,global,300,S,S,E,E,E-S.png,S-E.png,sS,sS,mask-1.png,mask-2.png,h,0,1.268699999898672,h,0,0.20225530001334846,0.04904359998181462,0.04920549993403256,0.09932840010151267,0.10051660006865859,0.301014699973166
RSVPLG03,si,20260430-153824,1.0.2,20260219-152011,832,Experiment,Both,1,Automatic,main,15,20260430-154018,global,global,750,H,H,E,A,H-E.png,H-A.png,hH,hH,mask-2.png,mask-3.png,h,1,0.4820462001953274,h,1,0.07734229997731745,0.04961270000785589,0.049748499877750874,0.1002235000487417,0.10042649996466935,0.7520806000102311
RSVPLG03,si,20260430-153824,1.0.2,20260219-152011,832,Experiment,Both,1,Automatic,main,16,20260430-154023,global,local,300,H,S,E,A,H-E.png,A-S.png,hH,sS,mask-4.png,mask-2.png,h,1,0.6994113000109792,h,0,0.10113910003565252,0.04856300004757941,0.050255100009962916,0.09885479998774827,0.10063429991714656,0.2986392001621425
RSVPLG03,si,20260430-153824,1.0.2,20260219-152011,832,Experiment,Both,1,Automatic,main,17,20260430-154027,local,local,300,S,H,E,A,E-S.png,A-H.png,sS,hH,mask-4.png,mask-2.png,s,1,0.4920264999382198,h,1,0.03251689998432994,0.051068399799987674,0.05024809995666146,0.10136229987256229,0.10102309985086322,0.30008519999682903
RSVPLG03,si,20260430-153824,1.0.2,20260219-152011,832,Experiment,Both,1,Automatic,main,18,20260430-154031,local,local,300,S,S,E,A,E-S.png,A-S.png,sS,sS,mask-4.png,mask-1.png,h,0,1.0510323999915272,s,1,0.031518900068476796,0.05061800009571016,0.0503585000988096,0.09979440015740693,0.09981060004793108,0.30099710007198155
RSVPLG03,si,20260430-153824,1.0.2,20260219-152011,832,Experiment,Both,1,Automatic,main,19,20260430-154036,global,global,750,H,S,A,A,H-A.png,S-A.png,hH,sS,mask-1.png,mask-1.png,h,1,0.5407487999182194,s,1,0.03749040002003312,0.0498842999804765,0.04941199999302626,0.09870640002191067,0.09977099997922778,0.7518537000287324
RSVPLG03,si,20260430-153824,1.0.2,20260219-152011,832,Experiment,Both,1,Automatic,main,20,20260430-154041,local,local,300,H,H,A,A,A-H.png,A-H.png,hH,hH,mask-1.png,mask-1.png,h,1,0.3336022000294179,h,1,0.06172519992105663,0.05102410004474223,0.04995270003564656,0.10164230014197528,0.10040250001475215,0.30264930007979274
RSVPLG03,si,20260430-153824,1.0.2,20260219-152011,832,Experiment,Both,1,Automatic,main,21,20260430-154045,global,global,750,S,H,A,A,S-A.png,H-A.png,sS,hH,mask-1.png,mask-3.png,s,1,1.4119483998510987,h,1,0.02452189987525344,0.05039829993620515,0.05120020010508597,0.10046069999225438,0.1014297001529485,0.7520790998823941
RSVPLG03,si,20260430-153824,1.0.2,20260219-152011,832,Experiment,Both,1,Automatic,main,22,20260430-154050,local,global,750,S,H,E,E,E-S.png,H-E.png,sS,hH,mask-2.png,mask-2.png,s,1,1.0879546999931335,h,1,0.030088300118222833,0.04974960000254214,0.049633300164714456,0.09899670002050698,0.10133530013263226,0.7522301999852061
RSVPLG03,si,20260430-153824,1.0.2,20260219-152011,832,Experiment,Both,1,Automatic,main,23,20260430-154056,local,local,750,S,H,E,A,E-S.png,A-H.png,sS,hH,mask-4.png,mask-2.png,h,0,1.223667100071907,h,1,0.09534680005162954,0.05001440015621483,0.05000229994766414,0.10120200016535819,0.0993951999116689,0.7534464001655579
RSVPLG03,si,20260430-153824,1.0.2,20260219-152011,832,Experiment,Both,1,Automatic,main,24,20260430-154101,local,local,300,H,H,A,E,A-H.png,E-H.png,hH,hH,mask-1.png,mask-2.png,h,1,1.0201234999112785,h,1,0.06997429998591542,0.05001829983666539,0.0492336000315845,0.1003601998090744,0.10052750003524125,0.3009977999608964
RSVPLG03,si,20260430-153824,1.0.2,20260219-152011,832,Experiment,Both,1,Automatic,main,25,20260430-154106,local,global,300,S,S,A,E,A-S.png,S-E.png,sS,sS,mask-2.png,mask-2.png,h,0,2.2271770001389086,s,1,0.04744479991495609,0.05004130001179874,0.05020259995944798,0.10019719996489584,0.10151059995405376,0.3007948000449687
RSVPLG03,si,20260430-153824,1.0.2,20260219-152011,832,Experiment,Both,1,Automatic,main,26,20260430-154130,global,global,300,H,S,A,E,H-A.png,S-E.png,hH,sS,mask-3.png,mask-2.png,h,1,1.1428461999166757,s,1,0.06149299978278577,0.04890879988670349,0.0496692000888288,0.09922519978135824,0.10035170009359717,0.2999157998710871
RSVPLG03,si,20260430-153824,1.0.2,20260219-152011,832,Experiment,Both,1,Automatic,main,27,20260430-154135,global,local,300,S,H,E,A,S-E.png,A-H.png,sS,hH,mask-2.png,mask-4.png,s,1,1.0179858999326825,h,1,0.03150589996948838,0.04577079997397959,0.05087270005606115,0.09722400014288723,0.1020365001168102,0.29592319997027516
RSVPLG03,si,20260430-153824,1.0.2,20260219-152011,832,Experiment,Both,1,Automatic,main,28,20260430-154140,local,global,300,H,S,A,E,A-H.png,S-E.png,hH,sS,mask-1.png,mask-3.png,h,1,0.843171700136736,s,1,0.02981600002385676,0.04967100010253489,0.050614300183951855,0.09923389996401966,0.10044110007584095,0.29893289995379746
RSVPLG03,si,20260430-153824,1.0.2,20260219-152011,832,Experiment,Both,1,Automatic,main,29,20260430-154145,global,local,300,H,H,E,E,H-E.png,E-H.png,hH,hH,mask-3.png,mask-2.png,h,1,0.6734593999572098,s,0,0.05612179986201227,0.05055220006033778,0.05132499989122152,0.10067979991436005,0.10067950002849102,0.2999648000113666
RSVPLG03,si,20260430-153824,1.0.2,20260219-152011,832,Experiment,Both,1,Automatic,main,30,20260430-154149,global,global,300,S,H,E,A,S-E.png,H-A.png,sS,hH,mask-4.png,mask-4.png,s,1,0.40956069994717836,h,1,0.047093800036236644,0.04940799996256828,0.048944200156256557,0.09875009977258742,0.09856520011089742,0.30030059977434576
RSVPLG03,si,20260430-153824,1.0.2,20260219-152011,832,Experiment,Both,1,Automatic,main,31,20260430-154153,local,local,750,S,H,A,E,A-S.png,E-H.png,sS,hH,mask-4.png,mask-1.png,s,1,1.9817324001342058,h,1,0.014044799841940403,0.05384880001656711,0.04959070007316768,0.10049399989657104,0.10080350004136562,0.7516826000064611
RSVPLG03,si,20260430-153824,1.0.2,20260219-152011,832,Experiment,Both,1,Automatic,main,32,20260430-154159,local,local,750,H,H,E,E,E-H.png,E-H.png,hH,hH,mask-2.png,mask-4.png,h,1,1.1077217999845743,s,0,0.07252620020881295,0.0500517999753356,0.049096800154075027,0.10012879990972579,0.09921310003846884,0.7519674999639392
RSVPLG03,si,20260430-153824,1.0.2,20260219-152011,832,Experiment,Both,1,Automatic,main,33,20260430-154205,global,global,750,S,H,E,E,S-E.png,H-E.png,sS,hH,mask-1.png,mask-2.png,h,0,0.8463737000711262,h,1,0.06356159993447363,0.04891339992173016,0.050022499868646264,0.09925270010717213,0.10069989995099604,0.7523787000682205
RSVPLG03,si,20260430-153824,1.0.2,20260219-152011,832,Experiment,Both,1,Automatic,main,34,20260430-154210,local,local,750,S,H,E,A,E-S.png,A-H.png,sS,hH,mask-1.png,mask-4.png,h,0,0.8466841999907047,s,0,0.03881970001384616,0.04942180006764829,0.05025129998102784,0.09882980003021657,0.09959369990974665,0.7515201000496745
RSVPLG03,si,20260430-153824,1.0.2,20260219-152011,832,Experiment,Both,1,Automatic,main,35,20260430-154215,local,local,300,H,H,A,A,A-H.png,A-H.png,hH,hH,mask-3.png,mask-2.png,h,1,0.4495839001610875,h,1,0.10451500001363456,0.04960889997892082,0.05117310001514852,0.09997820015996695,0.10060260002501309,0.3007851999718696
RSVPLG03,si,20260430-153824,1.0.2,20260219-152011,832,Experiment,Both,1,Automatic,main,36,20260430-154219,local,local,750,H,H,E,E,E-H.png,E-H.png,hH,hH,mask-1.png,mask-2.png,s,0,1.2112416001036763,h,1,0.05562239978462458,0.05021689995191991,0.04974789987318218,0.09919629991054535,0.10057189990766346,0.7509884999599308
RSVPLG03,si,20260430-153824,1.0.2,20260219-152011,832,Experiment,Both,1,Automatic,main,37,20260430-154225,local,local,300,H,H,E,A,E-H.png,A-H.png,hH,hH,mask-4.png,mask-2.png,s,0,1.2972752000205219,h,1,0.03916180017404258,0.04940710007213056,0.0499312998726964,0.10091789998114109,0.10125629999674857,0.2992218001745641
RSVPLG03,si,20260430-153824,1.0.2,20260219-152011,832,Experiment,Both,1,Automatic,main,38,20260430-154230,local,global,750,H,H,E,E,E-H.png,H-E.png,hH,hH,mask-2.png,mask-4.png,h,1,1.7288406998850405,h,1,0.071468599839136,0.04966020002029836,0.04912160011008382,0.09868520009331405,0.09953290014527738,0.751503000035882
RSVPLG03,si,20260430-153824,1.0.2,20260219-152011,832,Experiment,Both,1,Automatic,main,39,20260430-154235,local,global,750,H,H,A,A,A-H.png,H-A.png,hH,hH,mask-1.png,mask-4.png,h,1,0.7139826000202447,h,1,0.08039189991541207,0.049728000070899725,0.0486347998958081,0.10002460004761815,0.09898899984546006,0.7533955001272261
RSVPLG03,si,20260430-153824,1.0.2,20260219-152011,832,Experiment,Both,1,Automatic,main,40,20260430-154240,global,local,300,H,H,E,A,H-E.png,A-H.png,hH,hH,mask-4.png,mask-4.png,s,0,0.9988015000708401,h,1,0.7359791998751462,0.04944410012103617,0.04909790004603565,0.09980119997635484,0.09935580007731915,0.30064440006390214
RSVPLG03,si,20260430-153824,1.0.2,20260219-152011,832,Experiment,Both,1,Automatic,main,41,20260430-154246,global,global,300,H,S,A,A,H-A.png,S-A.png,hH,sS,mask-1.png,mask-2.png,h,1,0.9946928001008928,s,1,0.10921419993974268,0.05037239985540509,0.04654910019598901,0.09991310001350939,0.09777530003339052,0.30417009978555143
RSVPLG03,si,20260430-153824,1.0.2,20260219-152011,832,Experiment,Both,1,Automatic,main,42,20260430-154251,local,global,750,S,S,A,A,A-S.png,S-A.png,sS,sS,mask-2.png,mask-4.png,h,0,0.6759133001323789,s,1,0.6694461998995394,0.05008159996941686,0.04820479988120496,0.10021540010347962,0.09856990003027022,0.7524266000837088
RSVPLG03,si,20260430-153824,1.0.2,20260219-152011,832,Experiment,Both,1,Automatic,main,43,20260430-154256,global,local,750,S,H,A,E,S-A.png,E-H.png,sS,hH,mask-2.png,mask-3.png,s,1,0.6864682000596076,s,0,0.09315540012903512,0.050280199851840734,0.0489457999356091,0.09929420007392764,0.09970459993928671,0.7527725999243557
RSVPLG03,si,20260430-153824,1.0.2,20260219-152011,832,Experiment,Both,1,Automatic,main,44,20260430-154301,local,local,750,S,S,A,A,A-S.png,A-S.png,sS,sS,mask-3.png,mask-2.png,h,0,1.0085985001642257,h,0,0.09485920006409287,0.049320399994030595,0.0505299000069499,0.09868999989703298,0.10397149994969368,0.7512173999566585
RSVPLG03,si,20260430-153824,1.0.2,20260219-152011,832,Experiment,Both,1,Automatic,main,45,20260430-154306,local,local,300,H,H,A,A,A-H.png,A-H.png,hH,hH,mask-2.png,mask-3.png,s,0,1.0212113000452518,h,1,0.00800990010611713,0.049606700194999576,0.05006829998455942,0.10020210011862218,0.09918839996680617,0.3008008000906557
RSVPLG03,si,20260430-153824,1.0.2,20260219-152011,832,Experiment,Both,1,Automatic,main,46,20260430-154311,global,local,300,S,S,A,A,S-A.png,A-S.png,sS,sS,mask-2.png,mask-2.png,s,1,1.0247971001081169,h,0,0.05471669998951256,0.05019900016486645,0.050202300073578954,0.10053290007635951,0.10122660011984408,0.301768200006336
RSVPLG03,si,20260430-153824,1.0.2,20260219-152011,832,Experiment,Both,1,Automatic,main,47,20260430-154316,local,local,750,H,H,E,A,E-H.png,A-H.png,hH,hH,mask-4.png,mask-4.png,s,0,0.9175669001415372,h,1,0.008964699925854802,0.04792529996484518,0.04865460004657507,0.09852420003153384,0.09839300019666553,0.7520059999078512
RSVPLG03,si,20260430-153824,1.0.2,20260219-152011,832,Experiment,Both,1,Automatic,main,48,20260430-154321,global,global,300,H,H,E,E,H-E.png,H-E.png,hH,hH,mask-1.png,mask-1.png,s,0,1.3658121000044048,h,1,0.06372809992171824,0.05045889993198216,0.04881169996224344,0.10014089988544583,0.09890330000780523,0.30083719990216196
RSVPLG03,si,20260430-153824,1.0.2,20260219-152011,832,Experiment,Both,1,Automatic,main,49,20260430-154326,local,global,300,S,H,A,A,A-S.png,H-A.png,sS,hH,mask-4.png,mask-3.png,s,1,1.2349244998767972,h,1,0.023345000110566616,0.051910500042140484,0.0497123000677675,0.10044370009563863,0.1012891000136733,0.30079289991408587
RSVPLG03,si,20260430-153824,1.0.2,20260219-152011,832,Experiment,Both,1,Automatic,main,50,20260430-154331,local,global,750,S,H,A,E,A-S.png,H-E.png,sS,hH,mask-1.png,mask-4.png,s,1,0.9136741999536753,h,1,0.01347560016438365,0.051608200185000896,0.04967930004931986,0.10247900011017919,0.09968780004419386,0.7523256000131369
RSVPLG03,si,20260430-153824,1.0.2,20260219-152011,832,Experiment,Both,1,Automatic,main,51,20260430-154343,global,local,300,H,H,E,E,H-E.png,E-H.png,hH,hH,mask-1.png,mask-1.png,h,1,1.0368858000729233,s,0,0.02387910010293126,0.049447499914094806,0.050779599929228425,0.09957259986549616,0.10109260003082454,0.2999507999047637
RSVPLG03,si,20260430-153824,1.0.2,20260219-152011,832,Experiment,Both,1,Automatic,main,52,20260430-154347,local,global,750,H,S,E,A,E-H.png,S-A.png,hH,sS,mask-3.png,mask-1.png,s,0,0.8055303001310676,s,1,0.1362913001794368,0.05123559990897775,0.05085409991443157,0.09948870004154742,0.09958639997057617,0.7528651000466198
RSVPLG03,si,20260430-153824,1.0.2,20260219-152011,832,Experiment,Both,1,Automatic,main,53,20260430-154353,global,global,750,S,H,A,E,S-A.png,H-E.png,sS,hH,mask-1.png,mask-4.png,s,1,0.21937189996242523,h,1,0.1209865000564605,0.05175919993780553,0.051061399979516864,0.10153210000135005,0.10002260003238916,0.7543242999818176
RSVPLG03,si,20260430-153824,1.0.2,20260219-152011,832,Experiment,Both,1,Automatic,main,54,20260430-154357,local,global,300,S,S,A,E,A-S.png,S-E.png,sS,sS,mask-4.png,mask-4.png,h,0,0.6788280999753624,s,1,0.12084059999324381,0.05105179990641773,0.05085449991747737,0.1013553999364376,0.09929480007849634,0.3011765999253839
RSVPLG03,si,20260430-153824,1.0.2,20260219-152011,832,Experiment,Both,1,Automatic,main,55,20260430-154402,local,global,300,H,H,E,A,E-H.png,H-A.png,hH,hH,mask-1.png,mask-1.png,s,0,0.9350701998919249,h,1,0.09577210014685988,0.050693999975919724,0.05020470009185374,0.10141139989718795,0.10088609997183084,0.3003585999831557
RSVPLG03,si,20260430-153824,1.0.2,20260219-152011,832,Experiment,Both,1,Automatic,main,56,20260430-154406,global,local,300,H,H,A,E,H-A.png,E-H.png,hH,hH,mask-4.png,mask-1.png,h,1,0.8912056998815387,h,1,0.1105761001817882,0.04950179997831583,0.05016819993034005,0.10111070005223155,0.10050430009141564,0.3013373001012951
RSVPLG03,si,20260430-153824,1.0.2,20260219-152011,832,Experiment,Both,1,Automatic,main,57,20260430-154411,local,global,300,S,H,A,A,A-S.png,H-A.png,sS,hH,mask-3.png,mask-2.png,h,0,0.758031299803406,s,0,0.2365624001249671,0.04968739999458194,0.051081999903544784,0.09973539994098246,0.10027910000644624,0.29909770004451275
RSVPLG03,si,20260430-153824,1.0.2,20260219-152011,832,Experiment,Both,1,Automatic,main,58,20260430-154416,global,global,750,H,H,E,E,H-E.png,H-E.png,hH,hH,mask-3.png,mask-4.png,h,1,0.6462241001427174,h,1,0.10009650001302361,0.050907199969515204,0.04855499998666346,0.10015379986725748,0.09791929996572435,0.7538440998177975
RSVPLG03,si,20260430-153824,1.0.2,20260219-152011,832,Experiment,Both,1,Automatic,main,59,20260430-154421,global,global,300,S,H,E,A,S-E.png,H-A.png,sS,hH,mask-1.png,mask-2.png,s,1,0.8246090998873115,h,1,0.13645510002970695,0.05054370011202991,0.05021300003863871,0.0994712000247091,0.10128400009125471,0.2994429999962449
RSVPLG03,si,20260430-153824,1.0.2,20260219-152011,832,Experiment,Both,1,Automatic,main,60,20260430-154425,global,local,750,S,S,A,E,S-A.png,E-S.png,sS,sS,mask-1.png,mask-4.png,h,0,1.311610700096935,s,1,0.09642420010641217,0.04761280003003776,0.049850899958983064,0.09933120012283325,0.10122469998896122,0.7500431002117693
RSVPLG03,si,20260430-153824,1.0.2,20260219-152011,832,Experiment,Both,1,Automatic,main,61,20260430-154431,local,local,750,S,H,A,E,A-S.png,E-H.png,sS,hH,mask-3.png,mask-3.png,h,0,1.2268338999710977,h,1,0.14168639993295074,0.05105040012858808,0.050303100142627954,0.10013330006040633,0.100721700116992,0.7496478999964893
RSVPLG03,si,20260430-153824,1.0.2,20260219-152011,832,Experiment,Both,1,Automatic,main,62,20260430-154436,global,local,750,S,H,E,E,S-E.png,E-H.png,sS,hH,mask-4.png,mask-2.png,s,1,1.1675430999603122,s,0,0.16012359992600977,0.050487200031057,0.051044100197032094,0.10049059987068176,0.1000511001329869,0.7530103998724371
RSVPLG03,si,20260430-153824,1.0.2,20260219-152011,832,Experiment,Both,1,Automatic,main,63,20260430-154442,global,local,300,H,S,A,E,H-A.png,E-S.png,hH,sS,mask-2.png,mask-1.png,h,1,1.676085100043565,h,0,0.13548189983703196,0.04919350007548928,0.049420400056988,0.09980470011942089,0.1010555000975728,0.30058260005898774
RSVPLG03,si,20260430-153824,1.0.2,20260219-152011,832,Experiment,Both,1,Automatic,main,64,20260430-154447,global,local,300,S,H,A,E,S-A.png,E-H.png,sS,hH,mask-2.png,mask-3.png,s,1,2.4971342000644654,h,1,0.056919800117611885,0.049179499968886375,0.04980699997395277,0.09944540006108582,0.10006690002046525,0.30073080002330244
RSVPLG03,si,20260430-153824,1.0.2,20260219-152011,832,Experiment,Both,1,Automatic,main,65,20260430-154454,global,global,300,S,H,A,E,S-A.png,H-E.png,sS,hH,mask-1.png,mask-1.png,s,1,0.8438472000416368,h,1,0.03323309984989464,0.049845099914819,0.04987789993174374,0.09962649992667139,0.09984329994767904,0.29986959998495877
RSVPLG03,si,20260430-153824,1.0.2,20260219-152011,832,Experiment,Both,1,Automatic,main,66,20260430-154458,global,global,300,H,S,E,A,H-E.png,S-A.png,hH,sS,mask-2.png,mask-2.png,h,1,1.0200731998775154,s,1,0.1193397999741137,0.051529400050640106,0.050610899925231934,0.10413180012255907,0.10069469991140068,0.300467099994421
RSVPLG03,si,20260430-153824,1.0.2,20260219-152011,832,Experiment,Both,1,Automatic,main,67,20260430-154503,global,local,750,H,S,A,A,H-A.png,A-S.png,hH,sS,mask-1.png,mask-2.png,s,0,0.9282843000255525,h,0,0.09629469993524253,0.051679999800398946,0.050563199911266565,0.1013986999168992,0.09990400006063282,0.7522642998956144
RSVPLG03,si,20260430-153824,1.0.2,20260219-152011,832,Experiment,Both,1,Automatic,main,68,20260430-154508,local,global,750,S,H,A,E,A-S.png,H-E.png,sS,hH,mask-3.png,mask-4.png,h,0,1.2653008999768645,h,1,0.08633640012703836,0.05019319988787174,0.04976719990372658,0.10080250003375113,0.100562599953264,0.7524089999496937
RSVPLG03,si,20260430-153824,1.0.2,20260219-152011,832,Experiment,Both,1,Automatic,main,69,20260430-154514,global,local,750,H,S,E,A,H-E.png,A-S.png,hH,sS,mask-4.png,mask-2.png,h,1,0.5607149000279605,h,0,0.08653159998357296,0.05068430001847446,0.04904690012335777,0.10043399990536273,0.09928820002824068,0.7528198999352753
RSVPLG03,si,20260430-153824,1.0.2,20260219-152011,832,Experiment,Both,1,Automatic,main,70,20260430-154518,global,local,750,H,H,E,A,H-E.png,A-H.png,hH,hH,mask-3.png,mask-4.png,h,1,0.5770304000470787,h,1,0.10230530006811023,0.04886909993365407,0.050036700209602714,0.09966549999080598,0.10127930017188191,0.7508089998736978
RSVPLG03,si,20260430-153824,1.0.2,20260219-152011,832,Experiment,Both,1,Automatic,main,71,20260430-154523,local,global,300,H,S,A,A,A-H.png,S-A.png,hH,sS,mask-3.png,mask-4.png,h,1,1.0037442001048476,s,1,0.040423400001600385,0.05024010012857616,0.050710099982097745,0.103725700173527,0.10089060012251139,0.3003233000636101
RSVPLG03,si,20260430-153824,1.0.2,20260219-152011,832,Experiment,Both,1,Automatic,main,72,20260430-154528,local,local,300,H,H,E,E,E-H.png,E-H.png,hH,hH,mask-1.png,mask-3.png,s,0,1.1806504998821765,s,0,0.052539899945259094,0.0507872998714447,0.04993600002489984,0.10436769993975759,0.10032530012540519,0.3010188997723162
RSVPLG03,si,20260430-153824,1.0.2,20260219-152011,832,Experiment,Both,1,Automatic,main,73,20260430-154533,local,local,750,H,H,E,E,E-H.png,E-H.png,hH,hH,mask-3.png,mask-2.png,s,0,0.5986179998144507,s,0,0.11670710006728768,0.051210900070145726,0.05031840014271438,0.10144619992934167,0.10179430013522506,0.7522938998881727
RSVPLG03,si,20260430-153824,1.0.2,20260219-152011,832,Experiment,Both,1,Automatic,main,74,20260430-154538,local,local,300,H,S,A,A,A-H.png,A-S.png,hH,sS,mask-4.png,mask-4.png,h,1,0.42185089993290603,h,0,0.0880472999997437,0.05018000002019107,0.051172300009056926,0.101238600211218,0.10034479992464185,0.30044660018756986
RSVPLG03,si,20260430-153824,1.0.2,20260219-152011,832,Experiment,Both,1,Automatic,main,75,20260430-154542,local,local,300,H,H,E,A,E-H.png,A-H.png,hH,hH,mask-3.png,mask-1.png,s,0,1.3497146998997778,h,1,0.07049539987929165,0.05134220002219081,0.05068579991348088,0.10076619987376034,0.09981059981510043,0.30122480005957186
RSVPLG03,si,20260430-153824,1.0.2,20260219-152011,832,Experiment,Both,1,Automatic,main,76,20260430-154554,local,global,750,H,H,E,E,E-H.png,H-E.png,hH,hH,mask-3.png,mask-4.png,h,1,0.9356120999436826,h,1,0.07920989999547601,0.05070860008709133,0.05014630011282861,0.09998539998196065,0.1003095000050962,0.7525925000663847
RSVPLG03,si,20260430-153824,1.0.2,20260219-152011,832,Experiment,Both,1,Automatic,main,77,20260430-154559,global,global,750,H,S,A,E,H-A.png,S-E.png,hH,sS,mask-2.png,mask-4.png,h,1,0.7364687998779118,h,0,0.12584839994087815,0.04772070003673434,0.050095299957320094,0.0993593002203852,0.10111110005527735,0.7503341000992805
RSVPLG03,si,20260430-153824,1.0.2,20260219-152011,832,Experiment,Both,1,Automatic,main,78,20260430-154604,global,global,750,S,H,A,E,S-A.png,H-E.png,sS,hH,mask-1.png,mask-3.png,s,1,0.8673821000847965,h,1,0.07057410012930632,0.04880110011436045,0.04890629998408258,0.10007400019094348,0.09907589992508292,0.7523034000769258
RSVPLG03,si,20260430-153824,1.0.2,20260219-152011,832,Experiment,Both,1,Automatic,main,79,20260430-154610,global,local,750,S,H,E,E,S-E.png,E-H.png,sS,hH,mask-1.png,mask-3.png,s,1,0.6187265999615192,s,0,0.07755689998157322,0.05062150000594556,0.04969660006463528,0.10055390000343323,0.10031460016034544,0.7531916999723762
RSVPLG03,si,20260430-153824,1.0.2,20260219-152011,832,Experiment,Both,1,Automatic,main,80,20260430-154614,global,global,300,S,H,E,E,S-E.png,H-E.png,sS,hH,mask-2.png,mask-1.png,s,1,0.4190441998653114,h,1,0.029534900095313787,0.05035909987054765,0.04921669978648424,0.101067999843508,0.09952739998698235,0.30083710001781583
RSVPLG03,si,20260430-153824,1.0.2,20260219-152011,832,Experiment,Both,1,Automatic,main,81,20260430-154619,local,local,300,S,S,A,E,A-S.png,E-S.png,sS,sS,mask-1.png,mask-1.png,s,1,0.6499981998931617,h,0,0.09252950013615191,0.04995130002498627,0.04949030000716448,0.10138299991376698,0.1004767999984324,0.30112640000879765
RSVPLG03,si,20260430-153824,1.0.2,20260219-152011,832,Experiment,Both,1,Automatic,main,82,20260430-154623,global,global,300,H,S,A,E,H-A.png,S-E.png,hH,sS,mask-4.png,mask-1.png,s,0,0.8514503999613225,h,0,0.1262954999692738,0.0499424000736326,0.05119360005483031,0.1011659000068903,0.10094589996151626,0.30061009991914034
RSVPLG03,si,20260430-153824,1.0.2,20260219-152011,832,Experiment,Both,1,Automatic,main,83,20260430-154628,global,global,300,S,H,E,A,S-E.png,H-A.png,sS,hH,mask-2.png,mask-1.png,h,0,3.3388153000269085,s,0,0.03240040014497936,0.05026659998111427,0.05113680008798838,0.09958229982294142,0.10125429998151958,0.299469499848783
RSVPLG03,si,20260430-153824,1.0.2,20260219-152011,832,Experiment,Both,1,Automatic,main,84,20260430-154635,global,global,750,S,S,A,A,S-A.png,S-A.png,sS,sS,mask-3.png,mask-2.png,h,0,56.59797380003147,s,1,0.12695900001563132,0.05014599999412894,0.049846299923956394,0.10096129984594882,0.10092100012116134,0.7521889999043196
RSVPLG03,si,20260430-153824,1.0.2,20260219-152011,832,Experiment,Both,1,Automatic,main,85,20260430-154736,local,local,750,H,S,E,E,E-H.png,E-S.png,hH,sS,mask-2.png,mask-4.png,h,1,1.1097899000160396,s,1,0.07686759997159243,0.0486109999474138,0.050276099937036633,0.09917069994844496,0.10030060005374253,0.750484999967739
RSVPLG03,si,20260430-153824,1.0.2,20260219-152011,832,Experiment,Both,1,Automatic,main,86,20260430-154741,global,global,750,S,H,E,E,S-E.png,H-E.png,sS,hH,mask-1.png,mask-4.png,s,1,0.30344989988952875,h,1,0.07301200018264353,0.05052369995974004,0.04970960016362369,0.09994340012781322,0.0993207001592964,0.7528826999478042
RSVPLG03,si,20260430-153824,1.0.2,20260219-152011,832,Experiment,Both,1,Automatic,main,87,20260430-154745,local,global,750,S,H,A,A,A-S.png,H-A.png,sS,hH,mask-1.png,mask-2.png,h,0,0.5795466999989003,h,1,0.06240860000252724,0.050940899876877666,0.0503587001003325,0.10175889986567199,0.09996110014617443,0.7521145998034626
RSVPLG03,si,20260430-153824,1.0.2,20260219-152011,832,Experiment,Both,1,Automatic,main,88,20260430-154750,global,local,750,H,S,E,E,H-E.png,E-S.png,hH,sS,mask-2.png,mask-2.png,h,1,0.3553577000275254,s,1,0.0499426000751555,0.04962830012664199,0.05051349988207221,0.10028090002015233,0.09998389985412359,0.7523845001123846
RSVPLG03,si,20260430-153824,1.0.2,20260219-152011,832,Experiment,Both,1,Automatic,main,89,20260430-154755,local,local,300,S,H,A,E,A-S.png,E-H.png,sS,hH,mask-3.png,mask-4.png,h,0,0.7139592999592423,s,0,0.057430399814620614,0.05003089993260801,0.0505258000921458,0.09912479994818568,0.09908990003168583,0.30096299992874265
RSVPLG03,si,20260430-153824,1.0.2,20260219-152011,832,Experiment,Both,1,Automatic,main,90,20260430-154759,global,global,750,S,S,A,A,S-A.png,S-A.png,sS,sS,mask-2.png,mask-2.png,s,1,0.8116679999511689,s,1,0.15063979988917708,0.0509226000867784,0.04989699996076524,0.10023350012488663,0.10175819997675717,0.7513017000164837
RSVPLG03,si,20260430-153824,1.0.2,20260219-152011,832,Experiment,Both,1,Automatic,main,91,20260430-154804,local,global,300,H,S,A,A,A-H.png,S-A.png,hH,sS,mask-4.png,mask-4.png,h,1,1.0676361999940127,s,1,0.05446959985420108,0.05010869982652366,0.05218659993261099,0.0995427998714149,0.10187399992719293,0.3000834998674691
RSVPLG03,si,20260430-153824,1.0.2,20260219-152011,832,Experiment,Both,1,Automatic,main,92,20260430-154809,global,local,750,S,S,A,A,S-A.png,A-S.png,sS,sS,mask-2.png,mask-2.png,h,0,0.5693139000795782,s,1,0.023989700013771653,0.04971430008299649,0.049267400056123734,0.10008660005405545,0.09937769989483058,0.7533470001071692
RSVPLG03,si,20260430-153824,1.0.2,20260219-152011,832,Experiment,Both,1,Automatic,main,93,20260430-154814,global,local,300,H,H,A,E,H-A.png,E-H.png,hH,hH,mask-4.png,mask-2.png,h,1,0.6890002000145614,s,0,0.037626300007104874,0.05049329996109009,0.04969819984398782,0.09973719995468855,0.10083109978586435,0.3003144001122564
RSVPLG03,si,20260430-153824,1.0.2,20260219-152011,832,Experiment,Both,1,Automatic,main,94,20260430-154818,global,local,300,H,H,E,E,H-E.png,E-H.png,hH,hH,mask-3.png,mask-3.png,h,1,0.36336350021883845,s,0,0.009734599851071835,0.05157240014523268,0.04932939982973039,0.10089730005711317,0.09960630000568926,0.30279360013082623
RSVPLG03,si,20260430-153824,1.0.2,20260219-152011,832,Experiment,Both,1,Automatic,main,95,20260430-154823,local,local,750,H,H,A,E,A-H.png,E-H.png,hH,hH,mask-1.png,mask-4.png,h,1,0.37329749995842576,s,0,0.47715659998357296,0.050891500199213624,0.050920299952849746,0.10076549998484552,0.10046339989639819,0.7522963001392782
RSVPLG03,si,20260430-153824,1.0.2,20260219-152011,832,Experiment,Both,1,Automatic,main,96,20260430-154827,global,local,750,H,S,A,A,H-A.png,A-S.png,hH,sS,mask-2.png,mask-3.png,s,0,0.47759889997541904,h,0,0.054492499912157655,0.048953100107610226,0.049100699834525585,0.10112800006754696,0.10002789995633066,0.7529771002009511
RSVPLG03,si,20260430-153824,1.0.2,20260219-152011,832,Experiment,Both,1,Automatic,main,97,20260430-154832,global,local,750,H,S,A,A,H-A.png,A-S.png,hH,sS,mask-4.png,mask-1.png,h,1,0.3618181999772787,h,0,0.08029899979010224,0.05012300005182624,0.047763700131326914,0.10084010008722544,0.09883280005306005,0.753436499973759
RSVPLG03,si,20260430-153824,1.0.2,20260219-152011,832,Experiment,Both,1,Automatic,main,98,20260430-154836,local,local,750,H,S,E,E,E-H.png,E-S.png,hH,sS,mask-3.png,mask-2.png,h,1,0.7770920998882502,h,0,0.15950780012644827,0.049862399930134416,0.05063210008665919,0.09910259977914393,0.09967620018869638,0.7511655997950584
RSVPLG03,si,20260430-153824,1.0.2,20260219-152011,832,Experiment,Both,1,Automatic,main,99,20260430-154841,local,global,300,S,S,E,E,E-S.png,S-E.png,sS,sS,mask-1.png,mask-4.png,h,0,1.3057919999118894,s,1,0.17542200000025332,0.05038899998180568,0.049423100193962455,0.10054929996840656,0.0997545002028346,0.2999094999395311
RSVPLG03,si,20260430-153824,1.0.2,20260219-152011,832,Experiment,Both,1,Automatic,main,100,20260430-154847,global,global,300,S,S,A,A,S-A.png,S-A.png,sS,sS,mask-2.png,mask-4.png,s,1,1.263994300039485,h,0,0.04170270008035004,0.04860799992457032,0.04889989993534982,0.09949149983003736,0.09913560003042221,0.30024849995970726
