exp,exp_initials,runtime,ver,modtime,sub,blocktype,targets,cuetype,mode,trialtype,trial,trialtime,t1_level,t2_level,t2_lag,t1,t2,distractor1,distractor2,stimfile1,stimfile2,t1_corr,t2_corr,maskfile1,maskfile2,t1_resp,t1_acc,t1_rt,t2_resp,t2_acc,t2_rt,t1_dur,t2_dur,t1mask_soa,t2mask_soa,t1t2_soa
RSVPLG03,cs,20260417-110400,1.0.2,20251105-084826,826,Introduction,T1,1,Automatic,main,1,20260417-110432,global,global,750,S,H,A,A,S-A.png,H-A.png,sS,hH,mask-3.png,mask-4.png,s,1,3.566956300055608,none,-5,0,0.09471879992634058,0.09849000000394881,0.19742160011082888,0.20071639982052147,0.7470347001217306
RSVPLG03,cs,20260417-110400,1.0.2,20251105-084826,826,Introduction,T1,1,Automatic,main,2,20260417-110440,global,local,750,S,S,A,A,S-A.png,A-S.png,sS,sS,mask-4.png,mask-4.png,h,0,1.28059530002065,none,-5,0,0.09873520000837743,0.0959030999802053,0.20010449993424118,0.19845900009386241,0.7528567998670042
RSVPLG03,cs,20260417-110400,1.0.2,20251105-084826,826,Introduction,T1,1,Automatic,main,3,20260417-110446,local,global,750,S,S,E,A,E-S.png,S-A.png,sS,sS,mask-3.png,mask-2.png,s,1,0.8739996000658721,none,-5,0,0.095879300031811,0.09917140007019043,0.19969739997759461,0.2008483000099659,0.7494415000546724
RSVPLG03,cs,20260417-110400,1.0.2,20251105-084826,826,Introduction,T1,1,Automatic,main,4,20260417-110451,global,local,750,H,H,E,E,H-E.png,E-H.png,hH,hH,mask-3.png,mask-2.png,h,1,1.4866654998622835,none,-5,0,0.09749529999680817,0.09714589989744127,0.20067889988422394,0.1994443000294268,0.7515261999797076
RSVPLG03,cs,20260417-110400,1.0.2,20251105-084826,826,Introduction,T1,1,Automatic,main,5,20260417-110456,global,global,750,H,H,E,A,H-E.png,H-A.png,hH,hH,mask-1.png,mask-4.png,h,1,0.9512864998541772,none,-5,0,0.09787040017545223,0.09665500000119209,0.20075449999421835,0.20119459996931255,0.7512957002036273
RSVPLG03,cs,20260417-110400,1.0.2,20251105-084826,826,Introduction,T1,1,Automatic,main,6,20260417-110501,local,local,750,H,H,E,E,E-H.png,E-H.png,hH,hH,mask-1.png,mask-3.png,s,0,0.7369878001045436,none,-5,0,0.09845799999311566,0.09669470018707216,0.20189739996567369,0.20054690004326403,0.751798499841243
RSVPLG03,cs,20260417-110400,1.0.2,20251105-084826,826,Introduction,T1,1,Automatic,main,7,20260417-110506,local,local,750,S,S,A,A,A-S.png,A-S.png,sS,sS,mask-4.png,mask-3.png,s,1,1.8244171000551432,none,-5,0,0.09588679997250438,0.09644510014913976,0.19864790001884103,0.2002608000766486,0.7505497999954969
RSVPLG03,cs,20260417-110400,1.0.2,20251105-084826,826,Introduction,T1,1,Automatic,main,8,20260417-110512,local,local,750,S,H,A,E,A-S.png,E-H.png,sS,hH,mask-3.png,mask-2.png,s,1,0.8776493999175727,none,-5,0,0.09795500012114644,0.09706650022417307,0.20121850003488362,0.20056250016205013,0.7509844999294728
RSVPLG03,cs,20260417-110400,1.0.2,20251105-084826,826,Introduction,T1,1,Automatic,main,9,20260417-110517,local,global,750,S,S,A,E,A-S.png,S-E.png,sS,sS,mask-2.png,mask-3.png,s,1,0.8753933000843972,none,-5,0,0.0981185999698937,0.09785170014947653,0.2003000001423061,0.2024261001497507,0.7500442999880761
RSVPLG03,cs,20260417-110400,1.0.2,20251105-084826,826,Introduction,T1,1,Automatic,main,10,20260417-110522,global,local,750,H,S,A,E,H-A.png,E-S.png,hH,sS,mask-4.png,mask-2.png,s,0,0.8358112999703735,none,-5,0,0.09756519994698465,0.09929889999330044,0.20100979995913804,0.20002919994294643,0.749961799941957
RSVPLG03,cs,20260417-110400,1.0.2,20251105-084826,826,Introduction,T1,1,Automatic,main,11,20260417-110527,global,global,750,S,S,A,E,S-A.png,S-E.png,sS,sS,mask-2.png,mask-3.png,h,0,30.237205700017512,none,-5,0,0.09842809988185763,0.0984298000112176,0.2010357000399381,0.20062460005283356,0.7510148999281228
RSVPLG03,cs,20260417-110400,1.0.2,20251105-084826,826,Introduction,T1,1,Automatic,main,12,20260417-110602,global,local,750,H,H,A,A,H-A.png,A-H.png,hH,hH,mask-3.png,mask-1.png,h,1,0.5236965001095086,none,-5,0,0.09737049997784197,0.09731960017234087,0.20091690006665885,0.20052680000662804,0.7500259999651462
RSVPLG03,cs,20260417-110400,1.0.2,20251105-084826,826,Introduction,T1,1,Automatic,main,13,20260417-110606,local,global,750,S,H,E,E,E-S.png,H-E.png,sS,hH,mask-4.png,mask-1.png,s,1,2.5374073998536915,none,-5,0,0.09837050014175475,0.0983009000774473,0.20075389998964965,0.19951530010439456,0.7518152999691665
RSVPLG03,cs,20260417-110400,1.0.2,20251105-084826,826,Introduction,T1,1,Automatic,main,14,20260417-110613,global,global,750,H,H,A,E,H-A.png,H-E.png,hH,hH,mask-3.png,mask-1.png,none,-6,0,none,-5,0,0.09913059999234974,0.09708820004016161,0.2006365000270307,0.19863860006444156,0.7526443998795003
RSVPLG03,cs,20260417-110625,1.0.2,20251105-084826,826,Practice,T1,1,Automatic,main,1,20260417-110648,local,global,750,H,S,A,E,A-H.png,S-E.png,hH,sS,mask-1.png,mask-4.png,h,1,1.384414000203833,none,-5,0,0.04774730000644922,0.04729219991713762,0.09928749990649521,0.0987711998168379,0.7489807000383735
RSVPLG03,cs,20260417-110625,1.0.2,20251105-084826,826,Practice,T1,1,Automatic,main,2,20260417-110654,global,local,300,H,S,A,A,H-A.png,A-S.png,hH,sS,mask-2.png,mask-1.png,s,0,0.7735665999352932,none,-5,0,0.04577190009877086,0.0478560000192374,0.09831100003793836,0.09996929997578263,0.2991253000218421
RSVPLG03,cs,20260417-110625,1.0.2,20251105-084826,826,Practice,T1,1,Automatic,main,3,20260417-110658,global,global,750,H,S,A,E,H-A.png,S-E.png,hH,sS,mask-3.png,mask-4.png,s,0,0.9343320000916719,none,-5,0,0.046426699962466955,0.04734129994176328,0.09864749992266297,0.10096749989315867,0.7475711000151932
RSVPLG03,cs,20260417-110625,1.0.2,20251105-084826,826,Practice,T1,1,Automatic,main,4,20260417-110703,local,local,750,H,H,E,E,E-H.png,E-H.png,hH,hH,mask-4.png,mask-4.png,s,0,0.8030282000545412,none,-5,0,0.047995799919590354,0.04771139984950423,0.10033589997328818,0.10012519988231361,0.7499033000785857
RSVPLG03,cs,20260417-110625,1.0.2,20251105-084826,826,Practice,T1,1,Automatic,main,5,20260417-110708,local,local,300,S,H,E,A,E-S.png,A-H.png,sS,hH,mask-4.png,mask-1.png,s,1,1.4291661998722702,none,-5,0,0.04608389991335571,0.04780399985611439,0.10059829987585545,0.10003069997765124,0.29873610008507967
RSVPLG03,cs,20260417-110625,1.0.2,20251105-084826,826,Practice,T1,1,Automatic,main,6,20260417-110713,global,local,750,H,S,A,A,H-A.png,A-S.png,hH,sS,mask-1.png,mask-2.png,s,0,1.117236000020057,none,-5,0,0.04792460007593036,0.0471754998434335,0.10048809996806085,0.099546899786219,0.7484725001268089
RSVPLG03,cs,20260417-110625,1.0.2,20251105-084826,826,Practice,T1,1,Automatic,main,7,20260417-110718,global,global,300,S,H,A,E,S-A.png,H-E.png,sS,hH,mask-2.png,mask-3.png,h,0,1.7056605000980198,none,-5,0,0.04701379989273846,0.04693860001862049,0.09988710004836321,0.09973090002313256,0.2995352998841554
RSVPLG03,cs,20260417-110625,1.0.2,20251105-084826,826,Practice,T1,1,Automatic,main,8,20260417-110723,local,local,300,H,H,E,E,E-H.png,E-H.png,hH,hH,mask-2.png,mask-2.png,h,1,1.6969664001371711,none,-5,0,0.047366300132125616,0.04847939987666905,0.10018150019459426,0.10122349997982383,0.29903280013240874
RSVPLG03,cs,20260417-110625,1.0.2,20251105-084826,826,Practice,T1,1,Automatic,main,9,20260417-110728,global,local,750,S,H,A,A,S-A.png,A-H.png,sS,hH,mask-2.png,mask-4.png,s,1,1.118066000053659,none,-5,0,0.04489669995382428,0.04680430004373193,0.09875330002978444,0.10017569991759956,0.7467465000227094
RSVPLG03,cs,20260417-110625,1.0.2,20251105-084826,826,Practice,T1,1,Automatic,main,10,20260417-110733,global,global,300,S,S,A,E,S-A.png,S-E.png,sS,sS,mask-2.png,mask-3.png,s,1,0.7765957000665367,none,-5,0,0.04701610002666712,0.04758109990507364,0.1003475000616163,0.10102310008369386,0.29868440004065633
RSVPLG03,cs,20260417-110625,1.0.2,20251105-084826,826,Practice,T1,1,Automatic,main,11,20260417-110738,local,global,300,H,S,A,A,A-H.png,S-A.png,hH,sS,mask-2.png,mask-3.png,s,0,1.3326990001369268,none,-5,0,0.04715240001678467,0.047598399920389056,0.0980419002007693,0.10066899983212352,0.2984556001611054
RSVPLG03,cs,20260417-110625,1.0.2,20251105-084826,826,Practice,T1,1,Automatic,main,12,20260417-110742,local,global,300,H,S,A,A,A-H.png,S-A.png,hH,sS,mask-3.png,mask-4.png,h,1,1.0519145999569446,none,-5,0,0.04710999992676079,0.04714119993150234,0.10082169994711876,0.10097369994036853,0.29934530006721616
RSVPLG03,cs,20260417-110625,1.0.2,20251105-084826,826,Practice,T1,1,Automatic,main,13,20260417-110747,local,global,750,H,S,E,A,E-H.png,S-A.png,hH,sS,mask-2.png,mask-1.png,s,0,0.9907178001012653,none,-5,0,0.047781300032511353,0.0469520001206547,0.09955729986540973,0.100075300084427,0.7499625999480486
RSVPLG03,cs,20260417-110625,1.0.2,20251105-084826,826,Practice,T1,1,Automatic,main,14,20260417-110752,local,local,750,H,S,E,A,E-H.png,A-S.png,hH,sS,mask-4.png,mask-3.png,h,1,0.924707799917087,none,-5,0,0.04738310002721846,0.0482727000489831,0.10026710014790297,0.0998212001286447,0.7492784999776632
RSVPLG03,cs,20260417-110625,1.0.2,20251105-084826,826,Practice,T1,1,Automatic,main,15,20260417-110757,global,global,750,S,S,A,E,S-A.png,S-E.png,sS,sS,mask-1.png,mask-2.png,s,1,1.2435959000140429,none,-5,0,0.04580700001679361,0.048534000059589744,0.09828670020215213,0.10099990013986826,0.7478620000183582
RSVPLG03,cs,20260417-110625,1.0.2,20251105-084826,826,Practice,T1,1,Automatic,main,16,20260417-110802,global,local,300,H,S,E,E,H-E.png,E-S.png,hH,sS,mask-4.png,mask-3.png,s,0,1.0463805999606848,none,-5,0,0.04703110014088452,0.045504000037908554,0.09877369995228946,0.09856379986740649,0.2994123001117259
RSVPLG03,cs,20260417-110822,1.0.2,20251105-084826,826,Practice,T1,1,Automatic,main,1,20260417-111107,global,global,750,S,S,E,E,S-E.png,S-E.png,sS,sS,mask-1.png,mask-3.png,s,1,2.3527539998758584,none,-5,0,0.03904639999382198,0.047127299942076206,0.09390889992937446,0.10090329986996949,0.7434171000495553
RSVPLG03,cs,20260417-110822,1.0.2,20251105-084826,826,Practice,T1,1,Automatic,main,2,20260417-111114,global,local,750,S,H,E,A,S-E.png,A-H.png,sS,hH,mask-2.png,mask-1.png,h,0,1.1009072999004275,none,-5,0,0.04594169999472797,0.04678420000709593,0.09891919977962971,0.10126330005005002,0.7502804999239743
RSVPLG03,cs,20260417-110822,1.0.2,20251105-084826,826,Practice,T1,1,Automatic,main,3,20260417-111119,local,global,300,H,S,A,E,A-H.png,S-E.png,hH,sS,mask-4.png,mask-3.png,h,1,1.0811828000005335,none,-5,0,0.04719220008701086,0.04680219991132617,0.09953410015441477,0.099428900051862,0.30112010007724166
RSVPLG03,cs,20260417-110822,1.0.2,20251105-084826,826,Practice,T1,1,Automatic,main,4,20260417-111124,local,global,300,S,H,E,E,E-S.png,H-E.png,sS,hH,mask-1.png,mask-3.png,s,1,1.0283741999883205,none,-5,0,0.046951500000432134,0.04794090008363128,0.09985939995385706,0.10109129990451038,0.2997584000695497
RSVPLG03,cs,20260417-110822,1.0.2,20251105-084826,826,Practice,T1,1,Automatic,main,5,20260417-111128,local,local,750,S,S,A,A,A-S.png,A-S.png,sS,sS,mask-4.png,mask-4.png,s,1,0.4492747997865081,none,-5,0,0.045749800046905875,0.04687339998781681,0.09951400011777878,0.09995059994980693,0.7501416001468897
RSVPLG03,cs,20260417-110822,1.0.2,20251105-084826,826,Practice,T1,1,Automatic,main,6,20260417-111133,global,local,300,S,S,A,A,S-A.png,A-S.png,sS,sS,mask-3.png,mask-3.png,s,1,0.421151100192219,none,-5,0,0.04574330011382699,0.046853499952703714,0.09911500010639429,0.09967259992845356,0.3008598000742495
RSVPLG03,cs,20260417-110822,1.0.2,20251105-084826,826,Practice,T1,1,Automatic,main,7,20260417-111137,global,global,750,S,H,E,E,S-E.png,H-E.png,sS,hH,mask-4.png,mask-4.png,s,1,1.2206073999404907,none,-5,0,0.047472599893808365,0.04852419998496771,0.100533900083974,0.10042149992659688,0.7511005999986082
RSVPLG03,cs,20260417-110822,1.0.2,20251105-084826,826,Practice,T1,1,Automatic,main,8,20260417-111142,local,local,300,S,H,A,E,A-S.png,E-H.png,sS,hH,mask-2.png,mask-4.png,s,1,0.778756600106135,none,-5,0,0.04648989997804165,0.04933899990282953,0.10022859997116029,0.10230809985660017,0.29905330017209053
RSVPLG03,cs,20260417-110822,1.0.2,20251105-084826,826,Practice,T1,1,Automatic,main,9,20260417-111146,local,local,300,H,H,E,E,E-H.png,E-H.png,hH,hH,mask-1.png,mask-2.png,h,1,0.7390451000537723,none,-5,0,0.04798500007018447,0.0488520001526922,0.09982210001908243,0.10202400013804436,0.2990669999271631
RSVPLG03,cs,20260417-110822,1.0.2,20251105-084826,826,Practice,T1,1,Automatic,main,10,20260417-111150,global,global,300,H,H,A,E,H-A.png,H-E.png,hH,hH,mask-3.png,mask-4.png,h,1,0.7544213000219315,none,-5,0,0.04603490000590682,0.04882470006123185,0.09936729981563985,0.10083450004458427,0.2991195998620242
RSVPLG03,cs,20260417-110822,1.0.2,20251105-084826,826,Practice,T1,1,Automatic,main,11,20260417-111155,local,global,750,H,H,E,E,E-H.png,H-E.png,hH,hH,mask-2.png,mask-3.png,s,0,0.6705017001368105,none,-5,0,0.04826349997892976,0.046718599973246455,0.09917639987543225,0.09948669979348779,0.7518722000531852
RSVPLG03,cs,20260417-110822,1.0.2,20251105-084826,826,Practice,T1,1,Automatic,main,12,20260417-111159,local,local,750,H,S,E,E,E-H.png,E-S.png,hH,sS,mask-1.png,mask-3.png,h,1,0.644391399808228,none,-5,0,0.04725070018321276,0.04596660006791353,0.09866010001860559,0.09859920013695955,0.7515432999935001
RSVPLG03,cs,20260417-110822,1.0.2,20251105-084826,826,Practice,T1,1,Automatic,main,13,20260417-111204,local,global,750,S,H,A,A,A-S.png,H-A.png,sS,hH,mask-1.png,mask-3.png,s,1,0.7746141999959946,none,-5,0,0.047973799984902143,0.04732050001621246,0.09949960000813007,0.10069449990987778,0.7517754000145942
RSVPLG03,cs,20260417-110822,1.0.2,20251105-084826,826,Practice,T1,1,Automatic,main,14,20260417-111209,global,global,300,H,S,A,A,H-A.png,S-A.png,hH,sS,mask-4.png,mask-4.png,h,1,0.4479676999617368,none,-5,0,0.047163299983367324,0.046713200164958835,0.1008546999655664,0.09833259996958077,0.3011163999326527
RSVPLG03,cs,20260417-110822,1.0.2,20251105-084826,826,Practice,T1,1,Automatic,main,15,20260417-111213,global,local,300,H,H,A,A,H-A.png,A-H.png,hH,hH,mask-3.png,mask-4.png,s,0,0.4643685999326408,none,-5,0,0.04734009993262589,0.0466450999956578,0.09983159997500479,0.10069520003162324,0.3011948000639677
RSVPLG03,cs,20260417-110822,1.0.2,20251105-084826,826,Practice,T1,1,Automatic,main,16,20260417-111217,global,local,750,S,H,A,A,S-A.png,A-H.png,sS,hH,mask-4.png,mask-4.png,s,1,0.5370701998472214,none,-5,0,0.04658180009573698,0.04687620000913739,0.10085840011015534,0.09772030008025467,0.7526213999371976
RSVPLG03,cs,20260417-111256,1.0.2,20251105-084826,826,Practice,Both,1,Automatic,main,1,20260417-111319,local,local,300,S,H,A,A,A-S.png,A-H.png,sS,hH,mask-1.png,mask-3.png,s,1,2.3741401999723166,h,1,0.29661120008677244,0.04836079990491271,0.04786809999495745,0.10120190004818141,0.099457599921152,0.300089200027287
RSVPLG03,cs,20260417-111256,1.0.2,20251105-084826,826,Practice,Both,1,Automatic,main,2,20260417-111325,local,global,750,H,H,A,A,A-H.png,H-A.png,hH,hH,mask-1.png,mask-3.png,h,1,0.9465845001395792,s,0,0.46420839987695217,0.04731260007247329,0.04731130017898977,0.10020200000144541,0.09986210009083152,0.750553899910301
RSVPLG03,cs,20260417-111256,1.0.2,20251105-084826,826,Practice,Both,1,Automatic,main,3,20260417-111331,local,global,300,H,H,A,A,A-H.png,H-A.png,hH,hH,mask-3.png,mask-1.png,s,0,12.740232900017872,h,1,0.3515566000714898,0.04799810005351901,0.04665320017375052,0.099437499884516,0.0995492001529783,0.300913899904117
RSVPLG03,cs,20260417-111256,1.0.2,20251105-084826,826,Practice,Both,1,Automatic,main,4,20260417-111347,global,global,300,H,H,A,A,H-A.png,H-A.png,hH,hH,mask-3.png,mask-3.png,h,1,0.9191086001228541,s,0,0.3472506001126021,0.0462676000315696,0.04827260016463697,0.09877739986404777,0.10015489999204874,0.2983694998547435
RSVPLG03,cs,20260417-111256,1.0.2,20251105-084826,826,Practice,Both,1,Automatic,main,5,20260417-111352,global,local,300,H,S,A,A,H-A.png,A-S.png,hH,sS,mask-3.png,mask-2.png,h,1,0.8836850998923182,s,1,0.5360508998855948,0.04634060012176633,0.048120500054210424,0.09881539992056787,0.10049040010198951,0.2994854999706149
RSVPLG03,cs,20260417-111256,1.0.2,20251105-084826,826,Practice,Both,1,Automatic,main,6,20260417-111357,global,local,300,S,S,E,E,S-E.png,E-S.png,sS,sS,mask-1.png,mask-3.png,s,1,0.5791857000440359,h,0,0.2790339000057429,0.04724430013448,0.049020899925380945,0.09921270003542304,0.10049799992702901,0.29914340004324913
RSVPLG03,cs,20260417-111256,1.0.2,20251105-084826,826,Practice,Both,1,Automatic,main,7,20260417-111402,global,local,750,S,S,A,E,S-A.png,E-S.png,sS,sS,mask-3.png,mask-4.png,s,1,0.5330695000011474,h,0,0.48045160016044974,0.047246400034055114,0.04655389999970794,0.1004300001077354,0.09881990007124841,0.7500612000003457
RSVPLG03,cs,20260417-111256,1.0.2,20251105-084826,826,Practice,Both,1,Automatic,main,8,20260417-111407,local,local,750,H,H,A,A,A-H.png,A-H.png,hH,hH,mask-2.png,mask-1.png,h,1,0.4885515000205487,s,0,0.5176903000101447,0.046466399915516376,0.04598510009236634,0.09818820003420115,0.09985390002839267,0.7496441998519003
RSVPLG03,cs,20260417-111256,1.0.2,20251105-084826,826,Practice,Both,1,Automatic,main,9,20260417-111412,local,global,300,S,H,A,E,A-S.png,H-E.png,sS,hH,mask-2.png,mask-4.png,s,1,0.775789299979806,h,1,0.7354435999877751,0.04878429998643696,0.047499600099399686,0.10013410006649792,0.1006203000433743,0.3003616000059992
RSVPLG03,cs,20260417-111256,1.0.2,20251105-084826,826,Practice,Both,1,Automatic,main,10,20260417-111417,local,local,300,H,H,E,A,E-H.png,A-H.png,hH,hH,mask-3.png,mask-1.png,h,1,1.6068983001168817,s,0,0.3497041000518948,0.04696309985592961,0.04661120008677244,0.09971649991348386,0.09899340011179447,0.30036089988425374
RSVPLG03,cs,20260417-111256,1.0.2,20251105-084826,826,Practice,Both,1,Automatic,main,11,20260417-111423,local,local,750,H,S,E,A,E-H.png,A-S.png,hH,sS,mask-3.png,mask-1.png,h,1,0.8097685999237001,s,1,0.3775342002045363,0.04747350001707673,0.04828869993798435,0.09991219989024103,0.0992223999928683,0.7503973999992013
RSVPLG03,cs,20260417-111256,1.0.2,20251105-084826,826,Practice,Both,1,Automatic,main,12,20260417-111428,local,global,750,S,H,E,E,E-S.png,H-E.png,sS,hH,mask-4.png,mask-1.png,s,1,0.4373455001041293,h,1,0.27242160006426275,0.04842470004223287,0.048106699949130416,0.10055470000952482,0.09963819989934564,0.7497501000761986
RSVPLG03,cs,20260417-111256,1.0.2,20251105-084826,826,Practice,Both,1,Automatic,main,13,20260417-111433,global,global,750,H,S,E,A,H-E.png,S-A.png,hH,sS,mask-1.png,mask-2.png,h,1,0.5206460000481457,s,1,0.17516399989835918,0.04646439990028739,0.049688100116327405,0.10003099986352026,0.10042549995705485,0.7480581998825073
RSVPLG03,cs,20260417-111256,1.0.2,20251105-084826,826,Practice,Both,1,Automatic,main,14,20260417-111438,global,global,750,H,H,A,A,H-A.png,H-A.png,hH,hH,mask-3.png,mask-2.png,h,1,0.6998219999950379,s,0,0.32792799989692867,0.04807909997180104,0.04681449988856912,0.10021669999696314,0.0990947000682354,0.7505123000591993
RSVPLG03,cs,20260417-111256,1.0.2,20251105-084826,826,Practice,Both,1,Automatic,main,15,20260417-111443,global,local,750,S,S,E,E,S-E.png,E-S.png,sS,sS,mask-3.png,mask-4.png,s,1,0.5263323998078704,h,0,0.23986390000209212,0.04813130013644695,0.04784989985637367,0.09939350001513958,0.10068090003915131,0.7500756001099944
RSVPLG03,cs,20260417-111256,1.0.2,20251105-084826,826,Practice,Both,1,Automatic,main,16,20260417-111448,global,global,300,H,H,A,A,H-A.png,H-A.png,hH,hH,mask-2.png,mask-4.png,h,1,1.3843131999019533,s,0,0.25202890019863844,0.04784259991720319,0.047490499913692474,0.09997519990429282,0.1011071999091655,0.29970430000685155
RSVPLG03,cs,20260417-111512,1.0.2,20251105-084826,826,Practice,T1,1,Automatic,main,1,20260417-111548,global,local,750,H,S,E,E,H-E.png,E-S.png,hH,sS,mask-1.png,mask-3.png,h,1,0.8361895000562072,none,-5,0,0.041921399999409914,0.047524600056931376,0.09302440006285906,0.0993677000515163,0.7449548000004143
RSVPLG03,cs,20260417-111512,1.0.2,20251105-084826,826,Practice,T1,1,Automatic,main,2,20260417-111553,local,global,750,H,S,E,A,E-H.png,S-A.png,hH,sS,mask-4.png,mask-2.png,none,-6,0,none,-5,0,0.047749499790370464,0.04723390005528927,0.10032549989409745,0.0997256999835372,0.7502617998979986
RSVPLG03,cs,20260417-111608,1.0.2,20251105-084826,826,Practice,Both,1,Automatic,main,1,20260417-111648,local,local,750,S,H,E,E,E-S.png,E-H.png,sS,hH,mask-1.png,mask-1.png,s,1,0.6227640998549759,h,1,0.3947427999228239,0.04490029998123646,0.045959100127220154,0.09766620001755655,0.09967390005476773,0.7484265000093728
RSVPLG03,cs,20260417-111608,1.0.2,20251105-084826,826,Practice,Both,1,Automatic,main,2,20260417-111653,global,global,300,S,S,A,A,S-A.png,S-A.png,sS,sS,mask-1.png,mask-1.png,h,0,0.8006176999770105,s,1,0.6796422000043094,0.046174699906259775,0.04793150001205504,0.09954049997031689,0.10052199987694621,0.29924429999664426
RSVPLG03,cs,20260417-111608,1.0.2,20251105-084826,826,Practice,Both,1,Automatic,main,3,20260417-111658,global,local,750,S,S,E,E,S-E.png,E-S.png,sS,sS,mask-2.png,mask-3.png,h,0,1.3913485000375658,s,1,0.31645460007712245,0.046997700119391084,0.0484052998945117,0.09990070015192032,0.10032440000213683,0.7500203000381589
RSVPLG03,cs,20260417-111608,1.0.2,20251105-084826,826,Practice,Both,1,Automatic,main,4,20260417-111704,global,global,300,S,H,A,A,S-A.png,H-A.png,sS,hH,mask-3.png,mask-3.png,s,1,0.8663788000121713,h,1,0.3937353999353945,0.04648400004953146,0.047219499945640564,0.0995348000433296,0.09930230001918972,0.2995432000607252
RSVPLG03,cs,20260417-111608,1.0.2,20251105-084826,826,Practice,Both,1,Automatic,main,5,20260417-111709,local,local,300,H,S,E,A,E-H.png,A-S.png,hH,sS,mask-2.png,mask-3.png,h,1,0.8923154999502003,s,1,0.5041793000418693,0.04645300004631281,0.0474541001021862,0.09976130002178252,0.09956200001761317,0.2990252999588847
RSVPLG03,cs,20260417-111608,1.0.2,20251105-084826,826,Practice,Both,1,Automatic,main,6,20260417-111714,local,global,300,S,H,A,A,A-S.png,H-A.png,sS,hH,mask-2.png,mask-1.png,s,1,0.508855199906975,h,1,0.20136659988202155,0.047564500011503696,0.046181800076738,0.0995336000341922,0.09962600003927946,0.3004457000643015
RSVPLG03,cs,20260417-111608,1.0.2,20251105-084826,826,Practice,Both,1,Automatic,main,7,20260417-111718,global,local,750,H,S,E,A,H-E.png,A-S.png,hH,sS,mask-2.png,mask-3.png,h,1,1.0846474999561906,s,1,0.16628389991819859,0.04767860006541014,0.04766339994966984,0.09928159997798502,0.10085780010558665,0.74990119994618
RSVPLG03,cs,20260417-111608,1.0.2,20251105-084826,826,Practice,Both,1,Automatic,main,8,20260417-111723,local,global,300,H,H,A,E,A-H.png,H-E.png,hH,hH,mask-1.png,mask-3.png,s,0,0.9245396999176592,h,1,0.24531950009986758,0.0469565000385046,0.04829420009627938,0.09971400001086295,0.10112870018929243,0.29939839988946915
RSVPLG03,cs,20260417-111608,1.0.2,20251105-084826,826,Practice,Both,1,Automatic,main,9,20260417-111728,global,global,750,H,H,A,A,H-A.png,H-A.png,hH,hH,mask-4.png,mask-3.png,h,1,0.7626765000168234,s,0,0.34545599995180964,0.046020499896258116,0.04696880001574755,0.09875250002369285,0.10058250022120774,0.7495724998880178
RSVPLG03,cs,20260417-111608,1.0.2,20251105-084826,826,Practice,Both,1,Automatic,main,10,20260417-111733,local,global,750,S,H,E,A,E-S.png,H-A.png,sS,hH,mask-1.png,mask-4.png,s,1,0.4981708999257535,s,0,1.2523690999951214,0.0481625001411885,0.04938019998371601,0.09975429996848106,0.1013130999635905,0.7494818000122905
RSVPLG03,cs,20260417-111608,1.0.2,20251105-084826,826,Practice,Both,1,Automatic,main,11,20260417-111739,global,global,750,H,H,E,A,H-E.png,H-A.png,hH,hH,mask-2.png,mask-1.png,h,1,1.3623552001081407,s,0,0.2158904999960214,0.048450900008901954,0.04835029994137585,0.09992500022053719,0.10058530000969768,0.7497825000900775
RSVPLG03,cs,20260417-111608,1.0.2,20251105-084826,826,Practice,Both,1,Automatic,main,12,20260417-111745,local,global,750,H,H,A,E,A-H.png,H-E.png,hH,hH,mask-4.png,mask-2.png,s,0,1.6401154000777751,h,1,0.29661149997264147,0.04739099997095764,0.04765699990093708,0.1006678999401629,0.10062039992772043,0.7501497999764979
RSVPLG03,cs,20260417-111608,1.0.2,20251105-084826,826,Practice,Both,1,Automatic,main,13,20260417-111751,global,local,300,S,H,A,E,S-A.png,E-H.png,sS,hH,mask-3.png,mask-2.png,h,0,2.2503769998438656,s,0,0.27243509981781244,0.04843830014578998,0.04712880006991327,0.10025930008850992,0.09854120016098022,0.30053450004197657
RSVPLG03,cs,20260417-111608,1.0.2,20251105-084826,826,Practice,Both,1,Automatic,main,14,20260417-111757,local,local,300,S,S,A,E,A-S.png,E-S.png,sS,sS,mask-3.png,mask-3.png,s,1,0.602665500016883,h,0,0.17192890006117523,0.046450600028038025,0.04707080009393394,0.09984960011206567,0.09952599997632205,0.3003239999525249
RSVPLG03,cs,20260417-111608,1.0.2,20251105-084826,826,Practice,Both,1,Automatic,main,15,20260417-111802,global,local,300,H,S,A,A,H-A.png,A-S.png,hH,sS,mask-1.png,mask-2.png,h,1,1.4798810000065714,s,1,0.26394460001029074,0.04820349998772144,0.047970900079235435,0.10168020008131862,0.10013080015778542,0.30072739999741316
RSVPLG03,cs,20260417-111608,1.0.2,20251105-084826,826,Practice,Both,1,Automatic,main,16,20260417-111807,local,local,750,S,S,E,E,E-S.png,E-S.png,sS,sS,mask-4.png,mask-1.png,s,1,0.5383875998668373,h,0,0.46441340004093945,0.04726199992001057,0.04727429989725351,0.09971469989977777,0.09986549988389015,0.7506116000004113
RSVPLG03,cs,20260417-111835,1.0.2,20251105-084826,826,Practice,Both,1,Automatic,main,1,20260417-112040,global,global,750,H,H,A,E,H-A.png,H-E.png,hH,hH,mask-4.png,mask-4.png,h,1,0.6617314000613987,s,0,0.10937079996801913,0.04238780005834997,0.048222600016742945,0.09479870018549263,0.09965549991466105,0.7464434001594782
RSVPLG03,cs,20260417-111835,1.0.2,20251105-084826,826,Practice,Both,1,Automatic,main,2,20260417-112045,local,global,750,H,H,A,A,A-H.png,H-A.png,hH,hH,mask-4.png,mask-4.png,h,1,0.7236583000048995,s,0,0.6150801000185311,0.04943819995969534,0.04839410004206002,0.10106420004740357,0.10092080011963844,0.7529974000062793
RSVPLG03,cs,20260417-111835,1.0.2,20251105-084826,826,Practice,Both,1,Automatic,main,3,20260417-112050,global,local,300,S,H,A,E,S-A.png,E-H.png,sS,hH,mask-3.png,mask-3.png,s,1,0.6600355000700802,h,1,0.41503440006636083,0.046320300083607435,0.04830690007656813,0.0985300000756979,0.10077510005794466,0.29926989995874465
RSVPLG03,cs,20260417-111835,1.0.2,20251105-084826,826,Practice,Both,1,Automatic,main,4,20260417-112055,local,local,750,S,H,A,A,A-S.png,A-H.png,sS,hH,mask-4.png,mask-1.png,s,1,0.5330077998805791,s,0,0.7137470000889152,0.04753029998391867,0.04796990007162094,0.09939650003798306,0.09999129991047084,0.7522891999688
RSVPLG03,cs,20260417-111835,1.0.2,20251105-084826,826,Practice,Both,1,Automatic,main,5,20260417-112100,global,local,300,H,H,A,E,H-A.png,E-H.png,hH,hH,mask-3.png,mask-3.png,h,1,1.787781700026244,s,0,0.24625049997121096,0.046607800060883164,0.04652370000258088,0.10011560004204512,0.09967379993759096,0.3009657000657171
RSVPLG03,cs,20260417-111835,1.0.2,20251105-084826,826,Practice,Both,1,Automatic,main,6,20260417-112106,global,global,750,S,S,A,E,S-A.png,S-E.png,sS,sS,mask-1.png,mask-3.png,s,1,0.5413484999444336,h,0,0.25251360004767776,0.04760969989001751,0.04856689996086061,0.10067129996605217,0.10078210011124611,0.7516981998924166
RSVPLG03,cs,20260417-111835,1.0.2,20251105-084826,826,Practice,Both,1,Automatic,main,7,20260417-112111,local,global,300,H,H,A,E,A-H.png,H-E.png,hH,hH,mask-4.png,mask-2.png,h,1,0.5054803998209536,s,0,0.1773000000976026,0.04943829984404147,0.048576599918305874,0.10123929986730218,0.10098449978977442,0.3007169000338763
RSVPLG03,cs,20260417-111835,1.0.2,20251105-084826,826,Practice,Both,1,Automatic,main,8,20260417-112115,local,local,300,H,S,E,A,E-H.png,A-S.png,hH,sS,mask-1.png,mask-2.png,s,0,1.2846313999034464,h,0,0.501401900080964,0.04801620007492602,0.04682409996166825,0.09925139998085797,0.10094130015932024,0.3007169000338763
RSVPLG03,cs,20260417-111835,1.0.2,20251105-084826,826,Practice,Both,1,Automatic,main,9,20260417-112121,global,global,300,S,S,E,A,S-E.png,S-A.png,sS,sS,mask-2.png,mask-4.png,s,1,0.8352820998989046,h,0,0.4256961999926716,0.04868669994175434,0.04752470017410815,0.1010492998175323,0.10003790003247559,0.3026710997801274
RSVPLG03,cs,20260417-111835,1.0.2,20251105-084826,826,Practice,Both,1,Automatic,main,10,20260417-112126,local,global,750,H,H,E,E,E-H.png,H-E.png,hH,hH,mask-1.png,mask-3.png,s,0,1.1284010999370366,h,1,1.0489843001123518,0.04652059986256063,0.04750610003247857,0.09952579997479916,0.10049989982508123,0.7516276000533253
RSVPLG03,cs,20260417-111835,1.0.2,20251105-084826,826,Practice,Both,1,Automatic,main,11,20260417-112132,local,global,300,S,S,E,E,E-S.png,S-E.png,sS,sS,mask-2.png,mask-1.png,s,1,0.7845793999731541,h,0,0.6055797999724746,0.04850899986922741,0.048523199977353215,0.09885609988123178,0.10150280012749135,0.3001587998587638
RSVPLG03,cs,20260417-111835,1.0.2,20251105-084826,826,Practice,Both,1,Automatic,main,12,20260417-112137,local,local,750,H,S,E,E,E-H.png,E-S.png,hH,sS,mask-4.png,mask-1.png,h,1,1.049977700226009,s,1,0.21223770012147725,0.047109599923714995,0.04739399999380112,0.1011116998270154,0.09992599999532104,0.7527850000187755
RSVPLG03,cs,20260417-111835,1.0.2,20251105-084826,826,Practice,Both,1,Automatic,main,13,20260417-112142,local,local,300,S,H,A,A,A-S.png,A-H.png,sS,hH,mask-2.png,mask-3.png,h,0,0.8641584001015872,s,0,0.35698010004125535,0.04864290007390082,0.04901939979754388,0.1017869000788778,0.10057479981333017,0.3004843001253903
RSVPLG03,cs,20260417-111835,1.0.2,20251105-084826,826,Practice,Both,1,Automatic,main,14,20260417-112147,global,global,300,S,S,A,A,S-A.png,S-A.png,sS,sS,mask-2.png,mask-3.png,s,1,1.2860068001318723,h,0,0.2401014999486506,0.04751169984228909,0.047486300114542246,0.09952170005999506,0.09947209991514683,0.3007668999489397
RSVPLG03,cs,20260417-111835,1.0.2,20251105-084826,826,Practice,Both,1,Automatic,main,15,20260417-112152,global,local,750,S,S,E,A,S-E.png,A-S.png,sS,sS,mask-1.png,mask-1.png,s,1,0.5781690999865532,h,0,0.345400899881497,0.047502300003543496,0.04923469992354512,0.09951580013148487,0.10218569985590875,0.7512818002142012
RSVPLG03,cs,20260417-111835,1.0.2,20251105-084826,826,Practice,Both,1,Automatic,main,16,20260417-112157,global,local,750,S,S,E,A,S-E.png,A-S.png,sS,sS,mask-4.png,mask-3.png,s,1,0.3942890998441726,h,0,0.502050899900496,0.04850680008530617,0.047453700099140406,0.10051760007627308,0.0999265001155436,0.7529041999951005
RSVPLG03,cs,20260417-112312,1.0.2,20251105-084826,826,Experiment,Both,1,Automatic,warmup,1,20260417-112406,global,local,750,S,H,A,E,S-A.png,E-H.png,sS,hH,mask-2.png,mask-2.png,h,0,0.5130975001957268,s,0,1.8025591000914574,0.04027420002967119,0.04759790003299713,0.0940423000138253,0.09966380009427667,0.7432657999452204
RSVPLG03,cs,20260417-112312,1.0.2,20251105-084826,826,Experiment,Both,1,Automatic,warmup,2,20260417-112412,global,global,300,H,H,E,A,H-E.png,H-A.png,hH,hH,mask-4.png,mask-4.png,h,1,0.5738744998816401,s,0,0.6485217998269945,0.04869000008329749,0.04771820013411343,0.10088809998705983,0.09990360005758703,0.3004288000520319
RSVPLG03,cs,20260417-112312,1.0.2,20251105-084826,826,Experiment,Both,1,Automatic,warmup,3,20260417-112417,local,global,300,H,H,E,A,E-H.png,H-A.png,hH,hH,mask-2.png,mask-3.png,s,0,0.41146959993056953,h,1,0.2024602999445051,0.04669589991681278,0.04662719997577369,0.09972699987702072,0.10056260018609464,0.29916829988360405
RSVPLG03,cs,20260417-112312,1.0.2,20251105-084826,826,Experiment,Both,1,Automatic,warmup,4,20260417-112422,local,local,750,S,H,A,A,A-S.png,A-H.png,sS,hH,mask-2.png,mask-4.png,h,0,0.4013213999569416,s,0,0.1070932000875473,0.04778650007210672,0.04869790002703667,0.09999240003526211,0.09990190016105771,0.7476333000231534
RSVPLG03,cs,20260417-112312,1.0.2,20251105-084826,826,Experiment,Both,1,Automatic,main,5,20260417-112426,local,global,300,H,H,E,A,E-H.png,H-A.png,hH,hH,mask-1.png,mask-4.png,s,0,0.5613781998399645,h,1,0.04372019995935261,0.04878129996359348,0.04750339989550412,0.10084560001268983,0.09978879988193512,0.29937150003388524
RSVPLG03,cs,20260417-112312,1.0.2,20251105-084826,826,Experiment,Both,1,Automatic,main,6,20260417-112431,local,local,300,H,S,A,A,A-H.png,A-S.png,hH,sS,mask-2.png,mask-1.png,h,1,3.5807729000225663,s,1,0.07407999993301928,0.046834199922159314,0.04883509990759194,0.1000643998850137,0.10206880001351237,0.2978407999034971
RSVPLG03,cs,20260417-112312,1.0.2,20251105-084826,826,Experiment,Both,1,Automatic,main,7,20260417-112438,local,global,750,H,H,A,A,A-H.png,H-A.png,hH,hH,mask-3.png,mask-3.png,s,0,0.555162200005725,h,1,0.1324289001058787,0.047409200109541416,0.048736099852249026,0.09948559990152717,0.09989379998296499,0.748898500110954
RSVPLG03,cs,20260417-112312,1.0.2,20251105-084826,826,Experiment,Both,1,Automatic,main,8,20260417-112443,local,local,750,S,H,A,E,A-S.png,E-H.png,sS,hH,mask-4.png,mask-1.png,s,1,0.38075809995643795,h,1,0.7169695000629872,0.04651780007407069,0.047531799878925085,0.09946480020880699,0.09792430000379682,0.7491332001518458
RSVPLG03,cs,20260417-112312,1.0.2,20251105-084826,826,Experiment,Both,1,Automatic,main,9,20260417-112448,global,global,750,S,H,E,A,S-E.png,H-A.png,sS,hH,mask-4.png,mask-3.png,s,1,0.36335729993879795,h,1,0.23853980004787445,0.04751309985294938,0.04552990011870861,0.09952689986675978,0.09857320017181337,0.7493405998684466
RSVPLG03,cs,20260417-112312,1.0.2,20251105-084826,826,Experiment,Both,1,Automatic,main,10,20260417-112453,global,local,300,H,H,A,A,H-A.png,A-H.png,hH,hH,mask-3.png,mask-4.png,h,1,0.43302529980428517,s,0,0.140202600043267,0.04748570010997355,0.04671530006453395,0.10023500001989305,0.10015389998443425,0.2990210000425577
RSVPLG03,cs,20260417-112312,1.0.2,20251105-084826,826,Experiment,Both,1,Automatic,main,11,20260417-112457,global,local,300,S,H,A,E,S-A.png,E-H.png,sS,hH,mask-1.png,mask-3.png,s,1,0.39318939996883273,h,1,0.18244280014187098,0.0470036999322474,0.047371899941936135,0.09938400005921721,0.10037239990197122,0.29871980007737875
RSVPLG03,cs,20260417-112312,1.0.2,20251105-084826,826,Experiment,Both,1,Automatic,main,12,20260417-112501,local,global,750,H,H,A,E,A-H.png,H-E.png,hH,hH,mask-3.png,mask-4.png,s,0,0.35669549996964633,h,1,0.13814070005901158,0.04680979996919632,0.04774890001863241,0.09834469994530082,0.0989506000187248,0.7488013999536633
RSVPLG03,cs,20260417-112312,1.0.2,20251105-084826,826,Experiment,Both,1,Automatic,main,13,20260417-112506,local,global,750,S,H,A,E,A-S.png,H-E.png,sS,hH,mask-4.png,mask-4.png,s,1,0.35683860001154244,h,1,0.33913820004090667,0.0476734999101609,0.04767090012319386,0.09987399983219802,0.09885370009578764,0.7498344997875392
RSVPLG03,cs,20260417-112312,1.0.2,20251105-084826,826,Experiment,Both,1,Automatic,main,14,20260417-112511,local,global,300,S,S,E,A,E-S.png,S-A.png,sS,sS,mask-1.png,mask-2.png,s,1,0.39195959991775453,h,0,0.18011409998871386,0.045962599804624915,0.048102800035849214,0.10022639995440841,0.10023540002293885,0.29881739988923073
RSVPLG03,cs,20260417-112312,1.0.2,20251105-084826,826,Experiment,Both,1,Automatic,main,15,20260417-112515,global,global,300,S,S,E,A,S-E.png,S-A.png,sS,sS,mask-4.png,mask-1.png,h,0,0.5703658999409527,s,1,0.17164029995910823,0.04677699995227158,0.04574559978209436,0.09881719993427396,0.09884839993901551,0.29980670008808374
RSVPLG03,cs,20260417-112312,1.0.2,20251105-084826,826,Experiment,Both,1,Automatic,main,16,20260417-112520,local,global,300,S,S,E,A,E-S.png,S-A.png,sS,sS,mask-1.png,mask-4.png,s,1,0.3978275000117719,h,0,0.15107059990987182,0.04669700004160404,0.047684599878266454,0.09880769997835159,0.10072709992527962,0.29846820002421737
RSVPLG03,cs,20260417-112312,1.0.2,20251105-084826,826,Experiment,Both,1,Automatic,main,17,20260417-112524,local,global,750,S,S,A,A,A-S.png,S-A.png,sS,sS,mask-3.png,mask-2.png,s,1,0.34533950011245906,h,0,0.46518709999509156,0.04768229997716844,0.04738579993136227,0.09987109992653131,0.0997061999514699,0.7489926000125706
RSVPLG03,cs,20260417-112312,1.0.2,20251105-084826,826,Experiment,Both,1,Automatic,main,18,20260417-112529,global,local,300,S,H,A,E,S-A.png,E-H.png,sS,hH,mask-3.png,mask-2.png,s,1,0.3612804999575019,h,1,0.6205078000202775,0.04744150000624359,0.0474281997885555,0.09937669988721609,0.09928219998255372,0.29968699999153614
RSVPLG03,cs,20260417-112312,1.0.2,20251105-084826,826,Experiment,Both,1,Automatic,main,19,20260417-112533,local,local,300,H,S,A,E,A-H.png,E-S.png,hH,sS,mask-1.png,mask-1.png,h,1,0.6665366999804974,s,1,0.24734410014934838,0.04634340014308691,0.04838820011354983,0.09935709997080266,0.10121410014107823,0.29765790002420545
RSVPLG03,cs,20260417-112312,1.0.2,20251105-084826,826,Experiment,Both,1,Automatic,main,20,20260417-112538,local,local,300,S,S,A,A,A-S.png,A-S.png,sS,sS,mask-2.png,mask-4.png,s,1,0.38187930011190474,h,0,0.12194050010293722,0.04770429991185665,0.04748929990455508,0.10061009996570647,0.09949490008875728,0.2999309999868274
RSVPLG03,cs,20260417-112312,1.0.2,20251105-084826,826,Experiment,Both,1,Automatic,main,21,20260417-112542,local,local,300,S,S,E,A,E-S.png,A-S.png,sS,sS,mask-3.png,mask-2.png,h,0,0.4264891999773681,s,1,0.14363990002311766,0.046037300024181604,0.04762159986421466,0.09892909997142851,0.0996055998839438,0.2993135000579059
RSVPLG03,cs,20260417-112312,1.0.2,20251105-084826,826,Experiment,Both,1,Automatic,main,22,20260417-112546,local,local,750,S,H,A,E,A-S.png,E-H.png,sS,hH,mask-1.png,mask-3.png,s,1,0.38401719997636974,h,1,0.24694770015776157,0.04751909989863634,0.04751360020600259,0.10155409993603826,0.0995724000968039,0.7501522998791188
RSVPLG03,cs,20260417-112312,1.0.2,20251105-084826,826,Experiment,Both,1,Automatic,main,23,20260417-112551,local,local,750,S,S,A,A,A-S.png,A-S.png,sS,sS,mask-2.png,mask-2.png,h,0,0.9695575998630375,s,1,0.18806479987688363,0.04877190012484789,0.04753879993222654,0.10074830008670688,0.10053930012509227,0.7489630000200123
RSVPLG03,cs,20260417-112312,1.0.2,20251105-084826,826,Experiment,Both,1,Automatic,main,24,20260417-112556,global,local,300,S,H,A,E,S-A.png,E-H.png,sS,hH,mask-3.png,mask-3.png,s,1,1.3073876998387277,h,1,0.21318620000965893,0.047535899793729186,0.047324299812316895,0.1005428999196738,0.10038869990967214,0.2991341999731958
RSVPLG03,cs,20260417-112312,1.0.2,20251105-084826,826,Experiment,Both,1,Automatic,main,25,20260417-112601,local,local,300,H,S,A,A,A-H.png,A-S.png,hH,sS,mask-3.png,mask-3.png,h,1,0.39477370004169643,s,1,0.18367569986730814,0.049157399917021394,0.048378400038927794,0.10015670000575483,0.10051729995757341,0.29983679996803403
RSVPLG03,cs,20260417-112312,1.0.2,20251105-084826,826,Experiment,Both,1,Automatic,main,26,20260417-112627,global,local,750,S,S,E,A,S-E.png,A-S.png,sS,sS,mask-4.png,mask-1.png,h,0,2.1832117999438196,s,1,0.757736099883914,0.04772849986329675,0.04867510008625686,0.099962999811396,0.09989909990690649,0.7485368999186903
RSVPLG03,cs,20260417-112312,1.0.2,20251105-084826,826,Experiment,Both,1,Automatic,main,27,20260417-112634,global,local,750,S,H,A,A,S-A.png,A-H.png,sS,hH,mask-2.png,mask-4.png,s,1,0.3723171998281032,h,1,0.03656719997525215,0.04933469998650253,0.047518699895590544,0.10073859989643097,0.09953609993681312,0.7498057999182492
RSVPLG03,cs,20260417-112312,1.0.2,20251105-084826,826,Experiment,Both,1,Automatic,main,28,20260417-112639,global,global,300,H,S,E,A,H-E.png,S-A.png,hH,sS,mask-2.png,mask-2.png,s,0,0.41875419998541474,h,0,0.07639060006476939,0.04672139999456704,0.04669300001114607,0.09884829982183874,0.10077610006555915,0.29904189985245466
RSVPLG03,cs,20260417-112312,1.0.2,20251105-084826,826,Experiment,Both,1,Automatic,main,29,20260417-112643,local,global,300,H,H,E,E,E-H.png,H-E.png,hH,hH,mask-2.png,mask-4.png,h,1,2.332682100124657,s,0,0.18698090012185276,0.04670329997316003,0.046705400105565786,0.09993580006994307,0.09902560012415051,0.29943859996274114
RSVPLG03,cs,20260417-112312,1.0.2,20251105-084826,826,Experiment,Both,1,Automatic,main,30,20260417-112649,local,local,750,S,S,A,A,A-S.png,A-S.png,sS,sS,mask-1.png,mask-3.png,s,1,0.41528160008601844,h,0,0.1378081999719143,0.04767710017040372,0.04589740000665188,0.09890560014173388,0.09827269986271858,0.7490128001663834
RSVPLG03,cs,20260417-112312,1.0.2,20251105-084826,826,Experiment,Both,1,Automatic,main,31,20260417-112654,local,global,750,S,H,A,A,A-S.png,H-A.png,sS,hH,mask-2.png,mask-4.png,s,1,0.5111899001058191,h,1,0.12444669986143708,0.046683199936524034,0.04857820016331971,0.09990600007586181,0.09983479999937117,0.747264799894765
RSVPLG03,cs,20260417-112312,1.0.2,20251105-084826,826,Experiment,Both,1,Automatic,main,32,20260417-112659,local,global,300,H,H,A,A,A-H.png,H-A.png,hH,hH,mask-2.png,mask-2.png,h,1,0.5529269999824464,s,0,0.19598140008747578,0.0472715999931097,0.04673389997333288,0.10054240003228188,0.0997716998681426,0.3010035001207143
RSVPLG03,cs,20260417-112312,1.0.2,20251105-084826,826,Experiment,Both,1,Automatic,main,33,20260417-112703,local,local,750,S,H,A,A,A-S.png,A-H.png,sS,hH,mask-2.png,mask-2.png,s,1,0.4190513000357896,h,1,0.05429240013472736,0.04592970013618469,0.04666530014947057,0.09901100001297891,0.09871849999763072,0.7493491000495851
RSVPLG03,cs,20260417-112312,1.0.2,20251105-084826,826,Experiment,Both,1,Automatic,main,34,20260417-112708,local,local,300,S,S,E,E,E-S.png,E-S.png,sS,sS,mask-1.png,mask-1.png,s,1,0.4777279000263661,h,0,0.07339110015891492,0.04764240002259612,0.046482899924740195,0.09965950017794967,0.09949119994416833,0.29992560017853975
RSVPLG03,cs,20260417-112312,1.0.2,20251105-084826,826,Experiment,Both,1,Automatic,main,35,20260417-112712,global,local,300,H,H,A,A,H-A.png,A-H.png,hH,hH,mask-4.png,mask-4.png,h,1,0.5656755999661982,s,0,0.04645780008286238,0.045792800141498446,0.04754910012707114,0.09985180012881756,0.10062919999472797,0.2981322000268847
RSVPLG03,cs,20260417-112312,1.0.2,20251105-084826,826,Experiment,Both,1,Automatic,main,36,20260417-112716,local,local,300,H,S,A,A,A-H.png,A-S.png,hH,sS,mask-4.png,mask-3.png,s,0,1.2881926000118256,h,0,0.02129520010203123,0.048543900018557906,0.045839699916541576,0.09974750014953315,0.09954309999011457,0.30010060011409223
RSVPLG03,cs,20260417-112312,1.0.2,20251105-084826,826,Experiment,Both,1,Automatic,main,37,20260417-112721,global,local,750,H,S,E,E,H-E.png,E-S.png,hH,sS,mask-3.png,mask-2.png,h,1,0.5436380999162793,s,1,0.057651299983263016,0.04766869987361133,0.04756650002673268,0.09965769993141294,0.10057200002484024,0.7478733998723328
RSVPLG03,cs,20260417-112312,1.0.2,20251105-084826,826,Experiment,Both,1,Automatic,main,38,20260417-112726,global,global,300,H,H,A,E,H-A.png,H-E.png,hH,hH,mask-2.png,mask-2.png,h,1,0.470784799894318,s,0,0.1391902999021113,0.047576399985700846,0.04751000017859042,0.09960750001482666,0.10050690011121333,0.2990069999359548
RSVPLG03,cs,20260417-112312,1.0.2,20251105-084826,826,Experiment,Both,1,Automatic,main,39,20260417-112730,global,local,300,S,H,E,E,S-E.png,E-H.png,sS,hH,mask-2.png,mask-3.png,s,1,0.5408213001210243,h,1,0.08312699990347028,0.047526700189337134,0.04578469996340573,0.09955490007996559,0.09930760017596185,0.29984740004874766
RSVPLG03,cs,20260417-112312,1.0.2,20251105-084826,826,Experiment,Both,1,Automatic,main,40,20260417-112735,global,global,750,H,H,A,E,H-A.png,H-E.png,hH,hH,mask-4.png,mask-3.png,h,1,0.6475329999811947,s,0,0.11199990008026361,0.045546900015324354,0.04765739990398288,0.0985779999755323,0.1005394000094384,0.7471458001527935
RSVPLG03,cs,20260417-112312,1.0.2,20251105-084826,826,Experiment,Both,1,Automatic,main,41,20260417-112739,local,global,750,H,S,E,E,E-H.png,S-E.png,hH,sS,mask-1.png,mask-1.png,s,0,1.0451444000937045,h,0,0.025677199941128492,0.048383899964392185,0.04756100010126829,0.10023400001227856,0.09941869997419417,0.749464699998498
RSVPLG03,cs,20260417-112312,1.0.2,20251105-084826,826,Experiment,Both,1,Automatic,main,42,20260417-112745,global,global,300,S,S,E,A,S-E.png,S-A.png,sS,sS,mask-3.png,mask-1.png,s,1,0.9476587998215109,h,0,0.09856289997696877,0.046603300143033266,0.04743189993314445,0.10051000001840293,0.100305600091815,0.2985487000551075
RSVPLG03,cs,20260417-112312,1.0.2,20251105-084826,826,Experiment,Both,1,Automatic,main,43,20260417-112749,global,local,750,H,S,A,E,H-A.png,E-S.png,hH,sS,mask-2.png,mask-3.png,h,1,0.5166844001505524,s,1,0.16482950001955032,0.047596999909728765,0.04766499996185303,0.09979039989411831,0.0996817999985069,0.7491400998551399
RSVPLG03,cs,20260417-112312,1.0.2,20251105-084826,826,Experiment,Both,1,Automatic,main,44,20260417-112754,local,global,750,S,S,E,E,E-S.png,S-E.png,sS,sS,mask-3.png,mask-1.png,s,1,0.6965888999402523,s,1,0.5074402999598533,0.04666620003990829,0.04702330008149147,0.1006170001346618,0.09973430004902184,0.7494506000075489
RSVPLG03,cs,20260417-112312,1.0.2,20251105-084826,826,Experiment,Both,1,Automatic,main,45,20260417-112800,global,global,750,H,H,A,A,H-A.png,H-A.png,hH,hH,mask-3.png,mask-2.png,h,1,0.49949319986626506,h,1,0.20583629980683327,0.04715789994224906,0.0461858999915421,0.1001836999785155,0.09823150001466274,0.7499810000881553
RSVPLG03,cs,20260417-112312,1.0.2,20251105-084826,826,Experiment,Both,1,Automatic,main,46,20260417-112804,local,local,300,S,H,A,E,A-S.png,E-H.png,sS,hH,mask-4.png,mask-4.png,s,1,0.5477124000899494,s,0,0.23297549993731081,0.048586799995973706,0.04725689999759197,0.1008339999243617,0.09925339999608696,0.3006175998598337
RSVPLG03,cs,20260417-112312,1.0.2,20251105-084826,826,Experiment,Both,1,Automatic,main,47,20260417-112809,global,global,750,H,H,A,A,H-A.png,H-A.png,hH,hH,mask-4.png,mask-4.png,h,1,0.4701026000548154,h,1,0.18790070014074445,0.04552229982800782,0.0485251999925822,0.09953169990330935,0.09938060003332794,0.7474247999489307
RSVPLG03,cs,20260417-112312,1.0.2,20251105-084826,826,Experiment,Both,1,Automatic,main,48,20260417-112814,local,local,300,S,H,E,A,E-S.png,A-H.png,sS,hH,mask-2.png,mask-1.png,h,0,1.5343348002061248,s,0,0.15145330014638603,0.04753870004788041,0.04754080018028617,0.09898549993522465,0.09952519997023046,0.2995066998992115
RSVPLG03,cs,20260417-112312,1.0.2,20251105-084826,826,Experiment,Both,1,Automatic,main,49,20260417-112819,local,local,300,S,S,E,E,E-S.png,E-S.png,sS,sS,mask-4.png,mask-4.png,s,1,0.49434920004568994,s,1,0.24757319991476834,0.04754749988205731,0.04754530009813607,0.10157529986463487,0.10014030011370778,0.29985779989510775
RSVPLG03,cs,20260417-112312,1.0.2,20251105-084826,826,Experiment,Both,1,Automatic,main,50,20260417-112823,local,global,300,S,S,A,E,A-S.png,S-E.png,sS,sS,mask-1.png,mask-4.png,s,1,0.5966258000116795,s,1,0.13518620003014803,0.04755369992926717,0.045512699987739325,0.09855090011842549,0.09853670001029968,0.29979049996472895
RSVPLG03,cs,20260417-112312,1.0.2,20251105-084826,826,Experiment,Both,1,Automatic,main,51,20260417-112838,global,global,750,H,H,A,A,H-A.png,H-A.png,hH,hH,mask-1.png,mask-1.png,h,1,0.5039563998579979,h,1,0.08869099989533424,0.047843500040471554,0.04568219999782741,0.10102379997260869,0.09913539979606867,0.7506784000433981
RSVPLG03,cs,20260417-112312,1.0.2,20251105-084826,826,Experiment,Both,1,Automatic,main,52,20260417-112842,local,local,300,H,S,A,E,A-H.png,E-S.png,hH,sS,mask-2.png,mask-4.png,h,1,0.4400094000156969,s,1,0.0864834999665618,0.04773209989070892,0.04800430010072887,0.10084769991226494,0.09914960013702512,0.3004254999104887
RSVPLG03,cs,20260417-112312,1.0.2,20251105-084826,826,Experiment,Both,1,Automatic,main,53,20260417-112846,local,global,750,S,H,A,E,A-S.png,H-E.png,sS,hH,mask-3.png,mask-2.png,h,0,0.5810593999922276,h,1,0.07265039999037981,0.047818300081416965,0.047814499819651246,0.10081600002013147,0.10099619999527931,0.7488443001639098
RSVPLG03,cs,20260417-112312,1.0.2,20251105-084826,826,Experiment,Both,1,Automatic,main,54,20260417-112851,global,local,750,S,S,E,E,S-E.png,E-S.png,sS,sS,mask-3.png,mask-4.png,s,1,0.3569611001294106,s,1,0.11925730016082525,0.04773350013419986,0.047674299916252494,0.09892420005053282,0.09986209985800087,0.7492921000812203
RSVPLG03,cs,20260417-112312,1.0.2,20251105-084826,826,Experiment,Both,1,Automatic,main,55,20260417-112856,local,local,750,S,H,A,A,A-S.png,A-H.png,sS,hH,mask-1.png,mask-1.png,s,1,0.39430949999950826,h,1,0.15482189995236695,0.04982049996033311,0.04771580011583865,0.1010366000700742,0.10149649996310472,0.7492887999396771
RSVPLG03,cs,20260417-112312,1.0.2,20251105-084826,826,Experiment,Both,1,Automatic,main,56,20260417-112900,global,global,300,H,H,A,E,H-A.png,H-E.png,hH,hH,mask-4.png,mask-4.png,h,1,0.44762309989891946,s,0,0.1556907999329269,0.04706340003758669,0.04748250008560717,0.10013839998282492,0.0994535000063479,0.3003823000472039
RSVPLG03,cs,20260417-112312,1.0.2,20251105-084826,826,Experiment,Both,1,Automatic,main,57,20260417-112905,local,local,750,H,S,E,E,E-H.png,E-S.png,hH,sS,mask-2.png,mask-1.png,h,1,0.301238999934867,s,1,0.10726029984652996,0.04752839985303581,0.04720929986797273,0.10053909989073873,0.09827379998750985,0.7500823999289423
RSVPLG03,cs,20260417-112312,1.0.2,20251105-084826,826,Experiment,Both,1,Automatic,main,58,20260417-112909,global,global,750,S,H,E,A,S-E.png,H-A.png,sS,hH,mask-2.png,mask-4.png,s,1,0.5171633998397738,h,1,0.10923200007528067,0.04583359998650849,0.04701040009967983,0.10040849982760847,0.10007870011031628,0.7486768998205662
RSVPLG03,cs,20260417-112312,1.0.2,20251105-084826,826,Experiment,Both,1,Automatic,main,59,20260417-112914,local,global,300,H,H,E,E,E-H.png,H-E.png,hH,hH,mask-3.png,mask-1.png,s,0,0.9352257999125868,h,1,0.043291599955409765,0.04862909996882081,0.04689710005186498,0.09967539994977415,0.0997200000565499,0.29966879985295236
RSVPLG03,cs,20260417-112312,1.0.2,20251105-084826,826,Experiment,Both,1,Automatic,main,60,20260417-112919,global,global,750,H,H,E,E,H-E.png,H-E.png,hH,hH,mask-1.png,mask-3.png,h,1,0.36372740007936954,h,1,0.15467799990437925,0.04833300015889108,0.04753260011784732,0.1002007001079619,0.09886629995889962,0.7507754000835121
RSVPLG03,cs,20260417-112312,1.0.2,20251105-084826,826,Experiment,Both,1,Automatic,main,61,20260417-112923,local,global,300,H,H,A,A,A-H.png,H-A.png,hH,hH,mask-3.png,mask-4.png,h,1,0.5229688000399619,s,0,0.1569588000420481,0.04667029995471239,0.04751359997317195,0.09974269988015294,0.09995179995894432,0.3000157999340445
RSVPLG03,cs,20260417-112312,1.0.2,20251105-084826,826,Experiment,Both,1,Automatic,main,62,20260417-112928,global,local,300,H,H,E,E,H-E.png,E-H.png,hH,hH,mask-1.png,mask-3.png,h,1,0.5587009000591934,h,1,0.2840261999517679,0.047389499843120575,0.04724220000207424,0.09910569991916418,0.09968190011568367,0.2992588998749852
RSVPLG03,cs,20260417-112312,1.0.2,20251105-084826,826,Experiment,Both,1,Automatic,main,63,20260417-112932,local,global,750,S,H,E,A,E-S.png,H-A.png,sS,hH,mask-3.png,mask-4.png,s,1,0.32444549980573356,h,1,0.14155210019089282,0.049403500044718385,0.04734340007416904,0.10030689998529851,0.09944400005042553,0.7505983998999
RSVPLG03,cs,20260417-112312,1.0.2,20251105-084826,826,Experiment,Both,1,Automatic,main,64,20260417-112937,global,local,750,S,H,A,A,S-A.png,A-H.png,sS,hH,mask-1.png,mask-3.png,s,1,0.35933520016260445,h,1,0.13493290008045733,0.04774040007032454,0.048722100211307406,0.09953540004789829,0.1000181999988854,0.748781899921596
RSVPLG03,cs,20260417-112312,1.0.2,20251105-084826,826,Experiment,Both,1,Automatic,main,65,20260417-112941,local,global,750,S,S,A,E,A-S.png,S-E.png,sS,sS,mask-2.png,mask-3.png,s,1,0.3253683999646455,s,1,0.17610329994931817,0.04750610003247857,0.04762939992360771,0.10052019986324012,0.10004349984228611,0.7495112000033259
RSVPLG03,cs,20260417-112312,1.0.2,20251105-084826,826,Experiment,Both,1,Automatic,main,66,20260417-112946,global,local,750,H,H,E,E,H-E.png,E-H.png,hH,hH,mask-4.png,mask-3.png,h,1,0.30896329996176064,s,0,1.2395008001476526,0.04838439985178411,0.04959019995294511,0.10063969995826483,0.10162540012970567,0.7483337998855859
RSVPLG03,cs,20260417-112312,1.0.2,20251105-084826,826,Experiment,Both,1,Automatic,main,67,20260417-112952,local,local,300,S,S,E,A,E-S.png,A-S.png,sS,sS,mask-2.png,mask-4.png,s,1,0.5531828999519348,s,1,0.1734688999131322,0.047539199935272336,0.04753419989719987,0.09954739990644157,0.09855680004693568,0.29980839998461306
RSVPLG03,cs,20260417-112312,1.0.2,20251105-084826,826,Experiment,Both,1,Automatic,main,68,20260417-112956,local,global,300,H,S,E,E,E-H.png,S-E.png,hH,sS,mask-1.png,mask-3.png,s,0,0.6286698998883367,s,1,0.1550608000252396,0.04669689992442727,0.04742600000463426,0.09945450001396239,0.10047200019471347,0.29977549985051155
RSVPLG03,cs,20260417-112312,1.0.2,20251105-084826,826,Experiment,Both,1,Automatic,main,69,20260417-113000,global,local,750,S,H,A,E,S-A.png,E-H.png,sS,hH,mask-2.png,mask-1.png,s,1,0.4764218998607248,s,0,0.3646341999992728,0.04739060020074248,0.046520600095391273,0.1003904000390321,0.09896400012075901,0.7489843000657856
RSVPLG03,cs,20260417-112312,1.0.2,20251105-084826,826,Experiment,Both,1,Automatic,main,70,20260417-113005,global,global,750,S,H,A,E,S-A.png,H-E.png,sS,hH,mask-4.png,mask-1.png,s,1,0.36257710005156696,h,1,0.13956869998946786,0.04851210000924766,0.047505300026386976,0.10063089989125729,0.10054509993642569,0.7492309000808746
RSVPLG03,cs,20260417-112312,1.0.2,20251105-084826,826,Experiment,Both,1,Automatic,main,71,20260417-113010,global,global,300,H,S,A,E,H-A.png,S-E.png,hH,sS,mask-3.png,mask-3.png,s,0,1.6441416000016034,h,0,0.49902789993211627,0.04673469997942448,0.04853180004283786,0.09984429995529354,0.09956469992175698,0.30012380005791783
RSVPLG03,cs,20260417-112312,1.0.2,20251105-084826,826,Experiment,Both,1,Automatic,main,72,20260417-113016,global,local,750,H,H,A,E,H-A.png,E-H.png,hH,hH,mask-4.png,mask-1.png,h,1,0.4329380001872778,s,0,0.15174080012366176,0.047429800033569336,0.04704870004206896,0.10045780008658767,0.09808879997581244,0.7505338999908417
RSVPLG03,cs,20260417-112312,1.0.2,20251105-084826,826,Experiment,Both,1,Automatic,main,73,20260417-113021,global,global,300,S,S,E,A,S-E.png,S-A.png,sS,sS,mask-4.png,mask-4.png,s,1,0.420018200064078,s,1,0.15423440001904964,0.04750869981944561,0.04754320019856095,0.09953349991701543,0.09956650016829371,0.2998465998098254
RSVPLG03,cs,20260417-112312,1.0.2,20251105-084826,826,Experiment,Both,1,Automatic,main,74,20260417-113025,local,global,300,H,H,A,A,A-H.png,H-A.png,hH,hH,mask-3.png,mask-2.png,h,1,0.40538779995404184,s,0,0.08682359987869859,0.047536800149828196,0.04663460003212094,0.09966200008057058,0.10026889992877841,0.2993539001327008
RSVPLG03,cs,20260417-112312,1.0.2,20251105-084826,826,Experiment,Both,1,Automatic,main,75,20260417-113029,global,local,750,S,S,E,E,S-E.png,E-S.png,sS,sS,mask-4.png,mask-1.png,s,1,0.3333085000049323,s,1,0.13967720000073314,0.04787479992955923,0.047598799923434854,0.0991372000426054,0.09916229988448322,0.7495216000825167
RSVPLG03,cs,20260417-112312,1.0.2,20251105-084826,826,Experiment,Both,1,Automatic,main,76,20260417-113036,local,local,750,H,S,A,E,A-H.png,E-S.png,hH,sS,mask-3.png,mask-1.png,h,1,0.6495922999456525,h,0,0.28065200010314584,0.04652799991890788,0.04604390007443726,0.09873299999162555,0.09914800012484193,0.7485650999005884
RSVPLG03,cs,20260417-112312,1.0.2,20251105-084826,826,Experiment,Both,1,Automatic,main,77,20260417-113041,global,local,300,H,H,E,E,H-E.png,E-H.png,hH,hH,mask-4.png,mask-4.png,h,1,0.4634070999454707,s,0,0.20093260006979108,0.047523500164970756,0.048023900017142296,0.10154630010947585,0.10075850016437471,0.30004030000418425
RSVPLG03,cs,20260417-112312,1.0.2,20251105-084826,826,Experiment,Both,1,Automatic,main,78,20260417-113046,global,global,750,S,S,A,E,S-A.png,S-E.png,sS,sS,mask-2.png,mask-3.png,s,1,0.7252858998253942,h,0,0.3027486999053508,0.04751510010100901,0.04772150004282594,0.10067100008018315,0.09998499997891486,0.7480486000422388
RSVPLG03,cs,20260417-112312,1.0.2,20251105-084826,826,Experiment,Both,1,Automatic,main,79,20260417-113051,local,global,750,H,S,A,E,A-H.png,S-E.png,hH,sS,mask-3.png,mask-2.png,h,1,0.38029540004208684,s,1,0.1399818998761475,0.047960099996998906,0.047386000165715814,0.09998490009456873,0.10044450010173023,0.749428499955684
RSVPLG03,cs,20260417-112312,1.0.2,20251105-084826,826,Experiment,Both,1,Automatic,main,80,20260417-113056,global,global,300,S,S,E,A,S-E.png,S-A.png,sS,sS,mask-4.png,mask-3.png,s,1,0.45493799983523786,s,1,0.1601758999750018,0.047520200023427606,0.04753099987283349,0.10052660014480352,0.10055149998515844,0.30009520007297397
RSVPLG03,cs,20260417-112312,1.0.2,20251105-084826,826,Experiment,Both,1,Automatic,main,81,20260417-113100,local,global,300,H,S,E,E,E-H.png,S-E.png,hH,sS,mask-4.png,mask-4.png,s,0,0.471790200099349,s,1,0.2588809998705983,0.047757199965417385,0.047687700018286705,0.09995009982958436,0.10092959995381534,0.29975209990516305
RSVPLG03,cs,20260417-112312,1.0.2,20251105-084826,826,Experiment,Both,1,Automatic,main,82,20260417-113104,local,local,750,S,H,A,A,A-S.png,A-H.png,sS,hH,mask-1.png,mask-1.png,h,0,0.6691273001488298,h,1,0.1521765999495983,0.04786489997059107,0.047862299950793386,0.10007279994897544,0.09988159989006817,0.749068700009957
RSVPLG03,cs,20260417-112312,1.0.2,20251105-084826,826,Experiment,Both,1,Automatic,main,83,20260417-113109,local,global,750,S,S,E,A,E-S.png,S-A.png,sS,sS,mask-4.png,mask-1.png,s,1,0.664238200057298,s,1,0.16314930003136396,0.048580000177025795,0.04566589999012649,0.10082400008104742,0.09988430002704263,0.7506103001069278
RSVPLG03,cs,20260417-112312,1.0.2,20251105-084826,826,Experiment,Both,1,Automatic,main,84,20260417-113114,global,global,300,H,S,A,A,H-A.png,S-A.png,hH,sS,mask-1.png,mask-2.png,h,1,0.35197039996273816,s,1,0.1355683000292629,0.047902399906888604,0.04767809994518757,0.0991837999317795,0.09969479986466467,0.2990826000459492
RSVPLG03,cs,20260417-112312,1.0.2,20251105-084826,826,Experiment,Both,1,Automatic,main,85,20260417-113119,global,global,300,H,S,A,E,H-A.png,S-E.png,hH,sS,mask-4.png,mask-4.png,h,1,0.43205559998750687,s,1,0.1249099001288414,0.04749799985438585,0.04694000002928078,0.10052079986780882,0.09996470017358661,0.30059039988555014
RSVPLG03,cs,20260417-112312,1.0.2,20251105-084826,826,Experiment,Both,1,Automatic,main,86,20260417-113123,global,global,300,S,H,A,A,S-A.png,H-A.png,sS,hH,mask-4.png,mask-1.png,s,1,0.76350750005804,h,1,0.08657589997164905,0.04712220001965761,0.047647699946537614,0.10091769997961819,0.09965109988115728,0.2994899000041187
RSVPLG03,cs,20260417-112312,1.0.2,20251105-084826,826,Experiment,Both,1,Automatic,main,87,20260417-113127,global,local,300,S,H,A,A,S-A.png,A-H.png,sS,hH,mask-1.png,mask-3.png,s,1,0.5287524000741541,s,0,0.2982011998537928,0.04775380017235875,0.04859829996712506,0.09981070016510785,0.10032169986516237,0.2997350001242012
RSVPLG03,cs,20260417-112312,1.0.2,20251105-084826,826,Experiment,Both,1,Automatic,main,88,20260417-113132,local,local,750,S,H,A,A,A-S.png,A-H.png,sS,hH,mask-1.png,mask-1.png,s,1,0.6549372000154108,h,1,0.06431409996002913,0.04760970012284815,0.047688999911770225,0.09985510003753006,0.09908109996467829,0.7492341001052409
RSVPLG03,cs,20260417-112312,1.0.2,20251105-084826,826,Experiment,Both,1,Automatic,main,89,20260417-113137,global,global,750,S,H,A,E,S-A.png,H-E.png,sS,hH,mask-2.png,mask-3.png,s,1,0.49493799987249076,h,1,0.16540560009889305,0.04870659997686744,0.04641740000806749,0.0998958998825401,0.09852100000716746,0.7495953999459743
RSVPLG03,cs,20260417-112312,1.0.2,20251105-084826,826,Experiment,Both,1,Automatic,main,90,20260417-113141,local,global,300,H,H,A,A,A-H.png,H-A.png,hH,hH,mask-1.png,mask-1.png,h,1,0.4426259999163449,h,1,0.23360159993171692,0.04694470018148422,0.047666799975559115,0.10025610006414354,0.09971380000934005,0.29980330006219447
RSVPLG03,cs,20260417-112312,1.0.2,20251105-084826,826,Experiment,Both,1,Automatic,main,91,20260417-113146,global,global,750,S,H,A,A,S-A.png,H-A.png,sS,hH,mask-4.png,mask-2.png,s,1,0.4019651999697089,h,1,0.07302320003509521,0.04968030005693436,0.047517099883407354,0.10071239992976189,0.10055629978887737,0.7499687001109123
RSVPLG03,cs,20260417-112312,1.0.2,20251105-084826,826,Experiment,Both,1,Automatic,main,92,20260417-113150,global,local,300,S,S,E,A,S-E.png,A-S.png,sS,sS,mask-1.png,mask-3.png,s,1,0.3814966999925673,h,0,0.19691150006838143,0.04549859999679029,0.04747500014491379,0.09850719990208745,0.10047690011560917,0.29771039984188974
RSVPLG03,cs,20260417-112312,1.0.2,20251105-084826,826,Experiment,Both,1,Automatic,main,93,20260417-113155,global,global,300,S,H,A,A,S-A.png,H-A.png,sS,hH,mask-3.png,mask-3.png,s,1,0.35604280000552535,h,1,0.10557779995724559,0.047507999930530787,0.04740860010497272,0.09859209996648133,0.10018190019764006,0.29881049995310605
RSVPLG03,cs,20260417-112312,1.0.2,20251105-084826,826,Experiment,Both,1,Automatic,main,94,20260417-113159,global,global,750,S,H,E,A,S-E.png,H-A.png,sS,hH,mask-2.png,mask-2.png,s,1,0.2839431001339108,h,1,0.13417210010811687,0.0475362001452595,0.0468662001658231,0.09859780012629926,0.10001279995776713,0.7480536999646574
RSVPLG03,cs,20260417-112312,1.0.2,20251105-084826,826,Experiment,Both,1,Automatic,main,95,20260417-113203,global,local,750,S,S,E,E,S-E.png,E-S.png,sS,sS,mask-1.png,mask-3.png,s,1,0.6531525000464171,s,1,0.1779183999169618,0.04647190007381141,0.047565899789333344,0.1001802000682801,0.09969459986314178,0.7485749002080411
RSVPLG03,cs,20260417-112312,1.0.2,20251105-084826,826,Experiment,Both,1,Automatic,main,96,20260417-113208,local,local,750,S,H,A,E,A-S.png,E-H.png,sS,hH,mask-2.png,mask-1.png,h,0,1.9703846001066267,s,0,0.06945349997840822,0.04858909989707172,0.048551700077950954,0.1006682999432087,0.09963899990543723,0.7492287999484688
RSVPLG03,cs,20260417-112312,1.0.2,20251105-084826,826,Experiment,Both,1,Automatic,main,97,20260417-113215,global,local,300,H,S,E,A,H-E.png,A-S.png,hH,sS,mask-4.png,mask-2.png,h,1,1.2813081999775022,s,1,0.0904569998383522,0.04714929987676442,0.047286600107327104,0.09938200004398823,0.1003241001162678,0.29964859993197024
RSVPLG03,cs,20260417-112312,1.0.2,20251105-084826,826,Experiment,Both,1,Automatic,main,98,20260417-113220,local,local,750,H,H,A,A,A-H.png,A-H.png,hH,hH,mask-3.png,mask-1.png,h,1,0.8205404998734593,h,1,0.21367740002460778,0.04909330001100898,0.04757139994762838,0.10011459980159998,0.10061329999007285,0.7494610999710858
RSVPLG03,cs,20260417-112312,1.0.2,20251105-084826,826,Experiment,Both,1,Automatic,main,99,20260417-113225,global,local,750,S,S,E,E,S-E.png,E-S.png,sS,sS,mask-4.png,mask-1.png,s,1,0.4462756998836994,s,1,0.20013330015353858,0.04652650002390146,0.04852119996212423,0.09860729984939098,0.10152629995718598,0.7474825999233872
RSVPLG03,cs,20260417-112312,1.0.2,20251105-084826,826,Experiment,Both,1,Automatic,main,100,20260417-113229,global,local,300,H,S,A,A,H-A.png,A-S.png,hH,sS,mask-4.png,mask-3.png,h,1,1.1157444999553263,s,1,0.31548039987683296,0.0470965001732111,0.04612090019509196,0.10011640004813671,0.09849570016376674,0.2999627999961376
RSVPLG03,cs,20260417-113353,1.0.2,20251105-084826,826,Experiment,Both,1,Automatic,warmup,1,20260417-113427,local,global,300,H,S,E,E,E-H.png,S-E.png,hH,sS,mask-3.png,mask-1.png,h,1,1.0620281998999417,s,1,1.1741304998286068,0.040281099965795875,0.047725999960675836,0.09219200001098216,0.10119570000097156,0.2934675000142306
RSVPLG03,cs,20260417-113353,1.0.2,20251105-084826,826,Experiment,Both,1,Automatic,warmup,2,20260417-113432,local,global,750,S,S,A,E,A-S.png,S-E.png,sS,sS,mask-4.png,mask-3.png,s,1,0.8523192000575364,s,1,0.05751129984855652,0.046673000091686845,0.048760600155219436,0.09990999987348914,0.10003430000506341,0.7502291998825967
RSVPLG03,cs,20260417-113353,1.0.2,20251105-084826,826,Experiment,Both,1,Automatic,warmup,3,20260417-113437,local,local,750,S,S,E,E,E-S.png,E-S.png,sS,sS,mask-2.png,mask-2.png,s,1,0.38969169999472797,s,1,0.0971373999491334,0.046576400054618716,0.048523300094529986,0.09878510003909469,0.10141090000979602,0.7502745999954641
RSVPLG03,cs,20260417-113353,1.0.2,20251105-084826,826,Experiment,Both,1,Automatic,warmup,4,20260417-113442,global,local,750,H,S,A,A,H-A.png,A-S.png,hH,sS,mask-4.png,mask-3.png,h,1,0.2595633000601083,h,0,0.10017440002411604,0.04856349993497133,0.04747700016014278,0.10157479997724295,0.09847710002213717,0.7534521999768913
RSVPLG03,cs,20260417-113353,1.0.2,20251105-084826,826,Experiment,Both,1,Automatic,main,5,20260417-113446,local,global,750,S,S,E,A,E-S.png,S-A.png,sS,sS,mask-4.png,mask-4.png,s,1,0.3586783001665026,s,1,0.1245438999030739,0.046582299983128905,0.04861080017872155,0.0996437999419868,0.10065739997662604,0.7509580999612808
RSVPLG03,cs,20260417-113353,1.0.2,20251105-084826,826,Experiment,Both,1,Automatic,main,6,20260417-113451,global,global,300,H,H,E,E,H-E.png,H-E.png,hH,hH,mask-3.png,mask-2.png,h,1,0.5053460001945496,h,1,0.11278349999338388,0.04751889989711344,0.04774890001863241,0.10153049998916686,0.1018161999527365,0.30008539999835193
RSVPLG03,cs,20260417-113353,1.0.2,20251105-084826,826,Experiment,Both,1,Automatic,main,7,20260417-113455,local,local,750,H,H,A,E,A-H.png,E-H.png,hH,hH,mask-4.png,mask-4.png,h,1,0.6291734999977052,s,0,0.3351406001020223,0.047730700112879276,0.04662330006249249,0.1017497000284493,0.09961379994638264,0.7522575999610126
RSVPLG03,cs,20260417-113353,1.0.2,20251105-084826,826,Experiment,Both,1,Automatic,main,8,20260417-113500,local,local,300,H,S,E,A,E-H.png,A-S.png,hH,sS,mask-3.png,mask-2.png,s,0,0.4480609998572618,h,0,0.11011780006811023,0.048513000132516026,0.04760859999805689,0.10152489994652569,0.09963209996931255,0.30150249996222556
RSVPLG03,cs,20260417-113353,1.0.2,20251105-084826,826,Experiment,Both,1,Automatic,main,9,20260417-113504,local,global,750,H,S,A,E,A-H.png,S-E.png,hH,sS,mask-3.png,mask-3.png,h,1,0.23339740000665188,s,1,0.07228379999287426,0.047471500001847744,0.048529899911955,0.10045269993133843,0.09958350006490946,0.7517711999826133
RSVPLG03,cs,20260417-113353,1.0.2,20251105-084826,826,Experiment,Both,1,Automatic,main,10,20260417-113509,global,local,300,S,S,A,E,S-A.png,E-S.png,sS,sS,mask-1.png,mask-1.png,s,1,0.3742289999499917,s,1,0.10076900012791157,0.047669699881225824,0.047505600145086646,0.09906379994936287,0.10069400002248585,0.2994565998669714
RSVPLG03,cs,20260417-113353,1.0.2,20251105-084826,826,Experiment,Both,1,Automatic,main,11,20260417-113513,global,global,750,S,H,E,A,S-E.png,H-A.png,sS,hH,mask-1.png,mask-1.png,s,1,0.28048379998654127,h,1,0.11142780003137887,0.04688599985092878,0.04909950005821884,0.09995809989050031,0.10208379989489913,0.7498608999885619
RSVPLG03,cs,20260417-113353,1.0.2,20251105-084826,826,Experiment,Both,1,Automatic,main,12,20260417-113517,global,local,750,S,H,E,A,S-E.png,A-H.png,sS,hH,mask-1.png,mask-2.png,s,1,0.5283467001281679,h,1,0.16139470017515123,0.0465983001049608,0.04867510008625686,0.09998450009152293,0.09990480006672442,0.7507456999737769
RSVPLG03,cs,20260417-113353,1.0.2,20251105-084826,826,Experiment,Both,1,Automatic,main,13,20260417-113522,global,local,300,H,H,E,E,H-E.png,E-H.png,hH,hH,mask-1.png,mask-3.png,h,1,0.5786550999619067,s,0,0.04452090011909604,0.04755370016209781,0.04738799994811416,0.09954570000991225,0.09969209996052086,0.3005892001092434
RSVPLG03,cs,20260417-113353,1.0.2,20251105-084826,826,Experiment,Both,1,Automatic,main,14,20260417-113527,local,global,300,S,H,E,E,E-S.png,H-E.png,sS,hH,mask-1.png,mask-1.png,s,1,0.797723599942401,h,1,0.07589479978196323,0.04851380013860762,0.04723599995486438,0.10159910004585981,0.10127649991773069,0.3002410000190139
RSVPLG03,cs,20260417-113353,1.0.2,20251105-084826,826,Experiment,Both,1,Automatic,main,15,20260417-113531,local,local,300,S,S,E,A,E-S.png,A-S.png,sS,sS,mask-4.png,mask-3.png,s,1,3.056182600092143,s,1,0.13903469988144934,0.047643099911510944,0.04873069981113076,0.10061999992467463,0.10114009981043637,0.2999345001298934
RSVPLG03,cs,20260417-113353,1.0.2,20251105-084826,826,Experiment,Both,1,Automatic,main,16,20260417-113538,local,global,300,H,H,E,E,E-H.png,H-E.png,hH,hH,mask-1.png,mask-3.png,s,0,0.4892308001872152,h,1,0.06086559989489615,0.047505700029432774,0.04750490002334118,0.10151209984906018,0.09851359995082021,0.30175879993475974
RSVPLG03,cs,20260417-113353,1.0.2,20251105-084826,826,Experiment,Both,1,Automatic,main,17,20260417-113542,global,global,300,S,S,A,E,S-A.png,S-E.png,sS,sS,mask-4.png,mask-1.png,s,1,0.3038538000546396,s,1,0.12403329997323453,0.04750300012528896,0.04722800012677908,0.09954640013165772,0.10010790009982884,0.29996099998243153
RSVPLG03,cs,20260417-113353,1.0.2,20251105-084826,826,Experiment,Both,1,Automatic,main,18,20260417-113546,local,local,750,S,S,A,A,A-S.png,A-S.png,sS,sS,mask-2.png,mask-4.png,h,0,1.6542583999689668,h,0,0.404930500080809,0.046542700147256255,0.04587739985436201,0.10040250001475215,0.09880859986878932,0.7514228001236916
RSVPLG03,cs,20260417-113353,1.0.2,20251105-084826,826,Experiment,Both,1,Automatic,main,19,20260417-113552,global,local,750,H,S,A,A,H-A.png,A-S.png,hH,sS,mask-1.png,mask-1.png,h,1,0.9652739998418838,h,0,0.08953820005990565,0.04745109984651208,0.0461905999109149,0.10041019995696843,0.09922389988787472,0.7512982999905944
RSVPLG03,cs,20260417-113353,1.0.2,20251105-084826,826,Experiment,Both,1,Automatic,main,20,20260417-113558,local,global,750,S,S,A,A,A-S.png,S-A.png,sS,sS,mask-3.png,mask-2.png,h,0,0.597978200064972,s,1,0.026317800162360072,0.047529099974781275,0.046520099975168705,0.1005353000946343,0.09852800006046891,0.7516224000137299
RSVPLG03,cs,20260417-113353,1.0.2,20251105-084826,826,Experiment,Both,1,Automatic,main,21,20260417-113602,global,global,750,S,H,A,E,S-A.png,H-E.png,sS,hH,mask-2.png,mask-2.png,s,1,0.4571338000241667,h,1,0.035370999947190285,0.04751309985294938,0.04701000009663403,0.09873209986835718,0.10077910008840263,0.7513196999207139
RSVPLG03,cs,20260417-113353,1.0.2,20251105-084826,826,Experiment,Both,1,Automatic,main,22,20260417-113607,local,global,750,S,H,A,A,A-S.png,H-A.png,sS,hH,mask-3.png,mask-2.png,h,0,1.5903048000764102,h,1,0.07832650002092123,0.047507100040093064,0.04751359997317195,0.09952200017869473,0.10074190003797412,0.7498222000431269
RSVPLG03,cs,20260417-113353,1.0.2,20251105-084826,826,Experiment,Both,1,Automatic,main,23,20260417-113613,local,local,750,S,H,A,A,A-S.png,A-H.png,sS,hH,mask-2.png,mask-4.png,h,0,1.2641163000371307,h,1,0.08778689987957478,0.04755060002207756,0.04663669993169606,0.09960719989612699,0.09931729990057647,0.7514841000083834
RSVPLG03,cs,20260417-113353,1.0.2,20251105-084826,826,Experiment,Both,1,Automatic,main,24,20260417-113618,local,local,750,H,H,A,E,A-H.png,E-H.png,hH,hH,mask-3.png,mask-2.png,h,1,3.7336526999715716,s,0,0.04377939994446933,0.0465398000087589,0.04765930003486574,0.09900060016661882,0.09983309987001121,0.7518971001263708
RSVPLG03,cs,20260417-113353,1.0.2,20251105-084826,826,Experiment,Both,1,Automatic,main,25,20260417-113626,global,global,300,S,S,A,A,S-A.png,S-A.png,sS,sS,mask-2.png,mask-1.png,s,1,0.44881480000913143,s,1,0.08722569979727268,0.049658200005069375,0.047539500053972006,0.10068499995395541,0.10158530017361045,0.30098049994558096
RSVPLG03,cs,20260417-113353,1.0.2,20251105-084826,826,Experiment,Both,1,Automatic,main,26,20260417-113633,local,global,750,S,S,E,E,E-S.png,S-E.png,sS,sS,mask-4.png,mask-3.png,s,1,0.7882227001246065,s,1,0.07571360003203154,0.04759790003299713,0.045948300044983625,0.09864589991047978,0.10024329996667802,0.7506615000311285
RSVPLG03,cs,20260417-113353,1.0.2,20251105-084826,826,Experiment,Both,1,Automatic,main,27,20260417-113638,global,local,300,H,H,A,A,H-A.png,A-H.png,hH,hH,mask-3.png,mask-2.png,h,1,0.6168570998124778,s,0,0.09171420009806752,0.04958059987984598,0.047599899815395474,0.10160729987546802,0.09984279982745647,0.3011326000560075
RSVPLG03,cs,20260417-113353,1.0.2,20251105-084826,826,Experiment,Both,1,Automatic,main,28,20260417-113643,global,local,750,S,S,E,A,S-E.png,A-S.png,sS,sS,mask-1.png,mask-2.png,s,1,0.40966220013797283,h,0,0.1160830999724567,0.0486067000310868,0.04659489984624088,0.10067509999498725,0.10029029985889792,0.7523720001336187
RSVPLG03,cs,20260417-113353,1.0.2,20251105-084826,826,Experiment,Both,1,Automatic,main,29,20260417-113647,global,local,300,S,H,A,E,S-A.png,E-H.png,sS,hH,mask-4.png,mask-3.png,s,1,0.6777727999724448,s,0,0.17722430010326207,0.04750159988179803,0.04767840006388724,0.0995781000237912,0.1017883000895381,0.29885319992899895
RSVPLG03,cs,20260417-113353,1.0.2,20251105-084826,826,Experiment,Both,1,Automatic,main,30,20260417-113652,global,local,750,H,H,E,E,H-E.png,E-H.png,hH,hH,mask-3.png,mask-3.png,h,1,0.4190705001819879,s,0,0.0709859998896718,0.0466213000472635,0.04669920005835593,0.09964559995569289,0.1000993000343442,0.7510911000426859
RSVPLG03,cs,20260417-113353,1.0.2,20251105-084826,826,Experiment,Both,1,Automatic,main,31,20260417-113656,local,global,300,H,H,E,A,E-H.png,H-A.png,hH,hH,mask-3.png,mask-4.png,s,0,0.8611864000558853,h,1,0.07597899995744228,0.04765630001202226,0.04656839999370277,0.09931170009076595,0.09966750000603497,0.3018050000537187
RSVPLG03,cs,20260417-113353,1.0.2,20251105-084826,826,Experiment,Both,1,Automatic,main,32,20260417-113701,global,global,750,H,S,A,A,H-A.png,S-A.png,hH,sS,mask-1.png,mask-4.png,h,1,0.3312031999230385,s,1,0.09004799998365343,0.047514700097963214,0.047562200110405684,0.09879900002852082,0.09958150004968047,0.7517222999595106
RSVPLG03,cs,20260417-113353,1.0.2,20251105-084826,826,Experiment,Both,1,Automatic,main,33,20260417-113706,global,local,300,S,H,A,A,S-A.png,A-H.png,sS,hH,mask-3.png,mask-1.png,s,1,0.7939486999530345,s,0,0.08674970013089478,0.04950510011985898,0.048264400102198124,0.10154539998620749,0.10024700011126697,0.3007428999990225
RSVPLG03,cs,20260417-113353,1.0.2,20251105-084826,826,Experiment,Both,1,Automatic,main,34,20260417-113710,local,local,300,S,H,A,E,A-S.png,E-H.png,sS,hH,mask-2.png,mask-1.png,h,0,0.5769255000632256,s,0,0.05713340011425316,0.047563300002366304,0.04722780012525618,0.10058490000665188,0.10025290003977716,0.3003910998813808
RSVPLG03,cs,20260417-113353,1.0.2,20251105-084826,826,Experiment,Both,1,Automatic,main,35,20260417-113715,local,global,300,S,S,A,A,A-S.png,S-A.png,sS,sS,mask-4.png,mask-3.png,s,1,0.41916720010340214,s,1,0.12456279993057251,0.0475297998636961,0.047726199962198734,0.10152820008806884,0.10009089997038245,0.3008105999324471
RSVPLG03,cs,20260417-113353,1.0.2,20251105-084826,826,Experiment,Both,1,Automatic,main,36,20260417-113719,global,global,300,H,H,A,E,H-A.png,H-E.png,hH,hH,mask-4.png,mask-2.png,h,1,0.5868161998223513,s,0,0.06216410011984408,0.04851100011728704,0.047522899927571416,0.10074800020083785,0.10150770004838705,0.3003382000606507
RSVPLG03,cs,20260417-113353,1.0.2,20251105-084826,826,Experiment,Both,1,Automatic,main,37,20260417-113723,local,global,300,H,H,E,E,E-H.png,H-E.png,hH,hH,mask-2.png,mask-2.png,s,0,0.3965143000241369,h,1,0.0893783001229167,0.04601610009558499,0.04717710008844733,0.09905389999039471,0.10034479992464185,0.29968090006150305
RSVPLG03,cs,20260417-113353,1.0.2,20251105-084826,826,Experiment,Both,1,Automatic,main,38,20260417-113727,global,global,300,S,S,E,E,S-E.png,S-E.png,sS,sS,mask-3.png,mask-3.png,s,1,0.3341799001209438,s,1,0.1240545001346618,0.04646739992313087,0.0473685001488775,0.10032389988191426,0.100243000080809,0.2991954998578876
RSVPLG03,cs,20260417-113353,1.0.2,20251105-084826,826,Experiment,Both,1,Automatic,main,39,20260417-113731,global,local,750,S,H,E,E,S-E.png,E-H.png,sS,hH,mask-4.png,mask-2.png,s,1,0.43397799995727837,s,0,0.22701809997670352,0.04741509980522096,0.0465834999922663,0.09993179980665445,0.09969060006551445,0.7526604998856783
RSVPLG03,cs,20260417-113353,1.0.2,20251105-084826,826,Experiment,Both,1,Automatic,main,40,20260417-113736,local,global,300,S,H,E,E,E-S.png,H-E.png,sS,hH,mask-3.png,mask-4.png,s,1,0.6115210000425577,h,1,0.10946530010551214,0.04677859996445477,0.04755020001903176,0.09876520000398159,0.09965220000594854,0.30017269984818995
RSVPLG03,cs,20260417-113353,1.0.2,20251105-084826,826,Experiment,Both,1,Automatic,main,41,20260417-113740,global,global,300,H,H,E,A,H-E.png,H-A.png,hH,hH,mask-3.png,mask-1.png,h,1,0.2730829999782145,h,1,0.12645550002343953,0.047744000097736716,0.047462400048971176,0.1001842999830842,0.09936310001648962,0.3010990999173373
RSVPLG03,cs,20260417-113353,1.0.2,20251105-084826,826,Experiment,Both,1,Automatic,main,42,20260417-113744,local,local,300,H,S,E,A,E-H.png,A-S.png,hH,sS,mask-4.png,mask-4.png,h,1,1.282621999969706,h,0,0.11755970004014671,0.04863710002973676,0.047491899924352765,0.10067449999041855,0.10051100002601743,0.30089360009878874
RSVPLG03,cs,20260417-113353,1.0.2,20251105-084826,826,Experiment,Both,1,Automatic,main,43,20260417-113749,local,global,300,H,H,A,A,A-H.png,H-A.png,hH,hH,mask-3.png,mask-1.png,s,0,1.6360039999708533,h,1,0.04352200007997453,0.04750139988027513,0.048493799986317754,0.10152729996480048,0.10151519998908043,0.30029299994930625
RSVPLG03,cs,20260417-113353,1.0.2,20251105-084826,826,Experiment,Both,1,Automatic,main,44,20260417-113755,global,local,750,H,S,A,A,H-A.png,A-S.png,hH,sS,mask-3.png,mask-3.png,h,1,0.3715139999985695,s,1,1.287846599938348,0.04654789995402098,0.04839420015923679,0.1007050999905914,0.10122209996916354,0.7507739998400211
RSVPLG03,cs,20260417-113353,1.0.2,20251105-084826,826,Experiment,Both,1,Automatic,main,45,20260417-113800,local,local,750,H,H,E,E,E-H.png,E-H.png,hH,hH,mask-1.png,mask-4.png,h,1,1.1011695000343025,h,1,0.06645220005884767,0.047114800196141005,0.049192999955266714,0.10012580011971295,0.10023909993469715,0.7500404000747949
RSVPLG03,cs,20260417-113353,1.0.2,20251105-084826,826,Experiment,Both,1,Automatic,main,46,20260417-113806,local,local,750,H,S,E,A,E-H.png,A-S.png,hH,sS,mask-3.png,mask-1.png,h,1,2.290714099770412,s,1,0.044702300103381276,0.047397200018167496,0.04749589995481074,0.10026420000940561,0.10077330004423857,0.7510850001126528
RSVPLG03,cs,20260417-113353,1.0.2,20251105-084826,826,Experiment,Both,1,Automatic,main,47,20260417-113812,global,local,300,H,H,A,E,H-A.png,E-H.png,hH,hH,mask-2.png,mask-3.png,h,1,0.8505712999030948,s,0,0.584771899972111,0.04712090012617409,0.04764549992978573,0.09999480005353689,0.099835499888286,0.3001519001554698
RSVPLG03,cs,20260417-113353,1.0.2,20251105-084826,826,Experiment,Both,1,Automatic,main,48,20260417-113817,local,local,300,H,H,A,A,A-H.png,A-H.png,hH,hH,mask-1.png,mask-4.png,h,1,1.4391266000457108,s,0,0.37631970015354455,0.047532299999147654,0.04761910019442439,0.09959859983064234,0.09962530015036464,0.2996830998454243
RSVPLG03,cs,20260417-113353,1.0.2,20251105-084826,826,Experiment,Both,1,Automatic,main,49,20260417-113823,local,global,300,H,S,E,A,E-H.png,S-A.png,hH,sS,mask-2.png,mask-3.png,h,1,0.8735962000209838,s,1,0.021588800009340048,0.046975000062957406,0.04774360009469092,0.1013901000842452,0.1000981000252068,0.301039099926129
RSVPLG03,cs,20260417-113353,1.0.2,20251105-084826,826,Experiment,Both,1,Automatic,main,50,20260417-113827,local,local,300,S,S,E,E,E-S.png,E-S.png,sS,sS,mask-4.png,mask-1.png,h,0,0.768827399937436,h,0,0.11832399992272258,0.04671690007671714,0.04825490014627576,0.10042969998903573,0.10011889995075762,0.29982910002581775
RSVPLG03,cs,20260417-113353,1.0.2,20251105-084826,826,Experiment,Both,1,Automatic,main,51,20260417-113847,local,global,750,H,S,E,A,E-H.png,S-A.png,hH,sS,mask-3.png,mask-3.png,h,1,0.8625896000303328,s,1,3.148142500082031,0.04851100011728704,0.04866139986552298,0.1005969000980258,0.10082129994407296,0.7515237000770867
RSVPLG03,cs,20260417-113353,1.0.2,20251105-084826,826,Experiment,Both,1,Automatic,main,52,20260417-113855,global,local,750,S,S,E,E,S-E.png,E-S.png,sS,sS,mask-4.png,mask-1.png,s,1,0.6179117001593113,s,1,0.1657484001480043,0.04865010012872517,0.0475986001547426,0.09999640006572008,0.09972090017981827,0.7513276999816298
RSVPLG03,cs,20260417-113353,1.0.2,20251105-084826,826,Experiment,Both,1,Automatic,main,53,20260417-113900,global,local,300,S,H,A,E,S-A.png,E-H.png,sS,hH,mask-3.png,mask-2.png,s,1,0.5282524998765439,s,0,0.15144159994088113,0.04651349992491305,0.047505599912256,0.10052260011434555,0.10070879990234971,0.2997727000620216
RSVPLG03,cs,20260417-113353,1.0.2,20251105-084826,826,Experiment,Both,1,Automatic,main,54,20260417-113905,local,global,750,S,S,A,E,A-S.png,S-E.png,sS,sS,mask-4.png,mask-3.png,h,0,0.9447400001809001,s,1,0.03960349992848933,0.04753299988806248,0.04959210008382797,0.10058040008880198,0.10064030019566417,0.7495440999045968
RSVPLG03,cs,20260417-113353,1.0.2,20251105-084826,826,Experiment,Both,1,Automatic,main,55,20260417-113910,local,local,300,H,S,A,A,A-H.png,A-S.png,hH,sS,mask-3.png,mask-2.png,s,0,0.6444817001465708,h,0,0.04020210006274283,0.04722129995934665,0.04840199998579919,0.10023629991337657,0.1004137999843806,0.29947709990665317
RSVPLG03,cs,20260417-113353,1.0.2,20251105-084826,826,Experiment,Both,1,Automatic,main,56,20260417-113914,global,global,750,S,S,E,A,S-E.png,S-A.png,sS,sS,mask-1.png,mask-2.png,s,1,0.43051410000771284,s,1,0.07448309985920787,0.048381500178948045,0.04874110012315214,0.09996640007011592,0.09929440007545054,0.7518903000745922
RSVPLG03,cs,20260417-113353,1.0.2,20251105-084826,826,Experiment,Both,1,Automatic,main,57,20260417-113919,local,global,300,H,H,A,A,A-H.png,H-A.png,hH,hH,mask-2.png,mask-2.png,h,1,0.6671700000297278,s,0,0.057226400123909116,0.046560300048440695,0.04771120008081198,0.09903310006484389,0.10089750005863607,0.29929229989647865
RSVPLG03,cs,20260417-113353,1.0.2,20251105-084826,826,Experiment,Both,1,Automatic,main,58,20260417-113923,local,local,300,S,S,A,E,A-S.png,E-S.png,sS,sS,mask-1.png,mask-4.png,h,0,0.7404619001317769,h,0,0.09055379987694323,0.04778739996254444,0.04708310007117689,0.09996969997882843,0.09923360007815063,0.3006184999831021
RSVPLG03,cs,20260417-113353,1.0.2,20251105-084826,826,Experiment,Both,1,Automatic,main,59,20260417-113928,global,global,300,H,H,A,E,H-A.png,H-E.png,hH,hH,mask-4.png,mask-2.png,h,1,0.7418202001135796,h,1,0.07413930003531277,0.046973600052297115,0.04746200004592538,0.0992457999382168,0.09942060010507703,0.30055909999646246
RSVPLG03,cs,20260417-113353,1.0.2,20251105-084826,826,Experiment,Both,1,Automatic,main,60,20260417-113932,global,global,750,H,H,E,E,H-E.png,H-E.png,hH,hH,mask-4.png,mask-1.png,h,1,0.6898685998748988,h,1,0.12076910003088415,0.04613140015862882,0.048556300112977624,0.09939470002427697,0.09985750005580485,0.7507158999796957
RSVPLG03,cs,20260417-113353,1.0.2,20251105-084826,826,Experiment,Both,1,Automatic,main,61,20260417-113937,local,global,300,H,H,E,A,E-H.png,H-A.png,hH,hH,mask-2.png,mask-3.png,s,0,3.8349181001540273,h,1,0.1352317000273615,0.04833870008587837,0.04666350013576448,0.10128469998016953,0.10064880014397204,0.3016164998989552
RSVPLG03,cs,20260417-113353,1.0.2,20251105-084826,826,Experiment,Both,1,Automatic,main,62,20260417-113944,global,global,750,S,S,E,A,S-E.png,S-A.png,sS,sS,mask-3.png,mask-1.png,s,1,0.8079025000333786,s,1,0.12196910008788109,0.047816700069233775,0.04740550019778311,0.09908970003016293,0.1003471000585705,0.751085199881345
RSVPLG03,cs,20260417-113353,1.0.2,20251105-084826,826,Experiment,Both,1,Automatic,main,63,20260417-113950,local,local,300,H,S,A,A,A-H.png,A-S.png,hH,sS,mask-3.png,mask-4.png,h,1,1.3421507000457495,h,0,0.14830599981360137,0.047677299939095974,0.04769679997116327,0.09888960001990199,0.09924519993364811,0.3005075000692159
RSVPLG03,cs,20260417-113353,1.0.2,20251105-084826,826,Experiment,Both,1,Automatic,main,64,20260417-113955,global,global,750,H,S,A,E,H-A.png,S-E.png,hH,sS,mask-4.png,mask-3.png,h,1,0.4080412001349032,s,1,0.1032596998848021,0.048624000046402216,0.04670469998382032,0.10096110007725656,0.09884210000745952,0.7520832000300288
RSVPLG03,cs,20260417-113353,1.0.2,20251105-084826,826,Experiment,Both,1,Automatic,main,65,20260417-113959,local,local,750,S,S,E,E,E-S.png,E-S.png,sS,sS,mask-1.png,mask-1.png,s,1,2.85136830015108,h,0,0.058745200047269464,0.045913300011307,0.047742499969899654,0.10026780003681779,0.10171309998258948,0.7499003000557423
RSVPLG03,cs,20260417-113353,1.0.2,20251105-084826,826,Experiment,Both,1,Automatic,main,66,20260417-114006,global,global,750,H,S,E,A,H-E.png,S-A.png,hH,sS,mask-2.png,mask-1.png,h,1,0.31178239989094436,s,1,0.07132029999047518,0.04751289985142648,0.04683050001040101,0.0989743999671191,0.10107049997895956,0.750802299939096
RSVPLG03,cs,20260417-113353,1.0.2,20251105-084826,826,Experiment,Both,1,Automatic,main,67,20260417-114011,global,local,300,S,S,E,A,S-E.png,A-S.png,sS,sS,mask-4.png,mask-2.png,s,1,1.8772555000614375,h,0,0.03808430000208318,0.047729199985042214,0.04770810017362237,0.09977920004166663,0.09920689999125898,0.3007085998542607
RSVPLG03,cs,20260417-113353,1.0.2,20251105-084826,826,Experiment,Both,1,Automatic,main,68,20260417-114016,global,local,750,H,H,E,E,H-E.png,E-H.png,hH,hH,mask-4.png,mask-4.png,h,1,1.5615988001227379,h,1,0.7058820999227464,0.048460200196132064,0.04774149996228516,0.10047890013083816,0.10008560004644096,0.7513651000335813
RSVPLG03,cs,20260417-113353,1.0.2,20251105-084826,826,Experiment,Both,1,Automatic,main,69,20260417-114023,local,local,300,S,S,A,A,A-S.png,A-S.png,sS,sS,mask-2.png,mask-3.png,h,0,2.0802426000591367,s,1,0.02900390001013875,0.046739399898797274,0.04579660017043352,0.0999206998385489,0.09888250008225441,0.3011466998141259
RSVPLG03,cs,20260417-113353,1.0.2,20251105-084826,826,Experiment,Both,1,Automatic,main,70,20260417-114029,global,local,750,H,S,A,A,H-A.png,A-S.png,hH,sS,mask-1.png,mask-4.png,h,1,0.48135180003009737,h,0,1.3664726000279188,0.04670449998229742,0.04604339995421469,0.09789430000819266,0.09936170000582933,0.7505089999176562
RSVPLG03,cs,20260417-113353,1.0.2,20251105-084826,826,Experiment,Both,1,Automatic,main,71,20260417-114035,global,global,750,H,S,E,A,H-E.png,S-A.png,hH,sS,mask-2.png,mask-4.png,h,1,0.7638306000735611,s,1,0.04165230016224086,0.04884020006284118,0.046713200164958835,0.10079549998044968,0.09992219996638596,0.7532724000047892
RSVPLG03,cs,20260417-113353,1.0.2,20251105-084826,826,Experiment,Both,1,Automatic,main,72,20260417-114040,global,local,300,S,H,E,E,S-E.png,E-H.png,sS,hH,mask-1.png,mask-3.png,s,1,0.46524290018714964,s,0,0.1320057997945696,0.047625500010326505,0.04860290000215173,0.09970610006712377,0.10069440002553165,0.2988740000873804
RSVPLG03,cs,20260417-113353,1.0.2,20251105-084826,826,Experiment,Both,1,Automatic,main,73,20260417-114044,local,global,750,H,H,E,E,E-H.png,H-E.png,hH,hH,mask-3.png,mask-1.png,s,0,0.39979059994220734,h,1,0.18123620003461838,0.04755260003730655,0.048508499981835485,0.10045520006678998,0.10056940000504255,0.7507905000820756
RSVPLG03,cs,20260417-113353,1.0.2,20251105-084826,826,Experiment,Both,1,Automatic,main,74,20260417-114049,local,local,750,H,H,A,E,A-H.png,E-H.png,hH,hH,mask-2.png,mask-2.png,s,0,1.123210199875757,s,0,0.1385768000036478,0.0468514000531286,0.04851990006864071,0.10002029989846051,0.09960100008174777,0.7519981998484582
RSVPLG03,cs,20260417-113353,1.0.2,20251105-084826,826,Experiment,Both,1,Automatic,main,75,20260417-114054,global,global,300,H,S,E,E,H-E.png,S-E.png,hH,sS,mask-1.png,mask-2.png,h,1,0.5177492999937385,s,1,0.026182200061157346,0.04768240009434521,0.04687429987825453,0.10019400017336011,0.10009899991564453,0.3003516001626849
RSVPLG03,cs,20260417-113353,1.0.2,20251105-084826,826,Experiment,Both,1,Automatic,main,76,20260417-114101,local,global,750,H,H,A,A,A-H.png,H-A.png,hH,hH,mask-2.png,mask-2.png,h,1,1.6280051998328418,h,1,0.16271149995736778,0.04776280000805855,0.04769119992852211,0.10003830003552139,0.09914469998329878,0.7521373999770731
RSVPLG03,cs,20260417-113353,1.0.2,20251105-084826,826,Experiment,Both,1,Automatic,main,77,20260417-114107,local,global,750,S,S,A,E,A-S.png,S-E.png,sS,sS,mask-3.png,mask-1.png,s,1,0.673396100057289,s,1,0.10703579988330603,0.04762299987487495,0.04847750021144748,0.10002899984829128,0.0998842001426965,0.7502181997988373
RSVPLG03,cs,20260417-113353,1.0.2,20251105-084826,826,Experiment,Both,1,Automatic,main,78,20260417-114112,local,local,300,H,H,A,A,A-H.png,A-H.png,hH,hH,mask-4.png,mask-3.png,h,1,0.6626792999450117,s,0,0.4256963999941945,0.047099600080400705,0.04751980002038181,0.0991364000365138,0.10059090005233884,0.2994421999901533
RSVPLG03,cs,20260417-113353,1.0.2,20251105-084826,826,Experiment,Both,1,Automatic,main,79,20260417-114116,local,global,300,S,H,E,A,E-S.png,H-A.png,sS,hH,mask-4.png,mask-1.png,s,1,0.6391682999674231,h,1,0.075776900164783,0.04750009998679161,0.04763050004839897,0.09950719983316958,0.10117399995215237,0.2997395999263972
RSVPLG03,cs,20260417-113353,1.0.2,20251105-084826,826,Experiment,Both,1,Automatic,main,80,20260417-114121,global,global,750,H,H,E,A,H-E.png,H-A.png,hH,hH,mask-1.png,mask-1.png,h,1,0.36730000004172325,h,1,0.11855599982663989,0.04759650002233684,0.04731779987923801,0.09963899990543723,0.09782469994388521,0.7516852000262588
RSVPLG03,cs,20260417-113353,1.0.2,20251105-084826,826,Experiment,Both,1,Automatic,main,81,20260417-114125,global,global,750,S,S,A,E,S-A.png,S-E.png,sS,sS,mask-2.png,mask-3.png,s,1,0.7912037000060081,s,1,0.20497930003330112,0.04752400005236268,0.049351099878549576,0.10053200018592179,0.10022809985093772,0.7498517001513392
RSVPLG03,cs,20260417-113353,1.0.2,20251105-084826,826,Experiment,Both,1,Automatic,main,82,20260417-114130,local,local,750,H,H,E,E,E-H.png,E-H.png,hH,hH,mask-2.png,mask-2.png,s,0,0.5755751999095082,s,0,0.3451294999103993,0.047521400032565,0.04571360000409186,0.10054649994708598,0.09981280006468296,0.7516977998893708
RSVPLG03,cs,20260417-113353,1.0.2,20251105-084826,826,Experiment,Both,1,Automatic,main,83,20260417-114135,global,local,750,H,S,A,A,H-A.png,A-S.png,hH,sS,mask-4.png,mask-4.png,h,1,1.1550028000492603,s,1,0.038943199906498194,0.045801399974152446,0.046527500031515956,0.09995800000615418,0.0999694000929594,0.7518287000712007
RSVPLG03,cs,20260417-113353,1.0.2,20251105-084826,826,Experiment,Both,1,Automatic,main,84,20260417-114141,global,local,750,S,S,E,E,S-E.png,E-S.png,sS,sS,mask-1.png,mask-4.png,s,1,0.36936810007318854,s,1,0.11781979980878532,0.049248400144279,0.04772699996829033,0.10036560008302331,0.10140349995344877,0.7514001000672579
RSVPLG03,cs,20260417-113353,1.0.2,20251105-084826,826,Experiment,Both,1,Automatic,main,85,20260417-114145,global,global,750,H,H,E,A,H-E.png,H-A.png,hH,hH,mask-1.png,mask-1.png,h,1,0.5831895000301301,h,1,0.1643397998996079,0.04729000013321638,0.047521699918434024,0.10010430007241666,0.09954309999011457,0.7525882001500577
RSVPLG03,cs,20260417-113353,1.0.2,20251105-084826,826,Experiment,Both,1,Automatic,main,86,20260417-114150,global,global,300,H,S,A,E,H-A.png,S-E.png,hH,sS,mask-4.png,mask-1.png,h,1,0.7006240000482649,s,1,0.059404500061646104,0.047529099974781275,0.04915819992311299,0.09958530007861555,0.10231469990685582,0.2990783001296222
RSVPLG03,cs,20260417-113353,1.0.2,20251105-084826,826,Experiment,Both,1,Automatic,main,87,20260417-114155,global,local,300,H,S,A,E,H-A.png,E-S.png,hH,sS,mask-2.png,mask-2.png,h,1,0.684408700093627,s,1,0.13880599988624454,0.04752659983932972,0.0475254999473691,0.09955039992928505,0.10065689985640347,0.29926869994960725
RSVPLG03,cs,20260417-113353,1.0.2,20251105-084826,826,Experiment,Both,1,Automatic,main,88,20260417-114159,local,local,750,S,S,A,A,A-S.png,A-S.png,sS,sS,mask-1.png,mask-1.png,s,1,1.870591000188142,h,0,0.07024200004525483,0.047222499968484044,0.04812679998576641,0.09892909997142851,0.10012950003147125,0.7497942999470979
RSVPLG03,cs,20260417-113353,1.0.2,20251105-084826,826,Experiment,Both,1,Automatic,main,89,20260417-114205,local,local,300,S,S,A,E,A-S.png,E-S.png,sS,sS,mask-4.png,mask-3.png,s,1,0.5075474998448044,s,1,0.17139989999122918,0.047582099912688136,0.047588600078597665,0.09972749999724329,0.09936640015803277,0.30029039992950857
RSVPLG03,cs,20260417-113353,1.0.2,20251105-084826,826,Experiment,Both,1,Automatic,main,90,20260417-114210,local,global,750,S,H,A,E,A-S.png,H-E.png,sS,hH,mask-4.png,mask-3.png,s,1,0.5078763000201434,s,0,0.12185749993659556,0.04777870001271367,0.04769770009443164,0.09994470002129674,0.09988009999506176,0.7525851000100374
RSVPLG03,cs,20260417-113353,1.0.2,20251105-084826,826,Experiment,Both,1,Automatic,main,91,20260417-114214,global,global,300,H,H,E,E,H-E.png,H-E.png,hH,hH,mask-4.png,mask-3.png,h,1,1.0663029002025723,h,1,0.15309630008414388,0.04769950010813773,0.04905609996058047,0.09989880002103746,0.1013096000533551,0.2989823000971228
RSVPLG03,cs,20260417-113353,1.0.2,20251105-084826,826,Experiment,Both,1,Automatic,main,92,20260417-114219,local,local,750,H,H,A,E,A-H.png,E-H.png,hH,hH,mask-3.png,mask-3.png,h,1,0.6997308998834342,s,0,0.050096899969503284,0.04772379994392395,0.047973399981856346,0.09885379998013377,0.09931149985641241,0.7507356000132859
RSVPLG03,cs,20260417-113353,1.0.2,20251105-084826,826,Experiment,Both,1,Automatic,main,93,20260417-114224,local,global,300,S,S,E,E,E-S.png,S-E.png,sS,sS,mask-4.png,mask-4.png,s,1,0.4350401998963207,s,1,0.09341980004683137,0.04775679996237159,0.04769850010052323,0.09936969983391464,0.09989630011841655,0.3000953998416662
RSVPLG03,cs,20260417-113353,1.0.2,20251105-084826,826,Experiment,Both,1,Automatic,main,94,20260417-114228,global,local,300,H,H,A,A,H-A.png,A-H.png,hH,hH,mask-1.png,mask-1.png,h,1,1.073320799972862,s,0,0.04094989993609488,0.048325200099498034,0.0474203999619931,0.10234840004704893,0.10030489997006953,0.30225230008363724
RSVPLG03,cs,20260417-113353,1.0.2,20251105-084826,826,Experiment,Both,1,Automatic,main,95,20260417-114233,local,global,750,S,H,E,A,E-S.png,H-A.png,sS,hH,mask-2.png,mask-3.png,s,1,0.9202904999256134,h,1,0.028127700090408325,0.04755480005405843,0.047555499942973256,0.10052719991654158,0.10060949996113777,0.7500672999303788
RSVPLG03,cs,20260417-113353,1.0.2,20251105-084826,826,Experiment,Both,1,Automatic,main,96,20260417-114238,global,local,300,H,H,A,E,H-A.png,E-H.png,hH,hH,mask-4.png,mask-1.png,h,1,0.5022477000020444,s,0,0.03847609995864332,0.04756830004043877,0.04854960017837584,0.10056430008262396,0.10256370017305017,0.30003869999200106
RSVPLG03,cs,20260417-113353,1.0.2,20251105-084826,826,Experiment,Both,1,Automatic,main,97,20260417-114242,global,global,300,S,S,E,A,S-E.png,S-A.png,sS,sS,mask-2.png,mask-4.png,s,1,0.348507400136441,s,1,0.10344390012323856,0.04769790009595454,0.04878610000014305,0.09893300011754036,0.10097149992361665,0.29881940013729036
RSVPLG03,cs,20260417-113353,1.0.2,20251105-084826,826,Experiment,Both,1,Automatic,main,98,20260417-114246,global,local,750,H,H,A,E,H-A.png,E-H.png,hH,hH,mask-1.png,mask-3.png,h,1,0.590012599946931,s,0,0.0709117001388222,0.04671330004930496,0.047248899936676025,0.10089500015601516,0.10135790007188916,0.7507350000087172
RSVPLG03,cs,20260417-113353,1.0.2,20251105-084826,826,Experiment,Both,1,Automatic,main,99,20260417-114251,local,local,750,H,H,E,A,E-H.png,A-H.png,hH,hH,mask-4.png,mask-4.png,h,1,0.5508358001243323,h,1,0.11927030002698302,0.04777780012227595,0.048500799806788564,0.10001410008408129,0.10059899999760091,0.7505301001947373
RSVPLG03,cs,20260417-113353,1.0.2,20251105-084826,826,Experiment,Both,1,Automatic,main,100,20260417-114256,global,global,300,H,H,A,E,H-A.png,H-E.png,hH,hH,mask-1.png,mask-2.png,s,0,1.2683395999483764,h,1,0.05913050007075071,0.04761440004222095,0.048815900227054954,0.10082900011911988,0.10200410010293126,0.2986715999431908
