exp,exp_initials,runtime,ver,modtime,sub,blocktype,targets,cuetype,mode,trialtype,trial,trialtime,t1_level,t2_level,t2_lag,t1,t2,distractor1,distractor2,stimfile1,stimfile2,t1_corr,t2_corr,maskfile1,maskfile2,t1_resp,t1_acc,t1_rt,t2_resp,t2_acc,t2_rt,t1_dur,t2_dur,t1mask_soa,t2mask_soa,t1t2_soa
RSVPLG03,sg,20251021-131823,1.0.1,20251020-085245,707,Introduction,T1,1,Automatic,main,1,20251021-131914,global,local,750,H,S,E,E,H-E.png,E-S.png,hH,sS,mask-1.png,mask-4.png,h,1,9.72086269990541,none,-5,0,0.0914637001696974,0.09759410005062819,0.19459480000659823,0.20064750011079013,0.7421663999557495
RSVPLG03,sg,20251021-131823,1.0.1,20251020-085245,707,Introduction,T1,1,Automatic,main,2,20251021-131928,local,global,750,H,S,A,E,A-H.png,S-E.png,hH,sS,mask-4.png,mask-4.png,h,1,1.8701363001018763,none,-5,0,0.09762630006298423,0.09653429989703,0.2006972001399845,0.19931040005758405,0.7508599001448601
RSVPLG03,sg,20251021-131823,1.0.1,20251020-085245,707,Introduction,T1,1,Automatic,main,3,20251021-131934,local,global,750,S,H,A,E,A-S.png,H-E.png,sS,hH,mask-4.png,mask-2.png,s,1,1.7559435998555273,none,-5,0,0.09753079991787672,0.09651129995472729,0.19956659991294146,0.20058050006628036,0.7491462999023497
RSVPLG03,sg,20251021-131823,1.0.1,20251020-085245,707,Introduction,T1,1,Automatic,main,4,20251021-131940,local,global,750,H,H,A,A,A-H.png,H-A.png,hH,hH,mask-2.png,mask-3.png,h,1,1.201933200005442,none,-5,0,0.09675409994088113,0.09755979990586638,0.19988049985840917,0.1995721000712365,0.7500289999879897
RSVPLG03,sg,20251021-131823,1.0.1,20251020-085245,707,Introduction,T1,1,Automatic,main,5,20251021-131945,global,local,750,H,S,A,E,H-A.png,E-S.png,hH,sS,mask-1.png,mask-3.png,s,0,1.0065938998013735,none,-5,0,0.09655930008739233,0.09854170004837215,0.19943060004152358,0.20023180008865893,0.7478559999726713
RSVPLG03,sg,20251021-131823,1.0.1,20251020-085245,707,Introduction,T1,1,Automatic,main,6,20251021-131950,local,global,750,S,S,E,E,E-S.png,S-E.png,sS,sS,mask-2.png,mask-3.png,s,1,1.4465501001104712,none,-5,0,0.09856220008805394,0.0975540999788791,0.19973089988343418,0.19895100011490285,0.7492358998861164
RSVPLG03,sg,20251021-131823,1.0.1,20251020-085245,707,Introduction,T1,1,Automatic,main,7,20251021-131956,local,local,750,S,H,A,A,A-S.png,A-H.png,sS,hH,mask-2.png,mask-1.png,h,0,1.6586712999269366,none,-5,0,0.09661039989441633,0.09750990010797977,0.19996519992128015,0.20093360007740557,0.7485601999796927
RSVPLG03,sg,20251021-131823,1.0.1,20251020-085245,707,Introduction,T1,1,Automatic,main,8,20251021-132002,global,global,750,H,H,A,A,H-A.png,H-A.png,hH,hH,mask-2.png,mask-4.png,h,1,1.2097871000878513,none,-5,0,0.09736600005999207,0.0963907998520881,0.2002364001236856,0.2002701999153942,0.7507574001792818
RSVPLG03,sg,20251021-131823,1.0.1,20251020-085245,707,Introduction,T1,1,Automatic,main,9,20251021-132007,global,global,750,H,S,A,A,H-A.png,S-A.png,hH,sS,mask-4.png,mask-2.png,s,0,3.1416639999952167,none,-5,0,0.09850469999946654,0.09738970012404025,0.20036970009095967,0.19966339995153248,0.7506224999669939
RSVPLG03,sg,20251021-131823,1.0.1,20251020-085245,707,Introduction,T1,1,Automatic,main,10,20251021-132015,local,local,750,H,S,E,E,E-H.png,E-S.png,hH,sS,mask-4.png,mask-2.png,h,1,0.8085853999946266,none,-5,0,0.09896300011314452,0.09755209996365011,0.20002330001443624,0.1996126000303775,0.7495768000371754
RSVPLG03,sg,20251021-131823,1.0.1,20251020-085245,707,Introduction,T1,1,Automatic,main,11,20251021-132020,local,local,750,S,S,E,E,E-S.png,E-S.png,sS,sS,mask-3.png,mask-4.png,s,1,0.9541062000207603,none,-5,0,0.09749810001812875,0.0975301000289619,0.19970640004612505,0.19913619989529252,0.7509221001528203
RSVPLG03,sg,20251021-131823,1.0.1,20251020-085245,707,Introduction,T1,1,Automatic,main,12,20251021-132025,local,local,750,S,H,A,E,A-S.png,E-H.png,sS,hH,mask-3.png,mask-4.png,s,1,1.1944613999221474,none,-5,0,0.09580469992943108,0.09829399990849197,0.1998512998688966,0.20026610000059009,0.7475244000088423
RSVPLG03,sg,20251021-131823,1.0.1,20251020-085245,707,Introduction,T1,1,Automatic,main,13,20251021-132030,global,local,750,H,H,A,A,H-A.png,A-H.png,hH,hH,mask-1.png,mask-2.png,h,1,1.1804331000894308,none,-5,0,0.09868520009331405,0.09599800012074411,0.20071110012941062,0.2000104000326246,0.750099099939689
RSVPLG03,sg,20251021-131823,1.0.1,20251020-085245,707,Introduction,T1,1,Automatic,main,14,20251021-132036,global,global,750,H,H,E,A,H-E.png,H-A.png,hH,hH,mask-3.png,mask-3.png,h,1,0.9079670999199152,none,-5,0,0.09909979999065399,0.09638840006664395,0.2000490000937134,0.1991353000048548,0.7507662998978049
RSVPLG03,sg,20251021-131823,1.0.1,20251020-085245,707,Introduction,T1,1,Automatic,main,15,20251021-132041,global,local,750,S,H,A,E,S-A.png,E-H.png,sS,hH,mask-4.png,mask-4.png,s,1,1.280999599955976,none,-5,0,0.09757680003531277,0.09654189995490015,0.20066570001654327,0.20032990002073348,0.7505876000504941
RSVPLG03,sg,20251021-131823,1.0.1,20251020-085245,707,Introduction,T1,1,Automatic,main,16,20251021-132046,global,global,750,H,H,E,E,H-E.png,H-E.png,hH,hH,mask-3.png,mask-4.png,h,1,0.7988644000142813,none,-5,0,0.09743329999037087,0.09855510015040636,0.1991101000458002,0.1995611002203077,0.7480313999112695
RSVPLG03,sg,20251021-132146,1.0.1,20251020-085245,707,Practice,T1,1,Automatic,main,1,20251021-132208,local,global,750,S,S,A,E,A-S.png,S-E.png,sS,sS,mask-2.png,mask-3.png,s,1,1.050828600069508,none,-5,0,0.03998390003107488,0.047705700155347586,0.09305629995651543,0.10088500007987022,0.7423622999340296
RSVPLG03,sg,20251021-132146,1.0.1,20251020-085245,707,Practice,T1,1,Automatic,main,2,20251021-132213,local,local,300,S,S,E,E,E-S.png,E-S.png,sS,sS,mask-2.png,mask-1.png,s,1,0.9330955999903381,none,-5,0,0.04829190019518137,0.04839909984730184,0.10126930009573698,0.10122469998896122,0.2995578001718968
RSVPLG03,sg,20251021-132146,1.0.1,20251020-085245,707,Practice,T1,1,Automatic,main,3,20251021-132217,global,global,300,S,S,E,E,S-E.png,S-E.png,sS,sS,mask-4.png,mask-1.png,s,1,0.9696512001100928,none,-5,0,0.04858880001120269,0.046713999938219786,0.10072079999372363,0.10020429990254343,0.3010435001924634
RSVPLG03,sg,20251021-132146,1.0.1,20251020-085245,707,Practice,T1,1,Automatic,main,4,20251021-132222,local,local,750,S,H,E,E,E-S.png,E-H.png,sS,hH,mask-4.png,mask-2.png,s,1,0.7929229999426752,none,-5,0,0.045611499808728695,0.04753870004788041,0.09871449996717274,0.10151459998451173,0.7479486998636276
RSVPLG03,sg,20251021-132146,1.0.1,20251020-085245,707,Practice,T1,1,Automatic,main,5,20251021-132227,global,global,300,S,S,E,E,S-E.png,S-E.png,sS,sS,mask-3.png,mask-4.png,s,1,1.0103708999231458,none,-5,0,0.04776450013741851,0.047533800126984715,0.09889900009147823,0.10022239992395043,0.29926480003632605
RSVPLG03,sg,20251021-132146,1.0.1,20251020-085245,707,Practice,T1,1,Automatic,main,6,20251021-132231,local,local,750,S,S,A,E,A-S.png,E-S.png,sS,sS,mask-3.png,mask-1.png,s,1,0.6517256000079215,none,-5,0,0.04885689984075725,0.04750159988179803,0.10084179998375475,0.10054789995774627,0.7502152000088245
RSVPLG03,sg,20251021-132146,1.0.1,20251020-085245,707,Practice,T1,1,Automatic,main,7,20251021-132236,local,global,300,H,H,E,E,E-H.png,H-E.png,hH,hH,mask-4.png,mask-2.png,s,0,0.73948990018107,none,-5,0,0.04868839983828366,0.04859499982558191,0.10188700002618134,0.10068189981393516,0.3007165000308305
RSVPLG03,sg,20251021-132146,1.0.1,20251020-085245,707,Practice,T1,1,Automatic,main,8,20251021-132240,global,global,750,H,S,E,A,H-E.png,S-A.png,hH,sS,mask-4.png,mask-1.png,h,1,0.5223204998765141,none,-5,0,0.04650799999944866,0.04750240012072027,0.09950249991379678,0.10151250008493662,0.7489400999620557
RSVPLG03,sg,20251021-132146,1.0.1,20251020-085245,707,Practice,T1,1,Automatic,main,9,20251021-132245,local,global,300,S,S,A,A,A-S.png,S-A.png,sS,sS,mask-4.png,mask-4.png,s,1,0.6698029998224229,none,-5,0,0.04776240000501275,0.04764269990846515,0.10095420014113188,0.0998108999338001,0.3004626000765711
RSVPLG03,sg,20251021-132146,1.0.1,20251020-085245,707,Practice,T1,1,Automatic,main,10,20251021-132249,global,local,300,H,S,A,E,H-A.png,E-S.png,hH,sS,mask-2.png,mask-2.png,h,1,0.5538095000665635,none,-5,0,0.0473388999234885,0.04757699999026954,0.09925229987129569,0.09857709985226393,0.2995657999999821
RSVPLG03,sg,20251021-132146,1.0.1,20251020-085245,707,Practice,T1,1,Automatic,main,11,20251021-132253,local,global,750,H,S,A,E,A-H.png,S-E.png,hH,sS,mask-4.png,mask-1.png,h,1,0.4486501000355929,none,-5,0,0.04852460022084415,0.04706789995543659,0.0995248002000153,0.09922560001723468,0.7495032001752406
RSVPLG03,sg,20251021-132146,1.0.1,20251020-085245,707,Practice,T1,1,Automatic,main,12,20251021-132258,global,global,750,S,S,E,E,S-E.png,S-E.png,sS,sS,mask-3.png,mask-1.png,s,1,0.6266761000733823,none,-5,0,0.047163600102066994,0.04768109996803105,0.09807540010660887,0.09996459982357919,0.749425700167194
RSVPLG03,sg,20251021-132146,1.0.1,20251020-085245,707,Practice,T1,1,Automatic,main,13,20251021-132302,local,local,300,H,H,E,A,E-H.png,A-H.png,hH,hH,mask-3.png,mask-2.png,s,0,0.9352994998916984,none,-5,0,0.04884319985285401,0.04874060000292957,0.10007769986987114,0.10091420006938279,0.2999855999369174
RSVPLG03,sg,20251021-132146,1.0.1,20251020-085245,707,Practice,T1,1,Automatic,main,14,20251021-132307,global,local,750,H,H,A,E,H-A.png,E-H.png,hH,hH,mask-2.png,mask-4.png,h,1,0.41471060016192496,none,-5,0,0.047263799933716655,0.04791680001653731,0.10053459997288883,0.10017720004543662,0.7484263000078499
RSVPLG03,sg,20251021-132146,1.0.1,20251020-085245,707,Practice,T1,1,Automatic,main,15,20251021-132311,global,local,750,S,H,A,A,S-A.png,A-H.png,sS,hH,mask-1.png,mask-4.png,s,1,0.6165293999947608,none,-5,0,0.04569339985027909,0.04871860006824136,0.09995149984024465,0.09990440006367862,0.748404199955985
RSVPLG03,sg,20251021-132146,1.0.1,20251020-085245,707,Practice,T1,1,Automatic,main,16,20251021-132316,global,local,300,S,S,A,E,S-A.png,E-S.png,sS,sS,mask-4.png,mask-1.png,h,0,0.8056731000542641,none,-5,0,0.04726610006764531,0.048411599826067686,0.09961569984443486,0.09941319981589913,0.29886940005235374
RSVPLG03,sg,20251021-132452,1.0.1,20251020-085245,707,Introduction,Both,1,Automatic,main,1,20251021-132520,global,local,750,S,S,E,A,S-E.png,A-S.png,sS,sS,mask-1.png,mask-4.png,s,1,2.745512400055304,s,1,4.457391000119969,0.0911293001845479,0.09856140008196235,0.19400090002454817,0.20145070017315447,0.7429969999939203
RSVPLG03,sg,20251021-132452,1.0.1,20251020-085245,707,Introduction,Both,1,Automatic,main,2,20251021-132532,local,local,750,H,S,E,A,E-H.png,A-S.png,hH,sS,mask-1.png,mask-2.png,h,1,2.3169939999934286,s,1,0.5270914998836815,0.09751189989037812,0.09752609999850392,0.1997465998865664,0.19956900016404688,0.7510849998798221
RSVPLG03,sg,20251021-132452,1.0.1,20251020-085245,707,Introduction,Both,1,Automatic,main,3,20251021-132539,local,global,750,S,S,E,E,E-S.png,S-E.png,sS,sS,mask-1.png,mask-2.png,h,0,1.1792903998866677,h,0,0.4920740001834929,0.09836900001391768,0.09735030005685985,0.20124339987523854,0.20020740013569593,0.7507898998446763
RSVPLG03,sg,20251021-132452,1.0.1,20251020-085245,707,Introduction,Both,1,Automatic,main,4,20251021-132545,local,local,750,S,S,E,E,E-S.png,E-S.png,sS,sS,mask-1.png,mask-1.png,s,1,0.8294991001021117,s,1,0.4265719000250101,0.09721600008197129,0.09716679994016886,0.20012699998915195,0.20002390001900494,0.7500406000763178
RSVPLG03,sg,20251021-132452,1.0.1,20251020-085245,707,Introduction,Both,1,Automatic,main,5,20251021-132551,local,local,750,S,H,E,A,E-S.png,A-H.png,sS,hH,mask-3.png,mask-1.png,s,1,1.142558400053531,h,1,0.5837540999054909,0.09772800002247095,0.0977014999371022,0.20069650001823902,0.1996808999683708,0.7502938001416624
RSVPLG03,sg,20251021-132452,1.0.1,20251020-085245,707,Introduction,Both,1,Automatic,main,6,20251021-132557,local,global,750,H,H,A,E,A-H.png,H-E.png,hH,hH,mask-3.png,mask-4.png,h,1,1.6660964000038803,h,1,0.08407959993928671,0.09845839999616146,0.09738069982267916,0.20038459985516965,0.20027689984999597,0.7505369000136852
RSVPLG03,sg,20251021-132452,1.0.1,20251020-085245,707,Introduction,Both,1,Automatic,main,7,20251021-132603,global,global,750,S,H,A,E,S-A.png,H-E.png,sS,hH,mask-2.png,mask-2.png,s,1,0.8933749999850988,h,1,0.03413640009239316,0.09634459996595979,0.09735040017403662,0.19818360009230673,0.2006964001338929,0.7485384999308735
RSVPLG03,sg,20251021-132452,1.0.1,20251020-085245,707,Introduction,Both,1,Automatic,main,8,20251021-132608,local,global,750,H,H,A,E,A-H.png,H-E.png,hH,hH,mask-3.png,mask-2.png,h,1,0.9973611000459641,h,1,0.3148147000465542,0.09849949995987117,0.09736760007217526,0.20036419993266463,0.19922140007838607,0.7517019000370055
RSVPLG03,sg,20251021-132452,1.0.1,20251020-085245,707,Introduction,Both,1,Automatic,main,9,20251021-132613,global,local,750,S,S,A,E,S-A.png,E-S.png,sS,sS,mask-1.png,mask-2.png,s,1,0.8268716998863965,s,1,0.08249929989688098,0.09636839991435409,0.09735250007361174,0.1993727998342365,0.20021520019508898,0.7485971997957677
RSVPLG03,sg,20251021-132452,1.0.1,20251020-085245,707,Introduction,Both,1,Automatic,main,10,20251021-132619,global,global,750,H,S,E,E,H-E.png,S-E.png,hH,sS,mask-3.png,mask-4.png,h,1,1.2633200001437217,s,1,0.07701189978979528,0.09838310000486672,0.09846489992924035,0.2012211000546813,0.20152030000463128,0.7500369001645595
RSVPLG03,sg,20251021-132452,1.0.1,20251020-085245,707,Introduction,Both,1,Automatic,main,11,20251021-132624,global,global,750,H,S,A,E,H-A.png,S-E.png,hH,sS,mask-1.png,mask-4.png,h,1,1.2114440000150353,s,1,0.012200400000438094,0.09737300011329353,0.09747390006668866,0.19920520018786192,0.20032170019112527,0.7499738000333309
RSVPLG03,sg,20251021-132452,1.0.1,20251020-085245,707,Introduction,Both,1,Automatic,main,12,20251021-132630,local,local,750,H,S,A,A,A-H.png,A-S.png,hH,sS,mask-3.png,mask-1.png,h,1,1.4371461998671293,s,1,0.019980200100690126,0.09747439995408058,0.09856540011242032,0.19993170001544058,0.20049190009012818,0.750159899936989
RSVPLG03,sg,20251021-132452,1.0.1,20251020-085245,707,Introduction,Both,1,Automatic,main,13,20251021-132636,global,local,750,H,H,A,E,H-A.png,E-H.png,hH,hH,mask-4.png,mask-4.png,h,1,1.410579999908805,h,1,0.10831429995596409,0.0975768999196589,0.09634270006790757,0.19866349990479648,0.19907340011559427,0.7492128999438137
RSVPLG03,sg,20251021-132452,1.0.1,20251020-085245,707,Introduction,Both,1,Automatic,main,14,20251021-132642,local,global,750,S,H,A,A,A-S.png,H-A.png,sS,hH,mask-2.png,mask-4.png,s,1,1.2968341999221593,h,1,0.7734064001124352,0.09833370009437203,0.09837639983743429,0.20007800008170307,0.19924029987305403,0.7501031002029777
RSVPLG03,sg,20251021-132452,1.0.1,20251020-085245,707,Introduction,Both,1,Automatic,main,15,20251021-132648,global,global,750,S,H,A,E,S-A.png,H-E.png,sS,hH,mask-4.png,mask-2.png,s,1,1.1318615998607129,h,1,1.276249899994582,0.09685810003429651,0.09735940000973642,0.1997839999385178,0.20123689994215965,0.7498278000857681
RSVPLG03,sg,20251021-132452,1.0.1,20251020-085245,707,Introduction,Both,1,Automatic,main,16,20251021-132654,global,local,750,S,S,A,E,S-A.png,E-S.png,sS,sS,mask-2.png,mask-3.png,s,1,1.39613899984397,s,1,0.027913300087675452,0.09735940000973642,0.09637450007721782,0.2012723998632282,0.20031010010279715,0.7511395998299122
RSVPLG03,sg,20251021-132754,1.0.1,20251020-085245,707,Practice,Both,1,Automatic,main,1,20251021-132814,local,local,300,H,S,E,E,E-H.png,E-S.png,hH,sS,mask-2.png,mask-3.png,h,1,1.1046428000554442,s,1,0.8289012999739498,0.04003120004199445,0.04719799989834428,0.09310430008918047,0.10007339995354414,0.29183300002478063
RSVPLG03,sg,20251021-132754,1.0.1,20251020-085245,707,Practice,Both,1,Automatic,main,2,20251021-132820,local,global,750,H,S,A,A,A-H.png,S-A.png,hH,sS,mask-1.png,mask-1.png,h,1,1.1736274000722915,s,1,0.058724100003018975,0.04571320000104606,0.047687199898064137,0.09909090003930032,0.10088969999924302,0.7482797000557184
RSVPLG03,sg,20251021-132754,1.0.1,20251020-085245,707,Practice,Both,1,Automatic,main,3,20251021-132825,global,global,750,H,H,A,A,H-A.png,H-A.png,hH,hH,mask-1.png,mask-1.png,h,1,1.2799985001329333,h,1,0.08484479994513094,0.04850759985856712,0.047600199934095144,0.10044729989022017,0.09986029984429479,0.7504956000484526
RSVPLG03,sg,20251021-132754,1.0.1,20251020-085245,707,Practice,Both,1,Automatic,main,4,20251021-132831,local,local,750,S,H,A,A,A-S.png,A-H.png,sS,hH,mask-4.png,mask-3.png,s,1,1.3555475000757724,h,1,0.022438700078055263,0.04677679995074868,0.04773760004900396,0.09996489994227886,0.09985470003448427,0.7494828999042511
RSVPLG03,sg,20251021-132754,1.0.1,20251020-085245,707,Practice,Both,1,Automatic,main,5,20251021-132836,local,global,300,H,S,E,E,E-H.png,S-E.png,hH,sS,mask-3.png,mask-4.png,h,1,2.0828112000599504,s,1,0.46265770005993545,0.0476543998811394,0.04667260008864105,0.10079589998349547,0.09969529998488724,0.29999809991568327
RSVPLG03,sg,20251021-132754,1.0.1,20251020-085245,707,Practice,Both,1,Automatic,main,6,20251021-132842,global,global,300,H,S,A,E,H-A.png,S-E.png,hH,sS,mask-2.png,mask-4.png,h,1,0.7831929000094533,s,1,0.02746109990403056,0.04654169990681112,0.04680699994787574,0.09923829999752343,0.09993239981122315,0.2995676000136882
RSVPLG03,sg,20251021-132754,1.0.1,20251020-085245,707,Practice,Both,1,Automatic,main,7,20251021-132847,local,local,750,S,H,E,E,E-S.png,E-H.png,sS,hH,mask-3.png,mask-1.png,s,1,2.7820979999378324,s,0,1.094567900057882,0.04772959998808801,0.048548500053584576,0.10011089988984168,0.10150800016708672,0.7490780998487025
RSVPLG03,sg,20251021-132754,1.0.1,20251020-085245,707,Practice,Both,1,Automatic,main,8,20251021-132855,global,local,300,S,S,E,E,S-E.png,E-S.png,sS,sS,mask-4.png,mask-1.png,s,1,0.7502115000970662,s,1,0.09259220003150403,0.047524199821054935,0.04748439998365939,0.10151989990845323,0.09853180008940399,0.3017336998600513
RSVPLG03,sg,20251021-132754,1.0.1,20251020-085245,707,Practice,Both,1,Automatic,main,9,20251021-132859,global,global,300,H,S,E,E,H-E.png,S-E.png,hH,sS,mask-1.png,mask-4.png,s,0,1.6810186998918653,s,1,0.4379900998901576,0.04667930002324283,0.047776600113138556,0.09894750011153519,0.10002640006132424,0.29869890003465116
RSVPLG03,sg,20251021-132754,1.0.1,20251020-085245,707,Practice,Both,1,Automatic,main,10,20251021-132905,global,global,750,H,S,A,E,H-A.png,S-E.png,hH,sS,mask-4.png,mask-3.png,h,1,0.7820597998797894,s,1,0.11801040009595454,0.047690599923953414,0.04769130004569888,0.09986649989150465,0.09896499989554286,0.7504173000343144
RSVPLG03,sg,20251021-132754,1.0.1,20251020-085245,707,Practice,Both,1,Automatic,main,11,20251021-132911,global,local,300,S,H,E,A,S-E.png,A-H.png,sS,hH,mask-4.png,mask-3.png,s,1,1.1184757000301033,h,1,1.070890499977395,0.046716999961063266,0.04873859998770058,0.09972329996526241,0.09988020011223853,0.2981871999800205
RSVPLG03,sg,20251021-132754,1.0.1,20251020-085245,707,Practice,Both,1,Automatic,main,12,20251021-132915,local,global,300,S,S,E,E,E-S.png,S-E.png,sS,sS,mask-4.png,mask-2.png,s,1,0.9547838000580668,h,0,0.0018887000624090433,0.04757349984720349,0.04855980002321303,0.10076149995438755,0.0997208000626415,0.3001152998767793
RSVPLG03,sg,20251021-132754,1.0.1,20251020-085245,707,Practice,Both,1,Automatic,main,13,20251021-132920,local,global,750,S,S,A,E,A-S.png,S-E.png,sS,sS,mask-2.png,mask-2.png,h,0,0.24838630016893148,s,1,0.01081590005196631,0.04783100006170571,0.047697799978777766,0.09821110009215772,0.09987480007112026,0.7489402999635786
RSVPLG03,sg,20251021-132754,1.0.1,20251020-085245,707,Practice,Both,1,Automatic,main,14,20251021-132926,local,local,300,S,S,A,E,A-S.png,E-S.png,sS,sS,mask-4.png,mask-1.png,s,1,0.47333519998937845,s,1,0.0959075998980552,0.04571670014411211,0.04699909989722073,0.09987360006198287,0.0981807999778539,0.2999462001025677
RSVPLG03,sg,20251021-132754,1.0.1,20251020-085245,707,Practice,Both,1,Automatic,main,15,20251021-132930,global,local,750,S,S,E,E,S-E.png,E-S.png,sS,sS,mask-4.png,mask-1.png,s,1,0.4876841998193413,s,1,0.10612939996644855,0.04698810004629195,0.04763799998909235,0.1012039000634104,0.09968509990721941,0.7509457000996917
RSVPLG03,sg,20251021-132754,1.0.1,20251020-085245,707,Practice,Both,1,Automatic,main,16,20251021-132934,global,local,750,S,S,A,E,S-A.png,E-S.png,sS,sS,mask-2.png,mask-2.png,s,1,0.40635009994730353,s,1,0.09991910005919635,0.0472715999931097,0.048518900061026216,0.09930330002680421,0.10053199995309114,0.7482956999447197
RSVPLG03,sg,20251021-133213,1.0.1,20251020-085245,707,Experiment,Both,1,Automatic,warmup,1,20251021-133243,local,local,300,H,S,A,A,A-H.png,A-S.png,hH,sS,mask-1.png,mask-1.png,h,1,0.9869597998913378,s,1,0.37152549996972084,0.04155860003083944,0.0465251998975873,0.09351200005039573,0.09942210000008345,0.2937175000552088
RSVPLG03,sg,20251021-133213,1.0.1,20251020-085245,707,Experiment,Both,1,Automatic,warmup,2,20251021-133248,local,global,750,S,S,A,A,A-S.png,S-A.png,sS,sS,mask-3.png,mask-3.png,s,1,1.096159800188616,s,1,0.06691209995187819,0.04784440016373992,0.04659789986908436,0.10094220004975796,0.09959779982455075,0.7506537002045661
RSVPLG03,sg,20251021-133213,1.0.1,20251020-085245,707,Experiment,Both,1,Automatic,warmup,3,20251021-133253,local,global,300,H,S,A,A,A-H.png,S-A.png,hH,sS,mask-2.png,mask-1.png,h,1,1.0821810998022556,s,1,0.027653299970552325,0.04732120013795793,0.046610800083726645,0.10135760018602014,0.09966469998471439,0.3016516000498086
RSVPLG03,sg,20251021-133213,1.0.1,20251020-085245,707,Experiment,Both,1,Automatic,warmup,4,20251021-133258,local,local,750,H,S,A,E,A-H.png,E-S.png,hH,sS,mask-4.png,mask-2.png,h,1,1.4101464999839664,s,1,0.04831019998528063,0.04672799981199205,0.046751399990171194,0.09996159980073571,0.0989693000447005,0.7502641999162734
RSVPLG03,sg,20251021-133213,1.0.1,20251020-085245,707,Experiment,Both,1,Automatic,warmup,5,20251021-133304,global,local,300,H,S,E,A,H-E.png,A-S.png,hH,sS,mask-2.png,mask-2.png,h,1,0.6629538999404758,h,0,0.0910322000272572,0.047726199962198734,0.04767769994214177,0.10096459998749197,0.0998533999081701,0.30059830006211996
RSVPLG03,sg,20251021-133213,1.0.1,20251020-085245,707,Experiment,Both,1,Automatic,main,6,20251021-133308,global,global,300,H,S,E,E,H-E.png,S-E.png,hH,sS,mask-1.png,mask-4.png,h,1,0.574389899848029,s,1,0.924495100043714,0.049480099929496646,0.04766170005314052,0.10170160001143813,0.09932969999499619,0.3012866999488324
RSVPLG03,sg,20251021-133213,1.0.1,20251020-085245,707,Experiment,Both,1,Automatic,main,7,20251021-133313,global,local,750,S,S,A,A,S-A.png,A-S.png,sS,sS,mask-3.png,mask-3.png,s,1,1.057374499971047,h,0,0.31019250000827014,0.04651430016383529,0.04582210001535714,0.09956120001152158,0.09918299992568791,0.750827900134027
RSVPLG03,sg,20251021-133213,1.0.1,20251020-085245,707,Experiment,Both,1,Automatic,main,8,20251021-133319,global,local,750,S,S,E,E,S-E.png,E-S.png,sS,sS,mask-4.png,mask-3.png,h,0,0.5230934999417514,s,1,0.44380209990777075,0.04736409988254309,0.047400099923834205,0.10135710006579757,0.10018029995262623,0.7505719000473619
RSVPLG03,sg,20251021-133213,1.0.1,20251020-085245,707,Experiment,Both,1,Automatic,main,9,20251021-133324,global,global,300,S,S,A,A,S-A.png,S-A.png,sS,sS,mask-3.png,mask-1.png,s,1,0.615411400096491,s,1,0.09339170018211007,0.04851710004732013,0.04754059994593263,0.10253689996898174,0.09938320005312562,0.30235709995031357
RSVPLG03,sg,20251021-133213,1.0.1,20251020-085245,707,Experiment,Both,1,Automatic,main,10,20251021-133329,global,global,300,S,S,A,E,S-A.png,S-E.png,sS,sS,mask-3.png,mask-1.png,s,1,0.3605964998714626,s,1,0.06973850005306304,0.04743200005032122,0.04650869988836348,0.0984680000692606,0.10052179987542331,0.30004740017466247
RSVPLG03,sg,20251021-133213,1.0.1,20251020-085245,707,Experiment,Both,1,Automatic,main,11,20251021-133333,local,global,750,H,H,E,E,E-H.png,H-E.png,hH,hH,mask-3.png,mask-2.png,s,0,0.6640424998477101,h,1,1.3778333000373095,0.04757989989593625,0.047571899835020304,0.09906769986264408,0.09960730001330376,0.7502244999632239
RSVPLG03,sg,20251021-133213,1.0.1,20251020-085245,707,Experiment,Both,1,Automatic,main,12,20251021-133339,local,local,750,S,S,A,E,A-S.png,E-S.png,sS,sS,mask-4.png,mask-2.png,s,1,0.5029706000350416,s,1,0.115377799840644,0.047793000005185604,0.04734180006198585,0.0998031001072377,0.1005198999773711,0.7498147999867797
RSVPLG03,sg,20251021-133213,1.0.1,20251020-085245,707,Experiment,Both,1,Automatic,main,13,20251021-133344,local,global,300,H,S,A,E,A-H.png,S-E.png,hH,sS,mask-2.png,mask-3.png,h,1,3.3886965001001954,s,1,1.566855699988082,0.04757239995524287,0.04663909994997084,0.10157880000770092,0.09943719999864697,0.3015538000036031
RSVPLG03,sg,20251021-133213,1.0.1,20251020-085245,707,Experiment,Both,1,Automatic,main,14,20251021-133352,local,local,300,S,H,E,A,E-S.png,A-H.png,sS,hH,mask-3.png,mask-1.png,s,1,2.663603600114584,h,1,0.4199143999721855,0.04772440018132329,0.04652990004979074,0.10181779996491969,0.10054420004598796,0.3012397000566125
RSVPLG03,sg,20251021-133213,1.0.1,20251020-085245,707,Experiment,Both,1,Automatic,main,15,20251021-133359,local,local,750,H,S,E,A,E-H.png,A-S.png,hH,sS,mask-1.png,mask-3.png,h,1,1.726968000177294,s,1,0.08710630005225539,0.04669989994727075,0.047515900107100606,0.0984436001162976,0.10056880000047386,0.750373899936676
RSVPLG03,sg,20251021-133213,1.0.1,20251020-085245,707,Experiment,Both,1,Automatic,main,16,20251021-133405,global,global,300,S,H,E,E,S-E.png,H-E.png,sS,hH,mask-4.png,mask-1.png,s,1,1.8148479999508709,h,1,1.399219799786806,0.04752590018324554,0.04851179989054799,0.10055289999581873,0.09952709986828268,0.3007538001984358
RSVPLG03,sg,20251021-133213,1.0.1,20251020-085245,707,Experiment,Both,1,Automatic,main,17,20251021-133412,local,global,750,H,H,E,A,E-H.png,H-A.png,hH,hH,mask-4.png,mask-4.png,h,1,1.1020072000101209,h,1,0.10755389998666942,0.04767820006236434,0.04801210016012192,0.10095210000872612,0.10070210020057857,0.7505649998784065
RSVPLG03,sg,20251021-133213,1.0.1,20251020-085245,707,Experiment,Both,1,Automatic,main,18,20251021-133417,local,local,300,H,S,A,A,A-H.png,A-S.png,hH,sS,mask-1.png,mask-1.png,h,1,0.7468890000600368,h,0,0.34497440000995994,0.04671670007519424,0.046400099992752075,0.10045530018396676,0.10031659994274378,0.300464800093323
RSVPLG03,sg,20251021-133213,1.0.1,20251020-085245,707,Experiment,Both,1,Automatic,main,19,20251021-133422,global,global,750,S,H,A,A,S-A.png,H-A.png,sS,hH,mask-2.png,mask-3.png,h,0,0.8727456000633538,h,1,0.08702370012179017,0.04758020001463592,0.04763970011845231,0.09969540010206401,0.09970430005341768,0.7497370999772102
RSVPLG03,sg,20251021-133213,1.0.1,20251020-085245,707,Experiment,Both,1,Automatic,main,20,20251021-133427,global,local,750,S,H,A,E,S-A.png,E-H.png,sS,hH,mask-3.png,mask-2.png,s,1,0.6042712000198662,h,1,0.7322507998906076,0.0467615001834929,0.04608660005033016,0.09998579998500645,0.1002279999665916,0.7503830001223832
RSVPLG03,sg,20251021-133213,1.0.1,20251020-085245,707,Experiment,Both,1,Automatic,main,21,20251021-133432,local,local,750,S,S,E,A,E-S.png,A-S.png,sS,sS,mask-1.png,mask-4.png,s,1,0.8580200998112559,s,1,0.12459010002203286,0.047040600096806884,0.046939299907535315,0.10161540005356073,0.09952899999916553,0.750672300113365
RSVPLG03,sg,20251021-133213,1.0.1,20251020-085245,707,Experiment,Both,1,Automatic,main,22,20251021-133437,global,local,300,H,H,E,E,H-E.png,E-H.png,hH,hH,mask-1.png,mask-1.png,h,1,0.9552411998156458,h,1,0.08532369998283684,0.04650070006027818,0.047499800100922585,0.09955099993385375,0.10133159998804331,0.2998373999726027
RSVPLG03,sg,20251021-133213,1.0.1,20251020-085245,707,Experiment,Both,1,Automatic,main,23,20251021-133442,local,global,750,S,H,A,A,A-S.png,H-A.png,sS,hH,mask-2.png,mask-4.png,s,1,0.5717615999747068,h,1,0.016488200053572655,0.046607299940660596,0.04674330004490912,0.09842789988033473,0.09990150015801191,0.7503518997691572
RSVPLG03,sg,20251021-133213,1.0.1,20251020-085245,707,Experiment,Both,1,Automatic,main,24,20251021-133446,local,global,750,S,H,A,A,A-S.png,H-A.png,sS,hH,mask-1.png,mask-4.png,s,1,0.8813295001164079,h,1,0.8065456999465823,0.047517200000584126,0.04742869990877807,0.09952150005847216,0.10005320003256202,0.7501678999979049
RSVPLG03,sg,20251021-133213,1.0.1,20251020-085245,707,Experiment,Both,1,Automatic,main,25,20251021-133452,global,local,300,H,S,E,A,H-E.png,A-S.png,hH,sS,mask-4.png,mask-4.png,h,1,0.7486049998551607,s,1,0.9343075000215322,0.0474827999714762,0.04634810006245971,0.09940729988738894,0.09930220013484359,0.300661499844864
RSVPLG03,sg,20251021-133213,1.0.1,20251020-085245,707,Experiment,Both,1,Automatic,main,26,20251021-133506,global,local,750,S,S,A,E,S-A.png,E-S.png,sS,sS,mask-3.png,mask-3.png,s,1,0.8788880999200046,h,0,0.02870190003886819,0.04772640019655228,0.04867980000562966,0.09978210018016398,0.09989920002408326,0.7497855999972671
RSVPLG03,sg,20251021-133213,1.0.1,20251020-085245,707,Experiment,Both,1,Automatic,main,27,20251021-133511,global,global,750,H,S,A,E,H-A.png,S-E.png,hH,sS,mask-2.png,mask-1.png,h,1,0.8013710000086576,s,1,0.10281520010903478,0.04672520002350211,0.04770759982056916,0.09982380014844239,0.0998923999723047,0.7495038001798093
RSVPLG03,sg,20251021-133213,1.0.1,20251020-085245,707,Experiment,Both,1,Automatic,main,28,20251021-133516,local,local,300,S,S,E,A,E-S.png,A-S.png,sS,sS,mask-3.png,mask-3.png,s,1,0.43168419995345175,h,0,0.026153000071644783,0.04704779991880059,0.048208799911662936,0.10028329980559647,0.09965909994207323,0.29985739989206195
RSVPLG03,sg,20251021-133213,1.0.1,20251020-085245,707,Experiment,Both,1,Automatic,main,29,20251021-133520,local,local,300,H,S,E,E,E-H.png,E-S.png,hH,sS,mask-3.png,mask-2.png,h,1,1.1733946001622826,s,1,0.13677690015174448,0.047645799815654755,0.04740189993754029,0.09889029990881681,0.10047039994969964,0.2994081999640912
RSVPLG03,sg,20251021-133213,1.0.1,20251020-085245,707,Experiment,Both,1,Automatic,main,30,20251021-133525,global,global,750,S,S,A,A,S-A.png,S-A.png,sS,sS,mask-2.png,mask-4.png,s,1,0.9673584001138806,s,1,0.08996749995276332,0.04753979993984103,0.04749420005828142,0.09940269985236228,0.10050630010664463,0.7501049998681992
RSVPLG03,sg,20251021-133213,1.0.1,20251020-085245,707,Experiment,Both,1,Automatic,main,31,20251021-133530,local,global,300,H,H,E,A,E-H.png,H-A.png,hH,hH,mask-1.png,mask-4.png,h,1,0.8397614997811615,h,1,0.17889710003510118,0.046514400048181415,0.047155699925497174,0.10061020008288324,0.1003940999507904,0.29941239999607205
RSVPLG03,sg,20251021-133213,1.0.1,20251020-085245,707,Experiment,Both,1,Automatic,main,32,20251021-133535,global,global,750,H,H,E,A,H-E.png,H-A.png,hH,hH,mask-1.png,mask-2.png,h,1,0.6560080999042839,h,1,0.09257159987464547,0.04763210006058216,0.04674099991098046,0.09990549995563924,0.09905429999344051,0.7503645000979304
RSVPLG03,sg,20251021-133213,1.0.1,20251020-085245,707,Experiment,Both,1,Automatic,main,33,20251021-133539,local,local,300,S,H,A,A,A-S.png,A-H.png,sS,hH,mask-2.png,mask-1.png,h,0,0.9958244999870658,h,1,0.8122167000547051,0.04751429986208677,0.04751199996098876,0.09952589985914528,0.10053669987246394,0.30012369994074106
RSVPLG03,sg,20251021-133213,1.0.1,20251020-085245,707,Experiment,Both,1,Automatic,main,34,20251021-133545,local,global,750,S,H,A,A,A-S.png,H-A.png,sS,hH,mask-3.png,mask-3.png,h,0,0.7459497000090778,h,1,3.355710100149736,0.04843069985508919,0.04913699999451637,0.10091360006481409,0.10017480002716184,0.7499842999968678
RSVPLG03,sg,20251021-133213,1.0.1,20251020-085245,707,Experiment,Both,1,Automatic,main,35,20251021-133553,local,global,300,S,H,E,A,E-S.png,H-A.png,sS,hH,mask-4.png,mask-1.png,s,1,0.41727900016121566,h,1,0.5771441999822855,0.046455200063064694,0.04739759978838265,0.10043730004690588,0.10033819987438619,0.30093510006554425
RSVPLG03,sg,20251021-133213,1.0.1,20251020-085245,707,Experiment,Both,1,Automatic,main,36,20251021-133558,global,local,300,S,H,E,E,S-E.png,E-H.png,sS,hH,mask-2.png,mask-3.png,s,1,0.4145841998979449,h,1,1.8677975998725742,0.04857270000502467,0.04749869997613132,0.10019639995880425,0.09922650014050305,0.30115529987961054
RSVPLG03,sg,20251021-133213,1.0.1,20251020-085245,707,Experiment,Both,1,Automatic,main,37,20251021-133604,local,global,750,H,H,A,A,A-H.png,H-A.png,hH,hH,mask-4.png,mask-3.png,h,1,1.183445499977097,h,1,0.7003859002143145,0.04750820016488433,0.047392799984663725,0.09877250017598271,0.10041099996306002,0.7489780001342297
RSVPLG03,sg,20251021-133213,1.0.1,20251020-085245,707,Experiment,Both,1,Automatic,main,38,20251021-133610,global,global,300,S,S,A,E,S-A.png,S-E.png,sS,sS,mask-4.png,mask-1.png,s,1,1.1644101000856608,s,1,0.07734389998950064,0.04671509983018041,0.04789140005595982,0.0988884000107646,0.10010010004043579,0.2995452999603003
RSVPLG03,sg,20251021-133213,1.0.1,20251020-085245,707,Experiment,Both,1,Automatic,main,39,20251021-133615,local,global,750,S,H,A,A,A-S.png,H-A.png,sS,hH,mask-4.png,mask-3.png,s,1,0.6786440000869334,h,1,0.4413301001768559,0.04694049991667271,0.04683790006674826,0.10010679997503757,0.10084390011616051,0.7499237998854369
RSVPLG03,sg,20251021-133213,1.0.1,20251020-085245,707,Experiment,Both,1,Automatic,main,40,20251021-133620,local,local,750,H,S,E,A,E-H.png,A-S.png,hH,sS,mask-1.png,mask-1.png,h,1,0.9930046999361366,s,1,1.0341241999994963,0.046698000049218535,0.04771899990737438,0.09971179999411106,0.09982699993997812,0.7495397001039237
RSVPLG03,sg,20251021-133213,1.0.1,20251020-085245,707,Experiment,Both,1,Automatic,main,41,20251021-133626,global,local,300,S,H,E,E,S-E.png,E-H.png,sS,hH,mask-4.png,mask-3.png,s,1,1.3099032000172883,h,1,0.0907642999663949,0.04579190001823008,0.047618000069633126,0.09977170010097325,0.09864769992418587,0.3002502000890672
RSVPLG03,sg,20251021-133213,1.0.1,20251020-085245,707,Experiment,Both,1,Automatic,main,42,20251021-133631,local,local,300,S,H,E,A,E-S.png,A-H.png,sS,hH,mask-4.png,mask-3.png,s,1,0.8490977000910789,h,1,0.16213429998606443,0.04755489993840456,0.047617699950933456,0.09957719990052283,0.09965539979748428,0.29924810002557933
RSVPLG03,sg,20251021-133213,1.0.1,20251020-085245,707,Experiment,Both,1,Automatic,main,43,20251021-133636,global,global,750,S,H,A,E,S-A.png,H-E.png,sS,hH,mask-3.png,mask-3.png,s,1,0.8675134000368416,h,1,0.08593930001370609,0.04754599998705089,0.04768229997716844,0.10086959996260703,0.09972239984199405,0.7501860000193119
RSVPLG03,sg,20251021-133213,1.0.1,20251020-085245,707,Experiment,Both,1,Automatic,main,44,20251021-133641,global,global,300,S,H,E,A,S-E.png,H-A.png,sS,hH,mask-3.png,mask-1.png,s,1,1.0030819000676274,s,0,0.5683211002033204,0.04872580012306571,0.04860830004326999,0.09995710011571646,0.1014813999645412,0.2998528000898659
RSVPLG03,sg,20251021-133213,1.0.1,20251020-085245,707,Experiment,Both,1,Automatic,main,45,20251021-133646,local,global,300,H,H,A,A,A-H.png,H-A.png,hH,hH,mask-1.png,mask-4.png,h,1,0.4947485998272896,h,1,0.7311311999801546,0.04860209999606013,0.0477746999822557,0.10065259994007647,0.10082369996234775,0.3020162000320852
RSVPLG03,sg,20251021-133213,1.0.1,20251020-085245,707,Experiment,Both,1,Automatic,main,46,20251021-133651,local,local,300,H,S,A,E,A-H.png,E-S.png,hH,sS,mask-3.png,mask-4.png,h,1,0.8557415001560003,h,0,0.07528469990938902,0.04764240002259612,0.047914700116962194,0.09972669999115169,0.10106330015696585,0.29924739990383387
RSVPLG03,sg,20251021-133213,1.0.1,20251020-085245,707,Experiment,Both,1,Automatic,main,47,20251021-133656,global,local,750,S,H,E,A,S-E.png,A-H.png,sS,hH,mask-2.png,mask-1.png,s,1,2.5706933001056314,h,1,0.458696800051257,0.04751090006902814,0.047766700154170394,0.09871609997935593,0.09999750019051135,0.7499815998598933
RSVPLG03,sg,20251021-133213,1.0.1,20251020-085245,707,Experiment,Both,1,Automatic,main,48,20251021-133703,local,local,750,H,S,E,E,E-H.png,E-S.png,hH,sS,mask-1.png,mask-2.png,h,1,0.9098582998849452,s,1,0.3477201000787318,0.047686300007626414,0.048669299809262156,0.09988310001790524,0.09985270001925528,0.7505805001128465
RSVPLG03,sg,20251021-133213,1.0.1,20251020-085245,707,Experiment,Both,1,Automatic,main,49,20251021-133708,global,global,300,S,H,E,E,S-E.png,H-E.png,sS,hH,mask-4.png,mask-2.png,s,1,0.9520411998964846,h,1,0.33185740001499653,0.04665839998051524,0.04780549998395145,0.0988878000061959,0.10004230006597936,0.2992563999723643
RSVPLG03,sg,20251021-133213,1.0.1,20251020-085245,707,Experiment,Both,1,Automatic,main,50,20251021-133713,local,local,750,H,H,E,A,E-H.png,A-H.png,hH,hH,mask-2.png,mask-3.png,h,1,0.6844669999554753,h,1,0.10130950016900897,0.04759650002233684,0.048848200123757124,0.09959960007108748,0.1015767001081258,0.7490027998574078
RSVPLG03,sg,20251021-133213,1.0.1,20251020-085245,707,Experiment,Both,1,Automatic,main,51,20251021-133721,global,local,750,H,S,E,A,H-E.png,A-S.png,hH,sS,mask-4.png,mask-1.png,h,1,0.7053036999423057,h,0,0.09231370012275875,0.04657260002568364,0.047560099977999926,0.09891350008547306,0.09891310008242726,0.7501596000511199
RSVPLG03,sg,20251021-133213,1.0.1,20251020-085245,707,Experiment,Both,1,Automatic,main,52,20251021-133726,global,local,300,H,H,A,A,H-A.png,A-H.png,hH,hH,mask-4.png,mask-1.png,h,1,0.6561614000238478,h,1,0.13735940004698932,0.04653209983371198,0.0482105000410229,0.0997013000305742,0.10137900011613965,0.2984521999023855
RSVPLG03,sg,20251021-133213,1.0.1,20251020-085245,707,Experiment,Both,1,Automatic,main,53,20251021-133730,local,local,300,H,H,A,E,A-H.png,E-H.png,hH,hH,mask-4.png,mask-1.png,h,1,0.9290414999704808,h,1,1.6763186999596655,0.04646540014073253,0.045843099942430854,0.10004970012232661,0.0993912999983877,0.30039600003510714
RSVPLG03,sg,20251021-133213,1.0.1,20251020-085245,707,Experiment,Both,1,Automatic,main,54,20251021-133737,global,local,750,S,H,E,E,S-E.png,E-H.png,sS,hH,mask-3.png,mask-3.png,s,1,0.9399236000608653,h,1,0.4037583000026643,0.04761570016853511,0.04568540002219379,0.099534000037238,0.0999169999267906,0.7514307000674307
RSVPLG03,sg,20251021-133213,1.0.1,20251020-085245,707,Experiment,Both,1,Automatic,main,55,20251021-133742,local,global,300,S,H,E,A,E-S.png,H-A.png,sS,hH,mask-4.png,mask-4.png,s,1,1.1083855000324547,h,1,0.5157890000846237,0.048529899911955,0.047517500119283795,0.10051799984648824,0.09955120016820729,0.3009622998069972
RSVPLG03,sg,20251021-133213,1.0.1,20251020-085245,707,Experiment,Both,1,Automatic,main,56,20251021-133747,local,global,750,S,H,E,A,E-S.png,H-A.png,sS,hH,mask-1.png,mask-1.png,s,1,0.8724259999580681,h,1,0.3736453999299556,0.04844220005907118,0.048160099890083075,0.10046019987203181,0.1013175998814404,0.7503921999596059
RSVPLG03,sg,20251021-133213,1.0.1,20251020-085245,707,Experiment,Both,1,Automatic,main,57,20251021-133753,global,global,750,H,S,A,E,H-A.png,S-E.png,hH,sS,mask-1.png,mask-3.png,h,1,0.7726590998936445,h,0,1.9074345999397337,0.04792979988269508,0.047364299884065986,0.10022579994983971,0.0992083998862654,0.7517500000540167
RSVPLG03,sg,20251021-133213,1.0.1,20251020-085245,707,Experiment,Both,1,Automatic,main,58,20251021-133800,global,local,300,H,S,A,A,H-A.png,A-S.png,hH,sS,mask-1.png,mask-2.png,h,1,0.9086326998658478,h,0,0.08253620006144047,0.047432399820536375,0.047492400044575334,0.10142979980446398,0.09841510001569986,0.3016466998960823
RSVPLG03,sg,20251021-133213,1.0.1,20251020-085245,707,Experiment,Both,1,Automatic,main,59,20251021-133804,local,local,750,S,S,E,E,E-S.png,E-S.png,sS,sS,mask-3.png,mask-3.png,s,1,0.9522649000864476,s,1,0.7871102998033166,0.047591600101441145,0.04856100003235042,0.09861509990878403,0.09991779993288219,0.7499396000057459
RSVPLG03,sg,20251021-133213,1.0.1,20251020-085245,707,Experiment,Both,1,Automatic,main,60,20251021-133810,global,global,750,S,S,E,A,S-E.png,S-A.png,sS,sS,mask-2.png,mask-2.png,s,1,0.8444036999717355,s,1,0.07528430013917387,0.04770690016448498,0.04698950005695224,0.10068710008636117,0.09844069997780025,0.7517336001619697
RSVPLG03,sg,20251021-133213,1.0.1,20251020-085245,707,Experiment,Both,1,Automatic,main,61,20251021-133815,global,global,300,S,S,A,E,S-A.png,S-E.png,sS,sS,mask-3.png,mask-2.png,s,1,0.7511574998497963,s,1,0.07453959994018078,0.04698169999755919,0.047512499848380685,0.10029980004765093,0.09959379979409277,0.30028230021707714
RSVPLG03,sg,20251021-133213,1.0.1,20251020-085245,707,Experiment,Both,1,Automatic,main,62,20251021-133819,global,global,750,S,H,E,E,S-E.png,H-E.png,sS,hH,mask-3.png,mask-1.png,s,1,0.7192740000318736,h,1,0.7607253000605851,0.04815699998289347,0.04856249992735684,0.09948749979957938,0.10064339987002313,0.7503182999789715
RSVPLG03,sg,20251021-133213,1.0.1,20251020-085245,707,Experiment,Both,1,Automatic,main,63,20251021-133825,global,local,300,S,H,A,A,S-A.png,A-H.png,sS,hH,mask-1.png,mask-1.png,s,1,0.8079039000440389,s,0,0.08871070016175508,0.0476067999843508,0.04679290018975735,0.10038640000857413,0.09796810010448098,0.3004648999776691
RSVPLG03,sg,20251021-133213,1.0.1,20251020-085245,707,Experiment,Both,1,Automatic,main,64,20251021-133830,local,local,750,H,S,E,A,E-H.png,A-S.png,hH,sS,mask-3.png,mask-1.png,s,0,0.8097414998337626,s,1,0.6040777999442071,0.046967700123786926,0.04843270010314882,0.10117320017889142,0.10247129993513227,0.7492148000746965
RSVPLG03,sg,20251021-133213,1.0.1,20251020-085245,707,Experiment,Both,1,Automatic,main,65,20251021-133835,local,global,750,S,S,E,A,E-S.png,S-A.png,sS,sS,mask-2.png,mask-2.png,s,1,0.7452521999366581,s,1,0.3034839001484215,0.047438899986445904,0.04652219987474382,0.10061169997788966,0.09979050001129508,0.7514380000066012
RSVPLG03,sg,20251021-133213,1.0.1,20251020-085245,707,Experiment,Both,1,Automatic,main,66,20251021-133840,global,local,300,S,S,E,E,S-E.png,E-S.png,sS,sS,mask-4.png,mask-4.png,s,1,0.5577837999444455,s,1,0.08913360000588,0.04775540018454194,0.04852750012651086,0.10096710012294352,0.10177049995400012,0.30001930007711053
RSVPLG03,sg,20251021-133213,1.0.1,20251020-085245,707,Experiment,Both,1,Automatic,main,67,20251021-133845,local,global,300,H,S,A,E,A-H.png,S-E.png,hH,sS,mask-4.png,mask-2.png,h,1,0.8325196001678705,s,1,0.4569689999334514,0.04679879988543689,0.04867679998278618,0.09902630001306534,0.10007130005396903,0.29956389986909926
RSVPLG03,sg,20251021-133213,1.0.1,20251020-085245,707,Experiment,Both,1,Automatic,main,68,20251021-133850,local,global,750,S,H,A,E,A-S.png,H-E.png,sS,hH,mask-2.png,mask-2.png,h,0,1.0233954000286758,h,1,0.09222689992748201,0.048715800046920776,0.047698300099000335,0.10079000005498528,0.10089979995973408,0.7510251000057906
RSVPLG03,sg,20251021-133213,1.0.1,20251020-085245,707,Experiment,Both,1,Automatic,main,69,20251021-133855,global,local,300,S,S,A,E,S-A.png,E-S.png,sS,sS,mask-1.png,mask-4.png,s,1,1.1503983000293374,s,1,0.12062339996919036,0.046554100001230836,0.047501200111582875,0.09969629999250174,0.10067029995843768,0.29914309992454946
RSVPLG03,sg,20251021-133213,1.0.1,20251020-085245,707,Experiment,Both,1,Automatic,main,70,20251021-133900,local,global,300,S,H,A,E,A-S.png,H-E.png,sS,hH,mask-2.png,mask-2.png,s,1,1.7573611000552773,s,0,0.20112320012412965,0.04767189989797771,0.04766810010187328,0.09986849990673363,0.10093780001625419,0.300374599872157
RSVPLG03,sg,20251021-133213,1.0.1,20251020-085245,707,Experiment,Both,1,Automatic,main,71,20251021-133905,global,global,300,S,S,A,A,S-A.png,S-A.png,sS,sS,mask-2.png,mask-3.png,s,1,0.43426740006543696,s,1,0.07313250005245209,0.04870569985359907,0.04870390007272363,0.10089899995364249,0.09914950001984835,0.3004764998331666
RSVPLG03,sg,20251021-133213,1.0.1,20251020-085245,707,Experiment,Both,1,Automatic,main,72,20251021-133910,local,global,750,S,H,E,A,E-S.png,H-A.png,sS,hH,mask-4.png,mask-2.png,s,1,0.7305650000926107,h,1,0.3096799000632018,0.04650619998574257,0.04776500002481043,0.09968409989960492,0.09964099992066622,0.7499593999236822
RSVPLG03,sg,20251021-133213,1.0.1,20251020-085245,707,Experiment,Both,1,Automatic,main,73,20251021-133915,local,local,300,S,S,E,E,E-S.png,E-S.png,sS,sS,mask-3.png,mask-3.png,s,1,0.6809797999449074,s,1,0.10710849985480309,0.047192899975925684,0.04734329995699227,0.09865489997901022,0.10027340007945895,0.2995974998921156
RSVPLG03,sg,20251021-133213,1.0.1,20251020-085245,707,Experiment,Both,1,Automatic,main,74,20251021-133919,local,global,750,H,S,E,A,E-H.png,S-A.png,hH,sS,mask-1.png,mask-4.png,h,1,0.7647787001915276,s,1,0.5024974001571536,0.04765739990398288,0.04759910004213452,0.09981300006620586,0.09975999989546835,0.7502800000365824
RSVPLG03,sg,20251021-133213,1.0.1,20251020-085245,707,Experiment,Both,1,Automatic,main,75,20251021-133924,global,global,300,H,H,E,E,H-E.png,H-E.png,hH,hH,mask-1.png,mask-3.png,h,1,0.7651710000354797,h,1,0.08384729991666973,0.0477228001691401,0.046690399991348386,0.09888610010966659,0.09921239991672337,0.3006669001188129
RSVPLG03,sg,20251021-133213,1.0.1,20251020-085245,707,Experiment,Both,1,Automatic,main,76,20251021-133948,local,local,300,H,H,A,E,A-H.png,E-H.png,hH,hH,mask-1.png,mask-3.png,h,1,0.4632745999842882,h,1,0.06849019997753203,0.04862429993227124,0.046583699993789196,0.10067469999194145,0.09947739983908832,0.3011110001243651
RSVPLG03,sg,20251021-133213,1.0.1,20251020-085245,707,Experiment,Both,1,Automatic,main,77,20251021-133953,global,local,300,H,H,E,A,H-E.png,A-H.png,hH,hH,mask-4.png,mask-1.png,h,1,0.39344960008747876,h,1,0.10905680013820529,0.04757140018045902,0.04653459996916354,0.09962640004232526,0.0996199999935925,0.30091130011714995
RSVPLG03,sg,20251021-133213,1.0.1,20251020-085245,707,Experiment,Both,1,Automatic,main,78,20251021-133957,local,global,300,H,S,A,E,A-H.png,S-E.png,hH,sS,mask-3.png,mask-3.png,h,1,0.49631109996698797,s,1,1.048059499822557,0.04753750003874302,0.04778510006144643,0.10053659998811781,0.10076820012181997,0.29983139992691576
RSVPLG03,sg,20251021-133213,1.0.1,20251020-085245,707,Experiment,Both,1,Automatic,main,79,20251021-134002,global,local,300,H,S,E,A,H-E.png,A-S.png,hH,sS,mask-3.png,mask-4.png,h,1,0.6179752999451011,h,0,0.5806847999338061,0.047708099940791726,0.04691840009763837,0.0983895999379456,0.10019280016422272,0.2994746998883784
RSVPLG03,sg,20251021-133213,1.0.1,20251020-085245,707,Experiment,Both,1,Automatic,main,80,20251021-134007,local,global,750,S,H,A,A,A-S.png,H-A.png,sS,hH,mask-1.png,mask-1.png,h,0,0.37148910015821457,h,1,0.08818920003250241,0.04649239988066256,0.04772859998047352,0.10065749986097217,0.10084359999746084,0.7503648998681456
RSVPLG03,sg,20251021-133213,1.0.1,20251020-085245,707,Experiment,Both,1,Automatic,main,81,20251021-134011,global,local,750,H,H,A,E,H-A.png,E-H.png,hH,hH,mask-4.png,mask-2.png,h,1,0.5920227998867631,h,1,0.3005995999556035,0.04867129982449114,0.04858129983767867,0.10083939996547997,0.10057569993659854,0.7502437999937683
RSVPLG03,sg,20251021-133213,1.0.1,20251020-085245,707,Experiment,Both,1,Automatic,main,82,20251021-134016,global,global,750,H,H,E,E,H-E.png,H-E.png,hH,hH,mask-3.png,mask-1.png,h,1,1.065966400085017,h,1,0.13224519998766482,0.04585870006121695,0.0471244000364095,0.09900170005857944,0.09943120018579066,0.7504149000160396
RSVPLG03,sg,20251021-133213,1.0.1,20251020-085245,707,Experiment,Both,1,Automatic,main,83,20251021-134021,global,local,300,H,H,A,E,H-A.png,E-H.png,hH,hH,mask-3.png,mask-2.png,h,1,0.5570212998427451,h,1,0.31013110000640154,0.04717000015079975,0.04847690020687878,0.10004630009643734,0.10034210002049804,0.29951589996926486
RSVPLG03,sg,20251021-133213,1.0.1,20251020-085245,707,Experiment,Both,1,Automatic,main,84,20251021-134026,global,global,750,H,S,A,E,H-A.png,S-E.png,hH,sS,mask-3.png,mask-3.png,h,1,0.9230637999717146,s,1,0.48221220006234944,0.04756560013629496,0.047512299846857786,0.09944650018587708,0.1015271998476237,0.749330900143832
RSVPLG03,sg,20251021-133213,1.0.1,20251020-085245,707,Experiment,Both,1,Automatic,main,85,20251021-134031,global,local,750,H,H,E,A,H-E.png,A-H.png,hH,hH,mask-3.png,mask-2.png,h,1,0.862848199903965,h,1,0.08937639999203384,0.047565200133249164,0.04598940000869334,0.0993856000714004,0.10063340002670884,0.7498643000144511
RSVPLG03,sg,20251021-133213,1.0.1,20251020-085245,707,Experiment,Both,1,Automatic,main,86,20251021-134036,local,local,300,H,S,E,E,E-H.png,E-S.png,hH,sS,mask-4.png,mask-4.png,h,1,1.0702510999981314,h,0,0.3472252001520246,0.047662800177931786,0.04755229991860688,0.09815430012531579,0.09889409993775189,0.29990370012819767
RSVPLG03,sg,20251021-133213,1.0.1,20251020-085245,707,Experiment,Both,1,Automatic,main,87,20251021-134041,local,local,750,H,S,A,A,A-H.png,A-S.png,hH,sS,mask-3.png,mask-2.png,h,1,0.4377957000397146,s,1,1.2226952000055462,0.045857900055125356,0.048721899976953864,0.09996090014465153,0.10091409995220602,0.7496046000160277
RSVPLG03,sg,20251021-133213,1.0.1,20251020-085245,707,Experiment,Both,1,Automatic,main,88,20251021-134047,local,global,300,S,H,A,E,A-S.png,H-E.png,sS,hH,mask-3.png,mask-1.png,s,1,1.2753481001127511,h,1,0.26060639997012913,0.047411999898031354,0.047238799976184964,0.10047189984470606,0.1002662000246346,0.3002130000386387
RSVPLG03,sg,20251021-133213,1.0.1,20251020-085245,707,Experiment,Both,1,Automatic,main,89,20251021-134052,local,global,300,H,H,A,E,A-H.png,H-E.png,hH,hH,mask-2.png,mask-2.png,h,1,0.6676623998209834,h,1,1.8042767001315951,0.047508700052276254,0.047518299892544746,0.10053339996375144,0.10151539999060333,0.2997953000012785
RSVPLG03,sg,20251021-133213,1.0.1,20251020-085245,707,Experiment,Both,1,Automatic,main,90,20251021-134058,global,global,300,H,H,E,E,H-E.png,H-E.png,hH,hH,mask-4.png,mask-2.png,h,1,1.1146819000132382,h,1,0.26146079995669425,0.047486300114542246,0.047659500036388636,0.09946590010076761,0.09982350002974272,0.29957820009440184
RSVPLG03,sg,20251021-133213,1.0.1,20251020-085245,707,Experiment,Both,1,Automatic,main,91,20251021-134103,global,global,750,H,S,A,A,H-A.png,S-A.png,hH,sS,mask-3.png,mask-1.png,h,1,0.4826246998272836,s,1,0.4816315998323262,0.04676789999939501,0.04682259983383119,0.09830680000595748,0.09886639984324574,0.7504741000011563
RSVPLG03,sg,20251021-133213,1.0.1,20251020-085245,707,Experiment,Both,1,Automatic,main,92,20251021-134109,global,global,750,S,H,A,E,S-A.png,H-E.png,sS,hH,mask-3.png,mask-1.png,s,1,0.7925999001599848,h,1,0.0743889999575913,0.048161600017920136,0.048527900129556656,0.10127199999988079,0.10025899996981025,0.7503512999974191
RSVPLG03,sg,20251021-133213,1.0.1,20251020-085245,707,Experiment,Both,1,Automatic,main,93,20251021-134114,global,global,300,S,S,A,A,S-A.png,S-A.png,sS,sS,mask-3.png,mask-2.png,s,1,0.38357509998604655,s,1,0.0869146001059562,0.046567099867388606,0.04752980009652674,0.0995773000176996,0.1005579000338912,0.29885239992290735
RSVPLG03,sg,20251021-133213,1.0.1,20251020-085245,707,Experiment,Both,1,Automatic,main,94,20251021-134118,local,global,300,S,H,A,A,A-S.png,H-A.png,sS,hH,mask-1.png,mask-4.png,s,1,0.31798160006292164,s,0,0.06432760017924011,0.048638799926266074,0.04654599982313812,0.10068509983830154,0.10062339995056391,0.3015068999957293
RSVPLG03,sg,20251021-133213,1.0.1,20251020-085245,707,Experiment,Both,1,Automatic,main,95,20251021-134122,global,local,750,S,S,A,E,S-A.png,E-S.png,sS,sS,mask-1.png,mask-4.png,s,1,0.3673199999611825,s,1,0.5591901000589132,0.04752369993366301,0.04749909997917712,0.09860279993154109,0.09966089995577931,0.750046200118959
RSVPLG03,sg,20251021-133213,1.0.1,20251020-085245,707,Experiment,Both,1,Automatic,main,96,20251021-134127,global,local,300,H,S,E,E,H-E.png,E-S.png,hH,sS,mask-1.png,mask-2.png,s,0,1.4248230000957847,h,0,0.06088829995132983,0.04652810003608465,0.04760160017758608,0.10043820017017424,0.10096070007421076,0.29982610000297427
RSVPLG03,sg,20251021-133213,1.0.1,20251020-085245,707,Experiment,Both,1,Automatic,main,97,20251021-134132,local,local,750,H,S,E,A,E-H.png,A-S.png,hH,sS,mask-1.png,mask-4.png,h,1,0.8670739000663161,s,1,0.35587659990414977,0.04672089987434447,0.04873379995115101,0.09991399990394711,0.10069529991596937,0.7487957999110222
RSVPLG03,sg,20251021-133213,1.0.1,20251020-085245,707,Experiment,Both,1,Automatic,main,98,20251021-134137,global,global,750,H,H,A,E,H-A.png,H-E.png,hH,hH,mask-4.png,mask-4.png,h,1,0.5339237998705357,s,0,0.3149655999150127,0.048463899875059724,0.04586370009928942,0.10049239988438785,0.09921430004760623,0.7523172998335212
RSVPLG03,sg,20251021-133213,1.0.1,20251020-085245,707,Experiment,Both,1,Automatic,main,99,20251021-134142,local,global,300,S,S,A,A,A-S.png,S-A.png,sS,sS,mask-4.png,mask-1.png,s,1,0.9325856999494135,h,0,0.1507780000101775,0.048514600144699216,0.04750910005532205,0.10060500004328787,0.0999045001808554,0.3008210000116378
RSVPLG03,sg,20251021-133213,1.0.1,20251020-085245,707,Experiment,Both,1,Automatic,main,100,20251021-134147,global,global,750,H,S,A,E,H-A.png,S-E.png,hH,sS,mask-3.png,mask-3.png,h,1,1.3483582001645118,s,1,0.4802058001514524,0.04960089991800487,0.04772290005348623,0.10166189982555807,0.09996609995141625,0.7516572999302298
RSVPLG03,sg,20251021-133213,1.0.1,20251020-085245,707,Experiment,Both,1,Automatic,main,101,20251021-134154,global,global,300,S,S,E,A,S-E.png,S-A.png,sS,sS,mask-2.png,mask-1.png,s,1,0.43298419984057546,s,1,0.10020089987665415,0.048708299873396754,0.04639769997447729,0.09996099979616702,0.0987481998745352,0.3009877000004053
RSVPLG03,sg,20251021-133213,1.0.1,20251020-085245,707,Experiment,Both,1,Automatic,main,102,20251021-134159,global,local,750,S,S,A,A,S-A.png,A-S.png,sS,sS,mask-4.png,mask-2.png,s,1,0.45639479998499155,s,1,0.09107199986465275,0.04753610002808273,0.04770550015382469,0.09953990019857883,0.0999129000119865,0.749860699987039
RSVPLG03,sg,20251021-133213,1.0.1,20251020-085245,707,Experiment,Both,1,Automatic,main,103,20251021-134203,local,local,750,H,S,A,A,A-H.png,A-S.png,hH,sS,mask-2.png,mask-3.png,h,1,0.6336568999104202,s,1,0.9366955000441521,0.047490299912169576,0.047699599992483854,0.10075460001826286,0.09989989991299808,0.75211749994196
RSVPLG03,sg,20251021-133213,1.0.1,20251020-085245,707,Experiment,Both,1,Automatic,main,104,20251021-134209,local,local,750,S,S,E,A,E-S.png,A-S.png,sS,sS,mask-1.png,mask-1.png,s,1,0.6806403999216855,s,1,0.06901440001092851,0.047005899948999286,0.046711599919945,0.10032979981042445,0.09891579998657107,0.7510013999417424
RSVPLG03,sg,20251021-133213,1.0.1,20251020-085245,707,Experiment,Both,1,Automatic,main,105,20251021-134214,global,global,300,H,H,A,E,H-A.png,H-E.png,hH,hH,mask-1.png,mask-4.png,s,0,0.9576542000286281,s,0,0.18639119993895292,0.047678499948233366,0.048609500052407384,0.09891969989985228,0.10177080007269979,0.2985495999455452
RSVPLG03,sg,20251021-133213,1.0.1,20251020-085245,707,Experiment,Both,1,Automatic,main,106,20251021-134218,local,local,300,H,S,E,E,E-H.png,E-S.png,hH,sS,mask-1.png,mask-2.png,s,0,0.3649341999553144,s,1,0.07845609984360635,0.0487313000485301,0.04837149986997247,0.10089810006320477,0.10001029982231557,0.300503000151366
RSVPLG03,sg,20251021-133213,1.0.1,20251020-085245,707,Experiment,Both,1,Automatic,main,107,20251021-134223,local,local,750,H,H,A,A,A-H.png,A-H.png,hH,hH,mask-4.png,mask-4.png,h,1,0.9419344998896122,h,1,0.10313379997387528,0.04757299995981157,0.047613600036129355,0.10076039982959628,0.10191929992288351,0.7498985999263823
RSVPLG03,sg,20251021-133213,1.0.1,20251020-085245,707,Experiment,Both,1,Automatic,main,108,20251021-134228,local,local,750,H,H,A,A,A-H.png,A-H.png,hH,hH,mask-3.png,mask-4.png,h,1,0.4751773001626134,h,1,0.09028000012040138,0.047701000003144145,0.046688999980688095,0.09889590018428862,0.10080250003375113,0.7501261001452804
RSVPLG03,sg,20251021-133213,1.0.1,20251020-085245,707,Experiment,Both,1,Automatic,main,109,20251021-134232,local,global,750,S,H,A,E,A-S.png,H-E.png,sS,hH,mask-4.png,mask-1.png,s,1,0.4308447001967579,h,1,0.4017797000706196,0.04672670015133917,0.04686399991624057,0.09897679998539388,0.09908950002864003,0.7504164001438767
RSVPLG03,sg,20251021-133213,1.0.1,20251020-085245,707,Experiment,Both,1,Automatic,main,110,20251021-134237,global,local,300,S,H,E,A,S-E.png,A-H.png,sS,hH,mask-4.png,mask-4.png,s,1,1.225869599962607,h,1,0.4127543999347836,0.04669760004617274,0.04745399998500943,0.09839970013126731,0.0993852000683546,0.29993720003403723
RSVPLG03,sg,20251021-133213,1.0.1,20251020-085245,707,Experiment,Both,1,Automatic,main,111,20251021-134243,local,local,300,H,S,A,A,A-H.png,A-S.png,hH,sS,mask-2.png,mask-3.png,h,1,0.9363263000268489,s,1,1.6176964999176562,0.04721110011450946,0.047047800151631236,0.10037960018962622,0.10023170011118054,0.3001711000688374
RSVPLG03,sg,20251021-133213,1.0.1,20251020-085245,707,Experiment,Both,1,Automatic,main,112,20251021-134249,local,local,300,H,S,E,E,E-H.png,E-S.png,hH,sS,mask-3.png,mask-3.png,h,1,0.6049171998165548,s,1,0.057913299882784486,0.04640110000036657,0.046612200094386935,0.09829959995113313,0.09886900009587407,0.3000764998141676
RSVPLG03,sg,20251021-133213,1.0.1,20251020-085245,707,Experiment,Both,1,Automatic,main,113,20251021-134253,local,local,300,S,S,A,A,A-S.png,A-S.png,sS,sS,mask-1.png,mask-3.png,s,1,1.6323059999849647,s,1,0.9988865000195801,0.048764599952846766,0.046652200166136026,0.10098419990390539,0.10085170017555356,0.3015661998651922
RSVPLG03,sg,20251021-133213,1.0.1,20251020-085245,707,Experiment,Both,1,Automatic,main,114,20251021-134300,global,local,300,S,S,A,A,S-A.png,A-S.png,sS,sS,mask-3.png,mask-1.png,s,1,0.6807353999465704,s,1,0.1000606999732554,0.046734899980947375,0.046697899932041764,0.09895160002633929,0.10081880004145205,0.2995029999874532
RSVPLG03,sg,20251021-133213,1.0.1,20251020-085245,707,Experiment,Both,1,Automatic,main,115,20251021-134304,local,local,750,H,H,E,E,E-H.png,E-H.png,hH,hH,mask-2.png,mask-1.png,s,0,2.221196200000122,h,1,2.3333729000296444,0.048611000180244446,0.04759510001167655,0.10043230000883341,0.10065410006791353,0.7505361000075936
RSVPLG03,sg,20251021-133213,1.0.1,20251020-085245,707,Experiment,Both,1,Automatic,main,116,20251021-134311,global,local,750,S,S,E,E,S-E.png,E-S.png,sS,sS,mask-1.png,mask-4.png,s,1,0.4395292999688536,s,1,0.07386949984356761,0.04558290005661547,0.047502700006589293,0.09964479994960129,0.09967019991017878,0.749256500042975
RSVPLG03,sg,20251021-133213,1.0.1,20251020-085245,707,Experiment,Both,1,Automatic,main,117,20251021-134315,global,local,750,S,S,E,E,S-E.png,E-S.png,sS,sS,mask-1.png,mask-1.png,s,1,0.6114070999901742,s,1,0.06019139988347888,0.04851350001990795,0.04681119997985661,0.1005898998118937,0.09969939989969134,0.751141499960795
RSVPLG03,sg,20251021-133213,1.0.1,20251020-085245,707,Experiment,Both,1,Automatic,main,118,20251021-134320,global,global,300,S,H,E,E,S-E.png,H-E.png,sS,hH,mask-3.png,mask-4.png,s,1,0.5118684999179095,s,0,0.18021150003187358,0.0474199999589473,0.04738160013221204,0.10131049994379282,0.09977470012381673,0.3003457000013441
RSVPLG03,sg,20251021-133213,1.0.1,20251020-085245,707,Experiment,Both,1,Automatic,main,119,20251021-134324,global,local,750,S,H,A,A,S-A.png,A-H.png,sS,hH,mask-1.png,mask-4.png,s,1,0.7545220998581499,h,1,1.879709100117907,0.0470040999352932,0.04861000017262995,0.09884500014595687,0.10082030016928911,0.7496873999480158
RSVPLG03,sg,20251021-133213,1.0.1,20251020-085245,707,Experiment,Both,1,Automatic,main,120,20251021-134331,local,global,750,H,S,A,E,A-H.png,S-E.png,hH,sS,mask-1.png,mask-1.png,h,1,0.8209520000964403,h,0,0.07061409996822476,0.04863550001755357,0.04703969997353852,0.09985899995081127,0.10014969995245337,0.7517462999094278
RSVPLG03,sg,20251021-133213,1.0.1,20251020-085245,707,Experiment,Both,1,Automatic,main,121,20251021-134336,global,global,750,S,H,E,A,S-E.png,H-A.png,sS,hH,mask-3.png,mask-4.png,s,1,0.5741834999062121,h,1,1.8627057999838144,0.04734129994176328,0.04748230008408427,0.100370500003919,0.10050530009903014,0.7507076999172568
RSVPLG03,sg,20251021-133213,1.0.1,20251020-085245,707,Experiment,Both,1,Automatic,main,122,20251021-134343,global,local,750,H,H,A,E,H-A.png,E-H.png,hH,hH,mask-1.png,mask-3.png,h,1,0.875716800102964,h,1,0.11241599987260997,0.04750099987722933,0.04767230013385415,0.09851879999041557,0.09987320005893707,0.7500195999164134
RSVPLG03,sg,20251021-133213,1.0.1,20251020-085245,707,Experiment,Both,1,Automatic,main,123,20251021-134348,local,global,300,H,S,E,E,E-H.png,S-E.png,hH,sS,mask-1.png,mask-4.png,h,1,2.6491184001788497,s,1,0.5510354998987168,0.048818200128152966,0.0467737999279052,0.10017410013824701,0.10003329999744892,0.30163960019126534
RSVPLG03,sg,20251021-133213,1.0.1,20251020-085245,707,Experiment,Both,1,Automatic,main,124,20251021-134355,local,global,300,S,H,A,A,A-S.png,H-A.png,sS,hH,mask-3.png,mask-2.png,s,1,0.5369625999592245,h,1,0.25316730001941323,0.045644099824130535,0.04753040010109544,0.09800200001336634,0.10050579998642206,0.2998257998842746
RSVPLG03,sg,20251021-133213,1.0.1,20251020-085245,707,Experiment,Both,1,Automatic,main,125,20251021-134400,local,global,300,H,S,A,A,A-H.png,S-A.png,hH,sS,mask-4.png,mask-3.png,h,1,0.8291324998717755,h,0,0.08214320009574294,0.04652990004979074,0.04660229990258813,0.09877359983511269,0.1002859000582248,0.2994278999976814
RSVPLG03,sg,20251021-134515,1.0.1,20251020-085245,707,Experiment,Both,1,Automatic,warmup,1,20251021-134535,global,local,750,H,S,A,A,H-A.png,A-S.png,hH,sS,mask-2.png,mask-1.png,h,1,0.5467081000097096,h,0,0.2600249000824988,0.04114419990219176,0.04733540001325309,0.09392050001770258,0.10007850010879338,0.7435421999543905
RSVPLG03,sg,20251021-134515,1.0.1,20251020-085245,707,Experiment,Both,1,Automatic,warmup,2,20251021-134540,global,global,750,H,S,A,A,H-A.png,S-A.png,hH,sS,mask-3.png,mask-1.png,h,1,0.5057735000737011,s,1,0.05841369996778667,0.04868980008177459,0.04661879991181195,0.10191269987262785,0.09979230002500117,0.7503895000554621
RSVPLG03,sg,20251021-134515,1.0.1,20251020-085245,707,Experiment,Both,1,Automatic,warmup,3,20251021-134544,local,global,750,S,H,E,E,E-S.png,H-E.png,sS,hH,mask-2.png,mask-3.png,s,1,0.670030599925667,h,1,0.29573879996314645,0.046690399991348386,0.04762149997986853,0.09789330000057817,0.10085520008578897,0.7477996000088751
RSVPLG03,sg,20251021-134515,1.0.1,20251020-085245,707,Experiment,Both,1,Automatic,warmup,4,20251021-134549,global,local,300,H,H,E,A,H-E.png,A-H.png,hH,hH,mask-2.png,mask-4.png,h,1,0.4677696998696774,h,1,0.10220009996555746,0.04749569995328784,0.046746900072321296,0.09894020017236471,0.09898020001128316,0.2996696000918746
RSVPLG03,sg,20251021-134515,1.0.1,20251020-085245,707,Experiment,Both,1,Automatic,warmup,5,20251021-134554,local,global,300,H,H,E,E,E-H.png,H-E.png,hH,hH,mask-1.png,mask-2.png,h,1,0.46305690007284284,h,1,0.09592640004120767,0.04775959998369217,0.04873350006528199,0.10007150005549192,0.09998519998043776,0.2998877998907119
RSVPLG03,sg,20251021-134515,1.0.1,20251020-085245,707,Experiment,Both,1,Automatic,main,6,20251021-134558,global,local,750,S,H,E,E,S-E.png,E-H.png,sS,hH,mask-2.png,mask-3.png,s,1,0.4493922998663038,h,1,0.038069200003519654,0.04761529993265867,0.046431600116193295,0.09981179982423782,0.10046530002728105,0.7504133998882025
RSVPLG03,sg,20251021-134515,1.0.1,20251020-085245,707,Experiment,Both,1,Automatic,main,7,20251021-134602,global,local,300,S,S,A,A,S-A.png,A-S.png,sS,sS,mask-3.png,mask-4.png,s,1,0.3286677000578493,s,1,0.06877489993348718,0.0475104998331517,0.04851120011880994,0.10096219996921718,0.10148090007714927,0.29984009987674654
RSVPLG03,sg,20251021-134515,1.0.1,20251020-085245,707,Experiment,Both,1,Automatic,main,8,20251021-134606,local,local,300,H,H,E,E,E-H.png,E-H.png,hH,hH,mask-1.png,mask-2.png,h,1,0.9455059999600053,h,1,1.0267026000656188,0.04718200000934303,0.047518600011244416,0.09819300007075071,0.09954820014536381,0.29847080004401505
RSVPLG03,sg,20251021-134515,1.0.1,20251020-085245,707,Experiment,Both,1,Automatic,main,9,20251021-134613,local,local,750,H,S,A,A,A-H.png,A-S.png,hH,sS,mask-1.png,mask-1.png,h,1,0.5397912000771612,h,0,0.08662379998713732,0.045696199871599674,0.047557299956679344,0.09989859978668392,0.09836639999412,0.7492577999364585
RSVPLG03,sg,20251021-134515,1.0.1,20251020-085245,707,Experiment,Both,1,Automatic,main,10,20251021-134617,global,local,300,S,H,A,A,S-A.png,A-H.png,sS,hH,mask-4.png,mask-2.png,h,0,0.4739984998013824,s,0,0.02470439998432994,0.04769989987835288,0.04766360018402338,0.09987089992500842,0.09900080016814172,0.30048509989865124
RSVPLG03,sg,20251021-134515,1.0.1,20251020-085245,707,Experiment,Both,1,Automatic,main,11,20251021-134621,local,global,300,S,H,A,A,A-S.png,H-A.png,sS,hH,mask-2.png,mask-4.png,h,0,0.7582799000665545,h,1,0.5212664999999106,0.047528300201520324,0.04650920000858605,0.09960780013352633,0.09861700003966689,0.3011960000731051
RSVPLG03,sg,20251021-134515,1.0.1,20251020-085245,707,Experiment,Both,1,Automatic,main,12,20251021-134626,global,global,750,S,S,E,E,S-E.png,S-E.png,sS,sS,mask-3.png,mask-4.png,s,1,0.37621039990335703,s,1,0.08052520011551678,0.0476543998811394,0.047502399887889624,0.09986229985952377,0.10068869986571372,0.7499241000041366
RSVPLG03,sg,20251021-134515,1.0.1,20251020-085245,707,Experiment,Both,1,Automatic,main,13,20251021-134631,global,global,300,S,S,A,A,S-A.png,S-A.png,sS,sS,mask-1.png,mask-1.png,s,1,0.5497129999566823,s,1,0.07265440002083778,0.04765610001049936,0.04765620012767613,0.09879439999349415,0.0998027001041919,0.2999873999506235
RSVPLG03,sg,20251021-134515,1.0.1,20251020-085245,707,Experiment,Both,1,Automatic,main,14,20251021-134635,local,local,300,S,H,E,A,E-S.png,A-H.png,sS,hH,mask-3.png,mask-3.png,s,1,0.35110119986347854,h,1,0.3717427998781204,0.04845590004697442,0.04590180004015565,0.10215550009161234,0.09969980013556778,0.30190149997361004
RSVPLG03,sg,20251021-134515,1.0.1,20251020-085245,707,Experiment,Both,1,Automatic,main,15,20251021-134640,global,global,750,H,S,E,E,H-E.png,S-E.png,hH,sS,mask-2.png,mask-4.png,s,0,0.9815539999399334,h,0,0.6426224000751972,0.04753119987435639,0.04677519993856549,0.10054540005512536,0.09905389999039471,0.7498792000114918
RSVPLG03,sg,20251021-134515,1.0.1,20251020-085245,707,Experiment,Both,1,Automatic,main,16,20251021-134646,local,global,300,S,S,E,E,E-S.png,S-E.png,sS,sS,mask-2.png,mask-4.png,s,1,0.5974283998366445,s,1,0.06675210013054311,0.048545199912041426,0.04662319994531572,0.09960739989764988,0.09965160000137985,0.3010360000189394
RSVPLG03,sg,20251021-134515,1.0.1,20251020-085245,707,Experiment,Both,1,Automatic,main,17,20251021-134651,local,global,750,S,S,E,A,E-S.png,S-A.png,sS,sS,mask-3.png,mask-4.png,s,1,0.5169608001597226,s,1,0.7050065998919308,0.046859299996867776,0.047707000048831105,0.09849149989895523,0.09892260003834963,0.7499310998246074
RSVPLG03,sg,20251021-134515,1.0.1,20251020-085245,707,Experiment,Both,1,Automatic,main,18,20251021-134656,global,local,300,H,S,A,E,H-A.png,E-S.png,hH,sS,mask-3.png,mask-2.png,s,0,0.47005539992824197,s,1,0.37418479984626174,0.0472059000749141,0.046301200054585934,0.09941520006395876,0.09855969995260239,0.30122880009002984
RSVPLG03,sg,20251021-134515,1.0.1,20251020-085245,707,Experiment,Both,1,Automatic,main,19,20251021-134700,local,global,750,H,H,E,A,E-H.png,H-A.png,hH,hH,mask-1.png,mask-1.png,h,1,1.31944980006665,h,1,0.5262134000658989,0.047591400099918246,0.04749999986961484,0.10079349996522069,0.09972409997135401,0.7496872001793236
RSVPLG03,sg,20251021-134515,1.0.1,20251020-085245,707,Experiment,Both,1,Automatic,main,20,20251021-134706,local,global,300,H,S,A,A,A-H.png,S-A.png,hH,sS,mask-2.png,mask-4.png,h,1,1.033896799897775,s,1,0.43146159988828003,0.047513200202956796,0.047510100062936544,0.10052130022086203,0.09952010004781187,0.3008541001472622
RSVPLG03,sg,20251021-134515,1.0.1,20251020-085245,707,Experiment,Both,1,Automatic,main,21,20251021-134711,global,global,750,H,S,A,A,H-A.png,S-A.png,hH,sS,mask-4.png,mask-3.png,h,1,0.7381582001689821,s,1,0.47493439982645214,0.046530700055882335,0.04753169999457896,0.10054920008406043,0.10137860011309385,0.7486401998903602
RSVPLG03,sg,20251021-134515,1.0.1,20251020-085245,707,Experiment,Both,1,Automatic,main,22,20251021-134717,global,global,300,H,S,A,A,H-A.png,S-A.png,hH,sS,mask-2.png,mask-2.png,h,1,0.42270140000618994,s,1,0.01790240011177957,0.04643400013446808,0.04658470000140369,0.09855900006368756,0.10071930009871721,0.2993991000112146
RSVPLG03,sg,20251021-134515,1.0.1,20251020-085245,707,Experiment,Both,1,Automatic,main,23,20251021-134721,global,local,300,H,S,A,A,H-A.png,A-S.png,hH,sS,mask-3.png,mask-3.png,h,1,1.0302947999443859,h,0,0.2670497000217438,0.04868809995241463,0.04759069997817278,0.09989209985360503,0.10079029994085431,0.29953720001503825
RSVPLG03,sg,20251021-134515,1.0.1,20251020-085245,707,Experiment,Both,1,Automatic,main,24,20251021-134726,local,global,750,S,H,E,A,E-S.png,H-A.png,sS,hH,mask-4.png,mask-2.png,s,1,0.8942082000430673,s,0,0.09035760001279414,0.045709599973633885,0.047308299923315644,0.09977210010401905,0.09963269997388124,0.74814090016298
RSVPLG03,sg,20251021-134515,1.0.1,20251020-085245,707,Experiment,Both,1,Automatic,main,25,20251021-134731,local,local,750,S,H,E,A,E-S.png,A-H.png,sS,hH,mask-1.png,mask-3.png,s,1,0.9110111000481993,h,1,0.02883929992094636,0.04749320005066693,0.04653599997982383,0.09957570000551641,0.09963810001499951,0.7502031999174505
RSVPLG03,sg,20251021-134515,1.0.1,20251020-085245,707,Experiment,Both,1,Automatic,main,26,20251021-134745,global,global,750,H,S,A,E,H-A.png,S-E.png,hH,sS,mask-1.png,mask-4.png,s,0,0.6224043997935951,h,0,1.1378023999277502,0.047660400159657,0.047140999929979444,0.10084099997766316,0.10038309986703098,0.7494183001108468
RSVPLG03,sg,20251021-134515,1.0.1,20251020-085245,707,Experiment,Both,1,Automatic,main,27,20251021-134751,global,global,300,H,S,E,A,H-E.png,S-A.png,hH,sS,mask-3.png,mask-3.png,h,1,0.57427420001477,s,1,0.12357049994170666,0.045711300102993846,0.04870719998143613,0.0999470001552254,0.10093019995838404,0.2986280000768602
RSVPLG03,sg,20251021-134515,1.0.1,20251020-085245,707,Experiment,Both,1,Automatic,main,28,20251021-134756,local,local,300,S,H,A,A,A-S.png,A-H.png,sS,hH,mask-3.png,mask-4.png,h,0,1.15288219996728,s,0,0.5302353000734001,0.04773320001550019,0.047548900125548244,0.09910509991459548,0.0985066001303494,0.30077679990790784
RSVPLG03,sg,20251021-134515,1.0.1,20251020-085245,707,Experiment,Both,1,Automatic,main,29,20251021-134801,local,local,300,S,S,A,E,A-S.png,E-S.png,sS,sS,mask-4.png,mask-2.png,s,1,0.48505140002816916,s,1,0.25301950005814433,0.04746409994550049,0.04770010011270642,0.09928759979084134,0.1003674000967294,0.29989749984815717
RSVPLG03,sg,20251021-134515,1.0.1,20251020-085245,707,Experiment,Both,1,Automatic,main,30,20251021-134806,global,global,750,S,H,A,A,S-A.png,H-A.png,sS,hH,mask-1.png,mask-1.png,s,1,0.5297949998639524,s,0,0.2201886000111699,0.046717500081285834,0.046422600047662854,0.09970459993928671,0.09857850009575486,0.7502278999891132
RSVPLG03,sg,20251021-134515,1.0.1,20251020-085245,707,Experiment,Both,1,Automatic,main,31,20251021-134811,local,local,300,S,H,A,E,A-S.png,E-H.png,sS,hH,mask-4.png,mask-1.png,s,1,0.30670559988357127,h,1,0.02825989993289113,0.047502300003543496,0.047479100059717894,0.10150390001945198,0.10054380004294217,0.2995712000411004
RSVPLG03,sg,20251021-134515,1.0.1,20251020-085245,707,Experiment,Both,1,Automatic,main,32,20251021-134815,global,local,300,H,H,E,E,H-E.png,E-H.png,hH,hH,mask-4.png,mask-1.png,s,0,3.7763982000760734,h,1,0.013690799940377474,0.049354600021615624,0.04769850010052323,0.10108510009013116,0.09883390017785132,0.3005764000117779
RSVPLG03,sg,20251021-134515,1.0.1,20251020-085245,707,Experiment,Both,1,Automatic,main,33,20251021-134823,global,global,300,H,H,E,A,H-E.png,H-A.png,hH,hH,mask-2.png,mask-4.png,h,1,0.3089552999008447,h,1,0.060385100077837706,0.047510200180113316,0.04732519993558526,0.09986950014717877,0.09806140000000596,0.301500900182873
RSVPLG03,sg,20251021-134515,1.0.1,20251020-085245,707,Experiment,Both,1,Automatic,main,34,20251021-134827,global,local,750,H,H,A,E,H-A.png,E-H.png,hH,hH,mask-3.png,mask-4.png,h,1,0.982809699838981,h,1,0.0925856998655945,0.04652850003913045,0.047501200111582875,0.09851899999193847,0.09880150016397238,0.7485147998668253
RSVPLG03,sg,20251021-134515,1.0.1,20251020-085245,707,Experiment,Both,1,Automatic,main,35,20251021-134832,global,local,750,H,S,E,A,H-E.png,A-S.png,hH,sS,mask-2.png,mask-1.png,h,1,0.829652399988845,h,0,0.0697045000270009,0.047587200067937374,0.04753059986978769,0.09956540004350245,0.09983589989133179,0.7498163999989629
RSVPLG03,sg,20251021-134515,1.0.1,20251020-085245,707,Experiment,Both,1,Automatic,main,36,20251021-134837,global,local,300,H,S,E,E,H-E.png,E-S.png,hH,sS,mask-1.png,mask-4.png,h,1,1.1224216998089105,s,1,0.5347198001109064,0.04849590011872351,0.04755020001903176,0.1016865000128746,0.0999171999283135,0.30002870014868677
RSVPLG03,sg,20251021-134515,1.0.1,20251020-085245,707,Experiment,Both,1,Automatic,main,37,20251021-134842,global,global,300,H,H,E,E,H-E.png,H-E.png,hH,hH,mask-1.png,mask-1.png,h,1,0.8253849998582155,h,1,0.11053330008871853,0.04671140015125275,0.04659670009277761,0.09985870006494224,0.09882850013673306,0.2996272000018507
RSVPLG03,sg,20251021-134515,1.0.1,20251020-085245,707,Experiment,Both,1,Automatic,main,38,20251021-134847,local,global,750,H,S,E,A,E-H.png,S-A.png,hH,sS,mask-2.png,mask-1.png,h,1,0.702524600084871,s,1,0.8421891001053154,0.047806099988520145,0.04714829986914992,0.10008689993992448,0.10003479989245534,0.7498592999763787
RSVPLG03,sg,20251021-134515,1.0.1,20251020-085245,707,Experiment,Both,1,Automatic,main,39,20251021-134852,local,local,750,S,S,E,E,E-S.png,E-S.png,sS,sS,mask-1.png,mask-3.png,s,1,0.6400057000573725,s,1,0.07695939997211099,0.048521300079301,0.047326100058853626,0.10069099999964237,0.09941800008527935,0.7496352999005467
RSVPLG03,sg,20251021-134515,1.0.1,20251020-085245,707,Experiment,Both,1,Automatic,main,40,20251021-134857,global,global,300,H,H,E,A,H-E.png,H-A.png,hH,hH,mask-3.png,mask-1.png,h,1,1.20373890013434,h,1,0.07139230007305741,0.047510100062936544,0.047508399933576584,0.09951779991388321,0.10053019993938506,0.2998015000484884
RSVPLG03,sg,20251021-134515,1.0.1,20251020-085245,707,Experiment,Both,1,Automatic,main,41,20251021-134902,global,global,300,H,S,A,A,H-A.png,S-A.png,hH,sS,mask-3.png,mask-4.png,s,0,0.6812032000161707,s,1,0.8205351999495178,0.04661710001528263,0.04750310000963509,0.09871169994585216,0.09969979990273714,0.29797499999403954
RSVPLG03,sg,20251021-134515,1.0.1,20251020-085245,707,Experiment,Both,1,Automatic,main,42,20251021-134907,local,local,300,S,S,E,E,E-S.png,E-S.png,sS,sS,mask-4.png,mask-2.png,s,1,0.5116983000189066,s,1,0.10644919984042645,0.04849159996956587,0.04719039984047413,0.09950400004163384,0.09906999999657273,0.30085240001790226
RSVPLG03,sg,20251021-134515,1.0.1,20251020-085245,707,Experiment,Both,1,Automatic,main,43,20251021-134912,local,local,750,H,H,A,E,A-H.png,E-H.png,hH,hH,mask-2.png,mask-1.png,h,1,0.948264200007543,h,1,0.10638890019617975,0.04842279991135001,0.04749340005218983,0.10145519999787211,0.10151629988104105,0.7496130999643356
RSVPLG03,sg,20251021-134515,1.0.1,20251020-085245,707,Experiment,Both,1,Automatic,main,44,20251021-134917,global,local,750,S,H,A,A,S-A.png,A-H.png,sS,hH,mask-1.png,mask-2.png,s,1,0.6842663998249918,h,1,0.37747339997440577,0.04864069982431829,0.045550899812951684,0.10067739989608526,0.09955909987911582,0.7508286000229418
RSVPLG03,sg,20251021-134515,1.0.1,20251020-085245,707,Experiment,Both,1,Automatic,main,45,20251021-134922,global,global,300,H,H,E,E,H-E.png,H-E.png,hH,hH,mask-3.png,mask-1.png,h,1,0.7566883999388665,h,1,0.07510689995251596,0.04851630004122853,0.047523400047793984,0.10154130007140338,0.10098499990999699,0.30003580008633435
RSVPLG03,sg,20251021-134515,1.0.1,20251020-085245,707,Experiment,Both,1,Automatic,main,46,20251021-134926,local,local,300,H,S,A,E,A-H.png,E-S.png,hH,sS,mask-3.png,mask-4.png,h,1,3.064918699907139,s,1,2.109260099940002,0.047688999911770225,0.04860999993979931,0.10000470001250505,0.09936549980193377,0.2996948000509292
RSVPLG03,sg,20251021-134515,1.0.1,20251020-085245,707,Experiment,Both,1,Automatic,main,47,20251021-134935,global,global,300,H,H,E,A,H-E.png,H-A.png,hH,hH,mask-4.png,mask-1.png,h,1,0.8340326999314129,h,1,0.06914109992794693,0.04645620007067919,0.048372199991717935,0.10064240009523928,0.10079420008696616,0.29953640000894666
RSVPLG03,sg,20251021-134515,1.0.1,20251020-085245,707,Experiment,Both,1,Automatic,main,48,20251021-134940,global,global,750,H,S,A,E,H-A.png,S-E.png,hH,sS,mask-4.png,mask-4.png,h,1,1.0542270001024008,s,1,0.3824315001256764,0.04654900007881224,0.04881500010378659,0.10010590008459985,0.09994080010801554,0.7484951999504119
RSVPLG03,sg,20251021-134515,1.0.1,20251020-085245,707,Experiment,Both,1,Automatic,main,49,20251021-134945,global,local,300,S,S,A,A,S-A.png,A-S.png,sS,sS,mask-1.png,mask-4.png,s,1,0.7992897999938577,s,1,0.09300630004145205,0.04723939998075366,0.047677900176495314,0.1005235998891294,0.09969130018725991,0.30013709980994463
RSVPLG03,sg,20251021-134515,1.0.1,20251020-085245,707,Experiment,Both,1,Automatic,main,50,20251021-134950,global,global,750,S,S,E,E,S-E.png,S-E.png,sS,sS,mask-4.png,mask-3.png,s,1,0.3374590000603348,s,1,0.10775520000606775,0.04969940008595586,0.04683439992368221,0.10071240016259253,0.09995809989050031,0.7500164001248777
RSVPLG03,sg,20251021-134515,1.0.1,20251020-085245,707,Experiment,Both,1,Automatic,main,51,20251021-135022,local,global,750,S,S,A,A,A-S.png,S-A.png,sS,sS,mask-2.png,mask-2.png,s,1,0.381689399946481,s,1,0.06898080022074282,0.04766739998012781,0.04659639997407794,0.10101859993301332,0.1006626000162214,0.7509663999080658
RSVPLG03,sg,20251021-134515,1.0.1,20251020-085245,707,Experiment,Both,1,Automatic,main,52,20251021-135026,local,global,750,S,S,A,A,A-S.png,S-A.png,sS,sS,mask-2.png,mask-2.png,s,1,0.40405369992367923,s,1,0.09150990005582571,0.047662500059232116,0.04659439995884895,0.09983620001003146,0.09977059997618198,0.749814199982211
RSVPLG03,sg,20251021-134515,1.0.1,20251020-085245,707,Experiment,Both,1,Automatic,main,53,20251021-135031,global,local,750,H,H,A,E,H-A.png,E-H.png,hH,hH,mask-3.png,mask-1.png,h,1,0.40112609998323023,h,1,0.06787599995732307,0.04568079998716712,0.047531799878925085,0.09878959995694458,0.09916989994235337,0.7486471999436617
RSVPLG03,sg,20251021-134515,1.0.1,20251020-085245,707,Experiment,Both,1,Automatic,main,54,20251021-135035,global,local,300,S,H,A,A,S-A.png,A-H.png,sS,hH,mask-4.png,mask-4.png,s,1,0.8606906000059098,h,1,0.02230280009098351,0.0473342000041157,0.046797099988907576,0.0989882000721991,0.09957919991575181,0.29897630005143583
RSVPLG03,sg,20251021-134515,1.0.1,20251020-085245,707,Experiment,Both,1,Automatic,main,55,20251021-135040,local,global,750,S,H,A,E,A-S.png,H-E.png,sS,hH,mask-1.png,mask-2.png,s,1,0.3882489998359233,h,1,2.1106084000784904,0.047537999926134944,0.048668199917301536,0.10078660002909601,0.10079399985261261,0.7487323000095785
RSVPLG03,sg,20251021-134515,1.0.1,20251020-085245,707,Experiment,Both,1,Automatic,main,56,20251021-135047,local,local,750,S,S,E,E,E-S.png,E-S.png,sS,sS,mask-1.png,mask-3.png,s,1,0.3320624998304993,s,1,0.10133159998804331,0.046523400116711855,0.047653499990701675,0.09997750003822148,0.09965920005925,0.748080600053072
RSVPLG03,sg,20251021-134515,1.0.1,20251020-085245,707,Experiment,Both,1,Automatic,main,57,20251021-135051,global,global,300,S,H,A,A,S-A.png,H-A.png,sS,hH,mask-2.png,mask-4.png,s,1,0.4369582999497652,h,1,0.6289429001044482,0.047512599965557456,0.04757650010287762,0.10049930005334318,0.0995587999932468,0.30071069998666644
RSVPLG03,sg,20251021-134515,1.0.1,20251020-085245,707,Experiment,Both,1,Automatic,main,58,20251021-135056,local,local,750,H,H,A,E,A-H.png,E-H.png,hH,hH,mask-1.png,mask-4.png,h,1,0.8168450999073684,h,1,0.08080139989033341,0.04697689996100962,0.0488091001752764,0.0997913999017328,0.09983720001764596,0.7491325999144465
RSVPLG03,sg,20251021-134515,1.0.1,20251020-085245,707,Experiment,Both,1,Automatic,main,59,20251021-135101,local,local,300,S,H,A,A,A-S.png,A-H.png,sS,hH,mask-1.png,mask-1.png,s,1,0.33946810010820627,h,1,0.02596090012229979,0.04767230013385415,0.04714279994368553,0.10186200006864965,0.0999013998080045,0.30047060013748705
RSVPLG03,sg,20251021-134515,1.0.1,20251020-085245,707,Experiment,Both,1,Automatic,main,60,20251021-135105,local,local,750,S,S,A,A,A-S.png,A-S.png,sS,sS,mask-1.png,mask-4.png,s,1,1.1403675000183284,s,1,0.09799390006810427,0.04868209990672767,0.0476029000710696,0.09917409997433424,0.09979790006764233,0.7496712999418378
RSVPLG03,sg,20251021-134515,1.0.1,20251020-085245,707,Experiment,Both,1,Automatic,main,61,20251021-135110,global,global,750,H,S,E,A,H-E.png,S-A.png,hH,sS,mask-3.png,mask-4.png,h,1,0.48707230016589165,s,1,0.08151140017434955,0.04738470003940165,0.047533500008285046,0.1004048001486808,0.09920789999887347,0.7500716000795364
RSVPLG03,sg,20251021-134515,1.0.1,20251020-085245,707,Experiment,Both,1,Automatic,main,62,20251021-135115,global,global,750,S,S,A,A,S-A.png,S-A.png,sS,sS,mask-3.png,mask-4.png,s,1,0.32222669990733266,s,1,0.056176899932324886,0.04669049987569451,0.047702400013804436,0.09978189994581044,0.09989989991299808,0.7500519999302924
RSVPLG03,sg,20251021-134515,1.0.1,20251020-085245,707,Experiment,Both,1,Automatic,main,63,20251021-135120,global,global,300,S,S,E,E,S-E.png,S-E.png,sS,sS,mask-4.png,mask-1.png,s,1,0.31148519995622337,s,1,0.05236169998534024,0.0459051001816988,0.047450599959120154,0.09847610001452267,0.10017640003934503,0.2980613000690937
RSVPLG03,sg,20251021-134515,1.0.1,20251020-085245,707,Experiment,Both,1,Automatic,main,64,20251021-135124,local,global,300,S,H,E,E,E-S.png,H-E.png,sS,hH,mask-3.png,mask-3.png,s,1,0.15757879987359047,s,0,0.13449919992126524,0.04569709999486804,0.04629170009866357,0.10013439995236695,0.09952110005542636,0.29985859990119934
RSVPLG03,sg,20251021-134515,1.0.1,20251020-085245,707,Experiment,Both,1,Automatic,main,65,20251021-135128,local,local,300,H,H,A,A,A-H.png,A-H.png,hH,hH,mask-2.png,mask-3.png,h,1,0.8184140999801457,h,1,0.06240779999643564,0.04660700005479157,0.047505700029432774,0.09959950018674135,0.10151629988104105,0.2988500001374632
RSVPLG03,sg,20251021-134515,1.0.1,20251020-085245,707,Experiment,Both,1,Automatic,main,66,20251021-135132,local,local,300,S,S,E,A,E-S.png,A-S.png,sS,sS,mask-2.png,mask-2.png,s,1,0.7829183998983353,s,1,0.12355430005118251,0.04667229996994138,0.04716809978708625,0.09971159999258816,0.09921109979040921,0.29900700016878545
RSVPLG03,sg,20251021-134515,1.0.1,20251020-085245,707,Experiment,Both,1,Automatic,main,67,20251021-135137,local,local,750,H,S,E,E,E-H.png,E-S.png,hH,sS,mask-3.png,mask-4.png,s,0,1.3792516000103205,s,1,0.07321580010466278,0.04854029999114573,0.047757500084117055,0.10109289991669357,0.09905580012127757,0.7499843998812139
RSVPLG03,sg,20251021-134515,1.0.1,20251020-085245,707,Experiment,Both,1,Automatic,main,68,20251021-135142,global,local,300,H,S,E,A,H-E.png,A-S.png,hH,sS,mask-3.png,mask-2.png,h,1,0.9412728999741375,s,1,1.0936956000514328,0.04751250008121133,0.045518800150603056,0.10151499998755753,0.09852480003610253,0.30173099995590746
RSVPLG03,sg,20251021-134515,1.0.1,20251020-085245,707,Experiment,Both,1,Automatic,main,69,20251021-135148,global,local,750,S,H,A,A,S-A.png,A-H.png,sS,hH,mask-3.png,mask-3.png,h,0,3.3967776000499725,h,1,0.33152369991876185,0.04751159995794296,0.04753979993984103,0.10140140005387366,0.09871100005693734,0.7501064001116902
RSVPLG03,sg,20251021-134515,1.0.1,20251020-085245,707,Experiment,Both,1,Automatic,main,70,20251021-135156,global,local,300,H,H,E,A,H-E.png,A-H.png,hH,hH,mask-2.png,mask-3.png,h,1,0.6407836000435054,h,1,0.3578768998850137,0.04571919981390238,0.046616399893537164,0.09991059987805784,0.0998104999307543,0.29972869995981455
RSVPLG03,sg,20251021-134515,1.0.1,20251020-085245,707,Experiment,Both,1,Automatic,main,71,20251021-135200,local,local,300,H,S,E,A,E-H.png,A-S.png,hH,sS,mask-1.png,mask-4.png,h,1,0.4098957001697272,s,1,0.9992148000746965,0.046688799979165196,0.04863490001298487,0.09989650011993945,0.10010070004500449,0.29859449993819
RSVPLG03,sg,20251021-134515,1.0.1,20251020-085245,707,Experiment,Both,1,Automatic,main,72,20251021-135205,global,local,300,S,H,E,E,S-E.png,E-H.png,sS,hH,mask-1.png,mask-2.png,s,1,2.443650099914521,h,1,2.6038129997905344,0.04771340009756386,0.04670930001884699,0.10175840021111071,0.09994829981587827,0.3005859002005309
RSVPLG03,sg,20251021-134515,1.0.1,20251020-085245,707,Experiment,Both,1,Automatic,main,73,20251021-135212,local,local,300,H,H,A,E,A-H.png,E-H.png,hH,hH,mask-1.png,mask-4.png,h,1,0.4969683999661356,s,0,0.3805815000087023,0.04801480006426573,0.046697899932041764,0.10028779995627701,0.09989660000428557,0.30108530004508793
RSVPLG03,sg,20251021-134515,1.0.1,20251020-085245,707,Experiment,Both,1,Automatic,main,74,20251021-135216,global,global,750,S,H,E,E,S-E.png,H-E.png,sS,hH,mask-1.png,mask-4.png,h,0,0.6866482000332326,h,1,0.17042670003138483,0.04846050008200109,0.04668670007959008,0.09932960011065006,0.09990340005606413,0.7501203999854624
RSVPLG03,sg,20251021-134515,1.0.1,20251020-085245,707,Experiment,Both,1,Automatic,main,75,20251021-135221,global,global,750,H,S,A,A,H-A.png,S-A.png,hH,sS,mask-3.png,mask-4.png,h,1,0.29786640009842813,s,1,0.42812340008094907,0.04652799991890788,0.04742340021766722,0.09902069997042418,0.10034640016965568,0.7499936998356134
RSVPLG03,sg,20251021-134515,1.0.1,20251020-085245,707,Experiment,Both,1,Automatic,main,76,20251021-135230,local,global,300,S,H,A,E,A-S.png,H-E.png,sS,hH,mask-2.png,mask-3.png,h,0,0.5789181001018733,h,1,0.16618080018088222,0.04771240008994937,0.046762100188061595,0.09991840017028153,0.10087520000524819,0.3005262999795377
RSVPLG03,sg,20251021-134515,1.0.1,20251020-085245,707,Experiment,Both,1,Automatic,main,77,20251021-135235,global,local,750,S,H,E,A,S-E.png,A-H.png,sS,hH,mask-2.png,mask-1.png,s,1,0.32550449995324016,h,1,0.05665899999439716,0.04586909990757704,0.047586699947714806,0.09838779992423952,0.09969449997879565,0.7489328000228852
RSVPLG03,sg,20251021-134515,1.0.1,20251020-085245,707,Experiment,Both,1,Automatic,main,78,20251021-135240,local,global,750,S,S,A,A,A-S.png,S-A.png,sS,sS,mask-4.png,mask-4.png,s,1,0.7349334999453276,s,1,0.17101319995708764,0.04729699995368719,0.046001399867236614,0.09834200004115701,0.09817779995501041,0.7496639001183212
RSVPLG03,sg,20251021-134515,1.0.1,20251020-085245,707,Experiment,Both,1,Automatic,main,79,20251021-135245,local,global,750,H,H,A,E,A-H.png,H-E.png,hH,hH,mask-4.png,mask-4.png,h,1,0.31988979992456734,h,1,0.15361039992421865,0.047696299850940704,0.04666289989836514,0.09985959995537996,0.09984289994463325,0.7500400999560952
RSVPLG03,sg,20251021-134515,1.0.1,20251020-085245,707,Experiment,Both,1,Automatic,main,80,20251021-135250,global,local,750,H,H,E,E,H-E.png,E-H.png,hH,hH,mask-2.png,mask-3.png,s,0,1.7959737000055611,s,0,0.8113262001425028,0.04549949988722801,0.0466263999696821,0.09809540002606809,0.10065609985031188,0.748535200022161
RSVPLG03,sg,20251021-134515,1.0.1,20251020-085245,707,Experiment,Both,1,Automatic,main,81,20251021-135257,local,global,750,H,S,A,A,A-H.png,S-A.png,hH,sS,mask-4.png,mask-4.png,h,1,0.30113699985668063,s,1,0.9086184999905527,0.046693600015714765,0.04761369992047548,0.09967119991779327,0.10064630000852048,0.7483673000242561
RSVPLG03,sg,20251021-134515,1.0.1,20251020-085245,707,Experiment,Both,1,Automatic,main,82,20251021-135302,local,global,750,S,H,E,A,E-S.png,H-A.png,sS,hH,mask-2.png,mask-1.png,h,0,0.41785779991187155,s,0,0.14102190011180937,0.048123600194230676,0.04850960010662675,0.10016300017014146,0.10153759992681444,0.7485142000950873
RSVPLG03,sg,20251021-134515,1.0.1,20251020-085245,707,Experiment,Both,1,Automatic,main,83,20251021-135307,local,global,300,H,S,A,A,A-H.png,S-A.png,hH,sS,mask-2.png,mask-2.png,s,0,0.8378600999712944,s,1,0.28389819990843534,0.04572140006348491,0.046644699992612004,0.09998400020413101,0.09901020000688732,0.2996206001844257
RSVPLG03,sg,20251021-134515,1.0.1,20251020-085245,707,Experiment,Both,1,Automatic,main,84,20251021-135312,local,local,300,S,H,A,E,A-S.png,E-H.png,sS,hH,mask-1.png,mask-2.png,h,0,0.3838935000821948,h,1,0.11996400007046759,0.047371899941936135,0.04772070003673434,0.09936570003628731,0.10066589992493391,0.2990860999561846
RSVPLG03,sg,20251021-134515,1.0.1,20251020-085245,707,Experiment,Both,1,Automatic,main,85,20251021-135317,global,global,750,S,H,A,A,S-A.png,H-A.png,sS,hH,mask-1.png,mask-4.png,s,1,0.47426960011944175,h,1,0.730507800122723,0.047633999958634377,0.04674179991707206,0.10091760009527206,0.09978009993210435,0.7505616000853479
RSVPLG03,sg,20251021-134515,1.0.1,20251020-085245,707,Experiment,Both,1,Automatic,main,86,20251021-135321,local,global,750,S,H,A,E,A-S.png,H-E.png,sS,hH,mask-2.png,mask-4.png,s,1,0.6077416001353413,h,1,0.8321605999954045,0.047502300003543496,0.048053700011223555,0.10155889997258782,0.10022050002589822,0.7500996000599116
RSVPLG03,sg,20251021-134515,1.0.1,20251020-085245,707,Experiment,Both,1,Automatic,main,87,20251021-135326,local,local,750,H,H,A,A,A-H.png,A-H.png,hH,hH,mask-2.png,mask-4.png,h,1,1.1549611000809819,h,1,2.1514548000413924,0.04658460011705756,0.047598599921911955,0.0997880999930203,0.09960489999502897,0.7491151001304388
RSVPLG03,sg,20251021-134515,1.0.1,20251020-085245,707,Experiment,Both,1,Automatic,main,88,20251021-135334,global,local,750,S,S,E,A,S-E.png,A-S.png,sS,sS,mask-2.png,mask-3.png,h,0,0.8081240998581052,s,1,0.46539240004494786,0.04729139991104603,0.04759850003756583,0.09960590000264347,0.10064550000242889,0.7496563999447972
RSVPLG03,sg,20251021-134515,1.0.1,20251020-085245,707,Experiment,Both,1,Automatic,main,89,20251021-135339,global,local,750,S,S,E,E,S-E.png,E-S.png,sS,sS,mask-3.png,mask-3.png,s,1,0.4343528999015689,s,1,0.10321930004283786,0.04747779993340373,0.04854220012202859,0.0994722000323236,0.10055819991976023,0.7485923999920487
RSVPLG03,sg,20251021-134515,1.0.1,20251020-085245,707,Experiment,Both,1,Automatic,main,90,20251021-135344,local,global,750,S,S,E,E,E-S.png,S-E.png,sS,sS,mask-2.png,mask-4.png,s,1,0.21671609999611974,s,1,0.07674690010026097,0.047898200107738376,0.04660430015064776,0.09956100000999868,0.09968700003810227,0.7501805999781936
RSVPLG03,sg,20251021-134515,1.0.1,20251020-085245,707,Experiment,Both,1,Automatic,main,91,20251021-135349,global,local,750,H,H,E,A,H-E.png,A-H.png,hH,hH,mask-3.png,mask-3.png,s,0,0.8491378999315202,h,1,0.0264549998100847,0.047588199842721224,0.047541200183331966,0.09966649999842048,0.10159730003215373,0.7478613997809589
RSVPLG03,sg,20251021-134515,1.0.1,20251020-085245,707,Experiment,Both,1,Automatic,main,92,20251021-135354,global,local,750,H,S,E,E,H-E.png,E-S.png,hH,sS,mask-1.png,mask-4.png,s,0,0.5985137999523431,s,1,5.161011799937114,0.04769180016592145,0.047563600121065974,0.09989140019752085,0.09978720010258257,0.7498689000494778
RSVPLG03,sg,20251021-134515,1.0.1,20251020-085245,707,Experiment,Both,1,Automatic,main,93,20251021-135404,global,local,300,H,H,A,E,H-A.png,E-H.png,hH,hH,mask-1.png,mask-3.png,h,1,0.3089845001231879,h,1,0.08468680013902485,0.047686300007626414,0.04759019985795021,0.09988180012442172,0.1005910998210311,0.299575500190258
RSVPLG03,sg,20251021-134515,1.0.1,20251020-085245,707,Experiment,Both,1,Automatic,main,94,20251021-135408,global,global,300,S,S,E,A,S-E.png,S-A.png,sS,sS,mask-3.png,mask-3.png,s,1,0.45263829990290105,s,1,0.08750239992514253,0.04769429983571172,0.04655309999361634,0.09961219993419945,0.09970990009605885,0.299954499816522
RSVPLG03,sg,20251021-134515,1.0.1,20251020-085245,707,Experiment,Both,1,Automatic,main,95,20251021-135412,local,global,750,H,S,E,E,E-H.png,S-E.png,hH,sS,mask-2.png,mask-4.png,h,1,2.044130199821666,h,0,0.18361469986848533,0.049647700041532516,0.047536700032651424,0.1016625000629574,0.09867660002782941,0.7518170000985265
RSVPLG03,sg,20251021-134515,1.0.1,20251020-085245,707,Experiment,Both,1,Automatic,main,96,20251021-135419,local,local,300,H,H,E,A,E-H.png,A-H.png,hH,hH,mask-4.png,mask-4.png,s,0,0.6626448999159038,s,0,0.2650526000652462,0.04567599995061755,0.0455595999956131,0.09960429999046028,0.09867049986496568,0.2998762000352144
RSVPLG03,sg,20251021-134515,1.0.1,20251020-085245,707,Experiment,Both,1,Automatic,main,97,20251021-135424,global,global,300,H,S,E,E,H-E.png,S-E.png,hH,sS,mask-4.png,mask-1.png,s,0,20.46935459994711,s,1,0.396685800049454,0.04670779989100993,0.04752360004931688,0.09869969985447824,0.10064570000395179,0.29939269996248186
RSVPLG03,sg,20251021-134515,1.0.1,20251020-085245,707,Experiment,Both,1,Automatic,main,98,20251021-135449,local,global,300,S,S,A,A,A-S.png,S-A.png,sS,sS,mask-4.png,mask-4.png,h,0,0.52070780005306,s,1,0.1716434999834746,0.04748370009474456,0.04794039996340871,0.09823070000857115,0.10081659979186952,0.2987505001947284
RSVPLG03,sg,20251021-134515,1.0.1,20251020-085245,707,Experiment,Both,1,Automatic,main,99,20251021-135453,local,local,750,S,S,A,E,A-S.png,E-S.png,sS,sS,mask-4.png,mask-4.png,h,0,0.9775783000513911,s,1,0.03572530020028353,0.048496800009161234,0.04552050004713237,0.10050969989970326,0.09953190013766289,0.7514829998835921
RSVPLG03,sg,20251021-134515,1.0.1,20251020-085245,707,Experiment,Both,1,Automatic,main,100,20251021-135459,local,local,750,S,H,E,E,E-S.png,E-H.png,sS,hH,mask-4.png,mask-4.png,s,1,0.06139729986898601,h,1,1.0288125998340547,0.04756760015152395,0.04577219998463988,0.10088700009509921,0.09831280005164444,0.7511444000992924
RSVPLG03,sg,20251021-134515,1.0.1,20251020-085245,707,Experiment,Both,1,Automatic,main,101,20251021-135542,local,global,300,S,S,A,E,A-S.png,S-E.png,sS,sS,mask-4.png,mask-2.png,s,1,1.0467367998789996,s,1,0.1094258998055011,0.04570490005426109,0.04869519989006221,0.09952310007065535,0.10000350000336766,0.2981292000040412
RSVPLG03,sg,20251021-134515,1.0.1,20251020-085245,707,Experiment,Both,1,Automatic,main,102,20251021-135547,local,local,750,H,H,A,A,A-H.png,A-H.png,hH,hH,mask-3.png,mask-3.png,h,1,0.3346208999864757,h,1,0.5488362999167293,0.04568489990197122,0.04569970001466572,0.10001630010083318,0.09905109996907413,0.7495647000614554
RSVPLG03,sg,20251021-134515,1.0.1,20251020-085245,707,Experiment,Both,1,Automatic,main,103,20251021-135552,global,local,750,H,S,E,E,H-E.png,E-S.png,hH,sS,mask-4.png,mask-1.png,h,1,0.2719231001101434,s,1,0.1388402997981757,0.04739399999380112,0.046555400127545,0.10023490013554692,0.10042469995096326,0.749844599980861
RSVPLG03,sg,20251021-134515,1.0.1,20251020-085245,707,Experiment,Both,1,Automatic,main,104,20251021-135557,local,global,300,H,S,A,A,A-H.png,S-A.png,hH,sS,mask-3.png,mask-1.png,h,1,0.20841330010443926,h,0,0.10331949987448752,0.046776700066402555,0.047246000031009316,0.09960249997675419,0.10025150002911687,0.29979259986430407
RSVPLG03,sg,20251021-134515,1.0.1,20251020-085245,707,Experiment,Both,1,Automatic,main,105,20251021-135601,local,global,300,S,S,E,A,E-S.png,S-A.png,sS,sS,mask-1.png,mask-2.png,s,1,0.515008500078693,s,1,0.06953769992105663,0.04830419993959367,0.04776500002481043,0.0991183000151068,0.1007522998843342,0.29949330003000796
RSVPLG03,sg,20251021-134515,1.0.1,20251020-085245,707,Experiment,Both,1,Automatic,main,106,20251021-135605,local,global,300,S,S,E,E,E-S.png,S-E.png,sS,sS,mask-3.png,mask-4.png,s,1,0.2805685999337584,s,1,0.12575939996168017,0.04759819991886616,0.047504100017249584,0.09942739992402494,0.10050299996510148,0.2992074000649154
RSVPLG03,sg,20251021-134515,1.0.1,20251020-085245,707,Experiment,Both,1,Automatic,main,107,20251021-135610,local,local,750,H,H,A,A,A-H.png,A-H.png,hH,hH,mask-3.png,mask-4.png,h,1,0.33569350000470877,h,1,0.11582059995271266,0.04747079988010228,0.04665399994701147,0.09915410005487502,0.09994710003957152,0.7485563999507576
RSVPLG03,sg,20251021-134515,1.0.1,20251020-085245,707,Experiment,Both,1,Automatic,main,108,20251021-135614,local,global,300,S,H,E,E,E-S.png,H-E.png,sS,hH,mask-1.png,mask-4.png,s,1,0.4257294998969883,s,0,0.15259659988805652,0.04870090004988015,0.04793850006535649,0.10002679983153939,0.09871360007673502,0.3002464999444783
RSVPLG03,sg,20251021-134515,1.0.1,20251020-085245,707,Experiment,Both,1,Automatic,main,109,20251021-135619,global,global,750,H,H,E,A,H-E.png,H-A.png,hH,hH,mask-2.png,mask-4.png,h,1,0.6954446001909673,h,1,0.30079289991408587,0.047532400116324425,0.04856089991517365,0.09959730016998947,0.10059349983930588,0.7498026001267135
RSVPLG03,sg,20251021-134515,1.0.1,20251020-085245,707,Experiment,Both,1,Automatic,main,110,20251021-135624,local,global,750,S,S,A,A,A-S.png,S-A.png,sS,sS,mask-1.png,mask-1.png,s,1,4.621024099877104,h,0,1.4195728001650423,0.0465052998624742,0.04761290014721453,0.09851789986714721,0.09961770009249449,0.7489363998174667
RSVPLG03,sg,20251021-134515,1.0.1,20251020-085245,707,Experiment,Both,1,Automatic,main,111,20251021-135634,global,local,300,H,S,A,A,H-A.png,A-S.png,hH,sS,mask-1.png,mask-4.png,h,1,0.42972010001540184,s,1,0.6041298999916762,0.04558109981007874,0.046537499874830246,0.09855819982476532,0.10061140009202063,0.29912779992446303
RSVPLG03,sg,20251021-134515,1.0.1,20251020-085245,707,Experiment,Both,1,Automatic,main,112,20251021-135639,global,global,750,H,S,A,A,H-A.png,S-A.png,hH,sS,mask-4.png,mask-4.png,h,1,0.32255330006591976,s,1,0.09261659998446703,0.04780260007828474,0.048660000087693334,0.10004410007968545,0.0998639001045376,0.7484373000916094
RSVPLG03,sg,20251021-134515,1.0.1,20251020-085245,707,Experiment,Both,1,Automatic,main,113,20251021-135644,global,local,300,H,S,A,E,H-A.png,E-S.png,hH,sS,mask-1.png,mask-1.png,h,1,0.37453099992126226,h,0,0.19387860014103353,0.04747230000793934,0.04753610002808273,0.09839499997906387,0.09877160005271435,0.2999281999655068
RSVPLG03,sg,20251021-134515,1.0.1,20251020-085245,707,Experiment,Both,1,Automatic,main,114,20251021-135648,local,local,750,S,H,A,A,A-S.png,A-H.png,sS,hH,mask-4.png,mask-4.png,h,0,1.0684404999483377,s,0,0.12870889995247126,0.046853299951180816,0.04770009987987578,0.09917649999260902,0.1010209999512881,0.7484738000202924
RSVPLG03,sg,20251021-134515,1.0.1,20251020-085245,707,Experiment,Both,1,Automatic,main,115,20251021-135653,global,local,300,H,S,E,A,H-E.png,A-S.png,hH,sS,mask-3.png,mask-3.png,h,1,0.7265510000288486,s,1,0.40816190000623465,0.04753079987131059,0.04555729986168444,0.09894880000501871,0.09805819997563958,0.3008000000845641
RSVPLG03,sg,20251021-134515,1.0.1,20251020-085245,707,Experiment,Both,1,Automatic,main,116,20251021-135658,global,local,750,H,H,E,E,H-E.png,E-H.png,hH,hH,mask-2.png,mask-4.png,h,1,13.789031299995258,h,1,1.5078676000703126,0.04851240012794733,0.04678849992342293,0.10060760006308556,0.09996040002442896,0.751048400066793
RSVPLG03,sg,20251021-134515,1.0.1,20251020-085245,707,Experiment,Both,1,Automatic,main,117,20251021-135718,local,global,300,H,H,E,E,E-H.png,H-E.png,hH,hH,mask-1.png,mask-4.png,h,1,0.3626586999744177,h,1,0.3319287998601794,0.04856840008869767,0.04558020015247166,0.10054860007949173,0.09955230006016791,0.3009162999223918
RSVPLG03,sg,20251021-134515,1.0.1,20251020-085245,707,Experiment,Both,1,Automatic,main,118,20251021-135723,global,global,750,H,S,E,A,H-E.png,S-A.png,hH,sS,mask-2.png,mask-1.png,h,1,0.559612600132823,s,1,0.08228110009804368,0.048498200019821525,0.04751809989102185,0.09951369999907911,0.10052079986780882,0.7487739000935107
RSVPLG03,sg,20251021-134515,1.0.1,20251020-085245,707,Experiment,Both,1,Automatic,main,119,20251021-135727,local,global,300,H,S,E,E,E-H.png,S-E.png,hH,sS,mask-1.png,mask-1.png,h,1,0.5923270001076162,h,0,0.4305660999380052,0.04675329988822341,0.046422299928963184,0.09984089992940426,0.09926579985767603,0.2999853000510484
RSVPLG03,sg,20251021-134515,1.0.1,20251020-085245,707,Experiment,Both,1,Automatic,main,120,20251021-135732,global,global,300,H,S,A,A,H-A.png,S-A.png,hH,sS,mask-1.png,mask-3.png,h,1,0.4431241999845952,s,1,0.03815610008314252,0.046297800028696656,0.04751539998687804,0.1003276000265032,0.09955429984256625,0.30061350017786026
RSVPLG03,sg,20251021-134515,1.0.1,20251020-085245,707,Experiment,Both,1,Automatic,main,121,20251021-135737,local,local,300,H,H,E,E,E-H.png,E-H.png,hH,hH,mask-1.png,mask-1.png,h,1,0.9899174999445677,h,1,0.11406500008888543,0.049228399991989136,0.048533600056543946,0.1012039000634104,0.10145970014855266,0.29989399993792176
RSVPLG03,sg,20251021-134515,1.0.1,20251020-085245,707,Experiment,Both,1,Automatic,main,122,20251021-135742,global,local,750,S,S,A,E,S-A.png,E-S.png,sS,sS,mask-3.png,mask-1.png,s,1,0.3518871001433581,s,1,0.11935829999856651,0.04855800000950694,0.047900900011882186,0.10084860003553331,0.10013239993713796,0.7492162000853568
