exp,exp_initials,runtime,ver,modtime,sub,blocktype,targets,cuetype,mode,trialtype,trial,trialtime,t1_level,t2_level,t2_lag,t1,t2,distractor1,distractor2,stimfile1,stimfile2,t1_corr,t2_corr,maskfile1,maskfile2,t1_resp,t1_acc,t1_rt,t2_resp,t2_acc,t2_rt,t1_dur,t2_dur,t1mask_soa,t2mask_soa,t1t2_soa
RSVPLG03,km,20260319-151103,1.0.2,20251113-095759,806,Introduction,T1,1,Automatic,main,1,20260319-151139,global,global,750,H,H,A,A,H-A.png,H-A.png,hH,hH,mask-1.png,mask-1.png,h,1,2.1377563000132795,none,-5,0,0.0958309999841731,0.09975459999986924,0.19521969999186695,0.20119910000357777,0.7451335999940056
RSVPLG03,km,20260319-151103,1.0.2,20251113-095759,806,Introduction,T1,1,Automatic,main,2,20260319-151145,global,local,750,H,S,A,A,H-A.png,A-S.png,hH,sS,mask-3.png,mask-3.png,h,1,0.7952812000003178,none,-5,0,0.09897410002304241,0.1004121000005398,0.199197500012815,0.20085480000125244,0.7492793000128586
RSVPLG03,km,20260319-151103,1.0.2,20251113-095759,806,Introduction,T1,1,Automatic,main,3,20260319-151150,global,local,750,H,H,E,A,H-E.png,A-H.png,hH,hH,mask-1.png,mask-2.png,h,1,0.1495598999899812,none,-5,0,0.09879060002276674,0.09900859999470413,0.19881220001843758,0.19982709997566417,0.7499114000238478
RSVPLG03,km,20260319-151103,1.0.2,20251113-095759,806,Introduction,T1,1,Automatic,main,4,20260319-151154,global,global,750,S,H,E,E,S-E.png,H-E.png,sS,hH,mask-2.png,mask-4.png,s,1,0.029425699991406873,none,-5,0,0.09885099998791702,0.10062949999701232,0.19851200000266545,0.20152309999684803,0.7498591000039596
RSVPLG03,km,20260319-151103,1.0.2,20251113-095759,806,Introduction,T1,1,Automatic,main,5,20260319-151158,local,global,750,H,S,A,E,A-H.png,S-E.png,hH,sS,mask-3.png,mask-1.png,h,1,0.543976000015391,none,-5,0,0.1004362000094261,0.10007170002791099,0.2005834000010509,0.2020362000039313,0.7497320999973454
RSVPLG03,km,20260319-151103,1.0.2,20251113-095759,806,Introduction,T1,1,Automatic,main,6,20260319-151203,local,local,750,H,H,E,E,E-H.png,E-H.png,hH,hH,mask-3.png,mask-1.png,s,0,1.914515799988294,none,-5,0,0.10041079999064095,0.10010109998984262,0.20192039999528788,0.19994829999632202,0.7502603000029922
RSVPLG03,km,20260319-151103,1.0.2,20251113-095759,806,Introduction,T1,1,Automatic,main,7,20260319-151209,local,local,750,S,H,A,A,A-S.png,A-H.png,sS,hH,mask-3.png,mask-2.png,h,0,0.5872122000146192,none,-5,0,0.0997596999804955,0.10208869999041781,0.20079939998686314,0.20041310001397505,0.7492412999854423
RSVPLG03,km,20260319-151103,1.0.2,20251113-095759,806,Introduction,T1,1,Automatic,main,8,20260319-151214,global,local,750,S,H,E,A,S-E.png,A-H.png,sS,hH,mask-1.png,mask-2.png,s,1,0.8837110000022221,none,-5,0,0.10039999999571592,0.10148530002334155,0.19986370002152398,0.2009771000011824,0.7495259999996051
RSVPLG03,km,20260319-151103,1.0.2,20251113-095759,806,Introduction,T1,1,Automatic,main,9,20260319-151219,local,local,750,S,S,A,A,A-S.png,A-S.png,sS,sS,mask-4.png,mask-3.png,h,0,3.5679064999858383,none,-5,0,0.09896520001348108,0.10032830000272952,0.1986349000071641,0.2006272999860812,0.7486843000224326
RSVPLG03,km,20260319-151103,1.0.2,20251113-095759,806,Introduction,T1,1,Automatic,main,10,20260319-151227,global,local,750,H,S,A,A,H-A.png,A-S.png,hH,sS,mask-2.png,mask-1.png,h,1,0.19953199999872595,none,-5,0,0.09955720001016743,0.09950280000339262,0.20051750002312474,0.20188920001965016,0.7509401999996044
RSVPLG03,km,20260319-151103,1.0.2,20251113-095759,806,Introduction,T1,1,Automatic,main,11,20260319-151231,local,global,750,H,S,A,E,A-H.png,S-E.png,hH,sS,mask-4.png,mask-4.png,s,0,0.7015094000089448,none,-5,0,0.09842170000774786,0.10003609998966567,0.1989179999800399,0.2018093999940902,0.7496525000024121
RSVPLG03,km,20260319-151103,1.0.2,20251113-095759,806,Introduction,T1,1,Automatic,main,12,20260319-151236,global,global,750,H,H,E,E,H-E.png,H-E.png,hH,hH,mask-1.png,mask-2.png,h,1,0.40925609998521395,none,-5,0,0.0997231999936048,0.09926849999465048,0.19939540000632405,0.1990304000210017,0.7511486999865156
RSVPLG03,km,20260319-151103,1.0.2,20251113-095759,806,Introduction,T1,1,Automatic,main,13,20260319-151240,local,local,750,S,S,E,E,E-S.png,E-S.png,sS,sS,mask-2.png,mask-1.png,s,1,0.39774580000084825,none,-5,0,0.09968369998387061,0.10013599999365397,0.20006519998423755,0.2003369999874849,0.7498701000004075
RSVPLG03,km,20260319-151103,1.0.2,20251113-095759,806,Introduction,T1,1,Automatic,main,14,20260319-151245,local,global,750,S,S,A,A,A-S.png,S-A.png,sS,sS,mask-2.png,mask-4.png,s,1,0.3638564999855589,none,-5,0,0.0990905000071507,0.09810859998106025,0.1993314000137616,0.19879299998865463,0.7520322000200395
RSVPLG03,km,20260319-151103,1.0.2,20251113-095759,806,Introduction,T1,1,Automatic,main,15,20260319-151250,global,global,750,S,H,E,E,S-E.png,H-E.png,sS,hH,mask-4.png,mask-4.png,s,1,0.3770256999996491,none,-5,0,0.10082190000684932,0.09930110001005232,0.19958319998113438,0.19902130000991747,0.7505751999851782
RSVPLG03,km,20260319-151103,1.0.2,20251113-095759,806,Introduction,T1,1,Automatic,main,16,20260319-151254,local,global,750,S,H,E,E,E-S.png,H-E.png,sS,hH,mask-3.png,mask-4.png,s,1,0.43298489999142475,none,-5,0,0.10079720002249815,0.10099229999468662,0.19991930000833236,0.19816989998798817,0.7509650000138208
RSVPLG03,km,20260319-151323,1.0.2,20251113-095759,806,Practice,T1,1,Automatic,main,1,20260319-151345,global,global,750,S,S,A,A,S-A.png,S-A.png,sS,sS,mask-3.png,mask-4.png,s,1,0.4288591000076849,none,-5,0,0.04980840001371689,0.05167099999380298,0.099083300010534,0.1015590000024531,0.7479404000041541
RSVPLG03,km,20260319-151323,1.0.2,20251113-095759,806,Practice,T1,1,Automatic,main,2,20260319-151349,local,local,750,S,H,E,E,E-S.png,E-H.png,sS,hH,mask-3.png,mask-4.png,s,1,0.135845499986317,none,-5,0,0.05037630000151694,0.04959710000548512,0.09995190001791343,0.10125010000774637,0.749477500008652
RSVPLG03,km,20260319-151323,1.0.2,20251113-095759,806,Practice,T1,1,Automatic,main,3,20260319-151353,global,global,300,S,S,A,A,S-A.png,S-A.png,sS,sS,mask-2.png,mask-3.png,s,1,0.19545450000441633,none,-5,0,0.049511399993207306,0.04974469999433495,0.09947220000321977,0.1002431999950204,0.29921270001796074
RSVPLG03,km,20260319-151323,1.0.2,20251113-095759,806,Practice,T1,1,Automatic,main,4,20260319-151357,local,local,300,H,H,A,A,A-H.png,A-H.png,hH,hH,mask-4.png,mask-1.png,h,1,0.22384560000500642,none,-5,0,0.04826599999796599,0.04988979999325238,0.09869990000152029,0.10033739998470992,0.29841710001346655
RSVPLG03,km,20260319-151323,1.0.2,20251113-095759,806,Practice,T1,1,Automatic,main,5,20260319-151401,local,local,300,S,H,A,A,A-S.png,A-H.png,sS,hH,mask-2.png,mask-2.png,h,0,2.4761653000023216,none,-5,0,0.049392999993870035,0.05035549998865463,0.09969529998488724,0.1001819999946747,0.2990976999863051
RSVPLG03,km,20260319-151323,1.0.2,20251113-095759,806,Practice,T1,1,Automatic,main,6,20260319-151407,local,local,750,H,H,E,A,E-H.png,A-H.png,hH,hH,mask-4.png,mask-4.png,s,0,0.34536959999240935,none,-5,0,0.04930139999487437,0.05117320001590997,0.10036449998733588,0.09986620000563562,0.7485180999792647
RSVPLG03,km,20260319-151323,1.0.2,20251113-095759,806,Practice,T1,1,Automatic,main,7,20260319-151411,local,global,300,S,S,A,E,A-S.png,S-E.png,sS,sS,mask-1.png,mask-3.png,h,0,0.4183451000135392,none,-5,0,0.04970639999373816,0.051372499990975484,0.1005126999807544,0.10018390000914223,0.3000533999875188
RSVPLG03,km,20260319-151323,1.0.2,20251113-095759,806,Practice,T1,1,Automatic,main,8,20260319-151415,global,local,750,H,S,E,E,H-E.png,E-S.png,hH,sS,mask-1.png,mask-2.png,h,1,0.3620385000249371,none,-5,0,0.05078749998938292,0.05081349998363294,0.10058689999277703,0.09745159998419695,0.7512702000094578
RSVPLG03,km,20260319-151323,1.0.2,20251113-095759,806,Practice,T1,1,Automatic,main,9,20260319-151419,local,global,750,H,H,E,E,E-H.png,H-E.png,hH,hH,mask-2.png,mask-3.png,h,1,0.25169129998539574,none,-5,0,0.049278699996648356,0.04944969998905435,0.09988379999413155,0.10070049998466857,0.7482586000114679
RSVPLG03,km,20260319-151323,1.0.2,20251113-095759,806,Practice,T1,1,Automatic,main,10,20260319-151423,global,local,300,S,H,A,A,S-A.png,A-H.png,sS,hH,mask-4.png,mask-1.png,s,1,0.41095320001477376,none,-5,0,0.05004010000266135,0.04622940000263043,0.09957329998724163,0.09632379998220131,0.3015765000018291
RSVPLG03,km,20260319-151323,1.0.2,20251113-095759,806,Practice,T1,1,Automatic,main,11,20260319-151427,global,local,300,S,H,A,E,S-A.png,E-H.png,sS,hH,mask-4.png,mask-2.png,s,1,0.3057523999887053,none,-5,0,0.04961110002477653,0.05133419999037869,0.09896260002278723,0.10195019998354837,0.29821580002317205
RSVPLG03,km,20260319-151323,1.0.2,20251113-095759,806,Practice,T1,1,Automatic,main,12,20260319-151431,local,global,300,H,H,E,A,E-H.png,H-A.png,hH,hH,mask-2.png,mask-1.png,h,1,0.5737845000112429,none,-5,0,0.04987679998157546,0.04817269998602569,0.09940129998722114,0.09959719999460503,0.3010028999997303
RSVPLG03,km,20260319-151323,1.0.2,20251113-095759,806,Practice,T1,1,Automatic,main,13,20260319-151435,global,global,750,S,S,A,A,S-A.png,S-A.png,sS,sS,mask-2.png,mask-4.png,s,1,0.060976100008701906,none,-5,0,0.05042840001988225,0.04917859999113716,0.09965859999647364,0.10011329999542795,0.7486298000148963
RSVPLG03,km,20260319-151323,1.0.2,20251113-095759,806,Practice,T1,1,Automatic,main,14,20260319-151439,global,global,300,H,H,A,A,H-A.png,H-A.png,hH,hH,mask-1.png,mask-4.png,h,1,0.12216929998248816,none,-5,0,0.04896720001124777,0.05123879999155179,0.09901330000138842,0.09982390000368468,0.2991397000150755
RSVPLG03,km,20260319-151323,1.0.2,20251113-095759,806,Practice,T1,1,Automatic,main,15,20260319-151443,global,local,750,H,S,E,E,H-E.png,E-S.png,hH,sS,mask-2.png,mask-4.png,h,1,0.31153679999988526,none,-5,0,0.0509246000146959,0.049158699985127896,0.10191850000410341,0.09876179997809231,0.7492649000196252
RSVPLG03,km,20260319-151323,1.0.2,20251113-095759,806,Practice,T1,1,Automatic,main,16,20260319-151447,local,global,750,H,S,E,E,E-H.png,S-E.png,hH,sS,mask-3.png,mask-4.png,h,1,0.19884260001708753,none,-5,0,0.04876649999641813,0.04962180001894012,0.09865799997351132,0.10025060002226382,0.7479371999797877
RSVPLG03,km,20260319-151601,1.0.2,20251113-095759,806,Introduction,Both,1,Automatic,main,1,20260319-151620,local,global,750,H,H,E,E,E-H.png,H-E.png,hH,hH,mask-1.png,mask-3.png,h,1,0.6130334000044968,h,1,3.549955800001044,0.10131019999971613,0.10029279999434948,0.20102339997538365,0.2004954000003636,0.7495212999929208
RSVPLG03,km,20260319-151601,1.0.2,20251113-095759,806,Introduction,Both,1,Automatic,main,2,20260319-151628,local,local,750,S,H,A,E,A-S.png,E-H.png,sS,hH,mask-3.png,mask-4.png,s,1,0.7419653999968432,s,0,0.4308905999932904,0.09993999998550862,0.09789920001639985,0.19953369998256676,0.20008909999160096,0.7506055999838281
RSVPLG03,km,20260319-151601,1.0.2,20251113-095759,806,Introduction,Both,1,Automatic,main,3,20260319-151634,global,global,750,H,S,E,A,H-E.png,S-A.png,hH,sS,mask-3.png,mask-3.png,h,1,2.085576699988451,h,0,1.7294759000069462,0.09880479998537339,0.1003058000060264,0.1970298999804072,0.19986900000367314,0.7481054999807384
RSVPLG03,km,20260319-151601,1.0.2,20251113-095759,806,Introduction,Both,1,Automatic,main,4,20260319-151642,global,local,750,S,H,E,A,S-E.png,A-H.png,sS,hH,mask-1.png,mask-2.png,s,1,3.944171400013147,s,0,1.9683249000227079,0.10014640001463704,0.09807460001320578,0.20007479999912903,0.19767620001221076,0.7516131000011228
RSVPLG03,km,20260319-151601,1.0.2,20251113-095759,806,Introduction,Both,1,Automatic,main,5,20260319-151652,global,global,750,H,S,E,E,H-E.png,S-E.png,hH,sS,mask-2.png,mask-4.png,s,0,3.049319799989462,h,0,0.7644545999937691,0.09939210000447929,0.09999859999516048,0.19876349999685772,0.19981479999842122,0.7481283000088297
RSVPLG03,km,20260319-151601,1.0.2,20251113-095759,806,Introduction,Both,1,Automatic,main,6,20260319-151700,local,global,750,H,H,A,A,A-H.png,H-A.png,hH,hH,mask-1.png,mask-3.png,h,1,0.8884726999967825,s,0,2.945166799996514,0.09957009999197908,0.09905399999115616,0.199059100006707,0.19928760000038892,0.7504206000012346
RSVPLG03,km,20260319-151601,1.0.2,20251113-095759,806,Introduction,Both,1,Automatic,main,7,20260319-151708,global,global,750,S,S,E,A,S-E.png,S-A.png,sS,sS,mask-3.png,mask-2.png,h,0,7.1870015999884345,s,1,0.3045674000168219,0.10022829999797978,0.09866689998307265,0.1994482999725733,0.198983699985547,0.7500139999901876
RSVPLG03,km,20260319-151601,1.0.2,20251113-095759,806,Introduction,Both,1,Automatic,main,8,20260319-151720,global,local,750,S,S,A,E,S-A.png,E-S.png,sS,sS,mask-1.png,mask-1.png,s,1,3.2843411000212654,h,0,0.4312765000213403,0.09886689999257214,0.09878479997860268,0.19886370000313036,0.19872439999016933,0.749782500002766
RSVPLG03,km,20260319-151601,1.0.2,20251113-095759,806,Introduction,Both,1,Automatic,main,9,20260319-151728,local,global,750,S,S,A,A,A-S.png,S-A.png,sS,sS,mask-1.png,mask-2.png,s,1,1.5434101000137161,s,1,0.4003579999844078,0.09987569999066181,0.09872199999517761,0.19978249998530373,0.1989973000017926,0.7506098999874666
RSVPLG03,km,20260319-151601,1.0.2,20251113-095759,806,Introduction,Both,1,Automatic,main,10,20260319-151734,local,local,750,S,H,A,A,A-S.png,A-H.png,sS,hH,mask-1.png,mask-2.png,h,0,0.9884804000030272,h,1,0.43082129998947494,0.10088260000338778,0.09944799999357201,0.2008891000004951,0.19957399999839254,0.7504547999997158
RSVPLG03,km,20260319-151601,1.0.2,20251113-095759,806,Introduction,Both,1,Automatic,main,11,20260319-151740,global,local,750,H,H,A,E,H-A.png,E-H.png,hH,hH,mask-4.png,mask-3.png,h,1,0.9436131000111345,h,1,0.1200255999865476,0.0983014999947045,0.10004019999178126,0.20059049999690615,0.19997190000140108,0.7484562000026926
RSVPLG03,km,20260319-151601,1.0.2,20251113-095759,806,Introduction,Both,1,Automatic,main,12,20260319-151745,local,global,750,S,H,A,E,A-S.png,H-E.png,sS,hH,mask-3.png,mask-1.png,s,1,1.145283699996071,h,1,0.09547910001128912,0.10085170000093058,0.10080529999686405,0.2011239999847021,0.19978529997752048,0.7498180000111461
RSVPLG03,km,20260319-151601,1.0.2,20251113-095759,806,Introduction,Both,1,Automatic,main,13,20260319-151751,global,global,750,H,S,E,E,H-E.png,S-E.png,hH,sS,mask-4.png,mask-2.png,h,1,1.1254729000211228,s,1,0.4654590999998618,0.10002499999245629,0.10056240000994876,0.19888280000304803,0.20003910001832992,0.7495388999814168
RSVPLG03,km,20260319-151601,1.0.2,20251113-095759,806,Introduction,Both,1,Automatic,main,14,20260319-151757,local,local,750,H,S,E,A,E-H.png,A-S.png,hH,sS,mask-2.png,mask-2.png,h,1,1.2105774999945424,s,1,0.12657550000585616,0.09981869999319315,0.10055479998118244,0.1992313000082504,0.20017019999795593,0.7484315000183415
RSVPLG03,km,20260319-151601,1.0.2,20251113-095759,806,Introduction,Both,1,Automatic,main,15,20260319-151802,local,local,750,S,S,E,E,E-S.png,E-S.png,sS,sS,mask-4.png,mask-4.png,s,1,1.391627700009849,h,0,0.31866550000268035,0.10134369999286719,0.09851609999896027,0.20086869999067858,0.20018769998569041,0.750457699992694
RSVPLG03,km,20260319-151601,1.0.2,20251113-095759,806,Introduction,Both,1,Automatic,main,16,20260319-151808,global,local,750,S,H,E,A,S-E.png,A-H.png,sS,hH,mask-2.png,mask-4.png,s,1,1.5314646999759134,h,1,0.2899688000034075,0.09894939998048358,0.10029380000196397,0.19996219998574816,0.19909429998369887,0.7493958999984898
RSVPLG03,km,20260319-151831,1.0.2,20251113-095759,806,Practice,Both,1,Automatic,main,1,20260319-151853,local,global,300,H,S,A,A,A-H.png,S-A.png,hH,sS,mask-4.png,mask-2.png,s,0,3.1068653000111226,h,0,0.7164186000009067,0.04828300001099706,0.05006360000697896,0.09793129999889061,0.09922740000183694,0.2971574999974109
RSVPLG03,km,20260319-151831,1.0.2,20251113-095759,806,Practice,Both,1,Automatic,main,2,20260319-151900,local,local,750,S,H,E,A,E-S.png,A-H.png,sS,hH,mask-1.png,mask-2.png,s,1,1.441203599999426,h,1,0.0810979999951087,0.05186500001582317,0.05114019999746233,0.09995960001833737,0.1000742000178434,0.7466514999978244
RSVPLG03,km,20260319-151831,1.0.2,20251113-095759,806,Practice,Both,1,Automatic,main,3,20260319-151906,global,local,300,H,H,A,E,H-A.png,E-H.png,hH,hH,mask-3.png,mask-3.png,h,1,1.0264050999830943,s,0,0.06464260001666844,0.04987260000780225,0.04928109998581931,0.09775870002340525,0.09929209999972954,0.29690470002242364
RSVPLG03,km,20260319-151831,1.0.2,20251113-095759,806,Practice,Both,1,Automatic,main,4,20260319-151911,local,global,750,S,H,E,A,E-S.png,H-A.png,sS,hH,mask-2.png,mask-1.png,s,1,1.4800442999985535,h,1,0.1414165000023786,0.048385300004156306,0.04945709998719394,0.09853990000556223,0.09989199999836273,0.743940600019414
RSVPLG03,km,20260319-151831,1.0.2,20251113-095759,806,Practice,Both,1,Automatic,main,5,20260319-151916,local,global,300,H,S,E,A,E-H.png,S-A.png,hH,sS,mask-1.png,mask-4.png,h,1,1.3443245000089519,h,0,0.09679989999858662,0.048186900006840006,0.04999540001153946,0.09779669999261387,0.10016620001988485,0.2965023999859113
RSVPLG03,km,20260319-151831,1.0.2,20251113-095759,806,Practice,Both,1,Automatic,main,6,20260319-151921,global,local,750,H,H,E,E,H-E.png,E-H.png,hH,hH,mask-4.png,mask-1.png,h,1,0.7938401999999769,s,0,0.08059379999758676,0.04923509998479858,0.05000089999521151,0.09956869998131879,0.09797569998772815,0.7470483999932185
RSVPLG03,km,20260319-151831,1.0.2,20251113-095759,806,Practice,Both,1,Automatic,main,7,20260319-151926,global,local,300,S,H,A,A,S-A.png,A-H.png,sS,hH,mask-2.png,mask-1.png,s,1,0.8205509999825153,s,0,0.5926863999920897,0.050222799996845424,0.05023480000090785,0.10097769999993034,0.09913200000301003,0.2987563000060618
RSVPLG03,km,20260319-151831,1.0.2,20251113-095759,806,Practice,Both,1,Automatic,main,8,20260319-151931,local,local,300,H,S,E,E,E-H.png,E-S.png,hH,sS,mask-1.png,mask-4.png,h,1,0.7020173000055365,s,1,0.14630200000829063,0.05140310002025217,0.04975999999442138,0.09950880001997575,0.1003027000115253,0.2984666000120342
RSVPLG03,km,20260319-151831,1.0.2,20251113-095759,806,Practice,Both,1,Automatic,main,9,20260319-151936,local,local,300,H,H,A,E,A-H.png,E-H.png,hH,hH,mask-1.png,mask-4.png,h,1,1.5249764999898616,s,0,0.07811000000219792,0.049861400009831414,0.05164449999574572,0.09971219999715686,0.10126949998084456,0.29725950001738966
RSVPLG03,km,20260319-151831,1.0.2,20251113-095759,806,Practice,Both,1,Automatic,main,10,20260319-151941,global,local,750,S,H,E,E,S-E.png,E-H.png,sS,hH,mask-4.png,mask-2.png,s,1,1.1416882000048645,h,1,0.06377149999025278,0.048650600016117096,0.049090700020315126,0.09976900002220646,0.09955559999798425,0.7464877000020351
RSVPLG03,km,20260319-151831,1.0.2,20251113-095759,806,Practice,Both,1,Automatic,main,11,20260319-151946,global,global,300,H,H,E,A,H-E.png,H-A.png,hH,hH,mask-1.png,mask-3.png,h,1,0.9448871000204235,h,1,0.6548842999909539,0.04987029999028891,0.0499656000174582,0.09892519999993965,0.10124540000106208,0.29804549997788854
RSVPLG03,km,20260319-151831,1.0.2,20251113-095759,806,Practice,Both,1,Automatic,main,12,20260319-151952,global,global,300,S,H,A,A,S-A.png,H-A.png,sS,hH,mask-3.png,mask-4.png,s,1,0.7975271999894176,s,0,0.07968290001736023,0.049364800011971965,0.04925320000620559,0.1007060999982059,0.09937179999542423,0.3001487000146881
RSVPLG03,km,20260319-151831,1.0.2,20251113-095759,806,Practice,Both,1,Automatic,main,13,20260319-151956,local,global,750,S,H,E,A,E-S.png,H-A.png,sS,hH,mask-2.png,mask-2.png,s,1,1.7496797000057995,h,1,0.13059839999186806,0.04983189998893067,0.0490808000031393,0.10153269997681491,0.10025930000119843,0.7467334999819286
RSVPLG03,km,20260319-151831,1.0.2,20251113-095759,806,Practice,Both,1,Automatic,main,14,20260319-152002,global,global,750,S,S,E,E,S-E.png,S-E.png,sS,sS,mask-1.png,mask-2.png,h,0,1.0662677000218537,s,1,0.05084849998820573,0.049037499993573874,0.048738000012235716,0.09907189998193644,0.09763050000765361,0.7462215999839827
RSVPLG03,km,20260319-151831,1.0.2,20251113-095759,806,Practice,Both,1,Automatic,main,15,20260319-152007,global,global,750,S,H,A,E,S-A.png,H-E.png,sS,hH,mask-1.png,mask-1.png,h,0,1.2877219000074547,h,1,0.09421320000546984,0.049409100000048056,0.0498756000015419,0.09847369999624789,0.0998523999878671,0.744615600007819
RSVPLG03,km,20260319-151831,1.0.2,20251113-095759,806,Practice,Both,1,Automatic,main,16,20260319-152013,local,local,750,H,S,A,E,A-H.png,E-S.png,hH,sS,mask-4.png,mask-2.png,h,1,1.4117896000097971,s,1,0.08107339998241514,0.04922680000890978,0.051162599993404,0.09857729999930598,0.1004483999859076,0.7441331000009086
RSVPLG03,km,20260319-152035,1.0.2,20251113-095759,806,Practice,Both,1,Automatic,main,1,20260319-152056,global,global,750,S,S,E,E,S-E.png,S-E.png,sS,sS,mask-4.png,mask-2.png,s,1,1.1955527000245638,h,0,0.07939110000734217,0.048287400015397,0.049832999997306615,0.0978082999936305,0.10072099999524653,0.74498560000211
RSVPLG03,km,20260319-152035,1.0.2,20251113-095759,806,Practice,Both,1,Automatic,main,2,20260319-152102,local,local,750,H,S,E,E,E-H.png,E-S.png,hH,sS,mask-1.png,mask-4.png,h,1,0.8929721000022255,s,1,0.0824787000019569,0.04901889999746345,0.049683299992466345,0.09950039998511784,0.09912999998778105,0.747958899999503
RSVPLG03,km,20260319-152035,1.0.2,20251113-095759,806,Practice,Both,1,Automatic,main,3,20260319-152107,global,local,750,H,S,A,E,H-A.png,E-S.png,hH,sS,mask-1.png,mask-1.png,h,1,0.8185014000046067,s,1,0.02534160000504926,0.04959110001800582,0.04828509999788366,0.10005080001428723,0.10023799998452887,0.7487788000144064
RSVPLG03,km,20260319-152035,1.0.2,20251113-095759,806,Practice,Both,1,Automatic,main,4,20260319-152112,local,local,300,S,S,A,A,A-S.png,A-S.png,sS,sS,mask-1.png,mask-1.png,s,1,1.500340500002494,h,0,0.39803489999030717,0.04941549999057315,0.05030189998797141,0.09877199999755248,0.09956019997480325,0.2994355999981053
RSVPLG03,km,20260319-152035,1.0.2,20251113-095759,806,Practice,Both,1,Automatic,main,5,20260319-152117,global,global,750,S,H,A,E,S-A.png,H-E.png,sS,hH,mask-1.png,mask-1.png,h,0,2.341327900008764,h,1,0.08030639999196865,0.04882780002662912,0.05032690000371076,0.09937700000591576,0.10024229998816736,0.7466548000229523
RSVPLG03,km,20260319-152035,1.0.2,20251113-095759,806,Practice,Both,1,Automatic,main,6,20260319-152124,local,global,750,S,H,E,A,E-S.png,H-A.png,sS,hH,mask-3.png,mask-3.png,s,1,1.5571355000138283,h,1,0.1142831000033766,0.04906159997335635,0.04965190001530573,0.0999881999741774,0.09886830000323243,0.7489616999810096
RSVPLG03,km,20260319-152035,1.0.2,20251113-095759,806,Practice,Both,1,Automatic,main,7,20260319-152130,global,local,750,S,S,A,A,S-A.png,A-S.png,sS,sS,mask-2.png,mask-3.png,s,1,2.189948299987009,s,1,0.07869850000133738,0.04987820002133958,0.049032899987651035,0.10004710001521744,0.09903579999809153,0.7489241000148468
RSVPLG03,km,20260319-152035,1.0.2,20251113-095759,806,Practice,Both,1,Automatic,main,8,20260319-152136,local,global,300,H,S,E,E,E-H.png,S-E.png,hH,sS,mask-1.png,mask-2.png,h,1,1.304087199998321,h,0,0.38470259998575784,0.04956859999219887,0.050089299998944625,0.09940619999542832,0.10073920001741499,0.2990560999896843
RSVPLG03,km,20260319-152035,1.0.2,20251113-095759,806,Practice,Both,1,Automatic,main,9,20260319-152141,local,local,300,H,H,E,E,E-H.png,E-H.png,hH,hH,mask-4.png,mask-1.png,h,1,1.9997073999838904,h,1,0.3692989000119269,0.048993099975632504,0.050109900010284036,0.09850419999565929,0.10060940001858398,0.29818329997942783
RSVPLG03,km,20260319-152035,1.0.2,20251113-095759,806,Practice,Both,1,Automatic,main,10,20260319-152147,global,global,300,S,S,E,A,S-E.png,S-A.png,sS,sS,mask-2.png,mask-4.png,s,1,3.7509243999957107,h,0,0.047343699989141896,0.04786039999453351,0.04918980001821183,0.09828499998548068,0.09841360000427812,0.2990960999741219
RSVPLG03,km,20260319-152035,1.0.2,20251113-095759,806,Practice,Both,1,Automatic,main,11,20260319-152155,global,global,300,H,H,A,E,H-A.png,H-E.png,hH,hH,mask-3.png,mask-1.png,h,1,0.9706248999864329,s,0,0.5602513999911025,0.049431299994466826,0.04918780000298284,0.09892019999097101,0.10025729998596944,0.29793790000258014
RSVPLG03,km,20260319-152035,1.0.2,20251113-095759,806,Practice,Both,1,Automatic,main,12,20260319-152200,local,global,750,S,S,E,A,E-S.png,S-A.png,sS,sS,mask-4.png,mask-1.png,s,1,2.0314093999913894,h,0,0.03142779998597689,0.04983570001786575,0.04985789998318069,0.09934730001259595,0.09841249999590218,0.7487989000219386
RSVPLG03,km,20260319-152035,1.0.2,20251113-095759,806,Practice,Both,1,Automatic,main,13,20260319-152206,global,local,300,H,H,A,E,H-A.png,E-H.png,hH,hH,mask-3.png,mask-1.png,h,1,0.6912738000100944,h,1,1.9219338999828324,0.05109019999508746,0.05095819997950457,0.09926149999955669,0.10101539999595843,0.2982674000086263
RSVPLG03,km,20260319-152035,1.0.2,20251113-095759,806,Practice,Both,1,Automatic,main,14,20260319-152212,local,global,300,H,S,E,E,E-H.png,S-E.png,hH,sS,mask-4.png,mask-3.png,h,1,1.340355400025146,h,0,0.09525720000965521,0.047979700000723824,0.05164829999557696,0.0979261000175029,0.10075219999998808,0.2971469000040088
RSVPLG03,km,20260319-152035,1.0.2,20251113-095759,806,Practice,Both,1,Automatic,main,15,20260319-152217,global,local,300,S,H,A,E,S-A.png,E-H.png,sS,hH,mask-3.png,mask-3.png,s,1,0.5646334000048228,h,1,0.4503980000154115,0.04980420001083985,0.049053399998229,0.09975770002347417,0.10012410001945682,0.2989354000019375
RSVPLG03,km,20260319-152035,1.0.2,20251113-095759,806,Practice,Both,1,Automatic,main,16,20260319-152222,local,local,750,H,H,A,A,A-H.png,A-H.png,hH,hH,mask-3.png,mask-4.png,h,1,1.1999002000084147,h,1,0.4476655999897048,0.04993040001136251,0.04889180001919158,0.1003746000060346,0.09838650000165217,0.7488952999992762
RSVPLG03,km,20260319-152254,1.0.2,20251113-095759,806,Practice,Both,1,Automatic,main,1,20260319-152338,local,global,300,S,S,A,E,A-S.png,S-E.png,sS,sS,mask-3.png,mask-1.png,s,1,1.2902857000008225,h,0,0.00198540001292713,0.04610030000912957,0.05133940000087023,0.09714440000243485,0.10228729998925701,0.2966675000207033
RSVPLG03,km,20260319-152254,1.0.2,20251113-095759,806,Practice,Both,1,Automatic,main,2,20260319-152343,local,global,750,H,S,E,A,E-H.png,S-A.png,hH,sS,mask-2.png,mask-4.png,h,1,0.7484047999896575,s,1,0.06411520001711324,0.05098030000226572,0.049391399981686845,0.10142599997925572,0.09907669998938218,0.7522821000020485
RSVPLG03,km,20260319-152254,1.0.2,20251113-095759,806,Practice,Both,1,Automatic,main,3,20260319-152348,global,local,750,H,H,E,A,H-E.png,A-H.png,hH,hH,mask-4.png,mask-1.png,h,1,1.1417392999865115,s,0,0.09812650000094436,0.05007269998895936,0.04989640001440421,0.10020240000449121,0.10055319999810308,0.7510598999797367
RSVPLG03,km,20260319-152254,1.0.2,20251113-095759,806,Practice,Both,1,Automatic,main,4,20260319-152353,local,local,300,S,S,E,A,E-S.png,A-S.png,sS,sS,mask-3.png,mask-2.png,s,1,1.2586853000102565,h,0,0.09503590001258999,0.05107879999559373,0.050889500009361655,0.10069059999659657,0.09955440001795068,0.3012256999791134
RSVPLG03,km,20260319-152254,1.0.2,20251113-095759,806,Practice,Both,1,Automatic,main,5,20260319-152358,global,global,300,S,H,A,A,S-A.png,H-A.png,sS,hH,mask-4.png,mask-4.png,s,1,1.281232799985446,s,0,0.08208209997974336,0.05094660000759177,0.04996400000527501,0.09994069999083877,0.09880629999679513,0.3004341000050772
RSVPLG03,km,20260319-152254,1.0.2,20251113-095759,806,Practice,Both,1,Automatic,main,6,20260319-152403,local,global,300,S,H,A,E,A-S.png,H-E.png,sS,hH,mask-3.png,mask-2.png,h,0,1.3642310000141151,h,1,0.9767890999792144,0.05128559999866411,0.050779900018824264,0.10092799999983981,0.1003101000096649,0.3017387999861967
RSVPLG03,km,20260319-152254,1.0.2,20251113-095759,806,Practice,Both,1,Automatic,main,7,20260319-152409,local,local,750,S,H,E,E,E-S.png,E-H.png,sS,hH,mask-3.png,mask-4.png,s,1,1.3628368999925442,h,1,0.022994699975242838,0.05002599998260848,0.050169499998446554,0.09991629997966811,0.10075569999753498,0.7524354000051972
RSVPLG03,km,20260319-152254,1.0.2,20251113-095759,806,Practice,Both,1,Automatic,main,8,20260319-152415,global,local,300,S,H,A,E,S-A.png,E-H.png,sS,hH,mask-3.png,mask-1.png,s,1,0.7795645000005607,h,1,0.03369070001645014,0.048846299992874265,0.050125000008847564,0.09980249998625368,0.1009667000034824,0.299151899991557
RSVPLG03,km,20260319-152254,1.0.2,20251113-095759,806,Practice,Both,1,Automatic,main,9,20260319-152419,local,local,300,S,S,A,E,A-S.png,E-S.png,sS,sS,mask-3.png,mask-3.png,s,1,0.9269552000041585,s,1,0.11180819998844527,0.050742499995976686,0.04819240001961589,0.0998531999939587,0.09787240001605824,0.30252219998510554
RSVPLG03,km,20260319-152254,1.0.2,20251113-095759,806,Practice,Both,1,Automatic,main,10,20260319-152424,local,global,750,S,S,A,A,A-S.png,S-A.png,sS,sS,mask-4.png,mask-2.png,s,1,1.1754256999993231,h,0,0.032598899997537956,0.05092169999261387,0.049846400012029335,0.09988530000555329,0.10062250000191852,0.7508737999887671
RSVPLG03,km,20260319-152254,1.0.2,20251113-095759,806,Practice,Both,1,Automatic,main,11,20260319-152429,global,local,300,H,H,A,E,H-A.png,E-H.png,hH,hH,mask-4.png,mask-2.png,h,1,1.14282480001566,s,0,0.8644648999907076,0.05162340000970289,0.05017740000039339,0.09945870001683943,0.1003123999980744,0.30024529999354854
RSVPLG03,km,20260319-152254,1.0.2,20251113-095759,806,Practice,Both,1,Automatic,main,12,20260319-152435,global,global,750,S,H,E,E,S-E.png,H-E.png,sS,hH,mask-3.png,mask-1.png,s,1,1.4754814000043552,h,1,0.08023049999610521,0.050031400023726746,0.04985489998944104,0.1011618000047747,0.10070379998069257,0.7508668000227772
RSVPLG03,km,20260319-152254,1.0.2,20251113-095759,806,Practice,Both,1,Automatic,main,13,20260319-152441,local,local,750,S,S,E,E,E-S.png,E-S.png,sS,sS,mask-4.png,mask-2.png,s,1,1.4007544000050984,s,1,0.06370480000623502,0.05078300001332536,0.05327889998443425,0.10017439999501221,0.1014592999999877,0.7499299000191968
RSVPLG03,km,20260319-152254,1.0.2,20251113-095759,806,Practice,Both,1,Automatic,main,14,20260319-152446,global,global,300,S,H,E,A,S-E.png,H-A.png,sS,hH,mask-4.png,mask-4.png,h,0,1.915865799994208,h,1,0.3845891999953892,0.04912589999730699,0.04700970000703819,0.1005130999838002,0.0992112000240013,0.3018140999774914
RSVPLG03,km,20260319-152254,1.0.2,20251113-095759,806,Practice,Both,1,Automatic,main,15,20260319-152452,global,global,750,H,S,E,E,H-E.png,S-E.png,hH,sS,mask-4.png,mask-3.png,h,1,1.3402959000086412,h,0,0.24075759999686852,0.049899500008905306,0.05156400002306327,0.10094730000128038,0.10085580000304617,0.7504458999901544
RSVPLG03,km,20260319-152254,1.0.2,20251113-095759,806,Practice,Both,1,Automatic,main,16,20260319-152458,global,local,750,H,H,A,E,H-A.png,E-H.png,hH,hH,mask-4.png,mask-2.png,h,1,0.7794548000092618,s,0,0.04909260000567883,0.05017049997695722,0.05172250000759959,0.10019529997953214,0.10030839999672025,0.7508398999925703
RSVPLG03,km,20260319-152606,1.0.2,20251113-095759,806,Experiment,Both,1,Automatic,warmup,1,20260319-152628,global,global,300,S,S,E,E,S-E.png,S-E.png,sS,sS,mask-2.png,mask-1.png,s,1,1.3168328999890946,h,0,0.3027909000229556,0.04722760000731796,0.04978610001853667,0.09693480000714771,0.1003437000035774,0.2975125999946613
RSVPLG03,km,20260319-152606,1.0.2,20251113-095759,806,Experiment,Both,1,Automatic,warmup,2,20260319-152633,local,local,300,H,S,E,A,E-H.png,A-S.png,hH,sS,mask-4.png,mask-3.png,s,0,1.8886096999922302,h,0,0.04884649999439716,0.04867959997500293,0.04954169999109581,0.09961279999697581,0.10043300001416355,0.29886009998153895
RSVPLG03,km,20260319-152606,1.0.2,20251113-095759,806,Experiment,Both,1,Automatic,warmup,3,20260319-152639,global,local,300,S,S,A,A,S-A.png,A-S.png,sS,sS,mask-4.png,mask-2.png,s,1,1.3256340000079945,h,0,0.03408430001582019,0.05003089999081567,0.05094779998762533,0.10072879999643192,0.09884629998123273,0.3003167000133544
RSVPLG03,km,20260319-152606,1.0.2,20251113-095759,806,Experiment,Both,1,Automatic,warmup,4,20260319-152643,global,global,750,H,H,E,A,H-E.png,H-A.png,hH,hH,mask-2.png,mask-4.png,h,1,0.9198884999786969,s,0,0.049831599986646324,0.05123729998013005,0.04911660001380369,0.10130320000462234,0.0990248000016436,0.7500833999947645
RSVPLG03,km,20260319-152606,1.0.2,20251113-095759,806,Experiment,Both,1,Automatic,main,5,20260319-152649,global,local,300,S,H,E,A,S-E.png,A-H.png,sS,hH,mask-4.png,mask-1.png,s,1,1.2054011000145692,h,1,0.04918440000619739,0.050126200017984957,0.04678489998332225,0.10183830000460148,0.09762739998404868,0.30193460002192296
RSVPLG03,km,20260319-152606,1.0.2,20251113-095759,806,Experiment,Both,1,Automatic,main,6,20260319-152653,global,local,750,H,H,E,A,H-E.png,A-H.png,hH,hH,mask-3.png,mask-2.png,h,1,1.0963211999915075,h,1,0.0821146999951452,0.049313199997413903,0.04942910000681877,0.09787729999516159,0.10110880000866018,0.7474043999973219
RSVPLG03,km,20260319-152606,1.0.2,20251113-095759,806,Experiment,Both,1,Automatic,main,7,20260319-152659,local,global,750,S,S,A,E,A-S.png,S-E.png,sS,sS,mask-3.png,mask-1.png,s,1,1.6513881999999285,s,1,0.06615569998393767,0.04999539998243563,0.049825599999167025,0.10091350000584498,0.10000669999863021,0.749200699996436
RSVPLG03,km,20260319-152606,1.0.2,20251113-095759,806,Experiment,Both,1,Automatic,main,8,20260319-152704,global,local,750,H,S,A,A,H-A.png,A-S.png,hH,sS,mask-2.png,mask-3.png,h,1,0.7931670999969356,s,1,0.04860710000502877,0.04965929998434149,0.04944109998177737,0.10084729999653064,0.09773979999590665,0.7514937999949325
RSVPLG03,km,20260319-152606,1.0.2,20251113-095759,806,Experiment,Both,1,Automatic,main,9,20260319-152709,local,local,300,S,S,E,E,E-S.png,E-S.png,sS,sS,mask-4.png,mask-3.png,s,1,1.3160241000005044,s,1,0.06545210001058877,0.04933050001272932,0.050178299978142604,0.10039520001737401,0.09947799998917617,0.29873950002365746
RSVPLG03,km,20260319-152606,1.0.2,20251113-095759,806,Experiment,Both,1,Automatic,main,10,20260319-152714,global,global,750,H,H,A,E,H-A.png,H-E.png,hH,hH,mask-4.png,mask-2.png,h,1,0.607850900007179,h,1,0.1428783999872394,0.050187299988465384,0.04918060000636615,0.1012027999968268,0.10016780000296421,0.7493745999818202
RSVPLG03,km,20260319-152606,1.0.2,20251113-095759,806,Experiment,Both,1,Automatic,main,11,20260319-152719,global,local,750,S,S,E,A,S-E.png,A-S.png,sS,sS,mask-2.png,mask-4.png,s,1,0.9316880000114907,s,1,0.14462720000301488,0.05045750000863336,0.049360200006049126,0.09994039998855442,0.09960950000095181,0.7499121000000741
RSVPLG03,km,20260319-152606,1.0.2,20251113-095759,806,Experiment,Both,1,Automatic,main,12,20260319-152724,local,local,750,H,H,A,E,A-H.png,E-H.png,hH,hH,mask-4.png,mask-1.png,h,1,0.9190849000005983,h,1,0.11279579999973066,0.04908960001193918,0.05247120000422001,0.09804300000541843,0.10079210001276806,0.7465336000022944
RSVPLG03,km,20260319-152606,1.0.2,20251113-095759,806,Experiment,Both,1,Automatic,main,13,20260319-152729,local,global,750,S,S,E,E,E-S.png,S-E.png,sS,sS,mask-4.png,mask-3.png,s,1,0.9534536999999546,s,1,0.12863629998173565,0.04904900002293289,0.049692100001266226,0.09818500000983477,0.09902980001061223,0.7475582000042778
RSVPLG03,km,20260319-152606,1.0.2,20251113-095759,806,Experiment,Both,1,Automatic,main,14,20260319-152734,global,local,750,S,H,E,A,S-E.png,A-H.png,sS,hH,mask-4.png,mask-1.png,s,1,1.002863800007617,h,1,0.03254769998602569,0.049681900010909885,0.049937999981921166,0.09944330001599155,0.10026119998656213,0.7477479000226595
RSVPLG03,km,20260319-152606,1.0.2,20251113-095759,806,Experiment,Both,1,Automatic,main,15,20260319-152740,local,local,300,S,S,E,E,E-S.png,E-S.png,sS,sS,mask-4.png,mask-4.png,s,1,0.8976754000177607,s,1,0.09872449998511001,0.05000289998133667,0.05014760000631213,0.10035829999833368,0.09954239998478442,0.2997717999969609
RSVPLG03,km,20260319-152606,1.0.2,20251113-095759,806,Experiment,Both,1,Automatic,main,16,20260319-152744,local,local,750,H,H,A,E,A-H.png,E-H.png,hH,hH,mask-2.png,mask-4.png,h,1,1.7498008999973536,h,1,0.09407459999783896,0.0499963000183925,0.049842100008390844,0.10159260002546944,0.09999769998830743,0.7492413000145461
RSVPLG03,km,20260319-152606,1.0.2,20251113-095759,806,Experiment,Both,1,Automatic,main,17,20260319-152750,local,global,300,H,H,E,E,E-H.png,H-E.png,hH,hH,mask-4.png,mask-1.png,h,1,0.5778804000001401,h,1,0.13077449999400415,0.04907269999966957,0.051005000015720725,0.09980550000909716,0.09936630001175217,0.29902569999103434
RSVPLG03,km,20260319-152606,1.0.2,20251113-095759,806,Experiment,Both,1,Automatic,main,18,20260319-152754,global,local,300,H,S,E,E,H-E.png,E-S.png,hH,sS,mask-1.png,mask-1.png,h,1,1.2079284000210464,h,0,0.11043540001264773,0.04988370000501163,0.049935100018046796,0.10026239999569952,0.1004016000078991,0.2996821999840904
RSVPLG03,km,20260319-152606,1.0.2,20251113-095759,806,Experiment,Both,1,Automatic,main,19,20260319-152759,local,global,750,H,H,A,E,A-H.png,H-E.png,hH,hH,mask-4.png,mask-4.png,h,1,1.4871356000076048,s,0,1.2644637000048533,0.04992079999647103,0.04911649998393841,0.10047979999217205,0.10078139998950064,0.7491790000058245
RSVPLG03,km,20260319-152606,1.0.2,20251113-095759,806,Experiment,Both,1,Automatic,main,20,20260319-152806,local,local,750,S,S,A,A,A-S.png,A-S.png,sS,sS,mask-1.png,mask-3.png,s,1,1.371104000019841,s,1,0.32049779998487793,0.05037770001217723,0.051126400008797646,0.1002963000210002,0.09998830000404269,0.7479479000030551
RSVPLG03,km,20260319-152606,1.0.2,20251113-095759,806,Experiment,Both,1,Automatic,main,21,20260319-152812,global,global,750,S,S,E,E,S-E.png,S-E.png,sS,sS,mask-1.png,mask-2.png,s,1,0.76411280001048,h,0,0.33891840002615936,0.04910139998537488,0.04919099999824539,0.09933999998611398,0.10020040001836605,0.7490623999910895
RSVPLG03,km,20260319-152606,1.0.2,20251113-095759,806,Experiment,Both,1,Automatic,main,22,20260319-152817,local,local,300,H,S,A,E,A-H.png,E-S.png,hH,sS,mask-2.png,mask-4.png,h,1,0.9552408000163268,s,1,0.01737929999944754,0.05011229999945499,0.048695200006477535,0.09858920000260696,0.10020809998968616,0.29965219998848625
RSVPLG03,km,20260319-152606,1.0.2,20251113-095759,806,Experiment,Both,1,Automatic,main,23,20260319-152822,local,global,750,H,S,A,E,A-H.png,S-E.png,hH,sS,mask-3.png,mask-3.png,h,1,0.8208118000184186,s,1,0.033209499990334734,0.04846869999892078,0.04959939999389462,0.10007869999390095,0.1001793000032194,0.7487613999983296
RSVPLG03,km,20260319-152606,1.0.2,20251113-095759,806,Experiment,Both,1,Automatic,main,24,20260319-152827,local,local,750,S,S,E,A,E-S.png,A-S.png,sS,sS,mask-4.png,mask-4.png,s,1,0.5194036999891978,s,1,0.13959710000199266,0.04994900000747293,0.05104749999009073,0.10028770001372322,0.10018280000076629,0.7491348000185098
RSVPLG03,km,20260319-152606,1.0.2,20251113-095759,806,Experiment,Both,1,Automatic,main,25,20260319-152831,global,global,750,H,H,E,A,H-E.png,H-A.png,hH,hH,mask-3.png,mask-2.png,h,1,0.5789515000069514,h,1,0.1595177999988664,0.04910740000195801,0.04856949998065829,0.0992231999989599,0.10026419998030178,0.748823200003244
RSVPLG03,km,20260319-152606,1.0.2,20251113-095759,806,Experiment,Both,1,Automatic,main,26,20260319-152841,global,global,750,S,H,E,E,S-E.png,H-E.png,sS,hH,mask-2.png,mask-1.png,s,1,0.7151046000071801,h,1,0.03204140000161715,0.049348700005793944,0.05056530001456849,0.09828040000866167,0.09999089999473654,0.7479522000066936
RSVPLG03,km,20260319-152606,1.0.2,20251113-095759,806,Experiment,Both,1,Automatic,main,27,20260319-152846,local,global,300,H,H,A,A,A-H.png,H-A.png,hH,hH,mask-4.png,mask-2.png,h,1,0.9699032999924384,h,1,0.14320150000276044,0.05095410000649281,0.048332400008803234,0.09884050002438016,0.09773730000597425,0.3010448999993969
RSVPLG03,km,20260319-152606,1.0.2,20251113-095759,806,Experiment,Both,1,Automatic,main,28,20260319-152851,local,global,300,H,S,E,A,E-H.png,S-A.png,hH,sS,mask-2.png,mask-4.png,h,1,0.7461034000152722,s,1,0.015380700002424419,0.05024019998381846,0.05132570001296699,0.0995851999905426,0.10133950001909398,0.29847419998259284
RSVPLG03,km,20260319-152606,1.0.2,20251113-095759,806,Experiment,Both,1,Automatic,main,29,20260319-152855,local,local,750,H,H,E,A,E-H.png,A-H.png,hH,hH,mask-3.png,mask-2.png,h,1,0.31045769999036565,h,1,0.14043369999853894,0.049970799998845905,0.04950169997755438,0.099226299993461,0.09972019999986514,0.749382300011348
RSVPLG03,km,20260319-152606,1.0.2,20251113-095759,806,Experiment,Both,1,Automatic,main,30,20260319-152900,global,global,750,S,H,E,E,S-E.png,H-E.png,sS,hH,mask-4.png,mask-2.png,s,1,0.6327565000101458,h,1,0.07771280000451952,0.04935329998261295,0.049687599996104836,0.099129099980928,0.09880189999239519,0.7484962999878917
RSVPLG03,km,20260319-152606,1.0.2,20251113-095759,806,Experiment,Both,1,Automatic,main,31,20260319-152904,global,local,300,S,H,A,A,S-A.png,A-H.png,sS,hH,mask-4.png,mask-3.png,s,1,0.8247961000015493,h,1,0.0015475999971386045,0.050369200005661696,0.052121999993687496,0.09927539998898283,0.1033471999980975,0.2991358000144828
RSVPLG03,km,20260319-152606,1.0.2,20251113-095759,806,Experiment,Both,1,Automatic,main,32,20260319-152909,global,local,750,S,S,A,A,S-A.png,A-S.png,sS,sS,mask-2.png,mask-4.png,s,1,0.7447495999804232,s,1,0.1615110000129789,0.04969280000659637,0.050364700000500306,0.10063260002061725,0.09966209999402054,0.7494771000056062
RSVPLG03,km,20260319-152606,1.0.2,20251113-095759,806,Experiment,Both,1,Automatic,main,33,20260319-152914,local,global,300,H,H,E,A,E-H.png,H-A.png,hH,hH,mask-1.png,mask-1.png,h,1,1.3823370999889448,h,1,0.11069649999262765,0.046933700010413304,0.04910299999755807,0.09779699999489821,0.098198699997738,0.2985581000102684
RSVPLG03,km,20260319-152606,1.0.2,20251113-095759,806,Experiment,Both,1,Automatic,main,34,20260319-152919,local,global,300,H,S,E,A,E-H.png,S-A.png,hH,sS,mask-1.png,mask-3.png,h,1,1.1049267000053078,s,1,0.017556699982378632,0.05013780001900159,0.0501704000052996,0.10009320001699962,0.09899680002126843,0.29970390000380576
RSVPLG03,km,20260319-152606,1.0.2,20251113-095759,806,Experiment,Both,1,Automatic,main,35,20260319-152924,global,local,300,S,S,E,E,S-E.png,E-S.png,sS,sS,mask-1.png,mask-4.png,s,1,1.1467270000139251,s,1,0.28950839999015443,0.04899469998781569,0.04969630000414327,0.10017859999788925,0.10061600001063198,0.29855269999825396
RSVPLG03,km,20260319-152606,1.0.2,20251113-095759,806,Experiment,Both,1,Automatic,main,36,20260319-152929,global,global,300,S,S,A,E,S-A.png,S-E.png,sS,sS,mask-3.png,mask-3.png,s,1,0.8345894999802113,h,0,0.0494067000108771,0.05129880001186393,0.04989399999612942,0.10051230000681244,0.10071509997942485,0.29893650001031347
RSVPLG03,km,20260319-152606,1.0.2,20251113-095759,806,Experiment,Both,1,Automatic,main,37,20260319-152933,global,local,300,H,S,A,A,H-A.png,A-S.png,hH,sS,mask-3.png,mask-2.png,h,1,0.6503167000191752,s,1,1.3110625999979675,0.04862330001196824,0.04990000001271255,0.09889679998741485,0.10112099998514168,0.29849169999943115
RSVPLG03,km,20260319-152606,1.0.2,20251113-095759,806,Experiment,Both,1,Automatic,main,38,20260319-152939,global,global,750,H,S,A,A,H-A.png,S-A.png,hH,sS,mask-4.png,mask-1.png,h,1,0.7293962000112515,s,1,0.03282150000450201,0.04954959999304265,0.04716139999800362,0.09999299998162314,0.0969477999897208,0.750825299997814
RSVPLG03,km,20260319-152606,1.0.2,20251113-095759,806,Experiment,Both,1,Automatic,main,39,20260319-152944,local,global,750,H,S,A,E,A-H.png,S-E.png,hH,sS,mask-3.png,mask-4.png,h,1,1.3326998999982607,h,0,0.11290630002622493,0.04962800000794232,0.04930819998844527,0.10066019999794662,0.09942459999001585,0.7504198999959044
RSVPLG03,km,20260319-152606,1.0.2,20251113-095759,806,Experiment,Both,1,Automatic,main,40,20260319-152949,global,global,300,H,H,A,A,H-A.png,H-A.png,hH,hH,mask-3.png,mask-4.png,h,1,0.732550499989884,h,1,0.09284779999870807,0.04926609998801723,0.04975939998985268,0.09736949999933131,0.10024780000094324,0.2990955999994185
RSVPLG03,km,20260319-152606,1.0.2,20251113-095759,806,Experiment,Both,1,Automatic,main,41,20260319-152953,local,local,750,S,S,A,E,A-S.png,E-S.png,sS,sS,mask-1.png,mask-3.png,s,1,0.6193518999789376,s,1,0.11250590000418015,0.05162359998212196,0.049581200000829995,0.1002151999855414,0.09913769998820499,0.74930029999814
RSVPLG03,km,20260319-152606,1.0.2,20251113-095759,806,Experiment,Both,1,Automatic,main,42,20260319-152958,local,global,300,S,S,E,E,E-S.png,S-E.png,sS,sS,mask-3.png,mask-4.png,s,1,0.8243204000173137,h,0,0.03466259999549948,0.04995339998276904,0.049510200013173744,0.09916069998871535,0.10028250000323169,0.29935749998549
RSVPLG03,km,20260319-152606,1.0.2,20251113-095759,806,Experiment,Both,1,Automatic,main,43,20260319-153003,global,global,300,H,S,A,E,H-A.png,S-E.png,hH,sS,mask-2.png,mask-1.png,h,1,0.9100159000081476,h,0,0.17853289999766275,0.04988390000653453,0.05020229998626746,0.09953590002260171,0.0991261999879498,0.29941110001527704
RSVPLG03,km,20260319-152606,1.0.2,20251113-095759,806,Experiment,Both,1,Automatic,main,44,20260319-153007,local,local,300,H,H,E,E,E-H.png,E-H.png,hH,hH,mask-4.png,mask-3.png,h,1,1.3677578000060748,s,0,0.04772880001110025,0.048644900001818314,0.05077440000604838,0.10003130001132376,0.10114780001458712,0.29822080000303686
RSVPLG03,km,20260319-152606,1.0.2,20251113-095759,806,Experiment,Both,1,Automatic,main,45,20260319-153013,local,local,300,S,H,E,E,E-S.png,E-H.png,sS,hH,mask-4.png,mask-1.png,s,1,0.9838856999995187,h,1,0.033654099999694154,0.04992389999097213,0.04892120001022704,0.0999422000022605,0.09895480002160184,0.2990679999929853
RSVPLG03,km,20260319-152606,1.0.2,20251113-095759,806,Experiment,Both,1,Automatic,main,46,20260319-153017,global,global,300,S,H,E,E,S-E.png,H-E.png,sS,hH,mask-3.png,mask-1.png,s,1,0.8779513000044972,s,0,0.38561629998730496,0.048862600000575185,0.049075799994170666,0.0990518000035081,0.09916549999616109,0.3000373000104446
RSVPLG03,km,20260319-152606,1.0.2,20251113-095759,806,Experiment,Both,1,Automatic,main,47,20260319-153022,global,local,750,H,S,A,E,H-A.png,E-S.png,hH,sS,mask-2.png,mask-3.png,h,1,0.7898313000041526,h,0,0.09707409999100491,0.049582499981625006,0.048041899979580194,0.09952369998791255,0.09783639997476712,0.7500340999977197
RSVPLG03,km,20260319-152606,1.0.2,20251113-095759,806,Experiment,Both,1,Automatic,main,48,20260319-153027,global,global,300,H,S,E,E,H-E.png,S-E.png,hH,sS,mask-4.png,mask-3.png,h,1,0.9706874999974389,s,1,0.1281375999969896,0.05019549999269657,0.05141929999808781,0.1011012000089977,0.09981110002263449,0.29862789998878725
RSVPLG03,km,20260319-152606,1.0.2,20251113-095759,806,Experiment,Both,1,Automatic,main,49,20260319-153032,local,local,300,S,H,E,E,E-S.png,E-H.png,sS,hH,mask-2.png,mask-3.png,s,1,0.6687698000168893,h,1,0.002145899983588606,0.04973299999255687,0.05048579999129288,0.09952639997936785,0.10059409998939373,0.3001963999995496
RSVPLG03,km,20260319-152606,1.0.2,20251113-095759,806,Experiment,Both,1,Automatic,main,50,20260319-153036,local,local,750,S,S,A,A,A-S.png,A-S.png,sS,sS,mask-4.png,mask-4.png,s,1,0.4916842000093311,s,1,0.05812770000193268,0.05190670001320541,0.05058650000137277,0.1028789000120014,0.10129290001350455,0.7493961000000127
RSVPLG03,km,20260319-152606,1.0.2,20251113-095759,806,Experiment,Both,1,Automatic,main,51,20260319-153044,local,local,750,H,H,A,E,A-H.png,E-H.png,hH,hH,mask-3.png,mask-2.png,h,1,0.9768249000189826,h,1,0.11339750001206994,0.04959700000472367,0.05006350000621751,0.09887400001753122,0.10032539998064749,0.7476327000185847
RSVPLG03,km,20260319-152606,1.0.2,20251113-095759,806,Experiment,Both,1,Automatic,main,52,20260319-153049,global,local,750,H,S,E,A,H-E.png,A-S.png,hH,sS,mask-4.png,mask-2.png,h,1,2.909776899992721,s,1,0.07933449998381548,0.05056159998639487,0.049228299991227686,0.10044169999309815,0.1012615000072401,0.7481918999983463
RSVPLG03,km,20260319-152606,1.0.2,20251113-095759,806,Experiment,Both,1,Automatic,main,53,20260319-153057,global,local,300,S,S,E,E,S-E.png,E-S.png,sS,sS,mask-2.png,mask-4.png,s,1,0.7424602000101004,s,1,0.0820848000003025,0.04789409998920746,0.05038619998958893,0.09911280000233091,0.10004069999558851,0.29872650001198053
RSVPLG03,km,20260319-152606,1.0.2,20251113-095759,806,Experiment,Both,1,Automatic,main,54,20260319-153101,global,local,300,S,H,E,E,S-E.png,E-H.png,sS,hH,mask-1.png,mask-1.png,s,1,1.3295980999828316,h,1,0.06510490001528524,0.04878810001537204,0.050917599990498275,0.09935370000312105,0.10117569999420084,0.2986036000074819
RSVPLG03,km,20260319-152606,1.0.2,20251113-095759,806,Experiment,Both,1,Automatic,main,55,20260319-153106,global,local,750,H,S,A,A,H-A.png,A-S.png,hH,sS,mask-2.png,mask-2.png,h,1,0.6232670999888796,h,0,0.08172380001633428,0.04834769997978583,0.047253500000806525,0.09964889998082072,0.09694180000224151,0.7498990999883972
RSVPLG03,km,20260319-152606,1.0.2,20251113-095759,806,Experiment,Both,1,Automatic,main,56,20260319-153111,local,global,300,H,S,E,E,E-H.png,S-E.png,hH,sS,mask-3.png,mask-4.png,h,1,0.6972984000167344,h,0,0.0932965999818407,0.0485478000191506,0.04990040001575835,0.09940430001006462,0.09865050000371411,0.2995580999995582
RSVPLG03,km,20260319-152606,1.0.2,20251113-095759,806,Experiment,Both,1,Automatic,main,57,20260319-153115,global,global,300,H,H,E,A,H-E.png,H-A.png,hH,hH,mask-4.png,mask-2.png,h,1,0.986634500004584,h,1,0.0972652000200469,0.0488766000198666,0.049418000009609386,0.09957780002150685,0.09884900000179186,0.30071650000172667
RSVPLG03,km,20260319-152606,1.0.2,20251113-095759,806,Experiment,Both,1,Automatic,main,58,20260319-153120,local,global,750,S,S,E,A,E-S.png,S-A.png,sS,sS,mask-4.png,mask-4.png,s,1,2.217950899997959,s,1,0.4017751000064891,0.050071299978299066,0.049679100018693134,0.09888959999079816,0.09993340002256446,0.7485832999809645
RSVPLG03,km,20260319-152606,1.0.2,20251113-095759,806,Experiment,Both,1,Automatic,main,59,20260319-153127,global,local,750,S,S,A,A,S-A.png,A-S.png,sS,sS,mask-4.png,mask-4.png,h,0,0.5821767000015825,h,0,0.09867639999720268,0.04999979998683557,0.04887820000294596,0.09921769998618402,0.10011759999906644,0.748545100010233
RSVPLG03,km,20260319-152606,1.0.2,20251113-095759,806,Experiment,Both,1,Automatic,main,60,20260319-153131,global,local,300,S,H,E,A,S-E.png,A-H.png,sS,hH,mask-4.png,mask-2.png,s,1,0.803935999982059,h,1,0.0503010000102222,0.04977730000973679,0.051011000003200024,0.10042210001847707,0.09927070001140237,0.30089569999836385
RSVPLG03,km,20260319-152606,1.0.2,20251113-095759,806,Experiment,Both,1,Automatic,main,61,20260319-153136,global,global,750,S,H,E,A,S-E.png,H-A.png,sS,hH,mask-3.png,mask-3.png,s,1,0.8304344000061974,s,0,0.08232869999483228,0.04923819997929968,0.0502349000016693,0.10003479997976683,0.09881709999172017,0.748492399987299
RSVPLG03,km,20260319-152606,1.0.2,20251113-095759,806,Experiment,Both,1,Automatic,main,62,20260319-153141,local,local,750,S,H,E,E,E-S.png,E-H.png,sS,hH,mask-1.png,mask-2.png,s,1,1.4937841999926604,h,1,0.11212360000354238,0.0495379000203684,0.050067000003764406,0.09880530001828447,0.10017399999196641,0.7478793000045698
RSVPLG03,km,20260319-152606,1.0.2,20251113-095759,806,Experiment,Both,1,Automatic,main,63,20260319-153146,global,global,300,H,S,A,A,H-A.png,S-A.png,hH,sS,mask-3.png,mask-1.png,h,1,0.5731733000138775,h,0,0.0955279000045266,0.04943109999294393,0.049828399991383776,0.09842009999556467,0.098299200006295,0.299872100003995
RSVPLG03,km,20260319-152606,1.0.2,20251113-095759,806,Experiment,Both,1,Automatic,main,64,20260319-153151,local,local,750,H,S,E,E,E-H.png,E-S.png,hH,sS,mask-3.png,mask-4.png,h,1,0.7671759000222664,s,1,0.03370460000587627,0.048465400002896786,0.0501790999842342,0.09950879999087192,0.09884769999189302,0.7478030000056606
RSVPLG03,km,20260319-152606,1.0.2,20251113-095759,806,Experiment,Both,1,Automatic,main,65,20260319-153156,local,local,750,S,H,A,E,A-S.png,E-H.png,sS,hH,mask-1.png,mask-2.png,s,1,0.3361840999859851,h,1,0.08210060000419617,0.0491770000080578,0.04879519998212345,0.10074749999330379,0.09969969998928718,0.7493212000117637
RSVPLG03,km,20260319-152606,1.0.2,20251113-095759,806,Experiment,Both,1,Automatic,main,66,20260319-153200,local,global,750,H,H,E,A,E-H.png,H-A.png,hH,hH,mask-1.png,mask-4.png,h,1,1.2317579000082333,s,0,0.5621035000076517,0.049023900006432086,0.05028739999397658,0.09963879999122582,0.1010658000013791,0.7477493000042159
RSVPLG03,km,20260319-152606,1.0.2,20251113-095759,806,Experiment,Both,1,Automatic,main,67,20260319-153206,global,local,300,H,H,E,E,H-E.png,E-H.png,hH,hH,mask-2.png,mask-3.png,h,1,0.919505099998787,h,1,0.09753970001474954,0.05052600000635721,0.051499799999874085,0.10004140000091866,0.10150920000160113,0.29891320000751875
RSVPLG03,km,20260319-152606,1.0.2,20251113-095759,806,Experiment,Both,1,Automatic,main,68,20260319-153210,local,global,750,S,H,E,E,E-S.png,H-E.png,sS,hH,mask-3.png,mask-2.png,s,1,1.4888287000067066,h,1,0.03273510001599789,0.051062600017758086,0.04949189999024384,0.09957530000247061,0.09930359999998473,0.7494375000242144
RSVPLG03,km,20260319-152606,1.0.2,20251113-095759,806,Experiment,Both,1,Automatic,main,69,20260319-153216,global,local,750,H,S,A,A,H-A.png,A-S.png,hH,sS,mask-3.png,mask-3.png,h,1,2.1804017999966163,s,1,0.5887529000174254,0.049253499979386106,0.04900110000744462,0.1007753000012599,0.09941299998899922,0.749196499993559
RSVPLG03,km,20260319-152606,1.0.2,20251113-095759,806,Experiment,Both,1,Automatic,main,70,20260319-153223,local,global,300,S,S,E,A,E-S.png,S-A.png,sS,sS,mask-2.png,mask-4.png,s,1,1.4222701999824494,h,0,0.08011390001047403,0.05014340000343509,0.05040290000033565,0.09891060000518337,0.0998775000043679,0.29944289999548346
RSVPLG03,km,20260319-152606,1.0.2,20251113-095759,806,Experiment,Both,1,Automatic,main,71,20260319-153228,local,local,300,S,S,A,A,A-S.png,A-S.png,sS,sS,mask-3.png,mask-2.png,s,1,0.5579281999962404,s,1,0.08198280000942759,0.05128429998876527,0.05008220000308938,0.10036240000044927,0.10194429999683052,0.2999202999926638
RSVPLG03,km,20260319-152606,1.0.2,20251113-095759,806,Experiment,Both,1,Automatic,main,72,20260319-153232,local,local,300,S,H,A,E,A-S.png,E-H.png,sS,hH,mask-1.png,mask-2.png,s,1,0.9132853999908548,h,1,0.014805500017246231,0.05066060001263395,0.04901460002292879,0.10126779999700375,0.09899540001060814,0.3014829999883659
RSVPLG03,km,20260319-152606,1.0.2,20251113-095759,806,Experiment,Both,1,Automatic,main,73,20260319-153237,global,local,750,S,S,A,E,S-A.png,E-S.png,sS,sS,mask-1.png,mask-1.png,s,1,0.5353258000104688,s,1,0.09603020001668483,0.05067930000950582,0.051256700011435896,0.10049579999758862,0.10061039999709465,0.7482480999897234
RSVPLG03,km,20260319-152606,1.0.2,20251113-095759,806,Experiment,Both,1,Automatic,main,74,20260319-153242,global,global,750,H,S,E,E,H-E.png,S-E.png,hH,sS,mask-3.png,mask-1.png,h,1,0.8102008999849204,s,1,0.04691919998731464,0.04917479999130592,0.0496178999892436,0.09932109998771921,0.10129479999886826,0.7486008999985643
RSVPLG03,km,20260319-152606,1.0.2,20251113-095759,806,Experiment,Both,1,Automatic,main,75,20260319-153247,local,global,750,S,S,A,E,A-S.png,S-E.png,sS,sS,mask-2.png,mask-2.png,s,1,0.6343602999986615,h,0,0.016643399983877316,0.04949849998229183,0.05084129999158904,0.10074819999863394,0.10002010001335293,0.7482936999876983
RSVPLG03,km,20260319-152606,1.0.2,20251113-095759,806,Experiment,Both,1,Automatic,main,76,20260319-153253,global,local,300,S,S,E,E,S-E.png,E-S.png,sS,sS,mask-3.png,mask-3.png,s,1,0.7926826000039,h,0,0.2731350999965798,0.04913100000703707,0.05045350000727922,0.0991548000019975,0.10020620000432245,0.2980785999970976
RSVPLG03,km,20260319-152606,1.0.2,20251113-095759,806,Experiment,Both,1,Automatic,main,77,20260319-153257,global,local,300,S,H,E,A,S-E.png,A-H.png,sS,hH,mask-3.png,mask-4.png,s,1,1.6738539000216406,h,1,0.02723330000299029,0.052419800020288676,0.05111400000168942,0.10130700000445358,0.10128000000258908,0.2993667999980971
RSVPLG03,km,20260319-152606,1.0.2,20251113-095759,806,Experiment,Both,1,Automatic,main,78,20260319-153303,local,global,300,S,H,A,E,A-S.png,H-E.png,sS,hH,mask-2.png,mask-1.png,s,1,1.5310197000217158,s,0,0.07736819999990985,0.049745399999665096,0.04994149997946806,0.10007850002148189,0.10002539999550208,0.29941150001832284
RSVPLG03,km,20260319-152606,1.0.2,20251113-095759,806,Experiment,Both,1,Automatic,main,79,20260319-153308,local,global,750,S,S,A,E,A-S.png,S-E.png,sS,sS,mask-2.png,mask-1.png,s,1,2.4796920999942813,h,0,0.01645779999671504,0.04903990001184866,0.04989189998013899,0.09847040000022389,0.09957059999578632,0.749212200025795
RSVPLG03,km,20260319-152606,1.0.2,20251113-095759,806,Experiment,Both,1,Automatic,main,80,20260319-153314,local,local,300,S,S,A,A,A-S.png,A-S.png,sS,sS,mask-2.png,mask-1.png,s,1,0.5050755999982357,s,1,0.06325029997969978,0.04880140000022948,0.05041880000499077,0.09782890000496991,0.10060870001325384,0.29707369999960065
RSVPLG03,km,20260319-152606,1.0.2,20251113-095759,806,Experiment,Both,1,Automatic,main,81,20260319-153319,global,global,750,H,S,A,A,H-A.png,S-A.png,hH,sS,mask-2.png,mask-4.png,h,1,0.7922250999836251,s,1,0.03340539999771863,0.049776600004406646,0.05031730001792312,0.10080320000997745,0.09966450001229532,0.7496056999952998
RSVPLG03,km,20260319-152606,1.0.2,20251113-095759,806,Experiment,Both,1,Automatic,main,82,20260319-153324,local,local,750,H,S,E,E,E-H.png,E-S.png,hH,sS,mask-2.png,mask-3.png,s,0,1.018125400005374,s,1,0.1416595999908168,0.0487925999914296,0.05050959999789484,0.09915309998905286,0.09991160000208765,0.7482378999993671
RSVPLG03,km,20260319-152606,1.0.2,20251113-095759,806,Experiment,Both,1,Automatic,main,83,20260319-153329,global,global,300,S,H,A,A,S-A.png,H-A.png,sS,hH,mask-1.png,mask-3.png,s,1,1.0372667000046931,h,1,0.027700600010575727,0.05086630000732839,0.050821400014683604,0.10057290000258945,0.10067720001097769,0.29909879999468103
RSVPLG03,km,20260319-152606,1.0.2,20251113-095759,806,Experiment,Both,1,Automatic,main,84,20260319-153333,global,global,300,H,S,A,A,H-A.png,S-A.png,hH,sS,mask-4.png,mask-3.png,h,1,0.8208925000217278,s,1,0.0018604999931994826,0.050381100008962676,0.04983200001879595,0.09995300002628937,0.10018929999205284,0.2987643000087701
RSVPLG03,km,20260319-152606,1.0.2,20251113-095759,806,Experiment,Both,1,Automatic,main,85,20260319-153338,global,local,300,S,H,A,A,S-A.png,A-H.png,sS,hH,mask-1.png,mask-1.png,s,1,1.5736729000054765,h,1,0.6844748000148684,0.04932430002372712,0.04998159999377094,0.0993445000203792,0.09949300001608208,0.30070930000511
RSVPLG03,km,20260319-152606,1.0.2,20251113-095759,806,Experiment,Both,1,Automatic,main,86,20260319-153344,local,local,300,H,H,E,E,E-H.png,E-H.png,hH,hH,mask-3.png,mask-1.png,h,1,0.7276953000109643,s,0,0.12856640000245534,0.05053599999519065,0.049240499996813014,0.10068730000057258,0.09894480000366457,0.3015925999789033
RSVPLG03,km,20260319-152606,1.0.2,20251113-095759,806,Experiment,Both,1,Automatic,main,87,20260319-153348,global,global,750,S,S,E,E,S-E.png,S-E.png,sS,sS,mask-4.png,mask-4.png,s,1,0.8735247000004165,s,1,0.06253910000668839,0.05062930000713095,0.05078970000613481,0.10179370001424104,0.09921109999413602,0.7499511000060011
RSVPLG03,km,20260319-152606,1.0.2,20251113-095759,806,Experiment,Both,1,Automatic,main,88,20260319-153353,global,local,750,H,S,A,E,H-A.png,E-S.png,hH,sS,mask-4.png,mask-2.png,h,1,0.2619428999896627,h,0,0.2562202000117395,0.05008459999226034,0.0504085999855306,0.09901770000578836,0.09969390000333078,0.7480862000084016
RSVPLG03,km,20260319-152606,1.0.2,20251113-095759,806,Experiment,Both,1,Automatic,main,89,20260319-153358,local,local,300,H,S,E,E,E-H.png,E-S.png,hH,sS,mask-3.png,mask-3.png,h,1,0.9413927000132389,s,1,0.0797319000121206,0.05004679999547079,0.04965919998358004,0.10180020000552759,0.0995859999966342,0.30006790001061745
RSVPLG03,km,20260319-152606,1.0.2,20251113-095759,806,Experiment,Both,1,Automatic,main,90,20260319-153403,local,global,300,S,S,E,A,E-S.png,S-A.png,sS,sS,mask-1.png,mask-2.png,s,1,1.1893249000131618,h,0,0.09648000000743195,0.049151400016853586,0.04974670000956394,0.10048829999868758,0.0997728000220377,0.3005745999980718
RSVPLG03,km,20260319-152606,1.0.2,20251113-095759,806,Experiment,Both,1,Automatic,main,91,20260319-153407,global,global,750,H,S,E,E,H-E.png,S-E.png,hH,sS,mask-2.png,mask-1.png,h,1,0.6063232999877073,s,1,0.04672710000886582,0.051032999996095896,0.05112079999526031,0.10139970001182519,0.10130619999836199,0.7486091000027955
RSVPLG03,km,20260319-152606,1.0.2,20251113-095759,806,Experiment,Both,1,Automatic,main,92,20260319-153412,global,global,300,S,H,E,A,S-E.png,H-A.png,sS,hH,mask-1.png,mask-1.png,s,1,0.554668099997798,s,0,0.09658219999982975,0.04980730000534095,0.04975070001091808,0.09849319999921136,0.10135519999312237,0.29864150000503287
RSVPLG03,km,20260319-152606,1.0.2,20251113-095759,806,Experiment,Both,1,Automatic,main,93,20260319-153416,global,global,300,H,H,A,E,H-A.png,H-E.png,hH,hH,mask-1.png,mask-4.png,h,1,0.5576409000204876,s,0,0.17715720002888702,0.05117330001667142,0.050444900000002235,0.10024660002090968,0.10038050002185628,0.2984084000054281
RSVPLG03,km,20260319-152606,1.0.2,20251113-095759,806,Experiment,Both,1,Automatic,main,94,20260319-153421,local,global,300,H,H,E,A,E-H.png,H-A.png,hH,hH,mask-4.png,mask-4.png,h,1,0.5999054000130855,h,1,0.12705079998704605,0.049480500019853935,0.04898039999534376,0.10026530001778156,0.09904929998447187,0.300026600016281
RSVPLG03,km,20260319-152606,1.0.2,20251113-095759,806,Experiment,Both,1,Automatic,main,95,20260319-153425,global,global,300,H,S,E,A,H-E.png,S-A.png,hH,sS,mask-2.png,mask-2.png,h,1,0.3737693000002764,s,1,0.01647679999587126,0.050358999986201525,0.05142670002533123,0.09993119997670874,0.10054420001688413,0.30004799997550435
RSVPLG03,km,20260319-152606,1.0.2,20251113-095759,806,Experiment,Both,1,Automatic,main,96,20260319-153429,local,local,300,S,S,A,A,A-S.png,A-S.png,sS,sS,mask-1.png,mask-2.png,s,1,0.43609259999357164,s,1,0.07855110001401044,0.05077999999048188,0.05117049999535084,0.10049569999682717,0.0989967999921646,0.30023069999879226
RSVPLG03,km,20260319-152606,1.0.2,20251113-095759,806,Experiment,Both,1,Automatic,main,97,20260319-153433,global,global,750,H,S,A,A,H-A.png,S-A.png,hH,sS,mask-3.png,mask-2.png,h,1,0.7313302000111435,s,1,0.002317700011190027,0.0513982999837026,0.050422599975718185,0.10052539999014698,0.10060279999743216,0.7490898999967612
RSVPLG03,km,20260319-152606,1.0.2,20251113-095759,806,Experiment,Both,1,Automatic,main,98,20260319-153438,local,global,750,S,S,A,E,A-S.png,S-E.png,sS,sS,mask-4.png,mask-4.png,s,1,0.5091057999816258,s,1,0.0696215000061784,0.04971990000922233,0.050333899998804554,0.1004681000194978,0.09928110000328161,0.7488984000228811
RSVPLG03,km,20260319-152606,1.0.2,20251113-095759,806,Experiment,Both,1,Automatic,main,99,20260319-153443,local,global,300,S,S,E,E,E-S.png,S-E.png,sS,sS,mask-3.png,mask-4.png,s,1,0.650782699987758,s,1,0.1841098000004422,0.05120450002141297,0.051197600027080625,0.09974659999716096,0.10057110001798719,0.2995613999955822
RSVPLG03,km,20260319-152606,1.0.2,20251113-095759,806,Experiment,Both,1,Automatic,main,100,20260319-153447,local,global,750,S,S,A,E,A-S.png,S-E.png,sS,sS,mask-2.png,mask-3.png,s,1,1.2445453999971505,s,1,0.38588549999985844,0.05078799999319017,0.04722119998768903,0.10092989998520352,0.0987672999908682,0.7506059999868739
RSVPLG03,km,20260319-153515,1.0.2,20251113-095759,806,Experiment,Both,1,Automatic,warmup,1,20260319-153536,global,global,750,H,S,A,E,H-A.png,S-E.png,hH,sS,mask-3.png,mask-4.png,h,1,0.7662861999997403,s,1,0.033033299987437204,0.05035799997858703,0.04965749999973923,0.10051649998058565,0.1009351999964565,0.7501431999844499
RSVPLG03,km,20260319-153515,1.0.2,20251113-095759,806,Experiment,Both,1,Automatic,warmup,2,20260319-153541,local,global,750,S,H,A,E,A-S.png,H-E.png,sS,hH,mask-3.png,mask-1.png,s,1,0.921485600003507,h,1,0.02620929997647181,0.05067980001331307,0.049972099979640916,0.09950189999653958,0.10102549998555332,0.7496014000207651
RSVPLG03,km,20260319-153515,1.0.2,20251113-095759,806,Experiment,Both,1,Automatic,warmup,3,20260319-153546,local,global,300,H,S,A,E,A-H.png,S-E.png,hH,sS,mask-2.png,mask-3.png,h,1,0.5532106999889947,h,0,0.09791010001208633,0.04966449999483302,0.049449099984485656,0.10029889998259023,0.09853159997146577,0.3003163000103086
RSVPLG03,km,20260319-153515,1.0.2,20251113-095759,806,Experiment,Both,1,Automatic,warmup,4,20260319-153551,global,local,750,H,H,E,A,H-E.png,A-H.png,hH,hH,mask-3.png,mask-3.png,h,1,0.5434220000170171,h,1,0.20917539999936707,0.04906039999332279,0.0499689000134822,0.0997837999893818,0.10042269999394193,0.7493553999811411
RSVPLG03,km,20260319-153515,1.0.2,20251113-095759,806,Experiment,Both,1,Automatic,main,5,20260319-153555,local,global,300,S,H,E,A,E-S.png,H-A.png,sS,hH,mask-3.png,mask-4.png,s,1,0.68518229998881,h,1,0.19318750000093132,0.051935499999672174,0.04888670000946149,0.10084190001362003,0.0994743000192102,0.3016295999987051
RSVPLG03,km,20260319-153515,1.0.2,20251113-095759,806,Experiment,Both,1,Automatic,main,6,20260319-153600,global,global,300,H,S,A,E,H-A.png,S-E.png,hH,sS,mask-3.png,mask-4.png,h,1,0.5797616000054404,s,1,0.06486340000992641,0.04993149999063462,0.05079569999361411,0.09851390001131222,0.10086159998900257,0.2990200000058394
RSVPLG03,km,20260319-153515,1.0.2,20251113-095759,806,Experiment,Both,1,Automatic,main,7,20260319-153604,local,local,300,S,S,A,E,A-S.png,E-S.png,sS,sS,mask-3.png,mask-4.png,s,1,0.7255141000205185,h,0,0.6309342999884393,0.04797129999496974,0.05200620001414791,0.09938179998425767,0.10084250001818873,0.29840909998165444
RSVPLG03,km,20260319-153515,1.0.2,20251113-095759,806,Experiment,Both,1,Automatic,main,8,20260319-153609,local,global,750,H,H,A,E,A-H.png,H-E.png,hH,hH,mask-3.png,mask-2.png,h,1,0.9117235000012442,h,1,0.11254969998844899,0.04968440000084229,0.050502800004323944,0.10006129997782409,0.10023630000068806,0.7499223999911919
RSVPLG03,km,20260319-153515,1.0.2,20251113-095759,806,Experiment,Both,1,Automatic,main,9,20260319-153614,global,local,300,S,S,A,A,S-A.png,A-S.png,sS,sS,mask-2.png,mask-2.png,s,1,0.7516981000080705,s,1,0.08917880000080913,0.04936720000114292,0.0519514000043273,0.09995830000843853,0.10084729999653064,0.2988502999942284
RSVPLG03,km,20260319-153515,1.0.2,20251113-095759,806,Experiment,Both,1,Automatic,main,10,20260319-153619,local,global,750,H,S,E,E,E-H.png,S-E.png,hH,sS,mask-4.png,mask-3.png,h,1,0.8030022999737412,h,0,0.11281440002494492,0.05048519998672418,0.05039790002047084,0.10129869999946095,0.10061690001748502,0.7495164999854751
RSVPLG03,km,20260319-153515,1.0.2,20251113-095759,806,Experiment,Both,1,Automatic,main,11,20260319-153624,global,local,750,H,H,E,E,H-E.png,E-H.png,hH,hH,mask-1.png,mask-4.png,h,1,0.7923747000168078,h,1,0.2853363000031095,0.049642000027233735,0.05152410001028329,0.10120410000672564,0.10104509998927824,0.7512474000104703
RSVPLG03,km,20260319-153515,1.0.2,20251113-095759,806,Experiment,Both,1,Automatic,main,12,20260319-153629,local,local,300,H,S,A,A,A-H.png,A-S.png,hH,sS,mask-4.png,mask-2.png,h,1,0.7153902999998536,s,1,0.06547480000881478,0.048924800008535385,0.05024739998043515,0.0990991999860853,0.09977329999674112,0.2992487000010442
RSVPLG03,km,20260319-153515,1.0.2,20251113-095759,806,Experiment,Both,1,Automatic,main,13,20260319-153633,local,global,750,S,S,A,E,A-S.png,S-E.png,sS,sS,mask-3.png,mask-4.png,s,1,0.27818150000530295,h,0,0.0645383000082802,0.04974640000727959,0.04973150001023896,0.1005699000088498,0.099576500011608,0.7513144999975339
RSVPLG03,km,20260319-153515,1.0.2,20251113-095759,806,Experiment,Both,1,Automatic,main,14,20260319-153637,local,local,750,S,S,A,E,A-S.png,E-S.png,sS,sS,mask-2.png,mask-2.png,s,1,0.40911350000533275,s,1,0.12872219999553636,0.05014470001333393,0.051462899980833754,0.10077540000202134,0.10177419998217374,0.7498947000131011
RSVPLG03,km,20260319-153515,1.0.2,20251113-095759,806,Experiment,Both,1,Automatic,main,15,20260319-153642,local,local,300,S,H,A,E,A-S.png,E-H.png,sS,hH,mask-4.png,mask-2.png,s,1,0.4712633000162896,h,1,0.0468043000146281,0.048028299992438406,0.04960990001563914,0.09933739999542013,0.10103790002176538,0.2983436999784317
RSVPLG03,km,20260319-153515,1.0.2,20251113-095759,806,Experiment,Both,1,Automatic,main,16,20260319-153646,local,global,750,S,S,A,A,A-S.png,S-A.png,sS,sS,mask-3.png,mask-4.png,s,1,1.082574800006114,h,0,0.8589311999967322,0.05082619999302551,0.05153729999437928,0.1015258000115864,0.10034159998758696,0.7489428000117186
RSVPLG03,km,20260319-153515,1.0.2,20251113-095759,806,Experiment,Both,1,Automatic,main,17,20260319-153652,local,global,750,H,H,A,A,A-H.png,H-A.png,hH,hH,mask-1.png,mask-3.png,h,1,1.6201657000056002,h,1,0.11361239998950623,0.04996969999046996,0.05098309999448247,0.10252680000849068,0.09981519999564625,0.7512577000015881
RSVPLG03,km,20260319-153515,1.0.2,20251113-095759,806,Experiment,Both,1,Automatic,main,18,20260319-153658,global,local,300,H,S,A,A,H-A.png,A-S.png,hH,sS,mask-2.png,mask-3.png,s,0,2.91803049997543,h,0,-1.650000922381878e-05,0.05146509999758564,0.052385800023330376,0.10092519997851923,0.10170719999587163,0.3006949999835342
RSVPLG03,km,20260319-153515,1.0.2,20251113-095759,806,Experiment,Both,1,Automatic,main,19,20260319-153705,global,global,300,S,H,E,E,S-E.png,H-E.png,sS,hH,mask-2.png,mask-2.png,s,1,1.3069544000027236,h,1,0.04673299999558367,0.04853120000916533,0.047604899998987094,0.09880979999434203,0.0974823999858927,0.3007977000088431
RSVPLG03,km,20260319-153515,1.0.2,20251113-095759,806,Experiment,Both,1,Automatic,main,20,20260319-153710,global,local,750,H,S,E,A,H-E.png,A-S.png,hH,sS,mask-3.png,mask-3.png,h,1,1.2726306000258774,s,1,0.03346810000948608,0.04954740000539459,0.04825280001387,0.10089609998976812,0.09834590001264587,0.7526398999907542
RSVPLG03,km,20260319-153515,1.0.2,20251113-095759,806,Experiment,Both,1,Automatic,main,21,20260319-153715,local,local,300,H,H,E,E,E-H.png,E-H.png,hH,hH,mask-2.png,mask-1.png,h,1,0.3868681000021752,h,1,0.08147470001131296,0.04957000000285916,0.05002609998336993,0.09861869999440387,0.10030309998546727,0.2985696000105236
RSVPLG03,km,20260319-153515,1.0.2,20251113-095759,806,Experiment,Both,1,Automatic,main,22,20260319-153719,global,local,300,H,S,E,A,H-E.png,A-S.png,hH,sS,mask-3.png,mask-3.png,h,1,2.07593469999847,h,0,0.1433340999938082,0.04906819999450818,0.04883220000192523,0.09739589999662712,0.09986030001891777,0.299440799979493
RSVPLG03,km,20260319-153515,1.0.2,20251113-095759,806,Experiment,Both,1,Automatic,main,23,20260319-153725,global,local,300,S,H,E,E,S-E.png,E-H.png,sS,hH,mask-2.png,mask-3.png,s,1,0.7420640999916941,h,1,0.04059030002099462,0.051315999997314066,0.04897470001014881,0.10102829997777008,0.10023640000144951,0.3013329999812413
RSVPLG03,km,20260319-153515,1.0.2,20251113-095759,806,Experiment,Both,1,Automatic,main,24,20260319-153729,local,global,300,H,H,A,E,A-H.png,H-E.png,hH,hH,mask-4.png,mask-3.png,h,1,0.6211452000134159,h,1,0.07425220002187416,0.05122470000060275,0.04938149999361485,0.10147610001149587,0.09907590001239441,0.3010063999972772
RSVPLG03,km,20260319-153515,1.0.2,20251113-095759,806,Experiment,Both,1,Automatic,main,25,20260319-153733,local,global,300,S,S,A,E,A-S.png,S-E.png,sS,sS,mask-3.png,mask-3.png,s,1,1.14927089997218,h,0,1.2132289999863133,0.04925609999918379,0.04983959998935461,0.09943870001006871,0.09959190001245588,0.29946720000589266
RSVPLG03,km,20260319-153515,1.0.2,20251113-095759,806,Experiment,Both,1,Automatic,main,26,20260319-153740,local,global,300,S,H,E,A,E-S.png,H-A.png,sS,hH,mask-3.png,mask-1.png,s,1,0.7484454000077676,h,1,0.014038599998457357,0.04754219998721965,0.05025719999684952,0.0979599000129383,0.10015469999052584,0.29802260000724345
RSVPLG03,km,20260319-153515,1.0.2,20251113-095759,806,Experiment,Both,1,Automatic,main,27,20260319-153744,local,local,750,S,S,E,E,E-S.png,E-S.png,sS,sS,mask-3.png,mask-2.png,s,1,0.6238848000066355,h,0,0.09301210002740845,0.04994759999681264,0.04981560001033358,0.10097510000923648,0.10021159998723306,0.750597000005655
RSVPLG03,km,20260319-153515,1.0.2,20251113-095759,806,Experiment,Both,1,Automatic,main,28,20260319-153749,global,global,300,S,H,A,E,S-A.png,H-E.png,sS,hH,mask-4.png,mask-3.png,h,0,1.8036671000008937,s,0,0.010214000009000301,0.0496088000072632,0.04923770000459626,0.09952970000449568,0.09974309999961406,0.3001933000050485
RSVPLG03,km,20260319-153515,1.0.2,20251113-095759,806,Experiment,Both,1,Automatic,main,29,20260319-153755,global,local,300,H,H,A,A,H-A.png,A-H.png,hH,hH,mask-3.png,mask-3.png,h,1,1.3076443999889307,s,0,0.03311409999150783,0.05160430000978522,0.04868249999708496,0.10063820000505075,0.09964010000112467,0.30127039999933913
RSVPLG03,km,20260319-153515,1.0.2,20251113-095759,806,Experiment,Both,1,Automatic,main,30,20260319-153800,global,global,300,S,S,A,E,S-A.png,S-E.png,sS,sS,mask-3.png,mask-2.png,s,1,1.4137270000064746,h,0,0.045106800011126325,0.05051269999239594,0.049570899980608374,0.10080029998789541,0.10065249999752268,0.30168289999710396
RSVPLG03,km,20260319-153515,1.0.2,20251113-095759,806,Experiment,Both,1,Automatic,main,31,20260319-153805,local,global,300,H,H,E,E,E-H.png,H-E.png,hH,hH,mask-4.png,mask-1.png,s,0,1.351289700018242,h,1,1.447100000019418,0.04955419999896549,0.05142210001940839,0.10078919999068603,0.10107880001305602,0.2994876999873668
RSVPLG03,km,20260319-153515,1.0.2,20251113-095759,806,Experiment,Both,1,Automatic,main,32,20260319-153810,global,local,750,S,H,A,E,S-A.png,E-H.png,sS,hH,mask-4.png,mask-2.png,s,1,1.0090948999859393,h,1,0.1752548999793362,0.05030519998399541,0.04957329999888316,0.10110859997803345,0.10064980000606738,0.7507863999926485
RSVPLG03,km,20260319-153515,1.0.2,20251113-095759,806,Experiment,Both,1,Automatic,main,33,20260319-153815,global,global,750,H,H,E,E,H-E.png,H-E.png,hH,hH,mask-2.png,mask-3.png,h,1,1.290268799988553,h,1,0.06546469999011606,0.04972609999822453,0.050804800004698336,0.09969260002253577,0.10107609999249689,0.7496618000150193
RSVPLG03,km,20260319-153515,1.0.2,20251113-095759,806,Experiment,Both,1,Automatic,main,34,20260319-153820,global,global,750,H,H,E,E,H-E.png,H-E.png,hH,hH,mask-1.png,mask-1.png,h,1,1.1282332999981008,h,1,0.11224570000194944,0.05017570001655258,0.05043859998113476,0.1000017000187654,0.10059659997932613,0.750492800027132
RSVPLG03,km,20260319-153515,1.0.2,20251113-095759,806,Experiment,Both,1,Automatic,main,35,20260319-153826,local,local,750,S,H,E,E,E-S.png,E-H.png,sS,hH,mask-3.png,mask-2.png,s,1,1.5589120000076946,h,1,0.032664199999999255,0.0490494999976363,0.05004560001543723,0.09810160001507029,0.09913139999844134,0.7502596999984235
RSVPLG03,km,20260319-153515,1.0.2,20251113-095759,806,Experiment,Both,1,Automatic,main,36,20260319-153831,local,global,300,H,S,A,E,A-H.png,S-E.png,hH,sS,mask-2.png,mask-1.png,h,1,1.3654518999974243,h,0,0.08167670000693761,0.05028369999490678,0.04901719998451881,0.10035960000823252,0.10080109999398701,0.3007363000069745
RSVPLG03,km,20260319-153515,1.0.2,20251113-095759,806,Experiment,Both,1,Automatic,main,37,20260319-153836,local,local,750,H,H,E,A,E-H.png,A-H.png,hH,hH,mask-2.png,mask-1.png,h,1,1.0803191000013612,h,1,0.27277659997344017,0.05061909998767078,0.04963179997866973,0.10230279999086633,0.09931089999736287,0.7530545000045095
RSVPLG03,km,20260319-153515,1.0.2,20251113-095759,806,Experiment,Both,1,Automatic,main,38,20260319-153842,global,global,750,H,H,E,A,H-E.png,H-A.png,hH,hH,mask-4.png,mask-1.png,h,1,1.2377276000042912,h,1,0.11749120001331903,0.048951600008876994,0.04916510000475682,0.10192740001366474,0.10079929998028092,0.7515307000139728
RSVPLG03,km,20260319-153515,1.0.2,20251113-095759,806,Experiment,Both,1,Automatic,main,39,20260319-153847,global,local,750,H,H,A,E,H-A.png,E-H.png,hH,hH,mask-4.png,mask-1.png,h,1,1.0199369000038132,h,1,0.14362919999985024,0.049515999999130145,0.04896580000058748,0.09960310001042672,0.098236599995289,0.7520131000201218
RSVPLG03,km,20260319-153515,1.0.2,20251113-095759,806,Experiment,Both,1,Automatic,main,40,20260319-153852,local,local,750,H,S,A,E,A-H.png,E-S.png,hH,sS,mask-4.png,mask-1.png,h,1,0.38437479999265634,s,1,0.0652987000066787,0.04925880001974292,0.050809299980755895,0.09995620002155192,0.1014597000030335,0.7485234000196215
RSVPLG03,km,20260319-153515,1.0.2,20251113-095759,806,Experiment,Both,1,Automatic,main,41,20260319-153857,local,global,300,S,H,A,E,A-S.png,H-E.png,sS,hH,mask-3.png,mask-2.png,s,1,0.8922980999923311,h,1,0.015150599996559322,0.05073059999267571,0.05018510000081733,0.10133040000800975,0.09906690000207163,0.30133570000180043
RSVPLG03,km,20260319-153515,1.0.2,20251113-095759,806,Experiment,Both,1,Automatic,main,42,20260319-153901,local,local,300,S,S,E,E,E-S.png,E-S.png,sS,sS,mask-1.png,mask-1.png,s,1,1.1096186000213493,h,0,0.009437400003662333,0.05124170001363382,0.04882440000073984,0.10174010001355782,0.10006850000354461,0.30153970001265407
RSVPLG03,km,20260319-153515,1.0.2,20251113-095759,806,Experiment,Both,1,Automatic,main,43,20260319-153906,local,global,300,S,S,A,A,A-S.png,S-A.png,sS,sS,mask-1.png,mask-3.png,s,1,0.39526290001231246,s,1,0.12452280000434257,0.051257100014481694,0.0508652999997139,0.10312720001093112,0.10176829999545589,0.30105880001792684
RSVPLG03,km,20260319-153515,1.0.2,20251113-095759,806,Experiment,Both,1,Automatic,main,44,20260319-153910,global,global,750,S,S,E,A,S-E.png,S-A.png,sS,sS,mask-1.png,mask-3.png,s,1,1.1842327000049409,s,1,0.07904229999985546,0.0499746999994386,0.05094159999862313,0.09902750002220273,0.10008489998290315,0.7494060000171885
RSVPLG03,km,20260319-153515,1.0.2,20251113-095759,806,Experiment,Both,1,Automatic,main,45,20260319-153916,global,global,750,H,S,A,A,H-A.png,S-A.png,hH,sS,mask-3.png,mask-2.png,h,1,0.7823680000146851,s,1,0.0021952999813947827,0.05049709999002516,0.04850799997802824,0.10052700000233017,0.09879249997902662,0.7524523000174668
RSVPLG03,km,20260319-153515,1.0.2,20251113-095759,806,Experiment,Both,1,Automatic,main,46,20260319-153920,global,local,300,H,S,A,E,H-A.png,E-S.png,hH,sS,mask-1.png,mask-4.png,h,1,1.0507367000100203,h,0,0.09692050001467578,0.05095929998788051,0.050436000019544736,0.10171769998851232,0.10031510001863353,0.3013059999793768
RSVPLG03,km,20260319-153515,1.0.2,20251113-095759,806,Experiment,Both,1,Automatic,main,47,20260319-153925,global,global,300,H,S,A,A,H-A.png,S-A.png,hH,sS,mask-2.png,mask-3.png,h,1,0.49824710001121275,s,1,0.017818699998315424,0.050492500013206154,0.04868080001324415,0.09982090000994503,0.10036420001415536,0.3016829999978654
RSVPLG03,km,20260319-153515,1.0.2,20251113-095759,806,Experiment,Both,1,Automatic,main,48,20260319-153929,local,global,750,S,H,A,A,A-S.png,H-A.png,sS,hH,mask-3.png,mask-2.png,s,1,0.9915131999878213,h,1,0.04918579998775385,0.04924240001128055,0.049544300010893494,0.09936890000244603,0.10044840001501143,0.7486551000038162
RSVPLG03,km,20260319-153515,1.0.2,20251113-095759,806,Experiment,Both,1,Automatic,main,49,20260319-153934,local,global,750,H,H,E,A,E-H.png,H-A.png,hH,hH,mask-1.png,mask-2.png,h,1,1.3753923999902327,h,1,0.1044918000116013,0.04938440001569688,0.05125649998080917,0.09926469999481924,0.1019557999970857,0.7498337000142783
RSVPLG03,km,20260319-153515,1.0.2,20251113-095759,806,Experiment,Both,1,Automatic,main,50,20260319-153940,global,local,750,H,S,E,A,H-E.png,A-S.png,hH,sS,mask-3.png,mask-1.png,h,1,2.297106600017287,s,1,0.04909250000491738,0.04979269998148084,0.04978530001244508,0.09959069997421466,0.09977150001213886,0.749761099985335
RSVPLG03,km,20260319-153515,1.0.2,20251113-095759,806,Experiment,Both,1,Automatic,main,51,20260319-153947,global,local,300,H,H,A,A,H-A.png,A-H.png,hH,hH,mask-4.png,mask-2.png,h,1,0.8488278000149876,s,0,0.01623099998687394,0.050902599992696196,0.04978500001016073,0.09999059999245219,0.10012270000879653,0.30149209999945015
RSVPLG03,km,20260319-153515,1.0.2,20251113-095759,806,Experiment,Both,1,Automatic,main,52,20260319-153952,global,global,300,S,H,E,A,S-E.png,H-A.png,sS,hH,mask-1.png,mask-4.png,s,1,0.9930859000014607,h,1,0.6543322999787051,0.049558800004888326,0.05015819999971427,0.10006160000921227,0.09912999998778105,0.300871300016297
RSVPLG03,km,20260319-153515,1.0.2,20251113-095759,806,Experiment,Both,1,Automatic,main,53,20260319-153957,local,local,750,H,S,E,E,E-H.png,E-S.png,hH,sS,mask-3.png,mask-3.png,h,1,0.4699574999976903,s,1,0.033779699995648116,0.05068990000290796,0.049571000010473654,0.09987490001367405,0.10159940001904033,0.7500577000027988
RSVPLG03,km,20260319-153515,1.0.2,20251113-095759,806,Experiment,Both,1,Automatic,main,54,20260319-154002,global,local,750,S,S,E,E,S-E.png,E-S.png,sS,sS,mask-3.png,mask-4.png,s,1,1.0045956000103615,s,1,0.113138099986827,0.04963979998137802,0.05100090001360513,0.0985690999950748,0.09973330001230352,0.7494931999826804
RSVPLG03,km,20260319-153515,1.0.2,20251113-095759,806,Experiment,Both,1,Automatic,main,55,20260319-154007,global,global,300,S,H,E,A,S-E.png,H-A.png,sS,hH,mask-4.png,mask-3.png,s,1,0.6539950000005774,h,1,0.5071945000090636,0.04863920001662336,0.051637500000651926,0.10036219999892637,0.10225070000160486,0.2982740000006743
RSVPLG03,km,20260319-153515,1.0.2,20251113-095759,806,Experiment,Both,1,Automatic,main,56,20260319-154012,local,local,300,S,H,A,A,A-S.png,A-H.png,sS,hH,mask-4.png,mask-1.png,s,1,0.8772870000102557,h,1,0.10581790001015179,0.05254790000617504,0.04893410002114251,0.1004769999999553,0.0996173000021372,0.3015100999909919
RSVPLG03,km,20260319-153515,1.0.2,20251113-095759,806,Experiment,Both,1,Automatic,main,57,20260319-154016,global,global,750,H,H,A,E,H-A.png,H-E.png,hH,hH,mask-2.png,mask-3.png,h,1,0.6348517000151332,h,1,0.15833000000566244,0.04913289999240078,0.04858880001120269,0.09936980000929907,0.09965550000197254,0.75109770000563
RSVPLG03,km,20260319-153515,1.0.2,20251113-095759,806,Experiment,Both,1,Automatic,main,58,20260319-154021,local,global,300,H,H,A,E,A-H.png,H-E.png,hH,hH,mask-3.png,mask-3.png,h,1,1.4512880000111181,h,1,0.11293859998113476,0.05056570001761429,0.04979930000263266,0.10097379999933764,0.10029500001110137,0.30077309999614954
RSVPLG03,km,20260319-153515,1.0.2,20251113-095759,806,Experiment,Both,1,Automatic,main,59,20260319-154026,local,local,300,H,H,A,E,A-H.png,E-H.png,hH,hH,mask-3.png,mask-3.png,h,1,0.35540870000841096,h,1,0.1029399000108242,0.04869780002627522,0.05043249999289401,0.10023360000923276,0.09995199998957105,0.2995530000189319
RSVPLG03,km,20260319-153515,1.0.2,20251113-095759,806,Experiment,Both,1,Automatic,main,60,20260319-154030,global,local,300,H,S,A,A,H-A.png,A-S.png,hH,sS,mask-4.png,mask-1.png,h,1,0.5404075999977067,h,0,0.1697864000161644,0.05028989998390898,0.05000139999901876,0.09949199997936375,0.09999340001377277,0.30140519997803494
RSVPLG03,km,20260319-153515,1.0.2,20251113-095759,806,Experiment,Both,1,Automatic,main,61,20260319-154035,global,global,750,H,H,E,E,H-E.png,H-E.png,hH,hH,mask-2.png,mask-3.png,h,1,1.0159986999933608,h,1,0.3990036000031978,0.04937329998938367,0.04908890000660904,0.09910359999048524,0.10059109999565408,0.750728999992134
RSVPLG03,km,20260319-153515,1.0.2,20251113-095759,806,Experiment,Both,1,Automatic,main,62,20260319-154040,global,global,300,S,S,E,A,S-E.png,S-A.png,sS,sS,mask-1.png,mask-4.png,s,1,1.1282439999922644,h,0,0.030303800012916327,0.05017899998347275,0.04849280000780709,0.10097780000069179,0.10092179998173378,0.30162949999794364
RSVPLG03,km,20260319-153515,1.0.2,20251113-095759,806,Experiment,Both,1,Automatic,main,63,20260319-154045,global,global,300,H,S,E,A,H-E.png,S-A.png,hH,sS,mask-4.png,mask-4.png,h,1,0.386289600020973,s,1,0.06361289997585118,0.048932299978332594,0.049784000002546236,0.09950709997792728,0.1005050000094343,0.29967799998121336
RSVPLG03,km,20260319-153515,1.0.2,20251113-095759,806,Experiment,Both,1,Automatic,main,64,20260319-154049,local,local,750,H,S,E,E,E-H.png,E-S.png,hH,sS,mask-2.png,mask-4.png,h,1,0.4667823000054341,s,1,0.040938799997093156,0.05095360000268556,0.048584200005279854,0.10034900001483038,0.09953460001270287,0.7527666999958456
RSVPLG03,km,20260319-153515,1.0.2,20251113-095759,806,Experiment,Both,1,Automatic,main,65,20260319-154054,global,local,750,S,S,A,A,S-A.png,A-S.png,sS,sS,mask-3.png,mask-1.png,s,1,0.5417424000042956,s,1,0.09735769999679178,0.0512592000013683,0.05052259998046793,0.10244909999892116,0.09935119998408481,0.7510225000150967
RSVPLG03,km,20260319-153515,1.0.2,20251113-095759,806,Experiment,Both,1,Automatic,main,66,20260319-154058,global,global,300,H,S,A,E,H-A.png,S-E.png,hH,sS,mask-1.png,mask-3.png,h,1,0.6741511000145692,s,1,0.010427200002595782,0.05063800001516938,0.04996119998395443,0.10062280000420287,0.10051439999369904,0.30176130001200363
RSVPLG03,km,20260319-153515,1.0.2,20251113-095759,806,Experiment,Both,1,Automatic,main,67,20260319-154103,local,local,300,S,S,E,E,E-S.png,E-S.png,sS,sS,mask-4.png,mask-3.png,s,1,0.566633800015552,s,1,0.08969079999951646,0.048833000008016825,0.05085880000842735,0.09979050001129508,0.10087620001286268,0.2974112000083551
RSVPLG03,km,20260319-153515,1.0.2,20251113-095759,806,Experiment,Both,1,Automatic,main,68,20260319-154107,local,local,750,H,S,E,A,E-H.png,A-S.png,hH,sS,mask-1.png,mask-4.png,h,1,0.43655269997543655,s,1,0.02904240001225844,0.04986609998741187,0.0504681000020355,0.10064819999388419,0.0993927999807056,0.7513604999985546
RSVPLG03,km,20260319-153515,1.0.2,20251113-095759,806,Experiment,Both,1,Automatic,main,69,20260319-154111,global,local,300,H,S,E,A,H-E.png,A-S.png,hH,sS,mask-2.png,mask-2.png,h,1,1.0809379999991506,s,1,0.031598699977621436,0.051645200001075864,0.05016600000089966,0.10158270000829361,0.10065489998669364,0.3010299000015948
RSVPLG03,km,20260319-153515,1.0.2,20251113-095759,806,Experiment,Both,1,Automatic,main,70,20260319-154116,local,local,300,H,H,E,E,E-H.png,E-H.png,hH,hH,mask-3.png,mask-4.png,h,1,0.9879669999936596,h,1,0.07336900001973845,0.050487899978179485,0.05051870000897907,0.09891199998673983,0.1004114999959711,0.2990970999817364
RSVPLG03,km,20260319-153515,1.0.2,20251113-095759,806,Experiment,Both,1,Automatic,main,71,20260319-154121,global,local,300,S,H,E,A,S-E.png,A-H.png,sS,hH,mask-1.png,mask-4.png,h,0,1.5197707999905106,s,0,0.015545300004305318,0.0503342000010889,0.04969099999289028,0.0993068000243511,0.10020409998833202,0.29872070002602413
RSVPLG03,km,20260319-153515,1.0.2,20251113-095759,806,Experiment,Both,1,Automatic,main,72,20260319-154126,global,local,750,H,H,A,A,H-A.png,A-H.png,hH,hH,mask-1.png,mask-2.png,h,1,0.7139089000120293,h,1,0.23403130000224337,0.04954220002400689,0.05134449998149648,0.09963340000831522,0.10116890000062995,0.7498457000183407
RSVPLG03,km,20260319-153515,1.0.2,20251113-095759,806,Experiment,Both,1,Automatic,main,73,20260319-154131,local,local,750,S,H,E,E,E-S.png,E-H.png,sS,hH,mask-3.png,mask-1.png,s,1,0.43337859999155626,h,1,0.049105700018117204,0.050600299990037456,0.05233029997907579,0.1003830999834463,0.10065059998305514,0.7495039000059478
RSVPLG03,km,20260319-153515,1.0.2,20251113-095759,806,Experiment,Both,1,Automatic,main,74,20260319-154136,global,global,300,S,H,E,A,S-E.png,H-A.png,sS,hH,mask-1.png,mask-4.png,s,1,0.483044599997811,h,1,0.0656295999942813,0.05122200000914745,0.04978170001413673,0.10035520000383258,0.09983290001400746,0.30148619998362847
RSVPLG03,km,20260319-153515,1.0.2,20251113-095759,806,Experiment,Both,1,Automatic,main,75,20260319-154140,local,global,300,H,S,E,A,E-H.png,S-A.png,hH,sS,mask-2.png,mask-1.png,h,1,0.5866344999813009,h,0,0.09077670000260696,0.04896889999508858,0.04923040000721812,0.0993200000084471,0.09983280001324601,0.3003601999953389
RSVPLG03,km,20260319-153515,1.0.2,20251113-095759,806,Experiment,Both,1,Automatic,main,76,20260319-154146,local,local,300,S,S,A,A,A-S.png,A-S.png,sS,sS,mask-1.png,mask-2.png,s,1,0.84074210000108,s,1,0.07260819998919033,0.04852569999638945,0.04925280000315979,0.10126720002153888,0.09992889998829924,0.300806500017643
RSVPLG03,km,20260319-153515,1.0.2,20251113-095759,806,Experiment,Both,1,Automatic,main,77,20260319-154150,global,local,300,S,H,E,E,S-E.png,E-H.png,sS,hH,mask-3.png,mask-4.png,s,1,0.4314738999819383,h,1,0.04831340000964701,0.04947399999946356,0.04947700002230704,0.09966400000848807,0.10092420000000857,0.29892229998949915
RSVPLG03,km,20260319-153515,1.0.2,20251113-095759,806,Experiment,Both,1,Automatic,main,78,20260319-154154,global,local,750,S,H,A,E,S-A.png,E-H.png,sS,hH,mask-3.png,mask-3.png,s,1,0.4427482000028249,s,0,0.11430929999914952,0.050815399998100474,0.051012399984756485,0.1007065000012517,0.10098499999730848,0.7501427000097465
RSVPLG03,km,20260319-153515,1.0.2,20251113-095759,806,Experiment,Both,1,Automatic,main,79,20260319-154159,local,global,750,H,H,A,E,A-H.png,H-E.png,hH,hH,mask-1.png,mask-3.png,h,1,1.0644486999954097,h,1,0.1619745000207331,0.049692200002027676,0.04914580000331625,0.10029669999494217,0.09982939998735674,0.7511549000046216
RSVPLG03,km,20260319-153515,1.0.2,20251113-095759,806,Experiment,Both,1,Automatic,main,80,20260319-154204,local,global,750,H,H,A,A,A-H.png,H-A.png,hH,hH,mask-2.png,mask-1.png,h,1,0.6827985000272747,h,1,0.13020339998183772,0.050286200013943017,0.05079080001451075,0.10006630001589656,0.101897899992764,0.7499668000091333
RSVPLG03,km,20260319-153515,1.0.2,20251113-095759,806,Experiment,Both,1,Automatic,main,81,20260319-154209,local,global,750,H,H,E,E,E-H.png,H-E.png,hH,hH,mask-1.png,mask-4.png,h,1,0.6890847000177018,h,1,0.1430638000019826,0.049963500001467764,0.05012120000901632,0.09877719997894019,0.10290090000489727,0.7491580999922007
RSVPLG03,km,20260319-153515,1.0.2,20251113-095759,806,Experiment,Both,1,Automatic,main,82,20260319-154214,global,global,750,H,H,A,E,H-A.png,H-E.png,hH,hH,mask-4.png,mask-3.png,h,1,0.8637073999852873,h,1,0.22454429999925196,0.05035099998349324,0.04995359998429194,0.09980279998853803,0.09936989998095669,0.7505512000061572
RSVPLG03,km,20260319-153515,1.0.2,20251113-095759,806,Experiment,Both,1,Automatic,main,83,20260319-154219,global,global,750,S,H,A,E,S-A.png,H-E.png,sS,hH,mask-4.png,mask-2.png,s,1,1.2419995999953244,h,1,0.11179980001179501,0.04967490001581609,0.04963829999906011,0.10068050000700168,0.0985377999895718,0.7508102000283543
RSVPLG03,km,20260319-153515,1.0.2,20251113-095759,806,Experiment,Both,1,Automatic,main,84,20260319-154224,global,local,750,S,S,E,A,S-E.png,A-S.png,sS,sS,mask-1.png,mask-4.png,s,1,2.7530874000221957,h,0,0.04918880001059733,0.049606300017330796,0.049219700013054535,0.1000699000142049,0.10050060000503436,0.7507578000077046
RSVPLG03,km,20260319-153515,1.0.2,20251113-095759,806,Experiment,Both,1,Automatic,main,85,20260319-154231,global,global,300,H,H,A,E,H-A.png,H-E.png,hH,hH,mask-3.png,mask-2.png,h,1,2.502815899992129,h,1,0.09741560000111349,0.05126649999874644,0.04953300001216121,0.10027269998681732,0.09964810000383295,0.3010072999750264
RSVPLG03,km,20260319-153515,1.0.2,20251113-095759,806,Experiment,Both,1,Automatic,main,86,20260319-154238,local,global,750,H,H,A,E,A-H.png,H-E.png,hH,hH,mask-3.png,mask-3.png,h,1,0.9835149999998976,h,1,0.12221640002098866,0.04960369999753311,0.049041999998735264,0.09948389997589402,0.09925710002426058,0.7501724999747239
RSVPLG03,km,20260319-153515,1.0.2,20251113-095759,806,Experiment,Both,1,Automatic,main,87,20260319-154243,local,local,750,S,S,E,A,E-S.png,A-S.png,sS,sS,mask-4.png,mask-1.png,s,1,0.9388064999948256,h,0,1.0984694999933708,0.05184410000219941,0.049923199985641986,0.1019903999986127,0.09816049999790266,0.7522830000089016
RSVPLG03,km,20260319-153515,1.0.2,20251113-095759,806,Experiment,Both,1,Automatic,main,88,20260319-154249,local,local,750,S,H,A,E,A-S.png,E-H.png,sS,hH,mask-4.png,mask-2.png,s,1,0.6406859999988228,h,1,0.11314870000933297,0.04940449999412522,0.0499343000119552,0.09972769999876618,0.10058880000724457,0.7496867000008933
RSVPLG03,km,20260319-153515,1.0.2,20251113-095759,806,Experiment,Both,1,Automatic,main,89,20260319-154254,local,local,300,S,H,E,A,E-S.png,A-H.png,sS,hH,mask-1.png,mask-2.png,s,1,0.41339390000212006,h,1,0.01011050000670366,0.0506042999913916,0.049440500006312504,0.10027389999595471,0.09939260000828654,0.3001290999818593
RSVPLG03,km,20260319-153515,1.0.2,20251113-095759,806,Experiment,Both,1,Automatic,main,90,20260319-154258,local,local,750,H,S,A,A,A-H.png,A-S.png,hH,sS,mask-1.png,mask-2.png,h,1,0.14949770001112483,s,1,0.06243769999127835,0.051335399999516085,0.05036449999897741,0.10111960000358522,0.10166710001067258,0.7497487000073306
RSVPLG03,km,20260319-153515,1.0.2,20251113-095759,806,Experiment,Both,1,Automatic,main,91,20260319-154302,global,global,750,H,S,A,A,H-A.png,S-A.png,hH,sS,mask-4.png,mask-1.png,h,1,2.0427940000081435,s,1,0.14299750002101064,0.04768809999222867,0.050699800020083785,0.09878070000559092,0.10060890001477674,0.749452799995197
RSVPLG03,km,20260319-153515,1.0.2,20251113-095759,806,Experiment,Both,1,Automatic,main,92,20260319-154309,global,global,750,S,H,E,A,S-E.png,H-A.png,sS,hH,mask-3.png,mask-4.png,s,1,1.1291497999918647,h,1,0.08879739997792058,0.05158389999996871,0.051401899982010946,0.10132379998685792,0.1015649999899324,0.750615500001004
RSVPLG03,km,20260319-153515,1.0.2,20251113-095759,806,Experiment,Both,1,Automatic,main,93,20260319-154314,local,global,300,H,S,E,E,E-H.png,S-E.png,hH,sS,mask-3.png,mask-4.png,h,1,1.3075639999879058,h,0,0.08895559998927638,0.04910439997911453,0.04798010000376962,0.09938329999567941,0.10139019999769516,0.3012053999991622
RSVPLG03,km,20260319-153515,1.0.2,20251113-095759,806,Experiment,Both,1,Automatic,main,94,20260319-154319,local,global,300,H,S,E,A,E-H.png,S-A.png,hH,sS,mask-3.png,mask-2.png,h,1,1.8474153999995906,s,1,0.03465000001597218,0.050153099989984185,0.05009889998473227,0.10236900000018068,0.09987609999370761,0.301960600016173
RSVPLG03,km,20260319-153515,1.0.2,20251113-095759,806,Experiment,Both,1,Automatic,main,95,20260319-154324,global,local,750,H,S,A,A,H-A.png,A-S.png,hH,sS,mask-2.png,mask-4.png,h,1,0.8441433999978472,s,1,0.03163409998524003,0.049962000019149855,0.05108400000608526,0.10054469999158755,0.10043920000316575,0.7514501000114251
RSVPLG03,km,20260319-153515,1.0.2,20251113-095759,806,Experiment,Both,1,Automatic,main,96,20260319-154329,local,local,300,H,S,A,A,A-H.png,A-S.png,hH,sS,mask-3.png,mask-3.png,h,1,1.5120025999785867,s,1,9.600014891475439e-06,0.050320399983320385,0.04835490000550635,0.098404299991671,0.10049089998938143,0.29980879998765886
RSVPLG03,km,20260319-153515,1.0.2,20251113-095759,806,Experiment,Both,1,Automatic,main,97,20260319-154335,local,global,750,S,H,A,E,A-S.png,H-E.png,sS,hH,mask-1.png,mask-2.png,s,1,1.388591400027508,s,0,0.0820905999862589,0.05055270000593737,0.0496545999776572,0.10118610001518391,0.10069789999397472,0.7514520000258926
RSVPLG03,km,20260319-153515,1.0.2,20251113-095759,806,Experiment,Both,1,Automatic,main,98,20260319-154340,global,global,750,S,H,E,E,S-E.png,H-E.png,sS,hH,mask-1.png,mask-4.png,h,0,2.510167200001888,h,1,0.11109700001543388,0.049913099996047094,0.05015690001891926,0.0988579000113532,0.10087960000964813,0.7509284999978263
RSVPLG03,km,20260319-153515,1.0.2,20251113-095759,806,Experiment,Both,1,Automatic,main,99,20260319-154347,global,local,300,S,S,A,A,S-A.png,A-S.png,sS,sS,mask-3.png,mask-4.png,s,1,1.2557083999854513,s,1,0.28928620001534,0.050551599997561425,0.04957139998441562,0.10041660000570118,0.0982392999867443,0.3021310000040103
RSVPLG03,km,20260319-153515,1.0.2,20251113-095759,806,Experiment,Both,1,Automatic,main,100,20260319-154352,global,local,750,H,S,A,E,H-A.png,E-S.png,hH,sS,mask-3.png,mask-2.png,h,1,1.1506986000167672,s,1,0.5594072999956552,0.05105310000362806,0.05054940000991337,0.10127519999514334,0.10044740000739694,0.7502362999948673
