exp,exp_initials,runtime,ver,modtime,sub,blocktype,targets,cuetype,mode,trialtype,trial,trialtime,t1_level,t2_level,t2_lag,t1,t2,distractor1,distractor2,stimfile1,stimfile2,t1_corr,t2_corr,maskfile1,maskfile2,t1_resp,t1_acc,t1_rt,t2_resp,t2_acc,t2_rt,t1_dur,t2_dur,t1mask_soa,t2mask_soa,t1t2_soa
RSVPLG03,cs,20260213-110016,1.0.2,20251105-084826,761,Introduction,T1,1,Automatic,main,1,20260213-110037,local,global,750,H,S,A,E,A-H.png,S-E.png,hH,sS,mask-3.png,mask-2.png,h,1,1.3753444999456406,none,-5,0,0.09141379967331886,0.09678149968385696,0.19444150011986494,0.19796739984303713,0.7447932995855808
RSVPLG03,cs,20260213-110016,1.0.2,20251105-084826,761,Introduction,T1,1,Automatic,main,2,20260213-110043,global,local,750,H,H,A,A,H-A.png,A-H.png,hH,hH,mask-3.png,mask-1.png,h,1,0.8782655000686646,none,-5,0,0.09740759991109371,0.09741579927504063,0.19860409945249557,0.19955249968916178,0.7496317001059651
RSVPLG03,cs,20260213-110016,1.0.2,20251105-084826,761,Introduction,T1,1,Automatic,main,3,20260213-110048,local,local,750,H,H,E,E,E-H.png,E-H.png,hH,hH,mask-2.png,mask-4.png,h,1,0.8693684004247189,none,-5,0,0.09644090011715889,0.09696100000292063,0.19758819974958897,0.1995099000632763,0.7503017000854015
RSVPLG03,cs,20260213-110016,1.0.2,20251105-084826,761,Introduction,T1,1,Automatic,main,4,20260213-110053,global,global,750,S,S,E,A,S-E.png,S-A.png,sS,sS,mask-3.png,mask-4.png,s,1,0.5468541998416185,none,-5,0,0.0964053999632597,0.0966771999374032,0.20031079929322004,0.2006470002233982,0.7497569993138313
RSVPLG03,cs,20260213-110016,1.0.2,20251105-084826,761,Introduction,T1,1,Automatic,main,5,20260213-110057,local,global,750,H,H,E,A,E-H.png,H-A.png,hH,hH,mask-2.png,mask-4.png,h,1,1.1456962991505861,none,-5,0,0.09682970028370619,0.09660769999027252,0.20083979982882738,0.20035389997065067,0.7506045000627637
RSVPLG03,cs,20260213-110016,1.0.2,20251105-084826,761,Introduction,T1,1,Automatic,main,6,20260213-110103,local,local,750,S,H,E,A,E-S.png,A-H.png,sS,hH,mask-1.png,mask-2.png,none,-6,0,none,-5,0,0.09940179996192455,0.09835930075496435,0.20127740036696196,0.19963640067726374,0.7512822998687625
RSVPLG03,cs,20260213-110117,1.0.2,20251105-084826,761,Practice,T1,1,Automatic,main,1,20260213-110133,global,local,300,H,H,A,A,H-A.png,A-H.png,hH,hH,mask-4.png,mask-3.png,h,1,0.7622687006369233,none,-5,0,0.04004119988530874,0.04750659968703985,0.09245100058615208,0.1002350002527237,0.29315830022096634
RSVPLG03,cs,20260213-110117,1.0.2,20251105-084826,761,Practice,T1,1,Automatic,main,2,20260213-110138,global,local,750,H,S,E,E,H-E.png,E-S.png,hH,sS,mask-2.png,mask-2.png,h,1,0.9013062994927168,none,-5,0,0.046424999833106995,0.04773360025137663,0.09876589942723513,0.09990780055522919,0.7503932993859053
RSVPLG03,cs,20260213-110117,1.0.2,20251105-084826,761,Practice,T1,1,Automatic,main,3,20260213-110143,local,local,300,S,H,A,A,A-S.png,A-H.png,sS,hH,mask-3.png,mask-2.png,h,0,0.9224918996915221,none,-5,0,0.047712200321257114,0.0475297998636961,0.09896100033074617,0.09895720053464174,0.30044039990752935
RSVPLG03,cs,20260213-110117,1.0.2,20251105-084826,761,Practice,T1,1,Automatic,main,4,20260213-110147,local,local,750,S,H,A,E,A-S.png,E-H.png,sS,hH,mask-2.png,mask-1.png,s,1,0.5177769996225834,none,-5,0,0.045809900388121605,0.0475192004814744,0.09996640030294657,0.10088710021227598,0.7497348003089428
RSVPLG03,cs,20260213-110117,1.0.2,20251105-084826,761,Practice,T1,1,Automatic,main,5,20260213-110152,local,global,750,S,H,E,A,E-S.png,H-A.png,sS,hH,mask-1.png,mask-2.png,s,1,0.921565699391067,none,-5,0,0.047552199102938175,0.04658479988574982,0.10164609923958778,0.10000320058315992,0.7515686992555857
RSVPLG03,cs,20260213-110117,1.0.2,20251105-084826,761,Practice,T1,1,Automatic,main,6,20260213-110157,global,local,750,H,S,E,E,H-E.png,E-S.png,hH,sS,mask-3.png,mask-2.png,h,1,0.6401875000447035,none,-5,0,0.04739709943532944,0.04741880018264055,0.09969429951161146,0.1002818001434207,0.7504826998338103
RSVPLG03,cs,20260213-110117,1.0.2,20251105-084826,761,Practice,T1,1,Automatic,main,7,20260213-110201,local,global,300,S,H,E,E,E-S.png,H-E.png,sS,hH,mask-1.png,mask-2.png,s,1,0.45415399968624115,none,-5,0,0.04756399989128113,0.04706079978495836,0.09971539955586195,0.09948890004307032,0.2997683994472027
RSVPLG03,cs,20260213-110117,1.0.2,20251105-084826,761,Practice,T1,1,Automatic,main,8,20260213-110205,local,local,300,H,H,A,E,A-H.png,E-H.png,hH,hH,mask-3.png,mask-3.png,h,1,0.40325080044567585,none,-5,0,0.04759699944406748,0.046908900141716,0.10064149927347898,0.10001750010997057,0.30095049925148487
RSVPLG03,cs,20260213-110117,1.0.2,20251105-084826,761,Practice,T1,1,Automatic,main,9,20260213-110209,local,local,750,H,H,E,E,E-H.png,E-H.png,hH,hH,mask-3.png,mask-4.png,h,1,0.45737009961158037,none,-5,0,0.04755169991403818,0.046634200029075146,0.10028669983148575,0.1000314000993967,0.7519469996914268
RSVPLG03,cs,20260213-110117,1.0.2,20251105-084826,761,Practice,T1,1,Automatic,main,10,20260213-110214,global,global,300,S,H,E,E,S-E.png,H-E.png,sS,hH,mask-1.png,mask-2.png,s,1,0.33813089970499277,none,-5,0,0.047691100277006626,0.046922700479626656,0.09914250019937754,0.10107010044157505,0.29904079996049404
RSVPLG03,cs,20260213-110117,1.0.2,20251105-084826,761,Practice,T1,1,Automatic,main,11,20260213-110218,global,global,300,S,H,A,E,S-A.png,H-E.png,sS,hH,mask-3.png,mask-4.png,s,1,0.3597167991101742,none,-5,0,0.04806170053780079,0.048004900105297565,0.10116760060191154,0.10116999968886375,0.2994812000542879
RSVPLG03,cs,20260213-110117,1.0.2,20251105-084826,761,Practice,T1,1,Automatic,main,12,20260213-110222,global,local,300,S,S,E,A,S-E.png,A-S.png,sS,sS,mask-3.png,mask-2.png,s,1,0.3382695997133851,none,-5,0,0.04857289977371693,0.04853999987244606,0.10062429960817099,0.10053989943116903,0.30091660004109144
RSVPLG03,cs,20260213-110117,1.0.2,20251105-084826,761,Practice,T1,1,Automatic,main,13,20260213-110226,local,global,750,S,H,A,E,A-S.png,H-E.png,sS,hH,mask-3.png,mask-1.png,s,1,0.832978100515902,none,-5,0,0.04756040032953024,0.04662789963185787,0.10062360018491745,0.1006600996479392,0.7513431003317237
RSVPLG03,cs,20260213-110117,1.0.2,20251105-084826,761,Practice,T1,1,Automatic,main,14,20260213-110231,global,global,750,S,S,A,A,S-A.png,S-A.png,sS,sS,mask-3.png,mask-1.png,s,1,0.4650536999106407,none,-5,0,0.048594700172543526,0.04861700069159269,0.10063640028238297,0.10069920029491186,0.7507959995418787
RSVPLG03,cs,20260213-110117,1.0.2,20251105-084826,761,Practice,T1,1,Automatic,main,15,20260213-110235,global,global,750,S,S,E,E,S-E.png,S-E.png,sS,sS,mask-2.png,mask-2.png,s,1,0.4095835005864501,none,-5,0,0.0487547991797328,0.04871680028736591,0.10067559964954853,0.1004124004393816,0.7500081993639469
RSVPLG03,cs,20260213-110117,1.0.2,20251105-084826,761,Practice,T1,1,Automatic,main,16,20260213-110240,local,global,300,S,S,E,E,E-S.png,S-E.png,sS,sS,mask-3.png,mask-4.png,s,1,0.5895706992596388,none,-5,0,0.04753019940108061,0.04686320014297962,0.09973909985274076,0.09994800016283989,0.2999842995777726
RSVPLG03,cs,20260213-110310,1.0.2,20251105-084826,761,Practice,Both,1,Automatic,main,1,20260213-110341,local,global,300,S,H,A,A,A-S.png,H-A.png,sS,hH,mask-1.png,mask-3.png,s,1,1.220426599495113,s,0,0.07117170002311468,0.03908520005643368,0.04814079962670803,0.0907872999086976,0.10129379946738482,0.2908153999596834
RSVPLG03,cs,20260213-110310,1.0.2,20251105-084826,761,Practice,Both,1,Automatic,main,2,20260213-110346,global,local,300,S,H,A,A,S-A.png,A-H.png,sS,hH,mask-1.png,mask-2.png,s,1,1.549077999778092,h,1,0.15553010068833828,0.04675059951841831,0.046077899634838104,0.09849849995225668,0.10036120004951954,0.2988766999915242
RSVPLG03,cs,20260213-110310,1.0.2,20251105-084826,761,Practice,Both,1,Automatic,main,3,20260213-110352,global,local,300,S,S,E,E,S-E.png,E-S.png,sS,sS,mask-2.png,mask-3.png,s,1,0.8948435001075268,s,1,0.06828900054097176,0.04766959976404905,0.04712849948555231,0.09910409990698099,0.10004489962011576,0.29914170037955046
RSVPLG03,cs,20260213-110310,1.0.2,20251105-084826,761,Practice,Both,1,Automatic,main,4,20260213-110356,global,global,750,H,S,A,A,H-A.png,S-A.png,hH,sS,mask-3.png,mask-4.png,h,1,1.2165871998295188,s,1,0.07316619995981455,0.04756509978324175,0.04768119938671589,0.09870450012385845,0.09986709989607334,0.7479942003265023
RSVPLG03,cs,20260213-110310,1.0.2,20251105-084826,761,Practice,Both,1,Automatic,main,5,20260213-110402,global,local,750,H,S,A,E,H-A.png,E-S.png,hH,sS,mask-1.png,mask-2.png,h,1,1.2937597995623946,s,1,0.04592039994895458,0.046651700511574745,0.04569489974528551,0.09892769996076822,0.09993289969861507,0.748564200475812
RSVPLG03,cs,20260213-110310,1.0.2,20251105-084826,761,Practice,Both,1,Automatic,main,6,20260213-110407,local,global,300,H,S,A,E,A-H.png,S-E.png,hH,sS,mask-2.png,mask-3.png,s,0,2.597727400250733,h,0,0.011795800179243088,0.04794479999691248,0.046458699740469456,0.1014852998778224,0.09848870057612658,0.3009030995890498
RSVPLG03,cs,20260213-110310,1.0.2,20251105-084826,761,Practice,Both,1,Automatic,main,7,20260213-110414,global,global,300,S,S,A,E,S-A.png,S-E.png,sS,sS,mask-1.png,mask-2.png,s,1,0.9034906001761556,s,1,0.06803129985928535,0.0470703998580575,0.047170800156891346,0.10017030034214258,0.10026090033352375,0.29993929993361235
RSVPLG03,cs,20260213-110310,1.0.2,20251105-084826,761,Practice,Both,1,Automatic,main,8,20260213-110418,local,local,300,H,H,A,E,A-H.png,E-H.png,hH,hH,mask-3.png,mask-2.png,h,1,1.1559342993423343,h,1,0.08072660025209188,0.046788099221885204,0.04756200034171343,0.09904269967228174,0.09950680006295443,0.2993228994309902
RSVPLG03,cs,20260213-110310,1.0.2,20251105-084826,761,Practice,Both,1,Automatic,main,9,20260213-110423,global,global,300,H,H,E,E,H-E.png,H-E.png,hH,hH,mask-3.png,mask-1.png,h,1,0.7472912995144725,h,1,0.06316519994288683,0.047636100091040134,0.046777999959886074,0.10026110056787729,0.09976929984986782,0.2997546000406146
RSVPLG03,cs,20260213-110310,1.0.2,20251105-084826,761,Practice,Both,1,Automatic,main,10,20260213-110427,global,local,750,S,H,E,E,S-E.png,E-H.png,sS,hH,mask-4.png,mask-4.png,s,1,1.317001599818468,h,1,0.09757449943572283,0.047664299607276917,0.046702099964022636,0.09910889994353056,0.10004630032926798,0.7481183996424079
RSVPLG03,cs,20260213-110310,1.0.2,20251105-084826,761,Practice,Both,1,Automatic,main,11,20260213-110433,local,local,750,S,H,E,A,E-S.png,A-H.png,sS,hH,mask-2.png,mask-3.png,s,1,2.1884868005290627,h,1,1.1266423994675279,0.046424600295722485,0.048704199492931366,0.09958039969205856,0.10026749968528748,0.7464885003864765
RSVPLG03,cs,20260213-110310,1.0.2,20251105-084826,761,Practice,Both,1,Automatic,main,12,20260213-110440,global,global,750,H,H,E,E,H-E.png,H-E.png,hH,hH,mask-3.png,mask-1.png,h,1,0.7217645002529025,h,1,0.07235680054873228,0.047549800015985966,0.04753989912569523,0.10057619959115982,0.09956579934805632,0.7496504001319408
RSVPLG03,cs,20260213-110310,1.0.2,20251105-084826,761,Practice,Both,1,Automatic,main,13,20260213-110445,local,global,750,S,S,E,E,E-S.png,S-E.png,sS,sS,mask-3.png,mask-3.png,h,0,1.3400861006230116,h,0,0.07469719927757978,0.04744330048561096,0.048675899393856525,0.1003668000921607,0.09997009951621294,0.7483007004484534
RSVPLG03,cs,20260213-110310,1.0.2,20251105-084826,761,Practice,Both,1,Automatic,main,14,20260213-110451,local,global,750,H,H,E,E,E-H.png,H-E.png,hH,hH,mask-2.png,mask-4.png,s,0,1.916240400634706,s,0,0.08960850071161985,0.048750500194728374,0.046356700360774994,0.10090279951691628,0.09925429988652468,0.7492159996181726
RSVPLG03,cs,20260213-110310,1.0.2,20251105-084826,761,Practice,Both,1,Automatic,main,15,20260213-110457,local,local,300,H,S,E,E,E-H.png,E-S.png,hH,sS,mask-2.png,mask-4.png,h,1,0.8491648994386196,h,0,0.3968424005433917,0.04773910064250231,0.046786400489509106,0.09917300008237362,0.09997870028018951,0.29987999983131886
RSVPLG03,cs,20260213-110310,1.0.2,20251105-084826,761,Practice,Both,1,Automatic,main,16,20260213-110502,local,local,750,H,H,A,E,A-H.png,E-H.png,hH,hH,mask-3.png,mask-2.png,h,1,1.5950901005417109,s,0,0.009256700053811073,0.04771069996058941,0.047739299945533276,0.10023429989814758,0.10097580030560493,0.7481339992955327
RSVPLG03,cs,20260213-110536,1.0.2,20251105-084826,761,Practice,Both,1,Automatic,main,1,20260213-110557,global,local,750,H,H,E,E,H-E.png,E-H.png,hH,hH,mask-4.png,mask-4.png,h,1,0.9177667004987597,s,0,0.08350730035454035,0.04011010006070137,0.047982700169086456,0.09288359992206097,0.1000017998740077,0.7435603002086282
RSVPLG03,cs,20260213-110536,1.0.2,20251105-084826,761,Practice,Both,1,Automatic,main,2,20260213-110602,local,global,750,H,H,A,E,A-H.png,H-E.png,hH,hH,mask-1.png,mask-1.png,h,1,1.1122394008561969,h,1,0.07678200025111437,0.04766950011253357,0.04880059976130724,0.10086739994585514,0.10002269968390465,0.7511660000309348
RSVPLG03,cs,20260213-110536,1.0.2,20251105-084826,761,Practice,Both,1,Automatic,main,3,20260213-110607,local,global,300,S,S,E,A,E-S.png,S-A.png,sS,sS,mask-4.png,mask-1.png,s,1,2.132779199630022,h,0,0.15753240045160055,0.04654670041054487,0.04703100025653839,0.09867020044475794,0.10012940037995577,0.30050550028681755
RSVPLG03,cs,20260213-110536,1.0.2,20251105-084826,761,Practice,Both,1,Automatic,main,4,20260213-110613,global,local,750,S,S,A,A,S-A.png,A-S.png,sS,sS,mask-4.png,mask-3.png,s,1,0.953859600238502,h,0,0.1593078002333641,0.04674299992620945,0.048318699933588505,0.09981659986078739,0.10051940008997917,0.7504559997469187
RSVPLG03,cs,20260213-110536,1.0.2,20251105-084826,761,Practice,Both,1,Automatic,main,5,20260213-110618,local,local,300,S,S,E,A,E-S.png,A-S.png,sS,sS,mask-3.png,mask-2.png,s,1,0.8801106996834278,s,1,0.06927280034869909,0.04958000034093857,0.04754090029746294,0.10059879999607801,0.1015379000455141,0.3007541000843048
RSVPLG03,cs,20260213-110536,1.0.2,20251105-084826,761,Practice,Both,1,Automatic,main,6,20260213-110623,global,local,300,S,H,A,E,S-A.png,E-H.png,sS,hH,mask-1.png,mask-2.png,s,1,0.922881199978292,h,1,0.07241239957511425,0.04755430016666651,0.04706250037997961,0.09909139946103096,0.10001860000193119,0.30051689967513084
RSVPLG03,cs,20260213-110536,1.0.2,20251105-084826,761,Practice,Both,1,Automatic,main,7,20260213-110628,local,local,750,H,H,A,E,A-H.png,E-H.png,hH,hH,mask-3.png,mask-4.png,h,1,0.7406093999743462,h,1,0.07029670011252165,0.04707290045917034,0.047321099787950516,0.0982726002112031,0.10077289957553148,0.7496847007423639
RSVPLG03,cs,20260213-110536,1.0.2,20251105-084826,761,Practice,Both,1,Automatic,main,8,20260213-110633,global,local,300,H,H,A,E,H-A.png,E-H.png,hH,hH,mask-3.png,mask-3.png,h,1,1.5714932000264525,h,1,0.36483179964125156,0.04751279950141907,0.047351899556815624,0.09955269936472178,0.10040440037846565,0.2990870997309685
RSVPLG03,cs,20260213-110536,1.0.2,20251105-084826,761,Practice,Both,1,Automatic,main,9,20260213-110638,local,global,300,H,H,E,A,E-H.png,H-A.png,hH,hH,mask-3.png,mask-4.png,h,1,2.840522600337863,s,0,0.009874199517071247,0.04686949960887432,0.047764699906110764,0.1001207996159792,0.09998750034719706,0.2997558992356062
RSVPLG03,cs,20260213-110536,1.0.2,20251105-084826,761,Practice,Both,1,Automatic,main,10,20260213-110645,global,global,300,H,S,A,A,H-A.png,S-A.png,hH,sS,mask-4.png,mask-3.png,h,1,0.7435266003012657,s,1,0.01241149939596653,0.04772910010069609,0.04756690002977848,0.09931600000709295,0.09955979976803064,0.29971580021083355
RSVPLG03,cs,20260213-110536,1.0.2,20251105-084826,761,Practice,Both,1,Automatic,main,11,20260213-110649,global,global,750,S,H,E,A,S-E.png,H-A.png,sS,hH,mask-4.png,mask-2.png,s,1,0.8123606005683541,h,1,0.9245130000635982,0.04750880040228367,0.04888760019093752,0.09954110067337751,0.10095829982310534,0.7489630002528429
RSVPLG03,cs,20260213-110536,1.0.2,20251105-084826,761,Practice,Both,1,Automatic,main,12,20260213-110654,local,local,750,S,H,E,A,E-S.png,A-H.png,sS,hH,mask-1.png,mask-2.png,s,1,1.0248737996444106,h,1,1.1208527004346251,0.046546800062060356,0.04657710064202547,0.09996190015226603,0.09965440072119236,0.7505575995892286
RSVPLG03,cs,20260213-110536,1.0.2,20251105-084826,761,Practice,Both,1,Automatic,main,13,20260213-110659,global,global,300,H,S,E,E,H-E.png,S-E.png,hH,sS,mask-1.png,mask-1.png,h,1,0.7634112993255258,s,1,1.1768722999840975,0.04680059943348169,0.04722779989242554,0.09943890012800694,0.10006990004330873,0.29962070006877184
RSVPLG03,cs,20260213-110536,1.0.2,20251105-084826,761,Practice,Both,1,Automatic,main,14,20260213-110705,local,local,300,S,S,A,E,A-S.png,E-S.png,sS,sS,mask-4.png,mask-2.png,h,0,2.2363424003124237,s,1,0.06037670001387596,0.047503200359642506,0.04651589971035719,0.09873250033706427,0.09874260053038597,0.3007073998451233
RSVPLG03,cs,20260213-110536,1.0.2,20251105-084826,761,Practice,Both,1,Automatic,main,15,20260213-110711,local,global,750,H,S,A,E,A-H.png,S-E.png,hH,sS,mask-4.png,mask-2.png,s,0,1.2041165996342897,h,0,1.348734399303794,0.047202699817717075,0.04703080002218485,0.09926809929311275,0.1013569999486208,0.7500302996486425
RSVPLG03,cs,20260213-110536,1.0.2,20251105-084826,761,Practice,Both,1,Automatic,main,16,20260213-110716,global,global,750,S,H,A,E,S-A.png,H-E.png,sS,hH,mask-4.png,mask-2.png,h,0,0.7162343002855778,s,0,0.6209149993956089,0.04707009997218847,0.04768059961497784,0.099639100022614,0.10186889953911304,0.7493646005168557
RSVPLG03,cs,20260213-110744,1.0.2,20251105-084826,761,Practice,Both,1,Automatic,main,1,20260213-110806,global,global,300,S,S,E,E,S-E.png,S-E.png,sS,sS,mask-4.png,mask-1.png,s,1,0.8267434006556869,s,1,0.05662740021944046,0.04308279976248741,0.04827889986336231,0.0961784003302455,0.09880949929356575,0.29507850017398596
RSVPLG03,cs,20260213-110744,1.0.2,20251105-084826,761,Practice,Both,1,Automatic,main,2,20260213-110811,local,local,750,H,H,E,E,E-H.png,E-H.png,hH,hH,mask-1.png,mask-3.png,h,1,0.8966507995501161,h,1,0.06433079950511456,0.048702399246394634,0.046649799682199955,0.1008262000977993,0.0995185999199748,0.7505248999223113
RSVPLG03,cs,20260213-110744,1.0.2,20251105-084826,761,Practice,Both,1,Automatic,main,3,20260213-110816,local,local,750,S,S,E,A,E-S.png,A-S.png,sS,sS,mask-4.png,mask-3.png,s,1,0.7983056996017694,s,1,0.07515470031648874,0.048378500156104565,0.04755200073122978,0.10127130057662725,0.10054980032145977,0.7496817000210285
RSVPLG03,cs,20260213-110744,1.0.2,20251105-084826,761,Practice,Both,1,Automatic,main,4,20260213-110821,global,local,300,H,H,A,A,H-A.png,A-H.png,hH,hH,mask-4.png,mask-2.png,h,1,0.8640183005481958,h,1,0.05329560022801161,0.04838609974831343,0.04681949969381094,0.10091079957783222,0.10003319941461086,0.2998481001704931
RSVPLG03,cs,20260213-110744,1.0.2,20251105-084826,761,Practice,Both,1,Automatic,main,5,20260213-110825,global,global,750,H,H,E,E,H-E.png,H-E.png,hH,hH,mask-2.png,mask-1.png,h,1,0.6326981000602245,h,1,0.05347369983792305,0.04880059976130724,0.04753750003874302,0.10218079946935177,0.10048590041697025,0.7499433998018503
RSVPLG03,cs,20260213-110744,1.0.2,20251105-084826,761,Practice,Both,1,Automatic,main,6,20260213-110830,global,global,750,S,S,A,E,S-A.png,S-E.png,sS,sS,mask-1.png,mask-2.png,s,1,0.8481839001178741,s,1,0.0767304003238678,0.046418399550020695,0.047435699962079525,0.09919059928506613,0.09862940013408661,0.7498226994648576
RSVPLG03,cs,20260213-110744,1.0.2,20251105-084826,761,Practice,Both,1,Automatic,main,7,20260213-110835,local,global,750,H,H,A,E,A-H.png,H-E.png,hH,hH,mask-2.png,mask-2.png,h,1,1.1503454996272922,h,1,0.04044690076261759,0.0471347002312541,0.047686800360679626,0.10140919964760542,0.09904289990663528,0.7498401999473572
RSVPLG03,cs,20260213-110744,1.0.2,20251105-084826,761,Practice,Both,1,Automatic,main,8,20260213-110840,local,local,300,H,S,A,A,A-H.png,A-S.png,hH,sS,mask-4.png,mask-1.png,h,1,0.5820590993389487,h,0,0.0620277002453804,0.0491536995396018,0.04669590014964342,0.1004381999373436,0.10084819979965687,0.3012014999985695
RSVPLG03,cs,20260213-110744,1.0.2,20251105-084826,761,Practice,Both,1,Automatic,main,9,20260213-110845,local,global,300,S,S,E,E,E-S.png,S-E.png,sS,sS,mask-3.png,mask-4.png,s,1,0.858105800114572,s,1,0.2296487996354699,0.04719290044158697,0.04747280012816191,0.09751450084149837,0.10001719929277897,0.2982883006334305
RSVPLG03,cs,20260213-110744,1.0.2,20251105-084826,761,Practice,Both,1,Automatic,main,10,20260213-110850,global,local,300,S,S,A,E,S-A.png,E-S.png,sS,sS,mask-2.png,mask-2.png,s,1,0.6878180997446179,h,0,0.34705950040370226,0.04777329973876476,0.0484349001199007,0.10089069977402687,0.10043290071189404,0.30045529920607805
RSVPLG03,cs,20260213-110744,1.0.2,20251105-084826,761,Practice,Both,1,Automatic,main,11,20260213-110854,global,global,300,S,H,A,E,S-A.png,H-E.png,sS,hH,mask-2.png,mask-2.png,h,0,1.5479034995660186,h,1,0.06181799992918968,0.04761740006506443,0.04756220057606697,0.09964550007134676,0.09965679980814457,0.3000879995524883
RSVPLG03,cs,20260213-110744,1.0.2,20251105-084826,761,Practice,Both,1,Automatic,main,12,20260213-110859,local,global,300,S,H,A,E,A-S.png,H-E.png,sS,hH,mask-1.png,mask-2.png,h,0,2.2573711993172765,s,0,0.044298600405454636,0.04755139909684658,0.04752600006759167,0.10156829934567213,0.09912250004708767,0.30119459982961416
RSVPLG03,cs,20260213-110744,1.0.2,20251105-084826,761,Practice,Both,1,Automatic,main,13,20260213-110905,global,local,750,S,H,A,A,S-A.png,A-H.png,sS,hH,mask-4.png,mask-3.png,s,1,0.7776939999312162,h,1,0.0889777997508645,0.04695519991219044,0.048719000071287155,0.09880729950964451,0.10081390012055635,0.7484091995283961
RSVPLG03,cs,20260213-110744,1.0.2,20251105-084826,761,Practice,Both,1,Automatic,main,14,20260213-110910,local,local,300,H,H,E,A,E-H.png,A-H.png,hH,hH,mask-4.png,mask-3.png,s,0,1.6877842992544174,h,1,0.10854499973356724,0.04769859928637743,0.047639899887144566,0.09893789980560541,0.09913320001214743,0.3001079997047782
RSVPLG03,cs,20260213-110744,1.0.2,20251105-084826,761,Practice,Both,1,Automatic,main,15,20260213-110916,local,global,750,H,H,E,E,E-H.png,H-E.png,hH,hH,mask-1.png,mask-2.png,h,1,1.4166540000587702,s,0,0.09160349983721972,0.047296199947595596,0.047774700447916985,0.09879219997674227,0.10005060024559498,0.7480538999661803
RSVPLG03,cs,20260213-110744,1.0.2,20251105-084826,761,Practice,Both,1,Automatic,main,16,20260213-110922,global,local,750,S,H,A,E,S-A.png,E-H.png,sS,hH,mask-3.png,mask-3.png,s,1,1.3671591999009252,s,0,0.09233350027352571,0.04752639960497618,0.047528999857604504,0.10153859946876764,0.10051339957863092,0.7495376002043486
RSVPLG03,cs,20260213-111031,1.0.2,20251105-084826,761,Experiment,Both,1,Automatic,warmup,1,20260213-111108,local,local,300,S,S,E,A,E-S.png,A-S.png,sS,sS,mask-3.png,mask-4.png,s,1,0.722974400036037,s,1,0.5246749995276332,0.039411100558936596,0.048664200119674206,0.09336880035698414,0.09956709947437048,0.2924920003861189
RSVPLG03,cs,20260213-111031,1.0.2,20251105-084826,761,Experiment,Both,1,Automatic,warmup,2,20260213-111113,global,local,300,H,S,A,E,H-A.png,E-S.png,hH,sS,mask-4.png,mask-3.png,h,1,0.9671908998861909,s,1,0.39571569953113794,0.04716030042618513,0.04858850035816431,0.10017770063132048,0.09994180034846067,0.2989402003586292
RSVPLG03,cs,20260213-111031,1.0.2,20251105-084826,761,Experiment,Both,1,Automatic,warmup,3,20260213-111118,global,global,750,S,S,E,A,S-E.png,S-A.png,sS,sS,mask-2.png,mask-4.png,h,0,0.9112583994865417,s,1,0.16533670015633106,0.047628999687731266,0.04735630005598068,0.09977590013295412,0.10094690043479204,0.7491612993180752
RSVPLG03,cs,20260213-111031,1.0.2,20251105-084826,761,Experiment,Both,1,Automatic,warmup,4,20260213-111123,local,local,750,S,S,E,E,E-S.png,E-S.png,sS,sS,mask-1.png,mask-4.png,s,1,0.8363760001957417,s,1,0.0713841998949647,0.04888909962028265,0.048168099485337734,0.10194329917430878,0.10024099983274937,0.7517486000433564
RSVPLG03,cs,20260213-111031,1.0.2,20251105-084826,761,Experiment,Both,1,Automatic,main,5,20260213-111128,global,local,750,H,S,E,A,H-E.png,A-S.png,hH,sS,mask-1.png,mask-4.png,h,1,1.2071465998888016,s,1,0.3496083002537489,0.04751900024712086,0.046578300185501575,0.10052580013871193,0.10059479996562004,0.7512721000239253
RSVPLG03,cs,20260213-111031,1.0.2,20251105-084826,761,Experiment,Both,1,Automatic,main,6,20260213-111134,global,global,750,H,H,E,A,H-E.png,H-A.png,hH,hH,mask-3.png,mask-2.png,h,1,0.9086342006921768,h,1,0.16530079953372478,0.04755759984254837,0.048755399882793427,0.09960340056568384,0.09956779982894659,0.7494311006739736
RSVPLG03,cs,20260213-111031,1.0.2,20251105-084826,761,Experiment,Both,1,Automatic,main,7,20260213-111140,local,local,750,S,S,A,A,A-S.png,A-S.png,sS,sS,mask-2.png,mask-3.png,s,1,0.8069962002336979,s,1,0.05363109987229109,0.047099499963223934,0.048446400091052055,0.10010639950633049,0.10055379942059517,0.7493580998852849
RSVPLG03,cs,20260213-111031,1.0.2,20251105-084826,761,Experiment,Both,1,Automatic,main,8,20260213-111144,local,local,300,S,H,E,A,E-S.png,A-H.png,sS,hH,mask-3.png,mask-1.png,s,1,1.6929071005433798,h,1,0.07578720059245825,0.04682910069823265,0.047602999955415726,0.10020969994366169,0.10005590040236712,0.3009273000061512
RSVPLG03,cs,20260213-111031,1.0.2,20251105-084826,761,Experiment,Both,1,Automatic,main,9,20260213-111150,local,local,300,S,S,E,A,E-S.png,A-S.png,sS,sS,mask-2.png,mask-2.png,s,1,0.6893868995830417,s,1,0.09001859929412603,0.04778680019080639,0.04703679960221052,0.09961779974400997,0.10032389964908361,0.2997305002063513
RSVPLG03,cs,20260213-111031,1.0.2,20251105-084826,761,Experiment,Both,1,Automatic,main,10,20260213-111154,global,global,750,S,S,A,A,S-A.png,S-A.png,sS,sS,mask-1.png,mask-3.png,s,1,0.7189148999750614,s,1,0.08653560001403093,0.04635650012642145,0.04772430006414652,0.09840560052543879,0.09994729980826378,0.7494890000671148
RSVPLG03,cs,20260213-111031,1.0.2,20251105-084826,761,Experiment,Both,1,Automatic,main,11,20260213-111159,global,global,300,H,H,A,E,H-A.png,H-E.png,hH,hH,mask-3.png,mask-1.png,s,0,1.5919041996821761,h,1,0.3101757001131773,0.04774460010230541,0.04675230011343956,0.09998870082199574,0.09981700032949448,0.30070400051772594
RSVPLG03,cs,20260213-111031,1.0.2,20251105-084826,761,Experiment,Both,1,Automatic,main,12,20260213-111205,local,global,750,H,H,E,A,E-H.png,H-A.png,hH,hH,mask-4.png,mask-2.png,h,1,0.7512749005109072,h,1,0.5025863004848361,0.04792299959808588,0.047427600249648094,0.09920309949666262,0.10144820064306259,0.7494878992438316
RSVPLG03,cs,20260213-111031,1.0.2,20251105-084826,761,Experiment,Both,1,Automatic,main,13,20260213-111211,local,local,300,S,H,E,A,E-S.png,A-H.png,sS,hH,mask-4.png,mask-3.png,s,1,1.4731630003079772,h,1,0.004622899927198887,0.04879610054194927,0.048891100101172924,0.10111409984529018,0.10112450085580349,0.30021699983626604
RSVPLG03,cs,20260213-111031,1.0.2,20251105-084826,761,Experiment,Both,1,Automatic,main,14,20260213-111216,global,global,750,H,H,E,A,H-E.png,H-A.png,hH,hH,mask-3.png,mask-1.png,h,1,0.4947470994666219,h,1,0.05841649975627661,0.047260199673473835,0.04656330030411482,0.09959650039672852,0.10052690003067255,0.7497448995709419
RSVPLG03,cs,20260213-111031,1.0.2,20251105-084826,761,Experiment,Both,1,Automatic,main,15,20260213-111220,local,local,300,H,H,E,E,E-H.png,E-H.png,hH,hH,mask-4.png,mask-4.png,h,1,1.5846223998814821,h,1,0.16548660025000572,0.04757620021700859,0.04712430015206337,0.09919499978423119,0.09915640018880367,0.3002175996080041
RSVPLG03,cs,20260213-111031,1.0.2,20251105-084826,761,Experiment,Both,1,Automatic,main,16,20260213-111226,global,global,750,S,H,E,E,S-E.png,H-E.png,sS,hH,mask-4.png,mask-3.png,s,1,0.8761029001325369,h,1,0.35861629992723465,0.04752370063215494,0.04755830019712448,0.10000800061970949,0.09935820009559393,0.7504641003906727
RSVPLG03,cs,20260213-111031,1.0.2,20251105-084826,761,Experiment,Both,1,Automatic,main,17,20260213-111231,global,local,750,S,S,E,A,S-E.png,A-S.png,sS,sS,mask-3.png,mask-4.png,s,1,0.7638766001909971,h,0,0.17314760014414787,0.047721900045871735,0.04665459971874952,0.1010020999237895,0.10001240018755198,0.7506254995241761
RSVPLG03,cs,20260213-111031,1.0.2,20251105-084826,761,Experiment,Both,1,Automatic,main,18,20260213-111236,local,global,300,S,S,E,A,E-S.png,S-A.png,sS,sS,mask-1.png,mask-2.png,s,1,0.771747600287199,h,0,0.32087459973990917,0.046887899748981,0.048223599791526794,0.09993989951908588,0.10098159965127707,0.29891090001910925
RSVPLG03,cs,20260213-111031,1.0.2,20251105-084826,761,Experiment,Both,1,Automatic,main,19,20260213-111241,global,global,300,H,S,A,A,H-A.png,S-A.png,hH,sS,mask-3.png,mask-4.png,h,1,0.7668834999203682,s,1,0.0517384996637702,0.04668809939175844,0.04588810075074434,0.09908219985663891,0.1002950007095933,0.2999054994434118
RSVPLG03,cs,20260213-111031,1.0.2,20251105-084826,761,Experiment,Both,1,Automatic,main,20,20260213-111246,local,global,300,H,S,E,E,E-H.png,S-E.png,hH,sS,mask-3.png,mask-4.png,h,1,1.088778500445187,s,1,0.07649639993906021,0.0475602000951767,0.0486174002289772,0.09893149975687265,0.1005664998665452,0.29891519993543625
RSVPLG03,cs,20260213-111031,1.0.2,20251105-084826,761,Experiment,Both,1,Automatic,main,21,20260213-111251,local,local,750,H,H,A,E,A-H.png,E-H.png,hH,hH,mask-4.png,mask-3.png,h,1,0.535075499676168,h,1,0.07537209987640381,0.047580099664628506,0.04751979932188988,0.10068480018526316,0.1005434999242425,0.750305900350213
RSVPLG03,cs,20260213-111031,1.0.2,20251105-084826,761,Experiment,Both,1,Automatic,main,22,20260213-111255,local,global,750,S,S,A,E,A-S.png,S-E.png,sS,sS,mask-4.png,mask-1.png,s,1,0.5850988002493978,h,0,0.23790249973535538,0.04749219957739115,0.04752840008586645,0.10085699986666441,0.09961200039833784,0.7507679993286729
RSVPLG03,cs,20260213-111031,1.0.2,20251105-084826,761,Experiment,Both,1,Automatic,main,23,20260213-111301,global,local,300,H,H,A,E,H-A.png,E-H.png,hH,hH,mask-2.png,mask-4.png,h,1,1.4777629999443889,s,0,0.13318600039929152,0.04692550003528595,0.048731500282883644,0.10020870063453913,0.10012050066143274,0.2992468997836113
RSVPLG03,cs,20260213-111031,1.0.2,20251105-084826,761,Experiment,Both,1,Automatic,main,24,20260213-111306,local,global,300,S,H,E,A,E-S.png,H-A.png,sS,hH,mask-2.png,mask-3.png,s,1,1.3891529003158212,s,0,0.035772799514234066,0.04625579994171858,0.048402899876236916,0.09942470025271177,0.09926950000226498,0.2984496997669339
RSVPLG03,cs,20260213-111031,1.0.2,20251105-084826,761,Experiment,Both,1,Automatic,main,25,20260213-111311,global,global,300,H,S,A,E,H-A.png,S-E.png,hH,sS,mask-3.png,mask-1.png,h,1,0.8444098001345992,s,1,0.026839200407266617,0.0476257000118494,0.04752940032631159,0.09962109941989183,0.09940179996192455,0.3002974996343255
RSVPLG03,cs,20260213-111031,1.0.2,20251105-084826,761,Experiment,Both,1,Automatic,main,26,20260213-111320,global,global,750,S,S,A,E,S-A.png,S-E.png,sS,sS,mask-1.png,mask-1.png,s,1,1.4369898000732064,s,1,0.06980349961668253,0.049104999750852585,0.04769859928637743,0.09958849940449,0.09977929946035147,0.7520126001909375
RSVPLG03,cs,20260213-111031,1.0.2,20251105-084826,761,Experiment,Both,1,Automatic,main,27,20260213-111326,local,global,750,S,S,A,E,A-S.png,S-E.png,sS,sS,mask-1.png,mask-1.png,s,1,1.0032847002148628,h,0,0.1318465992808342,0.04679720010608435,0.04777790047228336,0.10003440082073212,0.0989788006991148,0.7505508000031114
RSVPLG03,cs,20260213-111031,1.0.2,20251105-084826,761,Experiment,Both,1,Automatic,main,28,20260213-111331,global,global,300,S,S,A,E,S-A.png,S-E.png,sS,sS,mask-3.png,mask-4.png,s,1,0.6857968997210264,s,1,0.08120710030198097,0.04767670016735792,0.046971400268375874,0.09906479995697737,0.09930050000548363,0.2991461995989084
RSVPLG03,cs,20260213-111031,1.0.2,20251105-084826,761,Experiment,Both,1,Automatic,main,29,20260213-111335,local,local,750,S,H,E,E,E-S.png,E-H.png,sS,hH,mask-1.png,mask-2.png,s,1,1.1892291000112891,h,1,0.03952940087765455,0.04772759974002838,0.0475418996065855,0.0991414999589324,0.10058469977229834,0.7495317002758384
RSVPLG03,cs,20260213-111031,1.0.2,20251105-084826,761,Experiment,Both,1,Automatic,main,30,20260213-111341,global,local,750,S,H,A,E,S-A.png,E-H.png,sS,hH,mask-2.png,mask-2.png,s,1,0.9009480001404881,h,1,0.2211963003501296,0.04858740046620369,0.04730079974979162,0.10062270052731037,0.10013839974999428,0.7504745004698634
RSVPLG03,cs,20260213-111031,1.0.2,20251105-084826,761,Experiment,Both,1,Automatic,main,31,20260213-111346,global,global,300,H,S,E,A,H-E.png,S-A.png,hH,sS,mask-1.png,mask-4.png,h,1,1.0690385000780225,s,1,1.1651504002511501,0.04773790016770363,0.04673760011792183,0.10002230014652014,0.09952699951827526,0.3000226002186537
RSVPLG03,cs,20260213-111031,1.0.2,20251105-084826,761,Experiment,Both,1,Automatic,main,32,20260213-111351,local,global,300,H,H,E,E,E-H.png,H-E.png,hH,hH,mask-3.png,mask-4.png,h,1,0.9800006002187729,s,0,0.07784279994666576,0.04759200010448694,0.04856189992278814,0.09796770010143518,0.10025009978562593,0.29911790043115616
RSVPLG03,cs,20260213-111031,1.0.2,20251105-084826,761,Experiment,Both,1,Automatic,main,33,20260213-111356,local,local,300,H,H,E,A,E-H.png,A-H.png,hH,hH,mask-2.png,mask-2.png,h,1,1.3964648991823196,h,1,1.1820420995354652,0.04803149960935116,0.04701169952750206,0.100119199603796,0.09910659957677126,0.300798200070858
RSVPLG03,cs,20260213-111031,1.0.2,20251105-084826,761,Experiment,Both,1,Automatic,main,34,20260213-111402,global,global,750,S,S,A,A,S-A.png,S-A.png,sS,sS,mask-2.png,mask-4.png,s,1,0.8537050997838378,s,1,0.05427730083465576,0.04776829946786165,0.04870530031621456,0.09896089974790812,0.10089580062776804,0.7496534995734692
RSVPLG03,cs,20260213-111031,1.0.2,20251105-084826,761,Experiment,Both,1,Automatic,main,35,20260213-111407,global,global,750,H,H,E,A,H-E.png,H-A.png,hH,hH,mask-1.png,mask-1.png,h,1,0.4698430001735687,h,1,0.05841770023107529,0.04740319959819317,0.047612499445676804,0.09887969959527254,0.09866600017994642,0.749995999969542
RSVPLG03,cs,20260213-111031,1.0.2,20251105-084826,761,Experiment,Both,1,Automatic,main,36,20260213-111412,local,local,750,H,H,E,E,E-H.png,E-H.png,hH,hH,mask-4.png,mask-1.png,h,1,0.933279499411583,h,1,0.06741759926080704,0.048848300240933895,0.04788390081375837,0.10038079973310232,0.1001340001821518,0.7512214994058013
RSVPLG03,cs,20260213-111031,1.0.2,20251105-084826,761,Experiment,Both,1,Automatic,main,37,20260213-111417,global,global,300,S,H,A,E,S-A.png,H-E.png,sS,hH,mask-2.png,mask-1.png,s,1,1.188715299591422,h,1,0.07784130051732063,0.047756100073456764,0.04659839998930693,0.09872560016810894,0.09850339964032173,0.3000290999189019
RSVPLG03,cs,20260213-111031,1.0.2,20251105-084826,761,Experiment,Both,1,Automatic,main,38,20260213-111422,local,local,750,H,H,A,E,A-H.png,E-H.png,hH,hH,mask-4.png,mask-4.png,h,1,0.4282729998230934,h,1,0.07063560001552105,0.04743780009448528,0.046643500216305256,0.10106430016458035,0.0998173002153635,0.7518431004136801
RSVPLG03,cs,20260213-111031,1.0.2,20251105-084826,761,Experiment,Both,1,Automatic,main,39,20260213-111426,local,global,750,S,S,A,E,A-S.png,S-E.png,sS,sS,mask-4.png,mask-4.png,s,1,1.7425657995045185,s,1,0.057172199711203575,0.048831500113010406,0.048768999986350536,0.10109539981931448,0.10162790026515722,0.7497236002236605
RSVPLG03,cs,20260213-111031,1.0.2,20251105-084826,761,Experiment,Both,1,Automatic,main,40,20260213-111432,global,global,750,S,H,E,A,S-E.png,H-A.png,sS,hH,mask-3.png,mask-3.png,h,0,0.4107830999419093,h,1,0.06738239992409945,0.04813369922339916,0.04751609917730093,0.10020469967275858,0.09962489921599627,0.7497258000075817
RSVPLG03,cs,20260213-111031,1.0.2,20251105-084826,761,Experiment,Both,1,Automatic,main,41,20260213-111437,global,local,300,H,S,E,A,H-E.png,A-S.png,hH,sS,mask-4.png,mask-4.png,h,1,0.5062952004373074,h,0,0.1217643991112709,0.04756200034171343,0.04760430008172989,0.0989242997020483,0.1000236002728343,0.2995838997885585
RSVPLG03,cs,20260213-111031,1.0.2,20251105-084826,761,Experiment,Both,1,Automatic,main,42,20260213-111441,local,local,300,H,H,E,A,E-H.png,A-H.png,hH,hH,mask-2.png,mask-4.png,h,1,0.6980833997949958,h,1,0.08738970011472702,0.04788400046527386,0.047214699909090996,0.10093689989298582,0.10036169923841953,0.3004808006808162
RSVPLG03,cs,20260213-111031,1.0.2,20251105-084826,761,Experiment,Both,1,Automatic,main,43,20260213-111445,global,global,300,S,H,A,A,S-A.png,H-A.png,sS,hH,mask-1.png,mask-4.png,s,1,0.5023421002551913,h,1,0.6943789003416896,0.046141600236296654,0.048401499167084694,0.09918300062417984,0.10140909999608994,0.29878640081733465
RSVPLG03,cs,20260213-111031,1.0.2,20251105-084826,761,Experiment,Both,1,Automatic,main,44,20260213-111450,local,local,750,H,S,E,E,E-H.png,E-S.png,hH,sS,mask-2.png,mask-1.png,h,1,0.8936619004234672,s,1,0.34802759997546673,0.047517500817775726,0.047581300139427185,0.09853370022028685,0.10058820061385632,0.7496250001713634
RSVPLG03,cs,20260213-111031,1.0.2,20251105-084826,761,Experiment,Both,1,Automatic,main,45,20260213-111455,local,global,750,H,S,A,E,A-H.png,S-E.png,hH,sS,mask-2.png,mask-3.png,h,1,1.4137258008122444,s,1,0.11226369999349117,0.04859920032322407,0.048593600280582905,0.10176079999655485,0.10064700059592724,0.750335100106895
RSVPLG03,cs,20260213-111031,1.0.2,20251105-084826,761,Experiment,Both,1,Automatic,main,46,20260213-111501,local,global,300,S,S,E,A,E-S.png,S-A.png,sS,sS,mask-4.png,mask-2.png,s,1,1.0623382003977895,s,1,0.394556500017643,0.0476752994582057,0.0477505000308156,0.09975279960781336,0.09899749979376793,0.30011279974132776
RSVPLG03,cs,20260213-111031,1.0.2,20251105-084826,761,Experiment,Both,1,Automatic,main,47,20260213-111506,local,global,300,H,H,E,E,E-H.png,H-E.png,hH,hH,mask-1.png,mask-2.png,h,1,1.6021547000855207,h,1,0.26052939984947443,0.04571279976516962,0.04609890002757311,0.09894339926540852,0.10046019963920116,0.29993660002946854
RSVPLG03,cs,20260213-111031,1.0.2,20251105-084826,761,Experiment,Both,1,Automatic,main,48,20260213-111512,global,local,300,S,H,E,A,S-E.png,A-H.png,sS,hH,mask-2.png,mask-3.png,s,1,0.5091811995953321,h,1,0.12526039965450764,0.0470575001090765,0.04674630053341389,0.09809870086610317,0.09962360002100468,0.29944320023059845
RSVPLG03,cs,20260213-111031,1.0.2,20251105-084826,761,Experiment,Both,1,Automatic,main,49,20260213-111516,local,global,300,H,S,E,E,E-H.png,S-E.png,hH,sS,mask-3.png,mask-3.png,h,1,1.6406519003212452,h,0,0.7094406001269817,0.047115400433540344,0.04726819973438978,0.10007970035076141,0.09902010019868612,0.299702700227499
RSVPLG03,cs,20260213-111031,1.0.2,20251105-084826,761,Experiment,Both,1,Automatic,main,50,20260213-111522,global,local,750,S,S,A,E,S-A.png,E-S.png,sS,sS,mask-3.png,mask-1.png,s,1,0.7649384997785091,s,1,0.06502570025622845,0.04613849986344576,0.046085099689662457,0.10052889958024025,0.09939120057970285,0.7502109995111823
RSVPLG03,cs,20260213-111031,1.0.2,20251105-084826,761,Experiment,Both,1,Automatic,main,51,20260213-111644,local,global,750,S,H,E,A,E-S.png,H-A.png,sS,hH,mask-4.png,mask-4.png,s,1,0.5789593001827598,h,1,0.4693903001025319,0.047574300318956375,0.04704919923096895,0.10068440064787865,0.10120599996298552,0.7503884006291628
RSVPLG03,cs,20260213-111031,1.0.2,20251105-084826,761,Experiment,Both,1,Automatic,main,52,20260213-111649,local,local,750,H,H,E,E,E-H.png,E-H.png,hH,hH,mask-1.png,mask-4.png,h,1,0.8328456999734044,h,1,0.041040800511837006,0.04567959997802973,0.04772939998656511,0.09991810005158186,0.10083930008113384,0.7487150998786092
RSVPLG03,cs,20260213-111031,1.0.2,20251105-084826,761,Experiment,Both,1,Automatic,main,53,20260213-111654,local,global,300,S,H,E,E,E-S.png,H-E.png,sS,hH,mask-4.png,mask-1.png,s,1,1.1273362999781966,h,1,0.1671815002337098,0.047573599964380264,0.048367999494075775,0.09886899963021278,0.10061569977551699,0.2985004000365734
RSVPLG03,cs,20260213-111031,1.0.2,20251105-084826,761,Experiment,Both,1,Automatic,main,54,20260213-111659,local,global,750,S,S,E,A,E-S.png,S-A.png,sS,sS,mask-1.png,mask-3.png,s,1,0.8864119993522763,h,0,0.07082039956003428,0.04802009928971529,0.04610770009458065,0.10130769945681095,0.09939270000904799,0.7520530000329018
RSVPLG03,cs,20260213-111031,1.0.2,20251105-084826,761,Experiment,Both,1,Automatic,main,55,20260213-111704,global,local,300,S,S,E,A,S-E.png,A-S.png,sS,sS,mask-1.png,mask-1.png,s,1,0.523768899962306,h,0,0.07143819984048605,0.04673220030963421,0.04830839950591326,0.09923059958964586,0.09927690029144287,0.29930830001831055
RSVPLG03,cs,20260213-111031,1.0.2,20251105-084826,761,Experiment,Both,1,Automatic,main,56,20260213-111708,local,global,750,H,H,A,A,A-H.png,H-A.png,hH,hH,mask-4.png,mask-1.png,h,1,0.9119674004614353,s,0,0.10523820016533136,0.047625199891626835,0.04750929959118366,0.10008919984102249,0.09958309959620237,0.7501747002825141
RSVPLG03,cs,20260213-111031,1.0.2,20251105-084826,761,Experiment,Both,1,Automatic,main,57,20260213-111714,global,global,300,S,S,A,A,S-A.png,S-A.png,sS,sS,mask-4.png,mask-2.png,s,1,0.7435567006468773,s,1,0.05166439991444349,0.04756659921258688,0.04753489978611469,0.10062399972230196,0.10112269967794418,0.30021119955927134
RSVPLG03,cs,20260213-111031,1.0.2,20251105-084826,761,Experiment,Both,1,Automatic,main,58,20260213-111718,local,local,750,S,H,E,A,E-S.png,A-H.png,sS,hH,mask-4.png,mask-4.png,s,1,0.41456850059330463,h,1,0.02401100005954504,0.04770409967750311,0.046705299988389015,0.0992967002093792,0.09992909990251064,0.7497231001034379
RSVPLG03,cs,20260213-111031,1.0.2,20251105-084826,761,Experiment,Both,1,Automatic,main,59,20260213-111723,global,local,300,S,S,E,A,S-E.png,A-S.png,sS,sS,mask-4.png,mask-4.png,s,1,0.43763629999011755,h,0,0.12785719987004995,0.04772489983588457,0.04765489976853132,0.09867160022258759,0.10069060046225786,0.2998064998537302
RSVPLG03,cs,20260213-111031,1.0.2,20251105-084826,761,Experiment,Both,1,Automatic,main,60,20260213-111727,global,local,750,S,H,A,E,S-A.png,E-H.png,sS,hH,mask-1.png,mask-2.png,s,1,0.7995760999619961,h,1,0.5644821003079414,0.048817300237715244,0.04854249954223633,0.10124260000884533,0.10158760007470846,0.7496028002351522
RSVPLG03,cs,20260213-111031,1.0.2,20251105-084826,761,Experiment,Both,1,Automatic,main,61,20260213-111733,global,global,300,H,H,A,A,H-A.png,H-A.png,hH,hH,mask-4.png,mask-1.png,h,1,0.4573360998183489,h,1,0.037810600362718105,0.04767160024493933,0.04750350024551153,0.09977949969470501,0.0998910004273057,0.29923299979418516
RSVPLG03,cs,20260213-111031,1.0.2,20251105-084826,761,Experiment,Both,1,Automatic,main,62,20260213-111737,global,local,300,S,H,E,E,S-E.png,E-H.png,sS,hH,mask-4.png,mask-1.png,s,1,0.6695042997598648,h,1,0.06921320036053658,0.04569980036467314,0.047720300033688545,0.09992279950529337,0.09982000011950731,0.29999739956110716
RSVPLG03,cs,20260213-111031,1.0.2,20251105-084826,761,Experiment,Both,1,Automatic,main,63,20260213-111741,global,global,300,S,S,A,A,S-A.png,S-A.png,sS,sS,mask-3.png,mask-3.png,s,1,0.39023640006780624,s,1,0.043810199946165085,0.04747769981622696,0.04736370034515858,0.09923580009490252,0.10143670067191124,0.29950359929353
RSVPLG03,cs,20260213-111031,1.0.2,20251105-084826,761,Experiment,Both,1,Automatic,main,64,20260213-111746,global,local,300,S,S,E,E,S-E.png,E-S.png,sS,sS,mask-1.png,mask-3.png,s,1,0.5493382001295686,h,0,0.013046400621533394,0.04753489978611469,0.04792970046401024,0.09896340034902096,0.09986700024455786,0.2992987995967269
RSVPLG03,cs,20260213-111031,1.0.2,20251105-084826,761,Experiment,Both,1,Automatic,main,65,20260213-111750,local,global,300,S,H,A,A,A-S.png,H-A.png,sS,hH,mask-4.png,mask-1.png,h,0,2.0436770003288984,h,1,0.11968330014497042,0.04745370056480169,0.047565000131726265,0.09917830023914576,0.10065520089119673,0.29933989979326725
RSVPLG03,cs,20260213-111031,1.0.2,20251105-084826,761,Experiment,Both,1,Automatic,main,66,20260213-111756,local,global,750,S,H,E,A,E-S.png,H-A.png,sS,hH,mask-2.png,mask-1.png,s,1,1.1031720992177725,s,0,1.0842228000983596,0.048030899837613106,0.04795929975807667,0.1011284003034234,0.10170179978013039,0.7505290005356073
RSVPLG03,cs,20260213-111031,1.0.2,20251105-084826,761,Experiment,Both,1,Automatic,main,67,20260213-111802,global,local,300,H,H,E,A,H-E.png,A-H.png,hH,hH,mask-4.png,mask-1.png,h,1,0.40801570005714893,h,1,0.06033939961344004,0.04674199968576431,0.04677040036767721,0.09917750023305416,0.09895200002938509,0.30055189970880747
RSVPLG03,cs,20260213-111031,1.0.2,20251105-084826,761,Experiment,Both,1,Automatic,main,68,20260213-111806,local,local,300,H,S,A,A,A-H.png,A-S.png,hH,sS,mask-2.png,mask-2.png,s,0,4.13611670024693,h,0,0.17234429996460676,0.04696779977530241,0.04864710010588169,0.1014938997104764,0.09995570033788681,0.3002915997058153
RSVPLG03,cs,20260213-111031,1.0.2,20251105-084826,761,Experiment,Both,1,Automatic,main,69,20260213-111814,global,local,750,S,H,E,A,S-E.png,A-H.png,sS,hH,mask-4.png,mask-3.png,s,1,1.1259802002459764,h,1,0.21233760006725788,0.046610900200903416,0.0486310999840498,0.10072250012308359,0.10059699974954128,0.7497664000838995
RSVPLG03,cs,20260213-111031,1.0.2,20251105-084826,761,Experiment,Both,1,Automatic,main,70,20260213-111820,global,global,750,S,H,E,A,S-E.png,H-A.png,sS,hH,mask-3.png,mask-4.png,s,1,0.43553629983216524,h,1,0.18759489990770817,0.04782589990645647,0.04642980080097914,0.10081910062581301,0.09887450002133846,0.751753699965775
RSVPLG03,cs,20260213-111031,1.0.2,20251105-084826,761,Experiment,Both,1,Automatic,main,71,20260213-111825,local,local,750,S,H,E,E,E-S.png,E-H.png,sS,hH,mask-1.png,mask-2.png,s,1,0.48438110016286373,h,1,0.04250060021877289,0.046676499769091606,0.04652849957346916,0.09982000011950731,0.09793649986386299,0.7502562999725342
RSVPLG03,cs,20260213-111031,1.0.2,20251105-084826,761,Experiment,Both,1,Automatic,main,72,20260213-111830,local,local,300,S,H,A,E,A-S.png,E-H.png,sS,hH,mask-4.png,mask-2.png,s,1,1.066643999889493,h,1,0.008464900776743889,0.04774340055882931,0.04767280071973801,0.1009240997955203,0.10085930023342371,0.30049309972673655
RSVPLG03,cs,20260213-111031,1.0.2,20251105-084826,761,Experiment,Both,1,Automatic,main,73,20260213-111834,local,local,300,S,S,E,A,E-S.png,A-S.png,sS,sS,mask-1.png,mask-2.png,s,1,0.4856112999841571,s,1,0.046825199387967587,0.04567570053040981,0.047054399736225605,0.0990311000496149,0.10113159939646721,0.29846650082618
RSVPLG03,cs,20260213-111031,1.0.2,20251105-084826,761,Experiment,Both,1,Automatic,main,74,20260213-111839,global,global,750,S,S,E,A,S-E.png,S-A.png,sS,sS,mask-2.png,mask-1.png,s,1,0.4196229996159673,s,1,0.03923940006643534,0.048579500056803226,0.04696690011769533,0.10160800069570541,0.10103929974138737,0.7508117007091641
RSVPLG03,cs,20260213-111031,1.0.2,20251105-084826,761,Experiment,Both,1,Automatic,main,75,20260213-111843,global,local,750,S,S,A,E,S-A.png,E-S.png,sS,sS,mask-3.png,mask-4.png,s,1,0.3943609995767474,s,1,0.05968779977411032,0.04700739961117506,0.04671380016952753,0.10108619928359985,0.09928909968584776,0.7507555996999145
RSVPLG03,cs,20260213-111031,1.0.2,20251105-084826,761,Experiment,Both,1,Automatic,main,76,20260213-111947,global,local,750,S,S,A,E,S-A.png,E-S.png,sS,sS,mask-4.png,mask-2.png,s,1,0.6292452998459339,s,1,0.05306499917060137,0.04669569991528988,0.04751859977841377,0.10076550021767616,0.09874320030212402,0.7504086000844836
RSVPLG03,cs,20260213-111031,1.0.2,20251105-084826,761,Experiment,Both,1,Automatic,main,77,20260213-111952,global,local,300,S,H,A,E,S-A.png,E-H.png,sS,hH,mask-4.png,mask-2.png,s,1,0.4940585996955633,h,1,0.11937369965016842,0.04709380026906729,0.04749009944498539,0.09912689961493015,0.10050269961357117,0.29932030010968447
RSVPLG03,cs,20260213-111031,1.0.2,20251105-084826,761,Experiment,Both,1,Automatic,main,78,20260213-111956,local,local,750,H,S,E,A,E-H.png,A-S.png,hH,sS,mask-1.png,mask-2.png,h,1,0.4100995007902384,s,1,0.043354300782084465,0.04844489973038435,0.046788900159299374,0.1003773994743824,0.09992649964988232,0.7507918998599052
RSVPLG03,cs,20260213-111031,1.0.2,20251105-084826,761,Experiment,Both,1,Automatic,main,79,20260213-112001,local,global,750,S,H,E,E,E-S.png,H-E.png,sS,hH,mask-2.png,mask-2.png,s,1,0.4120575003325939,h,1,0.061101299710571766,0.04778960067778826,0.047354900278151035,0.10072580073028803,0.09927759971469641,0.7511955006048083
RSVPLG03,cs,20260213-111031,1.0.2,20251105-084826,761,Experiment,Both,1,Automatic,main,80,20260213-112005,local,local,300,S,H,A,A,A-S.png,A-H.png,sS,hH,mask-3.png,mask-3.png,s,1,0.8145514996722341,h,1,0.16745970025658607,0.04870370030403137,0.048610799945890903,0.10037800017744303,0.10168130043894053,0.2997105000540614
RSVPLG03,cs,20260213-111031,1.0.2,20251105-084826,761,Experiment,Both,1,Automatic,main,81,20260213-112010,global,local,750,S,S,A,E,S-A.png,E-S.png,sS,sS,mask-1.png,mask-2.png,s,1,0.3894090997055173,s,1,0.027349300682544708,0.04685359913855791,0.04749619960784912,0.09992779977619648,0.09896290022879839,0.7502314997836947
RSVPLG03,cs,20260213-111031,1.0.2,20251105-084826,761,Experiment,Both,1,Automatic,main,82,20260213-112015,global,local,300,H,H,A,A,H-A.png,A-H.png,hH,hH,mask-1.png,mask-3.png,h,1,0.37161589972674847,h,1,0.05571480002254248,0.04757060017436743,0.047510700300335884,0.10102020017802715,0.10062209982424974,0.3005381999537349
RSVPLG03,cs,20260213-111031,1.0.2,20251105-084826,761,Experiment,Both,1,Automatic,main,83,20260213-112019,global,global,750,S,S,E,E,S-E.png,S-E.png,sS,sS,mask-3.png,mask-4.png,s,1,0.5879877991974354,s,1,0.11953029967844486,0.04750919993966818,0.04765170067548752,0.09958119969815016,0.09940960071980953,0.7499854993075132
RSVPLG03,cs,20260213-111031,1.0.2,20251105-084826,761,Experiment,Both,1,Automatic,main,84,20260213-112024,global,local,750,S,S,E,A,S-E.png,A-S.png,sS,sS,mask-4.png,mask-1.png,s,1,0.4960670992732048,h,0,0.033163500018417835,0.04852350056171417,0.04781720042228699,0.09957520011812449,0.09992220066487789,0.749711399897933
RSVPLG03,cs,20260213-111031,1.0.2,20251105-084826,761,Experiment,Both,1,Automatic,main,85,20260213-112029,local,local,750,H,S,E,A,E-H.png,A-S.png,hH,sS,mask-3.png,mask-1.png,h,1,0.4072452997788787,s,1,0.04355849977582693,0.04765729978680611,0.048651100136339664,0.10013729985803366,0.10067200008779764,0.7508657993748784
RSVPLG03,cs,20260213-111031,1.0.2,20251105-084826,761,Experiment,Both,1,Automatic,main,86,20260213-112033,global,global,750,H,H,A,A,H-A.png,H-A.png,hH,hH,mask-3.png,mask-2.png,h,1,0.39755049999803305,h,1,0.07961300015449524,0.04751569963991642,0.048652200028300285,0.1005680002272129,0.10073189996182919,0.7496154000982642
RSVPLG03,cs,20260213-111031,1.0.2,20251105-084826,761,Experiment,Both,1,Automatic,main,87,20260213-112038,global,local,750,S,H,A,E,S-A.png,E-H.png,sS,hH,mask-1.png,mask-2.png,s,1,0.753392199985683,s,0,0.10696079954504967,0.04766070004552603,0.048825000412762165,0.10013740044087172,0.09993490017950535,0.7494374001398683
RSVPLG03,cs,20260213-111031,1.0.2,20251105-084826,761,Experiment,Both,1,Automatic,main,88,20260213-112043,local,local,300,S,S,A,A,A-S.png,A-S.png,sS,sS,mask-4.png,mask-1.png,s,1,2.2614998007193208,s,1,0.0384229002520442,0.048767500557005405,0.04769640043377876,0.1009482005611062,0.09991979971528053,0.3014724999666214
RSVPLG03,cs,20260213-111031,1.0.2,20251105-084826,761,Experiment,Both,1,Automatic,main,89,20260213-112049,local,global,300,H,H,E,E,E-H.png,H-E.png,hH,hH,mask-2.png,mask-2.png,h,1,0.7865588003769517,s,0,0.2532326001673937,0.04793080035597086,0.04776980075985193,0.10103159956634045,0.09903630055487156,0.30103829968720675
RSVPLG03,cs,20260213-111031,1.0.2,20251105-084826,761,Experiment,Both,1,Automatic,main,90,20260213-112054,global,global,300,H,S,A,E,H-A.png,S-E.png,hH,sS,mask-1.png,mask-3.png,h,1,0.710215900093317,s,1,0.8223355999216437,0.047688200138509274,0.047706800512969494,0.10038079973310232,0.09991110023111105,0.3003040999174118
RSVPLG03,cs,20260213-111031,1.0.2,20251105-084826,761,Experiment,Both,1,Automatic,main,91,20260213-112058,local,local,750,S,H,E,E,E-S.png,E-H.png,sS,hH,mask-2.png,mask-4.png,s,1,2.0494873002171516,h,1,0.39350089989602566,0.04670789930969477,0.04933150019496679,0.09882809966802597,0.10134620033204556,0.7484484994783998
RSVPLG03,cs,20260213-111031,1.0.2,20251105-084826,761,Experiment,Both,1,Automatic,main,92,20260213-112105,global,local,300,S,S,A,A,S-A.png,A-S.png,sS,sS,mask-2.png,mask-3.png,s,1,1.3422258999198675,h,0,0.5546078998595476,0.04752060025930405,0.04591639991849661,0.09784840047359467,0.0991056002676487,0.30011320021003485
RSVPLG03,cs,20260213-111031,1.0.2,20251105-084826,761,Experiment,Both,1,Automatic,main,93,20260213-112110,local,global,300,S,S,E,E,E-S.png,S-E.png,sS,sS,mask-4.png,mask-2.png,s,1,0.6941500995308161,h,0,0.2205595001578331,0.047526500187814236,0.04847100004553795,0.09883170016109943,0.09988470003008842,0.2996629998087883
RSVPLG03,cs,20260213-111031,1.0.2,20251105-084826,761,Experiment,Both,1,Automatic,main,94,20260213-112115,local,global,750,H,H,E,E,E-H.png,H-E.png,hH,hH,mask-2.png,mask-1.png,h,1,1.4522273000329733,s,0,0.24638479948043823,0.04856850020587444,0.04757909942418337,0.09902920015156269,0.09960579965263605,0.7509477008134127
RSVPLG03,cs,20260213-111031,1.0.2,20251105-084826,761,Experiment,Both,1,Automatic,main,95,20260213-112121,local,global,300,S,H,E,A,E-S.png,H-A.png,sS,hH,mask-4.png,mask-1.png,s,1,1.0427294000983238,h,1,0.04142049979418516,0.04569210018962622,0.04761079978197813,0.09994270000606775,0.0998169993981719,0.29969360027462244
RSVPLG03,cs,20260213-111031,1.0.2,20251105-084826,761,Experiment,Both,1,Automatic,main,96,20260213-112126,local,local,300,S,S,A,A,A-S.png,A-S.png,sS,sS,mask-2.png,mask-3.png,s,1,0.5634740004315972,s,1,0.07475489936769009,0.04773470014333725,0.04609129950404167,0.09922910016030073,0.10042669996619225,0.2996911006048322
RSVPLG03,cs,20260213-111031,1.0.2,20251105-084826,761,Experiment,Both,1,Automatic,main,97,20260213-112130,global,local,750,S,H,E,E,S-E.png,E-H.png,sS,hH,mask-4.png,mask-1.png,s,1,0.5097217997536063,h,1,0.10814130026847124,0.04764879960566759,0.04570099990814924,0.10022949986159801,0.09988419990986586,0.7517505995929241
RSVPLG03,cs,20260213-111031,1.0.2,20251105-084826,761,Experiment,Both,1,Automatic,main,98,20260213-112135,global,global,300,H,H,A,A,H-A.png,H-A.png,hH,hH,mask-3.png,mask-4.png,h,1,0.42388239968568087,h,1,0.05461309943348169,0.04685309994965792,0.04676060006022453,0.09907650016248226,0.09995719976723194,0.2997054001316428
RSVPLG03,cs,20260213-111031,1.0.2,20251105-084826,761,Experiment,Both,1,Automatic,main,99,20260213-112139,global,local,300,S,S,A,E,S-A.png,E-S.png,sS,sS,mask-3.png,mask-1.png,s,1,0.5066246995702386,s,1,0.043268599547445774,0.04780209995806217,0.04768139962106943,0.10096599999815226,0.09987240005284548,0.3005127999931574
RSVPLG03,cs,20260213-111031,1.0.2,20251105-084826,761,Experiment,Both,1,Automatic,main,100,20260213-112143,local,global,750,H,S,E,A,E-H.png,S-A.png,hH,sS,mask-2.png,mask-4.png,h,1,1.1938447998836637,s,1,0.19736600015312433,0.047064200043678284,0.04765989910811186,0.09827980026602745,0.10086809936910868,0.7493430003523827
RSVPLG03,cs,20260213-112228,1.0.2,20251105-084826,761,Experiment,Both,1,Automatic,warmup,1,20260213-112253,local,global,300,S,S,A,E,A-S.png,S-E.png,sS,sS,mask-2.png,mask-2.png,s,1,0.7439302997663617,s,1,0.5359407998621464,0.038990600034594536,0.04848700016736984,0.09193409979343414,0.10117129981517792,0.2926332000643015
RSVPLG03,cs,20260213-112228,1.0.2,20251105-084826,761,Experiment,Both,1,Automatic,warmup,2,20260213-112258,global,global,750,S,H,A,E,S-A.png,H-E.png,sS,hH,mask-4.png,mask-2.png,s,1,0.3532749004662037,h,1,0.9088172996416688,0.0469717001542449,0.04670199938118458,0.09991439990699291,0.09907569922506809,0.7543662004172802
RSVPLG03,cs,20260213-112228,1.0.2,20251105-084826,761,Experiment,Both,1,Automatic,warmup,3,20260213-112304,global,local,750,H,H,A,E,H-A.png,E-H.png,hH,hH,mask-4.png,mask-3.png,h,1,0.4566912008449435,h,1,0.06536820065230131,0.04773509968072176,0.04751729965209961,0.09982819948345423,0.09877429995685816,0.7536145998165011
RSVPLG03,cs,20260213-112228,1.0.2,20251105-084826,761,Experiment,Both,1,Automatic,warmup,4,20260213-112309,local,local,750,H,S,E,E,E-H.png,E-S.png,hH,sS,mask-1.png,mask-2.png,h,1,0.3794357003644109,s,1,0.0076409000903368,0.046973999589681625,0.04766689985990524,0.10029650013893843,0.10000489931553602,0.7526190001517534
RSVPLG03,cs,20260213-112228,1.0.2,20251105-084826,761,Experiment,Both,1,Automatic,main,5,20260213-112313,local,global,750,H,H,E,A,E-H.png,H-A.png,hH,hH,mask-1.png,mask-2.png,s,0,0.6299258004873991,h,1,0.9819861995056272,0.047594400122761726,0.04748320020735264,0.10003949981182814,0.10154190007597208,0.7531768996268511
RSVPLG03,cs,20260213-112228,1.0.2,20251105-084826,761,Experiment,Both,1,Automatic,main,6,20260213-112319,local,global,750,H,H,A,E,A-H.png,H-E.png,hH,hH,mask-4.png,mask-1.png,h,1,0.46231150068342686,s,0,0.173627900891006,0.04719220008701086,0.047111399471759796,0.09993869997560978,0.10018900036811829,0.7527226004749537
RSVPLG03,cs,20260213-112228,1.0.2,20251105-084826,761,Experiment,Both,1,Automatic,main,7,20260213-112324,local,global,300,H,H,E,E,E-H.png,H-E.png,hH,hH,mask-2.png,mask-3.png,h,1,0.5589547995477915,h,1,0.07561579998582602,0.04860089998692274,0.04820820037275553,0.10101290047168732,0.1010640999302268,0.30052580032497644
RSVPLG03,cs,20260213-112228,1.0.2,20251105-084826,761,Experiment,Both,1,Automatic,main,8,20260213-112328,local,local,300,H,H,E,A,E-H.png,A-H.png,hH,hH,mask-2.png,mask-1.png,h,1,0.4453373998403549,h,1,0.06987580005079508,0.047688099555671215,0.047546000219881535,0.09984799940139055,0.09932740032672882,0.3020033994689584
RSVPLG03,cs,20260213-112228,1.0.2,20251105-084826,761,Experiment,Both,1,Automatic,main,9,20260213-112332,local,global,750,S,H,A,A,A-S.png,H-A.png,sS,hH,mask-3.png,mask-1.png,h,0,1.611940799281001,s,0,0.07389570027589798,0.04802040010690689,0.04702199995517731,0.100360999815166,0.1012918995693326,0.7532847002148628
RSVPLG03,cs,20260213-112228,1.0.2,20251105-084826,761,Experiment,Both,1,Automatic,main,10,20260213-112338,global,local,300,S,H,E,A,S-E.png,A-H.png,sS,hH,mask-4.png,mask-1.png,s,1,0.9665095005184412,h,1,1.0625189002603292,0.04867419973015785,0.04769209958612919,0.0999117000028491,0.09891050029546022,0.30150459986180067
RSVPLG03,cs,20260213-112228,1.0.2,20251105-084826,761,Experiment,Both,1,Automatic,main,11,20260213-112343,global,local,300,H,S,E,A,H-E.png,A-S.png,hH,sS,mask-4.png,mask-2.png,h,1,0.3765904000028968,h,0,0.043267699889838696,0.04687320068478584,0.04756650049239397,0.09995010029524565,0.09952040016651154,0.3015812998637557
RSVPLG03,cs,20260213-112228,1.0.2,20251105-084826,761,Experiment,Both,1,Automatic,main,12,20260213-112347,global,local,750,H,H,A,A,H-A.png,A-H.png,hH,hH,mask-1.png,mask-1.png,h,1,0.4211496999487281,h,1,0.4826020998880267,0.047022500075399876,0.04671970009803772,0.09964150004088879,0.09893780015408993,0.7540543004870415
RSVPLG03,cs,20260213-112228,1.0.2,20251105-084826,761,Experiment,Both,1,Automatic,main,13,20260213-112352,local,global,300,S,H,E,E,E-S.png,H-E.png,sS,hH,mask-3.png,mask-3.png,s,1,0.8547640005126595,s,0,0.16539120022207499,0.04868420027196407,0.04868509992957115,0.1008901996538043,0.09985790029168129,0.30153399985283613
RSVPLG03,cs,20260213-112228,1.0.2,20251105-084826,761,Experiment,Both,1,Automatic,main,14,20260213-112357,global,global,300,H,H,E,A,H-E.png,H-A.png,hH,hH,mask-3.png,mask-2.png,h,1,0.3834033999592066,h,1,0.0736370999366045,0.0458313999697566,0.04957470018416643,0.10011989995837212,0.10051399935036898,0.29911480005830526
RSVPLG03,cs,20260213-112228,1.0.2,20251105-084826,761,Experiment,Both,1,Automatic,main,15,20260213-112401,global,local,750,H,H,E,E,H-E.png,E-H.png,hH,hH,mask-4.png,mask-1.png,h,1,0.5589046999812126,s,0,0.008724800311028957,0.04777109995484352,0.04858720023185015,0.10167699959129095,0.1003679996356368,0.7530920999124646
RSVPLG03,cs,20260213-112228,1.0.2,20251105-084826,761,Experiment,Both,1,Automatic,main,16,20260213-112406,global,local,300,S,H,A,A,S-A.png,A-H.png,sS,hH,mask-2.png,mask-2.png,s,1,0.40732380002737045,h,1,0.5831744000315666,0.04793910030275583,0.04768810048699379,0.09999670088291168,0.09962710086256266,0.30224750004708767
RSVPLG03,cs,20260213-112228,1.0.2,20251105-084826,761,Experiment,Both,1,Automatic,main,17,20260213-112410,local,local,300,H,H,A,E,A-H.png,E-H.png,hH,hH,mask-2.png,mask-1.png,h,1,0.45502820052206516,h,1,0.05681560002267361,0.047634899616241455,0.04877150058746338,0.10105040017515421,0.10024490021169186,0.30128869973123074
RSVPLG03,cs,20260213-112228,1.0.2,20251105-084826,761,Experiment,Both,1,Automatic,main,18,20260213-112414,global,global,750,H,H,A,E,H-A.png,H-E.png,hH,hH,mask-1.png,mask-2.png,h,1,0.4345325008034706,h,1,0.048217699863016605,0.049592399969697,0.04713380057364702,0.10178219992667437,0.09991030022501945,0.7548412997275591
RSVPLG03,cs,20260213-112228,1.0.2,20251105-084826,761,Experiment,Both,1,Automatic,main,19,20260213-112419,global,global,750,S,S,E,E,S-E.png,S-E.png,sS,sS,mask-1.png,mask-2.png,s,1,0.5925684999674559,s,1,0.062134300358593464,0.04665599949657917,0.04759769979864359,0.09890929982066154,0.09980109985917807,0.7530113998800516
RSVPLG03,cs,20260213-112228,1.0.2,20251105-084826,761,Experiment,Both,1,Automatic,main,20,20260213-112424,local,global,300,H,H,E,A,E-H.png,H-A.png,hH,hH,mask-2.png,mask-2.png,s,0,0.904772000387311,s,0,0.0707761999219656,0.04738759994506836,0.048885200172662735,0.09927199967205524,0.10114029981195927,0.3003933001309633
RSVPLG03,cs,20260213-112228,1.0.2,20251105-084826,761,Experiment,Both,1,Automatic,main,21,20260213-112429,global,local,750,H,H,A,A,H-A.png,A-H.png,hH,hH,mask-2.png,mask-1.png,h,1,0.3091730000451207,h,1,0.3318298002704978,0.0477438997477293,0.04961609933525324,0.10092430002987385,0.10208179987967014,0.7521008001640439
RSVPLG03,cs,20260213-112228,1.0.2,20251105-084826,761,Experiment,Both,1,Automatic,main,22,20260213-112433,local,local,300,S,H,A,A,A-S.png,A-H.png,sS,hH,mask-1.png,mask-4.png,s,1,0.5515430998057127,h,1,0.7113161003217101,0.04773540049791336,0.04717949964106083,0.10019590053707361,0.10050669964402914,0.30119340028613806
RSVPLG03,cs,20260213-112228,1.0.2,20251105-084826,761,Experiment,Both,1,Automatic,main,23,20260213-112438,global,local,300,H,S,E,E,H-E.png,E-S.png,hH,sS,mask-2.png,mask-2.png,h,1,0.6048011993989348,s,1,0.1981913996860385,0.048484500497579575,0.04749239981174469,0.09974810015410185,0.1006861999630928,0.30110780056566
RSVPLG03,cs,20260213-112228,1.0.2,20251105-084826,761,Experiment,Both,1,Automatic,main,24,20260213-112442,global,local,750,S,S,E,E,S-E.png,E-S.png,sS,sS,mask-2.png,mask-2.png,s,1,0.3297605002298951,s,1,0.05480490066111088,0.046933299861848354,0.04767889995127916,0.09972329996526241,0.10109070036560297,0.7523202998563647
RSVPLG03,cs,20260213-112228,1.0.2,20251105-084826,761,Experiment,Both,1,Automatic,main,25,20260213-112447,local,global,300,H,S,A,A,A-H.png,S-A.png,hH,sS,mask-2.png,mask-4.png,h,1,1.4418548997491598,s,1,0.10249739978462458,0.04755079932510853,0.04850760009139776,0.10057699959725142,0.10150330048054457,0.3009453993290663
RSVPLG03,cs,20260213-112228,1.0.2,20251105-084826,761,Experiment,Both,1,Automatic,main,26,20260213-112632,local,local,300,S,S,E,A,E-S.png,A-S.png,sS,sS,mask-1.png,mask-1.png,s,1,0.4126062002032995,s,1,0.022546100430190563,0.048377799801528454,0.046788400039076805,0.10004569962620735,0.09964179992675781,0.30210409965366125
RSVPLG03,cs,20260213-112228,1.0.2,20251105-084826,761,Experiment,Both,1,Automatic,main,27,20260213-112636,global,global,300,H,S,E,E,H-E.png,S-E.png,hH,sS,mask-2.png,mask-3.png,h,1,0.4206469999626279,s,1,0.580833200365305,0.0456301998347044,0.045755100436508656,0.09853019937872887,0.09941690042614937,0.30117249954491854
RSVPLG03,cs,20260213-112228,1.0.2,20251105-084826,761,Experiment,Both,1,Automatic,main,28,20260213-112641,global,local,750,H,H,E,E,H-E.png,E-H.png,hH,hH,mask-4.png,mask-4.png,h,1,0.4455027999356389,s,0,0.016457799822092056,0.045926899649202824,0.047716000117361546,0.09955670032650232,0.10113800037652254,0.7519594999030232
RSVPLG03,cs,20260213-112228,1.0.2,20251105-084826,761,Experiment,Both,1,Automatic,main,29,20260213-112645,local,local,750,H,S,A,A,A-H.png,A-S.png,hH,sS,mask-1.png,mask-3.png,h,1,0.8925045002251863,s,1,0.0499269999563694,0.048752899281680584,0.04706550016999245,0.1009502001106739,0.09936599992215633,0.7541349995881319
RSVPLG03,cs,20260213-112228,1.0.2,20251105-084826,761,Experiment,Both,1,Automatic,main,30,20260213-112651,local,local,750,H,H,A,E,A-H.png,E-H.png,hH,hH,mask-4.png,mask-4.png,h,1,0.35795910004526377,h,1,0.0745488004758954,0.04763389937579632,0.047384100034832954,0.10080199968069792,0.10126699972897768,0.753227399662137
RSVPLG03,cs,20260213-112228,1.0.2,20251105-084826,761,Experiment,Both,1,Automatic,main,31,20260213-112655,global,local,750,S,S,E,A,S-E.png,A-S.png,sS,sS,mask-2.png,mask-2.png,s,1,0.630850899964571,h,0,0.8230287004262209,0.04691799916327,0.04932000022381544,0.09996489994227886,0.10158970020711422,0.7518639992922544
RSVPLG03,cs,20260213-112228,1.0.2,20251105-084826,761,Experiment,Both,1,Automatic,main,32,20260213-112700,local,local,300,H,S,A,A,A-H.png,A-S.png,hH,sS,mask-3.png,mask-1.png,h,1,0.9324991004541516,s,1,1.0921510998159647,0.04754919931292534,0.04751429986208677,0.1012703999876976,0.10088839940726757,0.3013348998501897
RSVPLG03,cs,20260213-112228,1.0.2,20251105-084826,761,Experiment,Both,1,Automatic,main,33,20260213-112705,local,global,750,H,S,E,A,E-H.png,S-A.png,hH,sS,mask-1.png,mask-3.png,h,1,0.8024869998916984,h,0,0.15632509998977184,0.046950300224125385,0.04853080026805401,0.09956540074199438,0.1004253001883626,0.7530532004311681
RSVPLG03,cs,20260213-112228,1.0.2,20251105-084826,761,Experiment,Both,1,Automatic,main,34,20260213-112710,local,global,750,S,H,A,A,A-S.png,H-A.png,sS,hH,mask-2.png,mask-2.png,s,1,0.43026060052216053,h,1,0.6060097003355622,0.046676999889314175,0.0475531006231904,0.10067319963127375,0.10163490008562803,0.7519985996186733
RSVPLG03,cs,20260213-112228,1.0.2,20251105-084826,761,Experiment,Both,1,Automatic,main,35,20260213-112715,global,global,750,H,H,A,A,H-A.png,H-A.png,hH,hH,mask-1.png,mask-1.png,h,1,0.4872995000332594,h,1,0.0517427995800972,0.047423300333321095,0.04753799922764301,0.10046240035444498,0.10058149974793196,0.7540380004793406
RSVPLG03,cs,20260213-112228,1.0.2,20251105-084826,761,Experiment,Both,1,Automatic,main,36,20260213-112719,global,global,300,H,H,A,A,H-A.png,H-A.png,hH,hH,mask-2.png,mask-1.png,h,1,0.4510947000235319,h,1,0.060456300154328346,0.04852040018886328,0.04850689973682165,0.10052870027720928,0.10150619968771935,0.30103080067783594
RSVPLG03,cs,20260213-112228,1.0.2,20251105-084826,761,Experiment,Both,1,Automatic,main,37,20260213-112723,global,global,750,H,H,A,E,H-A.png,H-E.png,hH,hH,mask-1.png,mask-1.png,h,1,0.3984659994021058,h,1,0.26097589917480946,0.04677069932222366,0.04946650005877018,0.09973009955137968,0.10054410062730312,0.7521648993715644
RSVPLG03,cs,20260213-112228,1.0.2,20251105-084826,761,Experiment,Both,1,Automatic,main,38,20260213-112728,global,local,300,H,S,E,A,H-E.png,A-S.png,hH,sS,mask-3.png,mask-4.png,h,1,0.4077770998701453,h,0,0.053615299984812737,0.04752819985151291,0.0475742993876338,0.10052530001848936,0.10064539965242147,0.3017591005191207
RSVPLG03,cs,20260213-112228,1.0.2,20251105-084826,761,Experiment,Both,1,Automatic,main,39,20260213-112732,local,local,750,S,H,A,E,A-S.png,E-H.png,sS,hH,mask-1.png,mask-3.png,s,1,0.632184199988842,h,1,0.0157942995429039,0.04658519942313433,0.04825059976428747,0.10058359988033772,0.10128849931061268,0.7514554001390934
RSVPLG03,cs,20260213-112228,1.0.2,20251105-084826,761,Experiment,Both,1,Automatic,main,40,20260213-112737,global,global,300,S,S,E,E,S-E.png,S-E.png,sS,sS,mask-3.png,mask-1.png,s,1,0.45276010036468506,s,1,0.03972250036895275,0.0475492998957634,0.047647399827837944,0.10159329976886511,0.09970909915864468,0.3019408006221056
RSVPLG03,cs,20260213-112228,1.0.2,20251105-084826,761,Experiment,Both,1,Automatic,main,41,20260213-112742,global,global,750,S,S,A,A,S-A.png,S-A.png,sS,sS,mask-1.png,mask-4.png,s,1,0.41392110008746386,s,1,0.12211669981479645,0.04752190038561821,0.04951400030404329,0.09997090045362711,0.1005587000399828,0.7521574003621936
RSVPLG03,cs,20260213-112228,1.0.2,20251105-084826,761,Experiment,Both,1,Automatic,main,42,20260213-112746,global,local,300,S,H,A,E,S-A.png,E-H.png,sS,hH,mask-1.png,mask-4.png,s,1,0.45953029952943325,h,1,0.6196523997932673,0.04557790048420429,0.04691439960151911,0.09995749965310097,0.09960199985653162,0.29981340002268553
RSVPLG03,cs,20260213-112228,1.0.2,20251105-084826,761,Experiment,Both,1,Automatic,main,43,20260213-112751,global,global,300,H,S,A,E,H-A.png,S-E.png,hH,sS,mask-4.png,mask-2.png,h,1,0.4616307998076081,s,1,0.7398334005847573,0.047788700088858604,0.04878340009599924,0.10202649980783463,0.10090790037065744,0.3015641998499632
RSVPLG03,cs,20260213-112228,1.0.2,20251105-084826,761,Experiment,Both,1,Automatic,main,44,20260213-112756,global,global,750,S,S,E,E,S-E.png,S-E.png,sS,sS,mask-4.png,mask-4.png,s,1,0.4454420004040003,s,1,0.1362311001867056,0.04825660027563572,0.047555300407111645,0.10191989969462156,0.10064140055328608,0.7539112996309996
RSVPLG03,cs,20260213-112228,1.0.2,20251105-084826,761,Experiment,Both,1,Automatic,main,45,20260213-112801,local,global,300,H,S,E,A,E-H.png,S-A.png,hH,sS,mask-3.png,mask-2.png,h,1,1.0967572005465627,s,1,0.044842399656772614,0.048640900291502476,0.04777830000966787,0.10060180071741343,0.10097580030560493,0.30237200018018484
RSVPLG03,cs,20260213-112228,1.0.2,20251105-084826,761,Experiment,Both,1,Automatic,main,46,20260213-112805,global,global,750,S,S,A,A,S-A.png,S-A.png,sS,sS,mask-3.png,mask-4.png,s,1,0.37518929969519377,s,1,0.03856690041720867,0.049191299825906754,0.04691979940980673,0.10225220024585724,0.10099240019917488,0.7547083999961615
RSVPLG03,cs,20260213-112228,1.0.2,20251105-084826,761,Experiment,Both,1,Automatic,main,47,20260213-112810,global,local,300,H,H,E,A,H-E.png,A-H.png,hH,hH,mask-3.png,mask-3.png,h,1,0.43372200056910515,h,1,0.06045639980584383,0.0474798996001482,0.04721140023320913,0.09917910024523735,0.10051370039582253,0.3017668994143605
RSVPLG03,cs,20260213-112228,1.0.2,20251105-084826,761,Experiment,Both,1,Automatic,main,48,20260213-112814,local,local,300,S,H,E,A,E-S.png,A-H.png,sS,hH,mask-1.png,mask-2.png,s,1,0.6566054001450539,h,1,0.8321815002709627,0.04731309972703457,0.04686350002884865,0.10021079983562231,0.10014980006963015,0.30158359929919243
RSVPLG03,cs,20260213-112228,1.0.2,20251105-084826,761,Experiment,Both,1,Automatic,main,49,20260213-112819,local,global,750,H,S,A,A,A-H.png,S-A.png,hH,sS,mask-4.png,mask-1.png,h,1,0.9092244999483228,s,1,0.06157470028847456,0.046621499583125114,0.04640339966863394,0.09927979949861765,0.09915839973837137,0.7530260002240539
RSVPLG03,cs,20260213-112228,1.0.2,20251105-084826,761,Experiment,Both,1,Automatic,main,50,20260213-112824,global,global,300,H,S,E,E,H-E.png,S-E.png,hH,sS,mask-4.png,mask-1.png,h,1,0.44902649987488985,s,1,0.7833329997956753,0.046255599707365036,0.04750960040837526,0.09981429949402809,0.10142240021377802,0.30010669957846403
RSVPLG03,cs,20260213-112228,1.0.2,20251105-084826,761,Experiment,Both,1,Automatic,main,51,20260213-112955,global,global,300,H,S,A,E,H-A.png,S-E.png,hH,sS,mask-1.png,mask-1.png,h,1,0.3628832995891571,s,1,0.03437090013176203,0.047464899718761444,0.04832549951970577,0.09960819967091084,0.10024790000170469,0.3010018998757005
RSVPLG03,cs,20260213-112228,1.0.2,20251105-084826,761,Experiment,Both,1,Automatic,main,52,20260213-112959,local,local,300,H,S,A,A,A-H.png,A-S.png,hH,sS,mask-3.png,mask-3.png,h,1,0.7675467003136873,s,1,0.0916581004858017,0.04694300051778555,0.04910810012370348,0.10066989995539188,0.1012224005535245,0.3003965998068452
RSVPLG03,cs,20260213-112228,1.0.2,20251105-084826,761,Experiment,Both,1,Automatic,main,53,20260213-113004,local,global,300,S,H,A,E,A-S.png,H-E.png,sS,hH,mask-3.png,mask-1.png,s,1,0.4116481002420187,h,1,0.029628099873661995,0.04778609983623028,0.04764460027217865,0.10098449978977442,0.09951750002801418,0.30255249980837107
RSVPLG03,cs,20260213-112228,1.0.2,20251105-084826,761,Experiment,Both,1,Automatic,main,54,20260213-113008,local,local,750,H,S,E,E,E-H.png,E-S.png,hH,sS,mask-4.png,mask-1.png,h,1,0.99492990039289,s,1,1.138868199661374,0.047752900049090385,0.04765569977462292,0.10100909974426031,0.09980549942702055,0.7530420003458858
RSVPLG03,cs,20260213-112228,1.0.2,20251105-084826,761,Experiment,Both,1,Automatic,main,55,20260213-113013,global,global,300,S,H,A,A,S-A.png,H-A.png,sS,hH,mask-1.png,mask-2.png,s,1,0.3584253005683422,h,1,0.5188253000378609,0.04674430005252361,0.0485573997721076,0.09872000012546778,0.09929700009524822,0.3003591001033783
RSVPLG03,cs,20260213-112228,1.0.2,20251105-084826,761,Experiment,Both,1,Automatic,main,56,20260213-113017,global,local,300,S,S,A,A,S-A.png,A-S.png,sS,sS,mask-3.png,mask-4.png,s,1,0.7429112000390887,s,1,0.08820070046931505,0.04768329951912165,0.04725029971450567,0.10088919941335917,0.09944979939609766,0.3024124000221491
RSVPLG03,cs,20260213-112228,1.0.2,20251105-084826,761,Experiment,Both,1,Automatic,main,57,20260213-113022,global,local,750,H,H,E,E,H-E.png,E-H.png,hH,hH,mask-1.png,mask-1.png,h,1,0.4782496001571417,s,0,0.010862699709832668,0.04762960039079189,0.047543199732899666,0.09929020050913095,0.09898179955780506,0.7541235005483031
RSVPLG03,cs,20260213-112228,1.0.2,20251105-084826,761,Experiment,Both,1,Automatic,main,58,20260213-113026,local,local,750,H,S,A,A,A-H.png,A-S.png,hH,sS,mask-4.png,mask-1.png,h,1,0.7126989001408219,s,1,0.6128724999725819,0.04768209997564554,0.04760880023241043,0.10024129971861839,0.10093190055340528,0.7530585993081331
RSVPLG03,cs,20260213-112228,1.0.2,20251105-084826,761,Experiment,Both,1,Automatic,main,59,20260213-113032,local,local,750,H,S,A,E,A-H.png,E-S.png,hH,sS,mask-3.png,mask-3.png,h,1,0.5826324000954628,s,1,0.12422240059822798,0.04776659980416298,0.04816189967095852,0.0999475996941328,0.10017170011997223,0.7531193001195788
RSVPLG03,cs,20260213-112228,1.0.2,20251105-084826,761,Experiment,Both,1,Automatic,main,60,20260213-113037,global,global,300,S,H,A,A,S-A.png,H-A.png,sS,hH,mask-2.png,mask-2.png,s,1,0.7396138003095984,h,1,0.0029608001932501793,0.04656699951738119,0.047621999867260456,0.09971799980849028,0.10086339991539717,0.3005225993692875
RSVPLG03,cs,20260213-112228,1.0.2,20251105-084826,761,Experiment,Both,1,Automatic,main,61,20260213-113041,global,local,750,S,S,A,E,S-A.png,E-S.png,sS,sS,mask-3.png,mask-1.png,s,1,0.6329689994454384,s,1,0.050829099491238594,0.04750759992748499,0.04951820056885481,0.0995404003188014,0.10260340012609959,0.751168199814856
RSVPLG03,cs,20260213-112228,1.0.2,20251105-084826,761,Experiment,Both,1,Automatic,main,62,20260213-113046,global,global,300,H,S,A,E,H-A.png,S-E.png,hH,sS,mask-2.png,mask-2.png,h,1,0.3867856999859214,s,1,0.01044590026140213,0.049068599939346313,0.0487933000549674,0.10210909973829985,0.10094290040433407,0.3016272997483611
RSVPLG03,cs,20260213-112228,1.0.2,20251105-084826,761,Experiment,Both,1,Automatic,main,63,20260213-113050,local,local,750,H,S,A,A,A-H.png,A-S.png,hH,sS,mask-4.png,mask-4.png,h,1,0.4662362998351455,s,1,0.04177530016750097,0.04776460025459528,0.046925799921154976,0.10093449987471104,0.10024440009146929,0.752586199901998
RSVPLG03,cs,20260213-112228,1.0.2,20251105-084826,761,Experiment,Both,1,Automatic,main,64,20260213-113055,global,local,300,H,S,A,E,H-A.png,E-S.png,hH,sS,mask-3.png,mask-1.png,h,1,0.4961808994412422,s,1,0.10695210006088018,0.04775349982082844,0.04808400012552738,0.0999226002022624,0.0996913006529212,0.30167009960860014
RSVPLG03,cs,20260213-112228,1.0.2,20251105-084826,761,Experiment,Both,1,Automatic,main,65,20260213-113100,local,global,750,H,S,A,A,A-H.png,S-A.png,hH,sS,mask-2.png,mask-4.png,h,1,0.6332998005673289,s,1,0.039750599302351475,0.048689099960029125,0.046774099580943584,0.10089149978011847,0.09979059919714928,0.7541078003123403
RSVPLG03,cs,20260213-112228,1.0.2,20251105-084826,761,Experiment,Both,1,Automatic,main,66,20260213-113104,local,local,750,H,S,E,A,E-H.png,A-S.png,hH,sS,mask-1.png,mask-4.png,h,1,0.517293500714004,s,1,0.054661499336361885,0.048475499264895916,0.046535699628293514,0.10044639930129051,0.10036920011043549,0.7543334998190403
RSVPLG03,cs,20260213-112228,1.0.2,20251105-084826,761,Experiment,Both,1,Automatic,main,67,20260213-113109,global,local,300,S,H,E,A,S-E.png,A-H.png,sS,hH,mask-3.png,mask-1.png,s,1,0.417438100092113,h,1,0.008649799972772598,0.04661149997264147,0.046904499642550945,0.0992085998877883,0.09983070008456707,0.30176320020109415
RSVPLG03,cs,20260213-112228,1.0.2,20251105-084826,761,Experiment,Both,1,Automatic,main,68,20260213-113113,global,global,300,S,S,A,A,S-A.png,S-A.png,sS,sS,mask-4.png,mask-3.png,s,1,0.7326932996511459,s,1,0.053868699818849564,0.0467139994725585,0.046671499498188496,0.10093609988689423,0.09991789981722832,0.30153630021959543
RSVPLG03,cs,20260213-112228,1.0.2,20251105-084826,761,Experiment,Both,1,Automatic,main,69,20260213-113118,local,global,300,S,S,E,E,E-S.png,S-E.png,sS,sS,mask-4.png,mask-2.png,s,1,0.9133089007809758,s,1,0.33070959988981485,0.047524900175631046,0.04747680015861988,0.10122650023549795,0.10066859982907772,0.3021026002243161
RSVPLG03,cs,20260213-112228,1.0.2,20251105-084826,761,Experiment,Both,1,Automatic,main,70,20260213-113123,global,global,750,H,H,A,A,H-A.png,H-A.png,hH,hH,mask-4.png,mask-3.png,h,1,0.5330685004591942,h,1,1.3408383997157216,0.04753710050135851,0.047524300403892994,0.10063320025801659,0.10061290021985769,0.7531495997682214
RSVPLG03,cs,20260213-112228,1.0.2,20251105-084826,761,Experiment,Both,1,Automatic,main,71,20260213-113129,local,global,750,H,S,E,A,E-H.png,S-A.png,hH,sS,mask-3.png,mask-3.png,h,1,1.1134745003655553,s,1,0.023532300256192684,0.04801469948142767,0.047488500364124775,0.10149669926613569,0.10042169969528913,0.7535280995070934
RSVPLG03,cs,20260213-112228,1.0.2,20251105-084826,761,Experiment,Both,1,Automatic,main,72,20260213-113134,local,global,300,H,S,A,E,A-H.png,S-E.png,hH,sS,mask-1.png,mask-4.png,s,0,2.986730500124395,s,1,0.474265499971807,0.04676870070397854,0.0470594996586442,0.09871060028672218,0.100309900008142,0.30077610071748495
RSVPLG03,cs,20260213-112228,1.0.2,20251105-084826,761,Experiment,Both,1,Automatic,main,73,20260213-113142,global,global,750,S,H,E,E,S-E.png,H-E.png,sS,hH,mask-3.png,mask-2.png,s,1,0.8473212998360395,h,1,0.12374520022422075,0.046710699796676636,0.046425300650298595,0.09956200048327446,0.10036440007388592,0.7535950997844338
RSVPLG03,cs,20260213-112228,1.0.2,20251105-084826,761,Experiment,Both,1,Automatic,main,74,20260213-113147,global,local,750,H,S,A,A,H-A.png,A-S.png,hH,sS,mask-3.png,mask-1.png,h,1,0.407625500112772,h,0,0.03814279939979315,0.04721940029412508,0.0465189004316926,0.1002556998282671,0.10050750058144331,0.7532567996531725
RSVPLG03,cs,20260213-112228,1.0.2,20251105-084826,761,Experiment,Both,1,Automatic,main,75,20260213-113151,local,local,750,S,H,A,E,A-S.png,E-H.png,sS,hH,mask-2.png,mask-2.png,s,1,0.6156104002147913,h,1,0.7918595001101494,0.047942799516022205,0.04784200061112642,0.10186769999563694,0.09806090034544468,0.7544909995049238
RSVPLG03,cs,20260213-112228,1.0.2,20251105-084826,761,Experiment,Both,1,Automatic,main,76,20260213-113352,global,global,300,H,H,A,A,H-A.png,H-A.png,hH,hH,mask-4.png,mask-3.png,s,0,1.2713961005210876,h,1,1.3835738999769092,0.047584399580955505,0.04667189996689558,0.0996332997456193,0.09985260013490915,0.3011386999860406
RSVPLG03,cs,20260213-112228,1.0.2,20251105-084826,761,Experiment,Both,1,Automatic,main,77,20260213-113357,global,global,750,S,S,A,A,S-A.png,S-A.png,sS,sS,mask-2.png,mask-4.png,s,1,0.3842749996110797,s,1,0.03874980006366968,0.0464776000007987,0.04620189964771271,0.10034050047397614,0.10016619972884655,0.7529548006132245
RSVPLG03,cs,20260213-112228,1.0.2,20251105-084826,761,Experiment,Both,1,Automatic,main,78,20260213-113402,local,global,750,S,S,E,E,E-S.png,S-E.png,sS,sS,mask-3.png,mask-2.png,s,1,0.49942189920693636,s,1,0.056630900129675865,0.04724550060927868,0.04697859939187765,0.10011870041489601,0.10026799980551004,0.7528755003586411
RSVPLG03,cs,20260213-112228,1.0.2,20251105-084826,761,Experiment,Both,1,Automatic,main,79,20260213-113407,local,local,300,H,S,A,E,A-H.png,E-S.png,hH,sS,mask-1.png,mask-4.png,h,1,0.6258768001571298,s,1,0.7698053000494838,0.047726599499583244,0.04752879962325096,0.09998419973999262,0.10073599964380264,0.30146459955722094
RSVPLG03,cs,20260213-112228,1.0.2,20251105-084826,761,Experiment,Both,1,Automatic,main,80,20260213-113411,global,local,750,H,S,E,E,H-E.png,E-S.png,hH,sS,mask-3.png,mask-1.png,h,1,0.40110629983246326,s,1,0.1441390998661518,0.04870130028575659,0.048230200074613094,0.10021059960126877,0.10147720016539097,0.7537412000820041
RSVPLG03,cs,20260213-112228,1.0.2,20251105-084826,761,Experiment,Both,1,Automatic,main,81,20260213-113416,global,local,300,H,H,A,A,H-A.png,A-H.png,hH,hH,mask-2.png,mask-2.png,h,1,0.3259462993592024,h,1,0.0702766003087163,0.04768059961497784,0.04702540021389723,0.09987980034202337,0.09980760049074888,0.30210649967193604
RSVPLG03,cs,20260213-112228,1.0.2,20251105-084826,761,Experiment,Both,1,Automatic,main,82,20260213-113420,global,local,750,H,S,E,A,H-E.png,A-S.png,hH,sS,mask-1.png,mask-1.png,h,1,0.4167935000732541,s,1,0.061177900061011314,0.04682250041514635,0.04670390021055937,0.09908650070428848,0.0994764007627964,0.7535210000351071
RSVPLG03,cs,20260213-112228,1.0.2,20251105-084826,761,Experiment,Both,1,Automatic,main,83,20260213-113425,local,global,300,H,H,A,A,A-H.png,H-A.png,hH,hH,mask-4.png,mask-4.png,h,1,1.2119116997346282,s,0,0.0018717991188168526,0.04678199999034405,0.048795100301504135,0.10082530044019222,0.10092760063707829,0.3004433996975422
RSVPLG03,cs,20260213-112228,1.0.2,20251105-084826,761,Experiment,Both,1,Automatic,main,84,20260213-113430,global,global,750,S,S,A,A,S-A.png,S-A.png,sS,sS,mask-3.png,mask-3.png,s,1,1.1585661992430687,s,1,0.07435929961502552,0.048731899820268154,0.04774110019207001,0.10082489997148514,0.10088070016354322,0.7525156997144222
RSVPLG03,cs,20260213-112228,1.0.2,20251105-084826,761,Experiment,Both,1,Automatic,main,85,20260213-113435,local,local,300,S,S,E,E,E-S.png,E-S.png,sS,sS,mask-1.png,mask-4.png,s,1,0.43960299994796515,s,1,0.049689400009810925,0.04751549940556288,0.046040299348533154,0.10070809908211231,0.10010069981217384,0.3024201998487115
RSVPLG03,cs,20260213-112228,1.0.2,20251105-084826,761,Experiment,Both,1,Automatic,main,86,20260213-113439,local,local,750,H,H,E,E,E-H.png,E-H.png,hH,hH,mask-2.png,mask-3.png,h,1,0.7843309007585049,h,1,0.04707019962370396,0.04788489919155836,0.04850099980831146,0.10000029951334,0.10089309979230165,0.7521965997293591
RSVPLG03,cs,20260213-112228,1.0.2,20251105-084826,761,Experiment,Both,1,Automatic,main,87,20260213-113444,local,global,300,S,S,E,A,E-S.png,S-A.png,sS,sS,mask-4.png,mask-4.png,s,1,0.5842172000557184,s,1,0.05264999996870756,0.046706900000572205,0.04802680015563965,0.1001854995265603,0.10125469975173473,0.29980699997395277
RSVPLG03,cs,20260213-112228,1.0.2,20251105-084826,761,Experiment,Both,1,Automatic,main,88,20260213-113448,local,local,300,S,H,E,A,E-S.png,A-H.png,sS,hH,mask-1.png,mask-3.png,s,1,0.7636910993605852,h,1,0.9398304997012019,0.046893700025975704,0.047876300290226936,0.099210100248456,0.09967640042304993,0.3000050000846386
RSVPLG03,cs,20260213-112228,1.0.2,20251105-084826,761,Experiment,Both,1,Automatic,main,89,20260213-113453,local,global,300,H,S,A,A,A-H.png,S-A.png,hH,sS,mask-2.png,mask-2.png,h,1,0.6410576002672315,h,0,0.058525700122117996,0.0474950997158885,0.04662569984793663,0.10070119984447956,0.10052740015089512,0.30209359992295504
RSVPLG03,cs,20260213-112228,1.0.2,20251105-084826,761,Experiment,Both,1,Automatic,main,90,20260213-113457,local,global,750,S,H,A,E,A-S.png,H-E.png,sS,hH,mask-1.png,mask-2.png,s,1,1.2473478000611067,s,0,0.22577839996665716,0.04751800000667572,0.04735520016402006,0.10037430003285408,0.10096450056880713,0.7519062999635935
RSVPLG03,cs,20260213-112228,1.0.2,20251105-084826,761,Experiment,Both,1,Automatic,main,91,20260213-113503,local,global,300,S,S,E,E,E-S.png,S-E.png,sS,sS,mask-2.png,mask-4.png,s,1,0.5282353004440665,h,0,0.5905734999105334,0.04676020052284002,0.04765910003334284,0.10094000026583672,0.09984390065073967,0.3005045000463724
RSVPLG03,cs,20260213-112228,1.0.2,20251105-084826,761,Experiment,Both,1,Automatic,main,92,20260213-113508,global,local,300,H,H,A,E,H-A.png,E-H.png,hH,hH,mask-4.png,mask-1.png,h,1,1.7986829997971654,s,0,0.09225249942392111,0.04757959954440594,0.047527399845421314,0.10058300010859966,0.10156220011413097,0.3005638998001814
RSVPLG03,cs,20260213-112228,1.0.2,20251105-084826,761,Experiment,Both,1,Automatic,main,93,20260213-113513,local,global,750,H,H,A,A,A-H.png,H-A.png,hH,hH,mask-4.png,mask-4.png,h,1,0.6446719001978636,h,1,1.174536599777639,0.04572110064327717,0.04950339999049902,0.09881210047751665,0.10067000053822994,0.7513736002147198
RSVPLG03,cs,20260213-112228,1.0.2,20251105-084826,761,Experiment,Both,1,Automatic,main,94,20260213-113520,local,local,750,H,H,A,A,A-H.png,A-H.png,hH,hH,mask-2.png,mask-1.png,h,1,0.3837134996429086,h,1,0.05199300032109022,0.046801100485026836,0.04660400003194809,0.09889720007777214,0.09941590018570423,0.752318199723959
RSVPLG03,cs,20260213-112228,1.0.2,20251105-084826,761,Experiment,Both,1,Automatic,main,95,20260213-113524,local,local,300,S,S,A,E,A-S.png,E-S.png,sS,sS,mask-4.png,mask-4.png,s,1,0.3391123004257679,s,1,0.04517349973320961,0.04766790010035038,0.04771329928189516,0.09983969945460558,0.1008975999429822,0.30144389998167753
RSVPLG03,cs,20260213-112228,1.0.2,20251105-084826,761,Experiment,Both,1,Automatic,main,96,20260213-113528,global,global,750,H,H,E,A,H-E.png,H-A.png,hH,hH,mask-1.png,mask-2.png,h,1,0.3950836006551981,h,1,0.05379930045455694,0.04774110019207001,0.04741299990564585,0.1009264001622796,0.0992815000936389,0.7545433007180691
RSVPLG03,cs,20260213-112228,1.0.2,20251105-084826,761,Experiment,Both,1,Automatic,main,97,20260213-113533,global,local,750,H,S,E,A,H-E.png,A-S.png,hH,sS,mask-4.png,mask-3.png,h,1,0.38710550032556057,h,0,0.05946800019592047,0.04866940062493086,0.04765910003334284,0.10009380057454109,0.10043520014733076,0.7535658003762364
RSVPLG03,cs,20260213-112228,1.0.2,20251105-084826,761,Experiment,Both,1,Automatic,main,98,20260213-113537,local,global,750,H,H,E,E,E-H.png,H-E.png,hH,hH,mask-1.png,mask-1.png,h,1,1.4384968997910619,s,0,0.0783219002187252,0.048660299740731716,0.047490100376307964,0.09996560029685497,0.09865619987249374,0.7533882996067405
RSVPLG03,cs,20260213-112228,1.0.2,20251105-084826,761,Experiment,Both,1,Automatic,main,99,20260213-113543,local,local,750,H,H,A,E,A-H.png,E-H.png,hH,hH,mask-1.png,mask-1.png,s,0,0.7885354999452829,h,1,0.647745699621737,0.048812899738550186,0.048736399970948696,0.10141760017722845,0.10100849997252226,0.7528493003919721
RSVPLG03,cs,20260213-112228,1.0.2,20251105-084826,761,Experiment,Both,1,Automatic,main,100,20260213-113549,local,local,300,S,S,A,E,A-S.png,E-S.png,sS,sS,mask-4.png,mask-4.png,s,1,0.6421233993023634,s,1,0.0768306003883481,0.04676460009068251,0.04675929993391037,0.09900279995054007,0.09831849951297045,0.3011866007000208
