exp,exp_initials,runtime,ver,modtime,sub,blocktype,targets,cuetype,mode,trialtype,trial,trialtime,t1_level,t2_level,t2_lag,t1,t2,distractor1,distractor2,stimfile1,stimfile2,t1_corr,t2_corr,maskfile1,maskfile2,t1_resp,t1_acc,t1_rt,t2_resp,t2_acc,t2_rt,t1_dur,t2_dur,t1mask_soa,t2mask_soa,t1t2_soa
RSVPLG03,Md,20260303-111258,1.0.2,20251105-085338,782,Introduction,T1,1,Automatic,main,1,20260303-111353,local,local,750,S,H,A,E,A-S.png,E-H.png,sS,hH,mask-2.png,mask-4.png,s,1,3.252874399999996,none,-5,0,0.09308240000007117,0.10103440000000319,0.1930960000000823,0.20110010000007605,0.7419578000000229
RSVPLG03,Md,20260303-111258,1.0.2,20251105-085338,782,Introduction,T1,1,Automatic,main,2,20260303-111401,global,local,750,H,H,A,A,H-A.png,A-H.png,hH,hH,mask-1.png,mask-3.png,h,1,1.1732320999999502,none,-5,0,0.09917219999999816,0.09995500000002266,0.20024089999992611,0.19968149999999696,0.7499941999999464
RSVPLG03,Md,20260303-111258,1.0.2,20251105-085338,782,Introduction,T1,1,Automatic,main,3,20260303-111406,local,global,750,S,S,A,A,A-S.png,S-A.png,sS,sS,mask-4.png,mask-2.png,s,1,1.5759067000000186,none,-5,0,0.09997260000000097,0.09998580000001311,0.1999749999999949,0.199937900000009,0.7499227000000701
RSVPLG03,Md,20260303-111258,1.0.2,20251105-085338,782,Introduction,T1,1,Automatic,main,4,20260303-111412,local,global,750,S,S,E,A,E-S.png,S-A.png,sS,sS,mask-1.png,mask-2.png,s,1,1.210672499999987,none,-5,0,0.10001090000002932,0.09754120000002331,0.20000010000001112,0.19860860000005687,0.7512398999999732
RSVPLG03,Md,20260303-111258,1.0.2,20251105-085338,782,Introduction,T1,1,Automatic,main,5,20260303-111417,global,global,750,H,H,E,A,H-E.png,H-A.png,hH,hH,mask-4.png,mask-4.png,h,1,0.5749041999999918,none,-5,0,0.1000451999999541,0.0997340000000122,0.19953369999996085,0.1997072000000344,0.7502144000000044
RSVPLG03,Md,20260303-111258,1.0.2,20251105-085338,782,Introduction,T1,1,Automatic,main,6,20260303-111422,global,global,750,H,S,E,A,H-E.png,S-A.png,hH,sS,mask-2.png,mask-1.png,h,1,1.6903147000000445,none,-5,0,0.10161059999995814,0.1010239999999385,0.20142950000001747,0.20087019999994027,0.7505114000000503
RSVPLG03,Md,20260303-111258,1.0.2,20251105-085338,782,Introduction,T1,1,Automatic,main,7,20260303-111428,local,local,750,H,H,A,A,A-H.png,A-H.png,hH,hH,mask-1.png,mask-3.png,h,1,0.896520799999962,none,-5,0,0.10107140000002346,0.09996879999994235,0.2007718999999497,0.19997419999992871,0.7494712000000163
RSVPLG03,Md,20260303-111258,1.0.2,20251105-085338,782,Introduction,T1,1,Automatic,main,8,20260303-111433,global,global,750,S,H,E,E,S-E.png,H-E.png,sS,hH,mask-1.png,mask-3.png,s,1,2.6202369999999746,none,-5,0,0.09922470000003614,0.09998939999991308,0.19933530000002975,0.1999450999999226,0.7497735000000603
RSVPLG03,Md,20260303-111258,1.0.2,20251105-085338,782,Introduction,T1,1,Automatic,main,9,20260303-111440,global,local,750,H,H,E,A,H-E.png,A-H.png,hH,hH,mask-4.png,mask-4.png,h,1,0.8364031000000978,none,-5,0,0.09975740000004407,0.09953390000009676,0.19915549999996074,0.20033570000009604,0.74938039999995
RSVPLG03,Md,20260303-111258,1.0.2,20251105-085338,782,Introduction,T1,1,Automatic,main,10,20260303-111445,global,local,750,S,S,E,E,S-E.png,E-S.png,sS,sS,mask-3.png,mask-2.png,s,1,1.1344744000000446,none,-5,0,0.09985089999997854,0.0999719000000141,0.19968410000001313,0.19995240000002923,0.7506316000000197
RSVPLG03,Md,20260303-111258,1.0.2,20251105-085338,782,Introduction,T1,1,Automatic,main,11,20260303-111450,local,global,750,H,S,E,E,E-H.png,S-E.png,hH,sS,mask-1.png,mask-3.png,h,1,0.4869069999999738,none,-5,0,0.0989675000000716,0.09897019999993972,0.19802500000002965,0.19891299999994771,0.7498128000000861
RSVPLG03,Md,20260303-111258,1.0.2,20251105-085338,782,Introduction,T1,1,Automatic,main,12,20260303-111454,local,global,750,S,S,E,A,E-S.png,S-A.png,sS,sS,mask-3.png,mask-1.png,s,1,0.8323712000000114,none,-5,0,0.09996520000004239,0.10006190000001425,0.19870339999999942,0.19952020000005177,0.7491095000000314
RSVPLG03,Md,20260303-111258,1.0.2,20251105-085338,782,Introduction,T1,1,Automatic,main,13,20260303-111459,global,global,750,S,S,A,A,S-A.png,S-A.png,sS,sS,mask-1.png,mask-3.png,s,1,1.63338849999991,none,-5,0,0.10004739999999401,0.09879630000000361,0.2010178000000451,0.1998590000000604,0.7502786000000015
RSVPLG03,Md,20260303-111258,1.0.2,20251105-085338,782,Introduction,T1,1,Automatic,main,14,20260303-111505,global,local,750,H,S,E,A,H-E.png,A-S.png,hH,sS,mask-3.png,mask-2.png,h,1,0.7923034000000371,none,-5,0,0.09889670000006845,0.09966389999999592,0.19971889999999348,0.20041889999993145,0.748097800000096
RSVPLG03,Md,20260303-111258,1.0.2,20251105-085338,782,Introduction,T1,1,Automatic,main,15,20260303-111510,local,local,750,S,H,A,A,A-S.png,A-H.png,sS,hH,mask-4.png,mask-1.png,s,1,0.4575449999999819,none,-5,0,0.09952660000010383,0.10119620000000396,0.2016910000000962,0.19991909999998825,0.7496719000000667
RSVPLG03,Md,20260303-111258,1.0.2,20251105-085338,782,Introduction,T1,1,Automatic,main,16,20260303-111515,local,local,750,H,H,A,E,A-H.png,E-H.png,hH,hH,mask-3.png,mask-4.png,h,1,0.4437953000000334,none,-5,0,0.09922249999999622,0.09981549999997696,0.19897800000001098,0.1994904000000588,0.7492469000000028
RSVPLG03,md,20260303-111556,1.0.2,20251105-085338,782,Practice,T1,1,Automatic,main,1,20260303-111615,local,local,300,S,H,A,E,A-S.png,E-H.png,sS,hH,mask-3.png,mask-2.png,s,1,0.88195369999994,none,-5,0,0.04902830000003178,0.04982669999992595,0.09986090000006698,0.09965809999994235,0.29947950000007495
RSVPLG03,md,20260303-111556,1.0.2,20251105-085338,782,Practice,T1,1,Automatic,main,2,20260303-111619,local,global,300,H,H,A,A,A-H.png,H-A.png,hH,hH,mask-3.png,mask-2.png,h,1,0.6752844000000096,none,-5,0,0.05105190000006132,0.050846900000010464,0.09970750000002226,0.10080570000002353,0.30010679999998047
RSVPLG03,md,20260303-111556,1.0.2,20251105-085338,782,Practice,T1,1,Automatic,main,3,20260303-111623,local,local,750,S,S,E,E,E-S.png,E-S.png,sS,sS,mask-1.png,mask-2.png,s,1,0.8671161000000893,none,-5,0,0.04950319999989006,0.050674699999945005,0.09956239999996797,0.09958629999994173,0.7502535999999509
RSVPLG03,md,20260303-111556,1.0.2,20251105-085338,782,Practice,T1,1,Automatic,main,4,20260303-111628,global,global,750,H,H,E,E,H-E.png,H-E.png,hH,hH,mask-4.png,mask-1.png,h,1,0.3913257000000385,none,-5,0,0.05052090000003773,0.05082999999990534,0.10026020000009339,0.10007729999995263,0.7498429000000897
RSVPLG03,md,20260303-111556,1.0.2,20251105-085338,782,Practice,T1,1,Automatic,main,5,20260303-111633,global,global,750,S,S,A,A,S-A.png,S-A.png,sS,sS,mask-1.png,mask-4.png,s,1,0.4070310000000745,none,-5,0,0.049800799999957235,0.05075720000002093,0.09970260000000053,0.10029799999995248,0.7506333999999697
RSVPLG03,md,20260303-111556,1.0.2,20251105-085338,782,Practice,T1,1,Automatic,main,6,20260303-111637,local,local,300,S,H,E,E,E-S.png,E-H.png,sS,hH,mask-2.png,mask-1.png,s,1,1.4910578000000214,none,-5,0,0.049910699999941244,0.04984379999996236,0.09990770000001703,0.09990010000001348,0.3002625999999964
RSVPLG03,md,20260303-111556,1.0.2,20251105-085338,782,Practice,T1,1,Automatic,main,7,20260303-111642,global,local,300,S,H,A,A,S-A.png,A-H.png,sS,hH,mask-3.png,mask-1.png,h,0,0.7822014000000763,none,-5,0,0.04964610000001812,0.05083999999999378,0.09946130000002995,0.09968890000004649,0.3001547000000073
RSVPLG03,md,20260303-111556,1.0.2,20251105-085338,782,Practice,T1,1,Automatic,main,8,20260303-111646,global,local,750,S,S,E,E,S-E.png,E-S.png,sS,sS,mask-2.png,mask-4.png,s,1,1.3641379999999117,none,-5,0,0.04825820000007752,0.04992519999996148,0.09878909999997632,0.09948399999996127,0.7496692000000849
RSVPLG03,md,20260303-111556,1.0.2,20251105-085338,782,Practice,T1,1,Automatic,main,9,20260303-111652,local,global,750,H,S,E,A,E-H.png,S-A.png,hH,sS,mask-3.png,mask-4.png,h,1,0.5834449999999833,none,-5,0,0.05013610000003155,0.04976199999998698,0.09966930000007324,0.10068069999999807,0.7503983999999946
RSVPLG03,md,20260303-111556,1.0.2,20251105-085338,782,Practice,T1,1,Automatic,main,10,20260303-111656,local,global,300,S,S,A,A,A-S.png,S-A.png,sS,sS,mask-3.png,mask-2.png,h,0,1.4036671999999726,none,-5,0,0.04985239999996338,0.04975369999999657,0.09960239999998066,0.0997084000000541,0.2990958999999975
RSVPLG03,md,20260303-111556,1.0.2,20251105-085338,782,Practice,T1,1,Automatic,main,11,20260303-111701,global,local,300,S,S,A,A,S-A.png,A-S.png,sS,sS,mask-1.png,mask-3.png,h,0,1.6977723999998489,none,-5,0,0.049978399999872636,0.049986600000011094,0.10078900000007707,0.09978509999996277,0.30018939999990835
RSVPLG03,md,20260303-111556,1.0.2,20251105-085338,782,Practice,T1,1,Automatic,main,12,20260303-111707,global,local,750,H,H,A,A,H-A.png,A-H.png,hH,hH,mask-1.png,mask-4.png,h,1,1.2737389999999778,none,-5,0,0.050314000000071246,0.048924799999895185,0.10126050000008036,0.0996236000000863,0.7516841999999997
RSVPLG03,md,20260303-111556,1.0.2,20251105-085338,782,Practice,T1,1,Automatic,main,13,20260303-111712,local,global,750,S,H,E,A,E-S.png,H-A.png,sS,hH,mask-1.png,mask-4.png,s,1,0.7314053000000058,none,-5,0,0.05105239999988953,0.05162580000001071,0.10094570000001113,0.10056540000005043,0.7499153999999635
RSVPLG03,md,20260303-111556,1.0.2,20251105-085338,782,Practice,T1,1,Automatic,main,14,20260303-111717,global,global,300,H,H,E,E,H-E.png,H-E.png,hH,hH,mask-1.png,mask-4.png,h,1,0.5645892999998523,none,-5,0,0.05082569999990483,0.04983390000006693,0.10052009999981237,0.10080220000008921,0.30026299999985895
RSVPLG03,md,20260303-111556,1.0.2,20251105-085338,782,Practice,T1,1,Automatic,main,15,20260303-111721,global,global,300,H,S,E,A,H-E.png,S-A.png,hH,sS,mask-4.png,mask-2.png,h,1,0.840400900000077,none,-5,0,0.05080450000014025,0.0510364000001573,0.09968049999997675,0.0997535000001335,0.3003516999999647
RSVPLG03,md,20260303-111556,1.0.2,20251105-085338,782,Practice,T1,1,Automatic,main,16,20260303-111725,local,local,750,H,S,E,E,E-H.png,E-S.png,hH,sS,mask-3.png,mask-3.png,h,1,0.6622105000001284,none,-5,0,0.05181259999994836,0.05099870000003648,0.10169229999996787,0.10095260000002781,0.7504819999999199
RSVPLG03,mD,20260303-111849,1.0.2,20251105-085338,782,Practice,Both,1,Automatic,main,1,20260303-111922,global,global,750,S,S,E,A,S-E.png,S-A.png,sS,sS,mask-3.png,mask-3.png,s,1,3.227830600000061,h,0,2.1269473999998354,0.043259400000124515,0.04999970000017129,0.09445789999995213,0.09940860000006069,0.7447993999999198
RSVPLG03,mD,20260303-111849,1.0.2,20251105-085338,782,Practice,Both,1,Automatic,main,2,20260303-111931,global,global,750,S,S,A,A,S-A.png,S-A.png,sS,sS,mask-3.png,mask-4.png,s,1,1.7342340999998669,s,1,0.6285096999999951,0.04834200000004785,0.04889929999990272,0.09769490000007863,0.09903450000001612,0.7495105000000422
RSVPLG03,mD,20260303-111849,1.0.2,20251105-085338,782,Practice,Both,1,Automatic,main,3,20260303-111938,global,local,750,S,H,A,A,S-A.png,A-H.png,sS,hH,mask-2.png,mask-2.png,s,1,1.3219495000000734,h,1,1.1617542999999841,0.050131599999986065,0.04888309999978446,0.10024410000005446,0.09954789999983404,0.7504155000001447
RSVPLG03,mD,20260303-111849,1.0.2,20251105-085338,782,Practice,Both,1,Automatic,main,4,20260303-111945,local,local,750,H,S,E,E,E-H.png,E-S.png,hH,sS,mask-3.png,mask-3.png,h,1,1.8006737000000612,s,1,0.6911674999998922,0.05035229999998592,0.04993590000003678,0.0997555999999804,0.10001180000017484,0.7491774000000078
RSVPLG03,mD,20260303-111849,1.0.2,20251105-085338,782,Practice,Both,1,Automatic,main,5,20260303-111951,local,local,300,S,S,E,A,E-S.png,A-S.png,sS,sS,mask-2.png,mask-1.png,s,1,2.1496946000002026,h,0,1.9893697999998494,0.0501257999999325,0.04819899999984045,0.10023299999988922,0.09824609999986933,0.301912399999992
RSVPLG03,mD,20260303-111849,1.0.2,20251105-085338,782,Practice,Both,1,Automatic,main,6,20260303-111959,global,local,300,S,S,E,A,S-E.png,A-S.png,sS,sS,mask-4.png,mask-4.png,s,1,1.555711599999995,h,0,0.2979752000001099,0.05009999999992942,0.04957870000021103,0.10022859999980938,0.10110790000021552,0.29914739999981066
RSVPLG03,mD,20260303-111849,1.0.2,20251105-085338,782,Practice,Both,1,Automatic,main,7,20260303-112005,global,global,300,H,S,A,E,H-A.png,S-E.png,hH,sS,mask-4.png,mask-1.png,s,0,1.1035980999999992,h,0,1.3316961999998966,0.050098599999955695,0.048892600000044695,0.10026679999987209,0.099035300000196,0.2999891999997999
RSVPLG03,mD,20260303-111849,1.0.2,20251105-085338,782,Practice,Both,1,Automatic,main,8,20260303-112011,local,global,300,H,S,A,A,A-H.png,S-A.png,hH,sS,mask-2.png,mask-1.png,h,1,4.22685249999995,h,0,1.9857130000000325,0.04982130000007601,0.05008459999999104,0.10186750000002576,0.09933350000005703,0.30099749999999403
RSVPLG03,mD,20260303-111849,1.0.2,20251105-085338,782,Practice,Both,1,Automatic,main,9,20260303-112021,local,global,750,H,H,E,A,E-H.png,H-A.png,hH,hH,mask-3.png,mask-4.png,h,1,2.7268208000000413,s,0,1.4505894000001263,0.05052699999987453,0.05016569999997955,0.09883020000006582,0.10034399999995003,0.7500319000000673
RSVPLG03,mD,20260303-111849,1.0.2,20251105-085338,782,Practice,Both,1,Automatic,main,10,20260303-112029,local,global,750,S,S,E,E,E-S.png,S-E.png,sS,sS,mask-1.png,mask-3.png,s,1,2.1271670999999515,h,0,2.0955962000000454,0.04999090000001161,0.05110880000006546,0.09954970000012509,0.10008010000001377,0.7504149000001235
RSVPLG03,mD,20260303-111849,1.0.2,20251105-085338,782,Practice,Both,1,Automatic,main,11,20260303-112037,local,local,750,S,H,A,A,A-S.png,A-H.png,sS,hH,mask-3.png,mask-2.png,h,0,1.503811799999994,s,0,0.3680319000000054,0.04979470000012043,0.04821289999995315,0.0996780000000399,0.0984089999999469,0.7518514000000778
RSVPLG03,mD,20260303-111849,1.0.2,20251105-085338,782,Practice,Both,1,Automatic,main,12,20260303-112043,global,global,300,S,S,A,A,S-A.png,S-A.png,sS,sS,mask-4.png,mask-3.png,s,1,2.0103778000000148,h,0,0.09495839999999589,0.04990970000017114,0.049192900000207374,0.10085800000001655,0.0995897000000241,0.2995393999999578
RSVPLG03,mD,20260303-111849,1.0.2,20251105-085338,782,Practice,Both,1,Automatic,main,13,20260303-112049,local,global,300,S,H,A,A,A-S.png,H-A.png,sS,hH,mask-1.png,mask-2.png,s,1,1.5185805000000983,h,1,0.20972989999995661,0.051130999999941196,0.05011880000006386,0.10105490000000827,0.10024759999987509,0.3010303999999451
RSVPLG03,mD,20260303-111849,1.0.2,20251105-085338,782,Practice,Both,1,Automatic,main,14,20260303-112054,global,local,750,S,S,E,A,S-E.png,A-S.png,sS,sS,mask-4.png,mask-2.png,s,1,1.9125172999999904,s,1,0.36252810000019053,0.05129250000004504,0.04994340000007469,0.10226319999992484,0.09992420000003222,0.7524653000000399
RSVPLG03,mD,20260303-111849,1.0.2,20251105-085338,782,Practice,Both,1,Automatic,main,15,20260303-112101,local,local,300,H,S,A,A,A-H.png,A-S.png,hH,sS,mask-1.png,mask-3.png,h,1,1.1558806000000459,s,1,0.3551299000000654,0.05029439999998431,0.050520300000016505,0.10124969999992572,0.1000151000000642,0.300711500000034
RSVPLG03,mD,20260303-111849,1.0.2,20251105-085338,782,Practice,Both,1,Automatic,main,16,20260303-112106,global,local,300,S,H,E,E,S-E.png,E-H.png,sS,hH,mask-4.png,mask-4.png,s,1,6.046636599999829,h,1,0.21910559999992074,0.04911809999998695,0.04901549999999588,0.09907009999983529,0.10000179999997272,0.3002022999999099
RSVPLG03,Md,20260303-112129,1.0.2,20251105-085338,782,Practice,Both,1,Automatic,main,1,20260303-112146,local,global,750,H,H,E,A,E-H.png,H-A.png,hH,hH,mask-2.png,mask-4.png,h,1,2.0022495000000617,h,1,0.3288394999999582,0.03972840000005817,0.04700710000020081,0.0907164999998713,0.09943780000003244,0.7408633999998528
RSVPLG03,Md,20260303-112129,1.0.2,20251105-085338,782,Practice,Both,1,Automatic,main,2,20260303-112153,global,global,750,S,H,E,A,S-E.png,H-A.png,sS,hH,mask-3.png,mask-1.png,s,1,0.9309991999998601,h,1,0.3341820999999072,0.0502372999999352,0.05010349999997743,0.10052910000013071,0.10024149999981091,0.7499434000001202
RSVPLG03,Md,20260303-112129,1.0.2,20251105-085338,782,Practice,Both,1,Automatic,main,3,20260303-112158,local,local,300,S,H,A,E,A-S.png,E-H.png,sS,hH,mask-2.png,mask-4.png,s,1,0.9673775999999634,s,0,0.33243530000004284,0.050110700000004726,0.05016010000008464,0.10120290000008936,0.10027609999997367,0.29962909999994736
RSVPLG03,Md,20260303-112129,1.0.2,20251105-085338,782,Practice,Both,1,Automatic,main,4,20260303-112203,global,local,300,S,S,E,A,S-E.png,A-S.png,sS,sS,mask-4.png,mask-1.png,s,1,0.9587435999999343,h,0,0.2985254000000168,0.049323700000059034,0.05007829999999558,0.10079380000001947,0.09920450000004166,0.30044980000002397
RSVPLG03,Md,20260303-112129,1.0.2,20251105-085338,782,Practice,Both,1,Automatic,main,5,20260303-112208,global,local,750,S,H,A,A,S-A.png,A-H.png,sS,hH,mask-4.png,mask-3.png,s,1,1.198602899999969,h,1,0.650313899999901,0.05106190000014976,0.05018670000004022,0.0994825000000219,0.09991630000013174,0.7494578000000729
RSVPLG03,Md,20260303-112129,1.0.2,20251105-085338,782,Practice,Both,1,Automatic,main,6,20260303-112214,local,local,750,S,S,E,E,E-S.png,E-S.png,sS,sS,mask-3.png,mask-3.png,s,1,1.0627247999998417,s,1,0.49291919999996026,0.05027510000013535,0.04809550000004492,0.10022969999999987,0.09916560000010577,0.7496846999999889
RSVPLG03,Md,20260303-112129,1.0.2,20251105-085338,782,Practice,Both,1,Automatic,main,7,20260303-112220,global,global,750,H,H,E,E,H-E.png,H-E.png,hH,hH,mask-3.png,mask-3.png,h,1,1.1843470000001162,h,1,0.29467780000004495,0.050141299999950206,0.049090100000057646,0.1002538000000186,0.09920510000006288,0.7496543999998266
RSVPLG03,Md,20260303-112129,1.0.2,20251105-085338,782,Practice,Both,1,Automatic,main,8,20260303-112225,local,global,300,S,S,E,E,E-S.png,S-E.png,sS,sS,mask-3.png,mask-1.png,s,1,1.0035821000001306,h,0,0.47629649999998946,0.050982299999986935,0.04987059999984922,0.0997932000000219,0.099787299999889,0.29979870000011033
RSVPLG03,Md,20260303-112129,1.0.2,20251105-085338,782,Practice,Both,1,Automatic,main,9,20260303-112230,global,global,300,S,H,E,A,S-E.png,H-A.png,sS,hH,mask-2.png,mask-4.png,s,1,3.148022799999808,h,1,0.3136456999998245,0.05021230000011201,0.04957339999987198,0.10021260000007715,0.09949889999984407,0.3005446000001939
RSVPLG03,Md,20260303-112129,1.0.2,20251105-085338,782,Practice,Both,1,Automatic,main,10,20260303-112238,global,local,750,S,S,A,A,S-A.png,A-S.png,sS,sS,mask-1.png,mask-4.png,s,1,0.7956558000000769,s,1,0.35466810000002624,0.05076379999991332,0.05106870000008712,0.10127699999998185,0.10021239999991849,0.7493214999999509
RSVPLG03,Md,20260303-112129,1.0.2,20251105-085338,782,Practice,Both,1,Automatic,main,11,20260303-112243,local,local,750,S,S,E,A,E-S.png,A-S.png,sS,sS,mask-1.png,mask-3.png,s,1,2.3925985999999284,s,1,2.2917933000001085,0.04973610000001827,0.05012499999997999,0.09987070000011045,0.10025889999997162,0.7497671000000992
RSVPLG03,Md,20260303-112129,1.0.2,20251105-085338,782,Practice,Both,1,Automatic,main,12,20260303-112252,local,global,300,H,S,E,E,E-H.png,S-E.png,hH,sS,mask-4.png,mask-3.png,h,1,1.7643790999998146,s,1,1.5553181000000222,0.050337899999931324,0.050071399999978894,0.10129609999989952,0.09922110000002249,0.3002988999999161
RSVPLG03,Md,20260303-112129,1.0.2,20251105-085338,782,Practice,Both,1,Automatic,main,13,20260303-112259,global,global,300,S,S,A,A,S-A.png,S-A.png,sS,sS,mask-4.png,mask-2.png,s,1,1.034515699999929,s,1,0.2734889999999268,0.05075499999998101,0.050104400000009264,0.09987389999992047,0.10022410000010495,0.2998780999998871
RSVPLG03,Md,20260303-112129,1.0.2,20251105-085338,782,Practice,Both,1,Automatic,main,14,20260303-112304,global,local,300,H,H,A,E,H-A.png,E-H.png,hH,hH,mask-2.png,mask-1.png,h,1,2.2913028000000395,s,0,0.6077982000001612,0.05011340000010023,0.050092499999891515,0.10022860000003675,0.09924389999991945,0.3001819000000978
RSVPLG03,Md,20260303-112129,1.0.2,20251105-085338,782,Practice,Both,1,Automatic,main,15,20260303-112310,local,global,750,S,S,A,E,A-S.png,S-E.png,sS,sS,mask-4.png,mask-1.png,h,0,3.078953100000035,s,1,1.3296695000001364,0.051062100000081045,0.049093800000036936,0.10108009999999013,0.09994429999983367,0.749968600000102
RSVPLG03,Md,20260303-112129,1.0.2,20251105-085338,782,Practice,Both,1,Automatic,main,16,20260303-112319,local,local,300,H,H,A,A,A-H.png,A-H.png,hH,hH,mask-4.png,mask-4.png,h,1,1.89301260000002,s,0,0.34010250000005726,0.05009999999992942,0.05009620000009818,0.1001989000001231,0.10020950000011908,0.29994719999990593
RSVPLG03,mD,20260303-112443,1.0.2,20251105-085338,782,Experiment,Both,1,Automatic,warmup,1,20260303-112523,local,global,750,S,H,E,E,E-S.png,H-E.png,sS,hH,mask-2.png,mask-1.png,s,1,1.980263199999854,h,1,0.5378285000001597,0.039589599999999336,0.04910420000010163,0.09153949999995348,0.09826300000008814,0.741035699999884
RSVPLG03,mD,20260303-112443,1.0.2,20251105-085338,782,Experiment,Both,1,Automatic,warmup,2,20260303-112530,global,global,750,S,S,E,A,S-E.png,S-A.png,sS,sS,mask-2.png,mask-2.png,s,1,1.1280921000000035,s,1,0.5564489999999296,0.04979700000012599,0.050194200000078126,0.0997348000000784,0.10161260000018046,0.7502501999999822
RSVPLG03,mD,20260303-112443,1.0.2,20251105-085338,782,Experiment,Both,1,Automatic,warmup,3,20260303-112535,local,local,300,H,S,A,E,A-H.png,E-S.png,hH,sS,mask-3.png,mask-1.png,h,1,1.2332951999999295,s,1,0.4654258000000482,0.050146799999993164,0.04834449999998469,0.10028029999989485,0.09867570000005799,0.3004503999998178
RSVPLG03,mD,20260303-112443,1.0.2,20251105-085338,782,Experiment,Both,1,Automatic,warmup,4,20260303-112541,global,local,300,S,H,E,E,S-E.png,E-H.png,sS,hH,mask-1.png,mask-2.png,s,1,1.422077199999876,s,0,0.3697760999998536,0.05011889999991581,0.04895719999990433,0.10034249999989697,0.09887479999997595,0.30143090000001393
RSVPLG03,mD,20260303-112443,1.0.2,20251105-085338,782,Experiment,Both,1,Automatic,main,5,20260303-112546,global,global,300,H,S,A,E,H-A.png,S-E.png,hH,sS,mask-1.png,mask-4.png,h,1,1.1307283999999527,s,1,0.22727680000002692,0.04889320000006592,0.05077180000012049,0.09894750000012209,0.10064310000007026,0.2994068000000425
RSVPLG03,mD,20260303-112443,1.0.2,20251105-085338,782,Experiment,Both,1,Automatic,main,6,20260303-112551,global,local,300,H,S,A,A,H-A.png,A-S.png,hH,sS,mask-2.png,mask-4.png,h,1,2.0989825999999994,h,0,0.3285392000000229,0.05083540000009634,0.0522516999999425,0.10047159999999167,0.10038630000008197,0.299292400000013
RSVPLG03,mD,20260303-112443,1.0.2,20251105-085338,782,Experiment,Both,1,Automatic,main,7,20260303-112557,local,local,300,S,S,E,A,E-S.png,A-S.png,sS,sS,mask-2.png,mask-2.png,s,1,0.9858237000000827,s,1,0.2988342000001012,0.05015140000000429,0.049883599999930084,0.0990254000000732,0.0995897000000241,0.29952800000000934
RSVPLG03,mD,20260303-112443,1.0.2,20251105-085338,782,Experiment,Both,1,Automatic,main,8,20260303-112602,global,local,750,H,H,A,E,H-A.png,E-H.png,hH,hH,mask-1.png,mask-1.png,h,1,1.3135173000000577,s,0,0.22694139999998697,0.04973229999995965,0.04973500000005515,0.10064549999992778,0.10041660000001684,0.749992999999904
RSVPLG03,mD,20260303-112443,1.0.2,20251105-085338,782,Experiment,Both,1,Automatic,main,9,20260303-112608,local,local,300,S,S,E,E,E-S.png,E-S.png,sS,sS,mask-4.png,mask-3.png,s,1,1.0833240000001751,s,1,0.3390926000001855,0.04979690000004666,0.050772600000073,0.10098029999994651,0.09956760000000031,0.30014219999998204
RSVPLG03,mD,20260303-112443,1.0.2,20251105-085338,782,Experiment,Both,1,Automatic,main,10,20260303-112613,global,global,750,H,S,A,E,H-A.png,S-E.png,hH,sS,mask-1.png,mask-1.png,h,1,0.9839139000000614,s,1,0.22800660000007156,0.04989379999983612,0.04868580000015754,0.09969009999986156,0.09959790000016255,0.750090599999794
RSVPLG03,mD,20260303-112443,1.0.2,20251105-085338,782,Experiment,Both,1,Automatic,main,11,20260303-112618,local,global,750,H,S,E,A,E-H.png,S-A.png,hH,sS,mask-1.png,mask-4.png,s,0,2.2841501000000335,s,1,0.3779927000000498,0.04891910000014832,0.050944899999876725,0.09979150000003756,0.09978959999989456,0.7490548000000672
RSVPLG03,mD,20260303-112443,1.0.2,20251105-085338,782,Experiment,Both,1,Automatic,main,12,20260303-112625,local,global,300,H,H,A,E,A-H.png,H-E.png,hH,hH,mask-2.png,mask-4.png,h,1,2.4787178000001404,s,0,0.29955389999986437,0.048867700000073455,0.04970109999999295,0.0986755000001267,0.09972200000015619,0.30020839999997406
RSVPLG03,mD,20260303-112443,1.0.2,20251105-085338,782,Experiment,Both,1,Automatic,main,13,20260303-112632,global,local,750,H,S,E,A,H-E.png,A-S.png,hH,sS,mask-4.png,mask-3.png,h,1,1.6459976999999526,h,0,0.29828440000005685,0.049834099999998216,0.048934899999949266,0.09966220000001158,0.09886379999989003,0.7507955000000948
RSVPLG03,mD,20260303-112443,1.0.2,20251105-085338,782,Experiment,Both,1,Automatic,main,14,20260303-112638,local,global,750,S,H,E,A,E-S.png,H-A.png,sS,hH,mask-1.png,mask-1.png,s,1,2.2627334000001156,h,1,0.3148364000001038,0.050918800000090414,0.05166670000016893,0.1000797000001512,0.10059930000011263,0.7498488999999608
RSVPLG03,mD,20260303-112443,1.0.2,20251105-085338,782,Experiment,Both,1,Automatic,main,15,20260303-112644,global,global,300,S,H,E,E,S-E.png,H-E.png,sS,hH,mask-3.png,mask-2.png,s,1,1.1941178000001855,h,1,0.3327462999998261,0.048091599999906975,0.050261099999943326,0.09931209999990642,0.10042429999998603,0.29961869999988266
RSVPLG03,mD,20260303-112443,1.0.2,20251105-085338,782,Experiment,Both,1,Automatic,main,16,20260303-112649,global,local,300,S,S,E,E,S-E.png,E-S.png,sS,sS,mask-2.png,mask-4.png,s,1,1.321183900000051,h,0,0.31430509999995593,0.04949379999993653,0.0501365000000078,0.10049149999986184,0.10024560000010752,0.30043579999983194
RSVPLG03,mD,20260303-112443,1.0.2,20251105-085338,782,Experiment,Both,1,Automatic,main,17,20260303-112655,global,local,750,H,H,E,E,H-E.png,E-H.png,hH,hH,mask-1.png,mask-3.png,h,1,1.322470100000146,s,0,0.2865131000000929,0.050405899999987014,0.05079510000018672,0.10022830000002614,0.1005971000001864,0.7496708999999555
RSVPLG03,mD,20260303-112443,1.0.2,20251105-085338,782,Experiment,Both,1,Automatic,main,18,20260303-112701,local,global,300,H,S,E,A,E-H.png,S-A.png,hH,sS,mask-4.png,mask-3.png,s,0,2.02049460000012,h,0,0.2737158999998428,0.050110099999983504,0.0523768000000473,0.10097700000005716,0.10070770000015727,0.29957919999992555
RSVPLG03,mD,20260303-112443,1.0.2,20251105-085338,782,Experiment,Both,1,Automatic,main,19,20260303-112706,local,local,750,S,H,E,E,E-S.png,E-H.png,sS,hH,mask-2.png,mask-2.png,s,1,1.0742069000000356,h,1,0.27057239999999183,0.05013460000009218,0.0504467000000659,0.1013437999999951,0.0987723000000642,0.7512486000000536
RSVPLG03,mD,20260303-112443,1.0.2,20251105-085338,782,Experiment,Both,1,Automatic,main,20,20260303-112712,global,local,300,S,H,A,E,S-A.png,E-H.png,sS,hH,mask-4.png,mask-1.png,s,1,1.5983753000000434,s,0,0.5348339000001943,0.05012859999987995,0.05018220000010842,0.10024410000005446,0.09947780000015882,0.3001967999998669
RSVPLG03,mD,20260303-112443,1.0.2,20251105-085338,782,Experiment,Both,1,Automatic,main,21,20260303-112718,local,global,750,H,S,E,E,E-H.png,S-E.png,hH,sS,mask-4.png,mask-1.png,s,0,2.7969865000000027,s,1,0.4110772999999881,0.049953499999901396,0.05018470000004527,0.10152300000004288,0.09832040000014786,0.7520806999998513
RSVPLG03,mD,20260303-112443,1.0.2,20251105-085338,782,Experiment,Both,1,Automatic,main,22,20260303-112725,global,global,750,H,H,E,E,H-E.png,H-E.png,hH,hH,mask-1.png,mask-4.png,h,1,4.624971999999843,h,1,0.9402870000001258,0.050110800000084055,0.050091199999997116,0.09928459999991901,0.09924690000002556,0.7505667000000358
RSVPLG03,mD,20260303-112443,1.0.2,20251105-085338,782,Experiment,Both,1,Automatic,main,23,20260303-112735,local,global,750,H,S,E,E,E-H.png,S-E.png,hH,sS,mask-4.png,mask-1.png,h,1,1.288838700000042,s,1,0.29983179999999265,0.047962399999960326,0.04971620000014809,0.09887520000006589,0.10085019999996803,0.7494762999999693
RSVPLG03,mD,20260303-112443,1.0.2,20251105-085338,782,Experiment,Both,1,Automatic,main,24,20260303-112741,local,local,750,S,S,A,E,A-S.png,E-S.png,sS,sS,mask-1.png,mask-1.png,s,1,2.1201513999999406,h,0,0.2785691000001407,0.049475599999823316,0.05103740000004109,0.09960349999983009,0.10116880000009587,0.7483259999999063
RSVPLG03,mD,20260303-112443,1.0.2,20251105-085338,782,Experiment,Both,1,Automatic,main,25,20260303-112747,local,global,300,S,H,A,A,A-S.png,H-A.png,sS,hH,mask-1.png,mask-3.png,s,1,1.2189444999999068,h,1,0.17835070000000997,0.048643300000094314,0.04843879999998535,0.097686000000067,0.0985536000000593,0.3001839999999447
RSVPLG03,mD,20260303-112443,1.0.2,20251105-085338,782,Experiment,Both,1,Automatic,main,26,20260303-112803,local,local,300,S,S,E,E,E-S.png,E-S.png,sS,sS,mask-4.png,mask-2.png,s,1,1.517936299999974,s,1,0.4263298999999279,0.0501048000000992,0.050124600000117425,0.10022419999995691,0.10054009999998925,0.3001177999999527
RSVPLG03,mD,20260303-112443,1.0.2,20251105-085338,782,Experiment,Both,1,Automatic,main,27,20260303-112809,local,local,300,H,H,A,A,A-H.png,A-H.png,hH,hH,mask-2.png,mask-1.png,h,1,1.505602299999964,s,0,0.4236740000001191,0.04994699999997465,0.0500981000000138,0.10011069999995925,0.10020970000005036,0.29811339999992015
RSVPLG03,mD,20260303-112443,1.0.2,20251105-085338,782,Experiment,Both,1,Automatic,main,28,20260303-112814,global,global,750,S,S,A,A,S-A.png,S-A.png,sS,sS,mask-2.png,mask-4.png,s,1,0.7493265999999039,s,1,0.3463738000000376,0.04946709999990162,0.05112100000019382,0.09902660000011565,0.10124180000002525,0.7486237999999048
RSVPLG03,mD,20260303-112443,1.0.2,20251105-085338,782,Experiment,Both,1,Automatic,main,29,20260303-112820,local,local,750,S,H,A,E,A-S.png,E-H.png,sS,hH,mask-1.png,mask-1.png,s,1,3.155320500000016,s,0,0.2889493999998649,0.05014409999989766,0.05014859999982946,0.0992890999998508,0.09930080000003727,0.750296599999956
RSVPLG03,mD,20260303-112443,1.0.2,20251105-085338,782,Experiment,Both,1,Automatic,main,30,20260303-112827,local,local,750,H,S,A,A,A-H.png,A-S.png,hH,sS,mask-4.png,mask-1.png,h,1,4.02901020000013,h,0,0.26674660000003314,0.050104400000009264,0.04990199999997458,0.0992717999999968,0.10009630000013203,0.749806499999977
RSVPLG03,mD,20260303-112443,1.0.2,20251105-085338,782,Experiment,Both,1,Automatic,main,31,20260303-112836,local,local,750,S,S,E,E,E-S.png,E-S.png,sS,sS,mask-4.png,mask-2.png,s,1,1.663824599999998,h,0,0.2583764000000883,0.04845569999997679,0.050174700000070516,0.09822460000009414,0.10052369999993971,0.7500210000000607
RSVPLG03,mD,20260303-112443,1.0.2,20251105-085338,782,Experiment,Both,1,Automatic,main,32,20260303-112842,local,global,750,H,H,E,A,E-H.png,H-A.png,hH,hH,mask-4.png,mask-1.png,h,1,1.9554791000000478,s,0,0.22356029999991733,0.050678399999924295,0.04814329999999245,0.09922740000001795,0.09826920000000428,0.7517152000000351
RSVPLG03,mD,20260303-112443,1.0.2,20251105-085338,782,Experiment,Both,1,Automatic,main,33,20260303-112848,global,global,300,S,S,A,A,S-A.png,S-A.png,sS,sS,mask-1.png,mask-2.png,s,1,1.0019973999999365,s,1,0.2630110000000059,0.049303299999792216,0.050123799999937546,0.09830779999992956,0.10023400000000038,0.29827559999989717
RSVPLG03,mD,20260303-112443,1.0.2,20251105-085338,782,Experiment,Both,1,Automatic,main,34,20260303-112853,global,local,750,H,S,E,E,H-E.png,E-S.png,hH,sS,mask-4.png,mask-2.png,h,1,0.7278120000000854,s,1,0.2979497999999694,0.05007230000001073,0.05112409999992451,0.10018070000000989,0.10027739999986807,0.7485827000000427
RSVPLG03,mD,20260303-112443,1.0.2,20251105-085338,782,Experiment,Both,1,Automatic,main,35,20260303-112858,local,local,300,H,S,A,A,A-H.png,A-S.png,hH,sS,mask-2.png,mask-2.png,h,1,1.348239299999932,s,1,0.20552520000001095,0.05011919999992642,0.05130840000015269,0.10038989999998194,0.10112390000017513,0.30080389999989166
RSVPLG03,mD,20260303-112443,1.0.2,20251105-085338,782,Experiment,Both,1,Automatic,main,36,20260303-112903,global,local,300,S,H,E,A,S-E.png,A-H.png,sS,hH,mask-3.png,mask-4.png,s,1,1.0577145999998265,h,1,0.1504019999999855,0.04901900000004389,0.050164300000005824,0.10007789999986016,0.10032770000020719,0.29989809999983663
RSVPLG03,mD,20260303-112443,1.0.2,20251105-085338,782,Experiment,Both,1,Automatic,main,37,20260303-112908,global,global,750,S,H,A,E,S-A.png,H-E.png,sS,hH,mask-3.png,mask-1.png,s,1,1.0956031000000621,h,1,0.45377189999999246,0.04809879999993427,0.049179300000105286,0.09824609999986933,0.0996191000001545,0.7491077999998197
RSVPLG03,mD,20260303-112443,1.0.2,20251105-085338,782,Experiment,Both,1,Automatic,main,38,20260303-112914,global,local,300,H,S,A,A,H-A.png,A-S.png,hH,sS,mask-4.png,mask-1.png,h,1,1.0266277000000628,h,0,0.26769500000000335,0.052197200000136945,0.051372700000001714,0.10235609999995177,0.09949589999996533,0.30142380000006597
RSVPLG03,mD,20260303-112443,1.0.2,20251105-085338,782,Experiment,Both,1,Automatic,main,39,20260303-112919,global,local,750,H,S,E,A,H-E.png,A-S.png,hH,sS,mask-3.png,mask-3.png,h,1,0.9592599000000064,h,0,0.3150130999999874,0.05135100000006787,0.05023909999999887,0.09991340000010496,0.10034889999997176,0.7494716000001063
RSVPLG03,mD,20260303-112443,1.0.2,20251105-085338,782,Experiment,Both,1,Automatic,main,40,20260303-112925,global,local,300,S,H,A,E,S-A.png,E-H.png,sS,hH,mask-1.png,mask-2.png,s,1,1.5314250999999786,h,1,0.3245183999999881,0.0498627999998007,0.050820600000179184,0.10002190000000155,0.10094380000009551,0.29911269999979595
RSVPLG03,mD,20260303-112443,1.0.2,20251105-085338,782,Experiment,Both,1,Automatic,main,41,20260303-112930,local,global,300,H,H,A,A,A-H.png,H-A.png,hH,hH,mask-3.png,mask-3.png,h,1,1.2981990000000678,s,0,0.21696940000015275,0.05050419999997757,0.04965390000006664,0.10053019999986645,0.09862580000003618,0.3001468999998451
RSVPLG03,mD,20260303-112443,1.0.2,20251105-085338,782,Experiment,Both,1,Automatic,main,42,20260303-112935,global,local,300,H,H,A,A,H-A.png,A-H.png,hH,hH,mask-2.png,mask-3.png,h,1,1.1576687000001584,h,1,0.32486900000003516,0.04874980000022333,0.04911709999987579,0.09853470000007292,0.10132980000003045,0.298779500000137
RSVPLG03,mD,20260303-112443,1.0.2,20251105-085338,782,Experiment,Both,1,Automatic,main,43,20260303-112941,local,global,300,H,H,A,E,A-H.png,H-E.png,hH,hH,mask-4.png,mask-1.png,h,1,2.604678599999943,s,0,0.517127900000105,0.05012110000006942,0.049060499999995955,0.10030200000005607,0.09942030000001978,0.3000179000000571
RSVPLG03,mD,20260303-112443,1.0.2,20251105-085338,782,Experiment,Both,1,Automatic,main,44,20260303-112947,global,global,750,S,S,E,A,S-E.png,S-A.png,sS,sS,mask-2.png,mask-4.png,s,1,0.7964816999999584,s,1,0.4786993000000166,0.050326699999914126,0.050107100000104765,0.0993069999999534,0.09956440000019029,0.7499734999998964
RSVPLG03,mD,20260303-112443,1.0.2,20251105-085338,782,Experiment,Both,1,Automatic,main,45,20260303-112953,local,local,300,S,H,A,E,A-S.png,E-H.png,sS,hH,mask-2.png,mask-4.png,h,0,2.592501000000084,s,0,0.8790762999999515,0.04957790000003115,0.050182100000029095,0.09928179999997155,0.09928899999999885,0.30029689999992115
RSVPLG03,mD,20260303-112443,1.0.2,20251105-085338,782,Experiment,Both,1,Automatic,main,46,20260303-113000,local,local,300,H,H,E,A,E-H.png,A-H.png,hH,hH,mask-2.png,mask-3.png,h,1,1.8367547000000286,h,1,0.3312993000001825,0.05012080000005881,0.05011079999985668,0.10027859999991051,0.10128159999999298,0.30024950000006356
RSVPLG03,mD,20260303-112443,1.0.2,20251105-085338,782,Experiment,Both,1,Automatic,main,47,20260303-113006,local,global,300,H,H,E,A,E-H.png,H-A.png,hH,hH,mask-1.png,mask-2.png,h,1,0.9620141000000331,s,0,0.25792840000008255,0.04794349999997394,0.04942490000007638,0.09801820000006956,0.10100420000003396,0.2981571000000258
RSVPLG03,mD,20260303-112443,1.0.2,20251105-085338,782,Experiment,Both,1,Automatic,main,48,20260303-113011,local,global,300,H,S,A,E,A-H.png,S-E.png,hH,sS,mask-1.png,mask-1.png,h,1,2.2684613000001264,s,1,1.387659499999927,0.050096899999971356,0.04931129999999939,0.10023439999986294,0.09896520000006603,0.30010249999986627
RSVPLG03,mD,20260303-112443,1.0.2,20251105-085338,782,Experiment,Both,1,Automatic,main,49,20260303-113018,global,local,750,H,S,E,A,H-E.png,A-S.png,hH,sS,mask-1.png,mask-4.png,h,1,0.9359722000001511,h,0,0.35534610000013345,0.048820199999909164,0.04974479999987125,0.09951839999985168,0.10007259999997586,0.7508768000000146
RSVPLG03,mD,20260303-112443,1.0.2,20251105-085338,782,Experiment,Both,1,Automatic,main,50,20260303-113024,local,local,750,H,S,A,A,A-H.png,A-S.png,hH,sS,mask-1.png,mask-3.png,h,1,1.5267469999998866,s,1,0.4346275999998852,0.049157400000012785,0.050184200000103374,0.09902420000003076,0.10036390000004758,0.7499729999999545
RSVPLG03,mD,20260303-112443,1.0.2,20251105-085338,782,Experiment,Both,1,Automatic,main,51,20260303-113046,local,global,750,S,S,E,E,E-S.png,S-E.png,sS,sS,mask-4.png,mask-2.png,s,1,1.3871109000001525,s,1,1.1583156000001509,0.049934800000073665,0.049170900000035545,0.10011039999994864,0.09964000000013584,0.7509794000000056
RSVPLG03,mD,20260303-112443,1.0.2,20251105-085338,782,Experiment,Both,1,Automatic,main,52,20260303-113053,local,global,750,S,H,E,E,E-S.png,H-E.png,sS,hH,mask-2.png,mask-2.png,s,1,1.342630999999983,h,1,0.417438200000106,0.04947800000013558,0.04932920000010199,0.09921620000000075,0.09926410000002761,0.750583000000006
RSVPLG03,mD,20260303-112443,1.0.2,20251105-085338,782,Experiment,Both,1,Automatic,main,53,20260303-113059,global,local,750,H,H,E,E,H-E.png,E-H.png,hH,hH,mask-2.png,mask-2.png,h,1,0.9056510000000344,h,1,0.38695350000011786,0.049172900000030495,0.04833180000014181,0.0992418999999245,0.09847950000016681,0.7505280999998831
RSVPLG03,mD,20260303-112443,1.0.2,20251105-085338,782,Experiment,Both,1,Automatic,main,54,20260303-113104,local,local,750,S,S,A,A,A-S.png,A-S.png,sS,sS,mask-2.png,mask-1.png,s,1,0.842329300000074,s,1,0.45534649999990506,0.05116249999991851,0.048957200000131706,0.1006620999999086,0.10004000000003543,0.7507092999999259
RSVPLG03,mD,20260303-112443,1.0.2,20251105-085338,782,Experiment,Both,1,Automatic,main,55,20260303-113110,local,global,300,H,S,A,E,A-H.png,S-E.png,hH,sS,mask-3.png,mask-4.png,h,1,0.5484008999999332,s,1,0.37221870000007584,0.05009390000009262,0.04968899999994392,0.10128000000008797,0.10185120000005554,0.29958609999994223
RSVPLG03,mD,20260303-112443,1.0.2,20251105-085338,782,Experiment,Both,1,Automatic,main,56,20260303-113115,global,global,300,S,H,E,E,S-E.png,H-E.png,sS,hH,mask-3.png,mask-1.png,s,1,1.3605700000000525,h,1,0.24694069999986823,0.05121669999994083,0.05011760000002141,0.1003390999999283,0.1002822999998898,0.30062709999992876
RSVPLG03,mD,20260303-112443,1.0.2,20251105-085338,782,Experiment,Both,1,Automatic,main,57,20260303-113120,global,global,300,H,H,E,E,H-E.png,H-E.png,hH,hH,mask-3.png,mask-1.png,h,1,0.47840789999986555,h,1,0.3082882999999583,0.048152300000083414,0.04914369999983137,0.09931720000008681,0.09927369999991242,0.29982220000010784
RSVPLG03,mD,20260303-112443,1.0.2,20251105-085338,782,Experiment,Both,1,Automatic,main,58,20260303-113124,local,global,300,S,H,E,E,E-S.png,H-E.png,sS,hH,mask-3.png,mask-2.png,s,1,1.1550858000000517,h,1,0.28262549999999464,0.05015640000010535,0.05112599999984013,0.10021640000013576,0.10127620000002935,0.2988007000001289
RSVPLG03,mD,20260303-112443,1.0.2,20251105-085338,782,Experiment,Both,1,Automatic,main,59,20260303-113129,global,global,300,S,H,E,E,S-E.png,H-E.png,sS,hH,mask-3.png,mask-1.png,s,1,0.48881520000009004,h,1,0.15515090000008058,0.05013669999993908,0.0506235000000288,0.10037560000000667,0.10081190000005336,0.29934449999996104
RSVPLG03,mD,20260303-112443,1.0.2,20251105-085338,782,Experiment,Both,1,Automatic,main,60,20260303-113134,local,local,750,H,S,A,E,A-H.png,E-S.png,hH,sS,mask-2.png,mask-4.png,h,1,0.6223543000000973,s,1,0.25985900000000584,0.04928549999999632,0.05012419999980011,0.10024499999985892,0.10024809999981699,0.7503182000000379
RSVPLG03,mD,20260303-112443,1.0.2,20251105-085338,782,Experiment,Both,1,Automatic,main,61,20260303-113139,global,global,300,S,S,A,E,S-A.png,S-E.png,sS,sS,mask-2.png,mask-1.png,s,1,1.0248097999999572,s,1,0.2918162000000848,0.049916599999960454,0.05012499999997999,0.09989550000000236,0.1003505999999561,0.30001659999993535
RSVPLG03,mD,20260303-112443,1.0.2,20251105-085338,782,Experiment,Both,1,Automatic,main,62,20260303-113144,local,global,300,H,S,E,E,E-H.png,S-E.png,hH,sS,mask-1.png,mask-2.png,h,1,0.4633884999998372,s,1,0.24297390000015184,0.04848289999995359,0.05011089999993601,0.09861730000011448,0.1013218999999026,0.2985934000000725
RSVPLG03,mD,20260303-112443,1.0.2,20251105-085338,782,Experiment,Both,1,Automatic,main,63,20260303-113148,global,local,750,H,S,E,A,H-E.png,A-S.png,hH,sS,mask-1.png,mask-4.png,h,1,0.6858331000000817,h,0,0.3936699000000772,0.05016309999996338,0.04990640000005442,0.09875260000012531,0.10004770000000462,0.7492150000000493
RSVPLG03,mD,20260303-112443,1.0.2,20251105-085338,782,Experiment,Both,1,Automatic,main,64,20260303-113154,global,global,750,S,H,E,A,S-E.png,H-A.png,sS,hH,mask-2.png,mask-3.png,s,1,0.4243298000001232,h,1,0.5692795999998452,0.050102599999945596,0.04912170000011429,0.09843129999990197,0.10026030000017272,0.7501384999998209
RSVPLG03,mD,20260303-112443,1.0.2,20251105-085338,782,Experiment,Both,1,Automatic,main,65,20260303-113159,local,local,300,H,H,E,E,E-H.png,E-H.png,hH,hH,mask-1.png,mask-2.png,h,1,0.7219887999999628,h,1,0.37621949999993376,0.050239599999940765,0.049278199999889694,0.10043199999995522,0.10009719999993649,0.30005260000007183
RSVPLG03,mD,20260303-112443,1.0.2,20251105-085338,782,Experiment,Both,1,Automatic,main,66,20260303-113204,global,global,750,S,S,A,E,S-A.png,S-E.png,sS,sS,mask-2.png,mask-4.png,s,1,0.5314657999999781,s,1,0.24767700000006698,0.04974210000000312,0.04900889999998981,0.09839959999999337,0.09802939999985938,0.7508272000000034
RSVPLG03,mD,20260303-112443,1.0.2,20251105-085338,782,Experiment,Both,1,Automatic,main,67,20260303-113209,local,local,750,H,S,E,A,E-H.png,A-S.png,hH,sS,mask-4.png,mask-1.png,h,1,1.7753489000001537,h,0,0.6268892000000506,0.0481260999999904,0.05010619999984556,0.09925329999987298,0.09918769999990218,0.7494741000000431
RSVPLG03,mD,20260303-112443,1.0.2,20251105-085338,782,Experiment,Both,1,Automatic,main,68,20260303-113215,local,global,300,S,S,E,A,E-S.png,S-A.png,sS,sS,mask-2.png,mask-3.png,s,1,0.9921695999998974,h,0,0.13857529999995677,0.049115700000129436,0.04814799999985553,0.0992685999999594,0.09937079999986054,0.30100450000009005
RSVPLG03,mD,20260303-112443,1.0.2,20251105-085338,782,Experiment,Both,1,Automatic,main,69,20260303-113220,global,global,750,S,H,E,E,S-E.png,H-E.png,sS,hH,mask-1.png,mask-1.png,s,1,0.6101088000000345,h,1,0.22673620000000483,0.051117000000203916,0.05028949999996257,0.10025190000010298,0.1014580000000933,0.7498158000000785
RSVPLG03,mD,20260303-112443,1.0.2,20251105-085338,782,Experiment,Both,1,Automatic,main,70,20260303-113225,local,local,300,H,S,E,E,E-H.png,E-S.png,hH,sS,mask-3.png,mask-2.png,h,1,0.9582857000000331,s,1,0.34610669999983656,0.05094750000012027,0.049198200000091674,0.10017059999995581,0.0993361000000732,0.3009316000000126
RSVPLG03,mD,20260303-112443,1.0.2,20251105-085338,782,Experiment,Both,1,Automatic,main,71,20260303-113230,local,global,750,S,S,E,E,E-S.png,S-E.png,sS,sS,mask-3.png,mask-2.png,s,1,0.5300559000002067,h,0,0.22662749999994958,0.05111769999984972,0.05011869999998453,0.0990783999998257,0.09907840000005308,0.7512947999998687
RSVPLG03,mD,20260303-112443,1.0.2,20251105-085338,782,Experiment,Both,1,Automatic,main,72,20260303-113235,local,local,300,H,S,E,A,E-H.png,A-S.png,hH,sS,mask-3.png,mask-2.png,h,1,0.49788170000010723,s,1,0.42706010000006245,0.049695900000187976,0.05012499999997999,0.09983000000011089,0.10126589999981661,0.2989063000002261
RSVPLG03,mD,20260303-112443,1.0.2,20251105-085338,782,Experiment,Both,1,Automatic,main,73,20260303-113240,global,global,750,H,S,A,E,H-A.png,S-E.png,hH,sS,mask-3.png,mask-1.png,h,1,0.7247041000000536,s,1,0.09857110000007197,0.04988679999996748,0.048991200000045865,0.09991140000011,0.10012890000007246,0.7495332000000872
RSVPLG03,mD,20260303-112443,1.0.2,20251105-085338,782,Experiment,Both,1,Automatic,main,74,20260303-113245,global,local,300,S,H,E,A,S-E.png,A-H.png,sS,hH,mask-1.png,mask-3.png,s,1,0.8220498999999108,h,1,0.12178409999978612,0.05012239999996382,0.04891500000007909,0.09829730000001291,0.1009563000000071,0.2985917999999401
RSVPLG03,mD,20260303-112443,1.0.2,20251105-085338,782,Experiment,Both,1,Automatic,main,75,20260303-113249,global,local,300,S,S,E,A,S-E.png,A-S.png,sS,sS,mask-3.png,mask-2.png,s,1,0.8836979000000156,h,0,0.5375222000000122,0.05050370000003568,0.05009339999992335,0.10073390000002291,0.1010223999999198,0.2992546000000402
RSVPLG03,mD,20260303-112443,1.0.2,20251105-085338,782,Experiment,Both,1,Automatic,main,76,20260303-113324,global,local,750,H,H,E,A,H-E.png,A-H.png,hH,hH,mask-3.png,mask-3.png,h,1,0.9243005999999241,h,1,0.5092979000000923,0.05013549999989664,0.049723800000037954,0.09910229999991316,0.0994660000001204,0.7497048999998697
RSVPLG03,mD,20260303-112443,1.0.2,20251105-085338,782,Experiment,Both,1,Automatic,main,77,20260303-113330,global,global,750,S,H,E,E,S-E.png,H-E.png,sS,hH,mask-2.png,mask-2.png,s,1,0.5405757999999423,h,1,0.32443949999992583,0.04842550000012125,0.05009670000004007,0.09856100000001788,0.10121449999996912,0.7486728000001222
RSVPLG03,mD,20260303-112443,1.0.2,20251105-085338,782,Experiment,Both,1,Automatic,main,78,20260303-113335,local,global,750,H,S,A,A,A-H.png,S-A.png,hH,sS,mask-3.png,mask-3.png,h,1,0.994897999999921,h,0,0.33721009999999296,0.04994079999983114,0.05087649999995847,0.10122079999996458,0.10012649999998757,0.7504134999999224
RSVPLG03,mD,20260303-112443,1.0.2,20251105-085338,782,Experiment,Both,1,Automatic,main,79,20260303-113341,local,local,750,S,H,A,A,A-S.png,A-H.png,sS,hH,mask-4.png,mask-3.png,s,1,0.898554699999977,h,1,0.25947999999993954,0.04889329999991787,0.04913519999990967,0.10001499999998487,0.09929799999986244,0.7500144000000546
RSVPLG03,mD,20260303-112443,1.0.2,20251105-085338,782,Experiment,Both,1,Automatic,main,80,20260303-113346,global,global,300,S,S,A,A,S-A.png,S-A.png,sS,sS,mask-4.png,mask-4.png,h,0,1.646461199999976,s,1,0.4203761000001123,0.05001880000008896,0.05015580000008413,0.09922869999991235,0.1002869000001283,0.29925759999991897
RSVPLG03,mD,20260303-112443,1.0.2,20251105-085338,782,Experiment,Both,1,Automatic,main,81,20260303-113352,global,global,300,H,S,A,A,H-A.png,S-A.png,hH,sS,mask-1.png,mask-1.png,h,1,0.7300599000000147,s,1,0.23462300000005598,0.05009960000006686,0.05010579999998299,0.1002270999999837,0.0992450999999619,0.30029289999993125
RSVPLG03,mD,20260303-112443,1.0.2,20251105-085338,782,Experiment,Both,1,Automatic,main,82,20260303-113356,global,local,300,H,S,A,A,H-A.png,A-S.png,hH,sS,mask-1.png,mask-2.png,h,1,0.5176604999999199,h,0,0.16466800000011972,0.05010979999997289,0.04881060000002435,0.09835789999988265,0.10086860000001252,0.29865099999983613
RSVPLG03,mD,20260303-112443,1.0.2,20251105-085338,782,Experiment,Both,1,Automatic,main,83,20260303-113401,local,global,750,S,S,E,E,E-S.png,S-E.png,sS,sS,mask-1.png,mask-3.png,h,0,2.116127400000096,h,0,0.12250469999980851,0.05014819999996689,0.04813049999984287,0.09843460000001869,0.0983314000000064,0.750214700000015
RSVPLG03,mD,20260303-112443,1.0.2,20251105-085338,782,Experiment,Both,1,Automatic,main,84,20260303-113407,global,local,750,S,H,A,A,S-A.png,A-H.png,sS,hH,mask-1.png,mask-3.png,s,1,0.6849557999998979,h,1,0.22042869999995673,0.04996979999987161,0.049758200000269426,0.10010529999999562,0.10160739999992074,0.7500276999999187
RSVPLG03,mD,20260303-112443,1.0.2,20251105-085338,782,Experiment,Both,1,Automatic,main,85,20260303-113412,local,local,300,H,S,E,A,E-H.png,A-S.png,hH,sS,mask-4.png,mask-2.png,h,1,0.4498971999996684,s,1,0.4979727000004459,0.04915080000000671,0.050123400000302354,0.1003486999998131,0.10026719999996203,0.3000061999996433
RSVPLG03,mD,20260303-112443,1.0.2,20251105-085338,782,Experiment,Both,1,Automatic,main,86,20260303-113417,global,local,300,S,H,E,E,S-E.png,E-H.png,sS,hH,mask-1.png,mask-3.png,s,1,0.6362454000000071,s,0,0.33739269999978205,0.049226999999973486,0.048108699999829696,0.09940200000028199,0.09827489999997852,0.3011510000001181
RSVPLG03,mD,20260303-112443,1.0.2,20251105-085338,782,Experiment,Both,1,Automatic,main,87,20260303-113422,local,global,300,S,S,A,E,A-S.png,S-E.png,sS,sS,mask-4.png,mask-1.png,s,1,1.3003177000000505,h,0,0.7974317000002884,0.049107899999853544,0.05012620000024981,0.09830409999995027,0.10026030000017272,0.298304399999779
RSVPLG03,mD,20260303-112443,1.0.2,20251105-085338,782,Experiment,Both,1,Automatic,main,88,20260303-113427,local,local,750,H,S,A,A,A-H.png,A-S.png,hH,sS,mask-1.png,mask-3.png,h,1,2.7127988000002006,s,1,0.358254400000078,0.04812909999964177,0.04811180000024251,0.09922289999985878,0.09826169999996637,0.7500066999996307
RSVPLG03,mD,20260303-112443,1.0.2,20251105-085338,782,Experiment,Both,1,Automatic,main,89,20260303-113435,global,global,300,S,H,A,E,S-A.png,H-E.png,sS,hH,mask-3.png,mask-3.png,s,1,1.229106999999658,s,0,0.17132600000013554,0.04879220000020723,0.05091020000008939,0.10000690000015311,0.1000570000001062,0.29899250000016764
RSVPLG03,mD,20260303-112443,1.0.2,20251105-085338,782,Experiment,Both,1,Automatic,main,90,20260303-113440,global,global,300,S,S,E,A,S-E.png,S-A.png,sS,sS,mask-1.png,mask-3.png,s,1,1.4720385000000533,h,0,0.09879640000008294,0.05016520000026503,0.05174529999976585,0.10029910000002928,0.10160169999971913,0.2989316000002873
RSVPLG03,mD,20260303-112443,1.0.2,20251105-085338,782,Experiment,Both,1,Automatic,main,91,20260303-113445,global,global,300,H,S,E,A,H-E.png,S-A.png,hH,sS,mask-2.png,mask-4.png,h,1,0.5795471999999791,s,1,0.13909609999973327,0.05080110000017157,0.05048450000003868,0.09995740000022124,0.09969169999976657,0.30030840000017633
RSVPLG03,mD,20260303-112443,1.0.2,20251105-085338,782,Experiment,Both,1,Automatic,main,92,20260303-113449,local,local,300,H,S,E,A,E-H.png,A-S.png,hH,sS,mask-2.png,mask-2.png,h,1,0.6900657999999567,s,1,0.19398309999996854,0.05013700000017707,0.050119700000323064,0.10008669999979247,0.1002507000002879,0.29962179999984073
RSVPLG03,mD,20260303-112443,1.0.2,20251105-085338,782,Experiment,Both,1,Automatic,main,93,20260303-113454,local,local,750,H,H,A,A,A-H.png,A-H.png,hH,hH,mask-2.png,mask-2.png,h,1,0.5866912000001321,h,1,0.27017209999985425,0.049252899999828514,0.04919709999967381,0.09954710000010891,0.09946969999964494,0.749863600000026
RSVPLG03,mD,20260303-112443,1.0.2,20251105-085338,782,Experiment,Both,1,Automatic,main,94,20260303-113459,global,local,750,H,H,A,E,H-A.png,E-H.png,hH,hH,mask-2.png,mask-4.png,h,1,1.2094959999999446,s,0,0.10108570000011241,0.05129269999997632,0.05012880000003861,0.10040320000007341,0.09936850000030972,0.7515832999997656
RSVPLG03,mD,20260303-112443,1.0.2,20251105-085338,782,Experiment,Both,1,Automatic,main,95,20260303-113505,global,global,750,H,S,A,E,H-A.png,S-E.png,hH,sS,mask-3.png,mask-4.png,h,1,4.119039100000009,s,1,0.019662400000015623,0.049271800000042276,0.050098199999865756,0.09945050000033007,0.09924389999969208,0.7506153000003906
RSVPLG03,mD,20260303-112443,1.0.2,20251105-085338,782,Experiment,Both,1,Automatic,main,96,20260303-113513,global,global,750,H,H,A,A,H-A.png,H-A.png,hH,hH,mask-2.png,mask-1.png,h,1,0.7273715999999695,h,1,0.4274510000000191,0.05144259999997303,0.0490737000000081,0.10111119999965013,0.10102520000009463,0.7512257999997018
RSVPLG03,mD,20260303-112443,1.0.2,20251105-085338,782,Experiment,Both,1,Automatic,main,97,20260303-113518,global,local,300,S,H,E,A,S-E.png,A-H.png,sS,hH,mask-2.png,mask-1.png,s,1,0.38326880000022356,h,1,0.19676879999997254,0.05120759999999791,0.051135400000021036,0.10133219999988796,0.1005976000001283,0.3013487999996869
RSVPLG03,mD,20260303-112443,1.0.2,20251105-085338,782,Experiment,Both,1,Automatic,main,98,20260303-113523,global,local,750,H,S,E,E,H-E.png,E-S.png,hH,sS,mask-2.png,mask-4.png,h,1,1.9687681000000339,s,1,0.4769527999997081,0.04993389999981446,0.04964539999991757,0.10007389999964289,0.10055759999977454,0.7493303999999625
RSVPLG03,mD,20260303-112443,1.0.2,20251105-085338,782,Experiment,Both,1,Automatic,main,99,20260303-113529,local,global,750,S,H,A,A,A-S.png,H-A.png,sS,hH,mask-2.png,mask-1.png,s,1,1.23975369999971,h,1,0.29938510000010865,0.04810889999998835,0.04891260000022157,0.09820779999972729,0.1002238999999463,0.7495995999997831
RSVPLG03,mD,20260303-112443,1.0.2,20251105-085338,782,Experiment,Both,1,Automatic,main,100,20260303-113535,local,global,750,H,H,A,A,A-H.png,H-A.png,hH,hH,mask-1.png,mask-2.png,h,1,0.7824147999999695,s,0,0.232282099999793,0.049919200000204,0.05214029999979175,0.09903500000018539,0.10136719999991328,0.749598600000354
RSVPLG03,MD,20260303-113718,1.0.2,20251105-085338,782,Experiment,Both,1,Automatic,warmup,1,20260303-113749,global,global,300,S,H,A,A,S-A.png,H-A.png,sS,hH,mask-1.png,mask-4.png,s,1,1.2148025000001326,h,1,0.23330459999988307,0.04449109999995926,0.04808080000020709,0.09660799999983283,0.09820220000028712,0.2967980999997053
RSVPLG03,MD,20260303-113718,1.0.2,20251105-085338,782,Experiment,Both,1,Automatic,warmup,2,20260303-113754,global,global,750,H,H,E,E,H-E.png,H-E.png,hH,hH,mask-1.png,mask-2.png,h,1,0.5168134999998983,h,1,0.2526599999996506,0.049815099999705126,0.04881329999989248,0.10151229999974021,0.09876859999985754,0.7513890000000174
RSVPLG03,MD,20260303-113718,1.0.2,20251105-085338,782,Experiment,Both,1,Automatic,warmup,3,20260303-113759,local,global,750,H,H,E,A,E-H.png,H-A.png,hH,hH,mask-1.png,mask-3.png,h,1,1.0642244999999093,h,1,0.12256230000002688,0.04981739999993806,0.05008479999969495,0.09799579999980779,0.10019519999968907,0.7494953000000351
RSVPLG03,MD,20260303-113718,1.0.2,20251105-085338,782,Experiment,Both,1,Automatic,warmup,4,20260303-113805,global,local,300,H,S,E,A,H-E.png,A-S.png,hH,sS,mask-1.png,mask-2.png,h,1,0.989434699999947,s,1,0.07260610000002998,0.04914599999983693,0.050111500000184606,0.09834399999999732,0.10023290000026464,0.2982896999997138
RSVPLG03,MD,20260303-113718,1.0.2,20251105-085338,782,Experiment,Both,1,Automatic,main,5,20260303-113809,local,local,750,S,H,E,E,E-S.png,E-H.png,sS,hH,mask-3.png,mask-2.png,s,1,0.5393573999999717,s,0,0.7652447000000393,0.05119060000015452,0.051142600000275706,0.1013028000002123,0.1010243000000628,0.7502558999999565
RSVPLG03,MD,20260303-113718,1.0.2,20251105-085338,782,Experiment,Both,1,Automatic,main,6,20260303-113815,local,global,300,H,H,E,A,E-H.png,H-A.png,hH,hH,mask-2.png,mask-3.png,h,1,1.057104900000013,h,1,0.738818899999842,0.05010940000011033,0.05008129999987432,0.10020620000022973,0.10020639999993364,0.30000520000021424
RSVPLG03,MD,20260303-113718,1.0.2,20251105-085338,782,Experiment,Both,1,Automatic,main,7,20260303-113820,local,global,750,H,H,E,E,E-H.png,H-E.png,hH,hH,mask-4.png,mask-1.png,h,1,0.7997301000000334,h,1,0.21399819999987812,0.04924689999961629,0.05018359999985478,0.099410099999659,0.10128850000000966,0.7493721999999252
RSVPLG03,MD,20260303-113718,1.0.2,20251105-085338,782,Experiment,Both,1,Automatic,main,8,20260303-113825,local,global,300,H,H,A,A,A-H.png,H-A.png,hH,hH,mask-2.png,mask-1.png,h,1,0.5395555000000058,s,0,0.13304270000026008,0.048901500000283704,0.05010530000026847,0.10006740000017089,0.09869449999996505,0.30001640000000407
RSVPLG03,MD,20260303-113718,1.0.2,20251105-085338,782,Experiment,Both,1,Automatic,main,9,20260303-113830,global,global,300,H,H,A,A,H-A.png,H-A.png,hH,hH,mask-2.png,mask-1.png,h,1,0.43312050000031377,h,1,0.13075889999981882,0.05014970000001995,0.05034089999981006,0.10024870000006558,0.09917469999982131,0.30015400000002046
RSVPLG03,MD,20260303-113718,1.0.2,20251105-085338,782,Experiment,Both,1,Automatic,main,10,20260303-113834,local,local,750,H,H,E,A,E-H.png,A-H.png,hH,hH,mask-2.png,mask-3.png,h,1,0.3839302999999745,h,1,0.13457900000003065,0.04811100000006263,0.050834799999847746,0.10004750000007334,0.09973919999993086,0.7484815000002527
RSVPLG03,MD,20260303-113718,1.0.2,20251105-085338,782,Experiment,Both,1,Automatic,main,11,20260303-113839,local,local,300,S,S,A,A,A-S.png,A-S.png,sS,sS,mask-1.png,mask-3.png,s,1,0.6078008999998019,h,0,0.2594497999998566,0.04815840000037497,0.05092549999972107,0.09737530000029437,0.0991332999997212,0.29869040000039604
RSVPLG03,MD,20260303-113718,1.0.2,20251105-085338,782,Experiment,Both,1,Automatic,main,12,20260303-113843,local,local,750,H,S,A,E,A-H.png,E-S.png,hH,sS,mask-4.png,mask-3.png,h,1,1.240964100000383,h,0,0.237419200000204,0.05012360000000626,0.05009729999983392,0.09824710000020787,0.10020579999991241,0.7486197000002903
RSVPLG03,MD,20260303-113718,1.0.2,20251105-085338,782,Experiment,Both,1,Automatic,main,13,20260303-113849,local,global,300,H,H,E,E,E-H.png,H-E.png,hH,hH,mask-2.png,mask-2.png,h,1,1.265441600000031,s,0,0.06305509999992864,0.04911930000025677,0.05031439999993381,0.09964170000012018,0.10020080000003873,0.30020120000017414
RSVPLG03,MD,20260303-113718,1.0.2,20251105-085338,782,Experiment,Both,1,Automatic,main,14,20260303-113854,global,local,300,S,H,A,A,S-A.png,A-H.png,sS,hH,mask-4.png,mask-2.png,s,1,0.3598352000003615,h,1,0.18051880000029996,0.050122600000122475,0.05011349999995218,0.10019910000028176,0.0999535000000833,0.2999853000001167
RSVPLG03,MD,20260303-113718,1.0.2,20251105-085338,782,Experiment,Both,1,Automatic,main,15,20260303-113858,local,local,300,H,S,E,E,E-H.png,E-S.png,hH,sS,mask-1.png,mask-2.png,h,1,0.5588018000003103,s,1,0.06963560000031066,0.04899990000012622,0.04974080000010872,0.09886020000021745,0.10089730000026975,0.2983985999999277
RSVPLG03,MD,20260303-113718,1.0.2,20251105-085338,782,Experiment,Both,1,Automatic,main,16,20260303-113903,global,local,300,S,S,E,A,S-E.png,A-S.png,sS,sS,mask-1.png,mask-2.png,s,1,0.9065909000000829,h,0,0.3383263000000625,0.048122000000148546,0.04998340000020107,0.09825279999995473,0.09995969999999943,0.298140500000045
RSVPLG03,MD,20260303-113718,1.0.2,20251105-085338,782,Experiment,Both,1,Automatic,main,17,20260303-113908,local,global,300,H,H,E,A,E-H.png,H-A.png,hH,hH,mask-4.png,mask-4.png,s,0,0.7250269000001026,h,1,0.2932405999999901,0.05012830000032409,0.05011640000020634,0.09989570000016101,0.09823289999985718,0.30052650000016
RSVPLG03,MD,20260303-113718,1.0.2,20251105-085338,782,Experiment,Both,1,Automatic,main,18,20260303-113912,global,global,300,S,H,A,E,S-A.png,H-E.png,sS,hH,mask-1.png,mask-4.png,s,1,0.4157191999997849,h,1,0.14059099999985847,0.05175889999964056,0.04989449999993667,0.09988119999979972,0.10001120000015362,0.2998429999997825
RSVPLG03,MD,20260303-113718,1.0.2,20251105-085338,782,Experiment,Both,1,Automatic,main,19,20260303-113917,global,local,750,H,H,A,A,H-A.png,A-H.png,hH,hH,mask-4.png,mask-3.png,h,1,0.3110215000001517,h,1,0.2153177999998661,0.05110489999970014,0.05007880000039222,0.10121849999995902,0.10100899999997637,0.7497077999996691
RSVPLG03,MD,20260303-113718,1.0.2,20251105-085338,782,Experiment,Both,1,Automatic,main,20,20260303-113921,global,local,750,H,H,A,E,H-A.png,E-H.png,hH,hH,mask-3.png,mask-1.png,h,1,0.4241455000001224,h,1,0.5640235999999277,0.04998879999993733,0.050141700000040146,0.09995849999995698,0.10030000000006112,0.749844899999971
RSVPLG03,MD,20260303-113718,1.0.2,20251105-085338,782,Experiment,Both,1,Automatic,main,21,20260303-113926,local,global,750,H,H,A,A,A-H.png,H-A.png,hH,hH,mask-1.png,mask-3.png,h,1,0.44353940000019065,h,1,0.16614920000029088,0.050119700000323064,0.04992769999989832,0.10025249999989683,0.10007059999998091,0.7498459000003095
RSVPLG03,MD,20260303-113718,1.0.2,20251105-085338,782,Experiment,Both,1,Automatic,main,22,20260303-113931,global,global,750,H,S,A,A,H-A.png,S-A.png,hH,sS,mask-4.png,mask-4.png,h,1,0.5555500000000393,s,1,0.558462899999995,0.050144299999828945,0.050111500000184606,0.10026740000012069,0.10022509999998874,0.7498630999998568
RSVPLG03,MD,20260303-113718,1.0.2,20251105-085338,782,Experiment,Both,1,Automatic,main,23,20260303-113936,local,global,300,H,H,E,E,E-H.png,H-E.png,hH,hH,mask-3.png,mask-4.png,h,1,0.6672601000000213,s,0,0.3493076999998266,0.0500993999999082,0.04909320000024309,0.10019269999975222,0.09965570000031221,0.3000098999996226
RSVPLG03,MD,20260303-113718,1.0.2,20251105-085338,782,Experiment,Both,1,Automatic,main,24,20260303-113941,global,local,300,H,H,A,E,H-A.png,E-H.png,hH,hH,mask-3.png,mask-2.png,h,1,0.4919622000002164,h,1,0.2826426999999967,0.05107799999996132,0.050942099999701895,0.10117229999968913,0.10086210000008577,0.3002860999999939
RSVPLG03,MD,20260303-113718,1.0.2,20251105-085338,782,Experiment,Both,1,Automatic,main,25,20260303-113946,local,global,750,H,H,A,E,A-H.png,H-E.png,hH,hH,mask-1.png,mask-1.png,h,1,0.48342749999983425,h,1,0.15283520000002682,0.051170599999750266,0.049899099999947794,0.10027719999970941,0.10004070000013598,0.7504249999997228
RSVPLG03,MD,20260303-113718,1.0.2,20251105-085338,782,Experiment,Both,1,Automatic,main,26,20260303-114001,global,global,300,H,S,A,A,H-A.png,S-A.png,hH,sS,mask-4.png,mask-2.png,h,1,0.738960500000303,h,0,0.2531467999997403,0.050137500000346336,0.04815680000001521,0.10022470000012618,0.09942700000010518,0.30039450000003853
RSVPLG03,MD,20260303-113718,1.0.2,20251105-085338,782,Experiment,Both,1,Automatic,main,27,20260303-114005,local,global,300,S,H,A,E,A-S.png,H-E.png,sS,hH,mask-4.png,mask-2.png,h,0,0.9704335000001265,s,0,0.04291139999986626,0.049999100000150065,0.051025400000071386,0.09999870000001465,0.09978369999998904,0.2993409000000611
RSVPLG03,MD,20260303-113718,1.0.2,20251105-085338,782,Experiment,Both,1,Automatic,main,28,20260303-114010,local,local,750,H,S,E,E,E-H.png,E-S.png,hH,sS,mask-2.png,mask-1.png,h,1,0.6909535999998297,s,1,0.24722620000011375,0.0500873999999385,0.05023479999999836,0.10020480000002863,0.10097750000022643,0.7478578999998717
RSVPLG03,MD,20260303-113718,1.0.2,20251105-085338,782,Experiment,Both,1,Automatic,main,29,20260303-114015,global,local,300,H,S,A,A,H-A.png,A-S.png,hH,sS,mask-2.png,mask-2.png,h,1,0.5212949000001572,h,0,0.18648650000022826,0.050086600000213366,0.04917639999985113,0.0999562000001788,0.09951599999976679,0.3009890000002997
RSVPLG03,MD,20260303-113718,1.0.2,20251105-085338,782,Experiment,Both,1,Automatic,main,30,20260303-114020,global,local,300,S,H,E,A,S-E.png,A-H.png,sS,hH,mask-3.png,mask-3.png,s,1,0.7035863000000973,s,0,0.09827230000018972,0.048233299999992596,0.05007720000003246,0.09941140000000814,0.10002949999989141,0.29834489999984726
RSVPLG03,MD,20260303-113718,1.0.2,20251105-085338,782,Experiment,Both,1,Automatic,main,31,20260303-114024,local,local,300,S,S,A,E,A-S.png,E-S.png,sS,sS,mask-3.png,mask-1.png,s,1,1.454960800000208,s,1,0.2904469000000063,0.04995280000002822,0.05008399999996982,0.10008180000022548,0.10020929999973305,0.3000374000002921
RSVPLG03,MD,20260303-113718,1.0.2,20251105-085338,782,Experiment,Both,1,Automatic,main,32,20260303-114030,global,local,750,S,H,A,A,S-A.png,A-H.png,sS,hH,mask-3.png,mask-3.png,s,1,0.5772500999996737,h,1,0.11464900000009948,0.04993740000008984,0.050151699999787525,0.09989720000021407,0.10026310000012018,0.7494148000000678
RSVPLG03,MD,20260303-113718,1.0.2,20251105-085338,782,Experiment,Both,1,Automatic,main,33,20260303-114035,global,global,750,H,S,A,A,H-A.png,S-A.png,hH,sS,mask-2.png,mask-3.png,h,1,0.5318037000001823,s,1,0.1455707000000075,0.050077800000053685,0.04966930000000502,0.10019599999986895,0.09970400000020163,0.7487120000000687
RSVPLG03,MD,20260303-113718,1.0.2,20251105-085338,782,Experiment,Both,1,Automatic,main,34,20260303-114039,global,local,300,S,H,A,E,S-A.png,E-H.png,sS,hH,mask-1.png,mask-2.png,s,1,0.8493285999998079,h,1,0.2910338000001502,0.04910870000003342,0.050110700000004726,0.10036300000001575,0.0998196000000462,0.3000250000000051
RSVPLG03,MD,20260303-113718,1.0.2,20251105-085338,782,Experiment,Both,1,Automatic,main,35,20260303-114044,global,global,750,S,S,A,E,S-A.png,S-E.png,sS,sS,mask-4.png,mask-1.png,s,1,0.7174334999999701,s,1,0.48512060000030033,0.050050999999712076,0.04812679999986358,0.09917769999992743,0.09825039999986984,0.7497134000000187
RSVPLG03,MD,20260303-113718,1.0.2,20251105-085338,782,Experiment,Both,1,Automatic,main,36,20260303-114050,local,local,300,H,S,E,A,E-H.png,A-S.png,hH,sS,mask-4.png,mask-2.png,s,0,0.6165187000001424,h,0,0.14602530000001934,0.05007770000020173,0.050081000000318454,0.10021640000013576,0.10020010000016555,0.29993289999993067
RSVPLG03,MD,20260303-113718,1.0.2,20251105-085338,782,Experiment,Both,1,Automatic,main,37,20260303-114054,global,global,300,H,S,A,E,H-A.png,S-E.png,hH,sS,mask-3.png,mask-2.png,h,1,0.4797700999997687,s,1,0.14138339999999516,0.05010680000032153,0.05100339999989956,0.1002333000001272,0.09910320000017236,0.30015980000007403
RSVPLG03,MD,20260303-113718,1.0.2,20251105-085338,782,Experiment,Both,1,Automatic,main,38,20260303-114058,local,local,750,S,S,E,A,E-S.png,A-S.png,sS,sS,mask-3.png,mask-2.png,h,0,1.0672884000000522,h,0,2.1636384999997063,0.05010979999997289,0.05085019999978613,0.1002146000000721,0.10071639999978288,0.7488432000000103
RSVPLG03,MD,20260303-113718,1.0.2,20251105-085338,782,Experiment,Both,1,Automatic,main,39,20260303-114106,local,local,750,H,H,E,E,E-H.png,E-H.png,hH,hH,mask-3.png,mask-1.png,h,1,0.7801411000000371,s,0,0.326455000000351,0.04892999999992753,0.05110839999997552,0.09810569999990548,0.10023309999996854,0.7481457999997474
RSVPLG03,MD,20260303-113718,1.0.2,20251105-085338,782,Experiment,Both,1,Automatic,main,40,20260303-114111,global,global,300,H,S,A,A,H-A.png,S-A.png,hH,sS,mask-3.png,mask-4.png,h,1,0.58397930000001,s,1,0.15679170000021259,0.049853299999995215,0.04987909999999829,0.09998379999979079,0.09999470000002475,0.29981099999986327
RSVPLG03,MD,20260303-113718,1.0.2,20251105-085338,782,Experiment,Both,1,Automatic,main,41,20260303-114116,local,local,750,H,H,E,A,E-H.png,A-H.png,hH,hH,mask-2.png,mask-2.png,h,1,0.5157388000002356,h,1,0.4653281999999308,0.050091600000087055,0.05013090000011289,0.09843390000014551,0.10023790000013832,0.7496412999998938
RSVPLG03,MD,20260303-113718,1.0.2,20251105-085338,782,Experiment,Both,1,Automatic,main,42,20260303-114121,global,global,300,S,H,E,A,S-E.png,H-A.png,sS,hH,mask-1.png,mask-1.png,s,1,0.5808208999997078,h,1,0.39344519999986005,0.04968089999965741,0.049961400000029244,0.0996117999998205,0.09992949999968914,0.3001509000000624
RSVPLG03,MD,20260303-113718,1.0.2,20251105-085338,782,Experiment,Both,1,Automatic,main,43,20260303-114126,global,global,750,H,H,E,A,H-E.png,H-A.png,hH,hH,mask-1.png,mask-2.png,h,1,0.6737576999998964,h,1,0.6031636000002436,0.04809309999973266,0.05010840000022654,0.09811249999984284,0.09922039999992194,0.7486132999997608
RSVPLG03,MD,20260303-113718,1.0.2,20251105-085338,782,Experiment,Both,1,Automatic,main,44,20260303-114131,local,global,750,S,H,A,E,A-S.png,H-E.png,sS,hH,mask-3.png,mask-2.png,s,1,0.936780699999872,h,1,0.37629310000011174,0.05012560000022859,0.050104600000395294,0.10027910000007978,0.10018400000035399,0.7495469999998932
RSVPLG03,MD,20260303-113718,1.0.2,20251105-085338,782,Experiment,Both,1,Automatic,main,45,20260303-114136,local,global,750,H,H,E,A,E-H.png,H-A.png,hH,hH,mask-2.png,mask-1.png,h,1,0.7320612000003166,s,0,0.3649381000000176,0.048085400000218215,0.04886259999966569,0.09727920000023005,0.09997709999970539,0.7482951000001776
RSVPLG03,MD,20260303-113718,1.0.2,20251105-085338,782,Experiment,Both,1,Automatic,main,46,20260303-114142,local,local,750,H,H,E,A,E-H.png,A-H.png,hH,hH,mask-3.png,mask-4.png,h,1,0.8837423999998464,s,0,0.3566896999996061,0.05118330000004789,0.05056159999958254,0.10230730000012045,0.099139699999796,0.7509022000003824
RSVPLG03,MD,20260303-113718,1.0.2,20251105-085338,782,Experiment,Both,1,Automatic,main,47,20260303-114147,local,local,300,H,H,E,A,E-H.png,A-H.png,hH,hH,mask-1.png,mask-1.png,h,1,1.057808600000044,h,1,0.5116148000001886,0.05009639999980209,0.0501245000000381,0.10019920000013371,0.09916130000010526,0.2997507999998561
RSVPLG03,MD,20260303-113718,1.0.2,20251105-085338,782,Experiment,Both,1,Automatic,main,48,20260303-114152,local,local,750,H,H,E,A,E-H.png,A-H.png,hH,hH,mask-2.png,mask-2.png,h,1,0.5260109000000739,h,1,0.37942549999979747,0.048099899999670015,0.05009739999968588,0.09822469999971872,0.10018730000001597,0.7485222000000249
RSVPLG03,MD,20260303-113718,1.0.2,20251105-085338,782,Experiment,Both,1,Automatic,main,49,20260303-114158,global,global,750,S,S,A,A,S-A.png,S-A.png,sS,sS,mask-1.png,mask-3.png,s,1,1.1589355999999498,s,1,0.3726505000004181,0.048725800000283925,0.04943709999997736,0.09868070000038642,0.09952580000026501,0.7489427000000433
RSVPLG03,MD,20260303-113718,1.0.2,20251105-085338,782,Experiment,Both,1,Automatic,main,50,20260303-114203,global,local,300,S,H,A,E,S-A.png,E-H.png,sS,hH,mask-1.png,mask-4.png,s,1,0.3685664999998153,s,0,0.4831648000003952,0.048096500000156084,0.05049189999999726,0.09887519999983851,0.10045489999993151,0.2981969000002209
RSVPLG03,MD,20260303-113718,1.0.2,20251105-085338,782,Experiment,Both,1,Automatic,main,51,20260303-114210,global,global,300,S,H,E,A,S-E.png,H-A.png,sS,hH,mask-3.png,mask-2.png,s,1,0.7689493999996557,h,1,0.29822310000008656,0.05010889999994106,0.04788329999973939,0.09908749999976862,0.10057959999994637,0.29997769999999946
RSVPLG03,MD,20260303-113718,1.0.2,20251105-085338,782,Experiment,Both,1,Automatic,main,52,20260303-114215,local,local,300,S,S,E,A,E-S.png,A-S.png,sS,sS,mask-4.png,mask-4.png,s,1,0.6129587000000356,s,1,0.3298456000002261,0.04919950000021345,0.05014369999980772,0.10049210000033781,0.10029099999974278,0.2995152000003145
RSVPLG03,MD,20260303-113718,1.0.2,20251105-085338,782,Experiment,Both,1,Automatic,main,53,20260303-114220,global,global,750,S,S,E,A,S-E.png,S-A.png,sS,sS,mask-3.png,mask-4.png,s,1,0.516070000000127,s,1,0.31527299999970637,0.05010579999998299,0.05010730000003605,0.10008950000019468,0.09955619999982446,0.7496120000000701
RSVPLG03,MD,20260303-113718,1.0.2,20251105-085338,782,Experiment,Both,1,Automatic,main,54,20260303-114225,local,global,750,S,H,A,E,A-S.png,H-E.png,sS,hH,mask-2.png,mask-3.png,s,1,0.6846034999998665,h,1,0.30572140000003856,0.04958329999999478,0.05055910000010044,0.09839950000014142,0.10070580000001428,0.7487904999998136
RSVPLG03,MD,20260303-113718,1.0.2,20251105-085338,782,Experiment,Both,1,Automatic,main,55,20260303-114230,local,global,750,S,H,E,A,E-S.png,H-A.png,sS,hH,mask-1.png,mask-3.png,h,0,1.230757000000267,h,1,0.1722858000002816,0.04826909999974305,0.05084190000025046,0.09734149999985675,0.09924339999997756,0.7484280999997281
RSVPLG03,MD,20260303-113718,1.0.2,20251105-085338,782,Experiment,Both,1,Automatic,main,56,20260303-114235,global,global,750,S,H,E,A,S-E.png,H-A.png,sS,hH,mask-4.png,mask-3.png,s,1,0.5477902999996331,h,1,0.14619309999989127,0.050092599999970844,0.04977950000011333,0.10020900000017718,0.09895550000010189,0.749652900000001
RSVPLG03,MD,20260303-113718,1.0.2,20251105-085338,782,Experiment,Both,1,Automatic,main,57,20260303-114240,local,global,300,S,S,E,A,E-S.png,S-A.png,sS,sS,mask-4.png,mask-3.png,s,1,1.2787546999998085,h,0,0.1972078000003421,0.04912289999992936,0.050728799999888,0.09899260000020149,0.10053090000019438,0.2982179000000542
RSVPLG03,MD,20260303-113718,1.0.2,20251105-085338,782,Experiment,Both,1,Automatic,main,58,20260303-114245,global,global,750,S,H,A,A,S-A.png,H-A.png,sS,hH,mask-2.png,mask-1.png,s,1,0.5623854000000392,h,1,0.17665209999995568,0.05119009999998525,0.050106899999718735,0.09930130000020654,0.10026289999996152,0.7504864000002271
RSVPLG03,MD,20260303-113718,1.0.2,20251105-085338,782,Experiment,Both,1,Automatic,main,59,20260303-114250,global,local,750,S,H,A,A,S-A.png,A-H.png,sS,hH,mask-3.png,mask-3.png,s,1,1.2002098000002661,h,1,0.12461350000012317,0.04893710000033025,0.05009369999970659,0.10004310000022087,0.10022039999967092,0.7498265000003812
RSVPLG03,MD,20260303-113718,1.0.2,20251105-085338,782,Experiment,Both,1,Automatic,main,60,20260303-114256,global,local,300,S,H,A,E,S-A.png,E-H.png,sS,hH,mask-3.png,mask-1.png,s,1,0.9154536999999436,s,0,0.25064330000031987,0.04997529999991457,0.05095870000013747,0.10009119999995164,0.10109460000012405,0.2987956000001759
RSVPLG03,MD,20260303-113718,1.0.2,20251105-085338,782,Experiment,Both,1,Automatic,main,61,20260303-114301,global,local,750,S,S,E,A,S-E.png,A-S.png,sS,sS,mask-3.png,mask-1.png,s,1,0.7313856000000669,h,0,0.18906139999990046,0.04893919999994978,0.04992489999995087,0.09890889999996944,0.09990109999989727,0.7488084999999955
RSVPLG03,MD,20260303-113718,1.0.2,20251105-085338,782,Experiment,Both,1,Automatic,main,62,20260303-114306,local,local,300,S,S,A,A,A-S.png,A-S.png,sS,sS,mask-3.png,mask-1.png,s,1,0.7439870000002884,h,0,0.37198250000028565,0.050116300000354386,0.05110100000001694,0.09916969999994762,0.10024040000007517,0.29971290000003137
RSVPLG03,MD,20260303-113718,1.0.2,20251105-085338,782,Experiment,Both,1,Automatic,main,63,20260303-114310,local,global,750,H,S,A,E,A-H.png,S-E.png,hH,sS,mask-1.png,mask-1.png,h,1,1.046119699999963,s,1,0.6933118000001741,0.05008829999997033,0.05013890000009269,0.10017809999999372,0.10030689999985043,0.7487240000000384
RSVPLG03,MD,20260303-113718,1.0.2,20251105-085338,782,Experiment,Both,1,Automatic,main,64,20260303-114316,global,global,750,H,S,A,E,H-A.png,S-E.png,hH,sS,mask-1.png,mask-3.png,h,1,0.7876234000000295,s,1,0.2508692000001247,0.04913089999990916,0.05074629999990066,0.09997969999994893,0.10191720000011628,0.7481065000001763
RSVPLG03,MD,20260303-113718,1.0.2,20251105-085338,782,Experiment,Both,1,Automatic,main,65,20260303-114322,local,global,300,H,H,E,E,E-H.png,H-E.png,hH,hH,mask-1.png,mask-3.png,h,1,0.8253866000000016,h,1,0.3543056000003162,0.05010530000026847,0.050006699999812554,0.10022020000042176,0.10014229999978852,0.30019830000037473
RSVPLG03,MD,20260303-113718,1.0.2,20251105-085338,782,Experiment,Both,1,Automatic,main,66,20260303-114326,global,local,750,S,H,A,E,S-A.png,E-H.png,sS,hH,mask-2.png,mask-3.png,s,1,0.72027240000034,s,0,0.2827800000000025,0.0500886999998329,0.05013299999973242,0.09919100000024628,0.09911099999999351,0.7498175000000629
RSVPLG03,MD,20260303-113718,1.0.2,20251105-085338,782,Experiment,Both,1,Automatic,main,67,20260303-114332,local,local,750,H,S,A,A,A-H.png,A-S.png,hH,sS,mask-2.png,mask-2.png,h,1,0.640323200000239,s,1,0.22600899999997637,0.050866699999915,0.049040700000205106,0.10176759999967544,0.09999999999990905,0.7511873999997078
RSVPLG03,MD,20260303-113718,1.0.2,20251105-085338,782,Experiment,Both,1,Automatic,main,68,20260303-114337,local,global,300,S,S,A,A,A-S.png,S-A.png,sS,sS,mask-3.png,mask-4.png,s,1,0.7460717000003569,h,0,0.1932864000000336,0.0501365000000078,0.0481326999997691,0.09826220000013564,0.0992695999998432,0.30008130000032907
RSVPLG03,MD,20260303-113718,1.0.2,20251105-085338,782,Experiment,Both,1,Automatic,main,69,20260303-114341,local,global,750,H,H,A,E,A-H.png,H-E.png,hH,hH,mask-1.png,mask-2.png,s,0,0.9574514999999337,h,1,0.26249120000011317,0.05009470000004512,0.05011469999999463,0.09923350000008213,0.09906150000006164,0.7498519999999189
RSVPLG03,MD,20260303-113718,1.0.2,20251105-085338,782,Experiment,Both,1,Automatic,main,70,20260303-114347,local,global,750,H,H,A,E,A-H.png,H-E.png,hH,hH,mask-3.png,mask-1.png,h,1,0.9718846000000667,h,1,0.2846697999998469,0.05096949999960998,0.051268200000322395,0.10092489999988175,0.10131570000021384,0.749536999999691
RSVPLG03,MD,20260303-113718,1.0.2,20251105-085338,782,Experiment,Both,1,Automatic,main,71,20260303-114352,global,local,750,S,S,A,E,S-A.png,E-S.png,sS,sS,mask-3.png,mask-1.png,s,1,0.9824647999998888,h,0,0.2513844000000063,0.05009490000020378,0.0519469000000754,0.100202900000113,0.10104009999986374,0.7494826000001922
RSVPLG03,MD,20260303-113718,1.0.2,20251105-085338,782,Experiment,Both,1,Automatic,main,72,20260303-114358,global,global,300,H,H,A,E,H-A.png,H-E.png,hH,hH,mask-4.png,mask-4.png,h,1,0.9674119000001156,h,1,0.15023070000006555,0.04896169999983613,0.050953299999946466,0.09946369999988747,0.0990404000003764,0.29928149999977904
RSVPLG03,MD,20260303-113718,1.0.2,20251105-085338,782,Experiment,Both,1,Automatic,main,73,20260303-114402,global,local,300,S,S,A,E,S-A.png,E-S.png,sS,sS,mask-2.png,mask-3.png,s,1,1.45020360000035,h,0,0.1501469999998335,0.04948910000030082,0.04948480000030031,0.0999946000001728,0.09813970000004701,0.2998336000000563
RSVPLG03,MD,20260303-113718,1.0.2,20251105-085338,782,Experiment,Both,1,Automatic,main,74,20260303-114408,global,local,300,H,H,A,E,H-A.png,E-H.png,hH,hH,mask-2.png,mask-4.png,h,1,0.7354348000003483,s,0,0.0973626999998487,0.0497509000001628,0.048050599999896804,0.09952059999977791,0.0986508999999387,0.30108389999986684
RSVPLG03,MD,20260303-113718,1.0.2,20251105-085338,782,Experiment,Both,1,Automatic,main,75,20260303-114412,global,global,300,S,H,A,A,S-A.png,H-A.png,sS,hH,mask-4.png,mask-3.png,s,1,0.6645493999999417,h,1,0.18968070000028092,0.04899639999985084,0.04890750000004118,0.09901339999987613,0.099988200000098,0.2996256999999787
RSVPLG03,MD,20260303-113718,1.0.2,20251105-085338,782,Experiment,Both,1,Automatic,main,76,20260303-114425,global,global,300,S,S,E,E,S-E.png,S-E.png,sS,sS,mask-3.png,mask-2.png,h,0,0.9250428999998803,s,1,0.18607159999965006,0.051248499999928754,0.049072099999648344,0.10037340000008044,0.10028160000001662,0.30009500000005573
RSVPLG03,MD,20260303-113718,1.0.2,20251105-085338,782,Experiment,Both,1,Automatic,main,77,20260303-114430,global,global,750,H,H,E,A,H-E.png,H-A.png,hH,hH,mask-1.png,mask-3.png,h,1,0.4839344000001802,h,1,0.4188094999999521,0.05009879999988698,0.050084699999842996,0.10024599999997008,0.1002161999999771,0.7498943000000509
RSVPLG03,MD,20260303-113718,1.0.2,20251105-085338,782,Experiment,Both,1,Automatic,main,78,20260303-114435,global,global,300,H,H,E,A,H-E.png,H-A.png,hH,hH,mask-2.png,mask-1.png,h,1,0.6629846999999245,h,1,0.3070527999998376,0.04950189999999566,0.049721800000043004,0.10067620000017996,0.10085919999983162,0.2996845000002395
RSVPLG03,MD,20260303-113718,1.0.2,20251105-085338,782,Experiment,Both,1,Automatic,main,79,20260303-114439,local,global,300,S,H,E,E,E-S.png,H-E.png,sS,hH,mask-1.png,mask-1.png,s,1,0.41925179999998363,s,0,0.2730719000001045,0.050089399999706075,0.049116400000002614,0.10019650000003821,0.10028620000002775,0.29991219999965324
RSVPLG03,MD,20260303-113718,1.0.2,20251105-085338,782,Experiment,Both,1,Automatic,main,80,20260303-114444,local,local,300,H,S,E,A,E-H.png,A-S.png,hH,sS,mask-1.png,mask-3.png,h,1,0.9280112999999801,h,0,0.22620039999992514,0.048101800000040384,0.050120500000048196,0.0982002000000648,0.1000715999998647,0.29836199999999735
RSVPLG03,MD,20260303-113718,1.0.2,20251105-085338,782,Experiment,Both,1,Automatic,main,81,20260303-114449,global,local,750,S,H,E,A,S-E.png,A-H.png,sS,hH,mask-3.png,mask-2.png,s,1,0.5587147999999615,h,1,0.11398330000019996,0.05009470000004512,0.05011869999998453,0.10019340000008015,0.09931589999996504,0.7488978000001225
RSVPLG03,MD,20260303-113718,1.0.2,20251105-085338,782,Experiment,Both,1,Automatic,main,82,20260303-114453,global,local,300,S,H,E,E,S-E.png,E-H.png,sS,hH,mask-4.png,mask-4.png,s,1,0.6986173999998755,h,1,0.16418620000013107,0.04931970000006913,0.05010149999998248,0.10018510000008973,0.10025610000002416,0.299521200000072
RSVPLG03,MD,20260303-113718,1.0.2,20251105-085338,782,Experiment,Both,1,Automatic,main,83,20260303-114458,local,local,750,S,H,E,E,E-S.png,E-H.png,sS,hH,mask-1.png,mask-1.png,s,1,0.38302879999992,h,1,0.26664260000006834,0.04910759999984293,0.05033050000020012,0.10042309999971621,0.09930630000008023,0.7498656999996456
RSVPLG03,MD,20260303-113718,1.0.2,20251105-085338,782,Experiment,Both,1,Automatic,main,84,20260303-114503,global,global,750,S,H,A,A,S-A.png,H-A.png,sS,hH,mask-3.png,mask-1.png,s,1,0.5395902000000206,h,1,0.17255789999990157,0.05022349999990183,0.049084299999776704,0.09933279999995648,0.09817949999978737,0.750235800000155
RSVPLG03,MD,20260303-113718,1.0.2,20251105-085338,782,Experiment,Both,1,Automatic,main,85,20260303-114508,global,local,750,S,H,E,E,S-E.png,E-H.png,sS,hH,mask-1.png,mask-3.png,s,1,0.34380030000011175,s,0,0.2834599000002527,0.049114100000224425,0.049024699999790755,0.10027579999996306,0.10123849999990853,0.7489936000001762
RSVPLG03,MD,20260303-113718,1.0.2,20251105-085338,782,Experiment,Both,1,Automatic,main,86,20260303-114513,local,global,300,H,H,A,E,A-H.png,H-E.png,hH,hH,mask-2.png,mask-3.png,h,1,0.8679205000003094,h,1,0.19435010000006514,0.05008799999995972,0.05009360000030938,0.09929039999997258,0.09916000000021086,0.29991919999974925
RSVPLG03,MD,20260303-113718,1.0.2,20251105-085338,782,Experiment,Both,1,Automatic,main,87,20260303-114517,local,local,300,H,H,A,E,A-H.png,E-H.png,hH,hH,mask-4.png,mask-4.png,s,0,0.8369367999998758,s,0,0.23487329999989015,0.050110599999698024,0.050114900000153284,0.09921849999955157,0.10029620000022987,0.2991706999996495
RSVPLG03,MD,20260303-113718,1.0.2,20251105-085338,782,Experiment,Both,1,Automatic,main,88,20260303-114522,local,local,300,S,S,A,A,A-S.png,A-S.png,sS,sS,mask-4.png,mask-1.png,s,1,0.539766000000327,s,1,0.21130360000006476,0.050876099999641156,0.04986259999986942,0.09975509999958376,0.09993969999959518,0.30025660000001153
RSVPLG03,MD,20260303-113718,1.0.2,20251105-085338,782,Experiment,Both,1,Automatic,main,89,20260303-114527,local,local,300,S,H,A,E,A-S.png,E-H.png,sS,hH,mask-3.png,mask-1.png,h,0,0.699101299999711,s,0,0.0988603000000694,0.05012079999960406,0.05007690000002185,0.09923949999983961,0.09817930000008346,0.29998639999985244
RSVPLG03,MD,20260303-113718,1.0.2,20251105-085338,782,Experiment,Both,1,Automatic,main,90,20260303-114531,local,global,750,H,H,E,E,E-H.png,H-E.png,hH,hH,mask-1.png,mask-2.png,h,1,0.8191133000000264,s,0,0.3395989999999074,0.05188670000006823,0.050072000000000116,0.09998590000031982,0.10009570000011081,0.749793899999986
RSVPLG03,MD,20260303-113718,1.0.2,20251105-085338,782,Experiment,Both,1,Automatic,main,91,20260303-114536,global,global,750,H,H,A,E,H-A.png,H-E.png,hH,hH,mask-4.png,mask-2.png,h,1,0.33610970000017915,h,1,0.2055144000000837,0.04812230000015916,0.04841459999988729,0.09806480000042939,0.09879540000019915,0.7487411000001885
RSVPLG03,MD,20260303-113718,1.0.2,20251105-085338,782,Experiment,Both,1,Automatic,main,92,20260303-114541,global,local,300,S,S,E,E,S-E.png,E-S.png,sS,sS,mask-1.png,mask-2.png,s,1,0.25508999999965454,h,0,0.24493500000016866,0.04927139999972496,0.0499178000000029,0.1005593999998382,0.09984789999998611,0.3014235999999073
RSVPLG03,MD,20260303-113718,1.0.2,20251105-085338,782,Experiment,Both,1,Automatic,main,93,20260303-114545,global,global,300,H,H,A,E,H-A.png,H-E.png,hH,hH,mask-3.png,mask-4.png,h,1,0.6598315999999613,s,0,0.028724599999804923,0.05016090000026452,0.04808530000036626,0.10028590000001714,0.09820870000021387,0.3000670999999784
RSVPLG03,MD,20260303-113718,1.0.2,20251105-085338,782,Experiment,Both,1,Automatic,main,94,20260303-114550,local,global,300,S,S,E,A,E-S.png,S-A.png,sS,sS,mask-4.png,mask-1.png,s,1,0.9444422000001396,h,0,0.21386440000014773,0.04998619999969378,0.05009790000030989,0.10009209999998347,0.09917380000024423,0.3000536999998076
RSVPLG03,MD,20260303-113718,1.0.2,20251105-085338,782,Experiment,Both,1,Automatic,main,95,20260303-114555,global,local,750,S,S,E,A,S-E.png,A-S.png,sS,sS,mask-2.png,mask-4.png,s,1,0.8781911000000946,h,0,0.5257411000002321,0.049852999999984604,0.05118429999993168,0.09997489999977915,0.10129529999994702,0.7483145999999579
RSVPLG03,MD,20260303-113718,1.0.2,20251105-085338,782,Experiment,Both,1,Automatic,main,96,20260303-114600,global,local,750,H,S,E,E,H-E.png,E-S.png,hH,sS,mask-4.png,mask-1.png,h,1,0.6354464000000917,h,0,0.42714680000017324,0.051058800000191695,0.050089399999706075,0.09954259999994974,0.10022479999997813,0.7494444000003568
RSVPLG03,MD,20260303-113718,1.0.2,20251105-085338,782,Experiment,Both,1,Automatic,main,97,20260303-114605,global,local,750,S,S,A,E,S-A.png,E-S.png,sS,sS,mask-4.png,mask-2.png,s,1,0.7935692999999446,h,0,0.6823279000000184,0.04992609999999331,0.05011019999983546,0.09984699999995428,0.09803479999982301,0.7498004000003675
RSVPLG03,MD,20260303-113718,1.0.2,20251105-085338,782,Experiment,Both,1,Automatic,main,98,20260303-114611,local,global,750,S,H,A,A,A-S.png,H-A.png,sS,hH,mask-2.png,mask-4.png,h,0,1.2644189999996343,s,0,0.10142839999980424,0.04899710000017876,0.050026700000216806,0.09712730000001102,0.10013010000011491,0.7492591999998695
RSVPLG03,MD,20260303-113718,1.0.2,20251105-085338,782,Experiment,Both,1,Automatic,main,99,20260303-114617,local,local,300,S,H,E,E,E-S.png,E-H.png,sS,hH,mask-2.png,mask-4.png,s,1,1.022357700000157,h,1,0.1933920000001308,0.049958000000060565,0.05008399999996982,0.09909769999967466,0.1012020000002849,0.30026449999968463
RSVPLG03,MD,20260303-113718,1.0.2,20251105-085338,782,Experiment,Both,1,Automatic,main,100,20260303-114622,local,local,750,H,S,A,A,A-H.png,A-S.png,hH,sS,mask-1.png,mask-1.png,s,0,1.1464037000000644,s,1,0.33801820000007865,0.05013019999978496,0.04922360000000481,0.10029020000001765,0.09967959999994491,0.7499652999999853
