exp,exp_initials,runtime,ver,modtime,sub,blocktype,targets,cuetype,mode,trialtype,trial,trialtime,t1_level,t2_level,t2_lag,t1,t2,distractor1,distractor2,stimfile1,stimfile2,t1_corr,t2_corr,maskfile1,maskfile2,t1_resp,t1_acc,t1_rt,t2_resp,t2_acc,t2_rt,t1_dur,t2_dur,t1mask_soa,t2mask_soa,t1t2_soa
RSVPLG03,JM,20260311-091449,1.0.2,20251105-084826,802,Introduction,T1,1,Automatic,main,1,20260311-091511,local,local,750,H,H,E,A,E-H.png,A-H.png,hH,hH,mask-2.png,mask-4.png,h,1,6.912803299957886,none,-5,0,0.09072849992662668,0.09756070002913475,0.19354170002043247,0.20061139995232224,0.7455959999933839
RSVPLG03,JM,20260311-091449,1.0.2,20251105-084826,802,Introduction,T1,1,Automatic,main,2,20260311-091522,local,global,750,H,H,A,A,A-H.png,H-A.png,hH,hH,mask-4.png,mask-1.png,h,1,2.9790380999911577,none,-5,0,0.09646630007773638,0.09744290006347,0.199504200136289,0.2004031001124531,0.7513679000549018
RSVPLG03,JM,20260311-091449,1.0.2,20251105-084826,802,Introduction,T1,1,Automatic,main,3,20260311-091529,global,local,750,H,S,E,E,H-E.png,E-S.png,hH,sS,mask-3.png,mask-2.png,s,0,1.1215061000548303,none,-5,0,0.09736720006912947,0.09755169996060431,0.2002315998543054,0.19889030000194907,0.7522660999093205
RSVPLG03,JM,20260311-091449,1.0.2,20251105-084826,802,Introduction,T1,1,Automatic,main,4,20260311-091534,local,local,750,H,S,A,A,A-H.png,A-S.png,hH,sS,mask-4.png,mask-1.png,h,1,1.5026771000120789,none,-5,0,0.09757490013726056,0.0978059999179095,0.19961230014450848,0.20195979997515678,0.7507536001503468
RSVPLG03,JM,20260311-091449,1.0.2,20251105-084826,802,Introduction,T1,1,Automatic,main,5,20260311-091540,local,global,750,S,H,A,A,A-S.png,H-A.png,sS,hH,mask-2.png,mask-3.png,s,1,3.7250095000490546,none,-5,0,0.09753489983268082,0.09766389988362789,0.19939009984955192,0.19872829993255436,0.751525399973616
RSVPLG03,JM,20260311-091449,1.0.2,20251105-084826,802,Introduction,T1,1,Automatic,main,6,20260311-091548,global,local,750,S,S,E,E,S-E.png,E-S.png,sS,sS,mask-3.png,mask-3.png,s,1,1.8780901001300663,none,-5,0,0.09747950010932982,0.09757909993641078,0.20002330001443624,0.20157689996995032,0.7508066000882536
RSVPLG03,JM,20260311-091449,1.0.2,20251105-084826,802,Introduction,T1,1,Automatic,main,7,20260311-091554,local,global,750,H,H,E,E,E-H.png,H-E.png,hH,hH,mask-3.png,mask-2.png,h,1,0.6157383997924626,none,-5,0,0.09738610009662807,0.0963852999266237,0.19924800004810095,0.20033150003291667,0.7516616000793874
RSVPLG03,JM,20260311-091449,1.0.2,20251105-084826,802,Introduction,T1,1,Automatic,main,8,20260311-091558,global,global,750,S,S,A,A,S-A.png,S-A.png,sS,sS,mask-1.png,mask-1.png,h,0,2.916214499855414,none,-5,0,0.09858840005472302,0.09751070011407137,0.20190230011940002,0.19971919991075993,0.7524468000046909
RSVPLG03,JM,20260311-091449,1.0.2,20251105-084826,802,Introduction,T1,1,Automatic,main,9,20260311-091605,local,local,750,H,S,A,A,A-H.png,A-S.png,hH,sS,mask-3.png,mask-4.png,h,1,0.7202432998456061,none,-5,0,0.09739349992014468,0.09766150009818375,0.19879679987207055,0.19992180005647242,0.7517396998591721
RSVPLG03,JM,20260311-091449,1.0.2,20251105-084826,802,Introduction,T1,1,Automatic,main,10,20260311-091610,local,global,750,H,H,E,A,E-H.png,H-A.png,hH,hH,mask-1.png,mask-1.png,h,1,1.179162499960512,none,-5,0,0.09797649993561208,0.09661449980922043,0.1998483999632299,0.20055099995806813,0.7518859000410885
RSVPLG03,JM,20260311-091449,1.0.2,20251105-084826,802,Introduction,T1,1,Automatic,main,11,20260311-091615,global,global,750,S,H,E,A,S-E.png,H-A.png,sS,hH,mask-3.png,mask-2.png,h,0,2.0269557000137866,none,-5,0,0.0974254000466317,0.0966501000802964,0.20017060008831322,0.19960390008054674,0.7519598000217229
RSVPLG03,JM,20260311-091449,1.0.2,20251105-084826,802,Introduction,T1,1,Automatic,main,12,20260311-091622,local,local,750,H,S,A,A,A-H.png,A-S.png,hH,sS,mask-2.png,mask-4.png,s,0,0.6390317999757826,none,-5,0,0.09736989997327328,0.09737889980897307,0.20025909994728863,0.20025819982402027,0.7522116000764072
RSVPLG03,JM,20260311-091449,1.0.2,20251105-084826,802,Introduction,T1,1,Automatic,main,13,20260311-091626,global,global,750,H,S,A,A,H-A.png,S-A.png,hH,sS,mask-3.png,mask-4.png,s,0,1.2330874998588115,none,-5,0,0.09659970016218722,0.09793670009821653,0.19970670016482472,0.2009312000591308,0.7502913000062108
RSVPLG03,JM,20260311-091449,1.0.2,20251105-084826,802,Introduction,T1,1,Automatic,main,14,20260311-091632,global,local,750,S,S,A,E,S-A.png,E-S.png,sS,sS,mask-1.png,mask-2.png,h,0,1.2663721998687834,none,-5,0,0.09759059990756214,0.09747460018843412,0.20054919994436204,0.2015368000138551,0.7507246998138726
RSVPLG03,JM,20260311-091449,1.0.2,20251105-084826,802,Introduction,T1,1,Automatic,main,15,20260311-091637,global,local,750,S,S,A,E,S-A.png,E-S.png,sS,sS,mask-2.png,mask-4.png,s,1,0.841384100029245,none,-5,0,0.09754210012033582,0.0979687999933958,0.2005984999705106,0.20025600004009902,0.7524174000136554
RSVPLG03,JM,20260311-091449,1.0.2,20251105-084826,802,Introduction,T1,1,Automatic,main,16,20260311-091642,global,global,750,S,H,A,E,S-A.png,H-E.png,sS,hH,mask-3.png,mask-2.png,s,1,0.4392772000283003,none,-5,0,0.09756219992414117,0.09745889995247126,0.19962679990567267,0.1995123999658972,0.7519928999245167
RSVPLG03,JM,20260311-091708,1.0.2,20251105-084826,802,Introduction,Both,1,Automatic,main,1,20260311-091744,global,global,750,H,S,E,A,H-E.png,S-A.png,hH,sS,mask-3.png,mask-1.png,h,1,1.5348531000781804,h,0,3.467524299863726,0.09151099994778633,0.09849989996291697,0.19559899996966124,0.2023789999075234,0.7456119998823851
RSVPLG03,JM,20260311-091708,1.0.2,20251105-084826,802,Introduction,Both,1,Automatic,main,2,20260311-091754,local,global,750,S,H,E,E,E-S.png,H-E.png,sS,hH,mask-1.png,mask-3.png,s,1,2.5898837000131607,h,1,0.589264600072056,0.0974441000726074,0.09739220002666116,0.20030610007233918,0.19972739997319877,0.7525363001041114
RSVPLG03,JM,20260311-091708,1.0.2,20251105-084826,802,Introduction,Both,1,Automatic,main,3,20260311-091801,local,global,750,S,S,A,A,A-S.png,S-A.png,sS,sS,mask-4.png,mask-1.png,s,1,1.823637899942696,s,1,0.43674619984813035,0.09579499997198582,0.097438600147143,0.19981589983217418,0.2004132999572903,0.7522556998301297
RSVPLG03,JM,20260311-091708,1.0.2,20251105-084826,802,Introduction,Both,1,Automatic,main,4,20260311-091808,local,local,750,H,S,A,E,A-H.png,E-S.png,hH,sS,mask-2.png,mask-2.png,s,0,2.03500370006077,s,1,0.11692730011418462,0.09800949995405972,0.09755549998953938,0.19990330003201962,0.1996902001556009,0.7525537998881191
RSVPLG03,JM,20260311-091708,1.0.2,20251105-084826,802,Introduction,Both,1,Automatic,main,5,20260311-091814,global,local,750,H,H,E,A,H-E.png,A-H.png,hH,hH,mask-4.png,mask-4.png,h,1,0.796115200035274,h,1,0.08732239995151758,0.09858940006233752,0.09751070011407137,0.20107750012539327,0.20073279994539917,0.7524947000201792
RSVPLG03,JM,20260311-091708,1.0.2,20251105-084826,802,Introduction,Both,1,Automatic,main,6,20260311-091819,global,global,750,S,S,A,A,S-A.png,S-A.png,sS,sS,mask-4.png,mask-1.png,s,1,0.7028161999769509,s,1,0.1442892998456955,0.09801830002106726,0.09613620000891387,0.20053559984080493,0.19941779994405806,0.7538878999184817
RSVPLG03,JM,20260311-091708,1.0.2,20251105-084826,802,Introduction,Both,1,Automatic,main,7,20260311-091824,local,local,750,H,S,E,A,E-H.png,A-S.png,hH,sS,mask-2.png,mask-4.png,h,1,6.895885499892756,s,1,0.06363920005969703,0.09624149999581277,0.09603850007988513,0.20013289991766214,0.19940899987705052,0.7524339999072254
RSVPLG03,JM,20260311-091708,1.0.2,20251105-084826,802,Introduction,Both,1,Automatic,main,8,20260311-091835,local,global,750,S,H,E,A,E-S.png,H-A.png,sS,hH,mask-3.png,mask-2.png,s,1,2.7999466001056135,h,1,0.0712085000704974,0.09903930011205375,0.09720230009406805,0.20139090018346906,0.20050640008412302,0.7540017999708652
RSVPLG03,JM,20260311-091708,1.0.2,20251105-084826,802,Introduction,Both,1,Automatic,main,9,20260311-091842,global,global,750,S,H,E,A,S-E.png,H-A.png,sS,hH,mask-2.png,mask-4.png,s,1,0.8021597999613732,h,1,0.07557260012254119,0.09817929985001683,0.09596399986185133,0.2014347999356687,0.19932629982940853,0.7540885000489652
RSVPLG03,JM,20260311-091708,1.0.2,20251105-084826,802,Introduction,Both,1,Automatic,main,10,20260311-091847,local,global,750,S,S,A,E,A-S.png,S-E.png,sS,sS,mask-4.png,mask-1.png,s,1,1.4121966999955475,h,0,0.07240010006353259,0.09831280005164444,0.0991683998145163,0.20248760003596544,0.20141389989294112,0.7528169001452625
RSVPLG03,JM,20260311-091708,1.0.2,20251105-084826,802,Introduction,Both,1,Automatic,main,11,20260311-091853,global,local,750,S,H,E,A,S-E.png,A-H.png,sS,hH,mask-2.png,mask-4.png,s,1,0.5650271999184042,h,1,0.08756969985552132,0.09716180013492703,0.09713259991258383,0.20045720017515123,0.1996426999103278,0.7518216001335531
RSVPLG03,JM,20260311-091708,1.0.2,20251105-084826,802,Introduction,Both,1,Automatic,main,12,20260311-091858,local,local,750,S,S,E,A,E-S.png,A-S.png,sS,sS,mask-3.png,mask-2.png,s,1,0.7111748000606894,s,1,0.08038010005839169,0.09717309987172484,0.09833749989047647,0.2015776999760419,0.20047619985416532,0.7529877999331802
RSVPLG03,JM,20260311-091708,1.0.2,20251105-084826,802,Introduction,Both,1,Automatic,main,13,20260311-091903,global,local,750,H,H,E,A,H-E.png,A-H.png,hH,hH,mask-1.png,mask-3.png,h,1,1.1589641999453306,h,1,0.312535900156945,0.09796070004813373,0.09646279993467033,0.20058150007389486,0.19980990001931787,0.7536695001181215
RSVPLG03,JM,20260311-091708,1.0.2,20251105-084826,802,Introduction,Both,1,Automatic,main,14,20260311-091909,global,local,750,S,H,E,E,S-E.png,E-H.png,sS,hH,mask-3.png,mask-2.png,s,1,1.5148564998526126,h,1,0.14454449992626905,0.09680370008572936,0.09736060001887381,0.20079859998077154,0.20174289983697236,0.7524181001354009
RSVPLG03,JM,20260311-091708,1.0.2,20251105-084826,802,Introduction,Both,1,Automatic,main,15,20260311-091914,global,global,750,H,H,A,A,H-A.png,H-A.png,hH,hH,mask-1.png,mask-3.png,h,1,1.8626673000399023,s,0,0.02927329996600747,0.09727309993468225,0.09757440001703799,0.2006767001003027,0.19966190005652606,0.7524705999530852
RSVPLG03,JM,20260311-091708,1.0.2,20251105-084826,802,Introduction,Both,1,Automatic,main,16,20260311-091921,local,local,750,H,H,E,A,E-H.png,A-H.png,hH,hH,mask-3.png,mask-1.png,h,1,0.61336710001342,h,1,0.0724659999832511,0.09630390000529587,0.09792339988052845,0.20064950012601912,0.20131289982236922,0.7523013001773506
RSVPLG03,JM,20260311-091946,1.0.2,20251105-084826,802,Practice,T1,1,Automatic,main,1,20260311-092006,local,local,750,H,H,A,A,A-H.png,A-H.png,hH,hH,mask-3.png,mask-4.png,h,1,2.455945400055498,none,-5,0,0.03859420004300773,0.047570900060236454,0.09162260009907186,0.1006201000418514,0.7425436000339687
RSVPLG03,JM,20260311-091946,1.0.2,20251105-084826,802,Practice,T1,1,Automatic,main,2,20260311-092013,local,global,750,H,S,A,E,A-H.png,S-E.png,hH,sS,mask-2.png,mask-1.png,h,1,0.45797770004719496,none,-5,0,0.04653819999657571,0.04856540006585419,0.10054549993947148,0.0995614998973906,0.7498391000553966
RSVPLG03,JM,20260311-091946,1.0.2,20251105-084826,802,Practice,T1,1,Automatic,main,3,20260311-092017,global,global,300,H,H,A,E,H-A.png,H-E.png,hH,hH,mask-3.png,mask-4.png,h,1,0.555378400022164,none,-5,0,0.046606000047177076,0.04750330001115799,0.09973080013878644,0.09992050006985664,0.29930360009893775
RSVPLG03,JM,20260311-091946,1.0.2,20251105-084826,802,Practice,T1,1,Automatic,main,4,20260311-092021,global,global,750,S,S,A,A,S-A.png,S-A.png,sS,sS,mask-2.png,mask-3.png,s,1,0.5049193000886589,none,-5,0,0.048685000045225024,0.047868499998003244,0.1014096001163125,0.1009886001702398,0.7510714000090957
RSVPLG03,JM,20260311-091946,1.0.2,20251105-084826,802,Practice,T1,1,Automatic,main,5,20260311-092026,global,local,300,H,S,E,E,H-E.png,E-S.png,hH,sS,mask-4.png,mask-3.png,h,1,0.3593207001686096,none,-5,0,0.04681720002554357,0.047758599976077676,0.1018924000672996,0.10097409994341433,0.3005055000539869
RSVPLG03,JM,20260311-091946,1.0.2,20251105-084826,802,Practice,T1,1,Automatic,main,6,20260311-092030,local,local,300,S,S,A,A,A-S.png,A-S.png,sS,sS,mask-3.png,mask-4.png,s,1,0.30134870018810034,none,-5,0,0.04668080015107989,0.047622600104659796,0.09971430012956262,0.09893100010231137,0.2996117000002414
RSVPLG03,JM,20260311-091946,1.0.2,20251105-084826,802,Practice,T1,1,Automatic,main,7,20260311-092034,local,global,750,H,H,E,E,E-H.png,H-E.png,hH,hH,mask-1.png,mask-4.png,h,1,1.4382017001044005,none,-5,0,0.04667759989388287,0.04769320017658174,0.0996856999117881,0.10062250006012619,0.7490353998728096
RSVPLG03,JM,20260311-091946,1.0.2,20251105-084826,802,Practice,T1,1,Automatic,main,8,20260311-092039,local,global,300,H,S,A,E,A-H.png,S-E.png,hH,sS,mask-4.png,mask-3.png,h,1,0.5549979999195784,none,-5,0,0.047510899836197495,0.04851270001381636,0.09950249991379678,0.10157060017809272,0.29979689978063107
RSVPLG03,JM,20260311-091946,1.0.2,20251105-084826,802,Practice,T1,1,Automatic,main,9,20260311-092043,local,global,300,H,S,A,A,A-H.png,S-A.png,hH,sS,mask-4.png,mask-1.png,h,1,0.3173241999465972,none,-5,0,0.048448999878019094,0.048866699915379286,0.10146529995836318,0.10097509995102882,0.30076500005088747
RSVPLG03,JM,20260311-091946,1.0.2,20251105-084826,802,Practice,T1,1,Automatic,main,10,20260311-092047,global,local,750,S,S,E,E,S-E.png,E-S.png,sS,sS,mask-1.png,mask-1.png,s,1,0.4327573000919074,none,-5,0,0.04758889996446669,0.046687399968504906,0.09900659997947514,0.09993320005014539,0.750685199862346
RSVPLG03,JM,20260311-091946,1.0.2,20251105-084826,802,Practice,T1,1,Automatic,main,11,20260311-092051,global,global,300,S,H,E,A,S-E.png,H-A.png,sS,hH,mask-2.png,mask-4.png,s,1,0.39539700001478195,none,-5,0,0.04616530006751418,0.04706050013191998,0.10038109985180199,0.10021580010652542,0.3001009998843074
RSVPLG03,JM,20260311-091946,1.0.2,20251105-084826,802,Practice,T1,1,Automatic,main,12,20260311-092055,global,global,750,S,S,E,A,S-E.png,S-A.png,sS,sS,mask-2.png,mask-3.png,s,1,0.4004155001603067,none,-5,0,0.04711530008353293,0.04717579996213317,0.1003282000310719,0.10020609991624951,0.7499624001793563
RSVPLG03,JM,20260311-091946,1.0.2,20251105-084826,802,Practice,T1,1,Automatic,main,13,20260311-092100,local,local,300,H,H,A,A,A-H.png,A-H.png,hH,hH,mask-1.png,mask-1.png,s,0,0.3678991999477148,none,-5,0,0.047704200027510524,0.047492000041529536,0.09978010016493499,0.09969750000163913,0.3002599000465125
RSVPLG03,JM,20260311-091946,1.0.2,20251105-084826,802,Practice,T1,1,Automatic,main,14,20260311-092104,global,local,750,H,S,E,E,H-E.png,E-S.png,hH,sS,mask-2.png,mask-4.png,h,1,0.44623630004934967,none,-5,0,0.04771260009147227,0.04786200006492436,0.09939160011708736,0.10003289999440312,0.7503398000262678
RSVPLG03,JM,20260311-091946,1.0.2,20251105-084826,802,Practice,T1,1,Automatic,main,15,20260311-092108,global,local,300,H,S,A,E,H-A.png,E-S.png,hH,sS,mask-1.png,mask-3.png,h,1,0.37109099980443716,none,-5,0,0.04866419988684356,0.04769569984637201,0.10187539993785322,0.09989620000123978,0.3015072999987751
RSVPLG03,JM,20260311-091946,1.0.2,20251105-084826,802,Practice,T1,1,Automatic,main,16,20260311-092112,local,local,750,S,H,A,A,A-S.png,A-H.png,sS,hH,mask-2.png,mask-2.png,h,0,0.5560498000122607,none,-5,0,0.04670890001580119,0.046688999980688095,0.09889049991033971,0.09927739994600415,0.7498097999487072
RSVPLG03,JM,20260311-092159,1.0.2,20251105-084826,802,Practice,Both,1,Automatic,main,1,20260311-092218,global,global,750,H,S,E,A,H-E.png,S-A.png,hH,sS,mask-2.png,mask-4.png,h,1,0.6160519002005458,s,1,0.08572610002011061,0.04497980000451207,0.04758020001463592,0.09831240004859865,0.10066039999946952,0.7482873999979347
RSVPLG03,JM,20260311-092159,1.0.2,20251105-084826,802,Practice,Both,1,Automatic,main,2,20260311-092222,global,global,750,S,H,E,E,S-E.png,H-E.png,sS,hH,mask-1.png,mask-1.png,s,1,0.6194235999137163,h,1,0.037303300108760595,0.04719930002465844,0.047759100096300244,0.10025939997285604,0.10024020005948842,0.7522441998589784
RSVPLG03,JM,20260311-092159,1.0.2,20251105-084826,802,Practice,Both,1,Automatic,main,3,20260311-092227,local,global,750,S,S,E,A,E-S.png,S-A.png,sS,sS,mask-4.png,mask-4.png,s,1,0.445437700022012,s,1,0.043232199968770146,0.0484550001565367,0.0475167001131922,0.10069640004076064,0.09960500011220574,0.7520359000191092
RSVPLG03,JM,20260311-092159,1.0.2,20251105-084826,802,Practice,Both,1,Automatic,main,4,20260311-092232,local,local,300,H,H,E,A,E-H.png,A-H.png,hH,hH,mask-4.png,mask-2.png,s,0,0.7769136000424623,h,1,0.008675800170749426,0.04760450008325279,0.04705950012430549,0.0998104999307543,0.09991340013220906,0.3015737999230623
RSVPLG03,JM,20260311-092159,1.0.2,20251105-084826,802,Practice,Both,1,Automatic,main,5,20260311-092236,global,local,300,S,S,E,E,S-E.png,E-S.png,sS,sS,mask-2.png,mask-2.png,s,1,0.5574233999941498,s,1,0.3648455000948161,0.04880110011436045,0.04768100008368492,0.10098820016719401,0.09988490003161132,0.30041290004737675
RSVPLG03,JM,20260311-092159,1.0.2,20251105-084826,802,Practice,Both,1,Automatic,main,6,20260311-092241,local,global,300,S,H,A,A,A-S.png,H-A.png,sS,hH,mask-2.png,mask-4.png,s,1,0.516073799924925,h,1,0.011186700081452727,0.047595399897545576,0.04648660006932914,0.09965849993750453,0.09929880010895431,0.3002652998548001
RSVPLG03,JM,20260311-092159,1.0.2,20251105-084826,802,Practice,Both,1,Automatic,main,7,20260311-092245,global,global,300,S,H,A,A,S-A.png,H-A.png,sS,hH,mask-3.png,mask-4.png,s,1,0.8292340999469161,h,1,0.1661926000379026,0.047044700011610985,0.04672770015895367,0.09906200016848743,0.09977090009488165,0.3003157000057399
RSVPLG03,JM,20260311-092159,1.0.2,20251105-084826,802,Practice,Both,1,Automatic,main,8,20260311-092250,global,global,300,H,S,A,E,H-A.png,S-E.png,hH,sS,mask-4.png,mask-3.png,h,1,0.3598372000269592,s,1,0.041024900041520596,0.046721799997612834,0.04760259995236993,0.09990889998152852,0.0998460000846535,0.2995750999543816
RSVPLG03,JM,20260311-092159,1.0.2,20251105-084826,802,Practice,Both,1,Automatic,main,9,20260311-092254,local,global,750,S,H,E,E,E-S.png,H-E.png,sS,hH,mask-1.png,mask-3.png,s,1,0.4760429998859763,h,1,0.020721999928355217,0.047615000046789646,0.047731600003317,0.10151909990236163,0.0999304000288248,0.7513822000473738
RSVPLG03,JM,20260311-092159,1.0.2,20251105-084826,802,Practice,Both,1,Automatic,main,10,20260311-092258,local,local,750,H,H,E,E,E-H.png,E-H.png,hH,hH,mask-2.png,mask-3.png,s,0,0.6325604000594467,h,1,0.023193599889054894,0.047607599990442395,0.04682709998451173,0.10047980002127588,0.0990313000511378,0.7529259999282658
RSVPLG03,JM,20260311-092159,1.0.2,20251105-084826,802,Practice,Both,1,Automatic,main,11,20260311-092303,global,local,750,H,S,A,E,H-A.png,E-S.png,hH,sS,mask-3.png,mask-1.png,h,1,0.35622690012678504,s,1,0.021580400178208947,0.04667529999278486,0.04770340002141893,0.09988019987940788,0.10190230002626777,0.7499131998047233
RSVPLG03,JM,20260311-092159,1.0.2,20251105-084826,802,Practice,Both,1,Automatic,main,12,20260311-092308,global,local,300,S,H,A,E,S-A.png,E-H.png,sS,hH,mask-4.png,mask-3.png,s,1,0.5578822998795658,h,1,0.024977900087833405,0.04659779998473823,0.047529299976304173,0.10018089995719492,0.09959289990365505,0.3009345999453217
RSVPLG03,JM,20260311-092159,1.0.2,20251105-084826,802,Practice,Both,1,Automatic,main,13,20260311-092312,global,local,750,S,H,E,E,S-E.png,E-H.png,sS,hH,mask-2.png,mask-4.png,s,1,0.47337600006721914,s,0,0.08250180003233254,0.04637610004283488,0.04655240010470152,0.09858090011402965,0.10058750002644956,0.751165899913758
RSVPLG03,JM,20260311-092159,1.0.2,20251105-084826,802,Practice,Both,1,Automatic,main,14,20260311-092317,local,local,300,S,H,E,E,E-S.png,E-H.png,sS,hH,mask-4.png,mask-1.png,s,1,0.46886330004781485,h,1,0.004757900023832917,0.047574999975040555,0.04755070013925433,0.10058580012992024,0.09991450002416968,0.3008302999660373
RSVPLG03,JM,20260311-092159,1.0.2,20251105-084826,802,Practice,Both,1,Automatic,main,15,20260311-092321,local,global,300,S,S,E,E,E-S.png,S-E.png,sS,sS,mask-3.png,mask-4.png,s,1,0.4511914998292923,s,1,0.06905069993808866,0.047589899972081184,0.04741890006698668,0.10054030013270676,0.09857159992679954,0.3008145000785589
RSVPLG03,JM,20260311-092159,1.0.2,20251105-084826,802,Practice,Both,1,Automatic,main,16,20260311-092325,local,local,750,S,H,E,A,E-S.png,A-H.png,sS,hH,mask-2.png,mask-1.png,s,1,0.6078075999394059,h,1,0.03766819997690618,0.04751270008273423,0.04750019987113774,0.09874209994450212,0.10203339997678995,0.7500159000046551
RSVPLG03,JM,20260311-092404,1.0.2,20251105-084826,802,Experiment,T1,1,Automatic,warmup,1,20260311-092458,global,global,750,H,H,A,E,H-A.png,H-E.png,hH,hH,mask-1.png,mask-3.png,h,1,0.7136516999453306,none,-5,0,0.04218579991720617,0.04662589984945953,0.0944630999583751,0.10066289990209043,0.7452263999730349
RSVPLG03,JM,20260311-092404,1.0.2,20251105-084826,802,Experiment,T1,1,Automatic,warmup,2,20260311-092502,local,local,750,S,S,E,A,E-S.png,A-S.png,sS,sS,mask-3.png,mask-2.png,s,1,0.44834999996237457,none,-5,0,0.04771139984950423,0.04758539982140064,0.09882249985821545,0.10047749988734722,0.7492939999792725
RSVPLG03,JM,20260311-092404,1.0.2,20251105-084826,802,Experiment,T1,1,Automatic,warmup,3,20260311-092507,local,global,300,S,H,A,A,A-S.png,H-A.png,sS,hH,mask-3.png,mask-2.png,h,0,0.5367703000083566,none,-5,0,0.0475206000264734,0.04853609995916486,0.09952399996109307,0.10052219987846911,0.29882260016165674
RSVPLG03,JM,20260311-092404,1.0.2,20251105-084826,802,Experiment,T1,1,Automatic,warmup,4,20260311-092511,local,local,300,H,S,E,E,E-H.png,E-S.png,hH,sS,mask-3.png,mask-1.png,s,0,0.40974280005320907,none,-5,0,0.047524600056931376,0.047511099837720394,0.09879710013046861,0.0995429998729378,0.3000835001002997
RSVPLG03,JM,20260311-092404,1.0.2,20251105-084826,802,Experiment,T1,1,Automatic,main,5,20260311-092515,local,global,750,S,H,E,E,E-S.png,H-E.png,sS,hH,mask-1.png,mask-1.png,h,0,0.4530597000848502,none,-5,0,0.047502500005066395,0.04758129990659654,0.09950500004924834,0.10001509985886514,0.7499629000667483
RSVPLG03,JM,20260311-092404,1.0.2,20251105-084826,802,Experiment,T1,1,Automatic,main,6,20260311-092519,global,global,300,S,S,E,A,S-E.png,S-A.png,sS,sS,mask-2.png,mask-3.png,s,1,0.14104999997653067,none,-5,0,0.04751159995794296,0.04581129993312061,0.09997209999710321,0.10003510001115501,0.3004928999580443
RSVPLG03,JM,20260311-092404,1.0.2,20251105-084826,802,Experiment,T1,1,Automatic,main,7,20260311-092523,global,global,300,S,S,E,A,S-E.png,S-A.png,sS,sS,mask-2.png,mask-3.png,s,1,0.378737699938938,none,-5,0,0.04710209998302162,0.04823080007918179,0.10036749998107553,0.10026070009917021,0.29943819995969534
RSVPLG03,JM,20260311-092404,1.0.2,20251105-084826,802,Experiment,T1,1,Automatic,main,8,20260311-092527,local,local,750,H,S,E,A,E-H.png,A-S.png,hH,sS,mask-2.png,mask-4.png,s,0,0.3696550999302417,none,-5,0,0.04769879998639226,0.047758900094777346,0.09988970006816089,0.09995250008068979,0.7501832998823375
RSVPLG03,JM,20260311-092404,1.0.2,20251105-084826,802,Experiment,T1,1,Automatic,main,9,20260311-092531,local,local,750,H,H,E,E,E-H.png,E-H.png,hH,hH,mask-2.png,mask-3.png,s,0,1.4987245998345315,none,-5,0,0.04674330004490912,0.04670800012536347,0.10000229999423027,0.09993840008974075,0.7500644000247121
RSVPLG03,JM,20260311-092404,1.0.2,20251105-084826,802,Experiment,T1,1,Automatic,main,10,20260311-092537,global,global,750,S,H,E,A,S-E.png,H-A.png,sS,hH,mask-3.png,mask-4.png,h,0,0.43478920008055866,none,-5,0,0.04774160007946193,0.047768000047653913,0.10000350000336766,0.10022560018114746,0.7493584998883307
RSVPLG03,JM,20260311-092404,1.0.2,20251105-084826,802,Experiment,T1,1,Automatic,main,11,20260311-092541,global,local,300,S,S,E,A,S-E.png,A-S.png,sS,sS,mask-2.png,mask-1.png,s,1,0.33507569995708764,none,-5,0,0.047727799974381924,0.04776250012218952,0.10000579990446568,0.10000510001555085,0.2996950999367982
RSVPLG03,JM,20260311-092404,1.0.2,20251105-084826,802,Experiment,T1,1,Automatic,main,12,20260311-092545,local,local,750,S,H,A,E,A-S.png,E-H.png,sS,hH,mask-1.png,mask-4.png,s,1,0.4325723999645561,none,-5,0,0.048746899934485555,0.04652220010757446,0.10094449995085597,0.09974550013430417,0.7514184999745339
RSVPLG03,JM,20260311-092404,1.0.2,20251105-084826,802,Experiment,T1,1,Automatic,main,13,20260311-092549,local,global,300,S,H,A,E,A-S.png,H-E.png,sS,hH,mask-2.png,mask-2.png,h,0,0.5280690998770297,none,-5,0,0.04709000000730157,0.047339800046756864,0.09861609991639853,0.10035909991711378,0.2991126999258995
RSVPLG03,JM,20260311-092404,1.0.2,20251105-084826,802,Experiment,T1,1,Automatic,main,14,20260311-092553,local,global,750,H,H,E,A,E-H.png,H-A.png,hH,hH,mask-1.png,mask-2.png,s,0,0.8015208002179861,none,-5,0,0.04768570000305772,0.047130699967965484,0.0991801000200212,0.09918619995005429,0.7508713998831809
RSVPLG03,JM,20260311-092404,1.0.2,20251105-084826,802,Experiment,T1,1,Automatic,main,15,20260311-092558,global,global,300,H,S,E,A,H-E.png,S-A.png,hH,sS,mask-3.png,mask-4.png,h,1,0.4027349001262337,none,-5,0,0.047715599881485105,0.04769579996354878,0.10013989987783134,0.09995780000463128,0.3007697998546064
RSVPLG03,JM,20260311-092404,1.0.2,20251105-084826,802,Experiment,T1,1,Automatic,main,16,20260311-092602,global,global,750,H,H,E,A,H-E.png,H-A.png,hH,hH,mask-4.png,mask-4.png,h,1,0.4647609000094235,none,-5,0,0.04575809999369085,0.04767850018106401,0.09892489993944764,0.10193330002948642,0.7484789998270571
RSVPLG03,JM,20260311-092404,1.0.2,20251105-084826,802,Experiment,T1,1,Automatic,main,17,20260311-092607,global,global,300,S,S,E,A,S-E.png,S-A.png,sS,sS,mask-3.png,mask-2.png,s,1,0.35628970013931394,none,-5,0,0.04738799994811416,0.047250800067558885,0.10062579996883869,0.10035459999926388,0.30012959986925125
RSVPLG03,JM,20260311-092404,1.0.2,20251105-084826,802,Experiment,T1,1,Automatic,main,18,20260311-092611,local,global,300,H,H,E,A,E-H.png,H-A.png,hH,hH,mask-2.png,mask-3.png,h,1,0.5092470999807119,none,-5,0,0.04750999994575977,0.04649989982135594,0.09876840002834797,0.09951619990170002,0.30007990007288754
RSVPLG03,JM,20260311-092404,1.0.2,20251105-084826,802,Experiment,T1,1,Automatic,main,19,20260311-092615,global,global,750,S,H,A,A,S-A.png,H-A.png,sS,hH,mask-2.png,mask-1.png,s,1,0.8311501999851316,none,-5,0,0.04638829990290105,0.047491899924352765,0.0992473999504,0.10051380004733801,0.7496374000329524
RSVPLG03,JM,20260311-092404,1.0.2,20251105-084826,802,Experiment,T1,1,Automatic,main,20,20260311-092619,global,local,300,S,S,E,A,S-E.png,A-S.png,sS,sS,mask-1.png,mask-3.png,s,1,0.3315310999751091,none,-5,0,0.04851210000924766,0.0475014999974519,0.09950989997014403,0.09892500005662441,0.30076540005393326
RSVPLG03,JM,20260311-092404,1.0.2,20251105-084826,802,Experiment,T1,1,Automatic,main,21,20260311-092623,local,global,300,S,S,E,E,E-S.png,S-E.png,sS,sS,mask-1.png,mask-4.png,s,1,0.700609799940139,none,-5,0,0.047176599968224764,0.048708599992096424,0.10017719981260598,0.10089479992166162,0.2990240999497473
RSVPLG03,JM,20260311-092404,1.0.2,20251105-084826,802,Experiment,T1,1,Automatic,main,22,20260311-092628,local,local,300,H,H,E,A,E-H.png,A-H.png,hH,hH,mask-2.png,mask-3.png,h,1,0.40535950008779764,none,-5,0,0.04572169994935393,0.048598699970170856,0.09897130005992949,0.10080430004745722,0.2988338000141084
RSVPLG03,JM,20260311-092404,1.0.2,20251105-084826,802,Experiment,T1,1,Automatic,main,23,20260311-092632,global,global,750,H,H,A,A,H-A.png,H-A.png,hH,hH,mask-3.png,mask-2.png,s,0,0.6374984001740813,none,-5,0,0.04770090011879802,0.047705700155347586,0.09981520008295774,0.09987290017306805,0.7499301000498235
RSVPLG03,JM,20260311-092404,1.0.2,20251105-084826,802,Experiment,T1,1,Automatic,main,24,20260311-092636,local,local,300,S,H,E,E,E-S.png,E-H.png,sS,hH,mask-4.png,mask-3.png,h,0,0.30112299998290837,none,-5,0,0.04667060007341206,0.04753730003722012,0.09974900004453957,0.09952980000525713,0.30001670005731285
RSVPLG03,JM,20260311-092404,1.0.2,20251105-084826,802,Experiment,T1,1,Automatic,main,25,20260311-092640,global,local,750,H,S,A,A,H-A.png,A-S.png,hH,sS,mask-4.png,mask-3.png,h,1,0.2687931000255048,none,-5,0,0.04748559999279678,0.04753689980134368,0.10142509988509119,0.10053179995156825,0.7514754000585526
RSVPLG03,JM,20260311-092404,1.0.2,20251105-084826,802,Experiment,T1,1,Automatic,main,26,20260311-092750,global,global,300,S,S,E,A,S-E.png,S-A.png,sS,sS,mask-4.png,mask-4.png,s,1,1.9923912000376731,none,-5,0,0.04756420012563467,0.04657760006375611,0.09959320002235472,0.09866390004754066,0.29992910008877516
RSVPLG03,JM,20260311-092404,1.0.2,20251105-084826,802,Experiment,T1,1,Automatic,main,27,20260311-092756,local,global,750,S,S,E,A,E-S.png,S-A.png,sS,sS,mask-4.png,mask-3.png,s,1,0.43139799986965954,none,-5,0,0.04657549993135035,0.049049400025978684,0.09960759989917278,0.10015260009095073,0.7495283999014646
RSVPLG03,JM,20260311-092404,1.0.2,20251105-084826,802,Experiment,T1,1,Automatic,main,28,20260311-092800,local,global,750,S,S,E,A,E-S.png,S-A.png,sS,sS,mask-1.png,mask-2.png,s,1,0.35059509985148907,none,-5,0,0.0475250999443233,0.049463000148534775,0.10102829989045858,0.10057240002788603,0.7501743999309838
RSVPLG03,JM,20260311-092404,1.0.2,20251105-084826,802,Experiment,T1,1,Automatic,main,29,20260311-092805,global,global,300,H,S,E,A,H-E.png,S-A.png,hH,sS,mask-2.png,mask-2.png,h,1,0.2914253000635654,none,-5,0,0.04867039993405342,0.047131899977102876,0.1017966999206692,0.10037550004199147,0.30142499995417893
RSVPLG03,JM,20260311-092404,1.0.2,20251105-084826,802,Experiment,T1,1,Automatic,main,30,20260311-092809,local,global,750,S,H,A,A,A-S.png,H-A.png,sS,hH,mask-2.png,mask-1.png,h,0,1.6556577999144793,none,-5,0,0.04759540013037622,0.04745200020261109,0.09901580004952848,0.10051630018278956,0.7499842999968678
RSVPLG03,JM,20260311-092404,1.0.2,20251105-084826,802,Experiment,T1,1,Automatic,main,31,20260311-092814,global,local,300,S,H,E,E,S-E.png,E-H.png,sS,hH,mask-4.png,mask-1.png,s,1,0.31943970010615885,none,-5,0,0.04659749986603856,0.047499600099399686,0.0990359999705106,0.09851210005581379,0.30044509982690215
RSVPLG03,JM,20260311-092404,1.0.2,20251105-084826,802,Experiment,T1,1,Automatic,main,32,20260311-092818,local,global,750,H,H,A,E,A-H.png,H-E.png,hH,hH,mask-1.png,mask-3.png,h,1,0.29571390012279153,none,-5,0,0.04753710003569722,0.048549999948590994,0.09905360010452569,0.10157589986920357,0.7492637000977993
RSVPLG03,JM,20260311-092404,1.0.2,20251105-084826,802,Experiment,T1,1,Automatic,main,33,20260311-092822,global,global,300,S,H,A,E,S-A.png,H-E.png,sS,hH,mask-3.png,mask-1.png,s,1,0.2913778000511229,none,-5,0,0.047518299892544746,0.04765279986895621,0.09995059994980693,0.09983359999023378,0.29947030008770525
RSVPLG03,JM,20260311-092404,1.0.2,20251105-084826,802,Experiment,T1,1,Automatic,main,34,20260311-092826,global,local,750,H,S,E,A,H-E.png,A-S.png,hH,sS,mask-2.png,mask-1.png,h,1,0.3659163999836892,none,-5,0,0.047732200007885695,0.047663499834015965,0.09987489995546639,0.0986820999532938,0.7515565999783576
RSVPLG03,JM,20260311-092404,1.0.2,20251105-084826,802,Experiment,T1,1,Automatic,main,35,20260311-092831,global,local,750,H,H,E,A,H-E.png,A-H.png,hH,hH,mask-1.png,mask-1.png,h,1,0.41558289993554354,none,-5,0,0.04748439998365939,0.0475016999989748,0.10027729999274015,0.09944729995913804,0.7500498001463711
RSVPLG03,JM,20260311-092404,1.0.2,20251105-084826,802,Experiment,T1,1,Automatic,main,36,20260311-092835,local,local,300,S,S,E,E,E-S.png,E-S.png,sS,sS,mask-1.png,mask-3.png,s,1,0.33965269988402724,none,-5,0,0.046525000128895044,0.04852509987540543,0.09962620004080236,0.1005148000549525,0.2990041000302881
RSVPLG03,JM,20260311-092404,1.0.2,20251105-084826,802,Experiment,T1,1,Automatic,main,37,20260311-092839,local,local,300,S,H,A,E,A-S.png,E-H.png,sS,hH,mask-1.png,mask-1.png,s,1,0.7558488000649959,none,-5,0,0.0465869999025017,0.04731960012577474,0.0995781000237912,0.09830290009267628,0.3008043998852372
RSVPLG03,JM,20260311-092404,1.0.2,20251105-084826,802,Experiment,T1,1,Automatic,main,38,20260311-092843,local,global,750,S,S,E,A,E-S.png,S-A.png,sS,sS,mask-2.png,mask-1.png,s,1,0.33352470002137125,none,-5,0,0.04757160018198192,0.047587799839675426,0.09896440012380481,0.09972329996526241,0.7503596001770347
RSVPLG03,JM,20260311-092404,1.0.2,20251105-084826,802,Experiment,T1,1,Automatic,main,39,20260311-092848,local,local,300,H,S,E,E,E-H.png,E-S.png,hH,sS,mask-1.png,mask-2.png,h,1,0.4915103001985699,none,-5,0,0.04760469985194504,0.04759710002690554,0.10044809989631176,0.0986166000366211,0.30083619989454746
RSVPLG03,JM,20260311-092404,1.0.2,20251105-084826,802,Experiment,T1,1,Automatic,main,40,20260311-092852,local,local,300,S,H,A,E,A-S.png,E-H.png,sS,hH,mask-4.png,mask-4.png,h,0,0.4561152998358011,none,-5,0,0.045936600072309375,0.04938189988024533,0.09971410012803972,0.101748300017789,0.2984408000484109
RSVPLG03,JM,20260311-092404,1.0.2,20251105-084826,802,Experiment,T1,1,Automatic,main,41,20260311-092856,global,global,750,H,S,A,A,H-A.png,S-A.png,hH,sS,mask-4.png,mask-4.png,h,1,0.49061039998196065,none,-5,0,0.0475399000570178,0.047452100086957216,0.09861649991944432,0.10052800015546381,0.7499418999068439
RSVPLG03,JM,20260311-092404,1.0.2,20251105-084826,802,Experiment,T1,1,Automatic,main,42,20260311-092900,local,global,300,H,S,A,E,A-H.png,S-E.png,hH,sS,mask-4.png,mask-1.png,h,1,0.5062910998240113,none,-5,0,0.046696900157257915,0.04699820000678301,0.09990360005758703,0.10023700003512204,0.2996064000762999
RSVPLG03,JM,20260311-092404,1.0.2,20251105-084826,802,Experiment,T1,1,Automatic,main,43,20260311-092904,global,global,750,S,S,A,E,S-A.png,S-E.png,sS,sS,mask-1.png,mask-2.png,s,1,0.3598750000819564,none,-5,0,0.047518600011244416,0.04770449991337955,0.09961159992963076,0.09892529994249344,0.7513751999940723
RSVPLG03,JM,20260311-092404,1.0.2,20251105-084826,802,Experiment,T1,1,Automatic,main,44,20260311-092908,global,global,750,H,H,A,A,H-A.png,H-A.png,hH,hH,mask-1.png,mask-3.png,h,1,0.33697459986433387,none,-5,0,0.04766299994662404,0.04754689987748861,0.09986639977432787,0.10063269990496337,0.7498880999628454
RSVPLG03,JM,20260311-092404,1.0.2,20251105-084826,802,Experiment,T1,1,Automatic,main,45,20260311-092913,global,local,300,S,H,E,A,S-E.png,A-H.png,sS,hH,mask-4.png,mask-3.png,s,1,0.2794953000266105,none,-5,0,0.04750779992900789,0.04750590003095567,0.09950809995643795,0.10053009982220829,0.29974960000254214
RSVPLG03,JM,20260311-092404,1.0.2,20251105-084826,802,Experiment,T1,1,Automatic,main,46,20260311-092917,local,local,300,S,H,A,E,A-S.png,E-H.png,sS,hH,mask-4.png,mask-4.png,h,0,0.35665149986743927,none,-5,0,0.04744080011732876,0.04749580007046461,0.10060590016655624,0.09859739989042282,0.30157950008288026
RSVPLG03,JM,20260311-092404,1.0.2,20251105-084826,802,Experiment,T1,1,Automatic,main,47,20260311-092920,global,local,300,H,H,E,A,H-E.png,A-H.png,hH,hH,mask-3.png,mask-2.png,h,1,0.29776449990458786,none,-5,0,0.047892099944874644,0.04750770004466176,0.10099110007286072,0.10154909989796579,0.30024580005556345
RSVPLG03,JM,20260311-092404,1.0.2,20251105-084826,802,Experiment,T1,1,Automatic,main,48,20260311-092924,global,local,750,H,S,E,E,H-E.png,E-S.png,hH,sS,mask-2.png,mask-3.png,h,1,0.29059999994933605,none,-5,0,0.04751980002038181,0.04746149992570281,0.09951860015280545,0.09976479993201792,0.7493275001179427
RSVPLG03,JM,20260311-092404,1.0.2,20251105-084826,802,Experiment,T1,1,Automatic,main,49,20260311-092929,global,local,300,S,S,E,E,S-E.png,E-S.png,sS,sS,mask-1.png,mask-4.png,s,1,0.3165439001750201,none,-5,0,0.04716639989055693,0.04662399995140731,0.10016230004839599,0.09869319992139935,0.29989779996685684
RSVPLG03,JM,20260311-092404,1.0.2,20251105-084826,802,Experiment,T1,1,Automatic,main,50,20260311-092933,local,global,300,S,S,E,E,E-S.png,S-E.png,sS,sS,mask-1.png,mask-3.png,s,1,0.26394050009548664,none,-5,0,0.04589700000360608,0.04694909998215735,0.0999741000123322,0.10002540005370975,0.3000521999783814
RSVPLG03,JM,20260311-092404,1.0.2,20251105-084826,802,Experiment,T1,1,Automatic,main,51,20260311-092944,local,global,300,H,H,A,A,A-H.png,H-A.png,hH,hH,mask-1.png,mask-3.png,h,1,0.32936590001918375,none,-5,0,0.04750810004770756,0.04752820008434355,0.09858030010946095,0.09954640013165772,0.29888650006614625
RSVPLG03,JM,20260311-092404,1.0.2,20251105-084826,802,Experiment,T1,1,Automatic,main,52,20260311-092948,global,global,750,S,S,E,E,S-E.png,S-E.png,sS,sS,mask-3.png,mask-2.png,s,1,0.3582134998869151,none,-5,0,0.04756109998561442,0.047512900084257126,0.09822479984723032,0.10053210007026792,0.7497665998525918
RSVPLG03,JM,20260311-092404,1.0.2,20251105-084826,802,Experiment,T1,1,Automatic,main,53,20260311-092953,global,local,300,H,S,A,E,H-A.png,E-S.png,hH,sS,mask-2.png,mask-2.png,h,1,0.30768699990585446,none,-5,0,0.048537599854171276,0.04752450017258525,0.1005851998925209,0.09954380011186004,0.3008460998535156
RSVPLG03,JM,20260311-092404,1.0.2,20251105-084826,802,Experiment,T1,1,Automatic,main,54,20260311-092956,local,local,750,H,H,E,A,E-H.png,A-H.png,hH,hH,mask-3.png,mask-4.png,h,1,0.6488065000157803,none,-5,0,0.046913999831303954,0.04753610002808273,0.10003079986199737,0.10055990004912019,0.7498321998864412
RSVPLG03,JM,20260311-092404,1.0.2,20251105-084826,802,Experiment,T1,1,Automatic,main,55,20260311-093001,global,local,300,S,S,E,A,S-E.png,A-S.png,sS,sS,mask-1.png,mask-4.png,s,1,0.3031222999561578,none,-5,0,0.047655200120061636,0.0476496999617666,0.09914760012179613,0.0996630999725312,0.2996469000354409
RSVPLG03,JM,20260311-092404,1.0.2,20251105-084826,802,Experiment,T1,1,Automatic,main,56,20260311-093005,local,global,300,S,H,A,E,A-S.png,H-E.png,sS,hH,mask-3.png,mask-2.png,h,0,0.40512860007584095,none,-5,0,0.047505500027909875,0.047220899956300855,0.09880689997226,0.09918119991198182,0.30012200004421175
RSVPLG03,JM,20260311-092404,1.0.2,20251105-084826,802,Experiment,T1,1,Automatic,main,57,20260311-093009,global,global,300,H,H,E,E,H-E.png,H-E.png,hH,hH,mask-3.png,mask-2.png,h,1,0.2866607999894768,none,-5,0,0.04902110015973449,0.04579850006848574,0.10004060016945004,0.0999308000318706,0.3019910000730306
RSVPLG03,JM,20260311-092404,1.0.2,20251105-084826,802,Experiment,T1,1,Automatic,main,58,20260311-093013,local,global,300,S,S,A,A,A-S.png,S-A.png,sS,sS,mask-2.png,mask-2.png,s,1,0.32558030006475747,none,-5,0,0.047735200030729175,0.04655510000884533,0.09985910006798804,0.09975420008413494,0.3004984001163393
RSVPLG03,JM,20260311-092404,1.0.2,20251105-084826,802,Experiment,T1,1,Automatic,main,59,20260311-093016,local,global,750,S,H,A,A,A-S.png,H-A.png,sS,hH,mask-1.png,mask-2.png,h,0,0.9081415000837296,none,-5,0,0.047571799950674176,0.047090900130569935,0.10157309984788299,0.09916630014777184,0.7516983998939395
RSVPLG03,JM,20260311-092404,1.0.2,20251105-084826,802,Experiment,T1,1,Automatic,main,60,20260311-093021,local,local,300,S,S,A,E,A-S.png,E-S.png,sS,sS,mask-2.png,mask-4.png,s,1,0.2748545999638736,none,-5,0,0.047722999937832355,0.04769160016439855,0.09971689991652966,0.0998846001457423,0.29960169992409647
RSVPLG03,JM,20260311-092404,1.0.2,20251105-084826,802,Experiment,T1,1,Automatic,main,61,20260311-093025,local,global,750,H,H,E,E,E-H.png,H-E.png,hH,hH,mask-4.png,mask-4.png,h,1,0.4654392001684755,none,-5,0,0.04698200011625886,0.049407299840822816,0.09999330015853047,0.10039459983818233,0.7495849002152681
RSVPLG03,JM,20260311-092404,1.0.2,20251105-084826,802,Experiment,T1,1,Automatic,main,62,20260311-093030,global,local,300,S,H,A,A,S-A.png,A-H.png,sS,hH,mask-4.png,mask-1.png,s,1,0.23645279998891056,none,-5,0,0.047385600162670016,0.04853089991956949,0.10022559994831681,0.09987119981087744,0.3001328001264483
RSVPLG03,JM,20260311-092404,1.0.2,20251105-084826,802,Experiment,T1,1,Automatic,main,63,20260311-093033,local,local,750,S,S,E,A,E-S.png,A-S.png,sS,sS,mask-4.png,mask-4.png,s,1,0.1829027000349015,none,-5,0,0.046737900003790855,0.047491699922829866,0.09965059999376535,0.09955070004798472,0.749692500103265
RSVPLG03,JM,20260311-092404,1.0.2,20251105-084826,802,Experiment,T1,1,Automatic,main,64,20260311-093038,local,local,300,H,S,A,A,A-H.png,A-S.png,hH,sS,mask-3.png,mask-1.png,h,1,0.27041890006512403,none,-5,0,0.04606920015066862,0.04771349998190999,0.10040270001627505,0.10091889998875558,0.29912069998681545
RSVPLG03,JM,20260311-092404,1.0.2,20251105-084826,802,Experiment,T1,1,Automatic,main,65,20260311-093041,local,global,300,H,S,A,E,A-H.png,S-E.png,hH,sS,mask-4.png,mask-1.png,s,0,0.6414344001095742,none,-5,0,0.046597099862992764,0.04756240011192858,0.09906539996154606,0.09974079998210073,0.3000286999158561
RSVPLG03,JM,20260311-092404,1.0.2,20251105-084826,802,Experiment,T1,1,Automatic,main,66,20260311-093045,global,global,300,S,H,E,A,S-E.png,H-A.png,sS,hH,mask-1.png,mask-1.png,h,0,0.5117556999903172,none,-5,0,0.04756730003282428,0.04655169998295605,0.09957599989138544,0.0985767999663949,0.30083799990825355
RSVPLG03,JM,20260311-092404,1.0.2,20251105-084826,802,Experiment,T1,1,Automatic,main,67,20260311-093050,local,global,300,H,H,E,A,E-H.png,H-A.png,hH,hH,mask-4.png,mask-2.png,s,0,0.356313600204885,none,-5,0,0.047203100053593516,0.04852379998192191,0.10033250018022954,0.10057340003550053,0.2996036000549793
RSVPLG03,JM,20260311-092404,1.0.2,20251105-084826,802,Experiment,T1,1,Automatic,main,68,20260311-093053,global,local,750,H,S,A,E,H-A.png,E-S.png,hH,sS,mask-3.png,mask-4.png,s,0,0.4007967000361532,none,-5,0,0.046657999977469444,0.04754179995507002,0.09865209995768964,0.09956449992023408,0.7497912999242544
RSVPLG03,JM,20260311-092404,1.0.2,20251105-084826,802,Experiment,T1,1,Automatic,main,69,20260311-093058,local,local,300,H,H,A,A,A-H.png,A-H.png,hH,hH,mask-2.png,mask-2.png,h,1,0.288042200030759,none,-5,0,0.04764280002564192,0.04749889997765422,0.10063900006935,0.09950209991075099,0.30085220001637936
RSVPLG03,JM,20260311-092404,1.0.2,20251105-084826,802,Experiment,T1,1,Automatic,main,70,20260311-093102,global,local,300,S,H,A,A,S-A.png,A-H.png,sS,hH,mask-3.png,mask-3.png,s,1,0.2894120002165437,none,-5,0,0.04767840006388724,0.04767050012014806,0.10083139990456402,0.09974820003844798,0.30037819989956915
RSVPLG03,JM,20260311-092404,1.0.2,20251105-084826,802,Experiment,T1,1,Automatic,main,71,20260311-093105,local,global,750,S,H,A,E,A-S.png,H-E.png,sS,hH,mask-2.png,mask-4.png,s,1,0.5453723000828177,none,-5,0,0.0490466000046581,0.048739399993792176,0.10026340000331402,0.10078069986775517,0.750620299950242
RSVPLG03,JM,20260311-092404,1.0.2,20251105-084826,802,Experiment,T1,1,Automatic,main,72,20260311-093110,local,global,300,S,H,E,A,E-S.png,H-A.png,sS,hH,mask-1.png,mask-1.png,s,1,0.3038020001258701,none,-5,0,0.04781579994596541,0.046487800078466535,0.1009833998978138,0.10048060002736747,0.30051029985770583
RSVPLG03,JM,20260311-092404,1.0.2,20251105-084826,802,Experiment,T1,1,Automatic,main,73,20260311-093114,global,local,300,S,H,E,E,S-E.png,E-H.png,sS,hH,mask-2.png,mask-4.png,h,0,0.2978113000281155,none,-5,0,0.04850909998640418,0.04867679998278618,0.1015820000320673,0.1007254000287503,0.30079389992170036
RSVPLG03,JM,20260311-092404,1.0.2,20251105-084826,802,Experiment,T1,1,Automatic,main,74,20260311-093118,global,global,300,S,S,A,E,S-A.png,S-E.png,sS,sS,mask-1.png,mask-1.png,s,1,0.3173639001324773,none,-5,0,0.04750610003247857,0.04724500002339482,0.10071390005759895,0.09826670004986227,0.30208930000662804
RSVPLG03,JM,20260311-092404,1.0.2,20251105-084826,802,Experiment,T1,1,Automatic,main,75,20260311-093122,global,local,750,S,S,E,E,S-E.png,E-S.png,sS,sS,mask-2.png,mask-4.png,s,1,0.2814428999554366,none,-5,0,0.0484914998523891,0.04749309993349016,0.10032919980585575,0.09970689984038472,0.7506657999474555
RSVPLG03,JM,20260311-092404,1.0.2,20251105-084826,802,Experiment,T1,1,Automatic,main,76,20260311-093141,global,local,750,S,H,E,A,S-E.png,A-H.png,sS,hH,mask-4.png,mask-1.png,s,1,0.4676409000530839,none,-5,0,0.047588600078597665,0.04586730012670159,0.1006595001090318,0.09876870014704764,0.7505588999483734
RSVPLG03,JM,20260311-092404,1.0.2,20251105-084826,802,Experiment,T1,1,Automatic,main,77,20260311-093145,local,global,750,S,S,E,A,E-S.png,S-A.png,sS,sS,mask-4.png,mask-4.png,s,1,0.4118004001211375,none,-5,0,0.04750680015422404,0.04851060011424124,0.0988932999316603,0.10052300011739135,0.7493745000101626
RSVPLG03,JM,20260311-092404,1.0.2,20251105-084826,802,Experiment,T1,1,Automatic,main,78,20260311-093150,global,local,750,S,S,A,A,S-A.png,A-S.png,sS,sS,mask-2.png,mask-2.png,s,1,0.4484192000236362,none,-5,0,0.04886370012536645,0.04861369985155761,0.0999352999497205,0.10065379994921386,0.7507263000588864
RSVPLG03,JM,20260311-092404,1.0.2,20251105-084826,802,Experiment,T1,1,Automatic,main,79,20260311-093154,global,global,750,H,S,A,A,H-A.png,S-A.png,hH,sS,mask-2.png,mask-2.png,h,1,0.6567965000867844,none,-5,0,0.04771380010060966,0.04722449998371303,0.10027960012666881,0.1004808999132365,0.7508575001265854
RSVPLG03,JM,20260311-092404,1.0.2,20251105-084826,802,Experiment,T1,1,Automatic,main,80,20260311-093159,global,local,750,S,H,E,E,S-E.png,E-H.png,sS,hH,mask-4.png,mask-3.png,s,1,0.4265568000264466,none,-5,0,0.04750610003247857,0.047510100062936544,0.09955190005712211,0.09946930012665689,0.7498212000355124
RSVPLG03,JM,20260311-092404,1.0.2,20251105-084826,802,Experiment,T1,1,Automatic,main,81,20260311-093203,global,global,300,S,H,E,E,S-E.png,H-E.png,sS,hH,mask-2.png,mask-3.png,s,1,0.5368633000180125,none,-5,0,0.046699400059878826,0.04879059991799295,0.10065690008923411,0.10094799986109138,0.2986475001089275
RSVPLG03,JM,20260311-092404,1.0.2,20251105-084826,802,Experiment,T1,1,Automatic,main,82,20260311-093207,local,local,300,S,S,E,E,E-S.png,E-S.png,sS,sS,mask-2.png,mask-4.png,s,1,0.3464488999452442,none,-5,0,0.04652790003456175,0.048497899901121855,0.09854799997992814,0.10149319982156157,0.2988301001023501
RSVPLG03,JM,20260311-092404,1.0.2,20251105-084826,802,Experiment,T1,1,Automatic,main,83,20260311-093211,local,local,750,S,S,A,A,A-S.png,A-S.png,sS,sS,mask-1.png,mask-1.png,s,1,0.6551323998719454,none,-5,0,0.04750419990159571,0.04767469991929829,0.09899019985459745,0.09985799994319677,0.749523299979046
RSVPLG03,JM,20260311-092404,1.0.2,20251105-084826,802,Experiment,T1,1,Automatic,main,84,20260311-093216,global,local,300,S,H,A,A,S-A.png,A-H.png,sS,hH,mask-3.png,mask-3.png,h,0,0.37146960012614727,none,-5,0,0.04720399994403124,0.04742940003052354,0.09848130005411804,0.10053369984962046,0.29955870006233454
RSVPLG03,JM,20260311-092404,1.0.2,20251105-084826,802,Experiment,T1,1,Automatic,main,85,20260311-093220,local,local,750,H,H,E,A,E-H.png,A-H.png,hH,hH,mask-1.png,mask-1.png,h,1,0.06286250008270144,none,-5,0,0.04768530000001192,0.0486839001532644,0.10088100004941225,0.09974350011907518,0.7500936998985708
RSVPLG03,JM,20260311-092404,1.0.2,20251105-084826,802,Experiment,T1,1,Automatic,main,86,20260311-093224,local,global,750,H,S,E,E,E-H.png,S-E.png,hH,sS,mask-2.png,mask-3.png,h,1,0.35054820007644594,none,-5,0,0.047826699912548065,0.04775179992429912,0.10002289991825819,0.09897259995341301,0.7519684000872076
RSVPLG03,JM,20260311-092404,1.0.2,20251105-084826,802,Experiment,T1,1,Automatic,main,87,20260311-093228,global,global,300,H,S,E,A,H-E.png,S-A.png,hH,sS,mask-1.png,mask-1.png,s,0,0.39834509999491274,none,-5,0,0.047691999934613705,0.047722699819132686,0.0998889000620693,0.09990060003474355,0.30022120010107756
RSVPLG03,JM,20260311-092404,1.0.2,20251105-084826,802,Experiment,T1,1,Automatic,main,88,20260311-093232,local,local,750,H,S,E,A,E-H.png,A-S.png,hH,sS,mask-2.png,mask-1.png,h,1,0.29986870009452105,none,-5,0,0.04755169991403818,0.04761760006658733,0.09969950001686811,0.09966120007447898,0.7500483000185341
RSVPLG03,JM,20260311-092404,1.0.2,20251105-084826,802,Experiment,T1,1,Automatic,main,89,20260311-093237,global,local,750,H,H,A,A,H-A.png,A-H.png,hH,hH,mask-3.png,mask-1.png,s,0,0.4905964999925345,none,-5,0,0.0476695999968797,0.048629799857735634,0.09984800009988248,0.10164389992132783,0.7488590001594275
RSVPLG03,JM,20260311-092404,1.0.2,20251105-084826,802,Experiment,T1,1,Automatic,main,90,20260311-093241,global,global,750,H,S,E,E,H-E.png,S-E.png,hH,sS,mask-1.png,mask-3.png,s,0,0.46376960002817214,none,-5,0,0.04658559989184141,0.04853679984807968,0.09982699993997812,0.09997519990429282,0.7498534000478685
RSVPLG03,JM,20260311-092404,1.0.2,20251105-084826,802,Experiment,T1,1,Automatic,main,91,20260311-093246,global,local,750,H,S,A,E,H-A.png,E-S.png,hH,sS,mask-3.png,mask-4.png,s,0,0.42133889999240637,none,-5,0,0.04765780013985932,0.04769619996659458,0.09986259997822344,0.09976150002330542,0.7499033999629319
RSVPLG03,JM,20260311-092404,1.0.2,20251105-084826,802,Experiment,T1,1,Automatic,main,92,20260311-093250,global,global,750,H,H,A,E,H-A.png,H-E.png,hH,hH,mask-3.png,mask-2.png,h,1,0.8129174001514912,none,-5,0,0.04775379993952811,0.049050699919462204,0.09976250003091991,0.09996209992095828,0.7497751000337303
RSVPLG03,JM,20260311-092404,1.0.2,20251105-084826,802,Experiment,T1,1,Automatic,main,93,20260311-093255,global,local,750,S,S,A,E,S-A.png,E-S.png,sS,sS,mask-3.png,mask-2.png,s,1,0.42071800003759563,none,-5,0,0.0457892999984324,0.04850929998792708,0.09864469990134239,0.1005865999031812,0.7493223999626935
RSVPLG03,JM,20260311-092404,1.0.2,20251105-084826,802,Experiment,T1,1,Automatic,main,94,20260311-093259,local,local,750,S,H,A,E,A-S.png,E-H.png,sS,hH,mask-3.png,mask-4.png,s,1,0.1977158000227064,none,-5,0,0.04764709994196892,0.04667970002628863,0.09979819995351136,0.09919400000944734,0.7508715998847038
RSVPLG03,JM,20260311-092404,1.0.2,20251105-084826,802,Experiment,T1,1,Automatic,main,95,20260311-093303,global,global,750,H,H,E,A,H-E.png,H-A.png,hH,hH,mask-3.png,mask-2.png,s,0,0.8141087000258267,none,-5,0,0.04653809987939894,0.04751110007055104,0.09971520002000034,0.10068020015023649,0.7489608998876065
RSVPLG03,JM,20260311-092404,1.0.2,20251105-084826,802,Experiment,T1,1,Automatic,main,96,20260311-093308,local,global,300,H,H,A,A,A-H.png,H-A.png,hH,hH,mask-4.png,mask-3.png,h,1,0.3841317999176681,none,-5,0,0.04582890006713569,0.04756679991260171,0.09876330010592937,0.10066100000403821,0.2991061001084745
RSVPLG03,JM,20260311-092404,1.0.2,20251105-084826,802,Experiment,T1,1,Automatic,main,97,20260311-093312,local,local,300,S,S,A,A,A-S.png,A-S.png,sS,sS,mask-1.png,mask-3.png,s,1,0.28895189985632896,none,-5,0,0.047604599967598915,0.04752000002190471,0.10059469984844327,0.10065140016376972,0.29979889979586005
RSVPLG03,JM,20260311-092404,1.0.2,20251105-084826,802,Experiment,T1,1,Automatic,main,98,20260311-093316,local,local,750,S,S,E,A,E-S.png,A-S.png,sS,sS,mask-2.png,mask-1.png,s,1,0.15977369993925095,none,-5,0,0.047500899992883205,0.048142600106075406,0.09872219990938902,0.10121569992043078,0.7492871999274939
RSVPLG03,JM,20260311-092404,1.0.2,20251105-084826,802,Experiment,T1,1,Automatic,main,99,20260311-093320,local,local,750,H,S,A,A,A-H.png,A-S.png,hH,sS,mask-4.png,mask-2.png,s,0,0.08738879999145865,none,-5,0,0.04850980010814965,0.04652650002390146,0.10151690011844039,0.09952819999307394,0.7516252999193966
RSVPLG03,JM,20260311-092404,1.0.2,20251105-084826,802,Experiment,T1,1,Automatic,main,100,20260311-093324,local,local,750,S,S,A,A,A-S.png,A-S.png,sS,sS,mask-4.png,mask-4.png,s,1,0.33460129983723164,none,-5,0,0.04756990005262196,0.046911299927160144,0.10152580006979406,0.10005029989406466,0.7503446000628173
RSVPLG03,JM,20260311-093458,1.0.2,20251105-084826,802,Experiment,Both,1,Automatic,warmup,1,20260311-093532,global,local,750,H,S,E,A,H-E.png,A-S.png,hH,sS,mask-3.png,mask-4.png,h,1,1.429992699995637,s,1,0.040597200160846114,0.04011470009572804,0.04747679992578924,0.09388469997793436,0.09946159995160997,0.739892200101167
RSVPLG03,JM,20260311-093458,1.0.2,20251105-084826,802,Experiment,Both,1,Automatic,warmup,2,20260311-093537,local,local,300,H,H,E,E,E-H.png,E-H.png,hH,hH,mask-1.png,mask-3.png,h,1,0.5974387000314891,s,0,0.05222499999217689,0.047680299961939454,0.04611160000786185,0.09987569996155798,0.09919150010682642,0.2989242998883128
RSVPLG03,JM,20260311-093458,1.0.2,20251105-084826,802,Experiment,Both,1,Automatic,warmup,3,20260311-093542,local,global,300,H,S,E,E,E-H.png,S-E.png,hH,sS,mask-3.png,mask-2.png,h,1,0.5472361000720412,h,0,0.05444049998186529,0.04778909985907376,0.04570299992337823,0.09997290000319481,0.09789330000057817,0.29955870006233454
RSVPLG03,JM,20260311-093458,1.0.2,20251105-084826,802,Experiment,Both,1,Automatic,warmup,4,20260311-093546,local,global,750,S,S,A,A,A-S.png,S-A.png,sS,sS,mask-2.png,mask-4.png,s,1,0.5241966999601573,s,1,0.07813079981133342,0.04668580018915236,0.04566850000992417,0.09967040014453232,0.09984849998727441,0.747767599998042
RSVPLG03,JM,20260311-093458,1.0.2,20251105-084826,802,Experiment,Both,1,Automatic,main,5,20260311-093551,global,local,300,S,S,A,E,S-A.png,E-S.png,sS,sS,mask-4.png,mask-2.png,s,1,0.42608470004051924,s,1,0.0890520999673754,0.046737599885091186,0.046712599927559495,0.09893699991516769,0.09990859986282885,0.29960309993475676
RSVPLG03,JM,20260311-093458,1.0.2,20251105-084826,802,Experiment,Both,1,Automatic,main,6,20260311-093555,local,local,300,S,S,A,E,A-S.png,E-S.png,sS,sS,mask-2.png,mask-4.png,s,1,0.1986195999197662,s,1,0.07686419994570315,0.0470075998455286,0.04751889989711344,0.10011180001311004,0.09882880002260208,0.29940979997627437
RSVPLG03,JM,20260311-093458,1.0.2,20251105-084826,802,Experiment,Both,1,Automatic,main,7,20260311-093559,global,global,750,S,H,A,E,S-A.png,H-E.png,sS,hH,mask-3.png,mask-4.png,s,1,0.5304260000120848,s,0,0.06911570020020008,0.04702050006017089,0.04756129998713732,0.09936170000582933,0.09855999983847141,0.747407500166446
RSVPLG03,JM,20260311-093458,1.0.2,20251105-084826,802,Experiment,Both,1,Automatic,main,8,20260311-093603,local,global,300,S,S,A,A,A-S.png,S-A.png,sS,sS,mask-3.png,mask-1.png,s,1,0.4933177998755127,h,0,0.011625499930232763,0.04752409993670881,0.045629699947312474,0.09883389994502068,0.09951970004476607,0.2994856999721378
RSVPLG03,JM,20260311-093458,1.0.2,20251105-084826,802,Experiment,Both,1,Automatic,main,9,20260311-093607,global,local,750,S,S,E,E,S-E.png,E-S.png,sS,sS,mask-2.png,mask-4.png,s,1,0.3626969000324607,s,1,0.0764558999799192,0.046548900194466114,0.04854529979638755,0.09857810009270906,0.10028539993800223,0.7462928001768887
RSVPLG03,JM,20260311-093458,1.0.2,20251105-084826,802,Experiment,Both,1,Automatic,main,10,20260311-093612,global,global,750,H,S,E,A,H-E.png,S-A.png,hH,sS,mask-2.png,mask-4.png,s,0,0.32461169990710914,s,1,0.07590440008789301,0.0485253999941051,0.04770169989205897,0.10059589985758066,0.09988729981705546,0.7468816000036895
RSVPLG03,JM,20260311-093458,1.0.2,20251105-084826,802,Experiment,Both,1,Automatic,main,11,20260311-093616,local,global,300,S,H,E,A,E-S.png,H-A.png,sS,hH,mask-2.png,mask-3.png,s,1,0.6398802001494914,h,1,0.5245877001434565,0.0475360001437366,0.04751789988949895,0.09955220017582178,0.09850630001164973,0.2997904000803828
RSVPLG03,JM,20260311-093458,1.0.2,20251105-084826,802,Experiment,Both,1,Automatic,main,12,20260311-093621,local,global,750,H,S,A,E,A-H.png,S-E.png,hH,sS,mask-2.png,mask-3.png,h,1,0.35873840004205704,s,1,0.025366400135681033,0.04754450009204447,0.04640220012515783,0.09958419995382428,0.09859970002435148,0.7481978998985142
RSVPLG03,JM,20260311-093458,1.0.2,20251105-084826,802,Experiment,Both,1,Automatic,main,13,20260311-093625,global,global,750,H,H,A,A,H-A.png,H-A.png,hH,hH,mask-2.png,mask-4.png,s,0,0.4693185000214726,s,0,0.03534039994701743,0.04680070001631975,0.04692270001396537,0.09878309979103506,0.09924229979515076,0.7464368999935687
RSVPLG03,JM,20260311-093458,1.0.2,20251105-084826,802,Experiment,Both,1,Automatic,main,14,20260311-093630,global,global,750,H,S,E,A,H-E.png,S-A.png,hH,sS,mask-1.png,mask-3.png,h,1,0.44848309992812574,s,1,0.009937299881130457,0.047834400087594986,0.046537799993529916,0.09974330011755228,0.10052420012652874,0.7479566999245435
RSVPLG03,JM,20260311-093458,1.0.2,20251105-084826,802,Experiment,Both,1,Automatic,main,15,20260311-093635,local,global,300,S,H,E,A,E-S.png,H-A.png,sS,hH,mask-2.png,mask-2.png,s,1,0.330246000085026,h,1,0.026982999872416258,0.04673830000683665,0.045705199940130115,0.1001224999781698,0.09873229986988008,0.2997520000208169
RSVPLG03,JM,20260311-093458,1.0.2,20251105-084826,802,Experiment,Both,1,Automatic,main,16,20260311-093639,local,global,750,H,H,A,A,A-H.png,H-A.png,hH,hH,mask-4.png,mask-2.png,h,1,0.5611590000335127,s,0,0.037573100067675114,0.04761529993265867,0.04570170002989471,0.09983609989285469,0.09786310000345111,0.7481875999365002
RSVPLG03,JM,20260311-093458,1.0.2,20251105-084826,802,Experiment,Both,1,Automatic,main,17,20260311-093643,local,global,750,H,S,A,A,A-H.png,S-A.png,hH,sS,mask-3.png,mask-1.png,h,1,0.8915625000372529,s,1,0.06008999980986118,0.047656199894845486,0.04773369990289211,0.09919329988770187,0.09896089998073876,0.7473605999257416
RSVPLG03,JM,20260311-093458,1.0.2,20251105-084826,802,Experiment,Both,1,Automatic,main,18,20260311-093648,local,global,750,H,H,E,A,E-H.png,H-A.png,hH,hH,mask-3.png,mask-1.png,h,1,0.4351762000005692,s,0,0.056786500150337815,0.046681700041517615,0.045662600081413984,0.09989430010318756,0.09984329994767904,0.7477967999875546
RSVPLG03,JM,20260311-093458,1.0.2,20251105-084826,802,Experiment,Both,1,Automatic,main,19,20260311-093653,global,local,300,H,H,A,A,H-A.png,A-H.png,hH,hH,mask-1.png,mask-3.png,h,1,0.876967600081116,h,1,0.02292639994993806,0.047506799921393394,0.047518600011244416,0.10038390010595322,0.10051939985714853,0.2979405000805855
RSVPLG03,JM,20260311-093458,1.0.2,20251105-084826,802,Experiment,Both,1,Automatic,main,20,20260311-093657,local,global,300,S,H,A,A,A-S.png,H-A.png,sS,hH,mask-3.png,mask-3.png,s,1,0.4623913001269102,s,0,0.08268520003184676,0.04753839992918074,0.04753590002655983,0.09901900007389486,0.0998114999383688,0.29872229997999966
RSVPLG03,JM,20260311-093458,1.0.2,20251105-084826,802,Experiment,Both,1,Automatic,main,21,20260311-093701,global,local,300,H,H,A,A,H-A.png,A-H.png,hH,hH,mask-4.png,mask-4.png,s,0,0.5376968001946807,s,0,0.07244630018249154,0.047923200065270066,0.04752639983780682,0.09919090010225773,0.10058859991841018,0.29867770010605454
RSVPLG03,JM,20260311-093458,1.0.2,20251105-084826,802,Experiment,Both,1,Automatic,main,22,20260311-093705,global,local,300,H,S,E,E,H-E.png,E-S.png,hH,sS,mask-4.png,mask-2.png,h,1,0.4794008999597281,s,1,0.037306300131604075,0.04759850003756583,0.04767380002886057,0.09960630000568926,0.09985390002839267,0.2982298000715673
RSVPLG03,JM,20260311-093458,1.0.2,20251105-084826,802,Experiment,Both,1,Automatic,main,23,20260311-093710,global,global,300,H,H,E,A,H-E.png,H-A.png,hH,hH,mask-4.png,mask-4.png,h,1,0.9409014999400824,s,0,0.060685900039970875,0.04851379990577698,0.04554259986616671,0.10035759978927672,0.09857219993136823,0.3006323999725282
RSVPLG03,JM,20260311-093458,1.0.2,20251105-084826,802,Experiment,Both,1,Automatic,main,24,20260311-093714,local,local,300,S,H,E,A,E-S.png,A-H.png,sS,hH,mask-3.png,mask-1.png,s,1,0.4521619000006467,s,0,0.05171689996495843,0.0456449999473989,0.04734930000267923,0.0988257999997586,0.10018279985524714,0.29750180011615157
RSVPLG03,JM,20260311-093458,1.0.2,20251105-084826,802,Experiment,Both,1,Automatic,main,25,20260311-093718,local,local,750,S,S,A,E,A-S.png,E-S.png,sS,sS,mask-4.png,mask-4.png,s,1,0.3225483999121934,s,1,0.07059390004724264,0.04767149989493191,0.04592090006917715,0.09989169985055923,0.09996770019643009,0.7477328998502344
RSVPLG03,JM,20260311-093458,1.0.2,20251105-084826,802,Experiment,Both,1,Automatic,main,26,20260311-093743,local,global,750,H,S,E,E,E-H.png,S-E.png,hH,sS,mask-4.png,mask-2.png,h,1,0.191849899943918,s,1,0.0973624000325799,0.04804569995030761,0.04667499987408519,0.10028839996084571,0.0997874999884516,0.7477241000160575
RSVPLG03,JM,20260311-093458,1.0.2,20251105-084826,802,Experiment,Both,1,Automatic,main,27,20260311-093747,global,local,300,H,S,A,A,H-A.png,A-S.png,hH,sS,mask-3.png,mask-4.png,s,0,2.090650500031188,s,1,0.056535599986091256,0.04763100016862154,0.04761549993418157,0.09963830001652241,0.1004603998735547,0.29807130014523864
RSVPLG03,JM,20260311-093458,1.0.2,20251105-084826,802,Experiment,Both,1,Automatic,main,28,20260311-093753,global,global,300,S,H,E,A,S-E.png,H-A.png,sS,hH,mask-3.png,mask-3.png,s,1,0.794448500033468,h,1,0.05657660006545484,0.04656969988718629,0.04750879993662238,0.10027990001253784,0.10049869981594384,0.2986526000313461
RSVPLG03,JM,20260311-093458,1.0.2,20251105-084826,802,Experiment,Both,1,Automatic,main,29,20260311-093757,global,global,750,H,S,A,A,H-A.png,S-A.png,hH,sS,mask-3.png,mask-3.png,h,1,0.7078577000647783,h,0,0.05629789992235601,0.04753629979677498,0.04758739983662963,0.09955749986693263,0.09851389983668923,0.7477168999612331
RSVPLG03,JM,20260311-093458,1.0.2,20251105-084826,802,Experiment,Both,1,Automatic,main,30,20260311-093802,global,global,750,H,H,E,A,H-E.png,H-A.png,hH,hH,mask-4.png,mask-3.png,s,0,1.4848239999264479,s,0,0.056286000180989504,0.047664300072938204,0.04871329991146922,0.09984300006181002,0.0999070000834763,0.7463768001180142
RSVPLG03,JM,20260311-093458,1.0.2,20251105-084826,802,Experiment,Both,1,Automatic,main,31,20260311-093808,global,local,300,S,S,E,A,S-E.png,A-S.png,sS,sS,mask-4.png,mask-3.png,s,1,0.286181699950248,s,1,0.05637370003387332,0.04754590010270476,0.04877009987831116,0.09986259997822344,0.09997810004279017,0.2985028000548482
RSVPLG03,JM,20260311-093458,1.0.2,20251105-084826,802,Experiment,Both,1,Automatic,main,32,20260311-093812,global,local,750,S,H,E,A,S-E.png,A-H.png,sS,hH,mask-1.png,mask-4.png,s,1,0.17012979998253286,h,1,0.059278500033542514,0.04675250011496246,0.04773460002616048,0.10095009999349713,0.09993689996190369,0.7469260001089424
RSVPLG03,JM,20260311-093458,1.0.2,20251105-084826,802,Experiment,Both,1,Automatic,main,33,20260311-093816,global,global,300,S,H,A,A,S-A.png,H-A.png,sS,hH,mask-3.png,mask-2.png,s,1,0.4814627000596374,s,0,0.11893889983184636,0.04773580003529787,0.047479999950155616,0.099978799931705,0.09968500002287328,0.2986272999551147
RSVPLG03,JM,20260311-093458,1.0.2,20251105-084826,802,Experiment,Both,1,Automatic,main,34,20260311-093820,global,global,750,S,S,A,E,S-A.png,S-E.png,sS,sS,mask-1.png,mask-4.png,h,0,1.1214530998840928,s,1,0.0041814998257905245,0.045709599973633885,0.0467117999214679,0.09789200010709465,0.09894739999435842,0.7466633000876755
RSVPLG03,JM,20260311-093458,1.0.2,20251105-084826,802,Experiment,Both,1,Automatic,main,35,20260311-093826,global,global,750,H,H,A,E,H-A.png,H-E.png,hH,hH,mask-4.png,mask-4.png,s,0,0.4703810999635607,s,0,0.07636810000985861,0.0457027000375092,0.047446100041270256,0.0979220001026988,0.09993709996342659,0.7451518999878317
RSVPLG03,JM,20260311-093458,1.0.2,20251105-084826,802,Experiment,Both,1,Automatic,main,36,20260311-093830,local,global,300,S,H,A,E,A-S.png,H-E.png,sS,hH,mask-4.png,mask-1.png,s,1,1.727481900015846,s,0,0.06787870009429753,0.04493089998140931,0.048948199953883886,0.09820510004647076,0.1006249999627471,0.29729650006629527
RSVPLG03,JM,20260311-093458,1.0.2,20251105-084826,802,Experiment,Both,1,Automatic,main,37,20260311-093836,local,local,300,S,S,A,A,A-S.png,A-S.png,sS,sS,mask-3.png,mask-3.png,s,1,0.7163468000944704,h,0,0.011807600036263466,0.0466989001724869,0.0478364999871701,0.09887760016135871,0.10029400000348687,0.2969097001478076
RSVPLG03,JM,20260311-093458,1.0.2,20251105-084826,802,Experiment,Both,1,Automatic,main,38,20260311-093840,local,global,750,H,H,E,A,E-H.png,H-A.png,hH,hH,mask-1.png,mask-3.png,h,1,0.3441896999720484,s,0,0.011269700014963746,0.04572529997676611,0.047558699967339635,0.09922410012222826,0.0986542000900954,0.7464743999298662
RSVPLG03,JM,20260311-093458,1.0.2,20251105-084826,802,Experiment,Both,1,Automatic,main,39,20260311-093845,global,local,750,S,S,A,A,S-A.png,A-S.png,sS,sS,mask-3.png,mask-2.png,s,1,0.32001079991459846,s,1,0.05660470016300678,0.04564679996110499,0.04660420003347099,0.09726370009593666,0.09850080008618534,0.7461105000693351
RSVPLG03,JM,20260311-093458,1.0.2,20251105-084826,802,Experiment,Both,1,Automatic,main,40,20260311-093849,local,global,300,S,H,E,A,E-S.png,H-A.png,sS,hH,mask-1.png,mask-4.png,s,1,0.3986543999053538,s,0,0.052716400008648634,0.047671099891886115,0.04708679998293519,0.10086379991844296,0.09827259997837245,0.3005327999126166
RSVPLG03,JM,20260311-093458,1.0.2,20251105-084826,802,Experiment,Both,1,Automatic,main,41,20260311-093853,global,local,750,S,H,E,E,S-E.png,E-H.png,sS,hH,mask-2.png,mask-4.png,s,1,0.25515860016457736,h,1,0.039632200030609965,0.046383599983528256,0.04759810003452003,0.09935760009102523,0.09963060007430613,0.7454639000352472
RSVPLG03,JM,20260311-093458,1.0.2,20251105-084826,802,Experiment,Both,1,Automatic,main,42,20260311-093858,global,local,750,S,S,A,A,S-A.png,A-S.png,sS,sS,mask-1.png,mask-3.png,s,1,0.4009525999426842,s,1,0.06912039988674223,0.048531899927183986,0.04753900016658008,0.0995823999401182,0.09955060016363859,0.7479951998684555
RSVPLG03,JM,20260311-093458,1.0.2,20251105-084826,802,Experiment,Both,1,Automatic,main,43,20260311-093902,local,local,300,S,H,E,A,E-S.png,A-H.png,sS,hH,mask-3.png,mask-1.png,s,1,0.39676609984599054,h,1,0.04392979992553592,0.04570500017143786,0.048503699945285916,0.09902980015613139,0.10082509997300804,0.2970736001152545
RSVPLG03,JM,20260311-093458,1.0.2,20251105-084826,802,Experiment,Both,1,Automatic,main,44,20260311-093906,local,global,750,H,H,E,E,E-H.png,H-E.png,hH,hH,mask-1.png,mask-4.png,h,1,0.35352850006893277,s,0,0.06024360004812479,0.04856729996390641,0.04699359997175634,0.09969739988446236,0.09903509984724224,0.7477118000388145
RSVPLG03,JM,20260311-093458,1.0.2,20251105-084826,802,Experiment,Both,1,Automatic,main,45,20260311-093911,local,global,300,H,S,A,E,A-H.png,S-E.png,hH,sS,mask-3.png,mask-3.png,h,1,0.6090510000940412,s,1,0.0216194000095129,0.04750660015270114,0.04752789996564388,0.09853130020201206,0.10053619998507202,0.2979541001841426
RSVPLG03,JM,20260311-093458,1.0.2,20251105-084826,802,Experiment,Both,1,Automatic,main,46,20260311-093915,local,local,750,S,S,A,E,A-S.png,E-S.png,sS,sS,mask-3.png,mask-3.png,h,0,1.3098561000078917,h,0,0.058846999891102314,0.04754389985464513,0.04760859999805689,0.0998738999478519,0.0996193999890238,0.7474115998484194
RSVPLG03,JM,20260311-093458,1.0.2,20251105-084826,802,Experiment,Both,1,Automatic,main,47,20260311-093920,global,local,300,H,H,E,E,H-E.png,E-H.png,hH,hH,mask-4.png,mask-2.png,h,1,0.5612055000383407,s,0,0.03637540014460683,0.0475169001147151,0.04755400004796684,0.09953309991396964,0.10063290013931692,0.297818599967286
RSVPLG03,JM,20260311-093458,1.0.2,20251105-084826,802,Experiment,Both,1,Automatic,main,48,20260311-093924,local,global,750,H,H,A,E,A-H.png,H-E.png,hH,hH,mask-1.png,mask-4.png,h,1,0.5324785001575947,h,1,0.05732779996469617,0.047505599912256,0.04856229992583394,0.09955170005559921,0.09998129983432591,0.7467056000605226
RSVPLG03,JM,20260311-093458,1.0.2,20251105-084826,802,Experiment,Both,1,Automatic,main,49,20260311-093929,local,global,300,H,S,E,A,E-H.png,S-A.png,hH,sS,mask-4.png,mask-4.png,h,1,0.5081098000518978,s,1,0.020288300001993775,0.047527199843898416,0.047631399938836694,0.09954710002057254,0.09963660011999309,0.2988191999029368
RSVPLG03,JM,20260311-093458,1.0.2,20251105-084826,802,Experiment,Both,1,Automatic,main,50,20260311-093933,local,global,750,H,H,E,A,E-H.png,H-A.png,hH,hH,mask-4.png,mask-3.png,h,1,0.5206299000419676,h,1,0.07670379988849163,0.04750889982096851,0.047810399904847145,0.09951119986362755,0.09990080003626645,0.7462190999649465
RSVPLG03,JM,20260311-093458,1.0.2,20251105-084826,802,Experiment,Both,1,Automatic,main,51,20260311-093956,global,local,300,H,H,E,A,H-E.png,A-H.png,hH,hH,mask-3.png,mask-2.png,h,1,0.5060757000464946,s,0,0.05664189998060465,0.047622600104659796,0.04673799988813698,0.09986600000411272,0.09794160001911223,0.29996570013463497
RSVPLG03,JM,20260311-093458,1.0.2,20251105-084826,802,Experiment,Both,1,Automatic,main,52,20260311-094000,local,local,300,S,H,A,E,A-S.png,E-H.png,sS,hH,mask-1.png,mask-4.png,h,0,1.1675398999359459,s,0,0.07271219999529421,0.0476929999422282,0.046671900199726224,0.09989780001342297,0.10069170012138784,0.2986607998609543
RSVPLG03,JM,20260311-093458,1.0.2,20251105-084826,802,Experiment,Both,1,Automatic,main,53,20260311-094005,local,local,750,S,H,A,A,A-S.png,A-H.png,sS,hH,mask-2.png,mask-1.png,s,1,0.4085104998666793,h,1,0.054229100001975894,0.047504200134426355,0.046530599938705564,0.10052580013871193,0.09855460003018379,0.7474774001166224
RSVPLG03,JM,20260311-093458,1.0.2,20251105-084826,802,Experiment,Both,1,Automatic,main,54,20260311-094009,global,local,750,H,S,A,A,H-A.png,A-S.png,hH,sS,mask-3.png,mask-4.png,h,1,0.6116866001393646,h,0,0.07349599990993738,0.047004499938338995,0.04752789996564388,0.10001539997756481,0.1015238999389112,0.7462120000272989
RSVPLG03,JM,20260311-093458,1.0.2,20251105-084826,802,Experiment,Both,1,Automatic,main,55,20260311-094014,local,local,750,S,S,E,E,E-S.png,E-S.png,sS,sS,mask-4.png,mask-2.png,s,1,0.744789200136438,s,1,0.05552269984036684,0.04660270013846457,0.0475447999779135,0.0986587000079453,0.09958859998732805,0.7474589000921696
RSVPLG03,JM,20260311-093458,1.0.2,20251105-084826,802,Experiment,Both,1,Automatic,main,56,20260311-094019,global,global,750,S,S,E,E,S-E.png,S-E.png,sS,sS,mask-2.png,mask-3.png,s,1,0.3884513000957668,s,1,0.051661199890077114,0.046927800169214606,0.046818200033158064,0.09918759996071458,0.09801429999060929,0.7482853000983596
RSVPLG03,JM,20260311-093458,1.0.2,20251105-084826,802,Experiment,Both,1,Automatic,main,57,20260311-094023,global,local,750,S,H,E,E,S-E.png,E-H.png,sS,hH,mask-3.png,mask-2.png,s,1,0.7330942000262439,h,1,0.02766030002385378,0.04681590013206005,0.04772120015695691,0.09905109996907413,0.09991790005005896,0.7467531999573112
RSVPLG03,JM,20260311-093458,1.0.2,20251105-084826,802,Experiment,Both,1,Automatic,main,58,20260311-094028,local,local,750,H,H,E,E,E-H.png,E-H.png,hH,hH,mask-2.png,mask-3.png,s,0,0.5089947001542896,s,0,0.06883700005710125,0.04784020013175905,0.047690399922430515,0.1009984000120312,0.09986769990064204,0.7468231001403183
RSVPLG03,JM,20260311-093458,1.0.2,20251105-084826,802,Experiment,Both,1,Automatic,main,59,20260311-094033,local,local,300,H,H,E,A,E-H.png,A-H.png,hH,hH,mask-1.png,mask-2.png,h,1,0.8150637000799179,s,0,0.05254250019788742,0.04667369998060167,0.04761869995854795,0.09894229983910918,0.09967299993149936,0.2986942999996245
RSVPLG03,JM,20260311-093458,1.0.2,20251105-084826,802,Experiment,Both,1,Automatic,main,60,20260311-094037,local,local,750,H,S,A,A,A-H.png,A-S.png,hH,sS,mask-3.png,mask-4.png,h,1,0.6120106999296695,s,1,0.036988499807193875,0.047640099888667464,0.045879899989813566,0.09870069986209273,0.097887699957937,0.7477054998744279
RSVPLG03,JM,20260311-093458,1.0.2,20251105-084826,802,Experiment,Both,1,Automatic,main,61,20260311-094042,local,global,300,S,S,E,E,E-S.png,S-E.png,sS,sS,mask-4.png,mask-1.png,h,0,0.5271479999646544,h,0,0.07706070016138256,0.046779700089246035,0.04872580012306571,0.10006799991242588,0.10001539997756481,0.2984195000026375
RSVPLG03,JM,20260311-093458,1.0.2,20251105-084826,802,Experiment,Both,1,Automatic,main,62,20260311-094046,global,local,300,H,S,A,E,H-A.png,E-S.png,hH,sS,mask-3.png,mask-4.png,h,1,0.40109119983389974,s,1,0.04229949996806681,0.046516000060364604,0.046709700021892786,0.10051879985257983,0.09763839980587363,0.299800300039351
RSVPLG03,JM,20260311-093458,1.0.2,20251105-084826,802,Experiment,Both,1,Automatic,main,63,20260311-094050,global,global,300,H,S,E,E,H-E.png,S-E.png,hH,sS,mask-1.png,mask-4.png,h,1,0.35025710007175803,s,1,0.009105399949476123,0.04722040006890893,0.04662910010665655,0.09926810022443533,0.09924630005843937,0.29815390007570386
RSVPLG03,JM,20260311-093458,1.0.2,20251105-084826,802,Experiment,Both,1,Automatic,main,64,20260311-094054,local,local,300,S,S,E,E,E-S.png,E-S.png,sS,sS,mask-4.png,mask-1.png,s,1,0.435558500001207,s,1,0.07236410002224147,0.045511099975556135,0.04849429987370968,0.09854319994337857,0.10045899986289442,0.2969987001270056
RSVPLG03,JM,20260311-093458,1.0.2,20251105-084826,802,Experiment,Both,1,Automatic,main,65,20260311-094058,local,global,300,H,H,E,E,E-H.png,H-E.png,hH,hH,mask-2.png,mask-4.png,h,1,0.8966540000401437,s,0,0.060921600088477135,0.04754019994288683,0.04749190015718341,0.09964219992980361,0.09986159997060895,0.29772629984654486
RSVPLG03,JM,20260311-093458,1.0.2,20251105-084826,802,Experiment,Both,1,Automatic,main,66,20260311-094103,local,global,750,H,S,E,E,E-H.png,S-E.png,hH,sS,mask-1.png,mask-3.png,s,0,0.3544681998901069,s,1,0.06073529995046556,0.04751459998078644,0.04752890020608902,0.10051499982364476,0.10156390001066029,0.7459876998327672
RSVPLG03,JM,20260311-093458,1.0.2,20251105-084826,802,Experiment,Both,1,Automatic,main,67,20260311-094107,global,global,750,H,H,E,E,H-E.png,H-E.png,hH,hH,mask-4.png,mask-3.png,s,0,0.6871396999340504,h,1,0.010515500092878938,0.048446099972352386,0.047824999783188105,0.10032930015586317,0.10011329990811646,0.7469624001532793
RSVPLG03,JM,20260311-093458,1.0.2,20251105-084826,802,Experiment,Both,1,Automatic,main,68,20260311-094112,local,local,750,H,H,E,A,E-H.png,A-H.png,hH,hH,mask-4.png,mask-3.png,h,1,0.6628937001805753,s,0,0.556114099919796,0.048520099837332964,0.049368999898433685,0.1005282998085022,0.10041019995696843,0.7460368999745697
RSVPLG03,JM,20260311-093458,1.0.2,20251105-084826,802,Experiment,Both,1,Automatic,main,69,20260311-094117,global,local,750,S,H,A,A,S-A.png,A-H.png,sS,hH,mask-3.png,mask-4.png,s,1,0.7317781001329422,h,1,0.11838710005395114,0.0456018999684602,0.04851029999554157,0.09863130003213882,0.10056519997306168,0.745502500096336
RSVPLG03,JM,20260311-093458,1.0.2,20251105-084826,802,Experiment,Both,1,Automatic,main,70,20260311-094122,global,local,750,S,H,A,E,S-A.png,E-H.png,sS,hH,mask-4.png,mask-2.png,s,1,0.6627875999547541,h,1,0.029486499959602952,0.0469802999868989,0.0478090001270175,0.10018249996937811,0.1002074999269098,0.7470372999086976
RSVPLG03,JM,20260311-093458,1.0.2,20251105-084826,802,Experiment,Both,1,Automatic,main,71,20260311-094127,local,local,750,H,H,E,A,E-H.png,A-H.png,hH,hH,mask-2.png,mask-2.png,h,1,0.39953420008532703,s,0,0.027496200054883957,0.04627779987640679,0.046981200110167265,0.09975020005367696,0.09992070007137954,0.7467239999677986
RSVPLG03,JM,20260311-093458,1.0.2,20251105-084826,802,Experiment,Both,1,Automatic,main,72,20260311-094132,global,local,300,H,H,A,E,H-A.png,E-H.png,hH,hH,mask-1.png,mask-1.png,h,1,0.9342308000195771,h,1,0.04020550008863211,0.047576599987223744,0.04743629996664822,0.09960719989612699,0.09980099997483194,0.2987144999206066
RSVPLG03,JM,20260311-093458,1.0.2,20251105-084826,802,Experiment,Both,1,Automatic,main,73,20260311-094136,global,local,300,S,H,E,A,S-E.png,A-H.png,sS,hH,mask-4.png,mask-3.png,s,1,0.6441332001704723,h,1,0.04413799988105893,0.047201700042933226,0.047499299980700016,0.10031540016643703,0.09951890003867447,0.29857810004614294
RSVPLG03,JM,20260311-093458,1.0.2,20251105-084826,802,Experiment,Both,1,Automatic,main,74,20260311-094141,local,global,300,S,H,E,A,E-S.png,H-A.png,sS,hH,mask-1.png,mask-3.png,s,1,0.7135891001671553,s,0,0.07590659987181425,0.046542400028556585,0.04754790011793375,0.09855469991452992,0.09955650009214878,0.2988134999759495
RSVPLG03,JM,20260311-093458,1.0.2,20251105-084826,802,Experiment,Both,1,Automatic,main,75,20260311-094145,global,local,750,H,S,E,A,H-E.png,A-S.png,hH,sS,mask-2.png,mask-4.png,s,0,0.4964851001277566,s,1,0.0681171000469476,0.04751870012842119,0.045521199936047196,0.10053130006417632,0.09952519997023046,0.7487383000552654
RSVPLG03,JM,20260311-093458,1.0.2,20251105-084826,802,Experiment,Both,1,Automatic,main,76,20260311-094208,local,global,750,H,S,E,A,E-H.png,S-A.png,hH,sS,mask-4.png,mask-2.png,s,0,0.6992329999338835,h,0,0.07248579990118742,0.046612999867647886,0.0476734999101609,0.0999779999256134,0.09986849990673363,0.7474775000009686
RSVPLG03,JM,20260311-093458,1.0.2,20251105-084826,802,Experiment,Both,1,Automatic,main,77,20260311-094213,local,global,750,S,S,A,E,A-S.png,S-E.png,sS,sS,mask-2.png,mask-2.png,s,1,0.6602326000574976,h,0,0.056214199867099524,0.0457220000680536,0.0476846001110971,0.09894330007955432,0.09968250012025237,0.7463978000450879
RSVPLG03,JM,20260311-093458,1.0.2,20251105-084826,802,Experiment,Both,1,Automatic,main,78,20260311-094218,local,local,750,H,H,E,E,E-H.png,E-H.png,hH,hH,mask-2.png,mask-4.png,s,0,0.45746509986929595,h,1,0.003180299885571003,0.047126200050115585,0.04572319984436035,0.0994563999120146,0.09791049989871681,0.7476611000020057
RSVPLG03,JM,20260311-093458,1.0.2,20251105-084826,802,Experiment,Both,1,Automatic,main,79,20260311-094222,local,local,300,H,H,E,E,E-H.png,E-H.png,hH,hH,mask-1.png,mask-4.png,h,1,0.33605999988503754,s,0,0.021630599861964583,0.04770280001685023,0.0471280999481678,0.10093490011058748,0.09926399984396994,0.2986070001497865
RSVPLG03,JM,20260311-093458,1.0.2,20251105-084826,802,Experiment,Both,1,Automatic,main,80,20260311-094226,global,global,300,S,S,A,A,S-A.png,S-A.png,sS,sS,mask-1.png,mask-4.png,s,1,0.5259505000431091,s,1,0.07478300016373396,0.04772629984654486,0.04775250004604459,0.09922820003703237,0.10002800007350743,0.2999638000037521
RSVPLG03,JM,20260311-093458,1.0.2,20251105-084826,802,Experiment,Both,1,Automatic,main,81,20260311-094231,global,global,300,H,S,A,E,H-A.png,S-E.png,hH,sS,mask-4.png,mask-2.png,s,0,0.40579330013133585,s,1,0.15118289995007217,0.04672769992612302,0.04877109988592565,0.09898689994588494,0.10093389987014234,0.29861710011027753
RSVPLG03,JM,20260311-093458,1.0.2,20251105-084826,802,Experiment,Both,1,Automatic,main,82,20260311-094235,global,local,300,H,H,E,A,H-E.png,A-H.png,hH,hH,mask-2.png,mask-2.png,s,0,0.8467101999558508,h,1,0.010117999976500869,0.046022200025618076,0.04773460002616048,0.0993284999858588,0.10001889988780022,0.2979164000134915
RSVPLG03,JM,20260311-093458,1.0.2,20251105-084826,802,Experiment,Both,1,Automatic,main,83,20260311-094239,global,local,750,S,S,E,A,S-E.png,A-S.png,sS,sS,mask-1.png,mask-3.png,s,1,0.6298742000944912,s,1,0.07410919992253184,0.04770649992860854,0.04767640004865825,0.09980789991095662,0.09973210003226995,0.7475487999618053
RSVPLG03,JM,20260311-093458,1.0.2,20251105-084826,802,Experiment,Both,1,Automatic,main,84,20260311-094244,global,global,300,S,S,A,A,S-A.png,S-A.png,sS,sS,mask-2.png,mask-4.png,s,1,0.5483655999414623,s,1,0.053036400116980076,0.04637740016914904,0.04751299996860325,0.09924220014363527,0.09986270009540021,0.29773840005509555
RSVPLG03,JM,20260311-093458,1.0.2,20251105-084826,802,Experiment,Both,1,Automatic,main,85,20260311-094248,global,global,300,H,S,A,A,H-A.png,S-A.png,hH,sS,mask-2.png,mask-3.png,s,0,1.4240490000229329,s,1,0.07176800002343953,0.046628199983388186,0.047753200167790055,0.09978029993362725,0.10026840004138649,0.29835009993985295
RSVPLG03,JM,20260311-093458,1.0.2,20251105-084826,802,Experiment,Both,1,Automatic,main,86,20260311-094254,local,local,300,H,S,A,E,A-H.png,E-S.png,hH,sS,mask-4.png,mask-3.png,s,0,0.9182853999081999,s,1,0.07570890011265874,0.04754109983332455,0.04751189984381199,0.09856790001504123,0.1003324999473989,0.2978948999661952
RSVPLG03,JM,20260311-093458,1.0.2,20251105-084826,802,Experiment,Both,1,Automatic,main,87,20260311-094258,global,global,300,S,S,E,E,S-E.png,S-E.png,sS,sS,mask-3.png,mask-3.png,s,1,0.3985647999215871,s,1,0.07466439995914698,0.04653839999809861,0.04851080011576414,0.09954309999011457,0.09952630009502172,0.2978781999554485
RSVPLG03,JM,20260311-093458,1.0.2,20251105-084826,802,Experiment,Both,1,Automatic,main,88,20260311-094302,global,global,300,H,H,A,E,H-A.png,H-E.png,hH,hH,mask-4.png,mask-2.png,s,0,0.49511359981261194,s,0,0.0816983999684453,0.047545599984005094,0.047364600002765656,0.0996389000210911,0.10020770016126335,0.29872530000284314
RSVPLG03,JM,20260311-093458,1.0.2,20251105-084826,802,Experiment,Both,1,Automatic,main,89,20260311-094306,local,local,750,S,S,E,E,E-S.png,E-S.png,sS,sS,mask-4.png,mask-3.png,s,1,0.5921299001201987,s,1,0.08689689985476434,0.04748929990455508,0.04651460004970431,0.09878849983215332,0.09851779998280108,0.7474724999628961
RSVPLG03,JM,20260311-093458,1.0.2,20251105-084826,802,Experiment,Both,1,Automatic,main,90,20260311-094311,local,local,300,H,H,A,E,A-H.png,E-H.png,hH,hH,mask-4.png,mask-3.png,h,1,0.6056182999163866,s,0,0.0748618000652641,0.04748119995929301,0.04748700000345707,0.09988809982314706,0.09850289998576045,0.2995090999174863
RSVPLG03,JM,20260311-093458,1.0.2,20251105-084826,802,Experiment,Both,1,Automatic,main,91,20260311-094315,global,global,750,H,S,E,E,H-E.png,S-E.png,hH,sS,mask-3.png,mask-4.png,h,1,0.3649179998319596,s,1,0.020652499981224537,0.04770039999857545,0.04567139991559088,0.09990349994041026,0.0978443999774754,0.747735399985686
RSVPLG03,JM,20260311-093458,1.0.2,20251105-084826,802,Experiment,Both,1,Automatic,main,92,20260311-094320,local,local,300,S,H,A,E,A-S.png,E-H.png,sS,hH,mask-3.png,mask-3.png,h,0,1.3665412000846118,h,1,0.2665667999535799,0.045727800112217665,0.04672389989718795,0.09825460007414222,0.09941849997267127,0.29888100014068186
RSVPLG03,JM,20260311-093458,1.0.2,20251105-084826,802,Experiment,Both,1,Automatic,main,93,20260311-094325,local,local,750,S,S,A,A,A-S.png,A-S.png,sS,sS,mask-4.png,mask-2.png,s,1,0.32449570018798113,s,1,0.05284549994394183,0.04675960005261004,0.04763939999975264,0.0999704001005739,0.09887820016592741,0.7469649999402463
RSVPLG03,JM,20260311-093458,1.0.2,20251105-084826,802,Experiment,Both,1,Automatic,main,94,20260311-094330,global,local,750,S,H,E,A,S-E.png,A-H.png,sS,hH,mask-2.png,mask-3.png,s,1,0.4472796998452395,h,1,0.01159759983420372,0.04768540011718869,0.04664790001697838,0.09990609996020794,0.09910620003938675,0.7461355999112129
RSVPLG03,JM,20260311-093458,1.0.2,20251105-084826,802,Experiment,Both,1,Automatic,main,95,20260311-094334,global,global,300,S,S,A,A,S-A.png,S-A.png,sS,sS,mask-4.png,mask-1.png,s,1,0.3906583001371473,s,1,0.07504750019870698,0.04833190003409982,0.04756399989128113,0.09907529992051423,0.09963810001499951,0.2996761000249535
RSVPLG03,JM,20260311-093458,1.0.2,20251105-084826,802,Experiment,Both,1,Automatic,main,96,20260311-094338,local,local,750,S,H,E,A,E-S.png,A-H.png,sS,hH,mask-2.png,mask-2.png,s,1,0.6009418000467122,h,1,0.011798799969255924,0.04725800012238324,0.04710399988107383,0.09814950008876622,0.10007909988053143,0.7460567001253366
RSVPLG03,JM,20260311-093458,1.0.2,20251105-084826,802,Experiment,Both,1,Automatic,main,97,20260311-094343,local,local,300,H,S,A,E,A-H.png,E-S.png,hH,sS,mask-3.png,mask-1.png,s,0,0.637709500035271,h,0,0.01830090000294149,0.047363399993628263,0.04761260002851486,0.10039559984579682,0.09980130009353161,0.2983657999429852
RSVPLG03,JM,20260311-093458,1.0.2,20251105-084826,802,Experiment,Both,1,Automatic,main,98,20260311-094347,local,global,300,S,H,A,A,A-S.png,H-A.png,sS,hH,mask-4.png,mask-2.png,s,1,0.21964000002481043,s,0,0.05365770007483661,0.04852700000628829,0.04703700006939471,0.10059960000216961,0.10019450006075203,0.2991208001039922
RSVPLG03,JM,20260311-093458,1.0.2,20251105-084826,802,Experiment,Both,1,Automatic,main,99,20260311-094351,global,global,300,S,S,E,E,S-E.png,S-E.png,sS,sS,mask-2.png,mask-1.png,s,1,0.4353730999864638,s,1,0.043733299942687154,0.04570130002684891,0.04698950005695224,0.09986720001325011,0.1007406001444906,0.2973366000223905
RSVPLG03,JM,20260311-093458,1.0.2,20251105-084826,802,Experiment,Both,1,Automatic,main,100,20260311-094355,global,global,750,S,H,A,A,S-A.png,H-A.png,sS,hH,mask-2.png,mask-1.png,s,1,0.4139789000619203,h,1,0.00803019991144538,0.0465548001229763,0.04686459992080927,0.09774630004540086,0.09787230007350445,0.7471658000722528
