exp,exp_initials,runtime,ver,modtime,sub,blocktype,targets,cuetype,mode,trialtype,trial,trialtime,t1_level,t2_level,t2_lag,t1,t2,distractor1,distractor2,stimfile1,stimfile2,t1_corr,t2_corr,maskfile1,maskfile2,t1_resp,t1_acc,t1_rt,t2_resp,t2_acc,t2_rt,t1_dur,t2_dur,t1mask_soa,t2mask_soa,t1t2_soa
RSVPLG03,cs,20251105-105643,1.0.2,20251105-084826,737,Introduction,T1,1,Automatic,main,1,20251105-105725,global,global,750,S,S,A,A,S-A.png,S-A.png,sS,sS,mask-4.png,mask-2.png,s,1,2.1003878000192344,none,-5,0,0.09200469986535609,0.09758010017685592,0.1939354999922216,0.19959380012005568,0.7449804998468608
RSVPLG03,cs,20251105-105643,1.0.2,20251105-084826,737,Introduction,T1,1,Automatic,main,2,20251105-105732,global,local,750,S,H,E,A,S-E.png,A-H.png,sS,hH,mask-1.png,mask-4.png,s,1,1.2504575001075864,none,-5,0,0.09756550006568432,0.09751069988124073,0.20071629993617535,0.19862659997306764,0.7523668000940233
RSVPLG03,cs,20251105-105643,1.0.2,20251105-084826,737,Introduction,T1,1,Automatic,main,3,20251105-105737,global,local,750,S,S,A,A,S-A.png,A-S.png,sS,sS,mask-4.png,mask-3.png,s,1,0.45466109993867576,none,-5,0,0.09805550007149577,0.09814140014350414,0.20086269988678396,0.2012987001799047,0.7512091998942196
RSVPLG03,cs,20251105-105643,1.0.2,20251105-084826,737,Introduction,T1,1,Automatic,main,4,20251105-105742,local,global,750,S,S,A,A,A-S.png,S-A.png,sS,sS,mask-3.png,mask-3.png,none,-6,0,none,-5,0,0.09757700003683567,0.09618130000308156,0.20035669999197125,0.20002129999920726,0.7528444000054151
RSVPLG03,cs,20251105-105659,1.0.2,20251105-084826,737,Practice,T1,1,Automatic,main,1,20251105-105817,global,local,750,H,H,E,E,H-E.png,E-H.png,hH,hH,mask-3.png,mask-1.png,h,1,0.9760074000805616,none,-5,0,0.047546799993142486,0.04781630006618798,0.09940800000913441,0.10262980009429157,0.7500724999699742
RSVPLG03,cs,20251105-105659,1.0.2,20251105-084826,737,Practice,T1,1,Automatic,main,2,20251105-105822,local,global,300,H,H,A,A,A-H.png,H-A.png,hH,hH,mask-4.png,mask-2.png,h,1,0.6106030000373721,none,-5,0,0.0467355998698622,0.047917400021106005,0.09957089996896684,0.09992619999684393,0.2994752998929471
RSVPLG03,cs,20251105-105659,1.0.2,20251105-084826,737,Practice,T1,1,Automatic,main,3,20251105-105826,local,local,300,H,S,A,A,A-H.png,A-S.png,hH,sS,mask-4.png,mask-2.png,h,1,0.5668615000322461,none,-5,0,0.04965080018155277,0.049280199920758605,0.10207640007138252,0.10185800003819168,0.3005912001244724
RSVPLG03,cs,20251105-105659,1.0.2,20251105-084826,737,Practice,T1,1,Automatic,main,4,20251105-105830,global,local,750,H,H,E,E,H-E.png,E-H.png,hH,hH,mask-2.png,mask-2.png,h,1,0.612266399897635,none,-5,0,0.048367599956691265,0.048988700145855546,0.10265420004725456,0.1016003000549972,0.7513280999846756
RSVPLG03,cs,20251105-105659,1.0.2,20251105-084826,737,Practice,T1,1,Automatic,main,5,20251105-105835,global,global,300,H,S,A,A,H-A.png,S-A.png,hH,sS,mask-4.png,mask-4.png,h,1,1.7269528000615537,none,-5,0,0.04736979980953038,0.04732390004210174,0.10062259994447231,0.10346880019642413,0.2992685998324305
RSVPLG03,cs,20251105-105659,1.0.2,20251105-084826,737,Practice,T1,1,Automatic,main,6,20251105-105841,local,global,750,H,S,A,E,A-H.png,S-E.png,hH,sS,mask-1.png,mask-3.png,h,1,0.6647665000054985,none,-5,0,0.048225800041109324,0.04760710010305047,0.10054360004141927,0.1008689000736922,0.7530362999532372
RSVPLG03,cs,20251105-105659,1.0.2,20251105-084826,737,Practice,T1,1,Automatic,main,7,20251105-105845,global,global,300,H,H,E,E,H-E.png,H-E.png,hH,hH,mask-2.png,mask-1.png,h,1,1.4094193000346422,none,-5,0,0.04747009999118745,0.04505289997905493,0.09933990007266402,0.0997968998271972,0.3021685001440346
RSVPLG03,cs,20251105-105659,1.0.2,20251105-084826,737,Practice,T1,1,Automatic,main,8,20251105-105850,local,local,750,H,S,A,A,A-H.png,A-S.png,hH,sS,mask-2.png,mask-4.png,h,1,0.5527044001501054,none,-5,0,0.0481948999222368,0.04637219989672303,0.09976099990308285,0.09954919992014766,0.7538469999562949
RSVPLG03,cs,20251105-105659,1.0.2,20251105-084826,737,Practice,T1,1,Automatic,main,9,20251105-105855,global,global,750,S,S,A,A,S-A.png,S-A.png,sS,sS,mask-3.png,mask-2.png,s,1,0.472315700026229,none,-5,0,0.04672469990327954,0.046713100047782063,0.10047279996797442,0.09970370004884899,0.7514884998090565
RSVPLG03,cs,20251105-105659,1.0.2,20251105-084826,737,Practice,T1,1,Automatic,main,10,20251105-105900,global,local,300,H,H,A,A,H-A.png,A-H.png,hH,hH,mask-4.png,mask-2.png,h,1,0.6727932000067085,none,-5,0,0.04785729991272092,0.047256699996069074,0.10036929999478161,0.1004300001077354,0.300966199953109
RSVPLG03,cs,20251105-105659,1.0.2,20251105-084826,737,Practice,T1,1,Automatic,main,11,20251105-105904,local,global,750,H,H,E,A,E-H.png,H-A.png,hH,hH,mask-1.png,mask-2.png,h,1,0.7665220000781119,none,-5,0,0.04886569990776479,0.04935829993337393,0.1013327999971807,0.10081330011598766,0.7514988998882473
RSVPLG03,cs,20251105-105659,1.0.2,20251105-084826,737,Practice,T1,1,Automatic,main,12,20251105-105909,global,global,750,H,S,E,E,H-E.png,S-E.png,hH,sS,mask-2.png,mask-4.png,h,1,1.2306850000750273,none,-5,0,0.047140900045633316,0.047353100031614304,0.09902180009521544,0.10063200001604855,0.750741200055927
RSVPLG03,cs,20251105-105659,1.0.2,20251105-084826,737,Practice,T1,1,Automatic,main,13,20251105-105914,local,local,300,S,H,A,E,A-S.png,E-H.png,sS,hH,mask-2.png,mask-2.png,h,0,0.945568700088188,none,-5,0,0.046732200076803565,0.04595629987306893,0.10010150005109608,0.09898689994588494,0.30099060013890266
RSVPLG03,cs,20251105-105659,1.0.2,20251105-084826,737,Practice,T1,1,Automatic,main,14,20251105-105919,local,global,300,H,H,E,E,E-H.png,H-E.png,hH,hH,mask-1.png,mask-3.png,h,1,1.5054896001238376,none,-5,0,0.05029810010455549,0.04651160002686083,0.10359900002367795,0.10074930009432137,0.30287949997000396
RSVPLG03,cs,20251105-105659,1.0.2,20251105-084826,737,Practice,T1,1,Automatic,main,15,20251105-105924,global,local,300,S,H,E,A,S-E.png,A-H.png,sS,hH,mask-3.png,mask-2.png,h,0,0.5212915998417884,none,-5,0,0.0465834999922663,0.04736440000124276,0.1005386000033468,0.10073080006986856,0.29941300000064075
RSVPLG03,cs,20251105-105659,1.0.2,20251105-084826,737,Practice,T1,1,Automatic,main,16,20251105-105928,local,local,750,S,S,A,E,A-S.png,E-S.png,sS,sS,mask-1.png,mask-1.png,h,0,1.0170420000795275,none,-5,0,0.047295300057157874,0.04629319999366999,0.1007485999725759,0.10079649998806417,0.7520419999491423
RSVPLG03,cs,20251105-110110,1.0.2,20251105-084826,737,Practice,Both,1,Automatic,main,1,20251105-110132,local,local,300,H,H,A,A,A-H.png,A-H.png,hH,hH,mask-2.png,mask-4.png,h,1,1.3599443000275642,h,1,1.0385976999532431,0.04010719992220402,0.04693409986793995,0.09094519983045757,0.09830259997397661,0.2903613999951631
RSVPLG03,cs,20251105-110110,1.0.2,20251105-084826,737,Practice,Both,1,Automatic,main,2,20251105-110138,global,global,300,S,H,E,A,S-E.png,H-A.png,sS,hH,mask-3.png,mask-1.png,s,1,1.259963999968022,h,1,0.011230200063437223,0.04636169993318617,0.04658459988422692,0.09934710012748837,0.09967010002583265,0.29763670009560883
RSVPLG03,cs,20251105-110110,1.0.2,20251105-084826,737,Practice,Both,1,Automatic,main,3,20251105-110143,local,global,750,S,S,E,E,E-S.png,S-E.png,sS,sS,mask-1.png,mask-2.png,s,1,0.9363649000879377,s,1,0.2020478998310864,0.04719700012356043,0.0455159000121057,0.1002806001342833,0.09751129988580942,0.7458334001712501
RSVPLG03,cs,20251105-110110,1.0.2,20251105-084826,737,Practice,Both,1,Automatic,main,4,20251105-110149,global,global,750,H,H,A,E,H-A.png,H-E.png,hH,hH,mask-2.png,mask-4.png,h,1,0.8735818001441658,h,1,0.2142445999197662,0.04557109996676445,0.04750450002029538,0.09854370006360114,0.09858220000751317,0.7435379000380635
RSVPLG03,cs,20251105-110110,1.0.2,20251105-084826,737,Practice,Both,1,Automatic,main,5,20251105-110154,local,local,750,S,S,E,E,E-S.png,E-S.png,sS,sS,mask-1.png,mask-1.png,s,1,0.5727003999054432,s,1,0.2847207000013441,0.04839050001464784,0.04751679999753833,0.10041189985349774,0.1004955000244081,0.7441704999655485
RSVPLG03,cs,20251105-110110,1.0.2,20251105-084826,737,Practice,Both,1,Automatic,main,6,20251105-110159,global,local,750,H,H,A,E,H-A.png,E-H.png,hH,hH,mask-3.png,mask-3.png,h,1,0.4692989999894053,h,1,0.1668859999626875,0.045831199968233705,0.04752730019390583,0.09940190007910132,0.09951150021515787,0.7438236998859793
RSVPLG03,cs,20251105-110110,1.0.2,20251105-084826,737,Practice,Both,1,Automatic,main,7,20251105-110204,global,local,300,H,S,A,A,H-A.png,A-S.png,hH,sS,mask-1.png,mask-4.png,h,1,0.7276821001432836,h,0,0.12112919986248016,0.04756670002825558,0.04769949987530708,0.09975269995629787,0.09987479983828962,0.29642520006746054
RSVPLG03,cs,20251105-110110,1.0.2,20251105-084826,737,Practice,Both,1,Automatic,main,8,20251105-110209,local,global,300,H,S,A,A,A-H.png,S-A.png,hH,sS,mask-3.png,mask-1.png,h,1,0.4514317000284791,s,1,0.058827900094911456,0.04750419990159571,0.048495500115677714,0.09899379988200963,0.10038519999943674,0.2970083998516202
RSVPLG03,cs,20251105-110110,1.0.2,20251105-084826,737,Practice,Both,1,Automatic,main,9,20251105-110213,local,global,750,H,S,E,A,E-H.png,S-A.png,hH,sS,mask-4.png,mask-4.png,s,0,0.565960600040853,s,1,0.15710589988157153,0.0471201001200825,0.04751059995032847,0.09759850008413196,0.09850550000555813,0.7436325000599027
RSVPLG03,cs,20251105-110110,1.0.2,20251105-084826,737,Practice,Both,1,Automatic,main,10,20251105-110218,local,local,300,S,S,E,A,E-S.png,A-S.png,sS,sS,mask-3.png,mask-4.png,h,0,0.8480146999936551,s,1,0.10771110001951456,0.04765229998156428,0.046592499827966094,0.09857559995725751,0.09885769989341497,0.29748920002020895
RSVPLG03,cs,20251105-110110,1.0.2,20251105-084826,737,Practice,Both,1,Automatic,main,11,20251105-110223,global,global,750,H,S,E,E,H-E.png,S-E.png,hH,sS,mask-3.png,mask-1.png,h,1,0.6012523998506367,s,1,0.8255435000173748,0.0467357998713851,0.04650340019725263,0.09894249984063208,0.09858630015514791,0.7450088998302817
RSVPLG03,cs,20251105-110110,1.0.2,20251105-084826,737,Practice,Both,1,Automatic,main,12,20251105-110228,global,local,300,H,H,A,E,H-A.png,E-H.png,hH,hH,mask-4.png,mask-3.png,h,1,0.5741917998529971,s,0,0.17245239997282624,0.04570259992033243,0.045682899886742234,0.09789909981191158,0.09886659984476864,0.2975008999928832
RSVPLG03,cs,20251105-110110,1.0.2,20251105-084826,737,Practice,Both,1,Automatic,main,13,20251105-110232,local,local,750,H,S,A,E,A-H.png,E-S.png,hH,sS,mask-1.png,mask-1.png,h,1,0.5817551000509411,h,0,0.22026049997657537,0.04770039999857545,0.047302700113505125,0.10096090007573366,0.10029030009172857,0.7446286000777036
RSVPLG03,cs,20251105-110110,1.0.2,20251105-084826,737,Practice,Both,1,Automatic,main,14,20251105-110237,global,global,300,H,S,E,E,H-E.png,S-E.png,hH,sS,mask-4.png,mask-4.png,h,1,0.40450679999776185,s,1,0.06396309984847903,0.045523400185629725,0.044826299883425236,0.0975498000625521,0.09790749987587333,0.29777880012989044
RSVPLG03,cs,20251105-110110,1.0.2,20251105-084826,737,Practice,Both,1,Automatic,main,15,20251105-110241,local,global,300,S,S,E,E,E-S.png,S-E.png,sS,sS,mask-4.png,mask-3.png,h,0,0.7664685000199825,s,1,0.08853269997052848,0.04755899985320866,0.047557600075379014,0.09957319987006485,0.09960300009697676,0.29790009977295995
RSVPLG03,cs,20251105-110110,1.0.2,20251105-084826,737,Practice,Both,1,Automatic,main,16,20251105-110246,global,local,750,H,S,A,E,H-A.png,E-S.png,hH,sS,mask-4.png,mask-4.png,h,1,1.0031824999023229,h,0,0.22977029997855425,0.04769010003656149,0.04697849997319281,0.09992399998009205,0.09835570002906024,0.7449394001159817
RSVPLG03,cs,20251105-110426,1.0.2,20251105-084826,737,Experiment,Both,1,Automatic,warmup,1,20251105-110823,local,global,750,H,H,A,E,A-H.png,H-E.png,hH,hH,mask-2.png,mask-1.png,h,1,0.6017202001530677,h,1,0.05990959983319044,0.03988780011422932,0.04752159980125725,0.09293789998628199,0.10058239987120032,0.7431136001832783
RSVPLG03,cs,20251105-110426,1.0.2,20251105-084826,737,Experiment,Both,1,Automatic,warmup,2,20251105-110828,local,local,750,H,S,E,A,E-H.png,A-S.png,hH,sS,mask-2.png,mask-1.png,h,1,0.4380994001403451,h,0,0.07822129991836846,0.04859500005841255,0.04752700007520616,0.10165020008571446,0.09954640013165772,0.7515620000194758
RSVPLG03,cs,20251105-110426,1.0.2,20251105-084826,737,Experiment,Both,1,Automatic,warmup,3,20251105-110833,global,local,750,H,S,E,A,H-E.png,A-S.png,hH,sS,mask-3.png,mask-1.png,h,1,0.4085893000010401,h,0,0.09984849998727441,0.04752229992300272,0.04754390008747578,0.09953109989874065,0.09955210005864501,0.7501615998335183
RSVPLG03,cs,20251105-110426,1.0.2,20251105-084826,737,Experiment,Both,1,Automatic,warmup,4,20251105-110838,local,global,300,H,S,A,E,A-H.png,S-E.png,hH,sS,mask-4.png,mask-2.png,h,1,0.5189108001068234,h,0,0.08146870019845665,0.04654999985359609,0.04569819988682866,0.09962320001795888,0.09986849990673363,0.2999032000079751
RSVPLG03,cs,20251105-110426,1.0.2,20251105-084826,737,Experiment,Both,1,Automatic,main,5,20251105-110842,global,global,750,S,S,A,E,S-A.png,S-E.png,sS,sS,mask-4.png,mask-3.png,s,1,0.25965570006519556,s,1,0.010598100023344159,0.04760399996303022,0.04865169990807772,0.09962620004080236,0.10073840012773871,0.7490449999459088
RSVPLG03,cs,20251105-110426,1.0.2,20251105-084826,737,Experiment,Both,1,Automatic,main,6,20251105-110846,global,local,750,H,S,A,A,H-A.png,A-S.png,hH,sS,mask-3.png,mask-1.png,h,1,0.31586209987290204,h,0,0.10427080001682043,0.047600300051271915,0.04750200011767447,0.09862309996969998,0.100538200000301,0.7495740000158548
RSVPLG03,cs,20251105-110426,1.0.2,20251105-084826,737,Experiment,Both,1,Automatic,main,7,20251105-110851,local,local,300,H,S,A,E,A-H.png,E-S.png,hH,sS,mask-1.png,mask-4.png,h,1,1.0939583000726998,s,1,0.017385299783200026,0.04751539998687804,0.047537900041788816,0.10050810012035072,0.09853220009244978,0.3017865000292659
RSVPLG03,cs,20251105-110426,1.0.2,20251105-084826,737,Experiment,Both,1,Automatic,main,8,20251105-110856,global,local,300,S,H,E,A,S-E.png,A-H.png,sS,hH,mask-1.png,mask-1.png,s,1,0.36430679983459413,h,1,0.0756090001668781,0.04751449986360967,0.047524699941277504,0.09854459995403886,0.10154929989948869,0.2986045000143349
RSVPLG03,cs,20251105-110426,1.0.2,20251105-084826,737,Experiment,Both,1,Automatic,main,9,20251105-110900,global,global,300,S,S,E,E,S-E.png,S-E.png,sS,sS,mask-2.png,mask-1.png,s,1,0.32989139994606376,s,1,0.3623687999788672,0.04751940001733601,0.04652690002694726,0.09852689993567765,0.10054439981468022,0.2997944001108408
RSVPLG03,cs,20251105-110426,1.0.2,20251105-084826,737,Experiment,Both,1,Automatic,main,10,20251105-110904,local,local,750,H,S,E,E,E-H.png,E-S.png,hH,sS,mask-4.png,mask-2.png,s,0,0.7606043999549001,h,0,0.7746287998743355,0.0467465000692755,0.04772160016000271,0.09995240019634366,0.10092190001159906,0.7490052999928594
RSVPLG03,cs,20251105-110426,1.0.2,20251105-084826,737,Experiment,Both,1,Automatic,main,11,20251105-110910,global,global,750,H,H,E,A,H-E.png,H-A.png,hH,hH,mask-3.png,mask-1.png,h,1,0.32588279992341995,h,1,0.08573620021343231,0.047731600003317,0.04764060000889003,0.10095779993571341,0.1008307000156492,0.7500859999563545
RSVPLG03,cs,20251105-110426,1.0.2,20251105-084826,737,Experiment,Both,1,Automatic,main,12,20251105-110915,global,global,300,S,H,E,A,S-E.png,H-A.png,sS,hH,mask-3.png,mask-3.png,s,1,0.7337876001838595,h,1,0.01918380009010434,0.04773210012353957,0.0457417001016438,0.09997160010971129,0.09991750004701316,0.3007551000919193
RSVPLG03,cs,20251105-110426,1.0.2,20251105-084826,737,Experiment,Both,1,Automatic,main,13,20251105-110919,local,local,300,S,S,E,A,E-S.png,A-S.png,sS,sS,mask-3.png,mask-3.png,s,1,1.3311949998605996,h,0,0.007515099830925465,0.046807099832221866,0.04679040005430579,0.09900969988666475,0.09902250021696091,0.30019589979201555
RSVPLG03,cs,20251105-110426,1.0.2,20251105-084826,737,Experiment,Both,1,Automatic,main,14,20251105-110924,local,global,750,H,S,A,A,A-H.png,S-A.png,hH,sS,mask-2.png,mask-2.png,s,0,0.3980964000802487,s,1,0.09866050002165139,0.04876719997264445,0.047000099904835224,0.1000405999366194,0.09866719995625317,0.7514512999914587
RSVPLG03,cs,20251105-110426,1.0.2,20251105-084826,737,Experiment,Both,1,Automatic,main,15,20251105-110929,local,global,750,S,S,E,E,E-S.png,S-E.png,sS,sS,mask-1.png,mask-1.png,s,1,0.3358114999718964,s,1,0.0906583999749273,0.0476649000775069,0.04868089989759028,0.1019505001604557,0.09987040003761649,0.7505362001247704
RSVPLG03,cs,20251105-110426,1.0.2,20251105-084826,737,Experiment,Both,1,Automatic,main,16,20251105-110933,local,global,300,H,S,A,E,A-H.png,S-E.png,hH,sS,mask-4.png,mask-2.png,h,1,0.4785936998669058,s,1,0.5769454999826849,0.048723499989137053,0.04751969990320504,0.1008919000159949,0.10071979998610914,0.3003589999862015
RSVPLG03,cs,20251105-110426,1.0.2,20251105-084826,737,Experiment,Both,1,Automatic,main,17,20251105-110938,local,local,300,H,S,A,E,A-H.png,E-S.png,hH,sS,mask-3.png,mask-2.png,h,1,0.819677900057286,s,1,0.08458200003951788,0.04747569980099797,0.04750449978746474,0.09986159997060895,0.1005194999743253,0.29965960001572967
RSVPLG03,cs,20251105-110426,1.0.2,20251105-084826,737,Experiment,Both,1,Automatic,main,18,20251105-110943,local,global,300,S,H,A,E,A-S.png,H-E.png,sS,hH,mask-2.png,mask-2.png,h,0,0.5184500999748707,h,1,0.10538299987092614,0.04725860012695193,0.04712290014140308,0.0996783000882715,0.09834440005943179,0.3001528999302536
RSVPLG03,cs,20251105-110426,1.0.2,20251105-084826,737,Experiment,Both,1,Automatic,main,19,20251105-110947,global,local,750,H,H,E,E,H-E.png,E-H.png,hH,hH,mask-1.png,mask-4.png,h,1,0.5252506998367608,s,0,0.07308639981783926,0.046755900140851736,0.04773579980246723,0.09897080017253757,0.10023969993926585,0.7492765001952648
RSVPLG03,cs,20251105-110426,1.0.2,20251105-084826,737,Experiment,Both,1,Automatic,main,20,20251105-110952,local,local,750,S,H,A,E,A-S.png,E-H.png,sS,hH,mask-3.png,mask-1.png,h,0,0.5931506000924855,h,1,0.13666420010849833,0.04922090005129576,0.04924559989012778,0.10046379989944398,0.10050889989361167,0.7499708000104874
RSVPLG03,cs,20251105-110426,1.0.2,20251105-084826,737,Experiment,Both,1,Automatic,main,21,20251105-110957,global,global,750,H,S,E,E,H-E.png,S-E.png,hH,sS,mask-4.png,mask-1.png,h,1,0.29669260000810027,s,1,0.017635999945923686,0.04776520002633333,0.047702099895104766,0.09879479999653995,0.10015670000575483,0.7489845000673085
RSVPLG03,cs,20251105-110426,1.0.2,20251105-084826,737,Experiment,Both,1,Automatic,main,22,20251105-111001,global,local,750,H,H,A,A,H-A.png,A-H.png,hH,hH,mask-1.png,mask-4.png,h,1,0.3366371998563409,h,1,0.1073318999260664,0.04566649999469519,0.045753000071272254,0.10006810002960265,0.09995780000463128,0.7500219999346882
RSVPLG03,cs,20251105-110426,1.0.2,20251105-084826,737,Experiment,Both,1,Automatic,main,23,20251105-111006,global,local,750,S,S,A,E,S-A.png,E-S.png,sS,sS,mask-4.png,mask-1.png,s,1,0.3358407998457551,s,1,0.09675329993478954,0.04770629992708564,0.04655759991146624,0.09973669983446598,0.09878339990973473,0.7506440000142902
RSVPLG03,cs,20251105-110426,1.0.2,20251105-084826,737,Experiment,Both,1,Automatic,main,24,20251105-111010,local,local,750,S,S,E,E,E-S.png,E-S.png,sS,sS,mask-2.png,mask-2.png,s,1,0.31488820002414286,s,1,0.1071168000344187,0.046737900003790855,0.04869279987178743,0.10020509990863502,0.09988999995402992,0.7490785999689251
RSVPLG03,cs,20251105-110426,1.0.2,20251105-084826,737,Experiment,Both,1,Automatic,main,25,20251105-111015,global,global,300,H,H,A,E,H-A.png,H-E.png,hH,hH,mask-3.png,mask-4.png,h,1,0.4506369000300765,h,1,0.11558680003508925,0.04770090011879802,0.047624000115320086,0.10154579998925328,0.10007290006615222,0.30022730003111064
RSVPLG03,cs,20251105-110426,1.0.2,20251105-084826,737,Experiment,Both,1,Automatic,main,26,20251105-111022,global,local,300,S,S,E,E,S-E.png,E-S.png,sS,sS,mask-2.png,mask-1.png,s,1,0.44044619984924793,s,1,0.08335520001128316,0.046732300193980336,0.04773260001093149,0.09895440004765987,0.09991839993745089,0.2998169001657516
RSVPLG03,cs,20251105-110426,1.0.2,20251105-084826,737,Experiment,Both,1,Automatic,main,27,20251105-111026,local,global,300,S,S,A,E,A-S.png,S-E.png,sS,sS,mask-1.png,mask-3.png,h,0,0.8491348999086767,s,1,0.04038320016115904,0.045697900000959635,0.04769079992547631,0.09890410001389682,0.09995239996351302,0.29841699986718595
RSVPLG03,cs,20251105-110426,1.0.2,20251105-084826,737,Experiment,Both,1,Automatic,main,28,20251105-111031,global,global,300,H,S,E,A,H-E.png,S-A.png,hH,sS,mask-1.png,mask-4.png,h,1,0.31757059996016324,s,1,0.6943391000386328,0.04756649979390204,0.04768249997869134,0.10094999987632036,0.09881389979273081,0.3008659000042826
RSVPLG03,cs,20251105-110426,1.0.2,20251105-084826,737,Experiment,Both,1,Automatic,main,29,20251105-111036,global,global,750,S,S,A,A,S-A.png,S-A.png,sS,sS,mask-1.png,mask-3.png,s,1,0.3571373000741005,s,1,0.10328230005688965,0.045186700066551566,0.04703529994003475,0.09994550002738833,0.10022269980981946,0.7501751000527292
RSVPLG03,cs,20251105-110426,1.0.2,20251105-084826,737,Experiment,Both,1,Automatic,main,30,20251105-111040,local,local,750,S,H,E,A,E-S.png,A-H.png,sS,hH,mask-4.png,mask-1.png,s,1,0.24898890010081232,h,1,0.11693009990267456,0.04752250015735626,0.047406500205397606,0.10071450006216764,0.10063870018348098,0.7506683999672532
RSVPLG03,cs,20251105-110426,1.0.2,20251105-084826,737,Experiment,Both,1,Automatic,main,31,20251105-111045,local,local,300,H,S,E,A,E-H.png,A-S.png,hH,sS,mask-4.png,mask-3.png,s,0,1.6359713999554515,h,0,0.1532413000240922,0.04770949995145202,0.04787239991128445,0.09988769982010126,0.10015040007419884,0.29851879994384944
RSVPLG03,cs,20251105-110426,1.0.2,20251105-084826,737,Experiment,Both,1,Automatic,main,32,20251105-111050,local,global,750,S,S,A,A,A-S.png,S-A.png,sS,sS,mask-1.png,mask-2.png,h,0,0.9375169000122696,s,1,0.13652970013208687,0.04676399985328317,0.04880580003373325,0.09898580005392432,0.1010416999924928,0.7482816998381168
RSVPLG03,cs,20251105-110426,1.0.2,20251105-084826,737,Experiment,Both,1,Automatic,main,33,20251105-111055,global,local,750,H,S,A,E,H-A.png,E-S.png,hH,sS,mask-4.png,mask-1.png,h,1,0.3111844998784363,s,1,0.06566340010613203,0.048779699951410294,0.0476502999663353,0.10099349985830486,0.09970410005189478,0.7504405998624861
RSVPLG03,cs,20251105-110426,1.0.2,20251105-084826,737,Experiment,Both,1,Automatic,main,34,20251105-111100,global,global,750,H,S,A,A,H-A.png,S-A.png,hH,sS,mask-3.png,mask-3.png,h,1,0.3834430000279099,s,1,0.05702110007405281,0.04684700001962483,0.047542199958115816,0.09972380008548498,0.09876969992183149,0.7505491999909282
RSVPLG03,cs,20251105-110426,1.0.2,20251105-084826,737,Experiment,Both,1,Automatic,main,35,20251105-111104,global,global,300,H,H,E,E,H-E.png,H-E.png,hH,hH,mask-1.png,mask-1.png,h,1,0.4080870000179857,h,1,0.1168718000408262,0.04831250011920929,0.04740460007451475,0.10126170003786683,0.09925940004177392,0.3012854000553489
RSVPLG03,cs,20251105-110426,1.0.2,20251105-084826,737,Experiment,Both,1,Automatic,main,36,20251105-111109,local,local,300,S,H,E,E,E-S.png,E-H.png,sS,hH,mask-1.png,mask-4.png,h,0,1.6884868999477476,h,1,0.13609859999269247,0.047007900197058916,0.047561699990183115,0.10010220017284155,0.100580699974671,0.3004162001889199
RSVPLG03,cs,20251105-110426,1.0.2,20251105-084826,737,Experiment,Both,1,Automatic,main,37,20251105-111114,global,local,300,H,H,A,A,H-A.png,A-H.png,hH,hH,mask-2.png,mask-2.png,h,1,0.4984697001054883,s,0,0.5689256999175996,0.0458238001447171,0.04852489987388253,0.0980700000654906,0.101582600036636,0.2984292001929134
RSVPLG03,cs,20251105-110426,1.0.2,20251105-084826,737,Experiment,Both,1,Automatic,main,38,20251105-111119,global,local,750,S,H,A,A,S-A.png,A-H.png,sS,hH,mask-1.png,mask-1.png,s,1,0.31946679996326566,h,1,0.059617500053718686,0.04695519991219044,0.04726759996265173,0.10003890004009008,0.10121949994936585,0.7498860999476165
RSVPLG03,cs,20251105-110426,1.0.2,20251105-084826,737,Experiment,Both,1,Automatic,main,39,20251105-111124,global,global,750,H,H,A,A,H-A.png,H-A.png,hH,hH,mask-1.png,mask-3.png,h,1,0.28146090009249747,h,1,0.12230980000458658,0.047539399936795235,0.04780890000984073,0.10056610009633005,0.10094949998892844,0.749068700009957
RSVPLG03,cs,20251105-110426,1.0.2,20251105-084826,737,Experiment,Both,1,Automatic,main,40,20251105-111128,local,global,750,S,S,E,E,E-S.png,S-E.png,sS,sS,mask-4.png,mask-2.png,s,1,0.7149598998948932,h,0,0.09688089997507632,0.04655169998295605,0.04755989997647703,0.09960229997523129,0.09960899990983307,0.7493823999539018
RSVPLG03,cs,20251105-110426,1.0.2,20251105-084826,737,Experiment,Both,1,Automatic,main,41,20251105-111133,local,global,750,S,H,A,E,A-S.png,H-E.png,sS,hH,mask-3.png,mask-1.png,h,0,0.3716531000100076,h,1,0.18528069998137653,0.04654629994183779,0.04759329999797046,0.0995956000406295,0.0996201999951154,0.7491080998443067
RSVPLG03,cs,20251105-110426,1.0.2,20251105-084826,737,Experiment,Both,1,Automatic,main,42,20251105-111138,local,global,750,H,H,E,E,E-H.png,H-E.png,hH,hH,mask-4.png,mask-2.png,h,1,0.9631731999106705,h,1,0.1344377000350505,0.045367500046268106,0.04771479987539351,0.10002789995633066,0.09982779994606972,0.7485881000757217
RSVPLG03,cs,20251105-110426,1.0.2,20251105-084826,737,Experiment,Both,1,Automatic,main,43,20251105-111143,local,global,300,H,H,E,E,E-H.png,H-E.png,hH,hH,mask-2.png,mask-2.png,h,1,1.843279599910602,h,1,0.08438250003382564,0.0476970998570323,0.04768670001067221,0.10010759998112917,0.09988919994793832,0.2997828999068588
RSVPLG03,cs,20251105-110426,1.0.2,20251105-084826,737,Experiment,Both,1,Automatic,main,44,20251105-111149,local,global,300,S,H,A,E,A-S.png,H-E.png,sS,hH,mask-1.png,mask-1.png,s,1,0.4947532000951469,h,1,0.08806780003942549,0.04770039999857545,0.0475252999458462,0.09990669996477664,0.10053739999420941,0.3004235001280904
RSVPLG03,cs,20251105-110426,1.0.2,20251105-084826,737,Experiment,Both,1,Automatic,main,45,20251105-111153,local,local,300,H,S,E,A,E-H.png,A-S.png,hH,sS,mask-2.png,mask-3.png,s,0,1.9563013999722898,h,0,0.10029880004003644,0.048511300003156066,0.04852690012194216,0.10054220003075898,0.10055149998515844,0.2998196999542415
RSVPLG03,cs,20251105-110426,1.0.2,20251105-084826,737,Experiment,Both,1,Automatic,main,46,20251105-111159,global,global,300,H,H,A,A,H-A.png,H-A.png,hH,hH,mask-2.png,mask-4.png,h,1,0.2864753999747336,h,1,0.11461049993522465,0.04760239995084703,0.04862769995816052,0.09960639989003539,0.1017692000605166,0.29820530000142753
RSVPLG03,cs,20251105-110426,1.0.2,20251105-084826,737,Experiment,Both,1,Automatic,main,47,20251105-111203,global,local,300,S,H,A,A,S-A.png,A-H.png,sS,hH,mask-2.png,mask-2.png,s,1,0.5002335000317544,h,1,0.08508690004236996,0.04670609999448061,0.04772679996676743,0.0990983999799937,0.09998639998957515,0.29985759989358485
RSVPLG03,cs,20251105-110426,1.0.2,20251105-084826,737,Experiment,Both,1,Automatic,main,48,20251105-111207,global,local,300,S,S,A,A,S-A.png,A-S.png,sS,sS,mask-3.png,mask-2.png,h,0,0.6097174999304116,h,0,0.6930712999310344,0.047711099963635206,0.04752819985151291,0.09991919994354248,0.10053829988464713,0.29970810003578663
RSVPLG03,cs,20251105-110426,1.0.2,20251105-084826,737,Experiment,Both,1,Automatic,main,49,20251105-111212,global,global,300,H,S,E,A,H-E.png,S-A.png,hH,sS,mask-4.png,mask-2.png,h,1,0.2177966998424381,s,1,0.39385559991933405,0.047523200046271086,0.047510200180113316,0.0987367001362145,0.09952110005542636,0.3000978999771178
RSVPLG03,cs,20251105-110426,1.0.2,20251105-084826,737,Experiment,Both,1,Automatic,main,50,20251105-111216,local,local,750,S,S,A,E,A-S.png,E-S.png,sS,sS,mask-1.png,mask-2.png,h,0,0.8249947000294924,s,1,0.12809440004639328,0.04770500003360212,0.04771019984036684,0.09993020002730191,0.09992139996029437,0.7498008001130074
RSVPLG03,cs,20251105-110426,1.0.2,20251105-084826,737,Experiment,Both,1,Automatic,main,51,20251105-111225,global,global,300,H,S,A,E,H-A.png,S-E.png,hH,sS,mask-3.png,mask-1.png,h,1,0.32288260012865067,s,1,0.4349954000208527,0.047078900039196014,0.04769310005940497,0.09826910006813705,0.09996849996969104,0.2999474999960512
RSVPLG03,cs,20251105-110426,1.0.2,20251105-084826,737,Experiment,Both,1,Automatic,main,52,20251105-111229,global,global,750,H,H,E,A,H-E.png,H-A.png,hH,hH,mask-1.png,mask-4.png,h,1,0.2572081999387592,h,1,0.09340659994632006,0.04585879994556308,0.047511199954897165,0.09892969997599721,0.09853099985048175,0.7498538000509143
RSVPLG03,cs,20251105-110426,1.0.2,20251105-084826,737,Experiment,Both,1,Automatic,main,53,20251105-111234,local,global,300,S,S,A,E,A-S.png,S-E.png,sS,sS,mask-1.png,mask-4.png,h,0,0.4033476000186056,s,1,0.5631820000708103,0.04571809992194176,0.046702600084245205,0.09957089996896684,0.10033270018175244,0.2991962998639792
RSVPLG03,cs,20251105-110426,1.0.2,20251105-084826,737,Experiment,Both,1,Automatic,main,54,20251105-111238,global,local,750,S,S,A,A,S-A.png,A-S.png,sS,sS,mask-4.png,mask-2.png,s,1,0.26155380019918084,h,0,0.04960229992866516,0.047694799955934286,0.04759679990820587,0.1008975999429822,0.09953680005855858,0.7506105001084507
RSVPLG03,cs,20251105-110426,1.0.2,20251105-084826,737,Experiment,Both,1,Automatic,main,55,20251105-111242,local,global,300,S,S,A,E,A-S.png,S-E.png,sS,sS,mask-4.png,mask-4.png,h,0,0.9717474998906255,s,1,0.05645799986086786,0.047573599964380264,0.04755850019864738,0.09958130004815757,0.09847940015606582,0.30002569989301264
RSVPLG03,cs,20251105-110426,1.0.2,20251105-084826,737,Experiment,Both,1,Automatic,main,56,20251105-111247,global,local,300,H,H,E,E,H-E.png,E-H.png,hH,hH,mask-4.png,mask-3.png,h,1,0.7238630999345332,s,0,0.900423799874261,0.04803359997458756,0.048640300054103136,0.10062970011495054,0.09967250004410744,0.3003561000805348
RSVPLG03,cs,20251105-110426,1.0.2,20251105-084826,737,Experiment,Both,1,Automatic,main,57,20251105-111251,global,global,300,S,S,A,A,S-A.png,S-A.png,sS,sS,mask-1.png,mask-4.png,s,1,0.8161483998410404,h,0,0.1393957999534905,0.04747410002164543,0.04647650010883808,0.10049169999547303,0.09934910014271736,0.30017309985123575
RSVPLG03,cs,20251105-110426,1.0.2,20251105-084826,737,Experiment,Both,1,Automatic,main,58,20251105-111256,local,local,750,H,H,E,E,E-H.png,E-H.png,hH,hH,mask-2.png,mask-4.png,s,0,0.8762310000602156,s,0,0.0813011999707669,0.047064999816939235,0.047400400042533875,0.09979869984090328,0.10023990017361939,0.749996499856934
RSVPLG03,cs,20251105-110426,1.0.2,20251105-084826,737,Experiment,Both,1,Automatic,main,59,20251105-111301,global,global,300,H,H,A,A,H-A.png,H-A.png,hH,hH,mask-1.png,mask-4.png,h,1,0.2599176000803709,h,1,0.0766040999442339,0.04766559996642172,0.04754370008595288,0.09997209999710321,0.09915530006401241,0.3002605000510812
RSVPLG03,cs,20251105-110426,1.0.2,20251105-084826,737,Experiment,Both,1,Automatic,main,60,20251105-111305,global,local,300,S,H,E,E,S-E.png,E-H.png,sS,hH,mask-3.png,mask-3.png,s,1,0.31670640013180673,s,0,0.11738040018826723,0.04661249998025596,0.048628499964252114,0.10059439996257424,0.1013323999941349,0.29888410004787147
RSVPLG03,cs,20251105-110426,1.0.2,20251105-084826,737,Experiment,Both,1,Automatic,main,61,20251105-111309,local,global,300,H,S,A,E,A-H.png,S-E.png,hH,sS,mask-3.png,mask-4.png,h,1,0.7372963998932391,s,1,0.9138175998814404,0.04750879993662238,0.0476492999587208,0.09954619989730418,0.10006610001437366,0.2998768000397831
RSVPLG03,cs,20251105-110426,1.0.2,20251105-084826,737,Experiment,Both,1,Automatic,main,62,20251105-111314,global,local,750,H,H,A,E,H-A.png,E-H.png,hH,hH,mask-4.png,mask-3.png,h,1,0.47021420020610094,h,1,0.08386520016938448,0.047566100023686886,0.04824430006556213,0.10130480001680553,0.10078980005346239,0.7505650001112372
RSVPLG03,cs,20251105-110426,1.0.2,20251105-084826,737,Experiment,Both,1,Automatic,main,63,20251105-111319,local,global,750,H,H,E,E,E-H.png,H-E.png,hH,hH,mask-2.png,mask-1.png,h,1,0.7135663998778909,h,1,0.07608110015280545,0.0474157000426203,0.04780999990180135,0.09874210017733276,0.09994139987975359,0.7486619001720101
RSVPLG03,cs,20251105-110426,1.0.2,20251105-084826,737,Experiment,Both,1,Automatic,main,64,20251105-111324,local,global,300,S,S,E,A,E-S.png,S-A.png,sS,sS,mask-1.png,mask-4.png,h,0,0.6392213001381606,h,0,0.12180480011738837,0.04800960002467036,0.04859380004927516,0.09886740008369088,0.10156939993612468,0.2995670000091195
RSVPLG03,cs,20251105-110426,1.0.2,20251105-084826,737,Experiment,Both,1,Automatic,main,65,20251105-111328,local,global,750,S,S,A,E,A-S.png,S-E.png,sS,sS,mask-3.png,mask-2.png,s,1,0.3833148998674005,s,1,0.3324186000972986,0.0468985999468714,0.04778310004621744,0.09800460003316402,0.10002480004914105,0.7494794998783618
RSVPLG03,cs,20251105-110426,1.0.2,20251105-084826,737,Experiment,Both,1,Automatic,main,66,20251105-111333,local,global,750,H,S,E,E,E-H.png,S-E.png,hH,sS,mask-4.png,mask-4.png,s,0,0.39895339985378087,s,1,0.09520280011929572,0.047387899830937386,0.04704140010289848,0.09932329994626343,0.09929580008611083,0.7500640999060124
RSVPLG03,cs,20251105-110426,1.0.2,20251105-084826,737,Experiment,Both,1,Automatic,main,67,20251105-111338,local,local,750,S,S,A,A,A-S.png,A-S.png,sS,sS,mask-2.png,mask-3.png,h,0,0.5953798999544233,s,1,0.09170229989103973,0.045712900115177035,0.04674310004338622,0.0994051001034677,0.09999329992569983,0.7496619001030922
RSVPLG03,cs,20251105-110426,1.0.2,20251105-084826,737,Experiment,Both,1,Automatic,main,68,20251105-111342,local,global,300,H,H,E,A,E-H.png,H-A.png,hH,hH,mask-3.png,mask-3.png,s,0,0.7457912999670953,s,0,0.10544170020148158,0.047877500066533685,0.04745969991199672,0.0990908001549542,0.09966320008970797,0.30070840008556843
RSVPLG03,cs,20251105-110426,1.0.2,20251105-084826,737,Experiment,Both,1,Automatic,main,69,20251105-111347,local,global,750,H,S,E,A,E-H.png,S-A.png,hH,sS,mask-4.png,mask-4.png,h,1,0.8079045999329537,s,1,0.02500499994494021,0.04746579984202981,0.04752090014517307,0.10011629993095994,0.10069749993272126,0.749842899851501
RSVPLG03,cs,20251105-110426,1.0.2,20251105-084826,737,Experiment,Both,1,Automatic,main,70,20251105-111352,local,local,750,S,S,A,E,A-S.png,E-S.png,sS,sS,mask-3.png,mask-1.png,h,0,0.705931399948895,h,0,0.073730300180614,0.04648200003430247,0.048351600067690015,0.09857320017181337,0.09943320020101964,0.7488490999676287
RSVPLG03,cs,20251105-110426,1.0.2,20251105-084826,737,Experiment,Both,1,Automatic,main,71,20251105-111357,global,local,300,S,H,E,E,S-E.png,E-H.png,sS,hH,mask-2.png,mask-3.png,h,0,1.6397243000101298,s,0,0.04244370013475418,0.04573160014115274,0.0476263000164181,0.09992639999836683,0.09865579986944795,0.2996055001858622
RSVPLG03,cs,20251105-110426,1.0.2,20251105-084826,737,Experiment,Both,1,Automatic,main,72,20251105-111402,local,local,300,S,H,A,A,A-S.png,A-H.png,sS,hH,mask-4.png,mask-3.png,s,1,0.8858183999545872,h,1,0.07055429997853935,0.047744400100782514,0.04672099999152124,0.09904030011966825,0.09998089983128011,0.3007788001559675
RSVPLG03,cs,20251105-110426,1.0.2,20251105-084826,737,Experiment,Both,1,Automatic,main,73,20251105-111407,global,local,300,S,S,E,A,S-E.png,A-S.png,sS,sS,mask-1.png,mask-2.png,s,1,0.7807029001414776,h,0,0.034643399994820356,0.04650749987922609,0.04720219993032515,0.09858460002578795,0.10159249999560416,0.2981990999542177
RSVPLG03,cs,20251105-110426,1.0.2,20251105-084826,737,Experiment,Both,1,Automatic,main,74,20251105-111411,global,global,750,H,H,A,E,H-A.png,H-E.png,hH,hH,mask-3.png,mask-1.png,h,1,0.3680853999685496,h,1,0.08938460005447268,0.04771260009147227,0.046924199908971786,0.10090940003283322,0.10022359993308783,0.7503663999959826
RSVPLG03,cs,20251105-110426,1.0.2,20251105-084826,737,Experiment,Both,1,Automatic,main,75,20251105-111416,local,local,750,S,H,A,E,A-S.png,E-H.png,sS,hH,mask-1.png,mask-1.png,h,0,0.4893529999535531,h,1,0.07572820014320314,0.047699299873784184,0.04783640010282397,0.0997496999334544,0.10021950001828372,0.7503030998632312
RSVPLG03,cs,20251105-110426,1.0.2,20251105-084826,737,Experiment,Both,1,Automatic,main,76,20251105-111427,global,local,750,H,H,E,A,H-E.png,A-H.png,hH,hH,mask-1.png,mask-2.png,h,1,0.2540828001219779,h,1,0.05458640004508197,0.04757759999483824,0.04758510016836226,0.10155109991319478,0.0996980001218617,0.7502287998795509
RSVPLG03,cs,20251105-110426,1.0.2,20251105-084826,737,Experiment,Both,1,Automatic,main,77,20251105-111431,global,local,750,H,H,E,E,H-E.png,E-H.png,hH,hH,mask-2.png,mask-2.png,h,1,1.167028299998492,s,0,0.044640599982813,0.049379299860447645,0.0490557998418808,0.1006477999035269,0.10002660006284714,0.7503239000216126
RSVPLG03,cs,20251105-110426,1.0.2,20251105-084826,737,Experiment,Both,1,Automatic,main,78,20251105-111437,local,global,300,S,H,E,A,E-S.png,H-A.png,sS,hH,mask-3.png,mask-2.png,s,1,0.8322282999288291,h,1,0.054355100030079484,0.0476687999907881,0.04758999985642731,0.1000647998880595,0.09967219992540777,0.2996718999929726
RSVPLG03,cs,20251105-110426,1.0.2,20251105-084826,737,Experiment,Both,1,Automatic,main,79,20251105-111441,global,global,750,H,H,A,A,H-A.png,H-A.png,hH,hH,mask-3.png,mask-2.png,h,1,0.29495820007286966,h,1,0.050668499898165464,0.04754310008138418,0.047588099958375096,0.09959890018217266,0.09975080005824566,0.7505573001690209
RSVPLG03,cs,20251105-110426,1.0.2,20251105-084826,737,Experiment,Both,1,Automatic,main,80,20251105-111446,global,global,300,H,S,A,E,H-A.png,S-E.png,hH,sS,mask-4.png,mask-3.png,h,1,0.3147553000599146,s,1,0.4430935999844223,0.04710610001347959,0.046724299900233746,0.10016199992969632,0.09992800001055002,0.30074790003709495
RSVPLG03,cs,20251105-110426,1.0.2,20251105-084826,737,Experiment,Both,1,Automatic,main,81,20251105-111450,local,global,750,H,H,E,A,E-H.png,H-A.png,hH,hH,mask-2.png,mask-3.png,h,1,0.8089809999801219,h,1,0.08902019984088838,0.04773109988309443,0.047714800108224154,0.09995740000158548,0.09953389992006123,0.7505906999576837
RSVPLG03,cs,20251105-110426,1.0.2,20251105-084826,737,Experiment,Both,1,Automatic,main,82,20251105-111455,local,global,750,H,S,A,E,A-H.png,S-E.png,hH,sS,mask-3.png,mask-2.png,h,1,0.42394119990058243,s,1,0.5681100999936461,0.04767920006997883,0.0476502999663353,0.1019903002306819,0.09985020011663437,0.7504358000587672
RSVPLG03,cs,20251105-110426,1.0.2,20251105-084826,737,Experiment,Both,1,Automatic,main,83,20251105-111459,local,local,750,S,H,A,E,A-S.png,E-H.png,sS,hH,mask-4.png,mask-4.png,h,0,0.6796220000833273,s,0,0.12347969994880259,0.047379600116983056,0.0485209000762552,0.099348200019449,0.10043550003319979,0.7500312000047415
RSVPLG03,cs,20251105-110426,1.0.2,20251105-084826,737,Experiment,Both,1,Automatic,main,84,20251105-111504,global,local,750,S,S,A,E,S-A.png,E-S.png,sS,sS,mask-1.png,mask-2.png,s,1,0.4718139001633972,s,1,0.06642289995215833,0.04719899990595877,0.04779779980890453,0.09821480000391603,0.10017949994653463,0.7485263000708073
RSVPLG03,cs,20251105-110426,1.0.2,20251105-084826,737,Experiment,Both,1,Automatic,main,85,20251105-111509,local,local,300,H,S,A,A,A-H.png,A-S.png,hH,sS,mask-4.png,mask-3.png,h,1,0.63762650010176,h,0,0.06658359989523888,0.046577899949625134,0.047510100062936544,0.09783930005505681,0.10053090006113052,0.29920889995992184
RSVPLG03,cs,20251105-110426,1.0.2,20251105-084826,737,Experiment,Both,1,Automatic,main,86,20251105-111514,global,local,300,S,H,A,E,S-A.png,E-H.png,sS,hH,mask-1.png,mask-3.png,s,1,0.9188854999374598,h,1,0.37382189999334514,0.04754630010575056,0.04852299997583032,0.10057110013440251,0.10053909989073873,0.2996273001190275
RSVPLG03,cs,20251105-110426,1.0.2,20251105-084826,737,Experiment,Both,1,Automatic,main,87,20251105-111518,local,local,300,H,H,E,E,E-H.png,E-H.png,hH,hH,mask-2.png,mask-3.png,s,0,0.703066699905321,s,0,0.07099920022301376,0.04752860008738935,0.046576700173318386,0.09954420011490583,0.10066700004972517,0.3000505999661982
RSVPLG03,cs,20251105-110426,1.0.2,20251105-084826,737,Experiment,Both,1,Automatic,main,88,20251105-111523,local,local,750,S,S,A,A,A-S.png,A-S.png,sS,sS,mask-3.png,mask-2.png,s,1,0.42079330002889037,h,0,0.5493586999364197,0.04755810019560158,0.04664089996367693,0.09859170019626617,0.09969919989816844,0.7503794000949711
RSVPLG03,cs,20251105-110426,1.0.2,20251105-084826,737,Experiment,Both,1,Automatic,main,89,20251105-111528,global,global,750,H,S,E,E,H-E.png,S-E.png,hH,sS,mask-4.png,mask-4.png,h,1,0.3086956001352519,s,1,0.45274820015765727,0.04852259997278452,0.04750719992443919,0.09956820006482303,0.1015700998250395,0.7493233000859618
RSVPLG03,cs,20251105-110426,1.0.2,20251105-084826,737,Experiment,Both,1,Automatic,main,90,20251105-111532,global,global,750,S,H,A,A,S-A.png,H-A.png,sS,hH,mask-3.png,mask-1.png,s,1,0.24817349994555116,h,1,0.008614399936050177,0.04851539991796017,0.04851139988750219,0.10060860007070005,0.10053219995461404,0.749987700022757
RSVPLG03,cs,20251105-110426,1.0.2,20251105-084826,737,Experiment,Both,1,Automatic,main,91,20251105-111536,global,global,750,S,S,E,E,S-E.png,S-E.png,sS,sS,mask-1.png,mask-2.png,s,1,0.2626620999071747,s,1,0.05336600006558001,0.0486693000420928,0.04775639995932579,0.1007414001505822,0.09816020005382597,0.751098700100556
RSVPLG03,cs,20251105-110426,1.0.2,20251105-084826,737,Experiment,Both,1,Automatic,main,92,20251105-111541,local,local,750,S,S,E,A,E-S.png,A-S.png,sS,sS,mask-4.png,mask-3.png,s,1,0.28148890007287264,h,0,0.00428039999678731,0.04735050001181662,0.04661590000614524,0.09839619998820126,0.1005963000934571,0.7497214998584241
RSVPLG03,cs,20251105-110426,1.0.2,20251105-084826,737,Experiment,Both,1,Automatic,main,93,20251105-111545,global,local,750,H,H,E,E,H-E.png,E-H.png,hH,hH,mask-1.png,mask-4.png,h,1,0.2558285999111831,h,1,0.07977039995603263,0.04756990005262196,0.047559000086039305,0.10061979992315173,0.09956920007243752,0.7503329999744892
RSVPLG03,cs,20251105-110426,1.0.2,20251105-084826,737,Experiment,Both,1,Automatic,main,94,20251105-111550,global,global,300,H,H,A,A,H-A.png,H-A.png,hH,hH,mask-3.png,mask-4.png,h,1,0.42079759994521737,h,1,0.13667019992135465,0.04871380003169179,0.04657509992830455,0.10054730018600821,0.09893709979951382,0.3010600002016872
RSVPLG03,cs,20251105-110426,1.0.2,20251105-084826,737,Experiment,Both,1,Automatic,main,95,20251105-111554,local,local,300,S,H,E,E,E-S.png,E-H.png,sS,hH,mask-2.png,mask-2.png,s,1,0.5980716999620199,h,1,0.39301889995113015,0.04768240009434521,0.045689300168305635,0.09991630003787577,0.09992419998161495,0.30017019994556904
RSVPLG03,cs,20251105-110426,1.0.2,20251105-084826,737,Experiment,Both,1,Automatic,main,96,20251105-111559,local,global,300,S,H,E,E,E-S.png,H-E.png,sS,hH,mask-3.png,mask-4.png,s,1,0.8317706000525504,h,1,0.049393300199881196,0.04736270010471344,0.047502300003543496,0.1003477000631392,0.0987066999077797,0.30070969997905195
RSVPLG03,cs,20251105-110426,1.0.2,20251105-084826,737,Experiment,Both,1,Automatic,main,97,20251105-111603,global,local,300,S,S,E,E,S-E.png,E-S.png,sS,sS,mask-4.png,mask-3.png,s,1,0.32458839984610677,s,1,0.06607039994560182,0.047689300030469894,0.047450399957597256,0.09989089984446764,0.1006715998519212,0.29957280005328357
RSVPLG03,cs,20251105-110426,1.0.2,20251105-084826,737,Experiment,Both,1,Automatic,main,98,20251105-111607,local,local,300,S,S,A,A,A-S.png,A-S.png,sS,sS,mask-3.png,mask-3.png,h,0,0.9368545999750495,h,0,0.08814210002310574,0.04771869978867471,0.047533700009807944,0.10079569998197258,0.09954139986075461,0.30075239995494485
RSVPLG03,cs,20251105-110426,1.0.2,20251105-084826,737,Experiment,Both,1,Automatic,main,99,20251105-111612,global,local,300,H,H,E,A,H-E.png,A-H.png,hH,hH,mask-1.png,mask-3.png,s,0,0.34350949991494417,h,1,0.5944156998302788,0.04669119999743998,0.046540800016373396,0.09987010015174747,0.09844539989717305,0.30032890010625124
RSVPLG03,cs,20251105-110426,1.0.2,20251105-084826,737,Experiment,Both,1,Automatic,main,100,20251105-111617,local,local,300,H,S,A,A,A-H.png,A-S.png,hH,sS,mask-4.png,mask-4.png,h,1,0.30881550000049174,h,0,0.07249199994839728,0.04769719997420907,0.04867519997060299,0.10054609994404018,0.10009140009060502,0.2993791999761015
RSVPLG03,cs,20251105-111701,1.0.2,20251105-084826,737,Experiment,Both,1,Automatic,warmup,1,20251105-111741,local,global,300,H,H,A,A,A-H.png,H-A.png,hH,hH,mask-2.png,mask-4.png,h,1,1.0164240999147296,h,1,0.07145490008406341,0.04019950004294515,0.04881910001859069,0.0919782998971641,0.10101759992539883,0.2925156999845058
RSVPLG03,cs,20251105-111701,1.0.2,20251105-084826,737,Experiment,Both,1,Automatic,warmup,2,20251105-111746,global,local,300,S,H,A,E,S-A.png,E-H.png,sS,hH,mask-1.png,mask-3.png,s,1,0.3322421999182552,s,0,0.07538709999062121,0.047716000117361546,0.04648969997651875,0.09991440013982356,0.0994337999727577,0.3005931000225246
RSVPLG03,cs,20251105-111701,1.0.2,20251105-084826,737,Experiment,Both,1,Automatic,warmup,3,20251105-111750,global,local,750,S,S,A,A,S-A.png,A-S.png,sS,sS,mask-2.png,mask-4.png,s,1,0.34988639992661774,s,1,0.05731390020810068,0.04708870011381805,0.04656039993278682,0.10011960007250309,0.09946950012817979,0.7509463999886066
RSVPLG03,cs,20251105-111701,1.0.2,20251105-084826,737,Experiment,Both,1,Automatic,warmup,4,20251105-111754,global,global,300,H,S,E,A,H-E.png,S-A.png,hH,sS,mask-1.png,mask-3.png,h,1,0.23444100003689528,s,1,1.3215504998806864,0.04745610011741519,0.04751679999753833,0.0999027001671493,0.09956259978935122,0.3001241001766175
RSVPLG03,cs,20251105-111701,1.0.2,20251105-084826,737,Experiment,Both,1,Automatic,main,5,20251105-111800,local,local,300,H,S,A,E,A-H.png,E-S.png,hH,sS,mask-2.png,mask-4.png,h,1,0.4731669998727739,s,1,0.6008890999946743,0.04755069990642369,0.04577010008506477,0.10074249980971217,0.09822960011661053,0.3012342997826636
RSVPLG03,cs,20251105-111701,1.0.2,20251105-084826,737,Experiment,Both,1,Automatic,main,6,20251105-111804,local,global,300,H,H,A,A,A-H.png,H-A.png,hH,hH,mask-1.png,mask-3.png,s,0,0.8924143000040203,h,1,0.05075719999149442,0.0475206000264734,0.047524600056931376,0.10053659998811781,0.10050690011121333,0.2998664998449385
RSVPLG03,cs,20251105-111701,1.0.2,20251105-084826,737,Experiment,Both,1,Automatic,main,7,20251105-111809,global,local,750,S,S,A,A,S-A.png,A-S.png,sS,sS,mask-2.png,mask-3.png,s,1,0.3682234000880271,s,1,0.05195660004392266,0.047037600073963404,0.04747519991360605,0.09927710006013513,0.10057829995639622,0.7491864999756217
RSVPLG03,cs,20251105-111701,1.0.2,20251105-084826,737,Experiment,Both,1,Automatic,main,8,20251105-111813,local,global,750,H,S,A,E,A-H.png,S-E.png,hH,sS,mask-3.png,mask-2.png,h,1,0.25520610017701983,s,1,0.43163929996080697,0.0477167998906225,0.04774900013580918,0.10092829982750118,0.09994040010496974,0.7505450998432934
RSVPLG03,cs,20251105-111701,1.0.2,20251105-084826,737,Experiment,Both,1,Automatic,main,9,20251105-111818,global,global,300,H,H,E,A,H-E.png,H-A.png,hH,hH,mask-1.png,mask-4.png,h,1,0.44204519991762936,h,1,0.06941080000251532,0.04764060000889003,0.047726500080898404,0.09983190009370446,0.10192209994420409,0.29932620003819466
RSVPLG03,cs,20251105-111701,1.0.2,20251105-084826,737,Experiment,Both,1,Automatic,main,10,20251105-111822,global,local,300,H,S,A,E,H-A.png,E-S.png,hH,sS,mask-1.png,mask-3.png,h,1,0.26990429987199605,s,1,0.4461103000212461,0.047732200007885695,0.0477076000533998,0.09992030006833375,0.1009557000361383,0.29953760001808405
RSVPLG03,cs,20251105-111701,1.0.2,20251105-084826,737,Experiment,Both,1,Automatic,main,11,20251105-111826,global,global,750,S,H,E,A,S-E.png,H-A.png,sS,hH,mask-1.png,mask-2.png,s,1,0.17692500003613532,h,1,0.0028055000584572554,0.04770329990424216,0.0477462001144886,0.09989989991299808,0.09995780000463128,0.7495593999046832
RSVPLG03,cs,20251105-111701,1.0.2,20251105-084826,737,Experiment,Both,1,Automatic,main,12,20251105-111831,local,global,750,S,H,A,E,A-S.png,H-E.png,sS,hH,mask-4.png,mask-1.png,h,0,0.310661599971354,h,1,0.06022819993086159,0.04750670003704727,0.04750049998983741,0.09989800001494586,0.09992389986291528,0.7500326000154018
RSVPLG03,cs,20251105-111701,1.0.2,20251105-084826,737,Experiment,Both,1,Automatic,main,13,20251105-111835,local,local,300,H,H,A,A,A-H.png,A-H.png,hH,hH,mask-2.png,mask-2.png,h,1,0.4810715999919921,h,1,0.08495020004920661,0.04740450019016862,0.04849279997870326,0.10141600016504526,0.10048309992998838,0.3002784000709653
RSVPLG03,cs,20251105-111701,1.0.2,20251105-084826,737,Experiment,Both,1,Automatic,main,14,20251105-111839,global,global,300,H,H,A,E,H-A.png,H-E.png,hH,hH,mask-2.png,mask-3.png,h,1,0.27315100003033876,h,1,0.08311890019103885,0.04575060005299747,0.04719830001704395,0.09898050012998283,0.10005820007063448,0.29903690004721284
RSVPLG03,cs,20251105-111701,1.0.2,20251105-084826,737,Experiment,Both,1,Automatic,main,15,20251105-111844,local,local,300,H,S,A,E,A-H.png,E-S.png,hH,sS,mask-4.png,mask-3.png,h,1,1.2775685000233352,h,0,0.08876379998400807,0.04753079987131059,0.04852850013412535,0.10054240003228188,0.10053480020724237,0.29977609985508025
RSVPLG03,cs,20251105-111701,1.0.2,20251105-084826,737,Experiment,Both,1,Automatic,main,16,20251105-111849,global,global,300,S,S,E,A,S-E.png,S-A.png,sS,sS,mask-2.png,mask-2.png,s,1,0.31236350000835955,s,1,0.03814530000090599,0.04751970013603568,0.047514199977740645,0.09850850002840161,0.10051700007170439,0.29976429999805987
RSVPLG03,cs,20251105-111701,1.0.2,20251105-084826,737,Experiment,Both,1,Automatic,main,17,20251105-111853,local,global,750,S,S,A,E,A-S.png,S-E.png,sS,sS,mask-1.png,mask-1.png,h,0,0.3459891998209059,s,1,0.043713999912142754,0.04755029990337789,0.04755660006776452,0.09954919992014766,0.10057430015876889,0.7499922998249531
RSVPLG03,cs,20251105-111701,1.0.2,20251105-084826,737,Experiment,Both,1,Automatic,main,18,20251105-111857,global,local,750,S,H,A,E,S-A.png,E-H.png,sS,hH,mask-1.png,mask-4.png,s,1,0.1552085999865085,s,0,0.07645950000733137,0.047508300049230456,0.046477199997752905,0.09954340010881424,0.09892400004900992,0.7496742000803351
RSVPLG03,cs,20251105-111701,1.0.2,20251105-084826,737,Experiment,Both,1,Automatic,main,19,20251105-111902,local,global,300,S,H,A,A,A-S.png,H-A.png,sS,hH,mask-1.png,mask-4.png,h,0,0.7867271997965872,s,0,0.9627443999052048,0.04741490003652871,0.04750119987875223,0.10041270009241998,0.09947389992885292,0.30072920001111925
RSVPLG03,cs,20251105-111701,1.0.2,20251105-084826,737,Experiment,Both,1,Automatic,main,20,20251105-111906,global,global,300,S,S,A,E,S-A.png,S-E.png,sS,sS,mask-4.png,mask-4.png,s,1,0.12200079998001456,s,1,0.07480840012431145,0.048480299999937415,0.04759089997969568,0.10064930003136396,0.10058950004167855,0.3013224999886006
RSVPLG03,cs,20251105-111701,1.0.2,20251105-084826,737,Experiment,Both,1,Automatic,main,21,20251105-111910,local,local,750,H,H,E,E,E-H.png,E-H.png,hH,hH,mask-1.png,mask-2.png,s,0,0.3853629999794066,s,0,0.07156480010598898,0.04817099985666573,0.04564590007066727,0.10036439984105527,0.09806280001066625,0.7515455998945981
RSVPLG03,cs,20251105-111701,1.0.2,20251105-084826,737,Experiment,Both,1,Automatic,main,22,20251105-111915,local,local,750,H,H,A,A,A-H.png,A-H.png,hH,hH,mask-3.png,mask-2.png,h,1,0.755259099882096,h,1,0.11326229991391301,0.04757019993849099,0.0476885000243783,0.10065060015767813,0.1008969999384135,0.7499269000254571
RSVPLG03,cs,20251105-111701,1.0.2,20251105-084826,737,Experiment,Both,1,Automatic,main,23,20251105-111920,global,global,750,S,H,E,E,S-E.png,H-E.png,sS,hH,mask-4.png,mask-2.png,s,1,0.23786680004559457,h,1,0.012495500035583973,0.047081700060516596,0.04668059991672635,0.09940730012021959,0.0998972998932004,0.75042390008457
RSVPLG03,cs,20251105-111701,1.0.2,20251105-084826,737,Experiment,Both,1,Automatic,main,24,20251105-111924,local,local,750,S,S,E,A,E-S.png,A-S.png,sS,sS,mask-1.png,mask-2.png,s,1,0.3347046999260783,h,0,0.03760910010896623,0.047472900012508035,0.047534000128507614,0.09920420008711517,0.09949890011921525,0.7502097000833601
RSVPLG03,cs,20251105-111701,1.0.2,20251105-084826,737,Experiment,Both,1,Automatic,main,25,20251105-111929,local,local,750,S,S,E,E,E-S.png,E-S.png,sS,sS,mask-2.png,mask-2.png,h,0,1.5528122000396252,h,0,0.10610600002110004,0.04750029998831451,0.047550000017508864,0.09949179994873703,0.09955050004646182,0.7498218999244273
RSVPLG03,cs,20251105-111701,1.0.2,20251105-084826,737,Experiment,Both,1,Automatic,main,26,20251105-111946,local,global,300,H,S,E,A,E-H.png,S-A.png,hH,sS,mask-2.png,mask-3.png,h,1,0.49332210002467036,s,1,0.621325199957937,0.048432699870318174,0.04808379989117384,0.09967979998327792,0.09977170010097325,0.2994069999549538
RSVPLG03,cs,20251105-111701,1.0.2,20251105-084826,737,Experiment,Both,1,Automatic,main,27,20251105-111950,global,local,300,S,H,A,A,S-A.png,A-H.png,sS,hH,mask-1.png,mask-4.png,s,1,0.5835148000624031,h,1,0.5604195001069456,0.04772419994696975,0.04662380018271506,0.099831199971959,0.09990260004997253,0.3006575999315828
RSVPLG03,cs,20251105-111701,1.0.2,20251105-084826,737,Experiment,Both,1,Automatic,main,28,20251105-111955,global,global,300,S,S,A,A,S-A.png,S-A.png,sS,sS,mask-2.png,mask-1.png,s,1,0.34085580008104444,s,1,0.07366859982721508,0.046728799818083644,0.04763830010779202,0.09984509996138513,0.10013560019433498,0.30036579980514944
RSVPLG03,cs,20251105-111701,1.0.2,20251105-084826,737,Experiment,Both,1,Automatic,main,29,20251105-111959,global,local,300,S,S,A,A,S-A.png,A-S.png,sS,sS,mask-1.png,mask-1.png,s,1,0.3847285998053849,h,0,0.5449072998017073,0.04671959998086095,0.047694999957457185,0.09996939986012876,0.09970550006255507,0.30038159992545843
RSVPLG03,cs,20251105-111701,1.0.2,20251105-084826,737,Experiment,Both,1,Automatic,main,30,20251105-112003,local,global,750,S,H,E,A,E-S.png,H-A.png,sS,hH,mask-3.png,mask-2.png,s,1,0.3245646001305431,h,1,0.06049159984104335,0.04756099986843765,0.04769399994984269,0.10080859996378422,0.0998070000205189,0.7507452999707311
RSVPLG03,cs,20251105-111701,1.0.2,20251105-084826,737,Experiment,Both,1,Automatic,main,31,20251105-112008,global,local,750,S,H,E,E,S-E.png,E-H.png,sS,hH,mask-1.png,mask-2.png,s,1,0.371935399947688,h,1,0.16440979996696115,0.04676999989897013,0.04671939997933805,0.09948109998367727,0.10000590002164245,0.7501401999033988
RSVPLG03,cs,20251105-111701,1.0.2,20251105-084826,737,Experiment,Both,1,Automatic,main,32,20251105-112012,local,global,300,S,S,A,E,A-S.png,S-E.png,sS,sS,mask-4.png,mask-1.png,h,0,0.8499821999575943,s,1,0.05474389996379614,0.04751030006445944,0.04751179995946586,0.09950949996709824,0.09935380006209016,0.2997950999997556
RSVPLG03,cs,20251105-111701,1.0.2,20251105-084826,737,Experiment,Both,1,Automatic,main,33,20251105-112017,global,global,750,H,H,E,E,H-E.png,H-E.png,hH,hH,mask-3.png,mask-1.png,h,1,0.17242390010505915,h,1,0.05550840008072555,0.04654900007881224,0.04660869995132089,0.09960360010154545,0.09970510005950928,0.7502653000410646
RSVPLG03,cs,20251105-111701,1.0.2,20251105-084826,737,Experiment,Both,1,Automatic,main,34,20251105-112021,local,global,750,H,S,A,E,A-H.png,S-E.png,hH,sS,mask-2.png,mask-3.png,h,1,0.24762909999117255,s,1,0.8507072001229972,0.047536399913951755,0.04769750009290874,0.10072059999220073,0.10069310013204813,0.75052549992688
RSVPLG03,cs,20251105-111701,1.0.2,20251105-084826,737,Experiment,Both,1,Automatic,main,35,20251105-112027,global,global,300,S,H,E,E,S-E.png,H-E.png,sS,hH,mask-3.png,mask-1.png,s,1,0.24865700001828372,h,1,0.028687099926173687,0.04755860008299351,0.048350000055506825,0.10073660011403263,0.10054089990444481,0.3002353000920266
RSVPLG03,cs,20251105-111701,1.0.2,20251105-084826,737,Experiment,Both,1,Automatic,main,36,20251105-112031,global,global,750,H,H,A,E,H-A.png,H-E.png,hH,hH,mask-2.png,mask-3.png,h,1,0.2581572001799941,h,1,0.10824829991906881,0.047536800149828196,0.04752280004322529,0.09953230014070868,0.10061900014989078,0.7496166999917477
RSVPLG03,cs,20251105-111701,1.0.2,20251105-084826,737,Experiment,Both,1,Automatic,main,37,20251105-112035,global,local,750,H,S,A,A,H-A.png,A-S.png,hH,sS,mask-4.png,mask-3.png,h,1,0.3425954000558704,h,0,0.07876510010100901,0.0473726000636816,0.047539700055494905,0.10030329995788634,0.10054060001857579,0.7499853000044823
RSVPLG03,cs,20251105-111701,1.0.2,20251105-084826,737,Experiment,Both,1,Automatic,main,38,20251105-112040,local,local,300,S,H,E,E,E-S.png,E-H.png,sS,hH,mask-1.png,mask-3.png,s,1,1.6765340000856668,s,0,0.055994699941948056,0.04705429985187948,0.04667529999278486,0.10012959991581738,0.100685799960047,0.300260900054127
RSVPLG03,cs,20251105-111701,1.0.2,20251105-084826,737,Experiment,Both,1,Automatic,main,39,20251105-112045,local,local,300,S,H,E,A,E-S.png,A-H.png,sS,hH,mask-2.png,mask-1.png,s,1,0.3600887998472899,h,1,0.06444810004904866,0.048136199824512005,0.046867100056260824,0.10135259991511703,0.09838760015554726,0.30094939982518554
RSVPLG03,cs,20251105-111701,1.0.2,20251105-084826,737,Experiment,Both,1,Automatic,main,40,20251105-112049,global,global,300,H,S,A,E,H-A.png,S-E.png,hH,sS,mask-4.png,mask-2.png,h,1,0.19438489992171526,s,1,0.6122722998261452,0.04871660005301237,0.04567630006931722,0.0999115000013262,0.09956510015763342,0.3015501999761909
RSVPLG03,cs,20251105-111701,1.0.2,20251105-084826,737,Experiment,Both,1,Automatic,main,41,20251105-112054,global,local,750,S,S,A,A,S-A.png,A-S.png,sS,sS,mask-3.png,mask-3.png,s,1,0.1673642999958247,h,0,0.044434699928388,0.047505599912256,0.047529299976304173,0.10055129998363554,0.10053429985418916,0.7500033001415431
RSVPLG03,cs,20251105-111701,1.0.2,20251105-084826,737,Experiment,Both,1,Automatic,main,42,20251105-112058,local,global,300,H,H,A,A,A-H.png,H-A.png,hH,hH,mask-1.png,mask-1.png,h,1,0.3968259999528527,h,1,0.07068969984538853,0.046516000060364604,0.0475057999137789,0.0995527000632137,0.10056099994108081,0.29881309997290373
RSVPLG03,cs,20251105-111701,1.0.2,20251105-084826,737,Experiment,Both,1,Automatic,main,43,20251105-112103,local,global,300,H,H,E,E,E-H.png,H-E.png,hH,hH,mask-3.png,mask-3.png,s,0,0.8604129999876022,h,1,0.00984850013628602,0.04756690002977848,0.04756919993087649,0.0996817999985069,0.10074110003188252,0.3000652000773698
RSVPLG03,cs,20251105-111701,1.0.2,20251105-084826,737,Experiment,Both,1,Automatic,main,44,20251105-112107,local,global,750,S,H,A,A,A-S.png,H-A.png,sS,hH,mask-4.png,mask-2.png,h,0,0.3786349000874907,h,1,0.08680730010382831,0.04751430009491742,0.047521600034087896,0.09851870010606945,0.10060310014523566,0.7498049999121577
RSVPLG03,cs,20251105-111701,1.0.2,20251105-084826,737,Experiment,Both,1,Automatic,main,45,20251105-112112,global,local,750,S,S,E,A,S-E.png,A-S.png,sS,sS,mask-4.png,mask-2.png,s,1,0.3201862000860274,h,0,0.015507700154557824,0.0476110999006778,0.04756719991564751,0.09861409990116954,0.09956339979544282,0.7503313000779599
RSVPLG03,cs,20251105-111701,1.0.2,20251105-084826,737,Experiment,Both,1,Automatic,main,46,20251105-112116,global,local,750,S,S,A,A,S-A.png,A-S.png,sS,sS,mask-4.png,mask-2.png,s,1,0.3030568999238312,h,0,0.024177300045266747,0.04754569986835122,0.04759810003452003,0.09869230003096163,0.10059190005995333,0.7493871999904513
RSVPLG03,cs,20251105-111701,1.0.2,20251105-084826,737,Experiment,Both,1,Automatic,main,47,20251105-112121,global,local,750,S,S,E,E,S-E.png,E-S.png,sS,sS,mask-1.png,mask-2.png,s,1,0.21383419982157648,s,1,0.05457619996741414,0.047514700097963214,0.04751349985599518,0.10051830019801855,0.1005396000109613,0.7500532001722604
RSVPLG03,cs,20251105-111701,1.0.2,20251105-084826,737,Experiment,Both,1,Automatic,main,48,20251105-112125,global,global,300,S,S,E,E,S-E.png,S-E.png,sS,sS,mask-2.png,mask-4.png,s,1,0.29951869999058545,s,1,0.018825000151991844,0.04772399994544685,0.047770600067451596,0.10111039993353188,0.10102380020543933,0.3003085998352617
RSVPLG03,cs,20251105-111701,1.0.2,20251105-084826,737,Experiment,Both,1,Automatic,main,49,20251105-112129,global,local,300,H,H,A,E,H-A.png,E-H.png,hH,hH,mask-3.png,mask-4.png,h,1,0.2777581999544054,s,0,0.4055996001698077,0.04868100001476705,0.04832600010558963,0.10087580000981688,0.10129940020851791,0.2995331999845803
RSVPLG03,cs,20251105-111701,1.0.2,20251105-084826,737,Experiment,Both,1,Automatic,main,50,20251105-112133,global,global,300,S,H,A,A,S-A.png,H-A.png,sS,hH,mask-1.png,mask-1.png,s,1,0.37992360000498593,h,1,0.6368413001764566,0.04774009995162487,0.04773749993182719,0.102054099785164,0.09894559998065233,0.301560299936682
RSVPLG03,cs,20251105-111701,1.0.2,20251105-084826,737,Experiment,Both,1,Automatic,main,51,20251105-112147,global,local,300,H,S,E,E,H-E.png,E-S.png,hH,sS,mask-3.png,mask-2.png,h,1,0.39758570003323257,s,1,0.3788258000276983,0.04796590004116297,0.047704000025987625,0.10115160001441836,0.10193960019387305,0.30001919995993376
RSVPLG03,cs,20251105-111701,1.0.2,20251105-084826,737,Experiment,Both,1,Automatic,main,52,20251105-112151,local,local,750,H,S,E,E,E-H.png,E-S.png,hH,sS,mask-4.png,mask-1.png,s,0,1.6446726000867784,s,1,0.06873199995607138,0.04680979996919632,0.04768540011718869,0.10090410010889173,0.0998803002294153,0.7508513999637216
RSVPLG03,cs,20251105-111701,1.0.2,20251105-084826,737,Experiment,Both,1,Automatic,main,53,20251105-112157,global,local,300,H,S,E,A,H-E.png,A-S.png,hH,sS,mask-2.png,mask-4.png,h,1,0.39761959994211793,s,1,0.5046786000020802,0.045395700028166175,0.04712489992380142,0.09962110011838377,0.09948109998367727,0.3000182001851499
RSVPLG03,cs,20251105-111701,1.0.2,20251105-084826,737,Experiment,Both,1,Automatic,main,54,20251105-112202,global,local,300,S,S,A,E,S-A.png,E-S.png,sS,sS,mask-2.png,mask-3.png,s,1,0.20518959988839924,h,0,0.1036767999175936,0.04766400018706918,0.04766309983097017,0.09958710009232163,0.09977079997770488,0.2997863001655787
RSVPLG03,cs,20251105-111701,1.0.2,20251105-084826,737,Experiment,Both,1,Automatic,main,55,20251105-112206,local,local,750,S,S,A,E,A-S.png,E-S.png,sS,sS,mask-3.png,mask-4.png,h,0,1.06384569988586,s,1,0.060782300075516105,0.04779780004173517,0.04771670000627637,0.10000590002164245,0.10017129988409579,0.7496603999752551
RSVPLG03,cs,20251105-111701,1.0.2,20251105-084826,737,Experiment,Both,1,Automatic,main,56,20251105-112211,global,global,750,S,S,E,A,S-E.png,S-A.png,sS,sS,mask-4.png,mask-4.png,s,1,0.24490890000015497,s,1,0.07545430003665388,0.04767909995280206,0.046520500211045146,0.09881969983689487,0.09869940020143986,0.7500218998175114
RSVPLG03,cs,20251105-111701,1.0.2,20251105-084826,737,Experiment,Both,1,Automatic,main,57,20251105-112216,global,global,750,H,S,E,E,H-E.png,S-E.png,hH,sS,mask-2.png,mask-2.png,h,1,0.2789294000249356,s,1,0.03900200012139976,0.047507999930530787,0.04753290000371635,0.0977173000574112,0.0995486001484096,0.7503454999532551
RSVPLG03,cs,20251105-111701,1.0.2,20251105-084826,737,Experiment,Both,1,Automatic,main,58,20251105-112220,global,global,750,S,H,A,A,S-A.png,H-A.png,sS,hH,mask-1.png,mask-2.png,s,1,0.25232460000552237,h,1,0.11408900003880262,0.04741079988889396,0.048638799926266074,0.09841330000199378,0.10062599997036159,0.7484609000384808
RSVPLG03,cs,20251105-111701,1.0.2,20251105-084826,737,Experiment,Both,1,Automatic,main,59,20251105-112225,local,global,300,S,H,E,E,E-S.png,H-E.png,sS,hH,mask-2.png,mask-1.png,s,1,0.30770140001550317,h,1,0.10362240020185709,0.048708399990573525,0.047713200096040964,0.1000204998999834,0.09897370007820427,0.30131389992311597
RSVPLG03,cs,20251105-111701,1.0.2,20251105-084826,737,Experiment,Both,1,Automatic,main,60,20251105-112229,global,global,300,H,S,A,A,H-A.png,S-A.png,hH,sS,mask-1.png,mask-3.png,h,1,0.25297729996964335,s,1,0.051534999860450625,0.04769250005483627,0.04754150006920099,0.09960650000721216,0.09974880004301667,0.2999889000784606
RSVPLG03,cs,20251105-111701,1.0.2,20251105-084826,737,Experiment,Both,1,Automatic,main,61,20251105-112233,local,local,300,H,H,A,A,A-H.png,A-H.png,hH,hH,mask-2.png,mask-2.png,h,1,0.47362120007164776,h,1,0.3596604000777006,0.04741090000607073,0.04756289999932051,0.10042849997989833,0.09956449992023408,0.3007012999150902
RSVPLG03,cs,20251105-111701,1.0.2,20251105-084826,737,Experiment,Both,1,Automatic,main,62,20251105-112238,local,global,750,H,S,A,E,A-H.png,S-E.png,hH,sS,mask-3.png,mask-1.png,h,1,0.32036629994399846,s,1,0.10014660004526377,0.0470660999417305,0.0467034000903368,0.10115929995663464,0.09986279997974634,0.7513233998324722
RSVPLG03,cs,20251105-111701,1.0.2,20251105-084826,737,Experiment,Both,1,Automatic,main,63,20251105-112242,local,global,750,S,H,A,A,A-S.png,H-A.png,sS,hH,mask-1.png,mask-4.png,s,1,0.543604499893263,h,1,0.0738769001327455,0.04766439995728433,0.04767669993452728,0.10186589998193085,0.09988410002551973,0.7517848000861704
RSVPLG03,cs,20251105-111701,1.0.2,20251105-084826,737,Experiment,Both,1,Automatic,main,64,20251105-112247,local,local,750,H,S,A,E,A-H.png,E-S.png,hH,sS,mask-4.png,mask-2.png,h,1,0.2017465999815613,s,1,0.05786850000731647,0.047537799924612045,0.04756590002216399,0.10153000010177493,0.09959209989756346,0.7521901000291109
RSVPLG03,cs,20251105-111701,1.0.2,20251105-084826,737,Experiment,Both,1,Automatic,main,65,20251105-112252,global,local,300,S,S,A,E,S-A.png,E-S.png,sS,sS,mask-3.png,mask-2.png,s,1,0.2995329999830574,s,1,0.10005659982562065,0.047467999858781695,0.047813599929213524,0.10142900003120303,0.09972819988615811,0.30099870008416474
RSVPLG03,cs,20251105-111701,1.0.2,20251105-084826,737,Experiment,Both,1,Automatic,main,66,20251105-112256,local,local,750,H,S,A,E,A-H.png,E-S.png,hH,sS,mask-2.png,mask-3.png,h,1,0.17805240000598133,s,1,0.07852169987745583,0.047692100051790476,0.046708600129932165,0.09990130015648901,0.09989550011232495,0.7502520000562072
RSVPLG03,cs,20251105-111701,1.0.2,20251105-084826,737,Experiment,Both,1,Automatic,main,67,20251105-112300,local,local,750,H,S,A,E,A-H.png,E-S.png,hH,sS,mask-2.png,mask-1.png,s,0,1.0730250000488013,s,1,0.23465300002135336,0.047726300079375505,0.04718160000629723,0.10074810008518398,0.10019769985228777,0.749593400163576
RSVPLG03,cs,20251105-111701,1.0.2,20251105-084826,737,Experiment,Both,1,Automatic,main,68,20251105-112306,local,local,750,H,S,A,E,A-H.png,E-S.png,hH,sS,mask-4.png,mask-1.png,h,1,0.36041179997846484,s,1,0.01027909992262721,0.04676010017283261,0.047498200088739395,0.09900570008903742,0.09933610004372895,0.7507388000376523
RSVPLG03,cs,20251105-111701,1.0.2,20251105-084826,737,Experiment,Both,1,Automatic,main,69,20251105-112310,global,local,750,S,S,A,A,S-A.png,A-S.png,sS,sS,mask-3.png,mask-3.png,s,1,0.2958333999849856,s,1,0.10325119993649423,0.04652840015478432,0.0475165001116693,0.09953969996422529,0.09954189998097718,0.7498337000142783
RSVPLG03,cs,20251105-111701,1.0.2,20251105-084826,737,Experiment,Both,1,Automatic,main,70,20251105-112315,local,global,750,H,H,E,A,E-H.png,H-A.png,hH,hH,mask-4.png,mask-1.png,s,0,0.6910945998970419,h,1,0.17159099993295968,0.047535100020468235,0.04751920001581311,0.09855889994651079,0.10051610018126667,0.7500429998617619
RSVPLG03,cs,20251105-111701,1.0.2,20251105-084826,737,Experiment,Both,1,Automatic,main,71,20251105-112320,global,global,750,S,S,E,A,S-E.png,S-A.png,sS,sS,mask-3.png,mask-1.png,s,1,0.2706339000724256,h,0,0.06852380000054836,0.04771380010060966,0.04778739996254444,0.09978920011781156,0.09940659999847412,0.7503794000949711
RSVPLG03,cs,20251105-111701,1.0.2,20251105-084826,737,Experiment,Both,1,Automatic,main,72,20251105-112325,local,global,300,H,S,A,A,A-H.png,S-A.png,hH,sS,mask-3.png,mask-1.png,h,1,0.3854103002231568,s,1,0.04126099986024201,0.045671300031244755,0.047684899996966124,0.09998219995759428,0.09886499983258545,0.29959940002299845
RSVPLG03,cs,20251105-111701,1.0.2,20251105-084826,737,Experiment,Both,1,Automatic,main,73,20251105-112329,local,local,750,S,S,E,E,E-S.png,E-S.png,sS,sS,mask-2.png,mask-3.png,s,1,0.7499993999954313,s,1,0.08287769998423755,0.04572870000265539,0.046301000053063035,0.099974500015378,0.10060290014371276,0.7497604999225587
RSVPLG03,cs,20251105-111701,1.0.2,20251105-084826,737,Experiment,Both,1,Automatic,main,74,20251105-112334,global,local,750,S,S,E,E,S-E.png,E-S.png,sS,sS,mask-4.png,mask-3.png,s,1,0.11774290003813803,s,1,0.08412379981018603,0.047715799883008,0.04770539980381727,0.10092789982445538,0.10091139981523156,0.750779900001362
RSVPLG03,cs,20251105-111701,1.0.2,20251105-084826,737,Experiment,Both,1,Automatic,main,75,20251105-112338,global,global,300,S,S,E,E,S-E.png,S-E.png,sS,sS,mask-1.png,mask-1.png,s,1,0.24368439987301826,s,1,0.1093274001032114,0.04677920020185411,0.04765880014747381,0.1008065000642091,0.09969130018725991,0.3005576999858022
RSVPLG03,cs,20251105-111701,1.0.2,20251105-084826,737,Experiment,Both,1,Automatic,main,76,20251105-112343,local,global,750,S,S,A,E,A-S.png,S-E.png,sS,sS,mask-2.png,mask-2.png,s,1,0.5709538001101464,s,1,0.12833119998686016,0.046710999915376306,0.04733410011976957,0.10003299987874925,0.09994610003195703,0.749868799932301
RSVPLG03,cs,20251105-111701,1.0.2,20251105-084826,737,Experiment,Both,1,Automatic,main,77,20251105-112348,global,global,750,H,H,A,E,H-A.png,H-E.png,hH,hH,mask-3.png,mask-4.png,h,1,0.09211860015057027,h,1,0.08515099994838238,0.04864499997347593,0.047516899881884456,0.10060580004937947,0.0995579999871552,0.7513588001020253
RSVPLG03,cs,20251105-111701,1.0.2,20251105-084826,737,Experiment,Both,1,Automatic,main,78,20251105-112352,global,global,750,H,S,E,E,H-E.png,S-E.png,hH,sS,mask-4.png,mask-4.png,h,1,0.3601114999037236,s,1,0.1069070000667125,0.04687469988130033,0.04861779999919236,0.10009009996429086,0.09964639996178448,0.7500644000247121
RSVPLG03,cs,20251105-111701,1.0.2,20251105-084826,737,Experiment,Both,1,Automatic,main,79,20251105-112357,global,local,300,S,S,E,E,S-E.png,E-S.png,sS,sS,mask-3.png,mask-2.png,s,1,0.23013690020889044,s,1,0.08657569997012615,0.0466373001690954,0.047684599878266454,0.09984020004048944,0.10087979980744421,0.2992880002129823
RSVPLG03,cs,20251105-111701,1.0.2,20251105-084826,737,Experiment,Both,1,Automatic,main,80,20251105-112401,global,global,300,H,S,E,E,H-E.png,S-E.png,hH,sS,mask-1.png,mask-2.png,h,1,0.18421249999664724,s,1,0.47046940005384386,0.04736150009557605,0.04669099999591708,0.1006207000464201,0.09882419998757541,0.30153990001417696
RSVPLG03,cs,20251105-111701,1.0.2,20251105-084826,737,Experiment,Both,1,Automatic,main,81,20251105-112405,local,global,300,H,H,A,E,A-H.png,H-E.png,hH,hH,mask-4.png,mask-3.png,h,1,0.15552220004610717,h,1,0.10307969991117716,0.0475449999794364,0.04856100003235042,0.09962610015645623,0.10145099996589124,0.2995059001259506
RSVPLG03,cs,20251105-111701,1.0.2,20251105-084826,737,Experiment,Both,1,Automatic,main,82,20251105-112409,global,local,300,S,S,A,A,S-A.png,A-S.png,sS,sS,mask-4.png,mask-2.png,s,1,0.23973599984310567,h,0,0.11668650014325976,0.047533199889585376,0.047438499983400106,0.10078329988755286,0.0996362001169473,0.2999137998558581
RSVPLG03,cs,20251105-111701,1.0.2,20251105-084826,737,Experiment,Both,1,Automatic,main,83,20251105-112414,global,global,750,H,S,E,E,H-E.png,S-E.png,hH,sS,mask-1.png,mask-3.png,h,1,0.19122050004079938,s,1,0.07664360012859106,0.04684520000591874,0.046644399873912334,0.10103350016288459,0.09904609993100166,0.7507830001413822
RSVPLG03,cs,20251105-111701,1.0.2,20251105-084826,737,Experiment,Both,1,Automatic,main,84,20251105-112418,local,local,300,H,S,A,A,A-H.png,A-S.png,hH,sS,mask-1.png,mask-2.png,h,1,0.354316100012511,h,0,0.0703946000430733,0.046740900026634336,0.047757199965417385,0.09895300003699958,0.09997619991190732,0.2986030001193285
RSVPLG03,cs,20251105-111701,1.0.2,20251105-084826,737,Experiment,Both,1,Automatic,main,85,20251105-112422,local,global,750,H,S,E,E,E-H.png,S-E.png,hH,sS,mask-1.png,mask-2.png,s,0,0.5509368001949042,s,1,0.1358132001478225,0.048047199845314026,0.04747439990751445,0.10001079994253814,0.0994963999837637,0.7511054000351578
RSVPLG03,cs,20251105-111701,1.0.2,20251105-084826,737,Experiment,Both,1,Automatic,main,86,20251105-112427,local,local,300,S,H,A,A,A-S.png,A-H.png,sS,hH,mask-4.png,mask-4.png,h,0,0.6672840998508036,s,0,0.06701290002092719,0.047532400116324425,0.047534799901768565,0.0989453000947833,0.10055690002627671,0.3002957000862807
RSVPLG03,cs,20251105-111701,1.0.2,20251105-084826,737,Experiment,Both,1,Automatic,main,87,20251105-112432,local,local,750,H,S,E,E,E-H.png,E-S.png,hH,sS,mask-2.png,mask-1.png,s,0,0.2772613000124693,s,1,0.12547639990225434,0.047500899992883205,0.04680519993416965,0.09925590013153851,0.09976539993658662,0.7508511000778526
RSVPLG03,cs,20251105-111701,1.0.2,20251105-084826,737,Experiment,Both,1,Automatic,main,88,20251105-112436,local,global,300,H,S,A,A,A-H.png,S-A.png,hH,sS,mask-2.png,mask-3.png,h,1,0.28831620002165437,s,1,0.054199100006371737,0.04755039978772402,0.04697849997319281,0.09961649985052645,0.1008305000141263,0.29893799987621605
RSVPLG03,cs,20251105-111701,1.0.2,20251105-084826,737,Experiment,Both,1,Automatic,main,89,20251105-112440,global,local,750,S,H,E,A,S-E.png,A-H.png,sS,hH,mask-3.png,mask-1.png,s,1,0.27107730018906295,h,1,0.07581899990327656,0.04662479995749891,0.04773790016770363,0.09995570010505617,0.09988450002856553,0.7494002999737859
RSVPLG03,cs,20251105-111701,1.0.2,20251105-084826,737,Experiment,Both,1,Automatic,main,90,20251105-112445,local,global,750,H,H,A,E,A-H.png,H-E.png,hH,hH,mask-1.png,mask-3.png,h,1,0.2841137000359595,h,1,0.08694069995544851,0.04667260008864105,0.046549499966204166,0.0998224001377821,0.09971420001238585,0.7503304001875222
RSVPLG03,cs,20251105-111701,1.0.2,20251105-084826,737,Experiment,Both,1,Automatic,main,91,20251105-112449,global,local,300,H,H,A,A,H-A.png,A-H.png,hH,hH,mask-2.png,mask-4.png,h,1,0.2914893999695778,h,1,0.0671314001083374,0.04769859998486936,0.04771369998343289,0.0999434997793287,0.1009018998593092,0.2995543999131769
RSVPLG03,cs,20251105-111701,1.0.2,20251105-084826,737,Experiment,Both,1,Automatic,main,92,20251105-112453,local,local,300,H,S,A,A,A-H.png,A-S.png,hH,sS,mask-3.png,mask-3.png,h,1,0.2960378001444042,h,0,0.0755218998529017,0.04659990011714399,0.04756249999627471,0.10064720013178885,0.0980175998993218,0.30103060021065176
RSVPLG03,cs,20251105-111701,1.0.2,20251105-084826,737,Experiment,Both,1,Automatic,main,93,20251105-112458,global,local,750,H,S,A,A,H-A.png,A-S.png,hH,sS,mask-1.png,mask-2.png,h,1,0.313705800101161,h,0,0.10377470008097589,0.04851029999554157,0.047520400024950504,0.10150899994187057,0.10052340012043715,0.7511179998982698
RSVPLG03,cs,20251105-111701,1.0.2,20251105-084826,737,Experiment,Both,1,Automatic,main,94,20251105-112502,local,local,300,H,S,E,E,E-H.png,E-S.png,hH,sS,mask-3.png,mask-3.png,s,0,1.0327943000011146,s,1,0.1327482999768108,0.04754269984550774,0.04753940016962588,0.09951679990626872,0.09952690009959042,0.30004749982617795
RSVPLG03,cs,20251105-111701,1.0.2,20251105-084826,737,Experiment,Both,1,Automatic,main,95,20251105-112507,local,local,300,S,H,E,E,E-S.png,E-H.png,sS,hH,mask-4.png,mask-2.png,s,1,1.0003905999474227,s,0,0.22527280007489026,0.045574899995699525,0.04737780010327697,0.09964219992980361,0.09923640009947121,0.29935589991509914
RSVPLG03,cs,20251105-111701,1.0.2,20251105-084826,737,Experiment,Both,1,Automatic,main,96,20251105-112512,local,global,300,H,H,A,A,A-H.png,H-A.png,hH,hH,mask-1.png,mask-2.png,h,1,0.36800250015221536,h,1,0.10206730011850595,0.04770440002903342,0.04669349989853799,0.09992860001511872,0.09979750006459653,0.3007213999517262
RSVPLG03,cs,20251105-111701,1.0.2,20251105-084826,737,Experiment,Both,1,Automatic,main,97,20251105-112516,local,global,300,H,S,E,E,E-H.png,S-E.png,hH,sS,mask-2.png,mask-1.png,s,0,0.5821111998520792,s,1,0.067456099903211,0.04691179981455207,0.04768219985999167,0.09883100003935397,0.0998592998366803,0.30008259997703135
RSVPLG03,cs,20251105-111701,1.0.2,20251105-084826,737,Experiment,Both,1,Automatic,main,98,20251105-112521,global,global,750,S,H,E,E,S-E.png,H-E.png,sS,hH,mask-2.png,mask-1.png,s,1,0.2007873000111431,h,1,0.21395989996381104,0.04770549992099404,0.047717199893668294,0.10042009991593659,0.09977409988641739,0.7516570000443608
RSVPLG03,cs,20251105-111701,1.0.2,20251105-084826,737,Experiment,Both,1,Automatic,main,99,20251105-112525,global,local,300,S,H,E,A,S-E.png,A-H.png,sS,hH,mask-4.png,mask-4.png,s,1,0.21242660004645586,h,1,0.2827252000570297,0.04772559995763004,0.04769290005788207,0.09997659991495311,0.10036209993995726,0.2994708998594433
RSVPLG03,cs,20251105-111701,1.0.2,20251105-084826,737,Experiment,Both,1,Automatic,main,100,20251105-112529,local,local,300,S,S,E,A,E-S.png,A-S.png,sS,sS,mask-1.png,mask-3.png,s,1,0.3302421001717448,h,0,0.21810630010440946,0.04920509993098676,0.04899540008045733,0.10037180013023317,0.10017620003782213,0.30021409993059933
