exp,exp_initials,runtime,ver,modtime,sub,blocktype,targets,cuetype,mode,trialtype,trial,trialtime,t1_level,t2_level,t2_lag,t1,t2,distractor1,distractor2,stimfile1,stimfile2,t1_corr,t2_corr,maskfile1,maskfile2,t1_resp,t1_acc,t1_rt,t2_resp,t2_acc,t2_rt,t1_dur,t2_dur,t1mask_soa,t2mask_soa,t1t2_soa
RSVPLG03,km,20251023-101505,1.0.1,20251023-100704,711,Introduction,T1,1,Automatic,main,1,20251023-101523,global,local,750,H,S,A,E,H-A.png,E-S.png,hH,sS,mask-4.png,mask-2.png,h,1,2.811646500005736,none,-5,0,0.09079560000100173,0.10032759999739937,0.1911400999961188,0.20080120000056922,0.7419031000026735
RSVPLG03,km,20251023-101505,1.0.1,20251023-100704,711,Introduction,T1,1,Automatic,main,2,20251023-101530,local,global,750,H,S,E,A,E-H.png,S-A.png,hH,sS,mask-4.png,mask-1.png,s,0,1.3068662000005133,none,-5,0,0.09975139999005478,0.10032339999452233,0.1983915999880992,0.20138059998862445,0.7482110999990255
RSVPLG03,km,20251023-101505,1.0.1,20251023-100704,711,Introduction,T1,1,Automatic,main,3,20251023-101535,local,local,750,S,H,E,E,E-S.png,E-H.png,sS,hH,mask-3.png,mask-1.png,s,1,0.7361983000009786,none,-5,0,0.09952750000229571,0.1001854999922216,0.20016589999431744,0.20054269999673124,0.7495244000019738
RSVPLG03,km,20251023-101505,1.0.1,20251023-100704,711,Introduction,T1,1,Automatic,main,4,20251023-101540,global,global,750,H,S,A,A,H-A.png,S-A.png,hH,sS,mask-2.png,mask-1.png,h,1,1.9281900000059977,none,-5,0,0.10157309999340214,0.09970350000367034,0.20171320000372361,0.20265020000806544,0.7516409999952884
RSVPLG03,km,20251023-101505,1.0.1,20251023-100704,711,Introduction,T1,1,Automatic,main,5,20251023-101546,global,local,750,H,S,E,A,H-E.png,A-S.png,hH,sS,mask-2.png,mask-3.png,h,1,1.0170554000069387,none,-5,0,0.10042640000756364,0.09966619999613613,0.2001248000015039,0.19834820000687614,0.7517063999985112
RSVPLG03,km,20251023-101505,1.0.1,20251023-100704,711,Introduction,T1,1,Automatic,main,6,20251023-101551,global,local,750,S,H,E,A,S-E.png,A-H.png,sS,hH,mask-1.png,mask-4.png,h,0,0.692435499993735,none,-5,0,0.09850929999083746,0.09857969998847693,0.199110199988354,0.20035049998841714,0.7496140000002924
RSVPLG03,km,20251023-101505,1.0.1,20251023-100704,711,Introduction,T1,1,Automatic,main,7,20251023-101556,local,global,750,H,H,A,E,A-H.png,H-E.png,hH,hH,mask-4.png,mask-2.png,s,0,1.599400599996443,none,-5,0,0.0986994999984745,0.09977340001205448,0.19855030000326224,0.1986250000045402,0.7498772999970242
RSVPLG03,km,20251023-101505,1.0.1,20251023-100704,711,Introduction,T1,1,Automatic,main,8,20251023-101602,local,local,750,S,S,E,A,E-S.png,A-S.png,sS,sS,mask-4.png,mask-4.png,s,1,1.10663619999832,none,-5,0,0.09958459998597391,0.09989019999920856,0.20017989999905694,0.1998234000056982,0.7509602999925846
RSVPLG03,km,20251023-101505,1.0.1,20251023-100704,711,Introduction,T1,1,Automatic,main,9,20251023-101608,local,global,750,S,S,A,A,A-S.png,S-A.png,sS,sS,mask-1.png,mask-3.png,s,1,0.6843537000095239,none,-5,0,0.09994159999769181,0.09863930000574328,0.20002820000809152,0.19942390000505839,0.750233600003412
RSVPLG03,km,20251023-101505,1.0.1,20251023-100704,711,Introduction,T1,1,Automatic,main,10,20251023-101613,local,global,750,H,S,E,E,E-H.png,S-E.png,hH,sS,mask-3.png,mask-1.png,s,0,3.0976178999990225,none,-5,0,0.09933330000785645,0.0996476000000257,0.20079800000530668,0.1988612999994075,0.7497302999981912
RSVPLG03,km,20251023-101505,1.0.1,20251023-100704,711,Introduction,T1,1,Automatic,main,11,20251023-101620,global,global,750,S,S,A,A,S-A.png,S-A.png,sS,sS,mask-3.png,mask-2.png,s,1,0.9718400000128895,none,-5,0,0.09993910000775941,0.09947180000017397,0.2003638000023784,0.2000121000019135,0.7517659000004642
RSVPLG03,km,20251023-101505,1.0.1,20251023-100704,711,Introduction,T1,1,Automatic,main,12,20251023-101625,global,global,750,H,S,A,A,H-A.png,S-A.png,hH,sS,mask-3.png,mask-2.png,h,1,0.7855293000029633,none,-5,0,0.09989250000216998,0.10013910000270698,0.19989040000655223,0.1990020000084769,0.7500531999976374
RSVPLG03,km,20251023-101505,1.0.1,20251023-100704,711,Introduction,T1,1,Automatic,main,13,20251023-101630,global,global,750,S,H,E,A,S-E.png,H-A.png,sS,hH,mask-3.png,mask-3.png,s,1,0.7547587999870302,none,-5,0,0.10049549999530427,0.09980529999302235,0.20114889999968,0.19926149999082554,0.7510353999969084
RSVPLG03,km,20251023-101505,1.0.1,20251023-100704,711,Introduction,T1,1,Automatic,main,14,20251023-101635,local,local,750,H,H,E,A,E-H.png,A-H.png,hH,hH,mask-3.png,mask-2.png,s,0,0.8036148999963189,none,-5,0,0.10045589999936055,0.10119370000029448,0.19895140000153333,0.2000221999915084,0.749756500008516
RSVPLG03,km,20251023-101505,1.0.1,20251023-100704,711,Introduction,T1,1,Automatic,main,15,20251023-101640,global,local,750,H,S,E,A,H-E.png,A-S.png,hH,sS,mask-1.png,mask-1.png,h,1,1.117809599993052,none,-5,0,0.1008167000109097,0.09864229999948293,0.20064760000968818,0.20010800000454765,0.7507330000080401
RSVPLG03,km,20251023-101505,1.0.1,20251023-100704,711,Introduction,T1,1,Automatic,main,16,20251023-101645,local,local,750,H,S,A,A,A-H.png,A-S.png,hH,sS,mask-4.png,mask-1.png,h,1,2.6531743000086863,none,-5,0,0.0999454999982845,0.09958799999731127,0.1999509000015678,0.20101079999585636,0.7500231000012718
RSVPLG03,km,20251023-101706,1.0.1,20251023-100704,711,Practice,T1,1,Automatic,main,1,20251023-101724,local,global,300,H,S,A,E,A-H.png,S-E.png,hH,sS,mask-4.png,mask-4.png,h,1,0.8383117000048514,none,-5,0,0.04702510000788607,0.04985700000543147,0.09731840000313241,0.09944479999830946,0.2974522000004072
RSVPLG03,km,20251023-101706,1.0.1,20251023-100704,711,Practice,T1,1,Automatic,main,2,20251023-101728,local,global,750,H,H,E,A,E-H.png,H-A.png,hH,hH,mask-4.png,mask-1.png,s,0,0.6175760999904014,none,-5,0,0.051482599999872036,0.049195800005691126,0.09989680000580847,0.09951939999882597,0.74996960000135
RSVPLG03,km,20251023-101706,1.0.1,20251023-100704,711,Practice,T1,1,Automatic,main,3,20251023-101733,local,global,750,H,S,E,A,E-H.png,S-A.png,hH,sS,mask-3.png,mask-4.png,h,1,1.0667770000000019,none,-5,0,0.05138799999258481,0.04968419999931939,0.09990649999235757,0.10158860000956338,0.7498549999872921
RSVPLG03,km,20251023-101706,1.0.1,20251023-100704,711,Practice,T1,1,Automatic,main,4,20251023-101738,global,global,300,S,S,A,A,S-A.png,S-A.png,sS,sS,mask-2.png,mask-1.png,s,1,0.35650179999356624,none,-5,0,0.04970970000431407,0.049429799997597,0.09957700000086334,0.09757769999851007,0.2997369000077015
RSVPLG03,km,20251023-101706,1.0.1,20251023-100704,711,Practice,T1,1,Automatic,main,5,20251023-101742,local,global,300,S,S,A,E,A-S.png,S-E.png,sS,sS,mask-4.png,mask-1.png,s,1,0.3526350000029197,none,-5,0,0.04947850000462495,0.04852070000197273,0.10034910000103991,0.09959820000221953,0.30037979999906383
RSVPLG03,km,20251023-101706,1.0.1,20251023-100704,711,Practice,T1,1,Automatic,main,6,20251023-101746,global,global,750,H,S,A,E,H-A.png,S-E.png,hH,sS,mask-4.png,mask-4.png,h,1,0.669542999996338,none,-5,0,0.04965849999280181,0.051337500000954606,0.09987409999303054,0.09973959998751525,0.7480642000009539
RSVPLG03,km,20251023-101706,1.0.1,20251023-100704,711,Practice,T1,1,Automatic,main,7,20251023-101751,global,local,300,S,S,E,E,S-E.png,E-S.png,sS,sS,mask-3.png,mask-4.png,s,1,0.6475187000032747,none,-5,0,0.048110799994901754,0.05057949999172706,0.09964980000222567,0.10007309999491554,0.2980147000052966
RSVPLG03,km,20251023-101706,1.0.1,20251023-100704,711,Practice,T1,1,Automatic,main,8,20251023-101755,global,global,300,H,H,A,A,H-A.png,H-A.png,hH,hH,mask-4.png,mask-1.png,s,0,0.5329465999966487,none,-5,0,0.049411500003770925,0.0497958999912953,0.09904280000773724,0.09959600000001956,0.29877170000690967
RSVPLG03,km,20251023-101706,1.0.1,20251023-100704,711,Practice,T1,1,Automatic,main,9,20251023-101759,local,local,750,S,S,E,E,E-S.png,E-S.png,sS,sS,mask-4.png,mask-4.png,s,1,1.3192273000022396,none,-5,0,0.050215399998705834,0.04958710000209976,0.10130739999294747,0.10009720000380185,0.7501489999995101
RSVPLG03,km,20251023-101706,1.0.1,20251023-100704,711,Practice,T1,1,Automatic,main,10,20251023-101804,global,global,750,S,S,A,E,S-A.png,S-E.png,sS,sS,mask-4.png,mask-4.png,s,1,1.351732199997059,none,-5,0,0.05065119999926537,0.0508105000044452,0.09939640000811778,0.10076420000405051,0.7501913000014611
RSVPLG03,km,20251023-101706,1.0.1,20251023-100704,711,Practice,T1,1,Automatic,main,11,20251023-101810,global,local,750,S,S,A,E,S-A.png,E-S.png,sS,sS,mask-3.png,mask-1.png,s,1,0.5659196000051452,none,-5,0,0.050636699990718625,0.0504505999997491,0.10021609999239445,0.10017700000025798,0.7492291999951703
RSVPLG03,km,20251023-101706,1.0.1,20251023-100704,711,Practice,T1,1,Automatic,main,12,20251023-101814,global,local,300,S,H,E,E,S-E.png,E-H.png,sS,hH,mask-3.png,mask-3.png,h,0,0.7362121000041952,none,-5,0,0.050706399997579865,0.04959780001081526,0.09879849999560975,0.09996099999989383,0.29975269999704324
RSVPLG03,km,20251023-101706,1.0.1,20251023-100704,711,Practice,T1,1,Automatic,main,13,20251023-101818,local,local,300,H,H,A,E,A-H.png,E-H.png,hH,hH,mask-4.png,mask-2.png,h,1,0.315135900003952,none,-5,0,0.04853499999444466,0.04956549999769777,0.09994029998779297,0.10148179999669082,0.2984881000011228
RSVPLG03,km,20251023-101706,1.0.1,20251023-100704,711,Practice,T1,1,Automatic,main,14,20251023-101822,local,local,750,H,H,A,E,A-H.png,E-H.png,hH,hH,mask-1.png,mask-2.png,s,0,0.5175430999952368,none,-5,0,0.04971500000101514,0.048632799996994436,0.09959080000407994,0.10037410000222735,0.7489752999972552
RSVPLG03,km,20251023-101706,1.0.1,20251023-100704,711,Practice,T1,1,Automatic,main,15,20251023-101827,global,local,750,S,H,E,A,S-E.png,A-H.png,sS,hH,mask-3.png,mask-2.png,h,0,1.046111399991787,none,-5,0,0.048701199993956834,0.05040150000422727,0.09849299999768846,0.10017810000863392,0.747647699987283
RSVPLG03,km,20251023-101706,1.0.1,20251023-100704,711,Practice,T1,1,Automatic,main,16,20251023-101832,local,local,300,S,S,A,E,A-S.png,E-S.png,sS,sS,mask-4.png,mask-1.png,s,1,1.6471679999958724,none,-5,0,0.050430799994501285,0.04986889999418054,0.09935330000007525,0.10125849999894854,0.2991201999975601
RSVPLG03,km,20251023-101906,1.0.1,20251023-100704,711,Practice,T1,1,Automatic,main,1,20251023-101922,global,global,300,H,S,A,A,H-A.png,S-A.png,hH,sS,mask-3.png,mask-1.png,h,1,0.4753659999987576,none,-5,0,0.040264099996420555,0.051323000006959774,0.0927666999923531,0.1007746999966912,0.29199749999679625
RSVPLG03,km,20251023-101906,1.0.1,20251023-100704,711,Practice,T1,1,Automatic,main,2,20251023-101926,local,local,750,S,H,E,A,E-S.png,A-H.png,sS,hH,mask-1.png,mask-2.png,s,1,0.7323869000101695,none,-5,0,0.05011989999911748,0.05065850001119543,0.09997060000023339,0.1014570000115782,0.7505011999892304
RSVPLG03,km,20251023-101906,1.0.1,20251023-100704,711,Practice,T1,1,Automatic,main,3,20251023-101931,local,global,750,S,H,A,A,A-S.png,H-A.png,sS,hH,mask-4.png,mask-3.png,h,0,0.5265183000010438,none,-5,0,0.049678899988066405,0.05006460000004154,0.1004252999991877,0.09991879999870434,0.7523077999940142
RSVPLG03,km,20251023-101906,1.0.1,20251023-100704,711,Practice,T1,1,Automatic,main,4,20251023-101935,local,local,300,S,H,E,A,E-S.png,A-H.png,sS,hH,mask-3.png,mask-1.png,s,1,0.379116799987969,none,-5,0,0.049295100005110726,0.0487103999912506,0.09929990000091493,0.09846900000411551,0.3006199000083143
RSVPLG03,km,20251023-101906,1.0.1,20251023-100704,711,Practice,T1,1,Automatic,main,5,20251023-101939,local,local,750,H,S,E,A,E-H.png,A-S.png,hH,sS,mask-1.png,mask-3.png,h,1,1.7570912999944994,none,-5,0,0.050696899998001754,0.05115710000973195,0.1016241000033915,0.10146410000743344,0.7516578999930061
RSVPLG03,km,20251023-101906,1.0.1,20251023-100704,711,Practice,T1,1,Automatic,main,6,20251023-101945,local,global,300,S,H,E,E,E-S.png,H-E.png,sS,hH,mask-3.png,mask-1.png,s,1,0.44530950000626035,none,-5,0,0.0496566000074381,0.051028100002440624,0.10073710000142455,0.09954640000069048,0.30058340000687167
RSVPLG03,km,20251023-101906,1.0.1,20251023-100704,711,Practice,T1,1,Automatic,main,7,20251023-101949,global,local,300,S,S,A,E,S-A.png,E-S.png,sS,sS,mask-2.png,mask-2.png,s,1,0.5782583999971393,none,-5,0,0.049530799995409325,0.050341999987722374,0.1001778999925591,0.10213479999219999,0.30060580000281334
RSVPLG03,km,20251023-101906,1.0.1,20251023-100704,711,Practice,T1,1,Automatic,main,8,20251023-101953,global,local,750,S,H,A,E,S-A.png,E-H.png,sS,hH,mask-4.png,mask-2.png,s,1,0.3296777999930782,none,-5,0,0.049806199996965006,0.049861200008308515,0.09966720000375062,0.09961590000602882,0.7521433999936562
RSVPLG03,km,20251023-101906,1.0.1,20251023-100704,711,Practice,T1,1,Automatic,main,9,20251023-101957,global,local,300,H,S,E,A,H-E.png,A-S.png,hH,sS,mask-4.png,mask-3.png,h,1,0.29757180000888184,none,-5,0,0.049689899999066256,0.04883189999964088,0.09845989999303129,0.10046220000367612,0.2998187999910442
RSVPLG03,km,20251023-101906,1.0.1,20251023-100704,711,Practice,T1,1,Automatic,main,10,20251023-102001,global,global,750,S,S,E,A,S-E.png,S-A.png,sS,sS,mask-1.png,mask-4.png,s,1,0.5325461999891559,none,-5,0,0.049811699995188974,0.049798799998825416,0.09976050000113901,0.09928479998779949,0.7523799000045983
RSVPLG03,km,20251023-101906,1.0.1,20251023-100704,711,Practice,T1,1,Automatic,main,11,20251023-102006,global,global,300,H,H,A,A,H-A.png,H-A.png,hH,hH,mask-3.png,mask-4.png,h,1,1.5731518999964464,none,-5,0,0.051355000003241,0.050263199998880737,0.1004574000107823,0.09895810000307392,0.30102980000083335
RSVPLG03,km,20251023-101906,1.0.1,20251023-100704,711,Practice,T1,1,Automatic,main,12,20251023-102011,local,global,300,H,S,A,A,A-H.png,S-A.png,hH,sS,mask-3.png,mask-4.png,h,1,0.35029170000052545,none,-5,0,0.05011380001087673,0.04982519999612123,0.10011579999991227,0.10037929999816697,0.30047770000237506
RSVPLG03,km,20251023-101906,1.0.1,20251023-100704,711,Practice,T1,1,Automatic,main,13,20251023-102015,local,global,750,S,H,E,A,E-S.png,H-A.png,sS,hH,mask-2.png,mask-4.png,h,0,0.5162239000055706,none,-5,0,0.05068040000332985,0.05004220000409987,0.10047839999606367,0.09947359999932814,0.7524658000038471
RSVPLG03,km,20251023-101906,1.0.1,20251023-100704,711,Practice,T1,1,Automatic,main,14,20251023-102019,global,local,750,S,H,E,E,S-E.png,E-H.png,sS,hH,mask-2.png,mask-4.png,s,1,1.9097293999948306,none,-5,0,0.04897180000261869,0.049898099998245016,0.10009910000371747,0.10129439999582246,0.7521295000042301
RSVPLG03,km,20251023-101906,1.0.1,20251023-100704,711,Practice,T1,1,Automatic,main,15,20251023-102025,global,global,750,H,H,A,E,H-A.png,H-E.png,hH,hH,mask-2.png,mask-2.png,s,0,1.470979099991382,none,-5,0,0.04967130000295583,0.04969029998756014,0.10054600000148639,0.09849579998990521,0.752542700007325
RSVPLG03,km,20251023-101906,1.0.1,20251023-100704,711,Practice,T1,1,Automatic,main,16,20251023-102031,local,local,300,S,H,E,E,E-S.png,E-H.png,sS,hH,mask-2.png,mask-3.png,h,0,1.5067158000019845,none,-5,0,0.04973670000617858,0.04970679999678396,0.09955120000813622,0.10162339999806136,0.30054300000483636
RSVPLG03,km,20251023-102051,1.0.1,20251023-100704,711,Practice,T1,1,Automatic,main,1,20251023-102111,global,global,300,H,S,E,A,H-E.png,S-A.png,hH,sS,mask-1.png,mask-4.png,h,1,0.5347259999980452,none,-5,0,0.039838899989263155,0.04968449998705182,0.08994669999810867,0.0985814999876311,0.2914034999994328
RSVPLG03,km,20251023-102051,1.0.1,20251023-100704,711,Practice,T1,1,Automatic,main,2,20251023-102115,local,global,750,S,S,E,E,E-S.png,S-E.png,sS,sS,mask-2.png,mask-4.png,s,1,3.0201043999986723,none,-5,0,0.04965529999753926,0.04959860000235494,0.09842490000301041,0.09984569999505766,0.7482938000030117
RSVPLG03,km,20251023-102051,1.0.1,20251023-100704,711,Practice,T1,1,Automatic,main,3,20251023-102122,global,local,750,S,H,A,E,S-A.png,E-H.png,sS,hH,mask-3.png,mask-3.png,s,1,0.5560593999980483,none,-5,0,0.04964759999711532,0.049712199994246475,0.10032779999892227,0.09950579999713227,0.7498510000004899
RSVPLG03,km,20251023-102051,1.0.1,20251023-100704,711,Practice,T1,1,Automatic,main,4,20251023-102127,local,local,750,H,S,E,E,E-H.png,E-S.png,hH,sS,mask-1.png,mask-1.png,h,1,0.4325836000061827,none,-5,0,0.04966750000312459,0.04964009999821428,0.09945429999788757,0.09956799999054056,0.7483938000077615
RSVPLG03,km,20251023-102051,1.0.1,20251023-100704,711,Practice,T1,1,Automatic,main,5,20251023-102131,global,local,750,H,S,A,A,H-A.png,A-S.png,hH,sS,mask-3.png,mask-4.png,h,1,0.27639889999409206,none,-5,0,0.04962740000337362,0.04868390000774525,0.09984270000131801,0.09846730000572279,0.7507850999973016
RSVPLG03,km,20251023-102051,1.0.1,20251023-100704,711,Practice,T1,1,Automatic,main,6,20251023-102135,global,local,300,H,S,A,A,H-A.png,A-S.png,hH,sS,mask-3.png,mask-1.png,h,1,0.8011956999980612,none,-5,0,0.05007800000021234,0.049419699993450195,0.10053589999733958,0.09884019999299198,0.30149559999699704
RSVPLG03,km,20251023-102051,1.0.1,20251023-100704,711,Practice,T1,1,Automatic,main,7,20251023-102140,local,global,300,H,S,A,A,A-H.png,S-A.png,hH,sS,mask-4.png,mask-1.png,h,1,0.621438100002706,none,-5,0,0.05075849998684134,0.0507177999970736,0.10056179999082815,0.10060119999980088,0.30005989999335725
RSVPLG03,km,20251023-102051,1.0.1,20251023-100704,711,Practice,T1,1,Automatic,main,8,20251023-102144,local,global,750,H,H,A,E,A-H.png,H-E.png,hH,hH,mask-2.png,mask-2.png,h,1,0.6780699000082677,none,-5,0,0.050810100001399405,0.04964299999119248,0.09827970000333153,0.10045009999885224,0.748895700002322
RSVPLG03,km,20251023-102051,1.0.1,20251023-100704,711,Practice,T1,1,Automatic,main,9,20251023-102149,local,local,300,H,S,E,A,E-H.png,A-S.png,hH,sS,mask-1.png,mask-1.png,h,1,0.3548422000021674,none,-5,0,0.05037949999677949,0.05131939999409951,0.09984959999565035,0.10178679999080487,0.2996195000014268
RSVPLG03,km,20251023-102051,1.0.1,20251023-100704,711,Practice,T1,1,Automatic,main,10,20251023-102152,global,global,300,H,S,A,A,H-A.png,S-A.png,hH,sS,mask-1.png,mask-3.png,h,1,0.3916992000013124,none,-5,0,0.051291800002218224,0.05129640000814106,0.10063010000158101,0.10127560001274105,0.3001205999898957
RSVPLG03,km,20251023-102051,1.0.1,20251023-100704,711,Practice,T1,1,Automatic,main,11,20251023-102156,local,local,300,H,H,E,A,E-H.png,A-H.png,hH,hH,mask-2.png,mask-2.png,h,1,0.37500440000439994,none,-5,0,0.048238699993817136,0.04865340000833385,0.09904289999394678,0.09945219999644905,0.299530499993125
RSVPLG03,km,20251023-102051,1.0.1,20251023-100704,711,Practice,T1,1,Automatic,main,12,20251023-102200,local,local,750,H,S,E,A,E-H.png,A-S.png,hH,sS,mask-3.png,mask-4.png,h,1,0.4133268000005046,none,-5,0,0.04980159999104217,0.04977779999899212,0.09953649999806657,0.09982049999234732,0.749533900001552
RSVPLG03,km,20251023-102051,1.0.1,20251023-100704,711,Practice,T1,1,Automatic,main,13,20251023-102205,global,global,750,H,H,A,A,H-A.png,H-A.png,hH,hH,mask-3.png,mask-2.png,h,1,0.36155990000406746,none,-5,0,0.04953689999820199,0.05058179999468848,0.09917490000952967,0.10051129999919794,0.7479469000099925
RSVPLG03,km,20251023-102051,1.0.1,20251023-100704,711,Practice,T1,1,Automatic,main,14,20251023-102209,global,local,300,S,H,A,E,S-A.png,E-H.png,sS,hH,mask-3.png,mask-3.png,h,0,0.2677019999973709,none,-5,0,0.04917389999900479,0.04912380001042038,0.09896509999816772,0.10094190000381786,0.29951789999904577
RSVPLG03,km,20251023-102051,1.0.1,20251023-100704,711,Practice,T1,1,Automatic,main,15,20251023-102213,local,global,300,S,H,E,E,E-S.png,H-E.png,sS,hH,mask-3.png,mask-1.png,s,1,0.47139369999058545,none,-5,0,0.049250199997914024,0.050258899995242245,0.09864330000709742,0.09935190000396688,0.2993198000040138
RSVPLG03,km,20251023-102051,1.0.1,20251023-100704,711,Practice,T1,1,Automatic,main,16,20251023-102217,global,global,750,S,H,E,E,S-E.png,H-E.png,sS,hH,mask-4.png,mask-3.png,s,1,0.455818200003705,none,-5,0,0.049810600001364946,0.051598999998532236,0.1006175000075018,0.10158790000423323,0.7483897000056459
RSVPLG03,km,20251023-102247,1.0.1,20251023-100704,711,Introduction,Both,1,Automatic,main,1,20251023-102307,local,local,750,H,S,E,A,E-H.png,A-S.png,hH,sS,mask-3.png,mask-4.png,s,0,1.0710515999962809,s,1,1.7290786999947159,0.09223500000371132,0.0981927000102587,0.1926272999990033,0.19949760001327377,0.7421250999905169
RSVPLG03,km,20251023-102247,1.0.1,20251023-100704,711,Introduction,Both,1,Automatic,main,2,20251023-102314,local,global,750,H,S,E,E,E-H.png,S-E.png,hH,sS,mask-1.png,mask-2.png,h,1,0.578649500006577,s,1,0.4945936000003712,0.09972130000824109,0.10013140000228304,0.19857340000453405,0.1998565999965649,0.7481084000028204
RSVPLG03,km,20251023-102247,1.0.1,20251023-100704,711,Introduction,Both,1,Automatic,main,3,20251023-102319,global,global,750,S,S,A,E,S-A.png,S-E.png,sS,sS,mask-4.png,mask-3.png,s,1,0.6139360000088345,s,1,0.36772349999228027,0.09975560000748374,0.10058739999658428,0.19881899999745656,0.20116630000120495,0.7484109000070021
RSVPLG03,km,20251023-102247,1.0.1,20251023-100704,711,Introduction,Both,1,Automatic,main,4,20251023-102325,local,global,750,H,H,E,E,E-H.png,H-E.png,hH,hH,mask-4.png,mask-2.png,h,1,2.839561499989941,h,1,0.5406125000008615,0.09965879999799654,0.0986278000054881,0.20064770001044963,0.19882890000008047,0.7499176999990596
RSVPLG03,km,20251023-102247,1.0.1,20251023-100704,711,Introduction,Both,1,Automatic,main,5,20251023-102332,global,local,750,H,H,A,E,H-A.png,E-H.png,hH,hH,mask-3.png,mask-3.png,h,1,2.334062800000538,h,1,0.27021369998692535,0.09856690000742674,0.10054510000918526,0.1984781000064686,0.19947570000658743,0.7485032999975374
RSVPLG03,km,20251023-102247,1.0.1,20251023-100704,711,Introduction,Both,1,Automatic,main,6,20251023-102339,global,global,750,H,S,A,E,H-A.png,S-E.png,hH,sS,mask-2.png,mask-2.png,h,1,1.1640921000071103,s,1,0.2698672999977134,0.09971540000697132,0.09853590000420809,0.1994083000026876,0.20020459999796003,0.7495780000026571
RSVPLG03,km,20251023-102247,1.0.1,20251023-100704,711,Introduction,Both,1,Automatic,main,7,20251023-102345,global,local,750,H,S,A,A,H-A.png,A-S.png,hH,sS,mask-4.png,mask-1.png,h,1,0.5525704000028782,h,0,0.33400580000306945,0.09815920000255574,0.10172699998656753,0.19868420000420883,0.20078699999430683,0.74803340001381
RSVPLG03,km,20251023-102247,1.0.1,20251023-100704,711,Introduction,Both,1,Automatic,main,8,20251023-102350,local,local,750,H,H,A,E,A-H.png,E-H.png,hH,hH,mask-4.png,mask-1.png,s,0,2.4159524999995483,h,1,0.013387300001340918,0.09949130000313744,0.10123380000004545,0.2000778000074206,0.20102780000888743,0.7478976999991573
RSVPLG03,km,20251023-102247,1.0.1,20251023-100704,711,Introduction,Both,1,Automatic,main,9,20251023-102357,local,global,750,S,S,E,A,E-S.png,S-A.png,sS,sS,mask-2.png,mask-2.png,s,1,3.0688018999935593,s,1,0.158577799986233,0.09845580000546761,0.09845700000005309,0.20055940000747796,0.1982716999918921,0.7499475000076927
RSVPLG03,km,20251023-102247,1.0.1,20251023-100704,711,Introduction,Both,1,Automatic,main,10,20251023-102404,local,local,750,H,H,E,E,E-H.png,E-H.png,hH,hH,mask-1.png,mask-4.png,h,1,0.6402877000073204,h,1,0.2373857000056887,0.10070460000133608,0.10114619998785201,0.20002040000690613,0.2006983999890508,0.7501275000104215
RSVPLG03,km,20251023-102247,1.0.1,20251023-100704,711,Introduction,Both,1,Automatic,main,11,20251023-102410,global,local,750,S,H,A,A,S-A.png,A-H.png,sS,hH,mask-3.png,mask-2.png,s,1,0.402494599999045,h,1,0.1421744000108447,0.09967640000104439,0.09975239999766927,0.1994596000004094,0.19850300000689458,0.7498937999916961
RSVPLG03,km,20251023-102247,1.0.1,20251023-100704,711,Introduction,Both,1,Automatic,main,12,20251023-102414,local,global,750,H,H,E,A,E-H.png,H-A.png,hH,hH,mask-3.png,mask-3.png,h,1,0.6486044000048423,h,1,0.20462960000440944,0.09867569999187253,0.10048940000706352,0.1984154999954626,0.20008660000166856,0.7477970999898389
RSVPLG03,km,20251023-102247,1.0.1,20251023-100704,711,Introduction,Both,1,Automatic,main,13,20251023-102420,global,global,750,S,S,E,A,S-E.png,S-A.png,sS,sS,mask-3.png,mask-1.png,s,1,0.5378283000027295,s,1,0.1886780000058934,0.09986560000106692,0.10033190000103787,0.20036630000686273,0.20040349999908358,0.7486530000023777
RSVPLG03,km,20251023-102247,1.0.1,20251023-100704,711,Introduction,Both,1,Automatic,main,14,20251023-102425,global,local,750,H,S,A,E,H-A.png,E-S.png,hH,sS,mask-4.png,mask-3.png,h,1,0.3803546999988612,s,1,0.12564529999508522,0.09970820001035463,0.0996267999871634,0.19848050001019146,0.1994251999858534,0.7498027000110596
RSVPLG03,km,20251023-102247,1.0.1,20251023-100704,711,Introduction,Both,1,Automatic,main,15,20251023-102429,global,global,750,H,H,A,E,H-A.png,H-E.png,hH,hH,mask-4.png,mask-3.png,h,1,0.39132059999974445,h,1,0.18969680000736844,0.09820600000966806,0.10053949999564793,0.19818780000787228,0.2001466000074288,0.7478697000042303
RSVPLG03,km,20251023-102247,1.0.1,20251023-100704,711,Introduction,Both,1,Automatic,main,16,20251023-102434,local,local,750,H,H,A,E,A-H.png,E-H.png,hH,hH,mask-3.png,mask-3.png,h,1,0.60946469999908,h,1,0.15905970000312664,0.10019409999949858,0.09892960000433959,0.20006859999557491,0.20051180000882596,0.7511157999979332
RSVPLG03,km,20251023-102456,1.0.1,20251023-100704,711,Practice,Both,1,Automatic,main,1,20251023-102510,local,global,300,S,S,A,E,A-S.png,S-E.png,sS,sS,mask-2.png,mask-2.png,h,0,0.633550299986382,s,1,0.6681941999995615,0.048760300007415935,0.049671699991449714,0.09815730000264011,0.10033459999249317,0.2985062000079779
RSVPLG03,km,20251023-102456,1.0.1,20251023-100704,711,Practice,Both,1,Automatic,main,2,20251023-102515,global,local,750,H,H,E,A,H-E.png,A-H.png,hH,hH,mask-3.png,mask-2.png,h,1,0.42754689999856055,h,1,0.09474060000502504,0.05063480000535492,0.04965849999280181,0.10029059999214951,0.09995709999930114,0.7500696000060998
RSVPLG03,km,20251023-102456,1.0.1,20251023-100704,711,Practice,Both,1,Automatic,main,3,20251023-102520,local,global,750,H,S,E,E,E-H.png,S-E.png,hH,sS,mask-3.png,mask-4.png,h,1,0.654536799993366,h,0,0.23660239999298938,0.04970960000355262,0.05040449999796692,0.09849499999836553,0.09904390000156127,0.748006499998155
RSVPLG03,km,20251023-102456,1.0.1,20251023-100704,711,Practice,Both,1,Automatic,main,4,20251023-102525,global,local,300,H,S,E,E,H-E.png,E-S.png,hH,sS,mask-1.png,mask-3.png,h,1,0.5419293000013568,s,1,0.6539458000042941,0.04968840000219643,0.05013669999607373,0.10153160001209471,0.09838939999463037,0.30028320000565145
RSVPLG03,km,20251023-102456,1.0.1,20251023-100704,711,Practice,Both,1,Automatic,main,5,20251023-102529,local,local,750,S,H,A,E,A-S.png,E-H.png,sS,hH,mask-1.png,mask-4.png,s,1,0.4924504000082379,h,1,0.6524342000047909,0.049702399992384017,0.05062579999503214,0.1005072999978438,0.10038599999097642,0.7493790000007721
RSVPLG03,km,20251023-102456,1.0.1,20251023-100704,711,Practice,Both,1,Automatic,main,6,20251023-102534,global,local,750,H,H,E,E,H-E.png,E-H.png,hH,hH,mask-1.png,mask-4.png,h,1,0.4034467000019504,h,1,0.07761170000594575,0.049379500007489696,0.05075080000096932,0.09988530000555329,0.10048130000359379,0.7488558000040939
RSVPLG03,km,20251023-102456,1.0.1,20251023-100704,711,Practice,Both,1,Automatic,main,7,20251023-102538,global,global,750,H,H,A,A,H-A.png,H-A.png,hH,hH,mask-3.png,mask-2.png,h,1,0.3106524000031641,h,1,0.10999989999982063,0.04866430000402033,0.048565699995378964,0.09848810000403319,0.09889879998809192,0.7478544000041438
RSVPLG03,km,20251023-102456,1.0.1,20251023-100704,711,Practice,Both,1,Automatic,main,8,20251023-102543,local,local,300,S,S,A,A,A-S.png,A-S.png,sS,sS,mask-2.png,mask-3.png,s,1,0.4091696999967098,h,0,0.5690978999919025,0.04927289999614004,0.04893310001352802,0.09863369999220595,0.09986460000800434,0.29929699999047443
RSVPLG03,km,20251023-102456,1.0.1,20251023-100704,711,Practice,Both,1,Automatic,main,9,20251023-102547,global,global,300,H,S,E,E,H-E.png,S-E.png,hH,sS,mask-1.png,mask-2.png,h,1,0.4230835000053048,h,0,0.13941379998868797,0.04932869999902323,0.050495200004661456,0.09998430000268854,0.10005320000345819,0.2991985999979079
RSVPLG03,km,20251023-102456,1.0.1,20251023-100704,711,Practice,Both,1,Automatic,main,10,20251023-102552,local,global,750,H,S,E,A,E-H.png,S-A.png,hH,sS,mask-2.png,mask-2.png,h,1,1.1342550999979721,s,1,1.2779571999999462,0.04875420000462327,0.049673799992888235,0.09966730000451207,0.0995445999869844,0.7493817000067793
RSVPLG03,km,20251023-102456,1.0.1,20251023-100704,711,Practice,Both,1,Automatic,main,11,20251023-102557,global,global,300,H,H,A,E,H-A.png,H-E.png,hH,hH,mask-3.png,mask-2.png,s,0,0.6157756999891717,h,1,0.0013327999913599342,0.05070980000891723,0.05034010000235867,0.09945460000017192,0.09967690000485163,0.2998105000006035
RSVPLG03,km,20251023-102456,1.0.1,20251023-100704,711,Practice,Both,1,Automatic,main,12,20251023-102601,global,global,750,S,H,E,E,S-E.png,H-E.png,sS,hH,mask-3.png,mask-2.png,s,1,0.5087069000001065,h,1,0.013552100004744716,0.04982110000855755,0.049149900005431846,0.09849220000614878,0.100038400007179,0.7496443999989424
RSVPLG03,km,20251023-102456,1.0.1,20251023-100704,711,Practice,Both,1,Automatic,main,13,20251023-102606,local,global,300,S,H,A,A,A-S.png,H-A.png,sS,hH,mask-4.png,mask-2.png,s,1,1.1002597999904538,h,1,1.2282955999980913,0.04980769999383483,0.04972700000507757,0.09848990000318736,0.09952139999950305,0.29973459999018814
RSVPLG03,km,20251023-102456,1.0.1,20251023-100704,711,Practice,Both,1,Automatic,main,14,20251023-102611,local,local,750,H,H,A,E,A-H.png,E-H.png,hH,hH,mask-2.png,mask-1.png,s,0,0.6466194999957224,h,1,0.7744782999943709,0.04967459999897983,0.05063220000010915,0.09917470000800677,0.10083490000397433,0.749137899998459
RSVPLG03,km,20251023-102456,1.0.1,20251023-100704,711,Practice,Both,1,Automatic,main,15,20251023-102616,global,local,300,S,S,A,E,S-A.png,E-S.png,sS,sS,mask-3.png,mask-4.png,s,1,0.36889689999225084,s,1,0.7338202999962959,0.05161489998863544,0.0495231000095373,0.10026979999383911,0.10019029999966733,0.30083139998896513
RSVPLG03,km,20251023-102456,1.0.1,20251023-100704,711,Practice,Both,1,Automatic,main,16,20251023-102621,local,local,300,H,H,E,E,E-H.png,E-H.png,hH,hH,mask-3.png,mask-4.png,s,0,0.4967038000031607,h,1,0.6088195999909658,0.04953969999041874,0.050519900003564544,0.10114149999571964,0.10016800000448711,0.29986109999299515
RSVPLG03,km,20251023-102645,1.0.1,20251023-100704,711,Practice,Both,1,Automatic,main,1,20251023-102659,global,local,300,S,H,E,A,S-E.png,A-H.png,sS,hH,mask-2.png,mask-4.png,h,0,0.4467269999877317,s,0,0.5749834999878658,0.0435626999969827,0.050009200000204146,0.0933074999920791,0.09970200000680052,0.29457929999625776
RSVPLG03,km,20251023-102645,1.0.1,20251023-100704,711,Practice,Both,1,Automatic,main,2,20251023-102703,global,global,750,S,S,E,E,S-E.png,S-E.png,sS,sS,mask-3.png,mask-4.png,s,1,0.9339216999942437,s,1,0.029581000009784475,0.05027830001199618,0.04983639999409206,0.09989340000902303,0.09999190000235103,0.752619600010803
RSVPLG03,km,20251023-102645,1.0.1,20251023-100704,711,Practice,Both,1,Automatic,main,3,20251023-102708,global,global,750,S,H,E,E,S-E.png,H-E.png,sS,hH,mask-1.png,mask-4.png,s,1,0.3986004999896977,h,1,0.4785924000025261,0.04977699999290053,0.050251599997864105,0.09819039999274537,0.10073160000320058,0.7504962999955751
RSVPLG03,km,20251023-102645,1.0.1,20251023-100704,711,Practice,Both,1,Automatic,main,4,20251023-102713,local,global,750,S,H,A,E,A-S.png,H-E.png,sS,hH,mask-2.png,mask-1.png,s,1,0.8263673999899765,h,1,0.8904639999964274,0.04956250000395812,0.048560099996393546,0.10063230000378098,0.09907009999733418,0.7519134000031045
RSVPLG03,km,20251023-102645,1.0.1,20251023-100704,711,Practice,Both,1,Automatic,main,5,20251023-102718,global,global,300,H,H,E,A,H-E.png,H-A.png,hH,hH,mask-3.png,mask-3.png,h,1,0.38362349999079015,h,1,0.07648499999777414,0.05074880000029225,0.049488700009533204,0.10053209999750834,0.09918790000665467,0.30060479999519885
RSVPLG03,km,20251023-102645,1.0.1,20251023-100704,711,Practice,Both,1,Automatic,main,6,20251023-102722,local,local,300,S,S,E,E,E-S.png,E-S.png,sS,sS,mask-4.png,mask-2.png,s,1,0.31265589999384247,s,1,0.09433110000099987,0.049806499999249354,0.05074120000062976,0.10077330000058282,0.10008080000989139,0.30043979999027215
RSVPLG03,km,20251023-102645,1.0.1,20251023-100704,711,Practice,Both,1,Automatic,main,7,20251023-102726,local,local,750,H,S,A,E,A-H.png,E-S.png,hH,sS,mask-4.png,mask-2.png,h,1,1.0841565999871818,s,1,1.2282263999950374,0.049680399999488145,0.0496971999964444,0.09990509999624919,0.09870259999297559,0.7524360999959754
RSVPLG03,km,20251023-102645,1.0.1,20251023-100704,711,Practice,Both,1,Automatic,main,8,20251023-102731,local,local,750,S,H,A,A,A-S.png,A-H.png,sS,hH,mask-1.png,mask-1.png,h,0,0.6037090000027092,h,1,0.09304599999450147,0.0475192000012612,0.05030229999101721,0.1002370000060182,0.10001969999575522,0.7502340000064578
RSVPLG03,km,20251023-102645,1.0.1,20251023-100704,711,Practice,Both,1,Automatic,main,9,20251023-102736,global,global,300,S,S,A,E,S-A.png,S-E.png,sS,sS,mask-3.png,mask-1.png,s,1,0.801652499998454,h,0,0.9455910999968182,0.04947579999861773,0.04965420000371523,0.09864899999229237,0.09960489999502897,0.300333999999566
RSVPLG03,km,20251023-102645,1.0.1,20251023-100704,711,Practice,Both,1,Automatic,main,10,20251023-102741,global,local,300,S,H,A,E,S-A.png,E-H.png,sS,hH,mask-2.png,mask-3.png,s,1,0.9751677000022028,s,0,0.07562590000452474,0.04933470000105444,0.04950090000056662,0.09872910000558477,0.10013590000744443,0.3003224999993108
RSVPLG03,km,20251023-102645,1.0.1,20251023-100704,711,Practice,Both,1,Automatic,main,11,20251023-102745,local,global,300,H,S,E,A,E-H.png,S-A.png,hH,sS,mask-4.png,mask-1.png,s,0,0.41023379999387544,h,0,0.5380908999941312,0.05042919999687001,0.0489001000096323,0.10015610000118613,0.09897940000519156,0.3013675999973202
RSVPLG03,km,20251023-102645,1.0.1,20251023-100704,711,Practice,Both,1,Automatic,main,12,20251023-102749,local,global,300,H,S,A,A,A-H.png,S-A.png,hH,sS,mask-2.png,mask-1.png,h,1,0.2795769000076689,s,1,0.37551740001072176,0.04982139999628998,0.04980999999679625,0.09975829999893904,0.0997607000026619,0.2997814999980619
RSVPLG03,km,20251023-102645,1.0.1,20251023-100704,711,Practice,Both,1,Automatic,main,13,20251023-102753,local,global,750,S,S,A,E,A-S.png,S-E.png,sS,sS,mask-3.png,mask-4.png,s,1,0.5909360000077868,s,1,0.048327500000596046,0.05020199999853503,0.050558500006445684,0.10032649998902343,0.10032830000272952,0.7493547999911243
RSVPLG03,km,20251023-102645,1.0.1,20251023-100704,711,Practice,Both,1,Automatic,main,14,20251023-102758,local,local,300,H,S,E,E,E-H.png,E-S.png,hH,sS,mask-1.png,mask-3.png,s,0,0.5265137999958824,s,1,0.6686018999898806,0.04966509999940172,0.048894599996856414,0.10008620000735391,0.0993387999915285,0.301379900003667
RSVPLG03,km,20251023-102645,1.0.1,20251023-100704,711,Practice,Both,1,Automatic,main,15,20251023-102803,global,local,750,H,H,E,E,H-E.png,E-H.png,hH,hH,mask-2.png,mask-1.png,h,1,0.5262644000031287,s,0,0.033765000000130385,0.05168550000234973,0.04945810000936035,0.10146099999838043,0.10042870001052506,0.7517723999917507
RSVPLG03,km,20251023-102645,1.0.1,20251023-100704,711,Practice,Both,1,Automatic,main,16,20251023-102808,global,local,750,S,S,E,E,S-E.png,E-S.png,sS,sS,mask-4.png,mask-4.png,s,1,0.36955300001136493,s,1,0.045872799993958324,0.05028520000632852,0.04960090000531636,0.09915979999641422,0.09993300000496674,0.7506212000007508
RSVPLG03,km,20251023-102831,1.0.1,20251023-100704,711,Practice,Both,1,Automatic,main,1,20251023-102901,local,global,750,S,S,E,E,E-S.png,S-E.png,sS,sS,mask-4.png,mask-2.png,h,0,1.64904309999838,s,1,0.669770000007702,0.03887889999896288,0.05083550000563264,0.08874880000075791,0.1008395999961067,0.7400011999998242
RSVPLG03,km,20251023-102831,1.0.1,20251023-100704,711,Practice,Both,1,Automatic,main,2,20251023-102907,global,local,750,H,H,E,A,H-E.png,A-H.png,hH,hH,mask-4.png,mask-4.png,h,1,1.0214858999970602,h,1,1.1189195999904769,0.049896599986823276,0.04864100000122562,0.09881939999468159,0.09956630000669975,0.7495681999862427
RSVPLG03,km,20251023-102831,1.0.1,20251023-100704,711,Practice,Both,1,Automatic,main,3,20251023-102914,global,global,300,S,H,A,A,S-A.png,H-A.png,sS,hH,mask-1.png,mask-1.png,s,1,0.7165776000038022,h,1,0.1432751999964239,0.04970309999771416,0.049599600009969436,0.10168859999976121,0.10128880001138896,0.30006649999995716
RSVPLG03,km,20251023-102831,1.0.1,20251023-100704,711,Practice,Both,1,Automatic,main,4,20251023-102918,global,local,300,H,S,E,A,H-E.png,A-S.png,hH,sS,mask-1.png,mask-1.png,h,1,0.48263120000774506,s,1,0.1718330000003334,0.048557300004176795,0.049386900005629286,0.10094639999442734,0.09989080000377726,0.30088640000030864
RSVPLG03,km,20251023-102831,1.0.1,20251023-100704,711,Practice,Both,1,Automatic,main,5,20251023-102923,global,local,300,S,S,A,A,S-A.png,A-S.png,sS,sS,mask-3.png,mask-2.png,s,1,0.5336053000064567,s,1,0.11003729999356437,0.04970669999602251,0.04870340001070872,0.09959559999697376,0.09961840001051314,0.3006079999904614
RSVPLG03,km,20251023-102831,1.0.1,20251023-100704,711,Practice,Both,1,Automatic,main,6,20251023-102927,local,local,750,S,S,E,E,E-S.png,E-S.png,sS,sS,mask-1.png,mask-4.png,s,1,0.4128186000016285,s,1,0.09235209999314975,0.04886140000598971,0.048681599990231916,0.09912539999641012,0.09850879998703022,0.7487572000100045
RSVPLG03,km,20251023-102831,1.0.1,20251023-100704,711,Practice,Both,1,Automatic,main,7,20251023-102932,global,global,750,S,S,E,E,S-E.png,S-E.png,sS,sS,mask-1.png,mask-1.png,s,1,0.3674645999999484,s,1,0.07853939999768045,0.05051380000077188,0.0507147000025725,0.09943990000465419,0.10078390000853688,0.7498254999954952
RSVPLG03,km,20251023-102831,1.0.1,20251023-100704,711,Practice,Both,1,Automatic,main,8,20251023-102936,local,global,300,S,H,E,A,E-S.png,H-A.png,sS,hH,mask-1.png,mask-3.png,s,1,0.5676888000016334,h,1,0.12502210000820924,0.05044589999306481,0.05071640000096522,0.10038949998852331,0.09842320000461768,0.2996683999954257
RSVPLG03,km,20251023-102831,1.0.1,20251023-100704,711,Practice,Both,1,Automatic,main,9,20251023-102941,local,local,300,S,S,A,A,A-S.png,A-S.png,sS,sS,mask-4.png,mask-3.png,h,0,0.9522807000030298,s,1,0.11436719998891931,0.04985840000153985,0.04885330000251997,0.09986899999785237,0.09834260000206996,0.3005078999995021
RSVPLG03,km,20251023-102831,1.0.1,20251023-100704,711,Practice,Both,1,Automatic,main,10,20251023-102946,local,local,750,S,S,A,A,A-S.png,A-S.png,sS,sS,mask-2.png,mask-4.png,s,1,0.3905543999862857,s,1,0.09537169999384787,0.05029280000599101,0.04957410000497475,0.09917879999557044,0.1003849000117043,0.7504028999974253
RSVPLG03,km,20251023-102831,1.0.1,20251023-100704,711,Practice,Both,1,Automatic,main,11,20251023-102950,local,local,300,S,H,E,E,E-S.png,E-H.png,sS,hH,mask-2.png,mask-1.png,s,1,0.3333208999974886,h,1,0.4936217999929795,0.0515196000051219,0.050136600009864196,0.10130320000462234,0.09932980001030955,0.3010525999998208
RSVPLG03,km,20251023-102831,1.0.1,20251023-100704,711,Practice,Both,1,Automatic,main,12,20251023-102954,global,global,300,H,H,E,E,H-E.png,H-E.png,hH,hH,mask-4.png,mask-4.png,h,1,0.23546630000055302,h,1,0.07907910000358243,0.051729500002693385,0.049706899997545406,0.10159099999873433,0.09852780000073835,0.30159760000242386
RSVPLG03,km,20251023-102831,1.0.1,20251023-100704,711,Practice,Both,1,Automatic,main,13,20251023-102958,global,global,750,S,S,E,E,S-E.png,S-E.png,sS,sS,mask-1.png,mask-2.png,s,1,0.3356762999901548,s,1,0.0612630999967223,0.049551700009033084,0.04894209999474697,0.09902240001247264,0.10012609999103006,0.7492870000132825
RSVPLG03,km,20251023-102831,1.0.1,20251023-100704,711,Practice,Both,1,Automatic,main,14,20251023-103003,local,global,750,H,S,A,E,A-H.png,S-E.png,hH,sS,mask-1.png,mask-4.png,h,1,0.4599757999967551,s,1,0.015546199996606447,0.05041009999695234,0.050608500008820556,0.09927629999583587,0.10117439999885391,0.7492688999918755
RSVPLG03,km,20251023-102831,1.0.1,20251023-100704,711,Practice,Both,1,Automatic,main,15,20251023-103008,global,local,750,H,H,A,A,H-A.png,A-H.png,hH,hH,mask-1.png,mask-3.png,h,1,0.31900109999696724,h,1,0.06320279999636114,0.04967439999745693,0.05067929999495391,0.09949280000000726,0.10062499999185093,0.7493098999984795
RSVPLG03,km,20251023-102831,1.0.1,20251023-100704,711,Practice,Both,1,Automatic,main,16,20251023-103012,local,global,300,H,H,E,E,E-H.png,H-E.png,hH,hH,mask-4.png,mask-1.png,s,0,0.4420555999968201,h,1,0.6716207999998005,0.04976239999814425,0.05002220001188107,0.09960889999638312,0.09855540000717156,0.29965219998848625
RSVPLG03,km,20251023-103104,1.0.1,20251023-100704,711,Experiment,Both,1,Automatic,warmup,1,20251023-103126,global,global,750,H,S,E,E,H-E.png,S-E.png,hH,sS,mask-1.png,mask-1.png,h,1,0.8302187000081176,s,1,0.4943157999950927,0.03989339999679942,0.05040269999881275,0.08993219998956192,0.0983459999988554,0.7408435999968788
RSVPLG03,km,20251023-103104,1.0.1,20251023-100704,711,Experiment,Both,1,Automatic,warmup,2,20251023-103132,global,local,300,H,S,E,A,H-E.png,A-S.png,hH,sS,mask-1.png,mask-2.png,h,1,0.3052776999975322,s,1,0.014695699996082112,0.051204200004576705,0.04822719999356195,0.10150350000185426,0.09854759999143425,0.30130920000374317
RSVPLG03,km,20251023-103104,1.0.1,20251023-100704,711,Experiment,Both,1,Automatic,warmup,3,20251023-103136,local,global,750,H,S,A,A,A-H.png,S-A.png,hH,sS,mask-4.png,mask-4.png,h,1,0.33484960001078434,s,1,0.012824500008719042,0.04967940000642557,0.04963399999542162,0.10155520000262186,0.10049119999166578,0.7496590000082506
RSVPLG03,km,20251023-103104,1.0.1,20251023-100704,711,Experiment,Both,1,Automatic,warmup,4,20251023-103140,local,local,300,H,H,A,A,A-H.png,A-H.png,hH,hH,mask-2.png,mask-1.png,s,0,0.3286268999945605,h,1,0.4246063999889884,0.050478200006182306,0.04914689999714028,0.10018019999552052,0.0997341000038432,0.3007428999990225
RSVPLG03,km,20251023-103104,1.0.1,20251023-100704,711,Experiment,Both,1,Automatic,warmup,5,20251023-103144,local,local,750,S,S,E,E,E-S.png,E-S.png,sS,sS,mask-1.png,mask-3.png,s,1,0.26592850001179613,s,1,0.06344359999638982,0.05019880000327248,0.050445499990019016,0.10076139999728184,0.10006789999897592,0.7496130000072299
RSVPLG03,km,20251023-103104,1.0.1,20251023-100704,711,Experiment,Both,1,Automatic,main,6,20251023-103149,global,local,300,H,S,E,E,H-E.png,E-S.png,hH,sS,mask-2.png,mask-4.png,h,1,0.221607600004063,s,1,0.06108939999830909,0.048855799992452376,0.050868000005721115,0.09858679999888409,0.1007860000099754,0.2983109999913722
RSVPLG03,km,20251023-103104,1.0.1,20251023-100704,711,Experiment,Both,1,Automatic,main,7,20251023-103153,global,global,300,H,S,A,A,H-A.png,S-A.png,hH,sS,mask-3.png,mask-2.png,h,1,0.6903101000061724,s,1,0.04552050000347663,0.04888229999050964,0.050865900004282594,0.09935079999559093,0.10090950000449084,0.2980894999927841
RSVPLG03,km,20251023-103104,1.0.1,20251023-100704,711,Experiment,Both,1,Automatic,main,8,20251023-103157,global,local,300,H,S,E,A,H-E.png,A-S.png,hH,sS,mask-4.png,mask-1.png,h,1,0.4064250999945216,s,1,0.060719900007825345,0.050393100013025105,0.050386600007186644,0.09889290000137407,0.09886990000086371,0.2998894000047585
RSVPLG03,km,20251023-103104,1.0.1,20251023-100704,711,Experiment,Both,1,Automatic,main,9,20251023-103201,local,global,300,H,S,E,A,E-H.png,S-A.png,hH,sS,mask-1.png,mask-2.png,h,1,0.3657233000121778,s,1,0.026250299997627735,0.049636900002951734,0.04964869999093935,0.09880989999510348,0.09856939999735914,0.29975950000516605
RSVPLG03,km,20251023-103104,1.0.1,20251023-100704,711,Experiment,Both,1,Automatic,main,10,20251023-103205,local,global,300,H,S,A,E,A-H.png,S-E.png,hH,sS,mask-3.png,mask-1.png,h,1,0.3298899999936111,s,1,0.01615180000953842,0.04989700000442099,0.05119379999814555,0.10171879999688827,0.10088109999196604,0.3000231000041822
RSVPLG03,km,20251023-103104,1.0.1,20251023-100704,711,Experiment,Both,1,Automatic,main,11,20251023-103209,local,local,750,H,H,E,E,E-H.png,E-H.png,hH,hH,mask-1.png,mask-3.png,h,1,0.5845599000022048,s,0,0.015113999994355254,0.04969919999712147,0.050056099993526004,0.10051200000452809,0.09908509999513626,0.7496698000031756
RSVPLG03,km,20251023-103104,1.0.1,20251023-100704,711,Experiment,Both,1,Automatic,main,12,20251023-103214,local,global,750,H,S,E,A,E-H.png,S-A.png,hH,sS,mask-4.png,mask-4.png,h,1,0.513166499993531,s,1,0.6413332999945851,0.05068349999783095,0.05050589999882504,0.10059529999853112,0.09996839999803342,0.748589599999832
RSVPLG03,km,20251023-103104,1.0.1,20251023-100704,711,Experiment,Both,1,Automatic,main,13,20251023-103219,local,global,750,S,S,E,E,E-S.png,S-E.png,sS,sS,mask-3.png,mask-3.png,s,1,0.4232601999974577,h,0,0.031256599992047995,0.05153729999437928,0.04849239999020938,0.10116099999868311,0.09974700000020675,0.7513743000017712
RSVPLG03,km,20251023-103104,1.0.1,20251023-100704,711,Experiment,Both,1,Automatic,main,14,20251023-103223,global,local,300,S,H,E,A,S-E.png,A-H.png,sS,hH,mask-3.png,mask-4.png,s,1,0.5922303999977885,h,1,0.23966500000096858,0.05141500000900123,0.05067389999749139,0.10124150000046939,0.10044009999546688,0.2997831000102451
RSVPLG03,km,20251023-103104,1.0.1,20251023-100704,711,Experiment,Both,1,Automatic,main,15,20251023-103228,local,global,750,H,H,E,A,E-H.png,H-A.png,hH,hH,mask-4.png,mask-4.png,s,0,0.35389820000273176,h,1,0.049024699997971766,0.049756600012187846,0.04941829999734182,0.09955230000196025,0.1002303999994183,0.7494777000101749
RSVPLG03,km,20251023-103104,1.0.1,20251023-100704,711,Experiment,Both,1,Automatic,main,16,20251023-103233,global,global,750,S,H,E,E,S-E.png,H-E.png,sS,hH,mask-4.png,mask-1.png,s,1,0.3828808999969624,h,1,0.04333879999467172,0.04968409999855794,0.049598400000832044,0.09998850000556558,0.09931289999803994,0.7487239000038244
RSVPLG03,km,20251023-103104,1.0.1,20251023-100704,711,Experiment,Both,1,Automatic,main,17,20251023-103237,local,local,300,S,S,E,A,E-S.png,A-S.png,sS,sS,mask-2.png,mask-2.png,s,1,0.332017699998687,h,0,0.029922200003056787,0.0503857000003336,0.04947310000716243,0.0992675000015879,0.09986420000495855,0.30052920000161976
RSVPLG03,km,20251023-103104,1.0.1,20251023-100704,711,Experiment,Both,1,Automatic,main,18,20251023-103241,local,global,750,H,S,E,E,E-H.png,S-E.png,hH,sS,mask-2.png,mask-3.png,h,1,0.3894094999996014,s,1,0.09533559999545105,0.050206499989144504,0.05067710000730585,0.10079630000109319,0.10062749999633525,0.7505459999956656
RSVPLG03,km,20251023-103104,1.0.1,20251023-100704,711,Experiment,Both,1,Automatic,main,19,20251023-103246,global,global,750,H,S,A,A,H-A.png,S-A.png,hH,sS,mask-2.png,mask-2.png,h,1,0.4917267999990145,s,1,0.061661300002015196,0.04973430000245571,0.05082970000512432,0.09981580000021495,0.10036350000882521,0.7488463999907253
RSVPLG03,km,20251023-103104,1.0.1,20251023-100704,711,Experiment,Both,1,Automatic,main,20,20251023-103251,global,local,750,S,H,A,A,S-A.png,A-H.png,sS,hH,mask-4.png,mask-3.png,s,1,0.43763339999713935,h,1,0.01525539999420289,0.04980960000830237,0.049799000000348315,0.10173730000678916,0.100709199992707,0.7499412000033772
RSVPLG03,km,20251023-103104,1.0.1,20251023-100704,711,Experiment,Both,1,Automatic,main,21,20251023-103255,local,local,300,S,S,E,E,E-S.png,E-S.png,sS,sS,mask-3.png,mask-2.png,s,1,0.36304070000187494,h,0,0.031084899994311854,0.050832299995818175,0.050227300002006814,0.1011523000051966,0.10050169999885838,0.3006050999974832
RSVPLG03,km,20251023-103104,1.0.1,20251023-100704,711,Experiment,Both,1,Automatic,main,22,20251023-103300,local,global,300,S,S,A,A,A-S.png,S-A.png,sS,sS,mask-4.png,mask-3.png,h,0,0.5437723000068218,s,1,0.011730600002920255,0.04992829999537207,0.04948869999498129,0.09987559998990037,0.09818499999528285,0.301304299995536
RSVPLG03,km,20251023-103104,1.0.1,20251023-100704,711,Experiment,Both,1,Automatic,main,23,20251023-103304,global,global,300,H,S,E,E,H-E.png,S-E.png,hH,sS,mask-2.png,mask-2.png,h,1,0.3506061999942176,s,1,0.03151800000341609,0.05082060000859201,0.04997070001263637,0.10003109999524895,0.0996002000028966,0.3005684999952791
RSVPLG03,km,20251023-103104,1.0.1,20251023-100704,711,Experiment,Both,1,Automatic,main,24,20251023-103308,local,local,750,S,S,E,A,E-S.png,A-S.png,sS,sS,mask-3.png,mask-2.png,s,1,0.48537549999309704,s,1,0.06328449999273289,0.04872059999615885,0.04990600000019185,0.098757800005842,0.1007580000004964,0.7486441999935778
RSVPLG03,km,20251023-103104,1.0.1,20251023-100704,711,Experiment,Both,1,Automatic,main,25,20251023-103313,global,global,750,H,S,A,A,H-A.png,S-A.png,hH,sS,mask-2.png,mask-1.png,h,1,0.9975459999986924,s,1,0.045698499990976416,0.050004699995042756,0.05145359999733046,0.09857689999626018,0.09993529999337625,0.747988200004329
RSVPLG03,km,20251023-103104,1.0.1,20251023-100704,711,Experiment,Both,1,Automatic,main,26,20251023-103320,local,local,750,S,S,E,E,E-S.png,E-S.png,sS,sS,mask-4.png,mask-3.png,s,1,0.928588499999023,h,0,0.28362279999419115,0.048936099992715754,0.04953260000911541,0.0992030000052182,0.09932580000895541,0.7497717999940505
RSVPLG03,km,20251023-103104,1.0.1,20251023-100704,711,Experiment,Both,1,Automatic,main,27,20251023-103326,local,global,750,H,S,E,E,E-H.png,S-E.png,hH,sS,mask-1.png,mask-4.png,h,1,0.7911131000000751,s,1,0.20552470000984613,0.051149599996278994,0.050541100004920736,0.10101379999832716,0.10052229999564588,0.7491334999940591
RSVPLG03,km,20251023-103104,1.0.1,20251023-100704,711,Experiment,Both,1,Automatic,main,28,20251023-103331,global,local,750,S,H,E,E,S-E.png,E-H.png,sS,hH,mask-2.png,mask-4.png,s,1,0.4160808000015095,s,0,0.12750219998997636,0.04850790000637062,0.05169130000285804,0.10013540000363719,0.10048809999716468,0.7481944000028307
RSVPLG03,km,20251023-103104,1.0.1,20251023-100704,711,Experiment,Both,1,Automatic,main,29,20251023-103336,local,local,300,S,H,E,A,E-S.png,A-H.png,sS,hH,mask-4.png,mask-4.png,s,1,0.7074906000052579,h,1,0.06622009999409784,0.05024820000107866,0.04920289998699445,0.10067300000810064,0.09956289999536239,0.2991694000083953
RSVPLG03,km,20251023-103104,1.0.1,20251023-100704,711,Experiment,Both,1,Automatic,main,30,20251023-103340,global,global,750,S,S,A,A,S-A.png,S-A.png,sS,sS,mask-2.png,mask-1.png,s,1,0.4471220999985235,s,1,0.09331169999495614,0.05095679999794811,0.04857149999588728,0.10069099999964237,0.1000583999993978,0.7510719999991124
RSVPLG03,km,20251023-103104,1.0.1,20251023-100704,711,Experiment,Both,1,Automatic,main,31,20251023-103345,global,global,300,S,H,E,E,S-E.png,H-E.png,sS,hH,mask-4.png,mask-1.png,s,1,0.5166834000119707,h,1,0.04658720000588801,0.049735900000086986,0.0497215000068536,0.0995524000027217,0.09947900001134258,0.30015199999616016
RSVPLG03,km,20251023-103104,1.0.1,20251023-100704,711,Experiment,Both,1,Automatic,main,32,20251023-103349,global,global,750,S,H,A,E,S-A.png,H-E.png,sS,hH,mask-3.png,mask-4.png,s,1,0.5706556000077398,h,1,0.07713109999895096,0.0496656999894185,0.048644700000295416,0.09938559999864083,0.09868919999280479,0.7508942999993451
RSVPLG03,km,20251023-103104,1.0.1,20251023-100704,711,Experiment,Both,1,Automatic,main,33,20251023-103354,global,local,300,S,H,E,A,S-E.png,A-H.png,sS,hH,mask-4.png,mask-3.png,s,1,0.36792229999264237,h,1,0.04717259999597445,0.04990929999621585,0.05101979999744799,0.10067260000505485,0.10118979999970179,0.30052879999857396
RSVPLG03,km,20251023-103104,1.0.1,20251023-100704,711,Experiment,Both,1,Automatic,main,34,20251023-103358,local,local,750,H,S,A,E,A-H.png,E-S.png,hH,sS,mask-1.png,mask-3.png,h,1,0.46552860000520013,s,1,0.029565599994384684,0.05003049998776987,0.04849869999452494,0.09898429999884684,0.09853149999980815,0.7507589000015287
RSVPLG03,km,20251023-103104,1.0.1,20251023-100704,711,Experiment,Both,1,Automatic,main,35,20251023-103403,local,global,300,S,H,E,E,E-S.png,H-E.png,sS,hH,mask-4.png,mask-4.png,s,1,0.48030200001085177,h,1,0.6090275000024121,0.05061970000679139,0.05052309999882709,0.10122110000520479,0.10012119999737479,0.30086310001206584
RSVPLG03,km,20251023-103104,1.0.1,20251023-100704,711,Experiment,Both,1,Automatic,main,36,20251023-103407,local,global,750,H,H,E,E,E-H.png,H-E.png,hH,hH,mask-2.png,mask-2.png,h,1,0.36364989999856334,h,1,0.06031629999051802,0.050822100005461834,0.0504711999965366,0.09971739999309648,0.10037899999588262,0.7496811000019079
RSVPLG03,km,20251023-103104,1.0.1,20251023-100704,711,Experiment,Both,1,Automatic,main,37,20251023-103411,local,local,750,S,S,A,E,A-S.png,E-S.png,sS,sS,mask-3.png,mask-1.png,s,1,1.6134326000028523,s,1,0.06268560000171419,0.04977530000905972,0.050921100002597086,0.1003299000003608,0.1007681000046432,0.7489244000025792
RSVPLG03,km,20251023-103104,1.0.1,20251023-100704,711,Experiment,Both,1,Automatic,main,38,20251023-103417,global,local,300,H,S,A,E,H-A.png,E-S.png,hH,sS,mask-1.png,mask-1.png,h,1,0.3757802000036463,s,1,0.011582000006455928,0.05037840000295546,0.051190300000598654,0.10007309999491554,0.10068780000437982,0.2994938999909209
RSVPLG03,km,20251023-103104,1.0.1,20251023-100704,711,Experiment,Both,1,Automatic,main,39,20251023-103421,local,global,750,H,H,E,E,E-H.png,H-E.png,hH,hH,mask-1.png,mask-3.png,s,0,0.5851390999887371,h,1,0.7290496999921743,0.049343999999109656,0.050263199998880737,0.10109850000299048,0.10025550000136718,0.749409399999422
RSVPLG03,km,20251023-103104,1.0.1,20251023-100704,711,Experiment,Both,1,Automatic,main,40,20251023-103426,global,local,300,S,S,A,A,S-A.png,A-S.png,sS,sS,mask-4.png,mask-2.png,s,1,0.21457289998943452,s,1,0.09345349999784958,0.05036740000650752,0.04839490000449587,0.10086400000727735,0.09924539999337867,0.30144470000232104
RSVPLG03,km,20251023-103104,1.0.1,20251023-100704,711,Experiment,Both,1,Automatic,main,41,20251023-103430,local,local,300,S,S,E,A,E-S.png,A-S.png,sS,sS,mask-4.png,mask-2.png,s,1,0.29383579999557696,h,0,0.4220940000086557,0.04966860001150053,0.04970000000321306,0.09958760000881739,0.09950290000415407,0.3000921000057133
RSVPLG03,km,20251023-103104,1.0.1,20251023-100704,711,Experiment,Both,1,Automatic,main,42,20251023-103434,global,local,750,H,H,E,E,H-E.png,E-H.png,hH,hH,mask-3.png,mask-4.png,h,1,0.585948299994925,h,1,0.047497200008365326,0.05068710001069121,0.05027059999702033,0.10149549999914598,0.09944759999052621,0.7494814000092447
RSVPLG03,km,20251023-103104,1.0.1,20251023-100704,711,Experiment,Both,1,Automatic,main,43,20251023-103439,local,global,300,S,S,E,E,E-S.png,S-E.png,sS,sS,mask-1.png,mask-3.png,s,1,0.29350159999739844,h,0,0.013677700000698678,0.05064739999943413,0.04969340001116507,0.10052750000613742,0.09949160000542179,0.30100819999643136
RSVPLG03,km,20251023-103104,1.0.1,20251023-100704,711,Experiment,Both,1,Automatic,main,44,20251023-103443,local,local,300,S,S,E,E,E-S.png,E-S.png,sS,sS,mask-3.png,mask-1.png,s,1,0.3340864999918267,s,1,0.062065699996310286,0.04994989999977406,0.049997499998426065,0.09944910000194795,0.10000919998856261,0.2989971000060905
RSVPLG03,km,20251023-103104,1.0.1,20251023-100704,711,Experiment,Both,1,Automatic,main,45,20251023-103447,local,local,300,S,S,A,E,A-S.png,E-S.png,sS,sS,mask-1.png,mask-3.png,h,0,0.577710700003081,s,1,0.6737943000043742,0.04876649999641813,0.05089779999980237,0.09859419999702368,0.10179970000172034,0.2971754000027431
RSVPLG03,km,20251023-103104,1.0.1,20251023-100704,711,Experiment,Both,1,Automatic,main,46,20251023-103451,local,local,300,S,H,A,E,A-S.png,E-H.png,sS,hH,mask-2.png,mask-3.png,s,1,1.8898207000020193,h,1,2.018106199990143,0.047955699992598966,0.04979499999899417,0.09872249999898486,0.10048609999648761,0.29812009999295697
RSVPLG03,km,20251023-103104,1.0.1,20251023-100704,711,Experiment,Both,1,Automatic,main,47,20251023-103456,global,global,300,H,S,A,A,H-A.png,S-A.png,hH,sS,mask-3.png,mask-4.png,h,1,0.5134733000013512,s,1,0.6558640000002924,0.04869989999860991,0.049140999995870516,0.09928459998627659,0.09881719999248162,0.2993480000004638
RSVPLG03,km,20251023-103104,1.0.1,20251023-100704,711,Experiment,Both,1,Automatic,main,48,20251023-103501,global,local,750,S,S,E,A,S-E.png,A-S.png,sS,sS,mask-4.png,mask-3.png,s,1,0.47633309999946505,s,1,0.06319419998908415,0.04967790000955574,0.05106620000151452,0.09942140000930522,0.10125210000842344,0.7471920999960275
RSVPLG03,km,20251023-103104,1.0.1,20251023-100704,711,Experiment,Both,1,Automatic,main,49,20251023-103506,global,local,750,S,S,A,E,S-A.png,E-S.png,sS,sS,mask-4.png,mask-1.png,s,1,0.3419278000073973,s,1,0.04591179999988526,0.04881279999972321,0.05066459999943618,0.09980700000596698,0.10036140000738669,0.7478546000056667
RSVPLG03,km,20251023-103104,1.0.1,20251023-100704,711,Experiment,Both,1,Automatic,main,50,20251023-103511,local,global,750,S,H,E,A,E-S.png,H-A.png,sS,hH,mask-1.png,mask-2.png,h,0,0.5854977999988478,s,0,0.12679619999835268,0.049916099989786744,0.049669499989249744,0.09968269999080803,0.09943439999187831,0.749653799997759
RSVPLG03,km,20251023-103104,1.0.1,20251023-100704,711,Experiment,Both,1,Automatic,main,51,20251023-103537,global,global,300,S,S,A,A,S-A.png,S-A.png,sS,sS,mask-4.png,mask-3.png,s,1,0.27666010000393726,h,0,0.4822905999899376,0.049276799996732734,0.049779900000430644,0.10032199999841396,0.09962090000044554,0.30085879999387544
RSVPLG03,km,20251023-103104,1.0.1,20251023-100704,711,Experiment,Both,1,Automatic,main,52,20251023-103542,local,local,750,S,S,A,E,A-S.png,E-S.png,sS,sS,mask-3.png,mask-1.png,h,0,0.3737929000053555,s,1,0.3351688999973703,0.04979619999357965,0.05152399999496993,0.09919639999861829,0.10008440000819974,0.7478382999979658
RSVPLG03,km,20251023-103104,1.0.1,20251023-100704,711,Experiment,Both,1,Automatic,main,53,20251023-103546,global,global,300,S,H,E,A,S-E.png,H-A.png,sS,hH,mask-3.png,mask-2.png,s,1,0.3086784000042826,h,1,0.43751329999940936,0.04877649999980349,0.04853020000155084,0.09849119999853428,0.09815659999730997,0.3011416000081226
RSVPLG03,km,20251023-103104,1.0.1,20251023-100704,711,Experiment,Both,1,Automatic,main,54,20251023-103550,local,global,300,H,S,E,A,E-H.png,S-A.png,hH,sS,mask-4.png,mask-1.png,h,1,0.37454620000789873,s,1,0.4704768000083277,0.049807800009148195,0.04975989999365993,0.09967130000586621,0.1002297999948496,0.299624400009634
RSVPLG03,km,20251023-103104,1.0.1,20251023-100704,711,Experiment,Both,1,Automatic,main,55,20251023-103554,local,global,300,S,H,E,E,E-S.png,H-E.png,sS,hH,mask-1.png,mask-3.png,h,0,0.34976019999885466,s,0,0.01631469999847468,0.049779499997384846,0.04798540000047069,0.09970859999884851,0.09843019999971148,0.30145830000401475
RSVPLG03,km,20251023-103104,1.0.1,20251023-100704,711,Experiment,Both,1,Automatic,main,56,20251023-103558,local,local,750,H,S,E,A,E-H.png,A-S.png,hH,sS,mask-4.png,mask-3.png,h,1,0.3692462000035448,s,1,0.04344229999696836,0.05011229999945499,0.05016040000191424,0.0991550000035204,0.09973870000976603,0.7496930999914184
RSVPLG03,km,20251023-103104,1.0.1,20251023-100704,711,Experiment,Both,1,Automatic,main,57,20251023-103603,global,local,300,S,H,A,E,S-A.png,E-H.png,sS,hH,mask-3.png,mask-1.png,s,1,1.02307209999708,s,0,0.05835040000965819,0.04830880000372417,0.0488346000056481,0.09873630000220146,0.09953230000974145,0.29982939999899827
RSVPLG03,km,20251023-103104,1.0.1,20251023-100704,711,Experiment,Both,1,Automatic,main,58,20251023-103608,global,global,750,S,H,E,E,S-E.png,H-E.png,sS,hH,mask-2.png,mask-3.png,s,1,0.4088412999990396,h,1,0.5365679999958957,0.048867799996514805,0.04892190000100527,0.10083339999255259,0.09904889999597799,0.7493651999975555
RSVPLG03,km,20251023-103104,1.0.1,20251023-100704,711,Experiment,Both,1,Automatic,main,59,20251023-103612,global,local,750,S,H,E,E,S-E.png,E-H.png,sS,hH,mask-2.png,mask-4.png,s,1,1.2526027999992948,h,1,1.3787167999980738,0.05060129999765195,0.05092369999329094,0.10190059999877121,0.1007297999894945,0.750589500006754
RSVPLG03,km,20251023-103104,1.0.1,20251023-100704,711,Experiment,Both,1,Automatic,main,60,20251023-103619,local,local,300,S,S,E,A,E-S.png,A-S.png,sS,sS,mask-2.png,mask-1.png,s,1,0.45016400000895374,s,1,0.08260970000992529,0.04987200000323355,0.05067479998979252,0.09991240000817925,0.10137949998897966,0.30015570000978187
RSVPLG03,km,20251023-103104,1.0.1,20251023-100704,711,Experiment,Both,1,Automatic,main,61,20251023-103623,global,local,300,S,S,E,A,S-E.png,A-S.png,sS,sS,mask-3.png,mask-1.png,s,1,0.30793439999979455,h,0,0.41992890000983607,0.048875299995415844,0.04982169999857433,0.09893179999198765,0.10087750000820961,0.2995972999924561
RSVPLG03,km,20251023-103104,1.0.1,20251023-100704,711,Experiment,Both,1,Automatic,main,62,20251023-103627,global,global,300,H,S,E,A,H-E.png,S-A.png,hH,sS,mask-3.png,mask-3.png,h,1,0.3879789000056917,s,1,0.5161211000086041,0.05002339999191463,0.04993000000831671,0.09998889999405947,0.10023979999823496,0.2999485999898752
RSVPLG03,km,20251023-103104,1.0.1,20251023-100704,711,Experiment,Both,1,Automatic,main,63,20251023-103631,local,global,300,S,S,E,A,E-S.png,S-A.png,sS,sS,mask-2.png,mask-4.png,s,1,0.30548609999823384,h,0,0.40148869999393355,0.04993920000561047,0.050851499996497296,0.1009535000048345,0.10187620000215247,0.300058299995726
RSVPLG03,km,20251023-103104,1.0.1,20251023-100704,711,Experiment,Both,1,Automatic,main,64,20251023-103635,global,local,300,H,H,A,E,H-A.png,E-H.png,hH,hH,mask-1.png,mask-4.png,h,1,0.35016400000313297,h,1,0.1296691000025021,0.0492513999924995,0.048932999998214655,0.0996476000000257,0.09904939999978524,0.29884979999042116
RSVPLG03,km,20251023-103104,1.0.1,20251023-100704,711,Experiment,Both,1,Automatic,main,65,20251023-103639,local,global,300,H,S,E,E,E-H.png,S-E.png,hH,sS,mask-3.png,mask-3.png,h,1,0.39043459999084007,s,1,0.028420300004654564,0.04890680000244174,0.0508962000021711,0.09970429999521002,0.10087809999822639,0.298464999999851
RSVPLG03,km,20251023-103104,1.0.1,20251023-100704,711,Experiment,Both,1,Automatic,main,66,20251023-103644,global,global,300,H,H,A,A,H-A.png,H-A.png,hH,hH,mask-3.png,mask-1.png,h,1,0.2599700999999186,h,1,0.06019930000184104,0.0485400000034133,0.04890270000032615,0.09774550001020543,0.09987429999455344,0.29874550001113676
RSVPLG03,km,20251023-103104,1.0.1,20251023-100704,711,Experiment,Both,1,Automatic,main,67,20251023-103648,global,global,300,S,H,E,A,S-E.png,H-A.png,sS,hH,mask-1.png,mask-4.png,s,1,0.3418488999886904,h,1,0.062065300007816404,0.050207899999804795,0.049027000000933185,0.10012980000465177,0.09903080000367481,0.30106319999322295
RSVPLG03,km,20251023-103104,1.0.1,20251023-100704,711,Experiment,Both,1,Automatic,main,68,20251023-103652,local,local,300,S,S,A,E,A-S.png,E-S.png,sS,sS,mask-1.png,mask-1.png,h,0,1.1057132999994792,s,1,0.07786570000462234,0.04876900000090245,0.05078730000241194,0.09984609999810345,0.09880430001066998,0.29961699999694247
RSVPLG03,km,20251023-103104,1.0.1,20251023-100704,711,Experiment,Both,1,Automatic,main,69,20251023-103657,local,global,750,H,S,A,A,A-H.png,S-A.png,hH,sS,mask-4.png,mask-4.png,h,1,2.847270699989167,s,1,0.06210349999309983,0.05077570000139531,0.04992119999951683,0.10141740000108257,0.10056390000681859,0.7504906999965897
RSVPLG03,km,20251023-103104,1.0.1,20251023-100704,711,Experiment,Both,1,Automatic,main,70,20251023-103704,local,local,750,H,S,E,A,E-H.png,A-S.png,hH,sS,mask-2.png,mask-2.png,h,1,0.7034396000090055,s,1,0.049549200004548766,0.049795399987488054,0.04850619999342598,0.0997365999937756,0.10064279999642167,0.7493691999989096
RSVPLG03,km,20251023-103104,1.0.1,20251023-100704,711,Experiment,Both,1,Automatic,main,71,20251023-103709,global,global,750,S,S,E,A,S-E.png,S-A.png,sS,sS,mask-1.png,mask-3.png,s,1,0.37362849999044556,h,0,0.014527499995892867,0.04928390000713989,0.05001259999698959,0.09959460000391118,0.0998193999985233,0.7501997000072151
RSVPLG03,km,20251023-103104,1.0.1,20251023-100704,711,Experiment,Both,1,Automatic,main,72,20251023-103713,local,global,300,H,H,A,E,A-H.png,H-E.png,hH,hH,mask-3.png,mask-2.png,h,1,0.42855820000113454,h,1,0.17506439999851864,0.04871199998888187,0.04926289999275468,0.09807609999552369,0.09961140000086743,0.29942989999835845
RSVPLG03,km,20251023-103104,1.0.1,20251023-100704,711,Experiment,Both,1,Automatic,main,73,20251023-103718,local,global,750,S,H,A,E,A-S.png,H-E.png,sS,hH,mask-3.png,mask-2.png,s,1,1.3725645000085933,h,1,1.5006702000100631,0.048674299992853776,0.04868349999014754,0.09946849998959806,0.09842519999074284,0.7501543999969726
RSVPLG03,km,20251023-103104,1.0.1,20251023-100704,711,Experiment,Both,1,Automatic,main,74,20251023-103723,global,global,300,S,H,A,E,S-A.png,H-E.png,sS,hH,mask-2.png,mask-4.png,s,1,0.4538724000012735,h,1,0.5663477000052808,0.049781800000346266,0.04979540000203997,0.10068449999380391,0.10069920000387356,0.29986109999299515
RSVPLG03,km,20251023-103104,1.0.1,20251023-100704,711,Experiment,Both,1,Automatic,main,75,20251023-103727,global,local,750,H,H,E,A,H-E.png,A-H.png,hH,hH,mask-4.png,mask-4.png,h,1,0.4009636999981012,h,1,0.07840990000113379,0.04982000000018161,0.04877550000674091,0.09978669999691192,0.09970390000671614,0.7507993999897735
RSVPLG03,km,20251023-103104,1.0.1,20251023-100704,711,Experiment,Both,1,Automatic,main,76,20251023-103744,global,global,750,H,H,E,A,H-E.png,H-A.png,hH,hH,mask-2.png,mask-2.png,h,1,1.1280945999897085,s,0,1.2399904999911087,0.050962900000740774,0.049513599995407276,0.10034030000679195,0.10019759999704547,0.7496195000130683
RSVPLG03,km,20251023-103104,1.0.1,20251023-100704,711,Experiment,Both,1,Automatic,main,77,20251023-103749,local,local,300,S,H,A,E,A-S.png,E-H.png,sS,hH,mask-2.png,mask-2.png,h,0,0.46530060000077356,h,1,0.07770840000011958,0.04969600000185892,0.04969109999365173,0.10048799999640323,0.09944589999213349,0.2994660999975167
RSVPLG03,km,20251023-103104,1.0.1,20251023-100704,711,Experiment,Both,1,Automatic,main,78,20251023-103753,local,global,750,S,S,A,E,A-S.png,S-E.png,sS,sS,mask-2.png,mask-3.png,h,0,0.7031549000093946,s,1,0.0454063000070164,0.04797020000114571,0.04891189999761991,0.0997823000070639,0.09824069999740459,0.7491315000079339
RSVPLG03,km,20251023-103104,1.0.1,20251023-100704,711,Experiment,Both,1,Automatic,main,79,20251023-103758,global,local,300,S,H,E,A,S-E.png,A-H.png,sS,hH,mask-4.png,mask-3.png,s,1,0.14003230001253542,h,1,0.06349830000544898,0.049527300012414344,0.04941409999446478,0.0991556000080891,0.09954110000398941,0.29988040000898764
RSVPLG03,km,20251023-103104,1.0.1,20251023-100704,711,Experiment,Both,1,Automatic,main,80,20251023-103802,global,global,300,S,H,A,A,S-A.png,H-A.png,sS,hH,mask-2.png,mask-2.png,s,1,0.30710130000079516,h,1,0.45119469999917783,0.04988380000577308,0.049796599996625446,0.10049850000359584,0.09970989999419544,0.3002501000009943
RSVPLG03,km,20251023-103104,1.0.1,20251023-100704,711,Experiment,Both,1,Automatic,main,81,20251023-103806,local,global,300,H,S,E,A,E-H.png,S-A.png,hH,sS,mask-3.png,mask-2.png,h,1,0.3507651999971131,s,1,0.18847619999723975,0.049398099989048205,0.04941550000512507,0.09908489999361336,0.09990560000005644,0.300128599992604
RSVPLG03,km,20251023-103104,1.0.1,20251023-100704,711,Experiment,Both,1,Automatic,main,82,20251023-103810,global,local,300,S,S,A,E,S-A.png,E-S.png,sS,sS,mask-3.png,mask-3.png,s,1,0.6884029000066221,h,0,0.14449639999656938,0.05134770000586286,0.051922700004070066,0.10000600000785198,0.10048890000325628,0.2991578000073787
RSVPLG03,km,20251023-103104,1.0.1,20251023-100704,711,Experiment,Both,1,Automatic,main,83,20251023-103815,local,global,750,S,S,E,E,E-S.png,S-E.png,sS,sS,mask-2.png,mask-3.png,s,1,0.52836950001074,s,1,0.0797613999893656,0.04807509999955073,0.049295100005110726,0.10002589999930933,0.09916240000165999,0.7493822999967961
RSVPLG03,km,20251023-103104,1.0.1,20251023-100704,711,Experiment,Both,1,Automatic,main,84,20251023-103820,local,local,300,H,S,E,E,E-H.png,E-S.png,hH,sS,mask-4.png,mask-1.png,s,0,0.3837446999968961,h,0,0.511470500001451,0.0499854000081541,0.04957639999338426,0.10067820000404026,0.09984459998668171,0.2998478000081377
RSVPLG03,km,20251023-103104,1.0.1,20251023-100704,711,Experiment,Both,1,Automatic,main,85,20251023-103824,global,global,750,H,S,E,E,H-E.png,S-E.png,hH,sS,mask-1.png,mask-4.png,h,1,0.37284229999931995,s,1,0.014571499996236525,0.05119830000330694,0.048876600005314685,0.10076319999643601,0.09869480000634212,0.7512554999993881
RSVPLG03,km,20251023-103104,1.0.1,20251023-100704,711,Experiment,Both,1,Automatic,main,86,20251023-103828,global,local,750,S,H,E,E,S-E.png,E-H.png,sS,hH,mask-1.png,mask-3.png,s,1,0.4460770000005141,h,1,0.7331353999907151,0.049868500005686656,0.04894550000608433,0.09973010000248905,0.09800650000397582,0.7488978000037605
RSVPLG03,km,20251023-103104,1.0.1,20251023-100704,711,Experiment,Both,1,Automatic,main,87,20251023-103834,local,global,300,S,S,E,A,E-S.png,S-A.png,sS,sS,mask-1.png,mask-1.png,s,1,0.20981829999072943,h,0,0.07970690001093317,0.048453700001118705,0.049697399997967295,0.09915679998812266,0.0994737000000896,0.29879950000031386
RSVPLG03,km,20251023-103104,1.0.1,20251023-100704,711,Experiment,Both,1,Automatic,main,88,20251023-103837,global,local,750,H,S,E,E,H-E.png,E-S.png,hH,sS,mask-1.png,mask-4.png,h,1,0.6370257999951718,s,1,0.07567730000300799,0.05017780000343919,0.0482899000053294,0.10056839999742806,0.09867570000642445,0.7501960999943549
RSVPLG03,km,20251023-103104,1.0.1,20251023-100704,711,Experiment,Both,1,Automatic,main,89,20251023-103842,local,global,300,S,H,E,E,E-S.png,H-E.png,sS,hH,mask-2.png,mask-2.png,s,1,0.3816447999997763,h,1,0.03260540000337642,0.049540000007255,0.05050760001176968,0.10016090000863187,0.10016610000457149,0.299382199998945
RSVPLG03,km,20251023-103104,1.0.1,20251023-100704,711,Experiment,Both,1,Automatic,main,90,20251023-103846,local,local,750,H,S,A,E,A-H.png,E-S.png,hH,sS,mask-3.png,mask-1.png,h,1,0.5197584999987157,s,1,0.6316565999877639,0.04969489999348298,0.04966370000329334,0.09952370000246447,0.10083070000109728,0.7493102000007639
RSVPLG03,km,20251023-103104,1.0.1,20251023-100704,711,Experiment,Both,1,Automatic,main,91,20251023-103851,global,global,300,H,H,A,E,H-A.png,H-E.png,hH,hH,mask-3.png,mask-1.png,h,1,0.3225267000088934,h,1,0.06199530001322273,0.048693799995817244,0.05055859999265522,0.09849359998770524,0.09981949999928474,0.29746349999913946
RSVPLG03,km,20251023-103104,1.0.1,20251023-100704,711,Experiment,Both,1,Automatic,main,92,20251023-103855,global,local,300,H,S,A,E,H-A.png,E-S.png,hH,sS,mask-2.png,mask-1.png,h,1,0.32078319998981897,s,1,0.31877919999533333,0.04938689999107737,0.0494133000029251,0.09823469999537338,0.09912700000859331,0.2992264999920735
RSVPLG03,km,20251023-103104,1.0.1,20251023-100704,711,Experiment,Both,1,Automatic,main,93,20251023-103900,local,local,750,H,S,E,E,E-H.png,E-S.png,hH,sS,mask-4.png,mask-2.png,h,1,2.336312800005544,h,0,0.046900400004233234,0.04882690000522416,0.049893899995367974,0.09972520000883378,0.09884890000103042,0.7502554000093369
RSVPLG03,km,20251023-103104,1.0.1,20251023-100704,711,Experiment,Both,1,Automatic,main,94,20251023-103906,local,local,750,S,H,A,A,A-S.png,A-H.png,sS,hH,mask-4.png,mask-2.png,h,0,0.37894549999327864,h,1,0.07804900000337511,0.04830880000372417,0.04860439999902155,0.09824330000265036,0.0982821000070544,0.7493451000045752
RSVPLG03,km,20251023-103104,1.0.1,20251023-100704,711,Experiment,Both,1,Automatic,main,95,20251023-103911,local,global,750,H,S,A,E,A-H.png,S-E.png,hH,sS,mask-3.png,mask-2.png,h,1,0.30054090000339784,s,1,0.42852919999859296,0.05058949999511242,0.04972270000143908,0.09828550000383984,0.09948620000795927,0.7496866000001319
RSVPLG03,km,20251023-103104,1.0.1,20251023-100704,711,Experiment,Both,1,Automatic,main,96,20251023-103915,global,global,300,S,H,E,E,S-E.png,H-E.png,sS,hH,mask-1.png,mask-4.png,s,1,1.34417399999802,h,1,1.4729071999900043,0.04963100000168197,0.049807700008386746,0.10029679999570362,0.10061800001130905,0.2987581999914255
RSVPLG03,km,20251023-103104,1.0.1,20251023-100704,711,Experiment,Both,1,Automatic,main,97,20251023-103920,local,global,750,S,H,A,E,A-S.png,H-E.png,sS,hH,mask-4.png,mask-1.png,s,1,1.9655861999926856,h,1,2.0452599999989616,0.049688699989928864,0.04969209998671431,0.0995245999947656,0.09948359998816159,0.7500938000011956
RSVPLG03,km,20251023-103104,1.0.1,20251023-100704,711,Experiment,Both,1,Automatic,main,98,20251023-103927,global,global,750,S,S,E,A,S-E.png,S-A.png,sS,sS,mask-2.png,mask-2.png,h,0,0.5871799000015017,s,1,0.0635069999989355,0.05022610000742134,0.0493813999928534,0.10033100000873674,0.09914249999565072,0.7508054000063566
RSVPLG03,km,20251023-103104,1.0.1,20251023-100704,711,Experiment,Both,1,Automatic,main,99,20251023-103931,local,local,750,S,S,E,A,E-S.png,A-S.png,sS,sS,mask-1.png,mask-4.png,h,0,0.5109712999983458,s,1,0.6385241999960272,0.05067830000189133,0.050396100006764755,0.09942530000989791,0.10061640001367778,0.7500379999983124
RSVPLG03,km,20251023-103104,1.0.1,20251023-100704,711,Experiment,Both,1,Automatic,main,100,20251023-103936,local,global,750,H,S,A,A,A-H.png,S-A.png,hH,sS,mask-3.png,mask-4.png,h,1,3.725071899985778,s,1,0.03110549999109935,0.049102599994512275,0.05126150000432972,0.10006040000007488,0.10008499999821652,0.748530099997879
RSVPLG03,km,20251023-103104,1.0.1,20251023-100704,711,Experiment,Both,1,Automatic,main,101,20251023-103946,local,global,300,H,S,A,A,A-H.png,S-A.png,hH,sS,mask-1.png,mask-4.png,h,1,1.89706629999273,s,1,0.36358190000464674,0.05043129999830853,0.04854170000180602,0.09957500000018626,0.10003510001115501,0.30070139998861123
RSVPLG03,km,20251023-103104,1.0.1,20251023-100704,711,Experiment,Both,1,Automatic,main,102,20251023-103952,local,global,300,S,H,E,A,E-S.png,H-A.png,sS,hH,mask-4.png,mask-4.png,s,1,0.5425221000041347,h,1,0.034236899999086745,0.048541099997237325,0.0500259999971604,0.09957010000653099,0.0984930999984499,0.30052180000348017
RSVPLG03,km,20251023-103104,1.0.1,20251023-100704,711,Experiment,Both,1,Automatic,main,103,20251023-103956,global,global,750,H,H,E,E,H-E.png,H-E.png,hH,hH,mask-3.png,mask-4.png,h,1,0.20544180000433698,h,1,0.04702790000010282,0.0485391999973217,0.050212899994221516,0.09942620000219904,0.10101299999223556,0.7480955000064569
RSVPLG03,km,20251023-103104,1.0.1,20251023-100704,711,Experiment,Both,1,Automatic,main,104,20251023-104001,global,local,750,H,S,A,A,H-A.png,A-S.png,hH,sS,mask-2.png,mask-2.png,h,1,0.2678711999906227,h,0,0.046083299996098503,0.049806399998487905,0.04957120001199655,0.09846740000648424,0.09926090000953991,0.7488991999998689
RSVPLG03,km,20251023-103104,1.0.1,20251023-100704,711,Experiment,Both,1,Automatic,main,105,20251023-104005,global,global,750,H,S,A,E,H-A.png,S-E.png,hH,sS,mask-2.png,mask-4.png,h,1,0.40379499999107793,s,1,0.12726750000729226,0.049467000004369766,0.0509751000063261,0.09896889999799896,0.10065090001444332,0.7469320999953197
RSVPLG03,km,20251023-103104,1.0.1,20251023-100704,711,Experiment,Both,1,Automatic,main,106,20251023-104010,global,local,750,H,H,A,E,H-A.png,E-H.png,hH,hH,mask-1.png,mask-3.png,h,1,0.4154927000054158,h,1,0.04415010000229813,0.04986260000441689,0.05048819999501575,0.09972339999512769,0.09987059999548364,0.7490084000019124
RSVPLG03,km,20251023-103104,1.0.1,20251023-100704,711,Experiment,Both,1,Automatic,main,107,20251023-104015,global,global,750,S,S,A,A,S-A.png,S-A.png,sS,sS,mask-1.png,mask-3.png,s,1,0.3877638999983901,s,1,0.09514499999932013,0.04988850001245737,0.04919489999883808,0.0994459000066854,0.10000930000387598,0.7501099000073737
RSVPLG03,km,20251023-103104,1.0.1,20251023-100704,711,Experiment,Both,1,Automatic,main,108,20251023-104019,local,local,300,H,S,E,E,E-H.png,E-S.png,hH,sS,mask-1.png,mask-4.png,s,0,0.7359107000083895,h,0,0.7999437000107719,0.04868059999716934,0.05030030000489205,0.10045440000249073,0.10008479999669362,0.29988249999587424
RSVPLG03,km,20251023-103104,1.0.1,20251023-100704,711,Experiment,Both,1,Automatic,main,109,20251023-104024,global,global,300,H,S,A,A,H-A.png,S-A.png,hH,sS,mask-4.png,mask-1.png,h,1,0.37306189999799244,s,1,0.4857415000005858,0.04971520000253804,0.04914709999866318,0.09956980000424664,0.09941199999593664,0.299929400003748
RSVPLG03,km,20251023-103104,1.0.1,20251023-100704,711,Experiment,Both,1,Automatic,main,110,20251023-104028,local,local,750,H,S,A,A,A-H.png,A-S.png,hH,sS,mask-3.png,mask-4.png,h,1,0.6398194999928819,h,0,0.07924690000072587,0.04966910000075586,0.04940370000258554,0.09919480000098702,0.10019900000770576,0.7496694000001298
RSVPLG03,km,20251023-103104,1.0.1,20251023-100704,711,Experiment,Both,1,Automatic,main,111,20251023-104032,local,local,300,H,S,A,E,A-H.png,E-S.png,hH,sS,mask-2.png,mask-4.png,h,1,0.36048220000520814,s,1,0.5046405000030063,0.04950740000640508,0.0509777999977814,0.09846059999836143,0.09976660000393167,0.29838829999789596
RSVPLG03,km,20251023-103104,1.0.1,20251023-100704,711,Experiment,Both,1,Automatic,main,112,20251023-104036,global,global,300,H,S,A,E,H-A.png,S-E.png,hH,sS,mask-4.png,mask-2.png,h,1,0.3248738999973284,s,1,0.43685670000559185,0.04994200001237914,0.05035830000997521,0.09996430001046974,0.1004599000007147,0.29953329999989364
RSVPLG03,km,20251023-103104,1.0.1,20251023-100704,711,Experiment,Both,1,Automatic,main,113,20251023-104041,global,local,750,H,H,E,A,H-E.png,A-H.png,hH,hH,mask-4.png,mask-1.png,h,1,0.22750409999571275,h,1,0.05947379999270197,0.050710800001979806,0.049569899987545796,0.10050349999801256,0.1002087999950163,0.7490895000082674
RSVPLG03,km,20251023-103104,1.0.1,20251023-100704,711,Experiment,Both,1,Automatic,main,114,20251023-104045,local,local,300,S,S,A,E,A-S.png,E-S.png,sS,sS,mask-1.png,mask-4.png,h,0,0.4334355000028154,s,1,0.5452960000111489,0.04785040000570007,0.048957499995594844,0.09816940000746399,0.09923160000471398,0.29917260000365786
RSVPLG03,km,20251023-103104,1.0.1,20251023-100704,711,Experiment,Both,1,Automatic,main,115,20251023-104049,local,local,750,S,H,E,E,E-S.png,E-H.png,sS,hH,mask-3.png,mask-4.png,h,0,0.255046799997217,h,1,0.7972874999977648,0.049336000010953285,0.05082170000241604,0.10093749999941792,0.09937650000210851,0.7493816000060178
RSVPLG03,km,20251023-103104,1.0.1,20251023-100704,711,Experiment,Both,1,Automatic,main,116,20251023-104054,global,local,300,H,S,E,E,H-E.png,E-S.png,hH,sS,mask-2.png,mask-4.png,h,1,0.1995768000051612,s,1,0.014559000002918765,0.05038270000659395,0.049747700002626516,0.10114230000181124,0.09951630000432488,0.2995507000014186
RSVPLG03,km,20251023-103104,1.0.1,20251023-100704,711,Experiment,Both,1,Automatic,main,117,20251023-104058,global,global,750,H,H,A,E,H-A.png,H-E.png,hH,hH,mask-2.png,mask-4.png,h,1,0.07430990001012105,h,1,0.061419799996656366,0.05071720000705682,0.047870100010186434,0.09957809999468736,0.09788110000954475,0.7514959999971325
RSVPLG03,km,20251023-103104,1.0.1,20251023-100704,711,Experiment,Both,1,Automatic,main,118,20251023-104102,global,local,750,S,H,E,E,S-E.png,E-H.png,sS,hH,mask-3.png,mask-3.png,s,1,0.5494969999999739,s,0,0.06310209998628125,0.05083770000783261,0.04879420000361279,0.09986610000487417,0.09978030000638682,0.749850799998967
RSVPLG03,km,20251023-103104,1.0.1,20251023-100704,711,Experiment,Both,1,Automatic,main,119,20251023-104107,global,local,750,H,S,E,E,H-E.png,E-S.png,hH,sS,mask-3.png,mask-3.png,s,0,0.3332620000001043,s,1,0.06351269999868236,0.0505700999929104,0.050907999990158714,0.09903879999183118,0.10077939998882357,0.7488918000017293
RSVPLG03,km,20251023-103104,1.0.1,20251023-100704,711,Experiment,Both,1,Automatic,main,120,20251023-104112,local,local,300,H,S,A,E,A-H.png,E-S.png,hH,sS,mask-1.png,mask-1.png,h,1,0.3426082000078168,s,1,0.012331600009929389,0.04937470000004396,0.05033779999939725,0.0988496999925701,0.10030559998995159,0.29919520000112243
RSVPLG03,km,20251023-103104,1.0.1,20251023-100704,711,Experiment,Both,1,Automatic,main,121,20251023-104116,global,local,300,H,S,A,A,H-A.png,A-S.png,hH,sS,mask-1.png,mask-1.png,h,1,0.19570560001011472,s,1,0.028808800008846447,0.051727300000493415,0.050546300000860356,0.10147380000853445,0.10120040000765584,0.2999383999995189
RSVPLG03,km,20251023-103104,1.0.1,20251023-100704,711,Experiment,Both,1,Automatic,main,122,20251023-104120,local,local,750,S,H,A,A,A-S.png,A-H.png,sS,hH,mask-4.png,mask-1.png,s,1,0.3326564999879338,h,1,0.4606344999920111,0.05050319999281783,0.04967259999830276,0.10030180000467226,0.09947180000017397,0.7504388999950606
RSVPLG03,km,20251023-103104,1.0.1,20251023-100704,711,Experiment,Both,1,Automatic,main,123,20251023-104124,global,global,750,S,S,E,A,S-E.png,S-A.png,sS,sS,mask-4.png,mask-1.png,s,1,0.2910369000019273,s,1,0.04354029998648912,0.05012630000419449,0.051887099994928576,0.10015660000499338,0.1018296999973245,0.7480570000043372
RSVPLG03,km,20251023-103104,1.0.1,20251023-100704,711,Experiment,Both,1,Automatic,main,124,20251023-104129,global,local,750,S,H,A,E,S-A.png,E-H.png,sS,hH,mask-3.png,mask-4.png,s,1,0.4890412999957334,h,1,0.6170244999957504,0.049010200003976934,0.0493168999964837,0.09918970000580885,0.10011719999602064,0.7498134000052232
RSVPLG03,km,20251023-103104,1.0.1,20251023-100704,711,Experiment,Both,1,Automatic,main,125,20251023-104134,global,local,300,S,H,E,E,S-E.png,E-H.png,sS,hH,mask-1.png,mask-1.png,s,1,0.4810631000000285,s,0,0.04597479999938514,0.0506009999953676,0.050592400002642535,0.10030239999468904,0.10025660000974312,0.2998759999900358
RSVPLG03,km,20251023-104207,1.0.1,20251023-100704,711,Experiment,Both,1,Automatic,warmup,1,20251023-104223,global,local,300,H,H,A,E,H-A.png,E-H.png,hH,hH,mask-1.png,mask-1.png,h,1,0.5555367000051774,s,0,0.6352861000050325,0.039830900001106784,0.04934769999817945,0.08992440000292845,0.09960019998834468,0.29041710001183674
RSVPLG03,km,20251023-104207,1.0.1,20251023-100704,711,Experiment,Both,1,Automatic,warmup,2,20251023-104227,global,global,750,S,H,E,A,S-E.png,H-A.png,sS,hH,mask-1.png,mask-1.png,s,1,0.1428388000058476,h,1,0.30273250000027474,0.05068889999529347,0.04941339998913463,0.10087239999847952,0.09996049999608658,0.7508137999975588
RSVPLG03,km,20251023-104207,1.0.1,20251023-100704,711,Experiment,Both,1,Automatic,warmup,3,20251023-104232,local,local,750,H,H,E,A,E-H.png,A-H.png,hH,hH,mask-4.png,mask-3.png,h,1,0.3282848999951966,h,1,0.0939351999986684,0.049363199999788776,0.051462600007653236,0.09917770000174642,0.10141709999879822,0.7488433999969857
RSVPLG03,km,20251023-104207,1.0.1,20251023-100704,711,Experiment,Both,1,Automatic,warmup,4,20251023-104236,local,global,300,H,H,A,A,A-H.png,H-A.png,hH,hH,mask-1.png,mask-1.png,h,1,0.2933710999932373,s,0,0.3896470000036061,0.04868880000140052,0.048342699999921024,0.10057460000098217,0.09921850000682753,0.300279999995837
RSVPLG03,km,20251023-104207,1.0.1,20251023-100704,711,Experiment,Both,1,Automatic,warmup,5,20251023-104240,local,local,300,H,H,A,E,A-H.png,E-H.png,hH,hH,mask-4.png,mask-3.png,h,1,0.4804883999895537,h,1,0.07686220000323374,0.049772099999245256,0.05008230000385083,0.09884540000348352,0.10108430001127999,0.298364499991294
RSVPLG03,km,20251023-104207,1.0.1,20251023-100704,711,Experiment,Both,1,Automatic,main,6,20251023-104244,global,local,300,S,S,A,E,S-A.png,E-S.png,sS,sS,mask-4.png,mask-4.png,h,0,22.669643700006418,h,0,2.191861200000858,0.0484883000026457,0.049927599990041927,0.09910940000554547,0.10067010000057053,0.2983262000052491
RSVPLG03,km,20251023-104207,1.0.1,20251023-100704,711,Experiment,Both,1,Automatic,main,7,20251023-104313,global,local,300,H,S,A,A,H-A.png,A-S.png,hH,sS,mask-1.png,mask-3.png,h,1,0.34679869998944923,s,1,0.0937971999956062,0.049530799995409325,0.051226499999756925,0.09954500000458211,0.10011849999136757,0.29918040000484325
RSVPLG03,km,20251023-104207,1.0.1,20251023-100704,711,Experiment,Both,1,Automatic,main,8,20251023-104317,global,local,300,S,H,A,A,S-A.png,A-H.png,sS,hH,mask-2.png,mask-4.png,h,0,1.1732749999937369,s,0,0.045175799998105504,0.050391400000080466,0.050094000005628914,0.10044319998996798,0.10087700000440236,0.29888789998949505
RSVPLG03,km,20251023-104207,1.0.1,20251023-100704,711,Experiment,Both,1,Automatic,main,9,20251023-104322,global,local,300,S,H,E,A,S-E.png,A-H.png,sS,hH,mask-4.png,mask-2.png,s,1,0.5341890000127023,h,1,0.02776810000068508,0.05058979999739677,0.049653699999907985,0.1003878000046825,0.1004090000060387,0.30015090000233613
RSVPLG03,km,20251023-104207,1.0.1,20251023-100704,711,Experiment,Both,1,Automatic,main,10,20251023-104326,local,local,750,S,S,A,E,A-S.png,E-S.png,sS,sS,mask-1.png,mask-1.png,s,1,1.6284051999973599,h,0,0.0775114999996731,0.0486393000028329,0.049910300003830343,0.1003233000083128,0.10073099999863189,0.7503583000070648
RSVPLG03,km,20251023-104207,1.0.1,20251023-100704,711,Experiment,Both,1,Automatic,main,11,20251023-104332,global,local,300,H,H,E,E,H-E.png,E-H.png,hH,hH,mask-3.png,mask-4.png,s,0,0.42408560001058504,h,1,1.1304070000041975,0.04889559998991899,0.04867699999886099,0.09891039998910856,0.09861909999744967,0.2996595000004163
RSVPLG03,km,20251023-104207,1.0.1,20251023-100704,711,Experiment,Both,1,Automatic,main,12,20251023-104338,local,global,300,H,H,A,A,A-H.png,H-A.png,hH,hH,mask-1.png,mask-3.png,h,1,0.8929629000049317,h,1,0.0776596000068821,0.050343499999144115,0.051156100002117455,0.09868730000744108,0.10076709999702871,0.29955840000184253
RSVPLG03,km,20251023-104207,1.0.1,20251023-100704,711,Experiment,Both,1,Automatic,main,13,20251023-104342,local,global,750,H,S,E,E,E-H.png,S-E.png,hH,sS,mask-3.png,mask-4.png,h,1,0.378529299996444,s,1,0.09339040001214016,0.04969559999881312,0.04817239999829326,0.10049979999894276,0.09990719999768771,0.7507746999908704
RSVPLG03,km,20251023-104207,1.0.1,20251023-100704,711,Experiment,Both,1,Automatic,main,14,20251023-104347,global,local,300,H,S,A,A,H-A.png,A-S.png,hH,sS,mask-4.png,mask-1.png,h,1,0.1899523999891244,s,1,0.09339449999970384,0.04952960000082385,0.04962849999719765,0.09964949999994133,0.09998579999955837,0.29946989999734797
RSVPLG03,km,20251023-104207,1.0.1,20251023-100704,711,Experiment,Both,1,Automatic,main,15,20251023-104351,local,local,750,S,H,E,A,E-S.png,A-H.png,sS,hH,mask-4.png,mask-3.png,s,1,0.45915169999352656,h,1,0.01181429999996908,0.04981409999891184,0.049803300003986806,0.09979170000588056,0.09746540000196546,0.7501491000002716
RSVPLG03,km,20251023-104207,1.0.1,20251023-100704,711,Experiment,Both,1,Automatic,main,16,20251023-104356,local,global,750,H,S,E,A,E-H.png,S-A.png,hH,sS,mask-4.png,mask-1.png,s,0,0.3236231000046246,s,1,0.10851939998974558,0.049734699990949593,0.04855329998827074,0.10014209999644663,0.09861449999152683,0.7509897999989334
RSVPLG03,km,20251023-104207,1.0.1,20251023-100704,711,Experiment,Both,1,Automatic,main,17,20251023-104400,global,global,300,H,H,A,E,H-A.png,H-E.png,hH,hH,mask-3.png,mask-1.png,h,1,1.4393606999947224,s,0,0.045789000010699965,0.04857590000028722,0.04957329999888316,0.10029650000797119,0.10028759999840986,0.30007740001019556
RSVPLG03,km,20251023-104207,1.0.1,20251023-100704,711,Experiment,Both,1,Automatic,main,18,20251023-104406,local,local,750,H,S,E,E,E-H.png,E-S.png,hH,sS,mask-4.png,mask-2.png,h,1,0.5113369000027888,h,0,0.07650120000471361,0.050977599996258505,0.04993139998987317,0.10012790000473615,0.09864959999686107,0.750963700003922
RSVPLG03,km,20251023-104207,1.0.1,20251023-100704,711,Experiment,Both,1,Automatic,main,19,20251023-104410,global,local,750,H,S,A,E,H-A.png,E-S.png,hH,sS,mask-1.png,mask-4.png,h,1,0.5015858999977354,h,0,0.09395040001254529,0.04753110000456218,0.04781639999418985,0.09764740000537131,0.09789370000362396,0.7500330000038957
RSVPLG03,km,20251023-104207,1.0.1,20251023-100704,711,Experiment,Both,1,Automatic,main,20,20251023-104415,local,global,750,S,H,E,A,E-S.png,H-A.png,sS,hH,mask-2.png,mask-4.png,s,1,1.3304978999949526,h,1,0.029331800004001707,0.0516561999975238,0.04871560000174213,0.10160149999137502,0.09867780000786297,0.7515197999891825
RSVPLG03,km,20251023-104207,1.0.1,20251023-100704,711,Experiment,Both,1,Automatic,main,21,20251023-104420,local,global,300,H,H,A,A,A-H.png,H-A.png,hH,hH,mask-4.png,mask-2.png,h,1,0.2826861000066856,h,1,0.09545520000392571,0.04876819999481086,0.04837550000229385,0.0997477000055369,0.09875479999755044,0.300782899998012
RSVPLG03,km,20251023-104207,1.0.1,20251023-100704,711,Experiment,Both,1,Automatic,main,22,20251023-104424,local,local,300,S,H,E,E,E-S.png,E-H.png,sS,hH,mask-2.png,mask-2.png,s,1,0.3842391000071075,h,1,0.6535658000066178,0.05064400000264868,0.0518142000073567,0.10003729999880306,0.10130870000284631,0.30000980000477284
RSVPLG03,km,20251023-104207,1.0.1,20251023-100704,711,Experiment,Both,1,Automatic,main,23,20251023-104429,global,local,300,S,H,E,A,S-E.png,A-H.png,sS,hH,mask-4.png,mask-2.png,s,1,0.32526210001378786,s,0,0.2711213000002317,0.048016699991421774,0.04993179999291897,0.09866419999161735,0.09858730000269134,0.2998163000011118
RSVPLG03,km,20251023-104207,1.0.1,20251023-100704,711,Experiment,Both,1,Automatic,main,24,20251023-104433,global,global,300,S,H,E,E,S-E.png,H-E.png,sS,hH,mask-2.png,mask-3.png,s,1,0.18064799999410752,h,1,0.5414191000018036,0.0487862000009045,0.049694300003466196,0.09863269999914337,0.09837430001061875,0.30010709998896345
RSVPLG03,km,20251023-104207,1.0.1,20251023-100704,711,Experiment,Both,1,Automatic,main,25,20251023-104438,local,global,750,H,H,A,A,A-H.png,H-A.png,hH,hH,mask-3.png,mask-3.png,h,1,0.31653879999066703,h,1,0.08089060000202153,0.049956899994867854,0.048686699999962,0.10064390000479762,0.09949419999611564,0.750912999996217
RSVPLG03,km,20251023-104207,1.0.1,20251023-100704,711,Experiment,Both,1,Automatic,main,26,20251023-104446,global,global,300,H,H,A,A,H-A.png,H-A.png,hH,hH,mask-2.png,mask-4.png,s,0,0.6394249000004493,h,1,0.7354178999958094,0.04988710000179708,0.05052370000339579,0.10078300000168383,0.1011177000036696,0.29817999999795575
RSVPLG03,km,20251023-104207,1.0.1,20251023-100704,711,Experiment,Both,1,Automatic,main,27,20251023-104450,global,global,300,S,S,A,A,S-A.png,S-A.png,sS,sS,mask-2.png,mask-4.png,s,1,0.21166580000135582,s,1,0.0777376999903936,0.0489672999974573,0.051030100003117695,0.0989629999967292,0.10072619999118615,0.2977180000016233
RSVPLG03,km,20251023-104207,1.0.1,20251023-100704,711,Experiment,Both,1,Automatic,main,28,20251023-104454,local,global,300,H,H,A,E,A-H.png,H-E.png,hH,hH,mask-2.png,mask-3.png,h,1,0.19054700000560842,h,1,0.11026629999105353,0.049847200003569014,0.049787099997047335,0.10064010000496637,0.09966190000704955,0.2998128000035649
RSVPLG03,km,20251023-104207,1.0.1,20251023-100704,711,Experiment,Both,1,Automatic,main,29,20251023-104458,global,global,750,S,H,E,A,S-E.png,H-A.png,sS,hH,mask-2.png,mask-4.png,s,1,0.32157790000201203,h,1,0.031786099993041717,0.051204400006099604,0.04866970000148285,0.09949900000356138,0.0995031999918865,0.7506904000038048
RSVPLG03,km,20251023-104207,1.0.1,20251023-100704,711,Experiment,Both,1,Automatic,main,30,20251023-104503,global,local,750,H,H,A,E,H-A.png,E-H.png,hH,hH,mask-3.png,mask-1.png,h,1,0.09105750000162516,h,1,0.09064980001130607,0.04862940000020899,0.04991359999985434,0.09973510001145769,0.10000669999863021,0.7499246000079438
RSVPLG03,km,20251023-104207,1.0.1,20251023-100704,711,Experiment,Both,1,Automatic,main,31,20251023-104507,local,global,750,H,S,A,E,A-H.png,S-E.png,hH,sS,mask-1.png,mask-2.png,h,1,0.26806469999428373,s,1,0.03222090000053868,0.04988769999181386,0.0499714000034146,0.10166339999705087,0.09906459999911021,0.7515410999913001
RSVPLG03,km,20251023-104207,1.0.1,20251023-100704,711,Experiment,Both,1,Automatic,main,32,20251023-104511,local,global,300,H,H,A,E,A-H.png,H-E.png,hH,hH,mask-4.png,mask-1.png,s,0,0.4220501000090735,h,1,0.5662507000088226,0.05050159999518655,0.05049660000076983,0.10011659999145195,0.10014059999957681,0.3001748999959091
RSVPLG03,km,20251023-104207,1.0.1,20251023-100704,711,Experiment,Both,1,Automatic,main,33,20251023-104515,global,global,750,S,S,E,A,S-E.png,S-A.png,sS,sS,mask-4.png,mask-4.png,s,1,0.388108299986925,s,1,0.06167270000150893,0.04931820000638254,0.04857080000510905,0.09866420000616927,0.0975588000001153,0.7505409000004875
RSVPLG03,km,20251023-104207,1.0.1,20251023-100704,711,Experiment,Both,1,Automatic,main,34,20251023-104520,global,local,750,S,H,A,A,S-A.png,A-H.png,sS,hH,mask-3.png,mask-3.png,s,1,0.11378390000027139,h,1,0.07933130000310484,0.04931600000418257,0.050266299993381836,0.10087789999670349,0.10059190000174567,0.7492229000054067
RSVPLG03,km,20251023-104207,1.0.1,20251023-100704,711,Experiment,Both,1,Automatic,main,35,20251023-104524,global,local,750,H,H,A,A,H-A.png,A-H.png,hH,hH,mask-2.png,mask-4.png,h,1,0.9964050999988103,s,0,0.016502500002388842,0.050673099991399795,0.04872330000216607,0.10119029998895712,0.10028610000154004,0.7517191999941133
RSVPLG03,km,20251023-104207,1.0.1,20251023-100704,711,Experiment,Both,1,Automatic,main,36,20251023-104529,local,global,750,S,H,E,A,E-S.png,H-A.png,sS,hH,mask-3.png,mask-4.png,h,0,0.35296990000642836,h,1,0.06560529999842402,0.05082910000055563,0.049537300001247786,0.1004259000037564,0.09988209999573883,0.7504691000067396
RSVPLG03,km,20251023-104207,1.0.1,20251023-100704,711,Experiment,Both,1,Automatic,main,37,20251023-104534,global,global,300,S,S,A,A,S-A.png,S-A.png,sS,sS,mask-2.png,mask-4.png,s,1,0.43783220001205336,s,1,0.06570869999995921,0.049315199998090975,0.049888399997144006,0.09954260000085924,0.09897069999715313,0.3002409000037005
RSVPLG03,km,20251023-104207,1.0.1,20251023-100704,711,Experiment,Both,1,Automatic,main,38,20251023-104538,local,local,750,S,S,E,E,E-S.png,E-S.png,sS,sS,mask-4.png,mask-3.png,h,0,4.4021052999887615,s,1,4.514188799992553,0.04920500000298489,0.049530699994647875,0.10067309999431018,0.09820110000146087,0.7517723000055412
RSVPLG03,km,20251023-104207,1.0.1,20251023-100704,711,Experiment,Both,1,Automatic,main,39,20251023-104547,local,local,300,S,H,E,E,E-S.png,E-H.png,sS,hH,mask-1.png,mask-2.png,s,1,0.2235495000059018,h,1,0.12499149999348447,0.05166919999464881,0.05032320000464097,0.10139409999828786,0.0998946000036085,0.30071379999571946
RSVPLG03,km,20251023-104207,1.0.1,20251023-100704,711,Experiment,Both,1,Automatic,main,40,20251023-104551,local,global,750,S,H,E,E,E-S.png,H-E.png,sS,hH,mask-3.png,mask-4.png,s,1,0.3113346000027377,h,1,0.43935220000275876,0.04948230000445619,0.049200200010091066,0.10071189999871422,0.09998710000945721,0.7505536999960896
RSVPLG03,km,20251023-104207,1.0.1,20251023-100704,711,Experiment,Both,1,Automatic,main,41,20251023-104555,global,local,750,S,H,A,A,S-A.png,A-H.png,sS,hH,mask-2.png,mask-4.png,h,0,0.3321857000119053,h,1,0.09550160000799224,0.04978309999569319,0.04831919999560341,0.09951000000000931,0.09914879999996629,0.7509271000017179
RSVPLG03,km,20251023-104207,1.0.1,20251023-100704,711,Experiment,Both,1,Automatic,main,42,20251023-104600,local,global,750,S,S,A,A,A-S.png,S-A.png,sS,sS,mask-3.png,mask-1.png,h,0,0.23481349999201484,s,1,0.33074399999168236,0.050645700001041405,0.04821560000709724,0.10017469999729656,0.09866980000515468,0.7512493999965955
RSVPLG03,km,20251023-104207,1.0.1,20251023-100704,711,Experiment,Both,1,Automatic,main,43,20251023-104604,local,local,750,H,H,A,E,A-H.png,E-H.png,hH,hH,mask-1.png,mask-1.png,h,1,0.3717522000079043,h,1,0.076388900008169,0.050007300000288524,0.048812199995154515,0.10026789999392349,0.0981958000047598,0.7514200000005076
RSVPLG03,km,20251023-104207,1.0.1,20251023-100704,711,Experiment,Both,1,Automatic,main,44,20251023-104609,global,local,300,H,S,A,A,H-A.png,A-S.png,hH,sS,mask-1.png,mask-3.png,h,1,0.39917859999695793,s,1,0.0324075999960769,0.04976680000254419,0.051335299998754635,0.09877250000135973,0.10039969999343157,0.2982094000035431
RSVPLG03,km,20251023-104207,1.0.1,20251023-100704,711,Experiment,Both,1,Automatic,main,45,20251023-104613,local,global,300,H,H,A,E,A-H.png,H-E.png,hH,hH,mask-4.png,mask-4.png,h,1,0.36997680000786204,h,1,0.09376139999949373,0.05124760000035167,0.04753359999449458,0.10072800000489224,0.0985830999998143,0.30211940000299364
RSVPLG03,km,20251023-104207,1.0.1,20251023-100704,711,Experiment,Both,1,Automatic,main,46,20251023-104617,local,local,750,S,S,E,E,E-S.png,E-S.png,sS,sS,mask-1.png,mask-3.png,h,0,0.4039913000015076,s,1,0.0460698999959277,0.048440099999425,0.050762499988195486,0.09990849999303464,0.09959559999697376,0.749371500001871
RSVPLG03,km,20251023-104207,1.0.1,20251023-100704,711,Experiment,Both,1,Automatic,main,47,20251023-104621,local,global,300,H,H,E,A,E-H.png,H-A.png,hH,hH,mask-1.png,mask-2.png,h,1,0.322029000002658,h,1,0.0777764000085881,0.05068280000705272,0.04868249999708496,0.10152080000261776,0.09776140000030864,0.30130920000374317
RSVPLG03,km,20251023-104207,1.0.1,20251023-100704,711,Experiment,Both,1,Automatic,main,48,20251023-104625,local,global,750,H,S,A,A,A-H.png,S-A.png,hH,sS,mask-3.png,mask-4.png,h,1,0.35699270000623073,s,1,0.4529352999961702,0.05167570000048727,0.050384000001940876,0.10050510001019575,0.09979009999369737,0.7498924000101397
RSVPLG03,km,20251023-104207,1.0.1,20251023-100704,711,Experiment,Both,1,Automatic,main,49,20251023-104630,local,local,750,H,S,E,A,E-H.png,A-S.png,hH,sS,mask-3.png,mask-3.png,h,1,0.38846960000228137,h,0,0.04726690000097733,0.05076980000012554,0.0486049000028288,0.10066870000446215,0.0989218000031542,0.7506192000000738
RSVPLG03,km,20251023-104207,1.0.1,20251023-100704,711,Experiment,Both,1,Automatic,main,50,20251023-104634,global,local,300,S,H,A,E,S-A.png,E-H.png,sS,hH,mask-1.png,mask-3.png,s,1,0.31660599999304395,s,0,0.06388760000118054,0.049191500002052635,0.04950829999870621,0.09988819999853149,0.10033509999630041,0.3000521000067238
RSVPLG03,km,20251023-104207,1.0.1,20251023-100704,711,Experiment,Both,1,Automatic,main,51,20251023-104639,local,local,300,S,H,A,E,A-S.png,E-H.png,sS,hH,mask-1.png,mask-3.png,s,1,0.3249058000074001,s,0,0.06353020000096876,0.04916199999570381,0.04996079999546055,0.09954260000085924,0.09999469999456778,0.29951230000006035
RSVPLG03,km,20251023-104207,1.0.1,20251023-100704,711,Experiment,Both,1,Automatic,main,52,20251023-104644,local,local,750,H,H,A,E,A-H.png,E-H.png,hH,hH,mask-4.png,mask-4.png,h,1,0.2029902999929618,h,1,0.07758639998792205,0.05065190000459552,0.05051149999781046,0.10200840000470635,0.0995997999998508,0.7506389000045601
RSVPLG03,km,20251023-104207,1.0.1,20251023-100704,711,Experiment,Both,1,Automatic,main,53,20251023-104648,global,global,750,H,H,A,E,H-A.png,H-E.png,hH,hH,mask-1.png,mask-2.png,h,1,0.23640559999330435,h,1,0.09917349999886937,0.049647099993308075,0.04898140000295825,0.1004700000048615,0.09966059999715071,0.7497996000020066
RSVPLG03,km,20251023-104207,1.0.1,20251023-100704,711,Experiment,Both,1,Automatic,main,54,20251023-104652,global,global,300,H,S,A,A,H-A.png,S-A.png,hH,sS,mask-2.png,mask-1.png,h,1,0.38451800000621006,s,1,0.6225409999897238,0.04976320000423584,0.05117749999044463,0.10067300000810064,0.10053759999573231,0.29860420001205057
RSVPLG03,km,20251023-104207,1.0.1,20251023-100704,711,Experiment,Both,1,Automatic,main,55,20251023-104657,local,local,300,S,H,E,A,E-S.png,A-H.png,sS,hH,mask-2.png,mask-4.png,s,1,0.4703693000046769,h,1,0.06259589998808224,0.05171349999727681,0.04844890000822488,0.1015759000001708,0.09927820001030341,0.3017540000000736
RSVPLG03,km,20251023-104207,1.0.1,20251023-100704,711,Experiment,Both,1,Automatic,main,56,20251023-104701,global,local,300,H,H,A,A,H-A.png,A-H.png,hH,hH,mask-4.png,mask-2.png,h,1,0.18055530000128783,h,1,0.09321779999299906,0.04980440001236275,0.05164580000564456,0.09867510000185575,0.10018020001007244,0.297886300002574
RSVPLG03,km,20251023-104207,1.0.1,20251023-100704,711,Experiment,Both,1,Automatic,main,57,20251023-104705,global,global,750,S,S,A,A,S-A.png,S-A.png,sS,sS,mask-1.png,mask-3.png,h,0,0.3927384999988135,s,1,0.04767620000347961,0.048884899995755404,0.04954849999921862,0.0997806999948807,0.10024949999933597,0.7490030000044499
RSVPLG03,km,20251023-104207,1.0.1,20251023-100704,711,Experiment,Both,1,Automatic,main,58,20251023-104710,global,local,750,S,S,A,E,S-A.png,E-S.png,sS,sS,mask-2.png,mask-3.png,s,1,0.3618205999955535,s,1,0.06311449999338947,0.04983549998723902,0.05087920000369195,0.09875819999433588,0.09988560000783764,0.7484562999889022
RSVPLG03,km,20251023-104207,1.0.1,20251023-100704,711,Experiment,Both,1,Automatic,main,59,20251023-104715,global,global,300,S,S,A,A,S-A.png,S-A.png,sS,sS,mask-1.png,mask-2.png,s,1,0.3365631000051508,s,1,0.46018589999584947,0.04837320001388434,0.05035160000261385,0.09987490001367405,0.09989060000225436,0.29831740001100115
RSVPLG03,km,20251023-104207,1.0.1,20251023-100704,711,Experiment,Both,1,Automatic,main,60,20251023-104719,local,global,750,S,S,A,E,A-S.png,S-E.png,sS,sS,mask-4.png,mask-2.png,s,1,0.977761800008011,h,0,1.0897747999988496,0.050302499992540106,0.04970509999839123,0.10034150000137743,0.10056500000064261,0.7506817999965278
