exp,exp_initials,runtime,ver,modtime,sub,blocktype,targets,cuetype,mode,trialtype,trial,trialtime,t1_level,t2_level,t2_lag,t1,t2,distractor1,distractor2,stimfile1,stimfile2,t1_corr,t2_corr,maskfile1,maskfile2,t1_resp,t1_acc,t1_rt,t2_resp,t2_acc,t2_rt,t1_dur,t2_dur,t1mask_soa,t2mask_soa,t1t2_soa
RSVPLG03,km,20260226-171415,1.0.2,20251113-095759,780,Introduction,T1,1,Automatic,main,1,20260226-171450,global,local,750,H,S,E,A,H-E.png,A-S.png,hH,sS,mask-2.png,mask-4.png,h,1,12.662852799985558,none,-5,0,0.09249429986812174,0.10034499992616475,0.19263329985551536,0.19868519995361567,0.7410707999952137
RSVPLG03,km,20260226-171415,1.0.2,20251113-095759,780,Introduction,T1,1,Automatic,main,2,20260226-171507,local,global,750,S,H,A,A,A-S.png,H-A.png,sS,hH,mask-2.png,mask-2.png,s,1,2.4143970999866724,none,-5,0,0.09919039998203516,0.09910110011696815,0.19733350002206862,0.19908359996043146,0.7478155000135303
RSVPLG03,km,20260226-171415,1.0.2,20251113-095759,780,Introduction,T1,1,Automatic,main,3,20260226-171513,local,local,750,H,S,E,A,E-H.png,A-S.png,hH,sS,mask-3.png,mask-1.png,h,1,1.7020818998571485,none,-5,0,0.0988499999511987,0.09978109993971884,0.1994227000977844,0.19899890013039112,0.7480681999586523
RSVPLG03,km,20260226-171415,1.0.2,20251113-095759,780,Introduction,T1,1,Automatic,main,4,20260226-171519,local,global,750,S,S,E,A,E-S.png,S-A.png,sS,sS,mask-3.png,mask-2.png,s,1,2.2737356999423355,none,-5,0,0.09886089991778135,0.1018080001231283,0.20053189992904663,0.20165370008908212,0.7464759999420494
RSVPLG03,km,20260226-171415,1.0.2,20251113-095759,780,Introduction,T1,1,Automatic,main,5,20260226-171526,local,global,750,H,S,E,A,E-H.png,S-A.png,hH,sS,mask-1.png,mask-4.png,h,1,1.4048590001184493,none,-5,0,0.09994590003043413,0.10140449996106327,0.19919110019691288,0.19943170016631484,0.7476790000218898
RSVPLG03,km,20260226-171415,1.0.2,20251113-095759,780,Introduction,T1,1,Automatic,main,6,20260226-171531,global,local,750,S,S,A,E,S-A.png,E-S.png,sS,sS,mask-2.png,mask-3.png,s,1,1.6256669000722468,none,-5,0,0.09973230003379285,0.0999015998095274,0.19856419996358454,0.20008599990978837,0.7469051000662148
RSVPLG03,km,20260226-171415,1.0.2,20251113-095759,780,Introduction,T1,1,Automatic,main,7,20260226-171537,global,local,750,S,S,A,A,S-A.png,A-S.png,sS,sS,mask-3.png,mask-3.png,none,-6,0,none,-5,0,0.0997291998937726,0.09964410006068647,0.19863069988787174,0.19981590006500483,0.7482878000009805
RSVPLG03,km,20260226-171556,1.0.2,20251113-095759,780,Practice,T1,1,Automatic,main,1,20260226-171618,local,local,300,H,S,E,E,E-H.png,E-S.png,hH,sS,mask-3.png,mask-3.png,h,1,1.7910146000795066,none,-5,0,0.04020580020733178,0.050320500042289495,0.09045640006661415,0.10180169995874166,0.2912085000425577
RSVPLG03,km,20260226-171556,1.0.2,20251113-095759,780,Practice,T1,1,Automatic,main,2,20260226-171624,local,global,750,H,S,A,E,A-H.png,S-E.png,hH,sS,mask-4.png,mask-3.png,h,1,1.838301399955526,none,-5,0,0.048938299994915724,0.05124840000644326,0.09947749995626509,0.0988215000834316,0.7516077000182122
RSVPLG03,km,20260226-171556,1.0.2,20251113-095759,780,Practice,T1,1,Automatic,main,3,20260226-171630,global,local,300,S,H,A,A,S-A.png,A-H.png,sS,hH,mask-1.png,mask-4.png,s,1,2.598763900110498,none,-5,0,0.0509807001799345,0.04953030007891357,0.09946510009467602,0.10088120005093515,0.30078570009209216
RSVPLG03,km,20260226-171556,1.0.2,20251113-095759,780,Practice,T1,1,Automatic,main,4,20260226-171636,local,local,750,S,H,E,E,E-S.png,E-H.png,sS,hH,mask-1.png,mask-3.png,s,1,1.3021552001591772,none,-5,0,0.04879169980995357,0.0506593999452889,0.09985449980013072,0.10065079992637038,0.7517198999412358
RSVPLG03,km,20260226-171556,1.0.2,20251113-095759,780,Practice,T1,1,Automatic,main,5,20260226-171641,global,global,300,H,H,E,E,H-E.png,H-E.png,hH,hH,mask-2.png,mask-4.png,h,1,1.2076860000379384,none,-5,0,0.049684000201523304,0.05031089996919036,0.09918590006418526,0.10177099984139204,0.29954510019160807
RSVPLG03,km,20260226-171556,1.0.2,20251113-095759,780,Practice,T1,1,Automatic,main,6,20260226-171646,global,global,300,S,S,E,A,S-E.png,S-A.png,sS,sS,mask-2.png,mask-3.png,s,1,1.479499800130725,none,-5,0,0.050958599895238876,0.04960109991952777,0.10013010003603995,0.10001089982688427,0.2999847000464797
RSVPLG03,km,20260226-171556,1.0.2,20251113-095759,780,Practice,T1,1,Automatic,main,7,20260226-171651,global,global,750,S,S,E,E,S-E.png,S-E.png,sS,sS,mask-2.png,mask-1.png,s,1,1.6668252998497337,none,-5,0,0.05090710008516908,0.05043280008248985,0.10090949991717935,0.10114959999918938,0.7517963999416679
RSVPLG03,km,20260226-171556,1.0.2,20251113-095759,780,Practice,T1,1,Automatic,main,8,20260226-171656,local,global,300,S,H,A,E,A-S.png,H-E.png,sS,hH,mask-2.png,mask-1.png,s,1,1.2531403000466526,none,-5,0,0.04893429996445775,0.05079200002364814,0.09977469989098608,0.10064179985783994,0.3006929000839591
RSVPLG03,km,20260226-171556,1.0.2,20251113-095759,780,Practice,T1,1,Automatic,main,9,20260226-171701,local,global,300,S,H,A,E,A-S.png,H-E.png,sS,hH,mask-3.png,mask-2.png,s,1,1.6645339999813586,none,-5,0,0.047710000071674585,0.049686099868267775,0.09896550001576543,0.10128460009582341,0.2996729000005871
RSVPLG03,km,20260226-171556,1.0.2,20251113-095759,780,Practice,T1,1,Automatic,main,10,20260226-171706,global,local,750,H,S,E,A,H-E.png,A-S.png,hH,sS,mask-1.png,mask-3.png,h,1,1.2298857998102903,none,-5,0,0.050449199974536896,0.05066149984486401,0.0989979999139905,0.09982070000842214,0.7524598999880254
RSVPLG03,km,20260226-171556,1.0.2,20251113-095759,780,Practice,T1,1,Automatic,main,11,20260226-171712,global,local,300,H,S,E,A,H-E.png,A-S.png,hH,sS,mask-1.png,mask-4.png,h,1,1.7402393999509513,none,-5,0,0.04938640003092587,0.05072519998066127,0.09990020003169775,0.10051519982516766,0.3008240000344813
RSVPLG03,km,20260226-171556,1.0.2,20251113-095759,780,Practice,T1,1,Automatic,main,12,20260226-171717,local,local,750,H,S,E,E,E-H.png,E-S.png,hH,sS,mask-2.png,mask-1.png,h,1,1.9373576000798494,none,-5,0,0.050018300069496036,0.04924929980188608,0.10084130009636283,0.09964929986745119,0.7524769001174718
RSVPLG03,km,20260226-171556,1.0.2,20251113-095759,780,Practice,T1,1,Automatic,main,13,20260226-171723,global,local,750,H,S,A,A,H-A.png,A-S.png,hH,sS,mask-4.png,mask-3.png,h,1,1.1161604998633265,none,-5,0,0.05091389990411699,0.04995230003260076,0.09973249980248511,0.10090439999476075,0.7532020998187363
RSVPLG03,km,20260226-171556,1.0.2,20251113-095759,780,Practice,T1,1,Automatic,main,14,20260226-171728,local,global,750,H,S,A,E,A-H.png,S-E.png,hH,sS,mask-2.png,mask-3.png,h,1,3.408580399816856,none,-5,0,0.04941700003109872,0.049558799946680665,0.0982798000331968,0.0995047998148948,0.75191880017519
RSVPLG03,km,20260226-171556,1.0.2,20251113-095759,780,Practice,T1,1,Automatic,main,15,20260226-171736,local,local,300,H,S,A,A,A-H.png,A-S.png,hH,sS,mask-1.png,mask-1.png,h,1,1.639015099965036,none,-5,0,0.04928379994817078,0.04952600016258657,0.10005709994584322,0.10030609997920692,0.3001692998223007
RSVPLG03,km,20260226-171556,1.0.2,20251113-095759,780,Practice,T1,1,Automatic,main,16,20260226-171741,global,global,750,S,S,E,E,S-E.png,S-E.png,sS,sS,mask-4.png,mask-1.png,s,1,1.9460426000878215,none,-5,0,0.050461600068956614,0.050543999997898936,0.09998330008238554,0.10158869996666908,0.752862700028345
RSVPLG03,km,20260226-171826,1.0.2,20251113-095759,780,Introduction,Both,1,Automatic,main,1,20260226-171847,local,local,750,H,H,E,A,E-H.png,A-H.png,hH,hH,mask-4.png,mask-2.png,h,1,1.9429500000551343,h,1,8.718851400073618,0.0940664999652654,0.09885880001820624,0.19555509998463094,0.1998870000243187,0.7473619999364018
RSVPLG03,km,20260226-171826,1.0.2,20251113-095759,780,Introduction,Both,1,Automatic,main,2,20260226-171902,local,global,750,H,S,E,E,E-H.png,S-E.png,hH,sS,mask-1.png,mask-4.png,s,0,4.707441900158301,h,0,1.4402512998785824,0.09832909982651472,0.09954889980144799,0.19991709990426898,0.19901489978656173,0.7515889999922365
RSVPLG03,km,20260226-171826,1.0.2,20251113-095759,780,Introduction,Both,1,Automatic,main,3,20260226-171912,global,global,750,S,S,E,E,S-E.png,S-E.png,sS,sS,mask-3.png,mask-3.png,s,1,1.7571159000508487,h,0,1.1525165000930429,0.0992262999061495,0.10539799998514354,0.19960889988578856,0.20102809998206794,0.750688900006935
RSVPLG03,km,20260226-171826,1.0.2,20251113-095759,780,Introduction,Both,1,Automatic,main,4,20260226-171919,global,local,750,S,S,A,A,S-A.png,A-S.png,sS,sS,mask-2.png,mask-1.png,s,1,2.6979558998718858,h,0,2.368836099980399,0.09984919987618923,0.09983540000393987,0.20132589992135763,0.1998060999903828,0.7529646998737007
RSVPLG03,km,20260226-171826,1.0.2,20251113-095759,780,Introduction,Both,1,Automatic,main,5,20260226-171929,global,global,750,H,S,A,E,H-A.png,S-E.png,hH,sS,mask-2.png,mask-2.png,h,1,2.7147284001111984,s,1,0.765491500031203,0.09899109997786582,0.09952290006913245,0.19999750005081296,0.20017229998484254,0.7518229000270367
RSVPLG03,km,20260226-171826,1.0.2,20251113-095759,780,Introduction,Both,1,Automatic,main,6,20260226-171936,global,global,750,H,S,A,E,H-A.png,S-E.png,hH,sS,mask-4.png,mask-3.png,h,1,1.1059838999062777,s,1,0.6387698000762612,0.10099259996786714,0.09806500002741814,0.19986089994199574,0.1993056999053806,0.7535244999453425
RSVPLG03,km,20260226-171826,1.0.2,20251113-095759,780,Introduction,Both,1,Automatic,main,7,20260226-171942,global,local,750,H,S,E,E,H-E.png,E-S.png,hH,sS,mask-3.png,mask-4.png,h,1,1.0503625001292676,s,1,0.6232259999960661,0.09859249996952713,0.10054439981468022,0.20124870003201067,0.20023710001260042,0.7514496000949293
RSVPLG03,km,20260226-171826,1.0.2,20251113-095759,780,Introduction,Both,1,Automatic,main,8,20260226-171948,local,global,750,S,S,A,A,A-S.png,S-A.png,sS,sS,mask-1.png,mask-4.png,h,0,2.0428855000063777,s,1,0.3681802998762578,0.10045920009724796,0.10181299992837012,0.20159709989093244,0.20118919992819428,0.7517520000692457
RSVPLG03,km,20260226-171826,1.0.2,20251113-095759,780,Introduction,Both,1,Automatic,main,9,20260226-171955,local,local,750,H,H,E,A,E-H.png,A-H.png,hH,hH,mask-1.png,mask-3.png,s,0,2.0717605999670923,h,1,0.21046789991669357,0.10147039988078177,0.10083699994720519,0.19992489996366203,0.19859039993025362,0.7532067999709398
RSVPLG03,km,20260226-171826,1.0.2,20251113-095759,780,Introduction,Both,1,Automatic,main,10,20260226-172002,global,local,750,H,S,A,E,H-A.png,E-S.png,hH,sS,mask-2.png,mask-1.png,h,1,0.9530187000054866,s,1,0.3823945999611169,0.099994600052014,0.09957610000856221,0.20115779992192984,0.19954689987935126,0.7526660000439733
RSVPLG03,km,20260226-171826,1.0.2,20251113-095759,780,Introduction,Both,1,Automatic,main,11,20260226-172007,local,local,750,H,H,E,A,E-H.png,A-H.png,hH,hH,mask-3.png,mask-1.png,h,1,1.2814025001134723,h,1,0.3210793000180274,0.09947480005212128,0.10037830006331205,0.20084429997950792,0.20165539998561144,0.7515581999905407
RSVPLG03,km,20260226-171826,1.0.2,20251113-095759,780,Introduction,Both,1,Automatic,main,12,20260226-172013,local,global,750,H,H,A,E,A-H.png,H-E.png,hH,hH,mask-3.png,mask-2.png,h,1,1.5398154000286013,h,1,0.12649489985778928,0.09946759999729693,0.10103460005484521,0.19862370006740093,0.2010969000402838,0.7509082001633942
RSVPLG03,km,20260226-171826,1.0.2,20251113-095759,780,Introduction,Both,1,Automatic,main,13,20260226-172019,local,global,750,H,H,E,A,E-H.png,H-A.png,hH,hH,mask-2.png,mask-4.png,none,-6,0,none,-6,0,0.10036160005256534,0.09878219990059733,0.20177320018410683,0.19871119991876185,0.7540470000822097
RSVPLG03,km,20260226-172040,1.0.2,20251113-095759,780,Practice,Both,1,Automatic,main,1,20260226-172113,local,global,750,H,S,E,A,E-H.png,S-A.png,hH,sS,mask-3.png,mask-3.png,h,1,1.2963483000639826,h,0,0.10756349982693791,0.04887640010565519,0.0505725999828428,0.09841750003397465,0.10132429981604218,0.7498173001222312
RSVPLG03,km,20260226-172040,1.0.2,20251113-095759,780,Practice,Both,1,Automatic,main,2,20260226-172119,local,local,750,H,H,A,A,A-H.png,A-H.png,hH,hH,mask-1.png,mask-3.png,h,1,1.7991784999612719,h,1,0.1429382001515478,0.04929340002126992,0.04948980011977255,0.09909699996933341,0.0999982999637723,0.7515624999068677
RSVPLG03,km,20260226-172040,1.0.2,20251113-095759,780,Practice,Both,1,Automatic,main,3,20260226-172125,global,global,750,H,H,E,A,H-E.png,H-A.png,hH,hH,mask-3.png,mask-1.png,h,1,1.558604400139302,h,1,0.14182749995961785,0.05098389997147024,0.04981160000897944,0.10038899979554117,0.09964589984156191,0.7514921999536455
RSVPLG03,km,20260226-172040,1.0.2,20251113-095759,780,Practice,Both,1,Automatic,main,4,20260226-172131,global,local,750,H,H,A,A,H-A.png,A-H.png,hH,hH,mask-3.png,mask-4.png,h,1,1.0525374000426382,h,1,0.09605639986693859,0.050429899943992496,0.049896499840542674,0.10091149993240833,0.09995299996808171,0.7515684000682086
RSVPLG03,km,20260226-172040,1.0.2,20251113-095759,780,Practice,Both,1,Automatic,main,5,20260226-172136,global,global,300,H,H,A,E,H-A.png,H-E.png,hH,hH,mask-2.png,mask-1.png,h,1,1.2416717000305653,h,1,0.1264225000049919,0.049211000092327595,0.050406600115820765,0.09954700013622642,0.10189600009471178,0.2987085999920964
RSVPLG03,km,20260226-172040,1.0.2,20251113-095759,780,Practice,Both,1,Automatic,main,6,20260226-172141,local,local,300,H,H,A,A,A-H.png,A-H.png,hH,hH,mask-1.png,mask-2.png,h,1,1.5051500000990927,h,1,0.1596313000191003,0.050751700066030025,0.04874449991621077,0.09973839996382594,0.10012119985185564,0.3013607000466436
RSVPLG03,km,20260226-172040,1.0.2,20251113-095759,780,Practice,Both,1,Automatic,main,7,20260226-172147,global,global,750,H,H,E,E,H-E.png,H-E.png,hH,hH,mask-4.png,mask-2.png,h,1,0.8574588000774384,h,1,0.09369460004381835,0.04997300007380545,0.04978360002860427,0.098869499983266,0.10107089998200536,0.7494066001381725
RSVPLG03,km,20260226-172040,1.0.2,20251113-095759,780,Practice,Both,1,Automatic,main,8,20260226-172152,local,local,300,H,H,A,E,A-H.png,E-H.png,hH,hH,mask-1.png,mask-2.png,h,1,1.1660336998756975,h,1,0.11111619998700917,0.0498129001352936,0.05111889983527362,0.10166359995491803,0.09986059996299446,0.3003782001323998
RSVPLG03,km,20260226-172040,1.0.2,20251113-095759,780,Practice,Both,1,Automatic,main,9,20260226-172157,global,local,300,H,S,A,E,H-A.png,E-S.png,hH,sS,mask-3.png,mask-1.png,h,1,1.0771053000353277,h,0,0.09700819989666343,0.05064989998936653,0.04958339990116656,0.10074230004101992,0.1000985000282526,0.30078550009056926
RSVPLG03,km,20260226-172040,1.0.2,20251113-095759,780,Practice,Both,1,Automatic,main,10,20260226-172201,global,local,300,S,S,E,A,S-E.png,A-S.png,sS,sS,mask-3.png,mask-1.png,s,1,1.4157304000109434,h,0,0.4640897000208497,0.05004110001027584,0.04918759991414845,0.0997067999560386,0.09931860002689064,0.30100159998983145
RSVPLG03,km,20260226-172040,1.0.2,20251113-095759,780,Practice,Both,1,Automatic,main,11,20260226-172207,global,global,300,H,H,E,A,H-E.png,H-A.png,hH,hH,mask-2.png,mask-2.png,h,1,1.62777979997918,s,0,0.2550798999145627,0.04867670009844005,0.048461300088092685,0.10015360009856522,0.09880969999358058,0.30129309999756515
RSVPLG03,km,20260226-172040,1.0.2,20251113-095759,780,Practice,Both,1,Automatic,main,12,20260226-172213,local,global,750,H,S,A,A,A-H.png,S-A.png,hH,sS,mask-2.png,mask-3.png,h,1,1.77470610011369,h,0,0.06665860000066459,0.05152079998515546,0.051089099841192365,0.10071319993585348,0.09974580002017319,0.7519692000932992
RSVPLG03,km,20260226-172040,1.0.2,20251113-095759,780,Practice,Both,1,Automatic,main,13,20260226-172219,global,local,750,H,S,A,A,H-A.png,A-S.png,hH,sS,mask-1.png,mask-2.png,h,1,2.1944727001246065,s,1,0.19204049999825656,0.05088120000436902,0.049883499974384904,0.1009321000892669,0.1009441998321563,0.7503111001569778
RSVPLG03,km,20260226-172040,1.0.2,20251113-095759,780,Practice,Both,1,Automatic,main,14,20260226-172225,local,local,750,S,H,A,E,A-S.png,E-H.png,sS,hH,mask-1.png,mask-1.png,s,1,1.364727299893275,h,1,0.3508901000022888,0.0500707000028342,0.05091740004718304,0.10061870003119111,0.10089570004492998,0.7499178000725806
RSVPLG03,km,20260226-172040,1.0.2,20251113-095759,780,Practice,Both,1,Automatic,main,15,20260226-172231,local,global,300,S,S,A,E,A-S.png,S-E.png,sS,sS,mask-2.png,mask-2.png,s,1,1.1967825999017805,h,0,0.33590999990701675,0.05065170000307262,0.05123479990288615,0.10038139997050166,0.10042849997989833,0.30001480015926063
RSVPLG03,km,20260226-172040,1.0.2,20251113-095759,780,Practice,Both,1,Automatic,main,16,20260226-172236,local,global,300,S,S,A,E,A-S.png,S-E.png,sS,sS,mask-2.png,mask-1.png,s,1,2.1822891000192612,s,1,0.4610437999945134,0.0504953998606652,0.05085629993118346,0.09972929977811873,0.10121580003760755,0.2998521998524666
RSVPLG03,km,20260226-172322,1.0.2,20251113-095759,780,Practice,Both,1,Automatic,main,1,20260226-172352,global,global,750,H,S,E,A,H-E.png,S-A.png,hH,sS,mask-1.png,mask-1.png,h,1,1.5765154999680817,h,0,0.07953880005516112,0.040208599995821714,0.04951529996469617,0.09106400003656745,0.10099499998614192,0.7419419998768717
RSVPLG03,km,20260226-172322,1.0.2,20251113-095759,780,Practice,Both,1,Automatic,main,2,20260226-172358,local,local,300,H,S,A,A,A-H.png,A-S.png,hH,sS,mask-3.png,mask-2.png,h,1,1.3507714001461864,s,1,0.2702741001266986,0.049856399884447455,0.04971339995972812,0.0989075000397861,0.09835739992558956,0.3003658000379801
RSVPLG03,km,20260226-172322,1.0.2,20251113-095759,780,Practice,Both,1,Automatic,main,3,20260226-172403,global,global,300,H,S,A,A,H-A.png,S-A.png,hH,sS,mask-3.png,mask-3.png,h,1,1.3858249001204967,s,1,0.3051910998765379,0.05184229998849332,0.05017740000039339,0.10169759998098016,0.1006020000204444,0.3008876000531018
RSVPLG03,km,20260226-172322,1.0.2,20251113-095759,780,Practice,Both,1,Automatic,main,4,20260226-172408,global,local,300,H,S,E,E,H-E.png,E-S.png,hH,sS,mask-1.png,mask-3.png,h,1,1.151017599971965,h,0,0.1134460000321269,0.049945899983868,0.04982520011253655,0.10089179989881814,0.10150260012596846,0.2998808999545872
RSVPLG03,km,20260226-172322,1.0.2,20251113-095759,780,Practice,Both,1,Automatic,main,5,20260226-172413,global,global,300,S,S,E,A,S-E.png,S-A.png,sS,sS,mask-3.png,mask-4.png,s,1,1.0645791001152247,h,0,0.39994919998571277,0.04940739995799959,0.0505305000115186,0.10150360013358295,0.1003745999187231,0.3009693000931293
RSVPLG03,km,20260226-172322,1.0.2,20251113-095759,780,Practice,Both,1,Automatic,main,6,20260226-172418,local,global,750,H,S,E,A,E-H.png,S-A.png,hH,sS,mask-4.png,mask-3.png,h,1,1.2798285000026226,s,1,0.19028829992748797,0.05141429998911917,0.04921570001170039,0.10015379986725748,0.10008740006014705,0.7527232998982072
RSVPLG03,km,20260226-172322,1.0.2,20251113-095759,780,Practice,Both,1,Automatic,main,7,20260226-172424,local,global,750,H,S,A,E,A-H.png,S-E.png,hH,sS,mask-2.png,mask-3.png,h,1,1.589304099790752,h,0,0.22502820007503033,0.04789230017922819,0.049854000099003315,0.09891770011745393,0.10045540006831288,0.7505922000855207
RSVPLG03,km,20260226-172322,1.0.2,20251113-095759,780,Practice,Both,1,Automatic,main,8,20260226-172430,local,local,750,S,S,E,A,E-S.png,A-S.png,sS,sS,mask-3.png,mask-2.png,h,0,1.8052544000092894,h,0,0.12810209998860955,0.04886380000971258,0.05152490013279021,0.09860799997113645,0.10087179997935891,0.7491943000350147
RSVPLG03,km,20260226-172322,1.0.2,20251113-095759,780,Practice,Both,1,Automatic,main,9,20260226-172436,global,local,750,S,H,E,E,S-E.png,E-H.png,sS,hH,mask-4.png,mask-3.png,s,1,1.8239578001666814,h,1,0.36487129982560873,0.051674900110810995,0.04866069997660816,0.0994673001114279,0.09981140005402267,0.7528087999671698
RSVPLG03,km,20260226-172322,1.0.2,20251113-095759,780,Practice,Both,1,Automatic,main,10,20260226-172442,global,global,750,S,S,A,A,S-A.png,S-A.png,sS,sS,mask-2.png,mask-1.png,s,1,2.0302531998604536,s,1,0.08085029991343617,0.047389299841597676,0.050708699971437454,0.09861069987528026,0.10031690006144345,0.7483643998857588
RSVPLG03,km,20260226-172322,1.0.2,20251113-095759,780,Practice,Both,1,Automatic,main,11,20260226-172448,local,local,300,H,H,E,E,E-H.png,E-H.png,hH,hH,mask-3.png,mask-2.png,h,1,1.1635547000914812,h,1,0.1297881999053061,0.04871849995106459,0.04865109990350902,0.09982470003888011,0.09962140000425279,0.30076290015131235
RSVPLG03,km,20260226-172322,1.0.2,20251113-095759,780,Practice,Both,1,Automatic,main,12,20260226-172453,global,local,300,S,H,A,E,S-A.png,E-H.png,sS,hH,mask-4.png,mask-1.png,s,1,1.4197547000367194,h,1,0.3819349999539554,0.04954789998009801,0.04860069998539984,0.10022260015830398,0.09943030006252229,0.3004596000537276
RSVPLG03,km,20260226-172322,1.0.2,20251113-095759,780,Practice,Both,1,Automatic,main,13,20260226-172459,local,global,300,H,H,E,E,E-H.png,H-E.png,hH,hH,mask-4.png,mask-2.png,h,1,1.3092681001871824,h,1,0.0937693000305444,0.04992130002938211,0.04915069998241961,0.09964610007591546,0.09957510000094771,0.2996044000610709
RSVPLG03,km,20260226-172322,1.0.2,20251113-095759,780,Practice,Both,1,Automatic,main,14,20260226-172504,local,global,300,S,S,A,E,A-S.png,S-E.png,sS,sS,mask-1.png,mask-1.png,h,0,2.256504900055006,s,1,0.16127869999036193,0.049545699963346124,0.04952710005454719,0.09969779988750815,0.09926960011944175,0.3001176998950541
RSVPLG03,km,20260226-172322,1.0.2,20251113-095759,780,Practice,Both,1,Automatic,main,15,20260226-172510,local,local,750,H,H,E,E,E-H.png,E-H.png,hH,hH,mask-3.png,mask-1.png,h,1,1.2378326999023557,h,1,0.15831139986403286,0.04849419998936355,0.05154959997162223,0.09891409985721111,0.10146689997054636,0.749656799947843
RSVPLG03,km,20260226-172322,1.0.2,20251113-095759,780,Practice,Both,1,Automatic,main,16,20260226-172516,global,local,750,H,H,A,A,H-A.png,A-H.png,hH,hH,mask-1.png,mask-3.png,h,1,2.2262929999269545,h,1,0.12528659985400736,0.04989430005662143,0.049876200035214424,0.1001033999491483,0.0990504000801593,0.7509021000005305
RSVPLG03,km,20260226-172608,1.0.2,20251113-095759,780,Experiment,Both,1,Automatic,warmup,1,20260226-172700,local,local,300,S,S,E,A,E-S.png,A-S.png,sS,sS,mask-1.png,mask-3.png,s,1,1.8133998999837786,h,0,0.46270569995976985,0.04063709988258779,0.05018100002780557,0.091305400012061,0.10053379996679723,0.29087689984589815
RSVPLG03,km,20260226-172608,1.0.2,20251113-095759,780,Experiment,Both,1,Automatic,warmup,2,20260226-172706,local,local,750,S,S,A,A,A-S.png,A-S.png,sS,sS,mask-3.png,mask-4.png,s,1,1.3333264999091625,s,1,0.061601600144058466,0.05034959991462529,0.05113620008341968,0.09887630003504455,0.09899100009351969,0.7498508999124169
RSVPLG03,km,20260226-172608,1.0.2,20251113-095759,780,Experiment,Both,1,Automatic,warmup,3,20260226-172712,global,global,300,H,S,E,A,H-E.png,S-A.png,hH,sS,mask-4.png,mask-2.png,h,1,1.166997800115496,s,1,0.23689069994725287,0.04883260000497103,0.049191500060260296,0.09875800018198788,0.09947909996844828,0.2988617999944836
RSVPLG03,km,20260226-172608,1.0.2,20251113-095759,780,Experiment,Both,1,Automatic,warmup,4,20260226-172717,global,local,750,H,H,A,E,H-A.png,E-H.png,hH,hH,mask-4.png,mask-3.png,h,1,1.0774427999276668,h,1,0.09860590007156134,0.0486150998622179,0.049920500023290515,0.09892339981161058,0.09919540002010763,0.7503639999777079
RSVPLG03,km,20260226-172608,1.0.2,20251113-095759,780,Experiment,Both,1,Automatic,main,5,20260226-172722,local,global,300,H,S,E,E,E-H.png,S-E.png,hH,sS,mask-2.png,mask-1.png,h,1,1.3840197001118213,h,0,0.06112960004247725,0.048865499906241894,0.05032699997536838,0.10018160007894039,0.09991959994658828,0.29978960007429123
RSVPLG03,km,20260226-172608,1.0.2,20251113-095759,780,Experiment,Both,1,Automatic,main,6,20260226-172727,global,local,750,H,S,A,E,H-A.png,E-S.png,hH,sS,mask-4.png,mask-4.png,h,1,1.0726373000070453,s,1,0.2097525999415666,0.050398699939250946,0.0499072999227792,0.10084499977529049,0.09991330001503229,0.749691299861297
RSVPLG03,km,20260226-172608,1.0.2,20251113-095759,780,Experiment,Both,1,Automatic,main,7,20260226-172732,global,global,300,S,S,A,A,S-A.png,S-A.png,sS,sS,mask-1.png,mask-1.png,s,1,1.7219062999356538,h,0,0.28559770015999675,0.048802000004798174,0.04999489989131689,0.09971340000629425,0.0989115999545902,0.2999533999245614
RSVPLG03,km,20260226-172608,1.0.2,20251113-095759,780,Experiment,Both,1,Automatic,main,8,20260226-172738,local,local,750,H,H,A,A,A-H.png,A-H.png,hH,hH,mask-3.png,mask-2.png,h,1,1.3938221000134945,h,1,0.0935448999516666,0.05033409991301596,0.050168899819254875,0.10071889986284077,0.10052979993633926,0.7496748000849038
RSVPLG03,km,20260226-172608,1.0.2,20251113-095759,780,Experiment,Both,1,Automatic,main,9,20260226-172744,global,local,750,H,H,E,E,H-E.png,E-H.png,hH,hH,mask-2.png,mask-3.png,h,1,1.1207183001097292,h,1,0.08048839983530343,0.04990780004300177,0.0509271000046283,0.09993800008669496,0.10001789988018572,0.7506578001193702
RSVPLG03,km,20260226-172608,1.0.2,20251113-095759,780,Experiment,Both,1,Automatic,main,10,20260226-172749,local,global,750,H,H,E,E,E-H.png,H-E.png,hH,hH,mask-1.png,mask-1.png,h,1,1.0598122000228614,h,1,0.09699569991789758,0.04987389990128577,0.05095399986021221,0.09889449994079769,0.09997119987383485,0.7488810999784619
RSVPLG03,km,20260226-172608,1.0.2,20251113-095759,780,Experiment,Both,1,Automatic,main,11,20260226-172754,local,global,750,S,H,A,A,A-S.png,H-A.png,sS,hH,mask-1.png,mask-3.png,s,1,1.6723954998888075,h,1,0.30317640001885593,0.04855529987253249,0.04901159997098148,0.09927889984101057,0.10121640004217625,0.7482675998471677
RSVPLG03,km,20260226-172608,1.0.2,20251113-095759,780,Experiment,Both,1,Automatic,main,12,20260226-172800,local,global,750,H,H,A,E,A-H.png,H-E.png,hH,hH,mask-4.png,mask-3.png,h,1,1.0354005999397486,s,0,0.23937630001455545,0.0483426998835057,0.049634800059720874,0.09859719988889992,0.10090630012564361,0.7491558999754488
RSVPLG03,km,20260226-172608,1.0.2,20251113-095759,780,Experiment,Both,1,Automatic,main,13,20260226-172806,local,global,300,S,S,E,E,E-S.png,S-E.png,sS,sS,mask-2.png,mask-3.png,s,1,2.1280785999260843,s,1,0.063461699988693,0.04840310011059046,0.05160920019261539,0.09837110014632344,0.10109640005975962,0.29737269994802773
RSVPLG03,km,20260226-172608,1.0.2,20251113-095759,780,Experiment,Both,1,Automatic,main,14,20260226-172811,local,local,750,H,S,E,A,E-H.png,A-S.png,hH,sS,mask-1.png,mask-4.png,h,1,0.9786069998517632,s,1,0.22158170002512634,0.04974340018816292,0.04964450001716614,0.09962960006669164,0.09934889990836382,0.7494402001611888
RSVPLG03,km,20260226-172608,1.0.2,20251113-095759,780,Experiment,Both,1,Automatic,main,15,20260226-172817,global,global,750,S,S,A,A,S-A.png,S-A.png,sS,sS,mask-1.png,mask-4.png,s,1,1.7019501000177115,h,0,0.10922869993373752,0.05031539988704026,0.04890160006470978,0.09958729986101389,0.09895900008268654,0.7507402999326587
RSVPLG03,km,20260226-172608,1.0.2,20251113-095759,780,Experiment,Both,1,Automatic,main,16,20260226-172823,local,local,300,H,S,E,A,E-H.png,A-S.png,hH,sS,mask-3.png,mask-3.png,h,1,1.021410800050944,s,1,0.2055466000456363,0.049963500117883086,0.048661400098353624,0.09993400005623698,0.09951199986971915,0.30004250002093613
RSVPLG03,km,20260226-172608,1.0.2,20251113-095759,780,Experiment,Both,1,Automatic,main,17,20260226-172828,local,global,300,H,S,E,E,E-H.png,S-E.png,hH,sS,mask-3.png,mask-4.png,h,1,1.242209300165996,s,1,0.542246000142768,0.0498844999819994,0.04959529987536371,0.1010215999558568,0.10067209997214377,0.300149800023064
RSVPLG03,km,20260226-172608,1.0.2,20251113-095759,780,Experiment,Both,1,Automatic,main,18,20260226-172833,global,local,300,S,S,A,A,S-A.png,A-S.png,sS,sS,mask-3.png,mask-1.png,h,0,1.3254230001475662,s,1,0.23911649989895523,0.049717900110408664,0.04979019984602928,0.09919420001097023,0.10068239993415773,0.2992301001213491
RSVPLG03,km,20260226-172608,1.0.2,20251113-095759,780,Experiment,Both,1,Automatic,main,19,20260226-172838,local,global,300,H,H,A,E,A-H.png,H-E.png,hH,hH,mask-1.png,mask-1.png,h,1,1.0831492999568582,h,1,0.08158949995413423,0.04981609992682934,0.050818099873140454,0.10071579995565116,0.10097409994341433,0.29931379994377494
RSVPLG03,km,20260226-172608,1.0.2,20251113-095759,780,Experiment,Both,1,Automatic,main,20,20260226-172843,local,local,750,H,H,E,E,E-H.png,E-H.png,hH,hH,mask-1.png,mask-2.png,h,1,1.1801646000239998,h,1,0.07784590008668602,0.049997600028291345,0.050024199998006225,0.09999620006419718,0.09986139996908605,0.750020100036636
RSVPLG03,km,20260226-172608,1.0.2,20251113-095759,780,Experiment,Both,1,Automatic,main,21,20260226-172848,local,global,300,S,S,A,E,A-S.png,S-E.png,sS,sS,mask-1.png,mask-1.png,s,1,1.5662322000134736,h,0,0.5587444000411779,0.051042999839410186,0.0499229000415653,0.10111179994419217,0.10094940010458231,0.2998100998811424
RSVPLG03,km,20260226-172608,1.0.2,20251113-095759,780,Experiment,Both,1,Automatic,main,22,20260226-172854,local,local,750,S,H,A,E,A-S.png,E-H.png,sS,hH,mask-4.png,mask-4.png,s,1,1.4677457001525909,h,1,0.25453029992058873,0.04939870000816882,0.05006040004082024,0.09993079979903996,0.09867070009931922,0.7504242998547852
RSVPLG03,km,20260226-172608,1.0.2,20251113-095759,780,Experiment,Both,1,Automatic,main,23,20260226-172900,global,global,300,H,S,A,E,H-A.png,S-E.png,hH,sS,mask-4.png,mask-1.png,h,1,1.60976260015741,h,0,0.06281800009310246,0.047396000009030104,0.0506821998860687,0.09858960006386042,0.10137679986655712,0.29763230006210506
RSVPLG03,km,20260226-172608,1.0.2,20251113-095759,780,Experiment,Both,1,Automatic,main,24,20260226-172905,local,local,300,H,S,A,A,A-H.png,A-S.png,hH,sS,mask-4.png,mask-3.png,h,1,1.2765989999752492,s,1,0.3036452999804169,0.048494999995455146,0.04972140002064407,0.09959970018826425,0.0996153000742197,0.2997961000073701
RSVPLG03,km,20260226-172608,1.0.2,20251113-095759,780,Experiment,Both,1,Automatic,main,25,20260226-172911,global,local,300,S,H,A,A,S-A.png,A-H.png,sS,hH,mask-1.png,mask-4.png,s,1,1.7683455999940634,h,1,0.1090830999892205,0.04928399994969368,0.04930619988590479,0.09863349981606007,0.09963249997235835,0.29922819999046624
RSVPLG03,km,20260226-172608,1.0.2,20251113-095759,780,Experiment,Both,1,Automatic,main,26,20260226-172927,local,local,300,H,S,E,A,E-H.png,A-S.png,hH,sS,mask-4.png,mask-2.png,h,1,0.9126251998823136,s,1,0.2395321000367403,0.04988740012049675,0.04925490007735789,0.09868960012681782,0.09962050011381507,0.2994017000310123
RSVPLG03,km,20260226-172608,1.0.2,20251113-095759,780,Experiment,Both,1,Automatic,main,27,20260226-172932,local,local,750,S,S,E,A,E-S.png,A-S.png,sS,sS,mask-4.png,mask-1.png,s,1,0.8526225998066366,s,1,0.07603159989230335,0.05093919998034835,0.051363299833610654,0.10086570004932582,0.09987589996308088,0.7492029001004994
RSVPLG03,km,20260226-172608,1.0.2,20251113-095759,780,Experiment,Both,1,Automatic,main,28,20260226-172937,global,global,750,S,S,E,E,S-E.png,S-E.png,sS,sS,mask-2.png,mask-2.png,s,1,1.3874160998966545,s,1,0.06253640004433692,0.05094669992104173,0.04871980007737875,0.10169259994290769,0.09834050014615059,0.7509694998152554
RSVPLG03,km,20260226-172608,1.0.2,20251113-095759,780,Experiment,Both,1,Automatic,main,29,20260226-172942,global,global,750,S,S,E,A,S-E.png,S-A.png,sS,sS,mask-1.png,mask-2.png,s,1,0.9695718998555094,s,1,0.07832329999655485,0.0514572998508811,0.04991299984976649,0.10150430002249777,0.09874659986235201,0.7499728000257164
RSVPLG03,km,20260226-172608,1.0.2,20251113-095759,780,Experiment,Both,1,Automatic,main,30,20260226-172947,local,local,750,H,H,A,A,A-H.png,A-H.png,hH,hH,mask-4.png,mask-2.png,h,1,1.5683193998411298,h,1,0.09392610006034374,0.050290599931031466,0.05173760000616312,0.10083779995329678,0.10016000014729798,0.749784299870953
RSVPLG03,km,20260226-172608,1.0.2,20251113-095759,780,Experiment,Both,1,Automatic,main,31,20260226-172953,local,global,750,H,H,A,E,A-H.png,H-E.png,hH,hH,mask-3.png,mask-2.png,h,1,1.258927300106734,s,0,0.22663819999434054,0.04964679991826415,0.05150309996679425,0.09982989984564483,0.10128300008364022,0.7493391998577863
RSVPLG03,km,20260226-172608,1.0.2,20251113-095759,780,Experiment,Both,1,Automatic,main,32,20260226-172959,global,local,300,S,S,E,E,S-E.png,E-S.png,sS,sS,mask-3.png,mask-2.png,s,1,1.4315802999772131,s,1,0.09331230004318058,0.04998750006780028,0.04924359987489879,0.09924179990775883,0.09989269985817373,0.30003700009547174
RSVPLG03,km,20260226-172608,1.0.2,20251113-095759,780,Experiment,Both,1,Automatic,main,33,20260226-173004,global,local,750,H,S,A,E,H-A.png,E-S.png,hH,sS,mask-4.png,mask-3.png,h,1,1.2213781999889761,s,1,0.16257469984702766,0.04872389999218285,0.04982650000602007,0.09858130011707544,0.09972689999267459,0.7490117999259382
RSVPLG03,km,20260226-172608,1.0.2,20251113-095759,780,Experiment,Both,1,Automatic,main,34,20260226-173009,global,global,300,S,H,A,E,S-A.png,H-E.png,sS,hH,mask-2.png,mask-4.png,s,1,1.218301699962467,h,1,0.44638460013084114,0.0515733000356704,0.049653900088742375,0.10012940014712512,0.10072780004702508,0.30045170010998845
RSVPLG03,km,20260226-172608,1.0.2,20251113-095759,780,Experiment,Both,1,Automatic,main,35,20260226-173015,global,local,750,H,H,A,A,H-A.png,A-H.png,hH,hH,mask-3.png,mask-2.png,h,1,1.1142134999390692,h,1,0.07863259990699589,0.05079049989581108,0.04963850020430982,0.10094389994628727,0.10065280017443001,0.7494213997852057
RSVPLG03,km,20260226-172608,1.0.2,20251113-095759,780,Experiment,Both,1,Automatic,main,36,20260226-173020,local,global,750,H,H,A,A,A-H.png,H-A.png,hH,hH,mask-4.png,mask-2.png,h,1,1.2454071000684053,h,1,0.11215550010092556,0.04990640003234148,0.0488018998876214,0.09995619999244809,0.10019650007598102,0.7498264000751078
RSVPLG03,km,20260226-172608,1.0.2,20251113-095759,780,Experiment,Both,1,Automatic,main,37,20260226-173025,local,local,750,S,H,E,A,E-S.png,A-H.png,sS,hH,mask-3.png,mask-4.png,s,1,1.0530794998630881,h,1,0.4448120000306517,0.048736499855294824,0.04868400003761053,0.09966009994968772,0.0985493001062423,0.7498732998501509
RSVPLG03,km,20260226-172608,1.0.2,20251113-095759,780,Experiment,Both,1,Automatic,main,38,20260226-173031,local,local,750,S,H,A,E,A-S.png,E-H.png,sS,hH,mask-1.png,mask-4.png,s,1,0.9678993998095393,h,1,0.44501050002872944,0.04926699982024729,0.051061399979516864,0.09969649999402463,0.10007869987748563,0.7486280000302941
RSVPLG03,km,20260226-172608,1.0.2,20251113-095759,780,Experiment,Both,1,Automatic,main,39,20260226-173036,local,local,300,H,S,A,A,A-H.png,A-S.png,hH,sS,mask-1.png,mask-3.png,h,1,1.0135119000915438,s,1,0.2074470000807196,0.048890599980950356,0.049882999854162335,0.09902169997803867,0.10091389995068312,0.2997755000833422
RSVPLG03,km,20260226-172608,1.0.2,20251113-095759,780,Experiment,Both,1,Automatic,main,40,20260226-173041,local,local,750,S,H,A,A,A-S.png,A-H.png,sS,hH,mask-2.png,mask-1.png,s,1,1.6175506999716163,h,1,0.39955909992568195,0.050456499913707376,0.0495411001611501,0.10003919992595911,0.09898140002042055,0.7504884998779744
RSVPLG03,km,20260226-172608,1.0.2,20251113-095759,780,Experiment,Both,1,Automatic,main,41,20260226-173047,local,local,300,S,S,E,A,E-S.png,A-S.png,sS,sS,mask-1.png,mask-3.png,s,1,1.0918620000593364,s,1,0.07996100001037121,0.050809700042009354,0.049283500062301755,0.09967589983716607,0.1005530001129955,0.3009116998873651
RSVPLG03,km,20260226-172608,1.0.2,20251113-095759,780,Experiment,Both,1,Automatic,main,42,20260226-173052,global,global,300,S,H,A,A,S-A.png,H-A.png,sS,hH,mask-4.png,mask-1.png,s,1,1.1009817000012845,h,1,0.4034868001472205,0.048720099963247776,0.05101390019990504,0.0989457000978291,0.09974230010993779,0.2988016998860985
RSVPLG03,km,20260226-172608,1.0.2,20251113-095759,780,Experiment,Both,1,Automatic,main,43,20260226-173057,local,global,750,S,S,A,E,A-S.png,S-E.png,sS,sS,mask-4.png,mask-3.png,s,1,1.2864679000340402,s,1,0.11057509994134307,0.05056750006042421,0.047784300055354834,0.09925430011935532,0.09930379991419613,0.7504972000606358
RSVPLG03,km,20260226-172608,1.0.2,20251113-095759,780,Experiment,Both,1,Automatic,main,44,20260226-173103,local,global,300,H,H,E,A,E-H.png,H-A.png,hH,hH,mask-3.png,mask-2.png,s,0,1.3007468001451343,h,1,0.4342430999968201,0.0481869000941515,0.05021580005995929,0.09898589993827045,0.10026199999265373,0.2985646999441087
RSVPLG03,km,20260226-172608,1.0.2,20251113-095759,780,Experiment,Both,1,Automatic,main,45,20260226-173108,local,global,300,S,S,A,A,A-S.png,S-A.png,sS,sS,mask-4.png,mask-1.png,s,1,1.0989724001847208,h,0,0.3524377001449466,0.04958009999245405,0.04990649991668761,0.09838079987093806,0.1002668000292033,0.2990435999818146
RSVPLG03,km,20260226-172608,1.0.2,20251113-095759,780,Experiment,Both,1,Automatic,main,46,20260226-173113,global,global,300,S,H,E,E,S-E.png,H-E.png,sS,hH,mask-1.png,mask-3.png,s,1,1.2097803999204189,h,1,0.3994046999141574,0.049787000054493546,0.04883039998821914,0.1000907002016902,0.10026850015856326,0.2999670000281185
RSVPLG03,km,20260226-172608,1.0.2,20251113-095759,780,Experiment,Both,1,Automatic,main,47,20260226-173118,global,local,300,H,H,A,A,H-A.png,A-H.png,hH,hH,mask-2.png,mask-1.png,h,1,1.0844036999624223,h,1,0.06443620007485151,0.050908599980175495,0.05038779997266829,0.10076990001834929,0.09925159998238087,0.3004195000976324
RSVPLG03,km,20260226-172608,1.0.2,20251113-095759,780,Experiment,Both,1,Automatic,main,48,20260226-173123,global,global,750,S,H,A,A,S-A.png,H-A.png,sS,hH,mask-4.png,mask-3.png,s,1,1.003898800117895,h,1,0.3974488000385463,0.04913890012539923,0.04946199990808964,0.09910370013676584,0.10003420012071729,0.7497797000687569
RSVPLG03,km,20260226-172608,1.0.2,20251113-095759,780,Experiment,Both,1,Automatic,main,49,20260226-173129,global,global,750,H,S,E,A,H-E.png,S-A.png,hH,sS,mask-1.png,mask-2.png,h,1,0.9708648999221623,s,1,0.20533649995923042,0.049731200095266104,0.04990929993800819,0.09925930015742779,0.10012690001167357,0.7508731000125408
RSVPLG03,km,20260226-172608,1.0.2,20251113-095759,780,Experiment,Both,1,Automatic,main,50,20260226-173134,global,global,300,S,S,A,A,S-A.png,S-A.png,sS,sS,mask-4.png,mask-4.png,s,1,1.0915420001838356,s,1,0.1255539001431316,0.04953650012612343,0.04849870014004409,0.09992420021444559,0.09960200008936226,0.29978640004992485
RSVPLG03,km,20260226-172608,1.0.2,20251113-095759,780,Experiment,Both,1,Automatic,main,51,20260226-173141,global,global,750,H,S,A,A,H-A.png,S-A.png,hH,sS,mask-1.png,mask-3.png,h,1,0.992367499973625,s,1,0.27321640006266534,0.04953910014592111,0.05052010016515851,0.10127860005013645,0.09942149999551475,0.7511603999882936
RSVPLG03,km,20260226-172608,1.0.2,20251113-095759,780,Experiment,Both,1,Automatic,main,52,20260226-173146,global,global,750,S,H,A,A,S-A.png,H-A.png,sS,hH,mask-3.png,mask-1.png,s,1,1.233487700112164,h,1,0.5573888001963496,0.04856949998065829,0.05056199990212917,0.09867469989694655,0.09913739981129766,0.7485479000024498
RSVPLG03,km,20260226-172608,1.0.2,20251113-095759,780,Experiment,Both,1,Automatic,main,53,20260226-173152,local,global,750,H,H,E,E,E-H.png,H-E.png,hH,hH,mask-3.png,mask-2.png,s,0,1.24558120011352,h,1,0.44777029985561967,0.04976870003156364,0.048811000073328614,0.0994803998619318,0.10015549999661744,0.749781799968332
RSVPLG03,km,20260226-172608,1.0.2,20251113-095759,780,Experiment,Both,1,Automatic,main,54,20260226-173158,global,local,300,H,H,E,A,H-E.png,A-H.png,hH,hH,mask-1.png,mask-1.png,h,1,1.4495506999082863,h,1,0.08262409991584718,0.04955619992688298,0.051923600025475025,0.09930170001462102,0.10053789988160133,0.29778330004774034
RSVPLG03,km,20260226-172608,1.0.2,20251113-095759,780,Experiment,Both,1,Automatic,main,55,20260226-173203,global,local,300,S,S,E,E,S-E.png,E-S.png,sS,sS,mask-3.png,mask-1.png,s,1,1.3122847999911755,h,0,0.47952329996041954,0.05002490011975169,0.047985299956053495,0.10007519996725023,0.09853760013356805,0.3015085000079125
RSVPLG03,km,20260226-172608,1.0.2,20251113-095759,780,Experiment,Both,1,Automatic,main,56,20260226-173209,local,global,300,H,S,A,A,A-H.png,S-A.png,hH,sS,mask-3.png,mask-1.png,h,1,1.2263176999986172,s,1,0.2398534999229014,0.049773299833759665,0.04974690009839833,0.09858799981884658,0.09955059993080795,0.2992441998794675
RSVPLG03,km,20260226-172608,1.0.2,20251113-095759,780,Experiment,Both,1,Automatic,main,57,20260226-173214,local,local,300,H,H,E,A,E-H.png,A-H.png,hH,hH,mask-3.png,mask-1.png,h,1,1.7433156000915915,h,1,0.10892999987117946,0.05041559995152056,0.05045290011912584,0.10017629992216825,0.09831030014902353,0.30073089990764856
RSVPLG03,km,20260226-172608,1.0.2,20251113-095759,780,Experiment,Both,1,Automatic,main,58,20260226-173219,local,local,750,H,H,A,E,A-H.png,E-H.png,hH,hH,mask-2.png,mask-1.png,h,1,1.0370065998286009,h,1,0.126038100104779,0.04912419989705086,0.04874729993753135,0.09937720000743866,0.09856939991004765,0.7515342000406235
RSVPLG03,km,20260226-172608,1.0.2,20251113-095759,780,Experiment,Both,1,Automatic,main,59,20260226-173224,local,local,750,H,S,E,E,E-H.png,E-S.png,hH,sS,mask-2.png,mask-3.png,h,1,0.9552966998890042,s,1,0.24008220015093684,0.049227199982851744,0.051417000126093626,0.09992529987357557,0.10226169996894896,0.748178199864924
RSVPLG03,km,20260226-172608,1.0.2,20251113-095759,780,Experiment,Both,1,Automatic,main,60,20260226-173230,global,local,750,S,H,E,E,S-E.png,E-H.png,sS,hH,mask-3.png,mask-3.png,s,1,1.2275488001760095,s,0,0.07864409987814724,0.051002300111576915,0.049817899940535426,0.09984369995072484,0.10015779989771545,0.748737100046128
RSVPLG03,km,20260226-172608,1.0.2,20251113-095759,780,Experiment,Both,1,Automatic,main,61,20260226-173235,local,global,300,H,S,E,A,E-H.png,S-A.png,hH,sS,mask-4.png,mask-2.png,h,1,1.369336700066924,h,0,0.12984839989803731,0.05199460010044277,0.04888259992003441,0.10106340004131198,0.09904949995689094,0.30177010013721883
RSVPLG03,km,20260226-172608,1.0.2,20251113-095759,780,Experiment,Both,1,Automatic,main,62,20260226-173240,global,local,300,S,S,A,E,S-A.png,E-S.png,sS,sS,mask-1.png,mask-3.png,h,0,1.2599166999571025,s,1,0.174527500057593,0.05059650004841387,0.05064549995586276,0.09933119989000261,0.10137109993956983,0.2991531000006944
RSVPLG03,km,20260226-172608,1.0.2,20251113-095759,780,Experiment,Both,1,Automatic,main,63,20260226-173245,global,local,750,H,H,A,A,H-A.png,A-H.png,hH,hH,mask-1.png,mask-4.png,h,1,1.7093164999969304,h,1,0.11061080009676516,0.04898569989018142,0.05017399997450411,0.10001369984820485,0.10044279997237027,0.7478126999922097
RSVPLG03,km,20260226-172608,1.0.2,20251113-095759,780,Experiment,Both,1,Automatic,main,64,20260226-173251,global,local,750,H,S,A,A,H-A.png,A-S.png,hH,sS,mask-4.png,mask-4.png,h,1,1.073628099868074,s,1,0.15885529993101954,0.05116000003181398,0.049315900076180696,0.10108510009013116,0.1003326999489218,0.7499037000816315
RSVPLG03,km,20260226-172608,1.0.2,20251113-095759,780,Experiment,Both,1,Automatic,main,65,20260226-173257,global,local,300,H,H,E,E,H-E.png,E-H.png,hH,hH,mask-2.png,mask-1.png,s,0,1.2326328998897225,h,1,0.49392780009657145,0.05156870000064373,0.04839499993249774,0.10028250003233552,0.09927459992468357,0.30161119997501373
RSVPLG03,km,20260226-172608,1.0.2,20251113-095759,780,Experiment,Both,1,Automatic,main,66,20260226-173302,global,local,750,S,S,E,E,S-E.png,E-S.png,sS,sS,mask-1.png,mask-2.png,h,0,1.4374981001019478,s,1,0.159128800034523,0.04966929997317493,0.049912899965420365,0.09906969987787306,0.1007634000852704,0.7494047998916358
RSVPLG03,km,20260226-172608,1.0.2,20251113-095759,780,Experiment,Both,1,Automatic,main,67,20260226-173308,global,global,750,H,H,E,A,H-E.png,H-A.png,hH,hH,mask-1.png,mask-4.png,h,1,0.9692476000636816,h,1,0.09453130001202226,0.04834880004636943,0.051215500105172396,0.10007410007528961,0.09991519991308451,0.7487848999444395
RSVPLG03,km,20260226-172608,1.0.2,20251113-095759,780,Experiment,Both,1,Automatic,main,68,20260226-173313,local,global,300,S,H,A,A,A-S.png,H-A.png,sS,hH,mask-3.png,mask-2.png,s,1,1.3241727000568062,h,1,0.367050799774006,0.04969560005702078,0.049748399993404746,0.0990315000526607,0.0995663998182863,0.30067570018582046
RSVPLG03,km,20260226-172608,1.0.2,20251113-095759,780,Experiment,Both,1,Automatic,main,69,20260226-173318,global,global,300,H,H,E,A,H-E.png,H-A.png,hH,hH,mask-3.png,mask-1.png,h,1,1.084501599892974,h,1,0.06242040009237826,0.04933740012347698,0.05074810003861785,0.09917590022087097,0.10082980012521148,0.299111400032416
RSVPLG03,km,20260226-172608,1.0.2,20251113-095759,780,Experiment,Both,1,Automatic,main,70,20260226-173323,local,global,300,S,H,A,A,A-S.png,H-A.png,sS,hH,mask-2.png,mask-3.png,s,1,1.3091776000801474,h,1,0.6071943000424653,0.051001499872654676,0.048978199949488044,0.09955090004950762,0.09992639999836683,0.2999307999853045
RSVPLG03,km,20260226-172608,1.0.2,20251113-095759,780,Experiment,Both,1,Automatic,main,71,20260226-173329,local,local,300,H,H,A,E,A-H.png,E-H.png,hH,hH,mask-3.png,mask-2.png,h,1,1.2033523998688906,s,0,0.22325550019741058,0.050728000001981854,0.04959780001081526,0.09978289995342493,0.09930679993703961,0.29989919997751713
RSVPLG03,km,20260226-172608,1.0.2,20251113-095759,780,Experiment,Both,1,Automatic,main,72,20260226-173334,local,global,750,S,H,A,A,A-S.png,H-A.png,sS,hH,mask-3.png,mask-1.png,s,1,1.5793242999352515,h,1,0.28593540005385876,0.04906320013105869,0.050268299877643585,0.09992490010336041,0.09935979987494648,0.7484862001147121
RSVPLG03,km,20260226-172608,1.0.2,20251113-095759,780,Experiment,Both,1,Automatic,main,73,20260226-173340,global,global,300,H,H,E,E,H-E.png,H-E.png,hH,hH,mask-3.png,mask-2.png,h,1,0.8976529999636114,h,1,0.06358119985088706,0.04791529988870025,0.05100069986656308,0.09896159986965358,0.10072699980810285,0.2980458000674844
RSVPLG03,km,20260226-172608,1.0.2,20251113-095759,780,Experiment,Both,1,Automatic,main,74,20260226-173344,global,local,750,S,H,A,E,S-A.png,E-H.png,sS,hH,mask-3.png,mask-3.png,s,1,0.8288390999659896,h,1,0.4473869998473674,0.04929829994216561,0.05048170010559261,0.10004869988188148,0.10046790004707873,0.7503432999365032
RSVPLG03,km,20260226-172608,1.0.2,20251113-095759,780,Experiment,Both,1,Automatic,main,75,20260226-173349,local,local,300,S,H,A,E,A-S.png,E-H.png,sS,hH,mask-1.png,mask-1.png,s,1,0.9769184000324458,h,1,0.38346440019086003,0.04895800002850592,0.04841869999654591,0.10107459989376366,0.09843539982102811,0.3010968000162393
RSVPLG03,km,20260226-172608,1.0.2,20251113-095759,780,Experiment,Both,1,Automatic,main,76,20260226-173356,local,global,750,H,S,A,A,A-H.png,S-A.png,hH,sS,mask-3.png,mask-2.png,h,1,0.935364400036633,s,1,0.287161200074479,0.05114550003781915,0.05035539995878935,0.10032070009037852,0.10028010001406074,0.7499164000619203
RSVPLG03,km,20260226-172608,1.0.2,20251113-095759,780,Experiment,Both,1,Automatic,main,77,20260226-173402,global,global,300,H,S,E,A,H-E.png,S-A.png,hH,sS,mask-3.png,mask-3.png,h,1,0.96828359994106,s,1,0.22102259984239936,0.04934520018287003,0.05029510008171201,0.09985870006494224,0.09982270002365112,0.2999382000416517
RSVPLG03,km,20260226-172608,1.0.2,20251113-095759,780,Experiment,Both,1,Automatic,main,78,20260226-173407,global,local,300,S,S,A,A,S-A.png,A-S.png,sS,sS,mask-3.png,mask-2.png,s,1,1.1735588998999447,s,1,0.07872190000489354,0.05019729980267584,0.05048290011473,0.10077859996818006,0.1012033000588417,0.2996846998576075
RSVPLG03,km,20260226-172608,1.0.2,20251113-095759,780,Experiment,Both,1,Automatic,main,79,20260226-173411,global,local,750,H,H,A,A,H-A.png,A-H.png,hH,hH,mask-2.png,mask-4.png,h,1,0.86242979997769,h,1,0.06226909998804331,0.04998330003581941,0.051168099977076054,0.10034259990788996,0.10080699995160103,0.7485446999780834
RSVPLG03,km,20260226-172608,1.0.2,20251113-095759,780,Experiment,Both,1,Automatic,main,80,20260226-173416,global,global,750,S,S,E,E,S-E.png,S-E.png,sS,sS,mask-3.png,mask-4.png,s,1,1.4512396999634802,s,1,0.07817739993333817,0.05079290014691651,0.0500556998886168,0.10002000001259148,0.1002038000151515,0.748613900039345
RSVPLG03,km,20260226-172608,1.0.2,20251113-095759,780,Experiment,Both,1,Automatic,main,81,20260226-173422,global,global,750,H,H,A,E,H-A.png,H-E.png,hH,hH,mask-1.png,mask-1.png,h,1,0.9532285998575389,h,1,0.06405050004832447,0.04895800002850592,0.04996229987591505,0.0999893001280725,0.10021459986455739,0.7492707001511008
RSVPLG03,km,20260226-172608,1.0.2,20251113-095759,780,Experiment,Both,1,Automatic,main,82,20260226-173427,global,local,300,S,H,A,E,S-A.png,E-H.png,sS,hH,mask-1.png,mask-1.png,h,0,1.0005445000715554,s,0,0.193589799804613,0.048640300054103136,0.04988959990441799,0.09986070008017123,0.10000849980860949,0.2997525001410395
RSVPLG03,km,20260226-172608,1.0.2,20251113-095759,780,Experiment,Both,1,Automatic,main,83,20260226-173432,local,local,300,S,H,E,A,E-S.png,A-H.png,sS,hH,mask-3.png,mask-2.png,s,1,1.2180571998469532,h,1,0.4144977000541985,0.05083389999344945,0.050895600114017725,0.09989410010166466,0.10076120006851852,0.2996700999792665
RSVPLG03,km,20260226-172608,1.0.2,20251113-095759,780,Experiment,Both,1,Automatic,main,84,20260226-173437,local,global,300,H,S,E,E,E-H.png,S-E.png,hH,sS,mask-2.png,mask-1.png,h,1,1.7405841001309454,h,0,0.27118490007705986,0.0512574000749737,0.04925509984605014,0.1016255000140518,0.09934649989008904,0.3006271000485867
RSVPLG03,km,20260226-172608,1.0.2,20251113-095759,780,Experiment,Both,1,Automatic,main,85,20260226-173443,local,local,300,H,H,E,E,E-H.png,E-H.png,hH,hH,mask-3.png,mask-1.png,h,1,1.0505939000286162,h,1,0.11154569988138974,0.04926629993133247,0.05021269991993904,0.09958839998580515,0.0995336000341922,0.2988380999304354
RSVPLG03,km,20260226-172608,1.0.2,20251113-095759,780,Experiment,Both,1,Automatic,main,86,20260226-173448,global,local,300,H,S,A,E,H-A.png,E-S.png,hH,sS,mask-4.png,mask-3.png,h,1,0.9519499000161886,h,0,0.07832319987937808,0.05066019995138049,0.0499188001267612,0.10041650012135506,0.10016410006210208,0.299545899964869
RSVPLG03,km,20260226-172608,1.0.2,20251113-095759,780,Experiment,Both,1,Automatic,main,87,20260226-173452,local,local,300,S,S,A,A,A-S.png,A-S.png,sS,sS,mask-1.png,mask-4.png,s,1,0.9453169999178499,s,1,0.07823899993672967,0.050208899891003966,0.04879809985868633,0.10053559998050332,0.09875359991565347,0.30022730003111064
RSVPLG03,km,20260226-172608,1.0.2,20251113-095759,780,Experiment,Both,1,Automatic,main,88,20260226-173457,global,local,750,S,H,A,A,S-A.png,A-H.png,sS,hH,mask-3.png,mask-2.png,s,1,0.9787926999852061,h,1,0.4615712999366224,0.05171529995277524,0.04993760003708303,0.10169309983029962,0.10226960014551878,0.7508244998753071
RSVPLG03,km,20260226-172608,1.0.2,20251113-095759,780,Experiment,Both,1,Automatic,main,89,20260226-173502,global,local,300,H,S,E,A,H-E.png,A-S.png,hH,sS,mask-1.png,mask-2.png,h,1,0.9284769999794662,h,0,0.09467750019393861,0.05091340001672506,0.051240700064226985,0.09973360016010702,0.10287000006064773,0.2990624001249671
RSVPLG03,km,20260226-172608,1.0.2,20251113-095759,780,Experiment,Both,1,Automatic,main,90,20260226-173507,global,global,300,H,S,A,E,H-A.png,S-E.png,hH,sS,mask-4.png,mask-2.png,s,0,1.6124234998133034,h,0,0.31906550005078316,0.048931100172922015,0.050693499855697155,0.09999710018746555,0.10044729989022017,0.29735460015945137
RSVPLG03,km,20260226-172608,1.0.2,20251113-095759,780,Experiment,Both,1,Automatic,main,91,20260226-173512,global,global,300,H,S,E,A,H-E.png,S-A.png,hH,sS,mask-2.png,mask-2.png,h,1,1.1666941000148654,s,1,0.2065890000667423,0.05001859995536506,0.05164140020497143,0.1001226999796927,0.10128430020995438,0.2989742998033762
RSVPLG03,km,20260226-172608,1.0.2,20251113-095759,780,Experiment,Both,1,Automatic,main,92,20260226-173517,local,global,750,S,H,E,A,E-S.png,H-A.png,sS,hH,mask-2.png,mask-1.png,s,1,1.5777964999433607,h,1,0.3838317000772804,0.04891930008307099,0.049910700181499124,0.09896140010096133,0.09994109999388456,0.7491401999723166
RSVPLG03,km,20260226-172608,1.0.2,20251113-095759,780,Experiment,Both,1,Automatic,main,93,20260226-173524,global,global,300,S,H,E,A,S-E.png,H-A.png,sS,hH,mask-3.png,mask-4.png,s,1,1.1437308001331985,h,1,0.3344922000542283,0.050450999988242984,0.050919500179588795,0.10057869995944202,0.10053030005656183,0.300109599949792
RSVPLG03,km,20260226-172608,1.0.2,20251113-095759,780,Experiment,Both,1,Automatic,main,94,20260226-173529,local,global,750,S,H,E,E,E-S.png,H-E.png,sS,hH,mask-4.png,mask-3.png,s,1,1.2012052999343723,s,0,0.0775844999589026,0.05042240000329912,0.049894999945536256,0.10050750011578202,0.09929150016978383,0.7501312999520451
RSVPLG03,km,20260226-172608,1.0.2,20251113-095759,780,Experiment,Both,1,Automatic,main,95,20260226-173534,local,local,750,S,S,A,E,A-S.png,E-S.png,sS,sS,mask-3.png,mask-2.png,s,1,1.0173130000475794,s,1,0.09760219999589026,0.04863830003887415,0.04915359988808632,0.09848469984717667,0.09933619992807508,0.7504588000010699
RSVPLG03,km,20260226-172608,1.0.2,20251113-095759,780,Experiment,Both,1,Automatic,main,96,20260226-173539,global,global,750,H,S,E,E,H-E.png,S-E.png,hH,sS,mask-2.png,mask-1.png,s,0,1.406999999890104,h,0,0.47941559995524585,0.050950400065630674,0.049409700091928244,0.10071970010176301,0.0999155999161303,0.7505620000883937
RSVPLG03,km,20260226-172608,1.0.2,20251113-095759,780,Experiment,Both,1,Automatic,main,97,20260226-173545,local,global,750,H,H,E,A,E-H.png,H-A.png,hH,hH,mask-2.png,mask-1.png,h,1,2.2095003998838365,h,1,0.09483500011265278,0.04859759984537959,0.05056689982302487,0.09900739998556674,0.10057389992289245,0.7477162999566644
RSVPLG03,km,20260226-172608,1.0.2,20251113-095759,780,Experiment,Both,1,Automatic,main,98,20260226-173552,global,local,750,S,H,E,E,S-E.png,E-H.png,sS,hH,mask-3.png,mask-4.png,s,1,1.135073599871248,h,1,0.4292629000265151,0.04893070016987622,0.05054179998114705,0.09899940015748143,0.0992465999443084,0.7490058001130819
RSVPLG03,km,20260226-172608,1.0.2,20251113-095759,780,Experiment,Both,1,Automatic,main,99,20260226-173557,global,global,750,S,H,A,E,S-A.png,H-E.png,sS,hH,mask-3.png,mask-1.png,h,0,1.8890095001552254,h,1,0.09640319994650781,0.05044569983147085,0.049821400083601475,0.09966950002126396,0.09973050002008677,0.7495371999684721
RSVPLG03,km,20260226-172608,1.0.2,20251113-095759,780,Experiment,Both,1,Automatic,main,100,20260226-173603,local,local,300,S,H,E,E,E-S.png,E-H.png,sS,hH,mask-3.png,mask-4.png,s,1,1.1489577998872846,h,1,0.4791534000542015,0.05134370015002787,0.05026499996893108,0.09979390003718436,0.10021810000762343,0.299953400157392
RSVPLG03,km,20260226-173641,1.0.2,20251113-095759,780,Experiment,Both,1,Automatic,warmup,1,20260226-173706,global,global,750,S,H,A,A,S-A.png,H-A.png,sS,hH,mask-2.png,mask-4.png,h,0,1.5478469000663608,h,1,0.09527960000559688,0.04271269985474646,0.04833460017107427,0.09087529988028109,0.0982607000041753,0.7426393998321146
RSVPLG03,km,20260226-173641,1.0.2,20251113-095759,780,Experiment,Both,1,Automatic,warmup,2,20260226-173712,global,local,300,S,H,A,E,S-A.png,E-H.png,sS,hH,mask-2.png,mask-1.png,s,1,1.2702240000944585,h,1,0.4448738000355661,0.04987720004282892,0.0501522000413388,0.0999171999283135,0.09980540000833571,0.29939529998227954
RSVPLG03,km,20260226-173641,1.0.2,20251113-095759,780,Experiment,Both,1,Automatic,warmup,3,20260226-173717,local,global,300,H,S,E,A,E-H.png,S-A.png,hH,sS,mask-1.png,mask-1.png,h,1,1.0631220999639481,h,0,0.06295639998279512,0.050635999999940395,0.04880380001850426,0.10026730014942586,0.10126230004243553,0.3011576000135392
RSVPLG03,km,20260226-173641,1.0.2,20251113-095759,780,Experiment,Both,1,Automatic,warmup,4,20260226-173722,local,global,750,H,H,A,E,A-H.png,H-E.png,hH,hH,mask-3.png,mask-2.png,s,0,1.1618496000301093,s,0,0.06197110004723072,0.04886769992299378,0.05060509988106787,0.09846300003118813,0.09926049993373454,0.7493380000814795
RSVPLG03,km,20260226-173641,1.0.2,20251113-095759,780,Experiment,Both,1,Automatic,main,5,20260226-173727,global,global,300,S,H,A,A,S-A.png,H-A.png,sS,hH,mask-2.png,mask-2.png,s,1,2.3468793998472393,s,0,0.1306270998902619,0.050415500067174435,0.04977759998291731,0.10072079999372363,0.09885080019012094,0.30100329988636076
RSVPLG03,km,20260226-173641,1.0.2,20251113-095759,780,Experiment,Both,1,Automatic,main,6,20260226-173733,global,global,300,S,S,A,A,S-A.png,S-A.png,sS,sS,mask-2.png,mask-2.png,h,0,2.1133853998035192,h,0,0.1309100000653416,0.05029130005277693,0.04971489985473454,0.09965469990856946,0.09943189984187484,0.30036840005777776
RSVPLG03,km,20260226-173641,1.0.2,20251113-095759,780,Experiment,Both,1,Automatic,main,7,20260226-173739,local,global,300,H,S,A,A,A-H.png,S-A.png,hH,sS,mask-2.png,mask-3.png,h,1,2.2292272998020053,h,0,0.07852940005250275,0.048004599986597896,0.04960269993171096,0.09880159981548786,0.10071809985674918,0.29847629996947944
RSVPLG03,km,20260226-173641,1.0.2,20251113-095759,780,Experiment,Both,1,Automatic,main,8,20260226-173745,global,local,300,H,H,E,A,H-E.png,A-H.png,hH,hH,mask-1.png,mask-4.png,s,0,1.3691406999714673,h,1,0.641080099856481,0.04927799990400672,0.048283099895343184,0.09862200007773936,0.09858220000751317,0.3002836999949068
RSVPLG03,km,20260226-173641,1.0.2,20251113-095759,780,Experiment,Both,1,Automatic,main,9,20260226-173751,global,global,300,H,H,A,A,H-A.png,H-A.png,hH,hH,mask-4.png,mask-3.png,h,1,1.514708000002429,h,1,0.0953138000331819,0.04907000018283725,0.04877580003812909,0.09915450005792081,0.09994830004870892,0.30055909999646246
RSVPLG03,km,20260226-173641,1.0.2,20251113-095759,780,Experiment,Both,1,Automatic,main,10,20260226-173756,global,global,750,S,H,E,A,S-E.png,H-A.png,sS,hH,mask-1.png,mask-1.png,s,1,1.426917799981311,h,1,0.6419282001443207,0.05186510016210377,0.049873200012370944,0.10027010017074645,0.10101150022819638,0.7509624999947846
RSVPLG03,km,20260226-173641,1.0.2,20251113-095759,780,Experiment,Both,1,Automatic,main,11,20260226-173802,local,global,300,S,H,E,E,E-S.png,H-E.png,sS,hH,mask-4.png,mask-2.png,s,1,1.6703468998894095,h,1,0.3024800999555737,0.04897490004077554,0.04973049997352064,0.09975850000046194,0.09998750011436641,0.2993592000566423
RSVPLG03,km,20260226-173641,1.0.2,20251113-095759,780,Experiment,Both,1,Automatic,main,12,20260226-173808,global,global,750,S,S,A,E,S-A.png,S-E.png,sS,sS,mask-2.png,mask-4.png,h,0,1.310529600130394,h,0,0.03071950003504753,0.05051510012708604,0.04952419991604984,0.09971260000020266,0.10005469992756844,0.7509958001319319
RSVPLG03,km,20260226-173641,1.0.2,20251113-095759,780,Experiment,Both,1,Automatic,main,13,20260226-173813,local,local,300,H,H,E,E,E-H.png,E-H.png,hH,hH,mask-2.png,mask-1.png,h,1,1.4793978000525385,h,1,0.12611460010521114,0.04964870004914701,0.04849190008826554,0.10022639995440841,0.09938780008815229,0.3011417998932302
RSVPLG03,km,20260226-173641,1.0.2,20251113-095759,780,Experiment,Both,1,Automatic,main,14,20260226-173819,local,global,750,S,H,A,E,A-S.png,H-E.png,sS,hH,mask-2.png,mask-1.png,s,1,1.3157422000076622,h,1,0.4968793001025915,0.05052860011346638,0.04889109986834228,0.09983890014700592,0.09910459979437292,0.7504472001455724
RSVPLG03,km,20260226-173641,1.0.2,20251113-095759,780,Experiment,Both,1,Automatic,main,15,20260226-173825,local,local,300,S,S,E,E,E-S.png,E-S.png,sS,sS,mask-1.png,mask-4.png,s,1,2.016154499957338,h,0,0.014523399993777275,0.04882169980555773,0.04876430006697774,0.09868879988789558,0.0991424999665469,0.29975809995085
RSVPLG03,km,20260226-173641,1.0.2,20251113-095759,780,Experiment,Both,1,Automatic,main,16,20260226-173830,global,local,300,S,H,E,A,S-E.png,A-H.png,sS,hH,mask-2.png,mask-4.png,s,1,1.5353136998601258,h,1,1.6474522999487817,0.04963580006733537,0.0485918999183923,0.09940159996040165,0.10007469984702766,0.2996861001010984
RSVPLG03,km,20260226-173641,1.0.2,20251113-095759,780,Experiment,Both,1,Automatic,main,17,20260226-173836,global,global,750,H,H,A,A,H-A.png,H-A.png,hH,hH,mask-1.png,mask-2.png,h,1,0.5156480998266488,h,1,0.09563610004261136,0.04985259985551238,0.04998749983496964,0.10091129993088543,0.1009740000590682,0.7494183999951929
RSVPLG03,km,20260226-173641,1.0.2,20251113-095759,780,Experiment,Both,1,Automatic,main,18,20260226-173840,global,local,300,S,H,E,A,S-E.png,A-H.png,sS,hH,mask-1.png,mask-1.png,s,1,0.772470299853012,s,0,0.11078119999729097,0.049501199973747134,0.04989170003682375,0.0990323000587523,0.09928940003737807,0.2992000998929143
RSVPLG03,km,20260226-173641,1.0.2,20251113-095759,780,Experiment,Both,1,Automatic,main,19,20260226-173845,global,global,300,S,S,E,A,S-E.png,S-A.png,sS,sS,mask-1.png,mask-1.png,s,1,1.0496777000371367,s,1,0.09571960009634495,0.04866759991273284,0.04913449985906482,0.0995587999932468,0.0980702000670135,0.3002736000344157
RSVPLG03,km,20260226-173641,1.0.2,20251113-095759,780,Experiment,Both,1,Automatic,main,20,20260226-173850,local,global,750,S,H,E,A,E-S.png,H-A.png,sS,hH,mask-2.png,mask-2.png,s,1,0.8800039000343531,h,1,0.08163830009289086,0.0498993000946939,0.05089569999836385,0.09969209996052086,0.10097180004231632,0.7501683998852968
RSVPLG03,km,20260226-173641,1.0.2,20251113-095759,780,Experiment,Both,1,Automatic,main,21,20260226-173855,local,local,750,S,H,A,E,A-S.png,E-H.png,sS,hH,mask-3.png,mask-4.png,s,1,0.5494673999492079,h,1,0.1249892998021096,0.04922929988242686,0.04990489990450442,0.09871649998240173,0.09885869990102947,0.7506846999749541
RSVPLG03,km,20260226-173641,1.0.2,20251113-095759,780,Experiment,Both,1,Automatic,main,22,20260226-173900,global,local,750,H,H,A,E,H-A.png,E-H.png,hH,hH,mask-4.png,mask-4.png,h,1,0.9558327000122517,h,1,0.11361850006505847,0.049290299881249666,0.04938800004310906,0.098950200015679,0.09918679995462298,0.7501856000162661
RSVPLG03,km,20260226-173641,1.0.2,20251113-095759,780,Experiment,Both,1,Automatic,main,23,20260226-173905,global,global,300,H,H,A,E,H-A.png,H-E.png,hH,hH,mask-3.png,mask-1.png,h,1,0.6440630001015961,h,1,0.08134969999082386,0.05163699993863702,0.04888130002655089,0.10090070008300245,0.09915020014159381,0.30137689993716776
RSVPLG03,km,20260226-173641,1.0.2,20251113-095759,780,Experiment,Both,1,Automatic,main,24,20260226-173909,local,global,300,H,S,A,A,A-H.png,S-A.png,hH,sS,mask-4.png,mask-2.png,h,1,0.8923851000145078,h,0,0.0957388998940587,0.0513476999476552,0.0494208000600338,0.09987090015783906,0.10054780007340014,0.3007588000036776
RSVPLG03,km,20260226-173641,1.0.2,20251113-095759,780,Experiment,Both,1,Automatic,main,25,20260226-173914,global,global,750,S,H,E,A,S-E.png,H-A.png,sS,hH,mask-3.png,mask-1.png,s,1,0.8325120999943465,h,1,0.07954429998062551,0.04979249997995794,0.05158589989878237,0.09855450014583766,0.10229459987021983,0.7484145001508296
RSVPLG03,km,20260226-173641,1.0.2,20251113-095759,780,Experiment,Both,1,Automatic,main,26,20260226-173921,global,local,750,H,H,A,E,H-A.png,E-H.png,hH,hH,mask-1.png,mask-3.png,h,1,0.6127382998820394,h,1,0.09254969982430339,0.04987089987844229,0.04994509997777641,0.0998356998898089,0.09954839991405606,0.7500903999898583
RSVPLG03,km,20260226-173641,1.0.2,20251113-095759,780,Experiment,Both,1,Automatic,main,27,20260226-173926,local,global,750,H,S,A,E,A-H.png,S-E.png,hH,sS,mask-2.png,mask-1.png,h,1,1.848061400000006,h,0,0.1433174000121653,0.049930299865081906,0.048844899982213974,0.09994499990716577,0.09900379995815456,0.7504199000541121
RSVPLG03,km,20260226-173641,1.0.2,20251113-095759,780,Experiment,Both,1,Automatic,main,28,20260226-173932,local,local,750,S,S,E,A,E-S.png,A-S.png,sS,sS,mask-1.png,mask-2.png,s,1,0.358245300129056,s,1,0.09506630012765527,0.04945839988067746,0.05151009978726506,0.0986351000610739,0.10076359985396266,0.7487375000491738
RSVPLG03,km,20260226-173641,1.0.2,20251113-095759,780,Experiment,Both,1,Automatic,main,29,20260226-173937,global,global,750,S,H,E,E,S-E.png,H-E.png,sS,hH,mask-1.png,mask-2.png,s,1,0.7020051998551935,h,1,0.02954480005428195,0.04961910005658865,0.04903269978240132,0.10072510014288127,0.09912529983557761,0.7527706001419574
RSVPLG03,km,20260226-173641,1.0.2,20251113-095759,780,Experiment,Both,1,Automatic,main,30,20260226-173942,global,global,300,S,S,A,E,S-A.png,S-E.png,sS,sS,mask-4.png,mask-1.png,s,1,0.44868410006165504,s,1,0.06110990000888705,0.049708399921655655,0.04892600001767278,0.09969449997879565,0.09877629997208714,0.30072739999741316
RSVPLG03,km,20260226-173641,1.0.2,20251113-095759,780,Experiment,Both,1,Automatic,main,31,20260226-173946,local,global,300,S,H,E,E,E-S.png,H-E.png,sS,hH,mask-1.png,mask-3.png,s,1,1.1134774000383914,h,1,0.04620199999772012,0.04945979989133775,0.04941210011020303,0.09875410003587604,0.09970459993928671,0.2998478999361396
RSVPLG03,km,20260226-173641,1.0.2,20251113-095759,780,Experiment,Both,1,Automatic,main,32,20260226-173951,local,global,300,H,S,E,A,E-H.png,S-A.png,hH,sS,mask-2.png,mask-3.png,s,0,0.4962200000882149,h,0,1.1985748000442982,0.05000560008920729,0.04972020001150668,0.09898609993979335,0.100835399935022,0.2989405000116676
RSVPLG03,km,20260226-173641,1.0.2,20251113-095759,780,Experiment,Both,1,Automatic,main,33,20260226-173956,local,global,750,H,H,E,E,E-H.png,H-E.png,hH,hH,mask-1.png,mask-2.png,h,1,2.3140002000145614,h,1,0.11065869987942278,0.0492571999784559,0.051658400101587176,0.099790999898687,0.09964610007591546,0.7496068999171257
RSVPLG03,km,20260226-173641,1.0.2,20251113-095759,780,Experiment,Both,1,Automatic,main,34,20260226-174003,global,global,300,H,H,E,A,H-E.png,H-A.png,hH,hH,mask-2.png,mask-2.png,h,1,1.5487660001963377,h,1,0.07930439990013838,0.04940709983929992,0.048620799789205194,0.09995389985851943,0.10011819982901216,0.30073120002634823
RSVPLG03,km,20260226-173641,1.0.2,20251113-095759,780,Experiment,Both,1,Automatic,main,35,20260226-174008,local,global,300,S,H,E,A,E-S.png,H-A.png,sS,hH,mask-4.png,mask-1.png,s,1,0.8928180998191237,h,1,0.03261130000464618,0.049221300054341555,0.05009170016273856,0.09957489999942482,0.09929429995827377,0.3000129999127239
RSVPLG03,km,20260226-173641,1.0.2,20251113-095759,780,Experiment,Both,1,Automatic,main,36,20260226-174013,local,local,300,H,S,A,A,A-H.png,A-S.png,hH,sS,mask-3.png,mask-1.png,h,1,0.9916182002052665,s,1,0.04673430020920932,0.04979199985973537,0.05063730012625456,0.0997061999514699,0.09877489996142685,0.29916179995052516
RSVPLG03,km,20260226-173641,1.0.2,20251113-095759,780,Experiment,Both,1,Automatic,main,37,20260226-174018,local,local,300,S,H,A,E,A-S.png,E-H.png,sS,hH,mask-1.png,mask-3.png,s,1,1.0030759999062866,h,1,0.07768330001272261,0.05091509991325438,0.04845699993893504,0.0997297998983413,0.09938820009119809,0.3014801999088377
RSVPLG03,km,20260226-173641,1.0.2,20251113-095759,780,Experiment,Both,1,Automatic,main,38,20260226-174022,local,global,750,S,H,E,E,E-S.png,H-E.png,sS,hH,mask-1.png,mask-4.png,h,0,1.4998391999397427,h,1,0.10891489987261593,0.05035050003789365,0.0504018000792712,0.09960899990983307,0.10196500015445054,0.7489926998969167
RSVPLG03,km,20260226-173641,1.0.2,20251113-095759,780,Experiment,Both,1,Automatic,main,39,20260226-174028,global,global,300,H,H,E,A,H-E.png,H-A.png,hH,hH,mask-3.png,mask-4.png,s,0,0.9847466999199241,h,1,0.016507900087162852,0.04984700004570186,0.049302699975669384,0.09971380000934005,0.1007449000608176,0.3002402000129223
RSVPLG03,km,20260226-173641,1.0.2,20251113-095759,780,Experiment,Both,1,Automatic,main,40,20260226-174033,global,global,300,H,H,A,A,H-A.png,H-A.png,hH,hH,mask-3.png,mask-4.png,h,1,0.5410076999105513,h,1,0.09236859995871782,0.05070879985578358,0.05042329989373684,0.09954329999163747,0.09969529998488724,0.30097640003077686
RSVPLG03,km,20260226-173641,1.0.2,20251113-095759,780,Experiment,Both,1,Automatic,main,41,20260226-174037,global,local,300,H,S,A,E,H-A.png,E-S.png,hH,sS,mask-3.png,mask-4.png,h,1,0.8292819999624044,h,0,0.11388049996457994,0.04905929998494685,0.05008030007593334,0.09920120006427169,0.10050470009446144,0.2993040999863297
RSVPLG03,km,20260226-173641,1.0.2,20251113-095759,780,Experiment,Both,1,Automatic,main,42,20260226-174042,global,global,300,S,S,A,E,S-A.png,S-E.png,sS,sS,mask-2.png,mask-1.png,s,1,0.9022154998965561,s,1,0.094418799970299,0.04957940010353923,0.04957740008831024,0.0984050000552088,0.10038310009986162,0.29870370007120073
RSVPLG03,km,20260226-173641,1.0.2,20251113-095759,780,Experiment,Both,1,Automatic,main,43,20260226-174046,global,local,750,S,S,E,A,S-E.png,A-S.png,sS,sS,mask-4.png,mask-3.png,s,1,1.0110986998770386,h,0,0.04529880010522902,0.04893930000253022,0.0503664999268949,0.09972479986026883,0.10078420001082122,0.7484893999062479
RSVPLG03,km,20260226-173641,1.0.2,20251113-095759,780,Experiment,Both,1,Automatic,main,44,20260226-174052,local,local,750,S,S,A,A,A-S.png,A-S.png,sS,sS,mask-4.png,mask-1.png,s,1,0.7445084999781102,s,1,0.11032159999012947,0.05089759989641607,0.05046369996853173,0.10078580002300441,0.1009508001152426,0.7493217999581248
RSVPLG03,km,20260226-173641,1.0.2,20251113-095759,780,Experiment,Both,1,Automatic,main,45,20260226-174057,global,local,750,S,S,E,E,S-E.png,E-S.png,sS,sS,mask-3.png,mask-1.png,s,1,0.94640769995749,s,1,0.11060250014998019,0.05104369996115565,0.050083199981600046,0.10115440003573895,0.0997878999914974,0.7502977000549436
RSVPLG03,km,20260226-173641,1.0.2,20251113-095759,780,Experiment,Both,1,Automatic,main,46,20260226-174102,global,local,750,S,H,A,E,S-A.png,E-H.png,sS,hH,mask-3.png,mask-2.png,s,1,0.7314316998235881,s,0,0.06353619997389615,0.05076620006002486,0.049037700053304434,0.1025048999581486,0.10033370018936694,0.7526640999130905
RSVPLG03,km,20260226-173641,1.0.2,20251113-095759,780,Experiment,Both,1,Automatic,main,47,20260226-174107,global,local,750,S,S,E,A,S-E.png,A-S.png,sS,sS,mask-4.png,mask-3.png,s,1,0.9881164999678731,h,0,0.30250529991462827,0.04879509983584285,0.04914340004324913,0.09936079988256097,0.09908369998447597,0.7498045999091119
RSVPLG03,km,20260226-173641,1.0.2,20251113-095759,780,Experiment,Both,1,Automatic,main,48,20260226-174112,global,global,750,H,H,A,A,H-A.png,H-A.png,hH,hH,mask-1.png,mask-2.png,h,1,0.8060723000671715,h,1,0.07702319999225438,0.05142380017787218,0.04985079984180629,0.10205670003779233,0.0998732999432832,0.7514779001940042
RSVPLG03,km,20260226-173641,1.0.2,20251113-095759,780,Experiment,Both,1,Automatic,main,49,20260226-174117,local,global,300,H,S,E,A,E-H.png,S-A.png,hH,sS,mask-2.png,mask-4.png,h,1,0.7074635000899434,h,0,0.09837420005351305,0.04920489992946386,0.04962960002012551,0.09962310013361275,0.10005169990472496,0.29970570001751184
RSVPLG03,km,20260226-173641,1.0.2,20251113-095759,780,Experiment,Both,1,Automatic,main,50,20260226-174122,global,global,750,S,S,E,E,S-E.png,S-E.png,sS,sS,mask-4.png,mask-2.png,s,1,0.5809408999048173,s,1,0.10955949989147484,0.0492811999283731,0.04982990003190935,0.09924080013297498,0.09975609998218715,0.7491427001077682
RSVPLG03,km,20260226-173641,1.0.2,20251113-095759,780,Experiment,Both,1,Automatic,main,51,20260226-174130,global,local,300,S,S,E,E,S-E.png,E-S.png,sS,sS,mask-4.png,mask-3.png,s,1,0.4625917000230402,s,1,0.06347729987464845,0.051957299932837486,0.050810900051146746,0.10143080004490912,0.10001690010540187,0.29994279984384775
RSVPLG03,km,20260226-173641,1.0.2,20251113-095759,780,Experiment,Both,1,Automatic,main,52,20260226-174135,global,local,300,H,H,A,A,H-A.png,A-H.png,hH,hH,mask-4.png,mask-4.png,h,1,0.37898529996164143,h,1,0.09403380006551743,0.04830609983764589,0.04864880000241101,0.09833929990418255,0.10090139997191727,0.2988282998558134
RSVPLG03,km,20260226-173641,1.0.2,20251113-095759,780,Experiment,Both,1,Automatic,main,53,20260226-174139,local,local,750,S,H,A,E,A-S.png,E-H.png,sS,hH,mask-4.png,mask-2.png,s,1,0.9393144000787288,h,1,0.0930172000080347,0.051135299960151315,0.04897050000727177,0.10087509988807142,0.09847820014692843,0.7515993998385966
RSVPLG03,km,20260226-173641,1.0.2,20251113-095759,780,Experiment,Both,1,Automatic,main,54,20260226-174144,local,global,750,S,H,A,E,A-S.png,H-E.png,sS,hH,mask-3.png,mask-2.png,s,1,0.772831899812445,h,1,0.015134099870920181,0.05017670011147857,0.05125709995627403,0.09969460009597242,0.10169770009815693,0.748668699990958
RSVPLG03,km,20260226-173641,1.0.2,20251113-095759,780,Experiment,Both,1,Automatic,main,55,20260226-174149,local,local,300,S,S,E,E,E-S.png,E-S.png,sS,sS,mask-1.png,mask-2.png,s,1,0.9398493999615312,h,0,1.0999477999284863,0.04960840009152889,0.050165400141850114,0.09987940010614693,0.10001030005514622,0.3004666999913752
RSVPLG03,km,20260226-173641,1.0.2,20251113-095759,780,Experiment,Both,1,Automatic,main,56,20260226-174154,global,local,750,H,S,E,A,H-E.png,A-S.png,hH,sS,mask-3.png,mask-3.png,h,1,0.7739115001168102,h,0,0.09552199998870492,0.04921480012126267,0.048592499922961,0.10093740001320839,0.09837669995613396,0.7513002001214772
RSVPLG03,km,20260226-173641,1.0.2,20251113-095759,780,Experiment,Both,1,Automatic,main,57,20260226-174159,local,local,750,S,S,A,A,A-S.png,A-S.png,sS,sS,mask-3.png,mask-2.png,s,1,0.5324478999245912,s,1,0.07845390005968511,0.05143049987964332,0.04885320016182959,0.10141389979980886,0.09937800001353025,0.7512629998382181
RSVPLG03,km,20260226-173641,1.0.2,20251113-095759,780,Experiment,Both,1,Automatic,main,58,20260226-174203,global,global,750,S,S,A,A,S-A.png,S-A.png,sS,sS,mask-2.png,mask-1.png,s,1,0.5343543000053614,s,1,0.11180730001069605,0.051047699991613626,0.04895969992503524,0.09931780002079904,0.10025909985415637,0.7505679000169039
RSVPLG03,km,20260226-173641,1.0.2,20251113-095759,780,Experiment,Both,1,Automatic,main,59,20260226-174208,local,local,300,S,S,E,E,E-S.png,E-S.png,sS,sS,mask-3.png,mask-4.png,s,1,1.7391277998685837,s,1,0.1094617999624461,0.048993000062182546,0.05144560011103749,0.09921100013889372,0.10197160020470619,0.2975288999732584
RSVPLG03,km,20260226-173641,1.0.2,20251113-095759,780,Experiment,Both,1,Automatic,main,60,20260226-174214,global,global,750,H,S,A,E,H-A.png,S-E.png,hH,sS,mask-4.png,mask-2.png,h,1,2.1597735001705587,s,1,0.04645249992609024,0.05097909993492067,0.04894370003603399,0.10109899984672666,0.09781270008534193,0.7517724998760968
RSVPLG03,km,20260226-173641,1.0.2,20251113-095759,780,Experiment,Both,1,Automatic,main,61,20260226-174220,local,global,300,S,S,E,E,E-S.png,S-E.png,sS,sS,mask-3.png,mask-1.png,s,1,0.7821313999593258,h,0,0.9423535999376327,0.04953070008195937,0.051432899897918105,0.09938350017182529,0.10217209998518229,0.29856590018607676
RSVPLG03,km,20260226-173641,1.0.2,20251113-095759,780,Experiment,Both,1,Automatic,main,62,20260226-174225,global,local,300,H,S,E,E,H-E.png,E-S.png,hH,sS,mask-4.png,mask-4.png,h,1,1.818995000096038,h,0,0.0959067998919636,0.049433300038799644,0.05036380002275109,0.09997930005192757,0.10025659995153546,0.2988963001407683
RSVPLG03,km,20260226-173641,1.0.2,20251113-095759,780,Experiment,Both,1,Automatic,main,63,20260226-174230,global,local,750,S,H,A,E,S-A.png,E-H.png,sS,hH,mask-1.png,mask-1.png,s,1,1.8147782001178712,h,1,1.9587634999770671,0.049438999965786934,0.048868199810385704,0.0998458000831306,0.09946559998206794,0.7502447001170367
RSVPLG03,km,20260226-173641,1.0.2,20251113-095759,780,Experiment,Both,1,Automatic,main,64,20260226-174236,global,local,300,S,H,E,E,S-E.png,E-H.png,sS,hH,mask-4.png,mask-3.png,h,0,0.7930134998168796,h,1,0.09759469982236624,0.047483500093221664,0.04954729997552931,0.09706550021655858,0.10010530008003116,0.2982747000642121
RSVPLG03,km,20260226-173641,1.0.2,20251113-095759,780,Experiment,Both,1,Automatic,main,65,20260226-174241,local,global,750,S,S,E,E,E-S.png,S-E.png,sS,sS,mask-4.png,mask-1.png,s,1,1.0021063999738544,h,0,0.032013900112360716,0.04894060012884438,0.04973300010897219,0.09994029998779297,0.10140260006301105,0.7497113000135869
RSVPLG03,km,20260226-173641,1.0.2,20251113-095759,780,Experiment,Both,1,Automatic,main,66,20260226-174246,local,local,300,H,S,E,A,E-H.png,A-S.png,hH,sS,mask-1.png,mask-4.png,h,1,0.6227563000284135,s,1,2.749599900096655,0.050322300055995584,0.04663080000318587,0.10077030002139509,0.09715869999490678,0.3036580001935363
RSVPLG03,km,20260226-173641,1.0.2,20251113-095759,780,Experiment,Both,1,Automatic,main,67,20260226-174253,local,global,750,S,H,E,A,E-S.png,H-A.png,sS,hH,mask-3.png,mask-1.png,s,1,0.5263719998765737,h,1,0.031241999939084053,0.050424200017005205,0.04983130004256964,0.10121389990672469,0.09950340003706515,0.7512576999142766
RSVPLG03,km,20260226-173641,1.0.2,20251113-095759,780,Experiment,Both,1,Automatic,main,68,20260226-174258,local,local,750,H,S,E,A,E-H.png,A-S.png,hH,sS,mask-3.png,mask-4.png,h,1,0.2626334000378847,s,1,-1.6900012269616127e-05,0.04875519988127053,0.04930360009893775,0.09867489989846945,0.10067400010302663,0.7489564998541027
RSVPLG03,km,20260226-173641,1.0.2,20251113-095759,780,Experiment,Both,1,Automatic,main,69,20260226-174302,global,local,750,S,H,E,A,S-E.png,A-H.png,sS,hH,mask-2.png,mask-1.png,s,1,1.300113799981773,h,1,1.4282113001681864,0.049890900030732155,0.05095760012045503,0.10023179999552667,0.10132730007171631,0.7510146000422537
RSVPLG03,km,20260226-173641,1.0.2,20251113-095759,780,Experiment,Both,1,Automatic,main,70,20260226-174308,local,global,750,S,S,A,A,A-S.png,S-A.png,sS,sS,mask-1.png,mask-4.png,s,1,0.5420601998921484,h,0,0.02997620007954538,0.04881850001402199,0.04919399996288121,0.09958439995534718,0.09911879990249872,0.7492621000856161
RSVPLG03,km,20260226-173641,1.0.2,20251113-095759,780,Experiment,Both,1,Automatic,main,71,20260226-174313,local,local,750,S,S,A,E,A-S.png,E-S.png,sS,sS,mask-4.png,mask-2.png,s,1,1.1966671000700444,s,1,0.11166439997032285,0.04886250011622906,0.04919379996135831,0.09882430010475218,0.09891519998200238,0.7497618000488728
RSVPLG03,km,20260226-173641,1.0.2,20251113-095759,780,Experiment,Both,1,Automatic,main,72,20260226-174318,local,global,300,S,S,A,E,A-S.png,S-E.png,sS,sS,mask-3.png,mask-3.png,s,1,0.6052935998886824,h,0,1.0229575999546796,0.048785800114274025,0.04917909996584058,0.09927699994295835,0.1001214999705553,0.2995106999296695
RSVPLG03,km,20260226-173641,1.0.2,20251113-095759,780,Experiment,Both,1,Automatic,main,73,20260226-174323,global,local,750,S,S,E,E,S-E.png,E-S.png,sS,sS,mask-4.png,mask-3.png,s,1,1.242369200102985,s,1,0.07823129999451339,0.050936299841850996,0.04921140009537339,0.10111469984985888,0.0999741000123322,0.7514362998772413
RSVPLG03,km,20260226-173641,1.0.2,20251113-095759,780,Experiment,Both,1,Automatic,main,74,20260226-174329,global,global,750,S,S,A,A,S-A.png,S-A.png,sS,sS,mask-3.png,mask-3.png,s,1,0.6389872999861836,s,1,0.09613549988716841,0.04988280008547008,0.04953350010327995,0.10316989989951253,0.10078540001995862,0.7503323999699205
RSVPLG03,km,20260226-173641,1.0.2,20251113-095759,780,Experiment,Both,1,Automatic,main,75,20260226-174334,global,local,750,S,H,E,E,S-E.png,E-H.png,sS,hH,mask-4.png,mask-4.png,s,1,0.593863100046292,h,1,1.2947504001203924,0.04974709986709058,0.049144300166517496,0.10078429989516735,0.09962610015645623,0.749806699808687
RSVPLG03,km,20260226-173641,1.0.2,20251113-095759,780,Experiment,Both,1,Automatic,main,76,20260226-174342,global,local,300,H,S,A,A,H-A.png,A-S.png,hH,sS,mask-1.png,mask-3.png,h,1,0.5309245001990348,h,0,0.06365509983152151,0.049034500028938055,0.04991839989088476,0.09884719992987812,0.10050439997576177,0.29896960011683404
RSVPLG03,km,20260226-173641,1.0.2,20251113-095759,780,Experiment,Both,1,Automatic,main,77,20260226-174346,local,local,300,H,S,E,A,E-H.png,A-S.png,hH,sS,mask-4.png,mask-4.png,h,1,0.7060916000045836,s,1,0.03277419996447861,0.04991669999435544,0.04896669997833669,0.10103260003961623,0.09872310003265738,0.3009728000033647
RSVPLG03,km,20260226-173641,1.0.2,20251113-095759,780,Experiment,Both,1,Automatic,main,78,20260226-174351,local,global,750,H,S,E,A,E-H.png,S-A.png,hH,sS,mask-1.png,mask-3.png,h,1,0.47760559991002083,s,1,0.5897999999579042,0.05052009993232787,0.05027880007401109,0.1020359001122415,0.09919600002467632,0.7520425000693649
RSVPLG03,km,20260226-173641,1.0.2,20251113-095759,780,Experiment,Both,1,Automatic,main,79,20260226-174355,local,local,750,H,H,A,A,A-H.png,A-H.png,hH,hH,mask-2.png,mask-4.png,h,1,0.40146109997294843,h,1,0.06254959991201758,0.049926300067454576,0.04892380000092089,0.09991000010631979,0.09841919993050396,0.7501988001167774
RSVPLG03,km,20260226-173641,1.0.2,20251113-095759,780,Experiment,Both,1,Automatic,main,80,20260226-174400,local,local,750,S,H,A,E,A-S.png,E-H.png,sS,hH,mask-4.png,mask-4.png,h,0,0.44118060008622706,h,1,1.4707639999687672,0.0487979999743402,0.049563199980184436,0.09975160006433725,0.10033669997937977,0.7501469999551773
RSVPLG03,km,20260226-173641,1.0.2,20251113-095759,780,Experiment,Both,1,Automatic,main,81,20260226-174406,local,global,300,H,S,E,E,E-H.png,S-E.png,hH,sS,mask-1.png,mask-1.png,s,0,0.8784962000790983,h,0,1.0226139000151306,0.0503091998398304,0.05028369999490678,0.09967379993759096,0.09964910009875894,0.3003485999070108
RSVPLG03,km,20260226-173641,1.0.2,20251113-095759,780,Experiment,Both,1,Automatic,main,82,20260226-174411,local,local,750,S,S,A,A,A-S.png,A-S.png,sS,sS,mask-2.png,mask-1.png,s,1,0.48939340002834797,s,1,0.07767900009639561,0.050994500052183867,0.04895920003764331,0.09995359997265041,0.09991280012764037,0.7517772999126464
RSVPLG03,km,20260226-173641,1.0.2,20251113-095759,780,Experiment,Both,1,Automatic,main,83,20260226-174416,local,local,750,S,S,A,E,A-S.png,E-S.png,sS,sS,mask-2.png,mask-2.png,s,1,0.34190639993175864,s,1,0.09472170006483793,0.05018099979497492,0.05026619997806847,0.09977259999141097,0.09989450010471046,0.7498297998681664
RSVPLG03,km,20260226-173641,1.0.2,20251113-095759,780,Experiment,Both,1,Automatic,main,84,20260226-174420,local,global,300,H,H,A,E,A-H.png,H-E.png,hH,hH,mask-3.png,mask-1.png,h,1,1.3745464000385255,h,1,0.07800520001910627,0.05102630006149411,0.04985050018876791,0.09996680007316172,0.09925299999304116,0.30171089991927147
RSVPLG03,km,20260226-173641,1.0.2,20251113-095759,780,Experiment,Both,1,Automatic,main,85,20260226-174425,global,global,300,H,S,E,E,H-E.png,S-E.png,hH,sS,mask-4.png,mask-3.png,h,1,0.6136467000469565,s,1,0.04616399994120002,0.05110660009086132,0.05012829997576773,0.10090820002369583,0.09815480001270771,0.3013588001485914
RSVPLG03,km,20260226-173641,1.0.2,20251113-095759,780,Experiment,Both,1,Automatic,main,86,20260226-174430,local,local,300,S,S,E,A,E-S.png,A-S.png,sS,sS,mask-4.png,mask-2.png,s,1,1.2491200000513345,h,0,1.377106900094077,0.05019499990157783,0.048656499944627285,0.09936370002105832,0.10013379994779825,0.3008510998915881
RSVPLG03,km,20260226-173641,1.0.2,20251113-095759,780,Experiment,Both,1,Automatic,main,87,20260226-174435,global,global,750,H,S,A,A,H-A.png,S-A.png,hH,sS,mask-1.png,mask-1.png,h,1,1.9528737000655383,s,1,0.014517700066789985,0.05002039996907115,0.04905739985406399,0.09834100003354251,0.09886169992387295,0.7496752999722958
RSVPLG03,km,20260226-173641,1.0.2,20251113-095759,780,Experiment,Both,1,Automatic,main,88,20260226-174441,local,local,300,S,H,A,E,A-S.png,E-H.png,sS,hH,mask-3.png,mask-1.png,s,1,0.9562601000070572,h,1,0.029547799844294786,0.04952850006520748,0.051487100077793,0.09916280000470579,0.10008940007537603,0.29816100001335144
RSVPLG03,km,20260226-173641,1.0.2,20251113-095759,780,Experiment,Both,1,Automatic,main,89,20260226-174446,global,local,300,H,S,A,A,H-A.png,A-S.png,hH,sS,mask-2.png,mask-4.png,h,1,0.6056179001461715,h,0,0.07953640003688633,0.04895250010304153,0.050560600124299526,0.10059659997932613,0.10020190011709929,0.2993795999791473
RSVPLG03,km,20260226-173641,1.0.2,20251113-095759,780,Experiment,Both,1,Automatic,main,90,20260226-174450,local,local,300,S,H,A,A,A-S.png,A-H.png,sS,hH,mask-1.png,mask-1.png,s,1,0.8985196999274194,h,1,0.017225399846211076,0.04955039988271892,0.04975990019738674,0.09991379990242422,0.10130050010047853,0.2989148998167366
RSVPLG03,km,20260226-173641,1.0.2,20251113-095759,780,Experiment,Both,1,Automatic,main,91,20260226-174455,local,local,300,H,H,A,E,A-H.png,E-H.png,hH,hH,mask-4.png,mask-3.png,h,1,0.7337063001468778,s,0,0.03152690012939274,0.04986250004731119,0.050779299810528755,0.09963960014283657,0.10078300000168383,0.2995636002160609
RSVPLG03,km,20260226-173641,1.0.2,20251113-095759,780,Experiment,Both,1,Automatic,main,92,20260226-174459,global,global,750,S,S,A,E,S-A.png,S-E.png,sS,sS,mask-4.png,mask-1.png,s,1,0.3591755998786539,s,1,0.08118600002489984,0.049016600009053946,0.05191260017454624,0.09901820006780326,0.10206920001655817,0.7484327999409288
RSVPLG03,km,20260226-173641,1.0.2,20251113-095759,780,Experiment,Both,1,Automatic,main,93,20260226-174504,global,local,300,H,H,E,E,H-E.png,E-H.png,hH,hH,mask-3.png,mask-4.png,h,1,0.6594404000788927,h,1,0.22477470012381673,0.04971130006015301,0.05016830004751682,0.10147639992646873,0.09956600004807115,0.300281299976632
RSVPLG03,km,20260226-173641,1.0.2,20251113-095759,780,Experiment,Both,1,Automatic,main,94,20260226-174508,global,local,300,H,H,A,E,H-A.png,E-H.png,hH,hH,mask-3.png,mask-4.png,h,1,0.4992317999713123,s,0,0.016145099885761738,0.048533499939367175,0.04818419995717704,0.09852429991587996,0.09819209994748235,0.3003895999863744
RSVPLG03,km,20260226-173641,1.0.2,20251113-095759,780,Experiment,Both,1,Automatic,main,95,20260226-174513,local,global,750,S,H,A,E,A-S.png,H-E.png,sS,hH,mask-3.png,mask-4.png,s,1,0.7002429999411106,h,1,0.032542499946430326,0.046507300110533834,0.049446600023657084,0.09655300015583634,0.09942250000312924,0.7471521000843495
RSVPLG03,km,20260226-173641,1.0.2,20251113-095759,780,Experiment,Both,1,Automatic,main,96,20260226-174518,local,local,750,S,H,E,A,E-S.png,A-H.png,sS,hH,mask-3.png,mask-2.png,s,1,0.6226268999744207,h,1,0.015144100179895759,0.05091629992239177,0.048312699887901545,0.10086230002343655,0.09905739990063012,0.7516197001095861
RSVPLG03,km,20260226-173641,1.0.2,20251113-095759,780,Experiment,Both,1,Automatic,main,97,20260226-174522,local,global,300,S,H,E,A,E-S.png,H-A.png,sS,hH,mask-1.png,mask-3.png,s,1,0.6951093000825495,s,0,0.12669490021653473,0.05098289996385574,0.049135500099509954,0.10007339995354414,0.09967699996195734,0.30229649995453656
RSVPLG03,km,20260226-173641,1.0.2,20251113-095759,780,Experiment,Both,1,Automatic,main,98,20260226-174527,local,global,750,H,H,E,A,E-H.png,H-A.png,hH,hH,mask-1.png,mask-2.png,h,1,0.8594911000691354,h,1,0.1433846999425441,0.049173499923199415,0.05088519980199635,0.10112949996255338,0.09984139981679618,0.750321300001815
RSVPLG03,km,20260226-173641,1.0.2,20251113-095759,780,Experiment,Both,1,Automatic,main,99,20260226-174532,global,global,300,H,H,A,A,H-A.png,H-A.png,hH,hH,mask-2.png,mask-2.png,h,1,0.5122821999248117,h,1,0.12734350003302097,0.04985489998944104,0.05034009995870292,0.10057020001113415,0.10019579995423555,0.30006609996780753
RSVPLG03,km,20260226-173641,1.0.2,20251113-095759,780,Experiment,Both,1,Automatic,main,100,20260226-174536,global,local,750,H,S,A,E,H-A.png,E-S.png,hH,sS,mask-2.png,mask-1.png,h,1,1.0912830999586731,h,0,0.19061730010434985,0.049160300055518746,0.050721699837595224,0.09952550008893013,0.1004564999602735,0.7506250001024455
