exp,exp_initials,runtime,ver,modtime,sub,blocktype,targets,cuetype,mode,trialtype,trial,trialtime,t1_level,t2_level,t2_lag,t1,t2,distractor1,distractor2,stimfile1,stimfile2,t1_corr,t2_corr,maskfile1,maskfile2,t1_resp,t1_acc,t1_rt,t2_resp,t2_acc,t2_rt,t1_dur,t2_dur,t1mask_soa,t2mask_soa,t1t2_soa
RSVPLG03,km,20251023-091255,1.0.1,20250923-093501,710,Introduction,T1,1,Automatic,main,1,20251023-091325,local,local,750,S,S,A,E,A-S.png,E-S.png,sS,sS,mask-3.png,mask-1.png,s,1,3.4871621999918716,none,-5,0,0.09531840001000091,0.09957950000534765,0.1955467000079807,0.19988300000841264,0.7454706999997143
RSVPLG03,km,20251023-091255,1.0.1,20250923-093501,710,Introduction,T1,1,Automatic,main,2,20251023-091333,global,global,750,H,H,A,E,H-A.png,H-E.png,hH,hH,mask-3.png,mask-4.png,h,1,0.4673134000040591,none,-5,0,0.09901799999352079,0.09983989999454934,0.19986919999064412,0.20038280000153463,0.7497257999930298
RSVPLG03,km,20251023-091255,1.0.1,20250923-093501,710,Introduction,T1,1,Automatic,main,3,20251023-091338,local,global,750,H,H,E,A,E-H.png,H-A.png,hH,hH,mask-3.png,mask-4.png,s,0,0.7756034000049112,none,-5,0,0.1009699999995064,0.09995230000640731,0.20210559999395628,0.19945390000066254,0.7521449999912875
RSVPLG03,km,20251023-091255,1.0.1,20250923-093501,710,Introduction,T1,1,Automatic,main,4,20251023-091343,global,local,750,H,S,E,E,H-E.png,E-S.png,hH,sS,mask-2.png,mask-2.png,h,1,0.7112520000082441,none,-5,0,0.09997009999642614,0.09914230000867974,0.19922730000689626,0.19875350000802428,0.7505940999981249
RSVPLG03,km,20251023-091255,1.0.1,20250923-093501,710,Introduction,T1,1,Automatic,main,5,20251023-091348,global,global,750,S,H,E,E,S-E.png,H-E.png,sS,hH,mask-2.png,mask-3.png,s,1,0.33250749998842366,none,-5,0,0.10125479999987874,0.09892629999376368,0.19980760000180453,0.19871459998830687,0.7517332000134047
RSVPLG03,km,20251023-091255,1.0.1,20250923-093501,710,Introduction,T1,1,Automatic,main,6,20251023-091352,local,local,750,H,S,A,A,A-H.png,A-S.png,hH,sS,mask-2.png,mask-1.png,s,0,1.5977951000095345,none,-5,0,0.09954599999764469,0.09903890000714455,0.20059849999961443,0.20024580000608694,0.7516823999903863
RSVPLG03,km,20251023-091255,1.0.1,20250923-093501,710,Introduction,T1,1,Automatic,main,7,20251023-091358,local,local,750,H,S,A,A,A-H.png,A-S.png,hH,sS,mask-3.png,mask-2.png,h,1,2.8539061000046786,none,-5,0,0.10018449999915902,0.10066630000073928,0.19939560000784695,0.20127079999656416,0.7505858000076842
RSVPLG03,km,20251023-091255,1.0.1,20250923-093501,710,Introduction,T1,1,Automatic,main,8,20251023-091405,local,local,750,S,S,A,E,A-S.png,E-S.png,sS,sS,mask-4.png,mask-2.png,s,1,1.1619829999981448,none,-5,0,0.10007679999398533,0.09871560000465252,0.20026310000685044,0.19882620000862516,0.7502593999961391
RSVPLG03,km,20251023-091255,1.0.1,20250923-093501,710,Introduction,T1,1,Automatic,main,9,20251023-091410,global,local,750,H,S,A,E,H-A.png,E-S.png,hH,sS,mask-3.png,mask-3.png,s,0,2.668337499999325,none,-5,0,0.0994842000072822,0.09894870000425726,0.19980729999952018,0.19908479999867268,0.7505557999975281
RSVPLG03,km,20251023-091255,1.0.1,20250923-093501,710,Introduction,T1,1,Automatic,main,10,20251023-091417,global,local,750,S,S,E,A,S-E.png,A-S.png,sS,sS,mask-2.png,mask-4.png,s,1,0.9796518000075594,none,-5,0,0.10132080000767019,0.10115490001044236,0.19898770000145305,0.20011040000827052,0.7495836000016425
RSVPLG03,km,20251023-091255,1.0.1,20250923-093501,710,Introduction,T1,1,Automatic,main,11,20251023-091422,global,local,750,H,H,A,A,H-A.png,A-H.png,hH,hH,mask-4.png,mask-4.png,h,1,1.6131069999973988,none,-5,0,0.09987569999066181,0.09851260000141338,0.19980560000112746,0.2000430000043707,0.7510364999907324
RSVPLG03,km,20251023-091255,1.0.1,20250923-093501,710,Introduction,T1,1,Automatic,main,12,20251023-091428,local,global,750,S,H,A,A,A-S.png,H-A.png,sS,hH,mask-1.png,mask-3.png,h,0,2.0186606999923242,none,-5,0,0.10007030000269879,0.09806689999822993,0.20025380000879522,0.19939090000116266,0.7518546000064816
RSVPLG03,km,20251023-091255,1.0.1,20250923-093501,710,Introduction,T1,1,Automatic,main,13,20251023-091434,local,global,750,H,H,A,A,A-H.png,H-A.png,hH,hH,mask-2.png,mask-1.png,h,1,2.0862621999986004,none,-5,0,0.09972600000037346,0.0999298000097042,0.19961969999712892,0.20131750000291504,0.7497388999909163
RSVPLG03,km,20251023-091255,1.0.1,20250923-093501,710,Introduction,T1,1,Automatic,main,14,20251023-091441,global,global,750,H,S,A,A,H-A.png,S-A.png,hH,sS,mask-1.png,mask-4.png,s,0,1.1216472999949474,none,-5,0,0.09742699998605531,0.09952280001016334,0.19887829999788664,0.19863930001156405,0.750699899988831
RSVPLG03,km,20251023-091255,1.0.1,20250923-093501,710,Introduction,T1,1,Automatic,main,15,20251023-091446,global,global,750,S,H,E,A,S-E.png,H-A.png,sS,hH,mask-4.png,mask-1.png,h,0,3.096205900001223,none,-5,0,0.10007630000473,0.09899110000696965,0.1990265000058571,0.20038080000085756,0.7499922999995761
RSVPLG03,km,20251023-091255,1.0.1,20250923-093501,710,Introduction,T1,1,Automatic,main,16,20251023-091453,local,global,750,H,S,A,E,A-H.png,S-E.png,hH,sS,mask-2.png,mask-4.png,h,1,2.2633912000019336,none,-5,0,0.0990070999978343,0.10041060000366997,0.19996009999886155,0.20094129999051802,0.750386100000469
RSVPLG03,km,20251023-091523,1.0.1,20250923-093501,710,Practice,T1,1,Automatic,main,1,20251023-091551,local,global,300,H,S,E,E,E-H.png,S-E.png,hH,sS,mask-3.png,mask-2.png,h,1,1.2898223000083817,none,-5,0,0.049227800001972355,0.05178180000802968,0.09899769999901764,0.10102080000797287,0.2994124999968335
RSVPLG03,km,20251023-091523,1.0.1,20250923-093501,710,Practice,T1,1,Automatic,main,2,20251023-091556,global,global,300,S,H,E,A,S-E.png,H-A.png,sS,hH,mask-3.png,mask-4.png,s,1,1.023612699995283,none,-5,0,0.051383500001975335,0.050316799999563955,0.10153260000515729,0.10013669999898411,0.3012767000036547
RSVPLG03,km,20251023-091523,1.0.1,20250923-093501,710,Practice,T1,1,Automatic,main,3,20251023-091600,local,global,750,S,H,A,A,A-S.png,H-A.png,sS,hH,mask-2.png,mask-3.png,h,0,1.157692799999495,none,-5,0,0.049460999987786636,0.05070420000993181,0.1017293999902904,0.1007786000118358,0.75172419998853
RSVPLG03,km,20251023-091523,1.0.1,20250923-093501,710,Practice,T1,1,Automatic,main,4,20251023-091606,global,local,750,H,S,E,A,H-E.png,A-S.png,hH,sS,mask-4.png,mask-2.png,s,0,1.2482582000084221,none,-5,0,0.04901339999923948,0.05054879999079276,0.09871679999923799,0.10066359999473207,0.7500499000016134
RSVPLG03,km,20251023-091523,1.0.1,20250923-093501,710,Practice,T1,1,Automatic,main,5,20251023-091611,local,global,300,S,H,E,E,E-S.png,H-E.png,sS,hH,mask-4.png,mask-1.png,s,1,1.6218231999955606,none,-5,0,0.049151499988511205,0.04963090000092052,0.09923009999329224,0.09936839999863878,0.30061469999782275
RSVPLG03,km,20251023-091523,1.0.1,20250923-093501,710,Practice,T1,1,Automatic,main,6,20251023-091616,global,global,750,S,H,E,E,S-E.png,H-E.png,sS,hH,mask-4.png,mask-1.png,s,1,1.260686399997212,none,-5,0,0.0500733999942895,0.05000680001103319,0.10033929999917746,0.09912660000554752,0.7539428999880329
RSVPLG03,km,20251023-091523,1.0.1,20250923-093501,710,Practice,T1,1,Automatic,main,7,20251023-091622,local,local,750,H,H,E,A,E-H.png,A-H.png,hH,hH,mask-3.png,mask-1.png,h,1,1.2104060000128811,none,-5,0,0.050513799986219965,0.05095419999270234,0.10022860000026412,0.10139569999591913,0.7521743999968749
RSVPLG03,km,20251023-091523,1.0.1,20250923-093501,710,Practice,T1,1,Automatic,main,8,20251023-091627,local,global,750,S,S,E,E,E-S.png,S-E.png,sS,sS,mask-2.png,mask-4.png,s,1,0.953149900000426,none,-5,0,0.049208500000531785,0.048109800001839176,0.09951240000373218,0.10013780000736006,0.7525892999983625
RSVPLG03,km,20251023-091523,1.0.1,20250923-093501,710,Practice,T1,1,Automatic,main,9,20251023-091632,local,local,300,S,S,A,E,A-S.png,E-S.png,sS,sS,mask-2.png,mask-1.png,s,1,1.777868999997736,none,-5,0,0.049973100001807325,0.05001779999292921,0.10006219999922905,0.10019979999924544,0.3009090000123251
RSVPLG03,km,20251023-091523,1.0.1,20250923-093501,710,Practice,T1,1,Automatic,main,10,20251023-091637,global,local,300,S,S,E,E,S-E.png,E-S.png,sS,sS,mask-3.png,mask-2.png,h,0,1.0952136999985669,none,-5,0,0.04842449999705423,0.05053980000957381,0.09901600000739563,0.10079010001209099,0.2989421999955084
RSVPLG03,km,20251023-091523,1.0.1,20250923-093501,710,Practice,T1,1,Automatic,main,11,20251023-091642,local,local,300,H,H,E,A,E-H.png,A-H.png,hH,hH,mask-1.png,mask-3.png,h,1,1.7339188000041759,none,-5,0,0.049590700000408106,0.049353800000972115,0.10061530000530183,0.09954119999019895,0.30178420001175255
RSVPLG03,km,20251023-091523,1.0.1,20250923-093501,710,Practice,T1,1,Automatic,main,12,20251023-091647,local,local,750,H,S,E,E,E-H.png,E-S.png,hH,sS,mask-2.png,mask-2.png,s,0,1.525854999999865,none,-5,0,0.05018549998931121,0.0498236999992514,0.10203369999362621,0.10020709999662358,0.7524776999925962
RSVPLG03,km,20251023-091523,1.0.1,20250923-093501,710,Practice,T1,1,Automatic,main,13,20251023-091653,global,local,750,S,S,E,E,S-E.png,E-S.png,sS,sS,mask-2.png,mask-1.png,h,0,1.0668417000124464,none,-5,0,0.04870230000233278,0.05010720000427682,0.09964250000484753,0.10050339999725111,0.7526225000037812
RSVPLG03,km,20251023-091523,1.0.1,20250923-093501,710,Practice,T1,1,Automatic,main,14,20251023-091658,global,global,750,H,S,A,A,H-A.png,S-A.png,hH,sS,mask-3.png,mask-3.png,s,0,1.2378347999911057,none,-5,0,0.04988930000399705,0.04862850000790786,0.1010383999964688,0.09938330001023132,0.7529138999962015
RSVPLG03,km,20251023-091523,1.0.1,20250923-093501,710,Practice,T1,1,Automatic,main,15,20251023-091703,global,local,300,H,S,E,A,H-E.png,A-S.png,hH,sS,mask-2.png,mask-2.png,h,1,1.1763547000009567,none,-5,0,0.05050130000745412,0.0481761999981245,0.10044270000071265,0.09890859998995438,0.3017990000080317
RSVPLG03,km,20251023-091523,1.0.1,20250923-093501,710,Practice,T1,1,Automatic,main,16,20251023-091708,global,global,300,S,H,E,A,S-E.png,H-A.png,sS,hH,mask-1.png,mask-2.png,h,0,1.606041400009417,none,-5,0,0.05114379999577068,0.04883089999202639,0.10101419998682104,0.09941579999576788,0.3016748999943957
RSVPLG03,km,20251023-091742,1.0.1,20250923-093501,710,Introduction,Both,1,Automatic,main,1,20251023-091819,local,local,750,S,S,E,E,E-S.png,E-S.png,sS,sS,mask-2.png,mask-1.png,s,1,1.3859354999876814,h,0,1.1051780999987386,0.08943079999880865,0.10025249999307562,0.18890719999035355,0.2005944999982603,0.737935600001947
RSVPLG03,km,20251023-091742,1.0.1,20250923-093501,710,Introduction,Both,1,Automatic,main,2,20251023-091826,local,local,750,H,H,E,A,E-H.png,A-H.png,hH,hH,mask-4.png,mask-4.png,h,1,1.3371247000031872,h,1,0.9133122999919578,0.09972379999817349,0.09852310000860598,0.20120049999968614,0.19939280000107829,0.7507437999884132
RSVPLG03,km,20251023-091742,1.0.1,20250923-093501,710,Introduction,Both,1,Automatic,main,3,20251023-091832,global,local,750,S,S,A,A,S-A.png,A-S.png,sS,sS,mask-2.png,mask-1.png,s,1,1.308474200006458,h,0,0.7369605999992928,0.09941429999889806,0.10015699999348726,0.19948619999922812,0.2005308999941917,0.7497401000000536
RSVPLG03,km,20251023-091742,1.0.1,20250923-093501,710,Introduction,Both,1,Automatic,main,4,20251023-091839,global,global,750,H,H,A,E,H-A.png,H-E.png,hH,hH,mask-3.png,mask-3.png,h,1,1.8965062000061153,h,1,0.5431580000004033,0.10002869999152608,0.09909970000444446,0.20146399999794085,0.19903480001084972,0.7506924999906914
RSVPLG03,km,20251023-091742,1.0.1,20250923-093501,710,Introduction,Both,1,Automatic,main,5,20251023-091845,local,local,750,H,H,E,A,E-H.png,A-H.png,hH,hH,mask-4.png,mask-1.png,h,1,1.7205590000085067,s,0,0.3687703000032343,0.09813850000500679,0.10003030000370927,0.19819290000305045,0.19882520000101067,0.7491510999971069
RSVPLG03,km,20251023-091742,1.0.1,20250923-093501,710,Introduction,Both,1,Automatic,main,6,20251023-091852,local,global,750,H,H,E,E,E-H.png,H-E.png,hH,hH,mask-4.png,mask-1.png,s,0,2.016103700007079,h,1,0.6565259999915725,0.1010485000006156,0.10028309999324847,0.20050909998826683,0.1988390999904368,0.7516258999967249
RSVPLG03,km,20251023-091742,1.0.1,20250923-093501,710,Introduction,Both,1,Automatic,main,7,20251023-091859,global,local,750,S,S,A,E,S-A.png,E-S.png,sS,sS,mask-2.png,mask-2.png,h,0,2.471870900000795,s,1,0.9114683999941917,0.10058030000072904,0.09753150001051836,0.20025730000634212,0.1998176000051899,0.7517498999950476
RSVPLG03,km,20251023-091742,1.0.1,20250923-093501,710,Introduction,Both,1,Automatic,main,8,20251023-091907,global,global,750,H,S,E,E,H-E.png,S-E.png,hH,sS,mask-3.png,mask-3.png,h,1,2.855220500001451,h,0,0.8004376000026241,0.09940740000456572,0.10183719999622554,0.20204620000731666,0.20088220000616275,0.7503575000009732
RSVPLG03,km,20251023-091742,1.0.1,20250923-093501,710,Introduction,Both,1,Automatic,main,9,20251023-091915,local,local,750,S,H,E,A,E-S.png,A-H.png,sS,hH,mask-2.png,mask-3.png,s,1,2.0046478000003844,h,1,0.5290343999949982,0.09845459999633022,0.0998258000036003,0.1995613999897614,0.19947820001107175,0.7494771999918157
RSVPLG03,km,20251023-091742,1.0.1,20250923-093501,710,Introduction,Both,1,Automatic,main,10,20251023-091921,local,global,750,S,H,E,E,E-S.png,H-E.png,sS,hH,mask-1.png,mask-4.png,s,1,1.47525570000289,h,1,0.49857039999915287,0.09953479999967385,0.10006040000007488,0.19995870000275318,0.19859149999683723,0.7509100000024773
RSVPLG03,km,20251023-091742,1.0.1,20250923-093501,710,Introduction,Both,1,Automatic,main,11,20251023-091928,global,global,750,S,H,E,E,S-E.png,H-E.png,sS,hH,mask-2.png,mask-4.png,h,0,3.4895391000027303,s,0,0.5908908999990672,0.1009180999972159,0.10118559999682475,0.2013567999965744,0.1996015000040643,0.7509559000027366
RSVPLG03,km,20251023-091742,1.0.1,20250923-093501,710,Introduction,Both,1,Automatic,main,12,20251023-091936,local,global,750,S,S,E,A,E-S.png,S-A.png,sS,sS,mask-4.png,mask-2.png,h,0,2.047496200000751,s,1,0.730774299998302,0.09986810000555124,0.10045440000249073,0.1997687999974005,0.20038369999383576,0.7494672000029823
RSVPLG03,km,20251023-091742,1.0.1,20250923-093501,710,Introduction,Both,1,Automatic,main,13,20251023-091943,local,global,750,S,S,A,E,A-S.png,S-E.png,sS,sS,mask-2.png,mask-2.png,h,0,1.2347368000046117,h,0,1.298602499999106,0.09701840000343509,0.09950850000313949,0.1975574000098277,0.19997200000216253,0.7487257000029786
RSVPLG03,km,20251023-091742,1.0.1,20250923-093501,710,Introduction,Both,1,Automatic,main,14,20251023-091950,global,global,750,H,S,A,A,H-A.png,S-A.png,hH,sS,mask-2.png,mask-4.png,h,1,1.6897037000017008,s,1,0.9128740000014659,0.09970649999740999,0.09999409998999909,0.20003690000157803,0.2004807999910554,0.7498252000077628
RSVPLG03,km,20251023-091742,1.0.1,20250923-093501,710,Introduction,Both,1,Automatic,main,15,20251023-091957,global,local,750,S,H,E,A,S-E.png,A-H.png,sS,hH,mask-3.png,mask-3.png,s,1,1.6143087999953423,h,1,0.5117545999964932,0.0999489999958314,0.09967640000104439,0.19891269999789074,0.19921580000664108,0.7498534999904223
RSVPLG03,km,20251023-091742,1.0.1,20250923-093501,710,Introduction,Both,1,Automatic,main,16,20251023-092004,global,local,750,S,S,A,A,S-A.png,A-S.png,sS,sS,mask-1.png,mask-1.png,s,1,1.0752421999932267,h,0,0.7820937000069534,0.09998600000108127,0.09992269999929704,0.19926549999217968,0.1995496000017738,0.7501851999986684
RSVPLG03,km,20251023-092025,1.0.1,20250923-093501,710,Practice,Both,1,Automatic,main,1,20251023-092047,global,local,750,S,S,E,E,S-E.png,E-S.png,sS,sS,mask-2.png,mask-4.png,s,1,1.4663835000101244,h,0,0.8503778999875067,0.042000500005087815,0.04824699999880977,0.09399569999368396,0.10038499999791384,0.7455649000039557
RSVPLG03,km,20251023-092025,1.0.1,20250923-093501,710,Practice,Both,1,Automatic,main,2,20251023-092054,local,global,300,S,S,E,E,E-S.png,S-E.png,sS,sS,mask-4.png,mask-3.png,s,1,2.668906999999308,s,1,1.2481250999990152,0.05006819999834988,0.04960379999829456,0.10089130001142621,0.1009007999964524,0.3017586000059964
RSVPLG03,km,20251023-092025,1.0.1,20250923-093501,710,Practice,Both,1,Automatic,main,3,20251023-092101,local,local,300,S,S,E,E,E-S.png,E-S.png,sS,sS,mask-1.png,mask-2.png,h,0,2.815228199993726,s,1,1.1200284000078682,0.04868429999623913,0.049572299991268665,0.10008989999187179,0.10104589999536984,0.30019090000132564
RSVPLG03,km,20251023-092025,1.0.1,20250923-093501,710,Practice,Both,1,Automatic,main,4,20251023-092109,local,local,750,H,S,E,A,E-H.png,A-S.png,hH,sS,mask-3.png,mask-3.png,s,0,1.2973710999940522,h,0,2.066104700003052,0.05137349999858998,0.04976749999332242,0.10056299999996554,0.09936589999415446,0.7522609000006923
RSVPLG03,km,20251023-092025,1.0.1,20250923-093501,710,Practice,Both,1,Automatic,main,5,20251023-092117,global,local,300,S,S,A,A,S-A.png,A-S.png,sS,sS,mask-4.png,mask-2.png,s,1,1.2756489000021247,h,0,0.4818918999953894,0.05038869999407325,0.05108299999847077,0.1004121000005398,0.10170729999663308,0.3010426999971969
RSVPLG03,km,20251023-092025,1.0.1,20250923-093501,710,Practice,Both,1,Automatic,main,6,20251023-092122,local,global,300,S,H,A,E,A-S.png,H-E.png,sS,hH,mask-3.png,mask-1.png,h,0,1.2230132999975467,s,0,0.2885773000016343,0.051044200008618645,0.050626399999600835,0.10235280000779312,0.10112249999656342,0.3017200000031153
RSVPLG03,km,20251023-092025,1.0.1,20250923-093501,710,Practice,Both,1,Automatic,main,7,20251023-092127,local,local,750,S,H,E,E,E-S.png,E-H.png,sS,hH,mask-2.png,mask-4.png,s,1,1.3738833999959752,h,1,1.3610132000030717,0.05166610000014771,0.04982439999002963,0.09959329999401234,0.10014929999306332,0.7531457000004593
RSVPLG03,km,20251023-092025,1.0.1,20250923-093501,710,Practice,Both,1,Automatic,main,8,20251023-092134,global,local,750,H,H,A,E,H-A.png,E-H.png,hH,hH,mask-1.png,mask-3.png,h,1,1.13475379999727,s,0,0.5788726000027964,0.04853640000510495,0.048276800007442944,0.10071040000184439,0.09862560000328813,0.7517192999948747
RSVPLG03,km,20251023-092025,1.0.1,20250923-093501,710,Practice,Both,1,Automatic,main,9,20251023-092140,local,local,300,S,S,A,A,A-S.png,A-S.png,sS,sS,mask-4.png,mask-4.png,s,1,2.3289854999893578,h,0,0.8270081000082428,0.05011759999615606,0.049796499995863996,0.101398099999642,0.10028139999485575,0.30155450000893325
RSVPLG03,km,20251023-092025,1.0.1,20250923-093501,710,Practice,Both,1,Automatic,main,10,20251023-092147,global,global,300,S,S,E,E,S-E.png,S-E.png,sS,sS,mask-3.png,mask-1.png,s,1,1.5445018999889726,h,0,0.6587725999997929,0.05040779999399092,0.04970000000321306,0.10105420000036247,0.10034859999723267,0.30119299999205396
RSVPLG03,km,20251023-092025,1.0.1,20250923-093501,710,Practice,Both,1,Automatic,main,11,20251023-092154,global,global,300,H,S,E,A,H-E.png,S-A.png,hH,sS,mask-2.png,mask-1.png,h,1,1.1893387000018265,s,1,0.3042576000007102,0.04892719999770634,0.0491658999962965,0.09865499999432359,0.10155690000101458,0.30029840000497643
RSVPLG03,km,20251023-092025,1.0.1,20250923-093501,710,Practice,Both,1,Automatic,main,12,20251023-092159,local,global,750,H,H,E,E,E-H.png,H-E.png,hH,hH,mask-2.png,mask-4.png,h,1,0.8573887999955332,h,1,0.31817790000059176,0.0512563000083901,0.051362199999857694,0.09994310000911355,0.09928930000751279,0.751965300005395
RSVPLG03,km,20251023-092025,1.0.1,20250923-093501,710,Practice,Both,1,Automatic,main,13,20251023-092204,global,global,750,H,S,E,A,H-E.png,S-A.png,hH,sS,mask-1.png,mask-2.png,h,1,0.6858152000058908,s,1,0.30326050000439864,0.051892299990868196,0.04892180000024382,0.10088030000042636,0.10036700000637211,0.7528713999927277
RSVPLG03,km,20251023-092025,1.0.1,20250923-093501,710,Practice,Both,1,Automatic,main,14,20251023-092209,global,local,300,H,H,E,A,H-E.png,A-H.png,hH,hH,mask-2.png,mask-1.png,h,1,0.8640729000035208,h,1,0.36782379999931436,0.049781100009568036,0.04961300001014024,0.09997260000091046,0.10082060001150239,0.30017919999954756
RSVPLG03,km,20251023-092025,1.0.1,20250923-093501,710,Practice,Both,1,Automatic,main,15,20251023-092214,local,global,750,H,S,E,E,E-H.png,S-E.png,hH,sS,mask-1.png,mask-2.png,h,1,1.0993388000060804,s,1,0.31891130001167767,0.04913020000094548,0.04982680000830442,0.09952489999704994,0.10035040001093876,0.7514703999913763
RSVPLG03,km,20251023-092025,1.0.1,20250923-093501,710,Practice,Both,1,Automatic,main,16,20251023-092220,global,global,750,H,S,A,E,H-A.png,S-E.png,hH,sS,mask-2.png,mask-4.png,h,1,0.9502556999941589,s,1,0.4985165000107372,0.05096610001055524,0.05109660000016447,0.10099620000983123,0.10230589999991935,0.7521319000079529
RSVPLG03,km,20251023-092243,1.0.1,20250923-093501,710,Practice,Both,1,Automatic,main,1,20251023-092259,global,global,300,S,H,E,E,S-E.png,H-E.png,sS,hH,mask-2.png,mask-3.png,s,1,0.8274801000079606,h,1,0.2707986000023084,0.0487691000016639,0.05090550000022631,0.0996889999951236,0.10108679998666048,0.29966540000168607
RSVPLG03,km,20251023-092243,1.0.1,20250923-093501,710,Practice,Both,1,Automatic,main,2,20251023-092304,local,global,300,H,S,E,E,E-H.png,S-E.png,hH,sS,mask-3.png,mask-3.png,h,1,0.8580255999986548,s,1,0.37073559999407735,0.054165900000953116,0.04975120000017341,0.1003200000122888,0.10120479999750387,0.3009679000097094
RSVPLG03,km,20251023-092243,1.0.1,20250923-093501,710,Practice,Both,1,Automatic,main,3,20251023-092309,global,global,750,H,S,A,A,H-A.png,S-A.png,hH,sS,mask-4.png,mask-4.png,h,1,0.7713614999956917,s,1,0.3030616000032751,0.05003489999216981,0.05014090001350269,0.09995770000386983,0.10012980000465177,0.7513479999906849
RSVPLG03,km,20251023-092243,1.0.1,20250923-093501,710,Practice,Both,1,Automatic,main,4,20251023-092314,global,local,750,H,S,A,E,H-A.png,E-S.png,hH,sS,mask-3.png,mask-4.png,h,1,1.1229498000029707,s,1,0.3858807000069646,0.04958940000506118,0.04984659999900032,0.10100620001321658,0.09964850000687875,0.7518849000043701
RSVPLG03,km,20251023-092243,1.0.1,20250923-093501,710,Practice,Both,1,Automatic,main,5,20251023-092320,local,global,750,H,S,A,E,A-H.png,S-E.png,hH,sS,mask-3.png,mask-3.png,h,1,0.7383833000058075,s,1,0.3203194999950938,0.04912239999976009,0.04934520000824705,0.09895919999689795,0.09976959999767132,0.7511274999997113
RSVPLG03,km,20251023-092243,1.0.1,20250923-093501,710,Practice,Both,1,Automatic,main,6,20251023-092325,global,local,300,S,H,A,E,S-A.png,E-H.png,sS,hH,mask-1.png,mask-4.png,h,0,0.9719585999991978,s,0,0.3678115000075195,0.049264000001130626,0.050816600007237867,0.0995412999909604,0.10180550000222865,0.2987698999932036
RSVPLG03,km,20251023-092243,1.0.1,20250923-093501,710,Practice,Both,1,Automatic,main,7,20251023-092330,local,local,750,H,H,A,A,A-H.png,A-H.png,hH,hH,mask-4.png,mask-2.png,h,1,0.7608342000021366,h,1,0.30529509999905713,0.050756900003761984,0.05106690000684466,0.10104229999706149,0.10090689999924507,0.7519141999946442
RSVPLG03,km,20251023-092243,1.0.1,20250923-093501,710,Practice,Both,1,Automatic,main,8,20251023-092335,global,global,300,S,H,A,A,S-A.png,H-A.png,sS,hH,mask-2.png,mask-1.png,h,0,0.6532577999896603,s,0,0.416629200000898,0.04961899999761954,0.050115200006985106,0.0999215999909211,0.09975160000612959,0.3013166999880923
RSVPLG03,km,20251023-092243,1.0.1,20250923-093501,710,Practice,Both,1,Automatic,main,9,20251023-092340,local,local,750,H,S,E,A,E-H.png,A-S.png,hH,sS,mask-4.png,mask-4.png,h,1,2.136867200009874,h,0,2.5464349999965634,0.05107129999669269,0.049601800012169406,0.10176320000027772,0.09974289999809116,0.7531586999975843
RSVPLG03,km,20251023-092243,1.0.1,20250923-093501,710,Practice,Both,1,Automatic,main,10,20251023-092349,global,local,300,S,S,E,A,S-E.png,A-S.png,sS,sS,mask-3.png,mask-2.png,s,1,1.4738863999955356,h,0,0.3218103999970481,0.050713699994958006,0.05032160000700969,0.10089229998993687,0.09875869999814313,0.30176079999364447
RSVPLG03,km,20251023-092243,1.0.1,20250923-093501,710,Practice,Both,1,Automatic,main,11,20251023-092354,global,global,750,H,S,E,E,H-E.png,S-E.png,hH,sS,mask-4.png,mask-2.png,h,1,1.2248137999995379,s,1,0.44856789999175817,0.05025479999312665,0.05159760000242386,0.09986399998888373,0.10094489999755751,0.7512597999884747
RSVPLG03,km,20251023-092243,1.0.1,20250923-093501,710,Practice,Both,1,Automatic,main,12,20251023-092400,local,global,750,S,S,E,E,E-S.png,S-E.png,sS,sS,mask-2.png,mask-2.png,s,1,0.7922155999985989,h,0,0.3855423999921186,0.04910550000204239,0.0499720000079833,0.09948450000956655,0.10242690000450239,0.7510735999967437
RSVPLG03,km,20251023-092243,1.0.1,20250923-093501,710,Practice,Both,1,Automatic,main,13,20251023-092406,local,local,300,S,S,A,A,A-S.png,A-S.png,sS,sS,mask-1.png,mask-4.png,h,0,1.0239885999908438,s,1,0.4645796000113478,0.04851379999308847,0.05110090000380296,0.09949350000533741,0.10139670000353362,0.29956569999922067
RSVPLG03,km,20251023-092243,1.0.1,20250923-093501,710,Practice,Both,1,Automatic,main,14,20251023-092411,global,local,750,S,S,A,E,S-A.png,E-S.png,sS,sS,mask-3.png,mask-1.png,s,1,0.7009307999978773,s,1,0.3032750999991549,0.049503600006573834,0.05023110000183806,0.09967579999647569,0.10117150000587571,0.7491699999955017
RSVPLG03,km,20251023-092243,1.0.1,20250923-093501,710,Practice,Both,1,Automatic,main,15,20251023-092416,local,global,300,H,H,A,A,A-H.png,H-A.png,hH,hH,mask-1.png,mask-2.png,h,1,0.8215608000027714,h,1,0.32209529999818187,0.049252400000113994,0.04944809999142308,0.09907399999792688,0.09972919999563601,0.3009325000020908
RSVPLG03,km,20251023-092243,1.0.1,20250923-093501,710,Practice,Both,1,Automatic,main,16,20251023-092421,local,local,300,H,S,E,E,E-H.png,E-S.png,hH,sS,mask-3.png,mask-1.png,h,1,1.0463658000080613,s,1,0.33775710000190884,0.049638800002867356,0.05162709999422077,0.1008884000038961,0.10035449999850243,0.2990969000093173
RSVPLG03,km,20251023-092444,1.0.1,20250923-093501,710,Experiment,Both,1,Automatic,warmup,1,20251023-092548,local,global,300,S,H,A,A,A-S.png,H-A.png,sS,hH,mask-1.png,mask-2.png,s,1,0.8788630999915767,h,1,0.18789570000080857,0.05053120000229683,0.050527200000942685,0.10103569999046158,0.10205860000860412,0.30156749999150634
RSVPLG03,km,20251023-092444,1.0.1,20250923-093501,710,Experiment,Both,1,Automatic,warmup,2,20251023-092552,local,local,300,H,H,E,A,E-H.png,A-H.png,hH,hH,mask-3.png,mask-4.png,h,1,0.813177000003634,s,0,0.2561896999977762,0.04987059999257326,0.050520599994342774,0.10047560000384692,0.1012884999945527,0.30244020000100136
RSVPLG03,km,20251023-092444,1.0.1,20250923-093501,710,Experiment,Both,1,Automatic,warmup,3,20251023-092557,global,local,300,S,S,A,A,S-A.png,A-S.png,sS,sS,mask-4.png,mask-3.png,s,1,0.7738779999926919,h,0,0.19054440000036266,0.051202899994677864,0.052363499999046326,0.10043030000815634,0.10276979999616742,0.3014397000079043
RSVPLG03,km,20251023-092444,1.0.1,20250923-093501,710,Experiment,Both,1,Automatic,warmup,4,20251023-092602,global,local,750,S,S,A,A,S-A.png,A-S.png,sS,sS,mask-3.png,mask-3.png,s,1,0.648517499997979,h,0,0.1932805999967968,0.05116000000271015,0.050890899990918115,0.10145770000235643,0.1013185999909183,0.7560988000041107
RSVPLG03,km,20251023-092444,1.0.1,20250923-093501,710,Experiment,Both,1,Automatic,warmup,5,20251023-092607,global,global,750,S,H,E,A,S-E.png,H-A.png,sS,hH,mask-1.png,mask-3.png,s,1,0.8003174999903422,h,1,0.17238000000361353,0.050127700000302866,0.050389399999403395,0.10141699999803677,0.10266049999336246,0.7561470000073314
RSVPLG03,km,20251023-092444,1.0.1,20250923-093501,710,Experiment,Both,1,Automatic,main,6,20251023-092612,local,global,300,S,H,E,A,E-S.png,H-A.png,sS,hH,mask-4.png,mask-2.png,s,1,0.8378396999905817,h,1,0.14083109999774024,0.05038310000963975,0.05042149999644607,0.10201770000276156,0.10063609998906031,0.3019485000113491
RSVPLG03,km,20251023-092444,1.0.1,20250923-093501,710,Experiment,Both,1,Automatic,main,7,20251023-092617,local,global,750,S,H,E,E,E-S.png,H-E.png,sS,hH,mask-1.png,mask-4.png,s,1,0.6704788000060944,h,1,0.14427330000035,0.05108319999999367,0.05046759999822825,0.10115950000181329,0.10010219999821857,0.7570814000064274
RSVPLG03,km,20251023-092444,1.0.1,20250923-093501,710,Experiment,Both,1,Automatic,main,8,20251023-092622,global,local,300,H,S,E,E,H-E.png,E-S.png,hH,sS,mask-1.png,mask-4.png,s,0,0.9253730000054929,h,0,0.1276633999950718,0.051020600003539585,0.050099000000045635,0.10125829999742564,0.10105990000010934,0.3025936000049114
RSVPLG03,km,20251023-092444,1.0.1,20250923-093501,710,Experiment,Both,1,Automatic,main,9,20251023-092626,local,local,750,H,H,A,A,A-H.png,A-H.png,hH,hH,mask-1.png,mask-3.png,h,1,0.9551036000048043,s,0,0.3369531000062125,0.05137260000628885,0.04980020000948571,0.10042119999707211,0.10017670001252554,0.7567954999976791
RSVPLG03,km,20251023-092444,1.0.1,20250923-093501,710,Experiment,Both,1,Automatic,main,10,20251023-092632,local,global,300,S,S,A,A,A-S.png,S-A.png,sS,sS,mask-3.png,mask-2.png,h,0,1.0607223999977577,s,1,0.286244800008717,0.0500878000020748,0.05167440000514034,0.10070270000142045,0.10037509999528993,0.301702299999306
RSVPLG03,km,20251023-092444,1.0.1,20250923-093501,710,Experiment,Both,1,Automatic,main,11,20251023-092637,global,local,750,H,H,A,A,H-A.png,A-H.png,hH,hH,mask-3.png,mask-4.png,h,1,0.8067590999999084,h,1,0.20905049999419134,0.04933609999716282,0.05007699999259785,0.09837369999149814,0.10015339999517892,0.7541682000010042
RSVPLG03,km,20251023-092444,1.0.1,20250923-093501,710,Experiment,Both,1,Automatic,main,12,20251023-092642,local,local,750,S,H,A,E,A-S.png,E-H.png,sS,hH,mask-1.png,mask-2.png,h,0,1.4077743000088958,h,1,0.24227840000821743,0.049484000002848916,0.0492515999940224,0.1001477999961935,0.1010029999888502,0.7561237000045367
RSVPLG03,km,20251023-092444,1.0.1,20250923-093501,710,Experiment,Both,1,Automatic,main,13,20251023-092648,local,global,750,H,H,A,E,A-H.png,H-E.png,hH,hH,mask-4.png,mask-2.png,h,1,1.068673800007673,s,0,0.40056100000219885,0.04934920000960119,0.04974370000127237,0.10132709999743383,0.10122929999488406,0.7549122000054922
RSVPLG03,km,20251023-092444,1.0.1,20250923-093501,710,Experiment,Both,1,Automatic,main,14,20251023-092654,global,global,750,S,S,A,A,S-A.png,S-A.png,sS,sS,mask-3.png,mask-4.png,h,0,1.1239576999942074,h,0,0.0993670000025304,0.051496800006134436,0.050390299991704524,0.10161519999383017,0.09909839999454562,0.7571350000071106
RSVPLG03,km,20251023-092444,1.0.1,20250923-093501,710,Experiment,Both,1,Automatic,main,15,20251023-092659,local,local,750,S,H,E,E,E-S.png,E-H.png,sS,hH,mask-1.png,mask-4.png,s,1,2.0142045999964466,s,0,0.25197559999651276,0.05159609999100212,0.05217739999352489,0.10140299999329727,0.10273459999007173,0.7558782999985851
RSVPLG03,km,20251023-092444,1.0.1,20250923-093501,710,Experiment,Both,1,Automatic,main,16,20251023-092705,global,global,300,S,H,A,E,S-A.png,H-E.png,sS,hH,mask-2.png,mask-4.png,s,1,1.1433955000102287,h,1,0.17645949999860022,0.05020369999692775,0.05086030000529718,0.0994671000080416,0.10183949999918696,0.3009364000026835
RSVPLG03,km,20251023-092444,1.0.1,20250923-093501,710,Experiment,Both,1,Automatic,main,17,20251023-092710,local,local,300,H,S,A,E,A-H.png,E-S.png,hH,sS,mask-4.png,mask-4.png,s,0,0.9689032000023872,h,0,0.22611190000316128,0.04983269999502227,0.05030119999719318,0.09851999999955297,0.10073019999254029,0.3013557999947807
RSVPLG03,km,20251023-092444,1.0.1,20250923-093501,710,Experiment,Both,1,Automatic,main,18,20251023-092715,local,global,300,S,S,A,E,A-S.png,S-E.png,sS,sS,mask-2.png,mask-3.png,s,1,1.4151718000066467,h,0,2.0147861000004923,0.048556900001131,0.04996370000299066,0.09940829999686684,0.10000540000328328,0.3011393000051612
RSVPLG03,km,20251023-092444,1.0.1,20250923-093501,710,Experiment,Both,1,Automatic,main,19,20251023-092723,global,global,750,S,H,A,E,S-A.png,H-E.png,sS,hH,mask-1.png,mask-4.png,s,1,0.819634400002542,h,1,0.2082105000008596,0.049215899998671375,0.05033869999169838,0.10048580000875518,0.10133059999498073,0.7556391000107396
RSVPLG03,km,20251023-092444,1.0.1,20250923-093501,710,Experiment,Both,1,Automatic,main,20,20251023-092728,global,local,750,S,H,A,E,S-A.png,E-H.png,sS,hH,mask-1.png,mask-2.png,s,1,0.8160484999971231,h,1,0.15993039999739267,0.05030649999389425,0.05170229999930598,0.10104019999562297,0.10113840000121854,0.7554558999981964
RSVPLG03,km,20251023-092444,1.0.1,20250923-093501,710,Experiment,Both,1,Automatic,main,21,20251023-092733,global,local,750,H,H,A,E,H-A.png,E-H.png,hH,hH,mask-1.png,mask-4.png,h,1,1.543135900006746,s,0,0.36770679999608546,0.051279799998155795,0.049919900004169904,0.1006885999959195,0.09926699999778066,0.7568469999969238
RSVPLG03,km,20251023-092444,1.0.1,20250923-093501,710,Experiment,Both,1,Automatic,main,22,20251023-092739,local,local,300,H,S,A,A,A-H.png,A-S.png,hH,sS,mask-2.png,mask-2.png,h,1,1.173630499994033,s,1,0.30258340000000317,0.048623299997416325,0.051173200001358055,0.09982060000766069,0.1014666999981273,0.30074760000570677
RSVPLG03,km,20251023-092444,1.0.1,20250923-093501,710,Experiment,Both,1,Automatic,main,23,20251023-092744,global,global,750,H,H,A,E,H-A.png,H-E.png,hH,hH,mask-1.png,mask-1.png,h,1,0.9477603999985149,h,1,0.15790890000062063,0.05003769999893848,0.05120300000999123,0.10032360001059715,0.10127080000529531,0.7547468999982812
RSVPLG03,km,20251023-092444,1.0.1,20250923-093501,710,Experiment,Both,1,Automatic,main,24,20251023-092749,local,local,300,H,H,A,A,A-H.png,A-H.png,hH,hH,mask-3.png,mask-1.png,h,1,1.0242466000054264,h,1,0.16110820000176318,0.04852279998885933,0.048898100008955225,0.09911969999666326,0.099402400010149,0.3024670999875525
RSVPLG03,km,20251023-092444,1.0.1,20250923-093501,710,Experiment,Both,1,Automatic,main,25,20251023-092754,local,global,300,S,H,A,E,A-S.png,H-E.png,sS,hH,mask-1.png,mask-4.png,h,0,0.9314966999954777,s,0,0.5130509000009624,0.05066800001077354,0.0497386000060942,0.10195080000266898,0.10053850000258535,0.3038264000060735
RSVPLG03,km,20251023-092444,1.0.1,20250923-093501,710,Experiment,Both,1,Automatic,main,26,20251023-092834,global,local,750,S,S,E,E,S-E.png,E-S.png,sS,sS,mask-2.png,mask-2.png,s,1,0.907832299999427,s,1,0.12635360000422224,0.05164580000564456,0.050399799991282634,0.10156420001294464,0.10221909999381751,0.7560655000124825
RSVPLG03,km,20251023-092444,1.0.1,20250923-093501,710,Experiment,Both,1,Automatic,main,27,20251023-092839,local,global,300,H,S,E,A,E-H.png,S-A.png,hH,sS,mask-1.png,mask-3.png,h,1,1.5533015999972122,s,1,0.2422694999986561,0.05134659999748692,0.049782599991885945,0.10153359999821987,0.09952779999002814,0.3045669999992242
RSVPLG03,km,20251023-092444,1.0.1,20250923-093501,710,Experiment,Both,1,Automatic,main,28,20251023-092844,local,global,300,H,H,E,E,E-H.png,H-E.png,hH,hH,mask-3.png,mask-1.png,h,1,1.3454325000056997,s,0,0.2088240000011865,0.05123040000034962,0.04985260000103153,0.10043199999199715,0.1009736999985762,0.30221979999623727
RSVPLG03,km,20251023-092444,1.0.1,20250923-093501,710,Experiment,Both,1,Automatic,main,29,20251023-092849,local,local,300,S,H,A,A,A-S.png,A-H.png,sS,hH,mask-2.png,mask-3.png,h,0,0.8763656999944942,h,1,0.0982229999935953,0.05188359999738168,0.04966089999652468,0.10197829999378882,0.10113459998683538,0.30316700000548735
RSVPLG03,km,20251023-092444,1.0.1,20250923-093501,710,Experiment,Both,1,Automatic,main,30,20251023-092854,global,local,750,H,H,A,A,H-A.png,A-H.png,hH,hH,mask-4.png,mask-3.png,s,0,1.09074210000108,h,1,0.20659480000904296,0.05002010001044255,0.050108499999623746,0.10106339999765623,0.09960960000171326,0.7557219000009354
RSVPLG03,km,20251023-092444,1.0.1,20250923-093501,710,Experiment,Both,1,Automatic,main,31,20251023-092859,global,global,300,S,S,E,E,S-E.png,S-E.png,sS,sS,mask-2.png,mask-4.png,h,0,1.0037949999968987,s,1,0.3540229999925941,0.05076369999733288,0.050483400002121925,0.10108039999613538,0.1004417999938596,0.302658300002804
RSVPLG03,km,20251023-092444,1.0.1,20250923-093501,710,Experiment,Both,1,Automatic,main,32,20251023-092904,local,local,300,H,H,E,E,E-H.png,E-H.png,hH,hH,mask-3.png,mask-3.png,s,0,1.50775099999737,h,1,0.20746170000347774,0.04914830000780057,0.0496904000028735,0.09952250000787899,0.09964899999613408,0.30168699999921955
RSVPLG03,km,20251023-092444,1.0.1,20250923-093501,710,Experiment,Both,1,Automatic,main,33,20251023-092910,local,global,750,H,S,E,E,E-H.png,S-E.png,hH,sS,mask-2.png,mask-2.png,h,1,0.8084841000090819,s,1,0.36713400000007823,0.050365499992039986,0.05051070000627078,0.1003774999990128,0.1016477999946801,0.75640869999188
RSVPLG03,km,20251023-092444,1.0.1,20250923-093501,710,Experiment,Both,1,Automatic,main,34,20251023-092915,local,local,300,H,S,E,A,E-H.png,A-S.png,hH,sS,mask-2.png,mask-1.png,h,1,0.927202099992428,s,1,0.38655029999790713,0.048800200005644,0.0491691999923205,0.09910440001112875,0.09958569999434985,0.3021317000093404
RSVPLG03,km,20251023-092444,1.0.1,20250923-093501,710,Experiment,Both,1,Automatic,main,35,20251023-092920,local,local,750,S,S,A,A,A-S.png,A-S.png,sS,sS,mask-4.png,mask-2.png,h,0,1.6320788000011817,s,1,0.35402610000164714,0.05149410000012722,0.05114139999204781,0.10096559999510646,0.10122840000258293,0.7560708999953931
RSVPLG03,km,20251023-092444,1.0.1,20250923-093501,710,Experiment,Both,1,Automatic,main,36,20251023-092926,local,local,300,S,S,E,E,E-S.png,E-S.png,sS,sS,mask-4.png,mask-3.png,h,0,1.6379704999999376,s,1,0.3689699999958975,0.05038559999957215,0.05072159999690484,0.1016657000000123,0.10071020000032149,0.30272449999756645
RSVPLG03,km,20251023-092444,1.0.1,20250923-093501,710,Experiment,Both,1,Automatic,main,37,20251023-092932,local,global,300,H,H,A,E,A-H.png,H-E.png,hH,hH,mask-2.png,mask-1.png,h,1,1.4182880000007572,s,0,0.20323550001194235,0.04971809999551624,0.049994400003924966,0.10052710000309162,0.1009430000121938,0.3006079999904614
RSVPLG03,km,20251023-092444,1.0.1,20250923-093501,710,Experiment,Both,1,Automatic,main,38,20251023-092938,local,local,750,H,S,E,E,E-H.png,E-S.png,hH,sS,mask-2.png,mask-3.png,h,1,1.0673199000011664,s,1,0.22320120000222232,0.051091100001940504,0.049760199995944276,0.1005109999969136,0.1001447000016924,0.7571032999985619
RSVPLG03,km,20251023-092444,1.0.1,20250923-093501,710,Experiment,Both,1,Automatic,main,39,20251023-092943,global,local,750,S,H,E,A,S-E.png,A-H.png,sS,hH,mask-3.png,mask-1.png,s,1,0.7455062999943038,h,1,0.20883439999306574,0.05179879999195691,0.050583499993081205,0.10154269999475218,0.10109499999089167,0.7565242999990005
RSVPLG03,km,20251023-092444,1.0.1,20250923-093501,710,Experiment,Both,1,Automatic,main,40,20251023-092948,local,local,300,S,H,E,A,E-S.png,A-H.png,sS,hH,mask-3.png,mask-1.png,s,1,1.7881629999901634,h,1,0.11005560000194237,0.05139059999783058,0.048579399997834116,0.10020970000186935,0.10099669999908656,0.303543100002571
RSVPLG03,km,20251023-092444,1.0.1,20250923-093501,710,Experiment,Both,1,Automatic,main,41,20251023-092954,global,global,750,S,H,E,A,S-E.png,H-A.png,sS,hH,mask-4.png,mask-3.png,s,1,0.877442400000291,h,1,0.20228800000040792,0.050917399988975376,0.05036150000523776,0.10068419999151956,0.101878300003591,0.7552846999897156
RSVPLG03,km,20251023-092444,1.0.1,20250923-093501,710,Experiment,Both,1,Automatic,main,42,20251023-092959,global,global,750,S,H,E,E,S-E.png,H-E.png,sS,hH,mask-4.png,mask-3.png,s,1,0.8562411000020802,h,1,0.14366280000831466,0.05028379999566823,0.050725499997497536,0.10054959999979474,0.1008678000071086,0.7557474999921396
RSVPLG03,km,20251023-092444,1.0.1,20250923-093501,710,Experiment,Both,1,Automatic,main,43,20251023-093004,global,local,300,S,H,E,A,S-E.png,A-H.png,sS,hH,mask-2.png,mask-1.png,s,1,0.6531735000025947,h,1,1.3730718000006163,0.04972450000059325,0.0498267999937525,0.10221939999610186,0.10146550000354182,0.30072759999893606
RSVPLG03,km,20251023-092444,1.0.1,20250923-093501,710,Experiment,Both,1,Automatic,main,44,20251023-093010,global,local,750,S,H,A,E,S-A.png,E-H.png,sS,hH,mask-1.png,mask-2.png,h,0,0.5964192999963416,h,1,0.12898850000055972,0.049097399998572655,0.05055409998749383,0.10022799999569543,0.10215949999110308,0.7540363000007346
RSVPLG03,km,20251023-092444,1.0.1,20250923-093501,710,Experiment,Both,1,Automatic,main,45,20251023-093015,global,local,750,S,H,A,A,S-A.png,A-H.png,sS,hH,mask-1.png,mask-2.png,h,0,0.8763288000045577,h,1,0.6577823999978136,0.05010969999420922,0.049646300001768395,0.09964979998767376,0.10042309999698773,0.755340999996406
RSVPLG03,km,20251023-092444,1.0.1,20250923-093501,710,Experiment,Both,1,Automatic,main,46,20251023-093021,global,global,750,H,H,E,A,H-E.png,H-A.png,hH,hH,mask-3.png,mask-1.png,h,1,0.6847464000020409,h,1,0.13038409998989664,0.051526600000215694,0.04893689999880735,0.10104069999943022,0.09913909999886528,0.7568316999968374
RSVPLG03,km,20251023-092444,1.0.1,20250923-093501,710,Experiment,Both,1,Automatic,main,47,20251023-093026,global,global,300,S,H,E,A,S-E.png,H-A.png,sS,hH,mask-2.png,mask-2.png,h,0,1.1035285999969346,s,0,0.32060760000604205,0.0513924999977462,0.049251400007051416,0.10188649999327026,0.10035370000696275,0.30234729999210685
RSVPLG03,km,20251023-092444,1.0.1,20250923-093501,710,Experiment,Both,1,Automatic,main,48,20251023-093031,local,local,300,S,H,E,A,E-S.png,A-H.png,sS,hH,mask-3.png,mask-4.png,s,1,0.8679606999940006,s,0,0.15991070000745822,0.049358999996911734,0.04908640000212472,0.10242009999637958,0.10009049999644049,0.3018841000011889
RSVPLG03,km,20251023-092444,1.0.1,20250923-093501,710,Experiment,Both,1,Automatic,main,49,20251023-093035,local,local,750,S,S,A,A,A-S.png,A-S.png,sS,sS,mask-1.png,mask-4.png,s,1,1.235769300008542,h,0,0.5110045999899739,0.05145970000012312,0.0490669999999227,0.10100629999942612,0.09935119999863673,0.7569879000075161
RSVPLG03,km,20251023-092444,1.0.1,20250923-093501,710,Experiment,Both,1,Automatic,main,50,20251023-093041,local,global,300,H,H,E,A,E-H.png,H-A.png,hH,hH,mask-1.png,mask-1.png,h,1,0.99306149999029,s,0,0.2208814000041457,0.0515033000119729,0.0494668999890564,0.10036440000112634,0.09995499999786261,0.3023496000096202
RSVPLG03,km,20251023-092444,1.0.1,20250923-093501,710,Experiment,Both,1,Automatic,main,51,20251023-093148,local,local,300,H,H,E,A,E-H.png,A-H.png,hH,hH,mask-2.png,mask-2.png,h,1,0.9848910000000615,s,0,0.2564548000082141,0.05142309999791905,0.049416699999710545,0.09959489999164362,0.09974969999166206,0.3020445000001928
RSVPLG03,km,20251023-092444,1.0.1,20250923-093501,710,Experiment,Both,1,Automatic,main,52,20251023-093153,global,local,750,H,H,A,A,H-A.png,A-H.png,hH,hH,mask-3.png,mask-2.png,h,1,0.7805528000026243,h,1,0.0806326000019908,0.05041999999957625,0.050835900008678436,0.09985179999785032,0.10175950000120793,0.7545130999933463
RSVPLG03,km,20251023-092444,1.0.1,20250923-093501,710,Experiment,Both,1,Automatic,main,53,20251023-093158,local,global,300,S,H,A,A,A-S.png,H-A.png,sS,hH,mask-1.png,mask-1.png,h,0,0.801862299995264,s,0,0.27187290000438225,0.04998429999977816,0.05096649999904912,0.10121090000029653,0.10276509998948313,0.3029510000051232
RSVPLG03,km,20251023-092444,1.0.1,20250923-093501,710,Experiment,Both,1,Automatic,main,54,20251023-093203,local,local,300,S,H,E,A,E-S.png,A-H.png,sS,hH,mask-4.png,mask-4.png,s,1,0.9495943999936571,h,1,0.30640820000553504,0.04934009999851696,0.05110250000143424,0.09960689999570604,0.10153569999965839,0.30147089999809396
RSVPLG03,km,20251023-092444,1.0.1,20250923-093501,710,Experiment,Both,1,Automatic,main,55,20251023-093208,local,global,750,H,H,A,A,A-H.png,H-A.png,hH,hH,mask-4.png,mask-3.png,h,1,0.6944703000044683,h,1,0.1462358000135282,0.04975420000846498,0.051040499994996935,0.09978119999868795,0.1014145999943139,0.754205200006254
RSVPLG03,km,20251023-092444,1.0.1,20250923-093501,710,Experiment,Both,1,Automatic,main,56,20251023-093213,local,local,750,S,S,E,E,E-S.png,E-S.png,sS,sS,mask-4.png,mask-2.png,h,0,0.8192793000052916,s,1,0.17203280000831,0.049306299988529645,0.05116180000186432,0.10106959998665843,0.10037330001068767,0.7554565999889746
RSVPLG03,km,20251023-092444,1.0.1,20250923-093501,710,Experiment,Both,1,Automatic,main,57,20251023-093218,global,global,750,H,H,E,E,H-E.png,H-E.png,hH,hH,mask-3.png,mask-2.png,h,1,0.842517900004168,h,1,0.11119190001045354,0.05119359999662265,0.05109189999348018,0.10052759999234695,0.10033159999875352,0.7557176999980584
RSVPLG03,km,20251023-092444,1.0.1,20250923-093501,710,Experiment,Both,1,Automatic,main,58,20251023-093223,local,local,750,S,H,A,A,A-S.png,A-H.png,sS,hH,mask-2.png,mask-3.png,s,1,2.018108000003849,h,1,0.2894788999983575,0.04972060000000056,0.05070170000544749,0.10044689998903777,0.1005555000010645,0.7550882999930764
RSVPLG03,km,20251023-092444,1.0.1,20250923-093501,710,Experiment,Both,1,Automatic,main,59,20251023-093230,local,global,750,H,S,E,A,E-H.png,S-A.png,hH,sS,mask-2.png,mask-1.png,h,1,0.8606407000042964,s,1,0.04849209998792503,0.05064680000941735,0.04985330000636168,0.10236020000593271,0.10081880001234822,0.7565721999999369
RSVPLG03,km,20251023-092444,1.0.1,20250923-093501,710,Experiment,Both,1,Automatic,main,60,20251023-093235,global,global,300,H,S,E,E,H-E.png,S-E.png,hH,sS,mask-2.png,mask-2.png,h,1,1.6421358000079636,s,1,0.014803899990511127,0.050064000010024756,0.04986080000526272,0.10053999999945518,0.10191219999978784,0.30269070000213105
RSVPLG03,km,20251023-092444,1.0.1,20250923-093501,710,Experiment,Both,1,Automatic,main,61,20251023-093240,global,local,300,H,H,A,E,H-A.png,E-H.png,hH,hH,mask-3.png,mask-4.png,h,1,1.7687154000013834,s,0,0.05063939999672584,0.04947600000014063,0.050322099996265024,0.09972779999952763,0.1009671000065282,0.30150079999293666
RSVPLG03,km,20251023-092444,1.0.1,20250923-093501,710,Experiment,Both,1,Automatic,main,62,20251023-093246,local,global,300,H,S,A,E,A-H.png,S-E.png,hH,sS,mask-1.png,mask-2.png,h,1,0.7512167999957455,s,1,0.9112342000007629,0.04933100000198465,0.05165379999380093,0.09844499999599066,0.10066129999177065,0.30124719999730587
RSVPLG03,km,20251023-092444,1.0.1,20250923-093501,710,Experiment,Both,1,Automatic,main,63,20251023-093251,local,local,750,S,H,E,E,E-S.png,E-H.png,sS,hH,mask-1.png,mask-4.png,s,1,0.9744600999983959,h,1,0.2431702000030782,0.05005499999970198,0.05014770000707358,0.1011030999943614,0.10194490000139922,0.7557342999934917
RSVPLG03,km,20251023-092444,1.0.1,20250923-093501,710,Experiment,Both,1,Automatic,main,64,20251023-093257,global,global,300,H,S,E,A,H-E.png,S-A.png,hH,sS,mask-1.png,mask-2.png,h,1,1.4540711000008741,s,1,0.2562374999979511,0.050974500001757406,0.05056930000137072,0.10078209999483079,0.10041140000976156,0.3028780999884475
RSVPLG03,km,20251023-092444,1.0.1,20250923-093501,710,Experiment,Both,1,Automatic,main,65,20251023-093302,global,local,300,S,S,A,E,S-A.png,E-S.png,sS,sS,mask-4.png,mask-4.png,s,1,0.81237990000227,h,0,0.1605271000007633,0.04794519999995828,0.05051329999696463,0.10036340000806376,0.10036609999951907,0.3010902000096394
RSVPLG03,km,20251023-092444,1.0.1,20250923-093501,710,Experiment,Both,1,Automatic,main,66,20251023-093307,local,global,750,H,H,E,E,E-H.png,H-E.png,hH,hH,mask-4.png,mask-2.png,s,0,0.8100833000062266,h,1,0.1773650999966776,0.049422799987951294,0.04918060000636615,0.10139499999058899,0.09800410000025295,0.7577945999946678
RSVPLG03,km,20251023-092444,1.0.1,20250923-093501,710,Experiment,Both,1,Automatic,main,67,20251023-093312,global,global,300,H,H,E,E,H-E.png,H-E.png,hH,hH,mask-4.png,mask-2.png,h,1,1.008887899995898,h,1,0.1442962000000989,0.049351699999533594,0.04923399999097455,0.09958180000830907,0.09905659999640193,0.30290760000934824
RSVPLG03,km,20251023-092444,1.0.1,20250923-093501,710,Experiment,Both,1,Automatic,main,68,20251023-093317,global,local,750,H,S,E,E,H-E.png,E-S.png,hH,sS,mask-3.png,mask-1.png,h,1,0.7910045000026003,s,1,0.31568260000494774,0.0508105000044452,0.049897300006705336,0.09973870000976603,0.09981359999801498,0.7571629000012763
RSVPLG03,km,20251023-092444,1.0.1,20250923-093501,710,Experiment,Both,1,Automatic,main,69,20251023-093322,local,local,750,S,H,A,E,A-S.png,E-H.png,sS,hH,mask-4.png,mask-3.png,h,0,0.8320888999878662,s,0,0.32084559999930207,0.05050589999882504,0.049708700011251494,0.10144149999541696,0.10019160000956617,0.756588299991563
RSVPLG03,km,20251023-092444,1.0.1,20250923-093501,710,Experiment,Both,1,Automatic,main,70,20251023-093327,global,global,750,H,S,A,A,H-A.png,S-A.png,hH,sS,mask-4.png,mask-2.png,h,1,0.6607113999925787,s,1,0.3343333000084385,0.05169649999879766,0.05110669998975936,0.10073649999685585,0.10254749999148771,0.7560265000065556
RSVPLG03,km,20251023-092444,1.0.1,20250923-093501,710,Experiment,Both,1,Automatic,main,71,20251023-093332,global,global,750,H,H,E,E,H-E.png,H-E.png,hH,hH,mask-3.png,mask-3.png,h,1,0.8292806999961613,h,1,0.17742819999693893,0.051701199990930036,0.05061510000086855,0.10010999999940395,0.10199250000005122,0.7540337999962503
RSVPLG03,km,20251023-092444,1.0.1,20250923-093501,710,Experiment,Both,1,Automatic,main,72,20251023-093337,local,local,750,H,S,E,A,E-H.png,A-S.png,hH,sS,mask-1.png,mask-1.png,h,1,0.8930976000119699,h,0,0.15840649999154266,0.05171650000556838,0.052290999999968335,0.10193859999708366,0.10088689999247435,0.7561830000049667
RSVPLG03,km,20251023-092444,1.0.1,20250923-093501,710,Experiment,Both,1,Automatic,main,73,20251023-093342,global,local,300,S,S,E,A,S-E.png,A-S.png,sS,sS,mask-2.png,mask-3.png,h,0,0.911647200002335,s,1,0.22172060000593774,0.05079029999615159,0.05047279999416787,0.10086859999864828,0.09998959999938961,0.3028600999969058
RSVPLG03,km,20251023-092444,1.0.1,20250923-093501,710,Experiment,Both,1,Automatic,main,74,20251023-093347,global,local,300,H,S,A,A,H-A.png,A-S.png,hH,sS,mask-3.png,mask-1.png,h,1,0.8576009999960661,s,1,0.20999820000724867,0.05114799999864772,0.05043649999424815,0.10071450000395998,0.09912819998862687,0.3031383000052301
RSVPLG03,km,20251023-092444,1.0.1,20250923-093501,710,Experiment,Both,1,Automatic,main,75,20251023-093352,local,local,750,S,S,A,E,A-S.png,E-S.png,sS,sS,mask-4.png,mask-3.png,s,1,0.873136299996986,h,0,0.6726532000029692,0.050833800007239915,0.05165940000733826,0.10076580000168178,0.10097360001236666,0.7560770999989472
RSVPLG03,km,20251023-092444,1.0.1,20250923-093501,710,Experiment,Both,1,Automatic,main,76,20251023-093401,global,local,750,H,H,E,E,H-E.png,E-H.png,hH,hH,mask-3.png,mask-1.png,s,0,0.7808226999914041,h,1,0.14348230000177864,0.05115999998815823,0.05066570000781212,0.10140359999786597,0.10169160000805277,0.7566894999908982
RSVPLG03,km,20251023-092444,1.0.1,20250923-093501,710,Experiment,Both,1,Automatic,main,77,20251023-093406,global,local,300,S,H,E,A,S-E.png,A-H.png,sS,hH,mask-3.png,mask-3.png,s,1,0.7837130999978399,h,1,0.17206549999536946,0.05097199999727309,0.051310700000612997,0.1008808000042336,0.10155639999720734,0.302945000003092
RSVPLG03,km,20251023-092444,1.0.1,20250923-093501,710,Experiment,Both,1,Automatic,main,78,20251023-093410,global,global,300,H,H,A,A,H-A.png,H-A.png,hH,hH,mask-3.png,mask-4.png,h,1,0.7427164000109769,h,1,0.07790789999125991,0.04990860000543762,0.049237500003073364,0.09979400000884198,0.09920080000301823,0.3030170999991242
RSVPLG03,km,20251023-092444,1.0.1,20250923-093501,710,Experiment,Both,1,Automatic,main,79,20251023-093415,global,global,300,S,H,A,A,S-A.png,H-A.png,sS,hH,mask-1.png,mask-4.png,h,0,0.8092680999980075,s,0,0.25518919999012724,0.05011670000385493,0.050776899995980784,0.099650299991481,0.10106549999909475,0.30218040000181645
RSVPLG03,km,20251023-092444,1.0.1,20250923-093501,710,Experiment,Both,1,Automatic,main,80,20251023-093419,global,global,300,H,H,E,E,H-E.png,H-E.png,hH,hH,mask-1.png,mask-4.png,h,1,0.7927828000101727,h,1,0.09568790000048466,0.050539699994260445,0.04982520001067314,0.0997510000015609,0.10056200000690296,0.3017927999899257
RSVPLG03,km,20251023-092444,1.0.1,20250923-093501,710,Experiment,Both,1,Automatic,main,81,20251023-093424,local,global,750,S,S,A,E,A-S.png,S-E.png,sS,sS,mask-1.png,mask-2.png,h,0,0.5967433000041638,s,1,0.2591705999948317,0.051212199992733076,0.050827300001401454,0.1011815999954706,0.10020169999916106,0.7564033999951789
RSVPLG03,km,20251023-092444,1.0.1,20250923-093501,710,Experiment,Both,1,Automatic,main,82,20251023-093429,local,global,750,H,H,E,A,E-H.png,H-A.png,hH,hH,mask-1.png,mask-2.png,s,0,0.7370994000084465,h,1,0.16158699999505188,0.05001189999165945,0.050636100000701845,0.1016438999940874,0.1003937999921618,0.7546989999973448
RSVPLG03,km,20251023-092444,1.0.1,20250923-093501,710,Experiment,Both,1,Automatic,main,83,20251023-093434,local,global,750,H,H,A,E,A-H.png,H-E.png,hH,hH,mask-3.png,mask-1.png,h,1,0.904342199995881,h,1,0.0974584999930812,0.04911400000855792,0.052477699995506555,0.09944489999907091,0.10159580000618007,0.7543348000035621
RSVPLG03,km,20251023-092444,1.0.1,20250923-093501,710,Experiment,Both,1,Automatic,main,84,20251023-093439,global,local,750,H,H,A,A,H-A.png,A-H.png,hH,hH,mask-3.png,mask-1.png,h,1,0.6268611999985296,h,1,0.08240509999450296,0.05079350000596605,0.04872770000656601,0.10129059999599122,0.10014900000533089,0.7566567000030773
RSVPLG03,km,20251023-092444,1.0.1,20250923-093501,710,Experiment,Both,1,Automatic,main,85,20251023-093444,local,local,300,S,H,A,E,A-S.png,E-H.png,sS,hH,mask-4.png,mask-1.png,h,0,0.784047000008286,h,1,0.07346640000469051,0.050682899993262254,0.05100619999575429,0.10143399999651592,0.10108409999520518,0.30255700000270735
RSVPLG03,km,20251023-092444,1.0.1,20250923-093501,710,Experiment,Both,1,Automatic,main,86,20251023-093448,global,local,300,H,H,E,A,H-E.png,A-H.png,hH,hH,mask-2.png,mask-2.png,h,1,0.747956700011855,h,1,0.09356160000606906,0.04959180000878405,0.05121330000110902,0.10100290000264067,0.1002376000105869,0.3010271999955876
RSVPLG03,km,20251023-092444,1.0.1,20250923-093501,710,Experiment,Both,1,Automatic,main,87,20251023-093453,local,local,300,S,S,A,A,A-S.png,A-S.png,sS,sS,mask-3.png,mask-1.png,h,0,1.1678165000048466,h,0,0.09775519999675453,0.05156539999006782,0.05006060001323931,0.10096519999206066,0.10127600000123493,0.3035624999902211
RSVPLG03,km,20251023-092444,1.0.1,20250923-093501,710,Experiment,Both,1,Automatic,main,88,20251023-093458,global,global,300,H,S,E,E,H-E.png,S-E.png,hH,sS,mask-3.png,mask-1.png,s,0,0.7066947999992408,h,0,0.12375479999172967,0.05037799999990966,0.05130059999646619,0.10327890000189655,0.102011399998446,0.3024506000074325
RSVPLG03,km,20251023-092444,1.0.1,20250923-093501,710,Experiment,Both,1,Automatic,main,89,20251023-093502,local,local,750,S,H,E,A,E-S.png,A-H.png,sS,hH,mask-2.png,mask-1.png,s,1,0.5995353000034811,h,1,0.17896019999170676,0.04923590000544209,0.053082300000824034,0.10007830000540707,0.1025556999957189,0.7541228000045521
RSVPLG03,km,20251023-092444,1.0.1,20250923-093501,710,Experiment,Both,1,Automatic,main,90,20251023-093507,local,global,750,H,H,E,A,E-H.png,H-A.png,hH,hH,mask-3.png,mask-1.png,h,1,0.672292400005972,s,0,0.5089603999949759,0.050795999995898455,0.048085600006743334,0.10011980000126641,0.09797580000304151,0.7573495999968145
RSVPLG03,km,20251023-092444,1.0.1,20250923-093501,710,Experiment,Both,1,Automatic,main,91,20251023-093512,local,local,750,S,H,A,E,A-S.png,E-H.png,sS,hH,mask-4.png,mask-1.png,s,1,0.6800251999957254,h,1,0.19196980001288466,0.04919320000044536,0.050416099998983555,0.10032359999604523,0.10126229999877978,0.7548998999991454
RSVPLG03,km,20251023-092444,1.0.1,20250923-093501,710,Experiment,Both,1,Automatic,main,92,20251023-093517,local,global,750,H,S,A,E,A-H.png,S-E.png,hH,sS,mask-3.png,mask-2.png,h,1,0.726024800009327,s,1,0.289097100001527,0.05028460000175983,0.052535499999066815,0.10166770000068936,0.09993769999709912,0.7572924999985844
RSVPLG03,km,20251023-092444,1.0.1,20250923-093501,710,Experiment,Both,1,Automatic,main,93,20251023-093523,local,global,300,H,S,A,A,A-H.png,S-A.png,hH,sS,mask-4.png,mask-3.png,h,1,0.7589472000108799,s,1,0.2241546000004746,0.05059879999316763,0.05090949998702854,0.10076139999728184,0.10041249998903368,0.3028836000012234
RSVPLG03,km,20251023-092444,1.0.1,20250923-093501,710,Experiment,Both,1,Automatic,main,94,20251023-093527,global,local,300,H,H,A,E,H-A.png,E-H.png,hH,hH,mask-1.png,mask-1.png,h,1,1.0935672000050545,s,0,1.6127783999982057,0.04975820000981912,0.05092500000318978,0.0999969999975292,0.10050030000275001,0.30311629999778233
RSVPLG03,km,20251023-092444,1.0.1,20250923-093501,710,Experiment,Both,1,Automatic,main,95,20251023-093534,local,global,750,H,S,E,A,E-H.png,S-A.png,hH,sS,mask-4.png,mask-1.png,s,0,0.8380357999994885,s,1,0.2886236999911489,0.049492199992528185,0.049958000003243797,0.1004800999944564,0.1011207999981707,0.7556921999930637
RSVPLG03,km,20251023-092444,1.0.1,20250923-093501,710,Experiment,Both,1,Automatic,main,96,20251023-093539,global,global,300,H,S,A,E,H-A.png,S-E.png,hH,sS,mask-3.png,mask-4.png,h,1,0.9505514000047697,s,1,0.28445690000080504,0.05102220000117086,0.0512445999920601,0.10213139999541454,0.10393339999427553,0.3030179000052158
RSVPLG03,km,20251023-092444,1.0.1,20250923-093501,710,Experiment,Both,1,Automatic,main,97,20251023-093544,global,global,300,S,H,A,A,S-A.png,H-A.png,sS,hH,mask-4.png,mask-4.png,h,0,1.6563155000039842,s,0,0.2874977999890689,0.05104760000540409,0.04807279999658931,0.10015410000050906,0.09853560000192374,0.30352030000358354
RSVPLG03,km,20251023-092444,1.0.1,20250923-093501,710,Experiment,Both,1,Automatic,main,98,20251023-093549,local,local,300,S,H,E,E,E-S.png,E-H.png,sS,hH,mask-2.png,mask-2.png,s,1,0.8915750000014668,s,0,0.10573300000396557,0.05116989999078214,0.05036140000447631,0.1021240999980364,0.10119800000393298,0.30239469998923596
RSVPLG03,km,20251023-092444,1.0.1,20250923-093501,710,Experiment,Both,1,Automatic,main,99,20251023-093554,local,global,300,S,H,E,E,E-S.png,H-E.png,sS,hH,mask-1.png,mask-3.png,s,1,0.8017210999969393,h,1,0.19024359999457374,0.04914130001270678,0.05012939999869559,0.1002716000075452,0.10131840000394732,0.3019728000072064
RSVPLG03,km,20251023-092444,1.0.1,20250923-093501,710,Experiment,Both,1,Automatic,main,100,20251023-093559,local,local,300,S,S,E,A,E-S.png,A-S.png,sS,sS,mask-2.png,mask-4.png,h,0,0.7120271999883698,s,1,0.27999090000230353,0.04974509999738075,0.052073200000450015,0.10101579999900423,0.10197849999531172,0.301731400002609
RSVPLG03,km,20251023-092444,1.0.1,20250923-093501,710,Experiment,Both,1,Automatic,main,101,20251023-093605,global,local,300,H,S,E,E,H-E.png,E-S.png,hH,sS,mask-4.png,mask-2.png,h,1,0.8463294000102906,s,1,0.30055499999434687,0.05096649999904912,0.05182459999923594,0.10209039998881053,0.10194799999590032,0.3022579999960726
RSVPLG03,km,20251023-092444,1.0.1,20250923-093501,710,Experiment,Both,1,Automatic,main,102,20251023-093610,global,local,300,H,H,A,E,H-A.png,E-H.png,hH,hH,mask-4.png,mask-4.png,h,1,0.7227491000085138,s,0,0.2716336000012234,0.05056160000094678,0.05166300000564661,0.10097559999849182,0.10169389999646228,0.30218389999936335
RSVPLG03,km,20251023-092444,1.0.1,20250923-093501,710,Experiment,Both,1,Automatic,main,103,20251023-093615,global,local,750,S,H,A,A,S-A.png,A-H.png,sS,hH,mask-2.png,mask-4.png,s,1,0.5828295999963302,h,1,0.2072723000019323,0.05073170000105165,0.04842849999840837,0.1005552999995416,0.09936979999474715,0.7567521000019042
RSVPLG03,km,20251023-092444,1.0.1,20250923-093501,710,Experiment,Both,1,Automatic,main,104,20251023-093620,global,global,750,S,S,E,A,S-E.png,S-A.png,sS,sS,mask-3.png,mask-4.png,s,1,0.7217501999984961,s,1,0.14444999999250285,0.04970540000067558,0.05007100000511855,0.10120999999344349,0.10087559999374207,0.7566196999978274
RSVPLG03,km,20251023-092444,1.0.1,20250923-093501,710,Experiment,Both,1,Automatic,main,105,20251023-093625,global,global,300,S,H,A,E,S-A.png,H-E.png,sS,hH,mask-4.png,mask-4.png,h,0,0.9220727000065381,s,0,0.25855980000051204,0.047361600009026006,0.04770470000221394,0.09937140000693034,0.09908619998896029,0.30217150000680704
RSVPLG03,km,20251023-092444,1.0.1,20250923-093501,710,Experiment,Both,1,Automatic,main,106,20251023-093629,local,global,750,S,S,A,A,A-S.png,S-A.png,sS,sS,mask-4.png,mask-4.png,s,1,0.9336572000029264,s,1,0.11089100000390317,0.050305999990087,0.050028700003167614,0.10006409999914467,0.10126670000317972,0.754567699987092
RSVPLG03,km,20251023-092444,1.0.1,20250923-093501,710,Experiment,Both,1,Automatic,main,107,20251023-093634,local,global,750,H,S,A,A,A-H.png,S-A.png,hH,sS,mask-2.png,mask-4.png,h,1,0.6471047000086401,s,1,0.3008001999987755,0.04945700000098441,0.051108499988913536,0.09922980000555981,0.10258520000206772,0.7544120000093244
RSVPLG03,km,20251023-092444,1.0.1,20250923-093501,710,Experiment,Both,1,Automatic,main,108,20251023-093639,global,global,750,S,H,A,A,S-A.png,H-A.png,sS,hH,mask-1.png,mask-4.png,s,1,0.6200672000122722,h,1,0.8128586000093492,0.048729999994975515,0.04852959999698214,0.10049250000156462,0.09952689999772701,0.7556362000032095
RSVPLG03,km,20251023-092444,1.0.1,20250923-093501,710,Experiment,Both,1,Automatic,main,109,20251023-093645,global,local,750,H,H,E,E,H-E.png,E-H.png,hH,hH,mask-3.png,mask-2.png,s,0,0.7672814999968978,s,0,0.09684359999664593,0.04891099999076687,0.049933900008909404,0.10099729998910334,0.10014249999949243,0.7564508999930695
RSVPLG03,km,20251023-092444,1.0.1,20250923-093501,710,Experiment,Both,1,Automatic,main,110,20251023-093650,global,global,300,H,H,E,A,H-E.png,H-A.png,hH,hH,mask-3.png,mask-1.png,h,1,0.8636115999979666,s,0,0.25691930000903085,0.0499545000056969,0.05116089999501128,0.1015765000047395,0.10186519999115262,0.30133800000476185
RSVPLG03,km,20251023-092444,1.0.1,20250923-093501,710,Experiment,Both,1,Automatic,main,111,20251023-093655,global,global,750,S,H,A,E,S-A.png,H-E.png,sS,hH,mask-1.png,mask-3.png,s,1,0.7139549999992596,h,1,0.1892437000060454,0.049963199999183416,0.05183700000634417,0.10107069999503437,0.10227550000126939,0.7544848999968963
RSVPLG03,km,20251023-092444,1.0.1,20250923-093501,710,Experiment,Both,1,Automatic,main,112,20251023-093700,global,local,300,H,S,A,E,H-A.png,E-S.png,hH,sS,mask-4.png,mask-3.png,h,1,1.0067092000099365,s,1,0.24983939999947324,0.052160599996568635,0.051756000000750646,0.10254929999064188,0.10221170001022983,0.302914799991413
RSVPLG03,km,20251023-092444,1.0.1,20250923-093501,710,Experiment,Both,1,Automatic,main,113,20251023-093705,global,global,300,S,S,E,A,S-E.png,S-A.png,sS,sS,mask-2.png,mask-3.png,s,1,0.8886043000093196,s,1,0.08140650000132155,0.050325800009886734,0.05115539999678731,0.09947480000846554,0.10016750000067987,0.30277730000671
RSVPLG03,km,20251023-092444,1.0.1,20250923-093501,710,Experiment,Both,1,Automatic,main,114,20251023-093709,local,global,750,H,H,A,A,A-H.png,H-A.png,hH,hH,mask-3.png,mask-2.png,h,1,0.5517461999988882,h,1,0.14243349999014754,0.048269799997797236,0.05141070000536274,0.10021530000085477,0.10193380000418983,0.7550442999927327
RSVPLG03,km,20251023-092444,1.0.1,20250923-093501,710,Experiment,Both,1,Automatic,main,115,20251023-093714,local,global,300,S,H,A,A,A-S.png,H-A.png,sS,hH,mask-2.png,mask-2.png,h,0,0.875700800010236,s,0,0.253949099991587,0.04987309999705758,0.04998770001111552,0.09994539999752305,0.10182780001196079,0.3006680999969831
RSVPLG03,km,20251023-092444,1.0.1,20250923-093501,710,Experiment,Both,1,Automatic,main,116,20251023-093719,global,local,750,H,H,E,E,H-E.png,E-H.png,hH,hH,mask-4.png,mask-1.png,s,0,0.7616803999990225,h,1,0.17058960000576917,0.05023259999870788,0.0483754000015324,0.10149729999830015,0.09925860000657849,0.757306300001801
RSVPLG03,km,20251023-092444,1.0.1,20250923-093501,710,Experiment,Both,1,Automatic,main,117,20251023-093724,local,local,750,S,S,A,E,A-S.png,E-S.png,sS,sS,mask-4.png,mask-1.png,s,1,0.667093099997146,s,1,0.11280770000303164,0.04926159999740776,0.049491600002511404,0.10124610000639223,0.10034770000493154,0.7557948000030592
RSVPLG03,km,20251023-092444,1.0.1,20250923-093501,710,Experiment,Both,1,Automatic,main,118,20251023-093729,global,local,300,H,H,E,A,H-E.png,A-H.png,hH,hH,mask-2.png,mask-2.png,h,1,0.7605917000037152,h,1,0.07668559999729041,0.05107940000016242,0.050074500002665445,0.10114569999859668,0.10033180000027642,0.3030945999926189
RSVPLG03,km,20251023-092444,1.0.1,20250923-093501,710,Experiment,Both,1,Automatic,main,119,20251023-093734,global,local,300,S,S,E,A,S-E.png,A-S.png,sS,sS,mask-1.png,mask-3.png,h,0,0.8306712000048719,s,1,0.26573329999519046,0.05097050000040326,0.0513100999960443,0.10003909999795724,0.10123749999911524,0.30266190000111237
RSVPLG03,km,20251023-092444,1.0.1,20250923-093501,710,Experiment,Both,1,Automatic,main,120,20251023-093738,local,global,300,H,H,A,E,A-H.png,H-E.png,hH,hH,mask-3.png,mask-4.png,h,1,1.2378148999996483,s,0,0.2580673000047682,0.05023090000031516,0.05171359999803826,0.1015208999888273,0.10042790000443347,0.30354379999334924
RSVPLG03,km,20251023-092444,1.0.1,20250923-093501,710,Experiment,Both,1,Automatic,main,121,20251023-093743,global,global,750,H,S,E,E,H-E.png,S-E.png,hH,sS,mask-1.png,mask-2.png,h,1,0.6489850999932969,s,1,0.3819816000032006,0.05064950000087265,0.050074600003426895,0.09978159998718183,0.10032299999147654,0.7553391999972519
RSVPLG03,km,20251023-092444,1.0.1,20250923-093501,710,Experiment,Both,1,Automatic,main,122,20251023-093749,local,global,300,H,H,E,E,E-H.png,H-E.png,hH,hH,mask-2.png,mask-1.png,s,0,0.8950201999978162,h,1,0.23700389999430627,0.05082959998981096,0.04945940000470728,0.10233329999027774,0.10059580000233836,0.3033378999971319
RSVPLG03,km,20251023-092444,1.0.1,20250923-093501,710,Experiment,Both,1,Automatic,main,123,20251023-093753,global,local,300,S,H,E,A,S-E.png,A-H.png,sS,hH,mask-1.png,mask-4.png,s,1,0.8523322000110056,h,1,0.23328570000012405,0.04872560000512749,0.05175949999829754,0.09933029999956489,0.10079379999660887,0.30131290000281297
RSVPLG03,km,20251023-092444,1.0.1,20250923-093501,710,Experiment,Both,1,Automatic,main,124,20251023-093758,global,global,750,S,H,E,E,S-E.png,H-E.png,sS,hH,mask-3.png,mask-1.png,s,1,0.7444001999974716,h,1,0.161195199994836,0.051894100004574284,0.049044599989429116,0.1006653000076767,0.09973429999081418,0.7570052000082796
RSVPLG03,km,20251023-092444,1.0.1,20250923-093501,710,Experiment,Both,1,Automatic,main,125,20251023-093803,global,global,750,H,S,A,A,H-A.png,S-A.png,hH,sS,mask-4.png,mask-3.png,h,1,0.7561646999965888,s,1,0.393973600002937,0.05133430000569206,0.05088150000665337,0.10194779999437742,0.10012190000270493,0.7566478999942774
RSVPLG03,km,20251023-093848,1.0.1,20250923-093501,710,Experiment,Both,1,Automatic,warmup,1,20251023-093917,global,global,750,S,S,E,A,S-E.png,S-A.png,sS,sS,mask-2.png,mask-2.png,s,1,10.757284499995876,h,0,0.19412660000671167,0.049034499999834225,0.05160399999294896,0.09834499999124091,0.1016486000007717,0.7484365999989677
RSVPLG03,km,20251023-093848,1.0.1,20250923-093501,710,Experiment,Both,1,Automatic,warmup,2,20251023-093932,local,local,750,S,S,A,A,A-S.png,A-S.png,sS,sS,mask-3.png,mask-4.png,s,1,0.9064152999926591,h,0,0.23561390000395477,0.04921019999892451,0.04929199999605771,0.1009526999987429,0.09963559999596328,0.7507806999929016
RSVPLG03,km,20251023-093848,1.0.1,20250923-093501,710,Experiment,Both,1,Automatic,warmup,3,20251023-093938,global,global,300,S,H,A,E,S-A.png,H-E.png,sS,hH,mask-4.png,mask-4.png,h,0,1.149710400000913,s,0,0.0801017000048887,0.05006540000613313,0.05010720000427682,0.10061560000758618,0.1007990000071004,0.29942310000478756
RSVPLG03,km,20251023-093848,1.0.1,20250923-093501,710,Experiment,Both,1,Automatic,warmup,4,20251023-093943,local,global,750,H,S,E,E,E-H.png,S-E.png,hH,sS,mask-4.png,mask-2.png,s,0,0.559140400000615,h,0,0.31457859999500215,0.05014609999489039,0.05083250001189299,0.10051170000224374,0.1013746000098763,0.7497605999960797
RSVPLG03,km,20251023-093848,1.0.1,20250923-093501,710,Experiment,Both,1,Automatic,warmup,5,20251023-093948,global,local,750,H,S,A,E,H-A.png,E-S.png,hH,sS,mask-4.png,mask-1.png,s,0,0.9124688000010792,s,1,0.17695609999645967,0.050101100001484156,0.05144809999910649,0.10010719999263529,0.1017305999994278,0.7502399999939371
RSVPLG03,km,20251023-093848,1.0.1,20250923-093501,710,Experiment,Both,1,Automatic,main,6,20251023-093953,global,global,750,S,S,A,A,S-A.png,S-A.png,sS,sS,mask-1.png,mask-2.png,s,1,0.7522515999880852,h,0,0.35093179999967106,0.04927709999901708,0.05149870000605006,0.09953930000483524,0.10189790000731591,0.7483961999969324
RSVPLG03,km,20251023-093848,1.0.1,20250923-093501,710,Experiment,Both,1,Automatic,main,7,20251023-093958,global,global,750,H,S,A,A,H-A.png,S-A.png,hH,sS,mask-3.png,mask-2.png,s,0,0.8158383999980288,h,0,0.38521949999267235,0.04961570000159554,0.049646200001006946,0.09851860000344459,0.1008845000033034,0.7491852000093786
RSVPLG03,km,20251023-093848,1.0.1,20250923-093501,710,Experiment,Both,1,Automatic,main,8,20251023-094003,local,global,300,S,S,E,E,E-S.png,S-E.png,sS,sS,mask-3.png,mask-4.png,s,1,1.3887397999933455,s,1,0.49657899999874644,0.049897600008989684,0.049524299989570864,0.100518600011128,0.10028719999536406,0.300035400010529
RSVPLG03,km,20251023-093848,1.0.1,20250923-093501,710,Experiment,Both,1,Automatic,main,9,20251023-094009,local,local,750,S,S,A,E,A-S.png,E-S.png,sS,sS,mask-2.png,mask-2.png,s,1,1.2140111000044271,s,1,0.18750839999120217,0.04942490000394173,0.051108100000419654,0.0989902000001166,0.10201439999218564,0.7488778000115417
RSVPLG03,km,20251023-093848,1.0.1,20250923-093501,710,Experiment,Both,1,Automatic,main,10,20251023-094015,global,local,750,S,H,A,E,S-A.png,E-H.png,sS,hH,mask-4.png,mask-4.png,s,1,1.3640290000039386,s,0,0.12912340000912081,0.048226300001260825,0.05073219999030698,0.09890899999300018,0.1000274999969406,0.7485438000003342
RSVPLG03,km,20251023-093848,1.0.1,20250923-093501,710,Experiment,Both,1,Automatic,main,11,20251023-094021,local,local,300,S,S,E,A,E-S.png,A-S.png,sS,sS,mask-3.png,mask-2.png,s,1,0.4544244999997318,h,0,0.3356059999932768,0.05052390000491869,0.050033699997584336,0.10096840000187512,0.10034420000738464,0.30105840000032913
RSVPLG03,km,20251023-093848,1.0.1,20250923-093501,710,Experiment,Both,1,Automatic,main,12,20251023-094025,local,global,750,H,S,E,E,E-H.png,S-E.png,hH,sS,mask-4.png,mask-4.png,h,1,0.9346548000030452,s,1,0.5456001999991713,0.05043610000575427,0.04971989999467041,0.09971609999774955,0.09999649999372195,0.7509255000040866
RSVPLG03,km,20251023-093848,1.0.1,20250923-093501,710,Experiment,Both,1,Automatic,main,13,20251023-094031,global,global,750,H,S,E,E,H-E.png,S-E.png,hH,sS,mask-3.png,mask-4.png,h,1,1.2709393999975873,s,1,1.7125231999962125,0.04974750000110362,0.05155820000800304,0.1000248000054853,0.10140369999862742,0.7499061999988044
RSVPLG03,km,20251023-093848,1.0.1,20250923-093501,710,Experiment,Both,1,Automatic,main,14,20251023-094038,local,local,300,S,H,E,E,E-S.png,E-H.png,sS,hH,mask-3.png,mask-2.png,s,1,0.933544500003336,h,1,0.38599740000790916,0.050672500001383014,0.049420200011809357,0.10029780000331812,0.09905830000934657,0.30105819999880623
RSVPLG03,km,20251023-093848,1.0.1,20250923-093501,710,Experiment,Both,1,Automatic,main,15,20251023-094043,global,global,750,S,S,E,E,S-E.png,S-E.png,sS,sS,mask-3.png,mask-2.png,s,1,0.840121100001852,h,0,0.3057198000024073,0.05010290000063833,0.050987199996598065,0.10003339999821037,0.10022900000330992,0.7503834999952232
RSVPLG03,km,20251023-093848,1.0.1,20250923-093501,710,Experiment,Both,1,Automatic,main,16,20251023-094048,local,global,750,H,H,A,E,A-H.png,H-E.png,hH,hH,mask-1.png,mask-2.png,h,1,0.909853999997722,h,1,0.14525180000055116,0.05047260000719689,0.05065730000205804,0.10036989999935031,0.10043619999487419,0.750871800002642
RSVPLG03,km,20251023-093848,1.0.1,20250923-093501,710,Experiment,Both,1,Automatic,main,17,20251023-094053,global,local,300,S,H,E,A,S-E.png,A-H.png,sS,hH,mask-2.png,mask-1.png,h,0,0.8483701000077417,s,0,0.32678060000762343,0.05177969999203924,0.05155810000724159,0.09920149999379646,0.10094709999975748,0.2992756999883568
RSVPLG03,km,20251023-093848,1.0.1,20250923-093501,710,Experiment,Both,1,Automatic,main,18,20251023-094058,global,local,750,S,H,A,A,S-A.png,A-H.png,sS,hH,mask-1.png,mask-2.png,s,1,0.8112693000002764,h,1,0.24219340000126977,0.04817179999372456,0.05029930001182947,0.0986471999931382,0.10023690000525676,0.7481874999939464
RSVPLG03,km,20251023-093848,1.0.1,20250923-093501,710,Experiment,Both,1,Automatic,main,19,20251023-094103,global,global,750,S,S,E,E,S-E.png,S-E.png,sS,sS,mask-2.png,mask-3.png,s,1,0.8127793999883579,s,1,0.6825296000024537,0.05040559999179095,0.05112560000270605,0.10035120000247844,0.100165099996957,0.750511699996423
RSVPLG03,km,20251023-093848,1.0.1,20250923-093501,710,Experiment,Both,1,Automatic,main,20,20251023-094109,global,local,750,H,H,A,E,H-A.png,E-H.png,hH,hH,mask-2.png,mask-4.png,s,0,0.8847802999953274,h,1,0.17162639999878593,0.05009929998777807,0.049735900000086986,0.10036199999740347,0.10048200000892393,0.7510385999921709
RSVPLG03,km,20251023-093848,1.0.1,20250923-093501,710,Experiment,Both,1,Automatic,main,21,20251023-094114,global,global,750,H,H,E,A,H-E.png,H-A.png,hH,hH,mask-1.png,mask-2.png,h,1,0.993542800002615,h,1,0.0803025999921374,0.0493416000099387,0.04921480000484735,0.09963609999977052,0.1001172999967821,0.7500182000076165
RSVPLG03,km,20251023-093848,1.0.1,20250923-093501,710,Experiment,Both,1,Automatic,main,22,20251023-094119,global,local,300,H,S,A,E,H-A.png,E-S.png,hH,sS,mask-1.png,mask-1.png,h,1,1.5541549000045052,s,1,0.3704241999948863,0.048497399999178015,0.04856799999834038,0.09820380000746809,0.09807730000466108,0.2999730000010459
RSVPLG03,km,20251023-093848,1.0.1,20250923-093501,710,Experiment,Both,1,Automatic,main,23,20251023-094125,global,local,300,H,H,A,E,H-A.png,E-H.png,hH,hH,mask-4.png,mask-4.png,h,1,1.0449266999930842,s,0,0.3555917000048794,0.0504192999942461,0.048860399998375215,0.09977809998963494,0.09862489999795798,0.30058749999443535
RSVPLG03,km,20251023-093848,1.0.1,20250923-093501,710,Experiment,Both,1,Automatic,main,24,20251023-094130,local,global,750,S,S,E,E,E-S.png,S-E.png,sS,sS,mask-3.png,mask-4.png,s,1,0.8060293000016827,h,0,0.25700729999516625,0.049960300006205216,0.05042240000329912,0.10095039999578148,0.09961509999993723,0.7500574000005145
RSVPLG03,km,20251023-093848,1.0.1,20250923-093501,710,Experiment,Both,1,Automatic,main,25,20251023-094135,global,global,750,S,S,E,E,S-E.png,S-E.png,sS,sS,mask-3.png,mask-3.png,s,1,0.7546522000047844,s,1,0.04737349999777507,0.049954499991144985,0.04883259999041911,0.09978689999843482,0.10091259999899194,0.7498875000019325
RSVPLG03,km,20251023-093848,1.0.1,20250923-093501,710,Experiment,Both,1,Automatic,main,26,20251023-094246,local,global,750,S,H,A,E,A-S.png,H-E.png,sS,hH,mask-1.png,mask-4.png,s,1,0.7301168999983929,h,1,0.28353520001110155,0.05019120000360999,0.05026590000488795,0.10071440000319853,0.10027940000873059,0.7502744999947026
RSVPLG03,km,20251023-093848,1.0.1,20250923-093501,710,Experiment,Both,1,Automatic,main,27,20251023-094251,global,local,750,S,H,E,A,S-E.png,A-H.png,sS,hH,mask-3.png,mask-2.png,s,1,0.7746294000098715,h,1,0.19485610000265297,0.049939899996388704,0.04989490000298247,0.09998579999955837,0.10008899999957066,0.7507865999941714
RSVPLG03,km,20251023-093848,1.0.1,20250923-093501,710,Experiment,Both,1,Automatic,main,28,20251023-094256,local,local,750,S,H,E,E,E-S.png,E-H.png,sS,hH,mask-3.png,mask-1.png,h,0,1.1318800000008196,h,1,0.6417040999949677,0.05012759999954142,0.04988910000247415,0.10028699999384116,0.09934099999372847,0.752274500002386
RSVPLG03,km,20251023-093848,1.0.1,20250923-093501,710,Experiment,Both,1,Automatic,main,29,20251023-094302,global,global,750,H,H,A,E,H-A.png,H-E.png,hH,hH,mask-3.png,mask-3.png,h,1,1.2273254000028828,s,0,0.5900676000019303,0.049871399998664856,0.05102689999330323,0.09968210000079125,0.10077219999220688,0.7483437000046251
RSVPLG03,km,20251023-093848,1.0.1,20250923-093501,710,Experiment,Both,1,Automatic,main,30,20251023-094308,local,local,750,S,H,E,E,E-S.png,E-H.png,sS,hH,mask-2.png,mask-4.png,h,0,1.4370619999972405,s,0,0.4147335000016028,0.049792299992986955,0.0504817000037292,0.10074819999863394,0.09821110000484623,0.751061099988874
RSVPLG03,km,20251023-093848,1.0.1,20250923-093501,710,Experiment,Both,1,Automatic,main,31,20251023-094313,global,local,300,S,H,A,A,S-A.png,A-H.png,sS,hH,mask-2.png,mask-1.png,s,1,1.1168506999965757,h,1,0.22454470000229776,0.04901329999847803,0.05149679999158252,0.0975107999984175,0.09949599999526981,0.2982079000066733
RSVPLG03,km,20251023-093848,1.0.1,20250923-093501,710,Experiment,Both,1,Automatic,main,32,20251023-094318,global,global,300,H,S,A,A,H-A.png,S-A.png,hH,sS,mask-3.png,mask-4.png,h,1,1.30246609999449,h,0,0.11224899999797344,0.051156999994418584,0.04804349999176338,0.10077190000447445,0.10003699999651872,0.30239710000751074
RSVPLG03,km,20251023-093848,1.0.1,20250923-093501,710,Experiment,Both,1,Automatic,main,33,20251023-094324,local,global,300,H,H,A,A,A-H.png,H-A.png,hH,hH,mask-2.png,mask-4.png,h,1,0.8552903999952832,h,1,0.12826560001121834,0.051194400002714247,0.05002200001035817,0.10001680000277702,0.09856190001301002,0.30237839999608696
RSVPLG03,km,20251023-093848,1.0.1,20250923-093501,710,Experiment,Both,1,Automatic,main,34,20251023-094328,global,global,300,S,S,E,A,S-E.png,S-A.png,sS,sS,mask-2.png,mask-4.png,h,0,0.9820288999908371,s,1,0.4911461000010604,0.049689200008288026,0.04971789999399334,0.10050250000494998,0.1004393000039272,0.29950690000259783
RSVPLG03,km,20251023-093848,1.0.1,20250923-093501,710,Experiment,Both,1,Automatic,main,35,20251023-094333,local,local,300,S,S,E,A,E-S.png,A-S.png,sS,sS,mask-3.png,mask-2.png,s,1,0.8381668000074569,h,0,0.2029906999960076,0.05057880000094883,0.050376600003801286,0.09996740000497084,0.10016089999407995,0.29996390000451356
RSVPLG03,km,20251023-093848,1.0.1,20250923-093501,710,Experiment,Both,1,Automatic,main,36,20251023-094338,local,local,750,H,S,E,A,E-H.png,A-S.png,hH,sS,mask-2.png,mask-1.png,h,1,0.7839268999960041,h,0,0.22239569999510422,0.05042189999949187,0.048814399997354485,0.09881329999188893,0.09933319999254309,0.7500043000036385
RSVPLG03,km,20251023-093848,1.0.1,20250923-093501,710,Experiment,Both,1,Automatic,main,37,20251023-094343,global,global,750,H,H,E,E,H-E.png,H-E.png,hH,hH,mask-1.png,mask-2.png,h,1,1.0326925999979721,h,1,0.19282229999953415,0.05067579999740701,0.04914210000424646,0.09934459999203682,0.09965329999977257,0.7503663999959826
RSVPLG03,km,20251023-093848,1.0.1,20250923-093501,710,Experiment,Both,1,Automatic,main,38,20251023-094349,local,local,750,S,S,E,A,E-S.png,A-S.png,sS,sS,mask-4.png,mask-1.png,s,1,0.7012012999912258,h,0,0.22317650000331923,0.049830799995106645,0.04992780000611674,0.10066589999769349,0.09979760000715032,0.7518686999974307
RSVPLG03,km,20251023-093848,1.0.1,20250923-093501,710,Experiment,Both,1,Automatic,main,39,20251023-094354,local,global,300,H,H,E,A,E-H.png,H-A.png,hH,hH,mask-2.png,mask-4.png,h,1,1.1605529999942519,h,1,0.14492900000186637,0.047952699998859316,0.049036100012017414,0.09574079999583773,0.09879560000263155,0.2979919999925187
RSVPLG03,km,20251023-093848,1.0.1,20250923-093501,710,Experiment,Both,1,Automatic,main,40,20251023-094359,local,local,300,S,S,E,A,E-S.png,A-S.png,sS,sS,mask-4.png,mask-3.png,s,1,1.0244008999870857,h,0,0.2092733000026783,0.05000070000824053,0.0510406000103103,0.1012965000118129,0.1004741000069771,0.30024430000048596
RSVPLG03,km,20251023-093848,1.0.1,20250923-093501,710,Experiment,Both,1,Automatic,main,41,20251023-094404,local,global,750,H,H,E,E,E-H.png,H-E.png,hH,hH,mask-1.png,mask-1.png,h,1,1.023170200001914,s,0,0.11078110001108143,0.04891119999228977,0.049564200002350844,0.09891899999638554,0.09977689999504946,0.7507405999931507
RSVPLG03,km,20251023-093848,1.0.1,20250923-093501,710,Experiment,Both,1,Automatic,main,42,20251023-094409,global,local,750,H,S,E,A,H-E.png,A-S.png,hH,sS,mask-4.png,mask-3.png,h,1,0.9005535000032978,h,0,0.23815740000281949,0.04845180000120308,0.05100759999186266,0.09759969999140594,0.10100609999790322,0.748369900000398
RSVPLG03,km,20251023-093848,1.0.1,20250923-093501,710,Experiment,Both,1,Automatic,main,43,20251023-094414,global,local,750,S,S,A,A,S-A.png,A-S.png,sS,sS,mask-1.png,mask-4.png,h,0,1.3326066999870818,s,1,0.43412990000797436,0.05100039999524597,0.04692660000000615,0.09992699998838361,0.09677179998834617,0.7528664999990724
RSVPLG03,km,20251023-093848,1.0.1,20250923-093501,710,Experiment,Both,1,Automatic,main,44,20251023-094420,local,local,750,H,H,A,E,A-H.png,E-H.png,hH,hH,mask-4.png,mask-1.png,h,1,1.5056280999997398,s,0,0.4832326000032481,0.05011670000385493,0.049914300005184487,0.10007040000346024,0.09915049999835901,0.7513104999961797
RSVPLG03,km,20251023-093848,1.0.1,20250923-093501,710,Experiment,Both,1,Automatic,main,45,20251023-094426,local,global,750,H,H,E,E,E-H.png,H-E.png,hH,hH,mask-2.png,mask-2.png,h,1,0.6695010999974329,h,1,0.14425900000787806,0.05035420000785962,0.050692499993601814,0.10182140000688378,0.09976869999081828,0.7506528000085382
RSVPLG03,km,20251023-093848,1.0.1,20250923-093501,710,Experiment,Both,1,Automatic,main,46,20251023-094431,local,global,750,S,S,A,A,A-S.png,S-A.png,sS,sS,mask-4.png,mask-4.png,h,0,0.8485118000098737,s,1,0.4639290000050096,0.049224800008232705,0.05090990000462625,0.09801270000752993,0.10035849999985658,0.7487576999992598
RSVPLG03,km,20251023-093848,1.0.1,20250923-093501,710,Experiment,Both,1,Automatic,main,47,20251023-094437,local,global,300,S,S,E,E,E-S.png,S-E.png,sS,sS,mask-4.png,mask-4.png,h,0,0.9000554000085685,s,1,0.49593649999587797,0.047715799999423325,0.05031869999947958,0.09869630000321195,0.1009193000063533,0.2976104999979725
RSVPLG03,km,20251023-093848,1.0.1,20250923-093501,710,Experiment,Both,1,Automatic,main,48,20251023-094442,local,local,750,S,H,A,E,A-S.png,E-H.png,sS,hH,mask-4.png,mask-3.png,h,0,0.7935070999956224,s,0,0.4810031999950297,0.04669819999253377,0.04987640000763349,0.09565439999278169,0.10097900000982918,0.7449530999874696
RSVPLG03,km,20251023-093848,1.0.1,20250923-093501,710,Experiment,Both,1,Automatic,main,49,20251023-094447,global,global,750,H,H,E,A,H-E.png,H-A.png,hH,hH,mask-4.png,mask-2.png,h,1,0.9369312000053469,h,1,0.49606360000325367,0.04911750000610482,0.04993369999283459,0.0994083999976283,0.09933329999330454,0.750344900006894
RSVPLG03,km,20251023-093848,1.0.1,20250923-093501,710,Experiment,Both,1,Automatic,main,50,20251023-094453,local,local,300,S,H,A,A,A-S.png,A-H.png,sS,hH,mask-1.png,mask-1.png,h,0,0.6212979999982053,h,1,0.19107719999738038,0.05042830000456888,0.04880010000488255,0.10148480000498239,0.09878250000474509,0.30066910000459757
RSVPLG03,km,20251023-093848,1.0.1,20250923-093501,710,Experiment,Both,1,Automatic,main,51,20251023-094502,local,global,300,S,H,E,A,E-S.png,H-A.png,sS,hH,mask-2.png,mask-4.png,h,0,1.3499910999962594,s,0,0.24052110000047833,0.05034590000286698,0.050321000002440996,0.09954239999933634,0.09998440000344999,0.30027370000607334
RSVPLG03,km,20251023-093848,1.0.1,20250923-093501,710,Experiment,Both,1,Automatic,main,52,20251023-094507,global,global,300,H,S,A,E,H-A.png,S-E.png,hH,sS,mask-3.png,mask-2.png,s,0,0.7987594000005629,h,0,0.4811818000016501,0.0498102999990806,0.05133370000112336,0.10023500000534113,0.09952659999544267,0.3002545000053942
RSVPLG03,km,20251023-093848,1.0.1,20250923-093501,710,Experiment,Both,1,Automatic,main,53,20251023-094512,local,global,300,S,H,A,A,A-S.png,H-A.png,sS,hH,mask-1.png,mask-1.png,h,0,0.5370511999935843,s,0,0.011207799994735979,0.050355500003206544,0.05032530000607949,0.10119080000731628,0.09970469999825582,0.301215500003309
RSVPLG03,km,20251023-093848,1.0.1,20250923-093501,710,Experiment,Both,1,Automatic,main,54,20251023-094516,global,global,300,S,S,A,E,S-A.png,S-E.png,sS,sS,mask-4.png,mask-1.png,s,1,1.1893215000018245,h,0,0.04965509999601636,0.04937409999547526,0.04960640000354033,0.09898310000426136,0.09964740001305472,0.3007727999938652
RSVPLG03,km,20251023-093848,1.0.1,20250923-093501,710,Experiment,Both,1,Automatic,main,55,20251023-094521,local,global,300,S,S,A,E,A-S.png,S-E.png,sS,sS,mask-2.png,mask-1.png,s,1,0.6388333000068087,h,0,0.03486960000009276,0.04895710000710096,0.049559799997950904,0.09970140000223182,0.09959739999612793,0.29919479999807663
RSVPLG03,km,20251023-093848,1.0.1,20250923-093501,710,Experiment,Both,1,Automatic,main,56,20251023-094525,global,global,750,S,H,E,E,S-E.png,H-E.png,sS,hH,mask-3.png,mask-4.png,s,1,0.5857144000037806,h,1,0.10718449999694712,0.05074990000866819,0.04968289998942055,0.10181550000561401,0.09960319999663625,0.752928800007794
RSVPLG03,km,20251023-093848,1.0.1,20250923-093501,710,Experiment,Both,1,Automatic,main,57,20251023-094530,local,local,300,S,S,E,E,E-S.png,E-S.png,sS,sS,mask-2.png,mask-3.png,s,1,0.3559421999962069,s,1,0.1292968999914592,0.04868520000309218,0.05024080000293907,0.09845119999954477,0.09980260000156704,0.298816499998793
RSVPLG03,km,20251023-093848,1.0.1,20250923-093501,710,Experiment,Both,1,Automatic,main,58,20251023-094535,local,global,750,H,S,A,E,A-H.png,S-E.png,hH,sS,mask-3.png,mask-1.png,h,1,0.943793900005403,s,1,0.5452615999965928,0.04888960000243969,0.049578899997868575,0.1004838000080781,0.10057969999616034,0.7508717000018805
RSVPLG03,km,20251023-093848,1.0.1,20250923-093501,710,Experiment,Both,1,Automatic,main,59,20251023-094540,global,global,300,S,S,A,E,S-A.png,S-E.png,sS,sS,mask-3.png,mask-4.png,s,1,0.5133267999917734,s,1,0.12916929999482818,0.05000339999969583,0.04936259999522008,0.10045349999563769,0.09754779998911545,0.30153140000766143
RSVPLG03,km,20251023-093848,1.0.1,20250923-093501,710,Experiment,Both,1,Automatic,main,60,20251023-094545,global,local,750,S,S,E,E,S-E.png,E-S.png,sS,sS,mask-3.png,mask-1.png,h,0,0.5904636999912327,s,1,0.7346816999925068,0.050458100013202056,0.04930739999690559,0.0991993000061484,0.09930630000599194,0.7513497000036296
RSVPLG03,km,20251023-093848,1.0.1,20250923-093501,710,Experiment,Both,1,Automatic,main,61,20251023-094549,local,global,300,H,S,E,E,E-H.png,S-E.png,hH,sS,mask-4.png,mask-3.png,s,0,0.3565577999979723,s,1,0.06458160000329372,0.05062029999680817,0.04983699999866076,0.10007770000083838,0.09980070000165142,0.2998169000056805
RSVPLG03,km,20251023-093848,1.0.1,20250923-093501,710,Experiment,Both,1,Automatic,main,62,20251023-094554,global,global,300,H,H,A,A,H-A.png,H-A.png,hH,hH,mask-4.png,mask-4.png,h,1,0.5471602000034181,s,0,0.7228543999954127,0.05019810001249425,0.049300300001050346,0.09966780000831932,0.09951619998901151,0.29951560001063626
RSVPLG03,km,20251023-093848,1.0.1,20250923-093501,710,Experiment,Both,1,Automatic,main,63,20251023-094558,local,global,750,H,S,A,E,A-H.png,S-E.png,hH,sS,mask-3.png,mask-4.png,h,1,0.41869179999048356,s,1,0.02571469999384135,0.04868519998854026,0.048247800004901364,0.0998051999922609,0.09822169999824837,0.7507002999918768
RSVPLG03,km,20251023-093848,1.0.1,20250923-093501,710,Experiment,Both,1,Automatic,main,64,20251023-094603,global,local,750,H,H,E,A,H-E.png,A-H.png,hH,hH,mask-3.png,mask-3.png,h,1,0.360481499999878,h,1,0.2572431000007782,0.04976389999501407,0.05147959999158047,0.09926380000251811,0.1012637999956496,0.7488153000012971
RSVPLG03,km,20251023-093848,1.0.1,20250923-093501,710,Experiment,Both,1,Automatic,main,65,20251023-094607,local,local,300,H,H,A,A,A-H.png,A-H.png,hH,hH,mask-1.png,mask-3.png,h,1,0.8134845000022324,s,0,0.22430200000235345,0.04975029999332037,0.04963490000227466,0.09922859999642242,0.10031340000568889,0.29926839999097865
RSVPLG03,km,20251023-093848,1.0.1,20250923-093501,710,Experiment,Both,1,Automatic,main,66,20251023-094612,local,local,300,H,H,A,A,A-H.png,A-H.png,hH,hH,mask-4.png,mask-3.png,h,1,0.560861300007673,h,1,0.2831836999976076,0.04988289999892004,0.04974049999145791,0.09976870000537019,0.09950329999264795,0.30040250001184177
RSVPLG03,km,20251023-093848,1.0.1,20250923-093501,710,Experiment,Both,1,Automatic,main,67,20251023-094617,local,local,300,H,H,E,E,E-H.png,E-H.png,hH,hH,mask-2.png,mask-1.png,h,1,1.2919359999941662,s,0,0.1286209000099916,0.04996269999537617,0.04771110000729095,0.10002939999685623,0.09765199999674223,0.3016963999980362
RSVPLG03,km,20251023-093848,1.0.1,20250923-093501,710,Experiment,Both,1,Automatic,main,68,20251023-094622,local,local,750,H,H,E,A,E-H.png,A-H.png,hH,hH,mask-1.png,mask-2.png,h,1,0.4719134000042686,s,0,0.18629840000357945,0.04938110000512097,0.04904900000838097,0.10043279999808874,0.09987000000546686,0.7507815999997547
RSVPLG03,km,20251023-093848,1.0.1,20250923-093501,710,Experiment,Both,1,Automatic,main,69,20251023-094627,global,local,750,H,S,A,E,H-A.png,E-S.png,hH,sS,mask-1.png,mask-2.png,h,1,1.0187745000002906,s,1,1.1789575000002515,0.0486732999997912,0.048974499994073994,0.1000616999954218,0.09932660000049509,0.7501703000016278
RSVPLG03,km,20251023-093848,1.0.1,20250923-093501,710,Experiment,Both,1,Automatic,main,70,20251023-094632,local,global,750,H,S,A,A,A-H.png,S-A.png,hH,sS,mask-4.png,mask-4.png,h,1,1.1337724999903003,s,1,0.01689119999355171,0.04882440000073984,0.05030299999634735,0.09963080000306945,0.10038049999275245,0.75003550000838
RSVPLG03,km,20251023-093848,1.0.1,20250923-093501,710,Experiment,Both,1,Automatic,main,71,20251023-094638,global,local,300,S,H,A,E,S-A.png,E-H.png,sS,hH,mask-2.png,mask-4.png,h,0,0.5383373999939067,s,0,0.025473200003034435,0.05158830000436865,0.050375099992379546,0.10115900001255795,0.09961599999223836,0.2994395000132499
RSVPLG03,km,20251023-093848,1.0.1,20250923-093501,710,Experiment,Both,1,Automatic,main,72,20251023-094642,global,local,300,H,S,E,A,H-E.png,A-S.png,hH,sS,mask-2.png,mask-1.png,h,1,0.568298500002129,s,1,0.09748489999037702,0.05039940000278875,0.050408800001605414,0.10067990000243299,0.09913570000207983,0.3015287000016542
RSVPLG03,km,20251023-093848,1.0.1,20250923-093501,710,Experiment,Both,1,Automatic,main,73,20251023-094647,global,global,300,S,H,A,E,S-A.png,H-E.png,sS,hH,mask-1.png,mask-1.png,h,0,0.45837439999741036,s,0,0.6830813999986276,0.05113300000084564,0.050077599997166544,0.10007359999872278,0.09983039999497123,0.3013649000058649
RSVPLG03,km,20251023-093848,1.0.1,20250923-093501,710,Experiment,Both,1,Automatic,main,74,20251023-094651,local,global,300,H,H,A,A,A-H.png,H-A.png,hH,hH,mask-2.png,mask-3.png,h,1,0.6860343999869656,s,0,0.08059070000308566,0.04971970000769943,0.04986129999451805,0.09979400000884198,0.09975399999530055,0.29821560000709724
RSVPLG03,km,20251023-093848,1.0.1,20250923-093501,710,Experiment,Both,1,Automatic,main,75,20251023-094656,global,local,300,S,S,A,E,S-A.png,E-S.png,sS,sS,mask-2.png,mask-3.png,s,1,0.44025909999618307,h,0,0.5293144999886863,0.05076800000097137,0.050459799997042865,0.10075420000066515,0.10092379999696277,0.3004671000089729
RSVPLG03,km,20251023-093848,1.0.1,20250923-093501,710,Experiment,Both,1,Automatic,main,76,20251023-094732,global,local,750,H,H,A,E,H-A.png,E-H.png,hH,hH,mask-4.png,mask-2.png,h,1,3.1937394000124186,s,0,0.9414080999995349,0.04839110000466462,0.04902289999881759,0.09807990000990685,0.09995039999193978,0.7495655000093393
RSVPLG03,km,20251023-093848,1.0.1,20250923-093501,710,Experiment,Both,1,Automatic,main,77,20251023-094740,local,local,300,H,S,E,A,E-H.png,A-S.png,hH,sS,mask-3.png,mask-2.png,h,1,0.6430950000067241,s,1,0.000490999998874031,0.04877229999692645,0.04972310000448488,0.09972949999792036,0.09985650000453461,0.3000724000012269
RSVPLG03,km,20251023-093848,1.0.1,20250923-093501,710,Experiment,Both,1,Automatic,main,78,20251023-094744,local,local,750,S,S,E,A,E-S.png,A-S.png,sS,sS,mask-3.png,mask-4.png,h,0,0.32689720000780653,s,1,0.5354177999979584,0.05030459999397863,0.050064700000802986,0.10154030000558123,0.09997209999710321,0.74985170000582
RSVPLG03,km,20251023-093848,1.0.1,20250923-093501,710,Experiment,Both,1,Automatic,main,79,20251023-094749,global,global,750,H,S,E,A,H-E.png,S-A.png,hH,sS,mask-2.png,mask-3.png,h,1,0.3436881999950856,s,1,0.7104462999996031,0.04894659999990836,0.05158480000682175,0.10218349999922793,0.09973970000282861,0.7501650999911362
RSVPLG03,km,20251023-093848,1.0.1,20250923-093501,710,Experiment,Both,1,Automatic,main,80,20251023-094754,global,local,750,H,S,E,A,H-E.png,A-S.png,hH,sS,mask-1.png,mask-3.png,h,1,0.4589970000088215,s,1,0.3038498000096297,0.04957490001106635,0.050210100002004765,0.1004228000092553,0.09920359999523498,0.7506390000053216
RSVPLG03,km,20251023-093848,1.0.1,20250923-093501,710,Experiment,Both,1,Automatic,main,81,20251023-094759,local,local,300,H,S,E,E,E-H.png,E-S.png,hH,sS,mask-4.png,mask-1.png,h,1,0.45225920001394115,s,1,0.12283110000134911,0.04808049999701325,0.04966960000456311,0.10038350000104401,0.09942990000126883,0.299404899997171
RSVPLG03,km,20251023-093848,1.0.1,20250923-093501,710,Experiment,Both,1,Automatic,main,82,20251023-094804,local,global,300,S,H,E,A,E-S.png,H-A.png,sS,hH,mask-2.png,mask-3.png,h,0,0.5028296999953454,s,0,0.1274820999969961,0.049677600007271394,0.05081179999979213,0.100765200011665,0.10283750000235159,0.2990622000070289
RSVPLG03,km,20251023-093848,1.0.1,20250923-093501,710,Experiment,Both,1,Automatic,main,83,20251023-094808,local,global,750,H,H,A,A,A-H.png,H-A.png,hH,hH,mask-3.png,mask-4.png,h,1,0.3712519000109751,h,1,0.2813624999980675,0.049804199996287934,0.05052370000339579,0.10046050000528339,0.0999906000070041,0.7507416000007652
RSVPLG03,km,20251023-093848,1.0.1,20250923-093501,710,Experiment,Both,1,Automatic,main,84,20251023-094813,local,local,300,S,H,A,A,A-S.png,A-H.png,sS,hH,mask-1.png,mask-3.png,h,0,0.348318799995468,h,1,0.5609997999999905,0.05072620000282768,0.04895859998941887,0.10001589999592397,0.09935839999525342,0.30038210000202525
RSVPLG03,km,20251023-093848,1.0.1,20250923-093501,710,Experiment,Both,1,Automatic,main,85,20251023-094818,global,global,300,H,H,E,A,H-E.png,H-A.png,hH,hH,mask-1.png,mask-2.png,h,1,0.5354317000019364,h,1,0.2248198000015691,0.04976729999179952,0.050437300000339746,0.09958809999807272,0.10080990000278689,0.2984066999924835
RSVPLG03,km,20251023-093848,1.0.1,20250923-093501,710,Experiment,Both,1,Automatic,main,86,20251023-094822,local,global,300,H,S,E,A,E-H.png,S-A.png,hH,sS,mask-4.png,mask-3.png,h,1,0.49762209999607876,s,1,0.014916600004653446,0.04880079999566078,0.05027309998695273,0.09877029999915976,0.10122820000106003,0.3001342000061413
RSVPLG03,km,20251023-093848,1.0.1,20250923-093501,710,Experiment,Both,1,Automatic,main,87,20251023-094827,local,local,750,H,S,A,E,A-H.png,E-S.png,hH,sS,mask-1.png,mask-4.png,h,1,0.4520045000099344,s,1,0.2045679000002565,0.04975560000457335,0.05248399999982212,0.0989566000062041,0.1016473999916343,0.7504825000069104
RSVPLG03,km,20251023-093848,1.0.1,20250923-093501,710,Experiment,Both,1,Automatic,main,88,20251023-094832,local,global,750,H,S,E,A,E-H.png,S-A.png,hH,sS,mask-2.png,mask-4.png,h,1,0.3686978000041563,s,1,0.19158460000471678,0.05017860000953078,0.047854199990979396,0.1034704000048805,0.09822629998961929,0.752281100008986
RSVPLG03,km,20251023-093848,1.0.1,20250923-093501,710,Experiment,Both,1,Automatic,main,89,20251023-094836,local,global,750,S,S,A,E,A-S.png,S-E.png,sS,sS,mask-4.png,mask-3.png,h,0,0.4357917000015732,s,1,0.0981956000032369,0.050093900004867464,0.05070799999521114,0.10203460000047926,0.10123240000393707,0.7506097000004956
RSVPLG03,km,20251023-093848,1.0.1,20250923-093501,710,Experiment,Both,1,Automatic,main,90,20251023-094841,global,global,750,S,H,E,A,S-E.png,H-A.png,sS,hH,mask-1.png,mask-2.png,s,1,0.41115179999906104,h,1,0.1138552000047639,0.049765100004151464,0.04936000000452623,0.0994148000027053,0.09785839999676682,0.751451400006772
RSVPLG03,km,20251023-093848,1.0.1,20250923-093501,710,Experiment,Both,1,Automatic,main,91,20251023-094846,local,local,750,S,H,E,A,E-S.png,A-H.png,sS,hH,mask-4.png,mask-1.png,s,1,0.30817600000591483,h,1,0.06615350001084153,0.04910380000364967,0.048855699991690926,0.0993222999968566,0.09974019999208394,0.7513781000016024
RSVPLG03,km,20251023-093848,1.0.1,20250923-093501,710,Experiment,Both,1,Automatic,main,92,20251023-094851,global,local,300,H,H,E,E,H-E.png,E-H.png,hH,hH,mask-2.png,mask-2.png,s,0,1.2694804999919143,h,1,0.0023252999963006005,0.050382599991280586,0.04886899999110028,0.10201289999531582,0.09928260000015143,0.30134890000044834
RSVPLG03,km,20251023-093848,1.0.1,20250923-093501,710,Experiment,Both,1,Automatic,main,93,20251023-094856,global,local,750,H,S,A,E,H-A.png,E-S.png,hH,sS,mask-3.png,mask-2.png,h,1,0.4582717000012053,s,1,0.6507654000015464,0.05060740000044461,0.049115800007712096,0.1021589000010863,0.10046320001129061,0.751664499999606
RSVPLG03,km,20251023-093848,1.0.1,20250923-093501,710,Experiment,Both,1,Automatic,main,94,20251023-094900,global,global,300,S,S,A,E,S-A.png,S-E.png,sS,sS,mask-2.png,mask-4.png,s,1,0.8845422000013059,h,0,0.018442600005073473,0.05092969999532215,0.04900730001099873,0.10205790000327397,0.09968520000984427,0.3013040999940131
RSVPLG03,km,20251023-093848,1.0.1,20250923-093501,710,Experiment,Both,1,Automatic,main,95,20251023-094905,local,local,300,S,S,E,E,E-S.png,E-S.png,sS,sS,mask-3.png,mask-4.png,s,1,0.2808036000060383,s,1,0.1542116999917198,0.04993269999977201,0.05130730000382755,0.0994524999987334,0.1025794000015594,0.29985450000094716
RSVPLG03,km,20251023-093848,1.0.1,20250923-093501,710,Experiment,Both,1,Automatic,main,96,20251023-094909,global,global,300,S,S,A,A,S-A.png,S-A.png,sS,sS,mask-3.png,mask-1.png,s,1,0.4462280000007013,s,1,0.497609600002761,0.05027979999431409,0.04866010000114329,0.0996234999911394,0.09961699999985285,0.30069769998954143
RSVPLG03,km,20251023-093848,1.0.1,20250923-093501,710,Experiment,Both,1,Automatic,main,97,20251023-094914,local,local,750,S,S,A,A,A-S.png,A-S.png,sS,sS,mask-3.png,mask-1.png,s,1,0.33377939999627415,h,0,0.1179342999967048,0.05093789999955334,0.05025539999769535,0.1022847999993246,0.1001094999955967,0.7512151999981143
RSVPLG03,km,20251023-093848,1.0.1,20250923-093501,710,Experiment,Both,1,Automatic,main,98,20251023-094919,global,local,300,H,H,E,A,H-E.png,A-H.png,hH,hH,mask-4.png,mask-1.png,s,0,0.49694159999489784,h,1,0.0350384000048507,0.05064110000967048,0.04939899999590125,0.09924500000488479,0.09926679999625776,0.3006144000100903
RSVPLG03,km,20251023-093848,1.0.1,20250923-093501,710,Experiment,Both,1,Automatic,main,99,20251023-094923,local,global,300,S,H,A,A,A-S.png,H-A.png,sS,hH,mask-4.png,mask-3.png,h,0,0.3866288999997778,h,1,0.32066569999733474,0.049112299995613284,0.04869429999962449,0.10017400000651833,0.10042350000003353,0.2998356000025524
RSVPLG03,km,20251023-093848,1.0.1,20250923-093501,710,Experiment,Both,1,Automatic,main,100,20251023-094928,global,local,300,H,H,E,A,H-E.png,A-H.png,hH,hH,mask-4.png,mask-1.png,h,1,0.4514188000030117,h,1,0.13874910000595264,0.05173940000531729,0.04931329999817535,0.1008709000016097,0.10075169999618083,0.3000311000068905
RSVPLG03,km,20251023-093848,1.0.1,20250923-093501,710,Experiment,Both,1,Automatic,main,101,20251023-094938,local,local,750,H,H,E,A,E-H.png,A-H.png,hH,hH,mask-4.png,mask-2.png,s,0,1.033271699998295,h,1,0.5575401000096463,0.0494100000069011,0.0491465000086464,0.0988770999974804,0.09938020000117831,0.7496083000005456
RSVPLG03,km,20251023-093848,1.0.1,20250923-093501,710,Experiment,Both,1,Automatic,main,102,20251023-094944,global,global,300,S,H,A,E,S-A.png,H-E.png,sS,hH,mask-4.png,mask-1.png,h,0,1.2293576000083704,s,0,0.3022940000082599,0.050260300005902536,0.04998369999520946,0.10076570000092033,0.0996543999935966,0.300260400006664
RSVPLG03,km,20251023-093848,1.0.1,20250923-093501,710,Experiment,Both,1,Automatic,main,103,20251023-094949,global,local,300,H,H,A,E,H-A.png,E-H.png,hH,hH,mask-3.png,mask-3.png,s,0,0.8796506999933627,h,1,0.2868140000064159,0.045724600000539795,0.04865349999454338,0.09648720000404865,0.09811289999925066,0.29785780000383966
RSVPLG03,km,20251023-093848,1.0.1,20250923-093501,710,Experiment,Both,1,Automatic,main,104,20251023-094954,global,global,300,S,S,E,E,S-E.png,S-E.png,sS,sS,mask-2.png,mask-4.png,s,1,0.7720420000114245,h,0,0.1852467999997316,0.049910000001545995,0.04983580000407528,0.09987320000072941,0.09887899999739602,0.3004140999983065
RSVPLG03,km,20251023-093848,1.0.1,20250923-093501,710,Experiment,Both,1,Automatic,main,105,20251023-094959,local,local,300,S,H,A,E,A-S.png,E-H.png,sS,hH,mask-1.png,mask-1.png,h,0,0.5674740000104066,s,0,0.7760288999998011,0.05018259999633301,0.05042499999399297,0.10115669999504462,0.10073320000083186,0.3006394999974873
RSVPLG03,km,20251023-093848,1.0.1,20250923-093501,710,Experiment,Both,1,Automatic,main,106,20251023-095003,local,global,750,H,H,E,E,E-H.png,H-E.png,hH,hH,mask-2.png,mask-3.png,s,0,0.17511549999471754,h,1,0.19416050000290852,0.05062520000501536,0.05011699999158736,0.10074809999787249,0.10044080000079703,0.7505251000111457
