exp,exp_initials,runtime,ver,modtime,sub,blocktype,targets,cuetype,mode,trialtype,trial,trialtime,t1_level,t2_level,t2_lag,t1,t2,distractor1,distractor2,stimfile1,stimfile2,t1_corr,t2_corr,maskfile1,maskfile2,t1_resp,t1_acc,t1_rt,t2_resp,t2_acc,t2_rt,t1_dur,t2_dur,t1mask_soa,t2mask_soa,t1t2_soa
RSVPLG03,si,20260416-151119,1.0.2,20260219-152011,823,Introduction,T1,1,Automatic,main,1,20260416-151150,global,local,750,H,S,A,A,H-A.png,A-S.png,hH,sS,mask-4.png,mask-3.png,s,0,1.9852836000500247,none,-5,0,0.09935230005066842,0.10046190000139177,0.19885480008088052,0.20249319996219128,0.750989600084722
RSVPLG03,si,20260416-151119,1.0.2,20260219-152011,823,Introduction,T1,1,Automatic,main,2,20260416-151156,local,local,750,H,S,A,A,A-H.png,A-S.png,hH,sS,mask-1.png,mask-1.png,h,1,0.3566924000624567,none,-5,0,0.10139640001580119,0.09958789998199791,0.1994880000129342,0.20141600002534688,0.7516073000151664
RSVPLG03,si,20260416-151119,1.0.2,20260219-152011,823,Introduction,T1,1,Automatic,main,3,20260416-151200,global,global,750,H,H,A,A,H-A.png,H-A.png,hH,hH,mask-1.png,mask-2.png,h,1,0.125340300030075,none,-5,0,0.10136120009701699,0.10094150004442781,0.20181009999942034,0.20095710002351552,0.7522006999934092
RSVPLG03,si,20260416-151119,1.0.2,20260219-152011,823,Introduction,T1,1,Automatic,main,4,20260416-151205,global,local,750,S,H,E,A,S-E.png,A-H.png,sS,hH,mask-4.png,mask-2.png,s,1,0.04504060000181198,none,-5,0,0.09860589995514601,0.1005156000610441,0.19951449998188764,0.19971720001194626,0.7507562999380752
RSVPLG03,si,20260416-151119,1.0.2,20260219-152011,823,Introduction,T1,1,Automatic,main,5,20260416-151209,global,global,750,H,H,E,A,H-E.png,H-A.png,hH,hH,mask-2.png,mask-2.png,h,1,0.5625457999994978,none,-5,0,0.10091170005034655,0.10003460000734776,0.20212190004531294,0.2051608000183478,0.7513752999948338
RSVPLG03,si,20260416-151119,1.0.2,20260219-152011,823,Introduction,T1,1,Automatic,main,6,20260416-151213,local,global,750,S,S,E,E,E-S.png,S-E.png,sS,sS,mask-2.png,mask-1.png,s,1,0.45331919996533543,none,-5,0,0.10096459998749197,0.10122620000038296,0.20217049994971603,0.20181279990356416,0.7522480000043288
RSVPLG03,si,20260416-151119,1.0.2,20260219-152011,823,Introduction,T1,1,Automatic,main,7,20260416-151218,global,global,750,S,S,A,A,S-A.png,S-A.png,sS,sS,mask-1.png,mask-2.png,s,1,0.1462519000051543,none,-5,0,0.09697120008058846,0.10285339993424714,0.19805290002841502,0.20078259997535497,0.7496280000777915
RSVPLG03,si,20260416-151119,1.0.2,20260219-152011,823,Introduction,T1,1,Automatic,main,8,20260416-151222,global,local,750,S,S,E,E,S-E.png,E-S.png,sS,sS,mask-4.png,mask-3.png,s,1,0.3679872000357136,none,-5,0,0.10121240001171827,0.0996325999731198,0.20044759998563677,0.20008629991207272,0.7520425000693649
RSVPLG03,si,20260416-151119,1.0.2,20260219-152011,823,Introduction,T1,1,Automatic,main,9,20260416-151227,local,global,750,S,H,A,A,A-S.png,H-A.png,sS,hH,mask-4.png,mask-3.png,s,1,0.45888250006828457,none,-5,0,0.09802599996328354,0.09984669997356832,0.19843489991035312,0.20104900002479553,0.7487079999409616
RSVPLG03,si,20260416-151119,1.0.2,20260219-152011,823,Introduction,T1,1,Automatic,main,10,20260416-151232,global,global,750,H,S,E,E,H-E.png,S-E.png,hH,sS,mask-3.png,mask-1.png,h,1,1.0227911999681965,none,-5,0,0.09999770007561892,0.09963949990924448,0.19920330005697906,0.2004415999399498,0.7507775000995025
RSVPLG03,si,20260416-151119,1.0.2,20260219-152011,823,Introduction,T1,1,Automatic,main,11,20260416-151237,global,local,750,H,H,A,E,H-A.png,E-H.png,hH,hH,mask-1.png,mask-2.png,h,1,0.6521664001047611,none,-5,0,0.09845729998778552,0.09993500006385148,0.19907810003496706,0.1992723000003025,0.7516813999973238
RSVPLG03,si,20260416-151119,1.0.2,20260219-152011,823,Introduction,T1,1,Automatic,main,12,20260416-151242,local,local,750,H,H,E,A,E-H.png,A-H.png,hH,hH,mask-3.png,mask-2.png,h,1,0.44061449996661395,none,-5,0,0.10007299995049834,0.1021391999674961,0.19970190001185983,0.20115909993182868,0.7500363000435755
RSVPLG03,si,20260416-151119,1.0.2,20260219-152011,823,Introduction,T1,1,Automatic,main,13,20260416-151246,local,local,750,S,H,E,E,E-S.png,E-H.png,sS,hH,mask-2.png,mask-2.png,s,1,0.11525959998834878,none,-5,0,0.09944949997588992,0.09957970003597438,0.1995024000061676,0.20148720010183752,0.7516300999559462
RSVPLG03,si,20260416-151119,1.0.2,20260219-152011,823,Introduction,T1,1,Automatic,main,14,20260416-151251,local,local,750,H,S,E,A,E-H.png,A-S.png,hH,sS,mask-3.png,mask-3.png,h,1,0.31434689997695386,none,-5,0,0.09830660000443459,0.10057710006367415,0.20051500003319234,0.20122160005848855,0.7502898999955505
RSVPLG03,si,20260416-151119,1.0.2,20260219-152011,823,Introduction,T1,1,Automatic,main,15,20260416-151255,local,global,750,H,S,A,A,A-H.png,S-A.png,hH,sS,mask-4.png,mask-1.png,h,1,0.4206895000534132,none,-5,0,0.10058219998609275,0.10057380003854632,0.20014670002274215,0.20081890001893044,0.7504681999562308
RSVPLG03,si,20260416-151119,1.0.2,20260219-152011,823,Introduction,T1,1,Automatic,main,16,20260416-151300,local,global,750,H,H,E,A,E-H.png,H-A.png,hH,hH,mask-4.png,mask-3.png,h,1,0.16449539992026985,none,-5,0,0.1008743999991566,0.10047910001594573,0.20042889995966107,0.2017595999641344,0.7511380999349058
RSVPLG03,si,20260416-151319,1.0.2,20260219-152011,823,Practice,T1,1,Automatic,main,1,20260416-151335,global,global,750,H,S,A,A,H-A.png,S-A.png,hH,sS,mask-2.png,mask-1.png,h,1,0.47002500004600734,none,-5,0,0.04733600001782179,0.05006969999521971,0.09887679992243648,0.09913949994370341,0.7475523999892175
RSVPLG03,si,20260416-151319,1.0.2,20260219-152011,823,Practice,T1,1,Automatic,main,2,20260416-151340,local,local,750,S,H,E,A,E-S.png,A-H.png,sS,hH,mask-1.png,mask-2.png,s,1,0.5443752000574023,none,-5,0,0.04982190008740872,0.050258100032806396,0.0992854000069201,0.09964690008200705,0.7488713000202551
RSVPLG03,si,20260416-151319,1.0.2,20260219-152011,823,Practice,T1,1,Automatic,main,3,20260416-151344,local,local,300,S,H,A,A,A-S.png,A-H.png,sS,hH,mask-4.png,mask-1.png,s,1,0.40639080002438277,none,-5,0,0.049715999979525805,0.0478560000192374,0.09909409994725138,0.09845829999540001,0.3011055999668315
RSVPLG03,si,20260416-151319,1.0.2,20260219-152011,823,Practice,T1,1,Automatic,main,4,20260416-151348,local,global,300,H,H,E,A,E-H.png,H-A.png,hH,hH,mask-2.png,mask-4.png,h,1,0.33359689998906106,none,-5,0,0.04948079993482679,0.049257999984547496,0.10050870000850409,0.09928269998636097,0.30001409992109984
RSVPLG03,si,20260416-151319,1.0.2,20260219-152011,823,Practice,T1,1,Automatic,main,5,20260416-151352,local,local,300,S,H,A,E,A-S.png,E-H.png,sS,hH,mask-3.png,mask-4.png,s,1,0.4567396000493318,none,-5,0,0.04842809995170683,0.04958240000996739,0.09865820000413805,0.10022999998182058,0.29856979998294264
RSVPLG03,si,20260416-151319,1.0.2,20260219-152011,823,Practice,T1,1,Automatic,main,6,20260416-151356,global,local,300,S,H,E,A,S-E.png,A-H.png,sS,hH,mask-2.png,mask-3.png,s,1,0.3435107000404969,none,-5,0,0.049348499975167215,0.049204599927179515,0.09964899998158216,0.10012540000025183,0.29973520000930876
RSVPLG03,si,20260416-151319,1.0.2,20260219-152011,823,Practice,T1,1,Automatic,main,7,20260416-151400,global,local,750,S,S,E,A,S-E.png,A-S.png,sS,sS,mask-4.png,mask-2.png,s,1,0.37260250002145767,none,-5,0,0.049399000010453165,0.049440199974924326,0.09906000003684312,0.10062150005251169,0.7502891999902204
RSVPLG03,si,20260416-151319,1.0.2,20260219-152011,823,Practice,T1,1,Automatic,main,8,20260416-151405,global,local,750,S,S,A,A,S-A.png,A-S.png,sS,sS,mask-3.png,mask-4.png,s,1,0.4163788000587374,none,-5,0,0.04896369995549321,0.04926320002414286,0.10125499998684973,0.10060839995276183,0.750209299963899
RSVPLG03,si,20260416-151319,1.0.2,20260219-152011,823,Practice,T1,1,Automatic,main,9,20260416-151409,local,local,750,H,H,E,A,E-H.png,A-H.png,hH,hH,mask-2.png,mask-1.png,h,1,0.5248546999646351,none,-5,0,0.05079040001146495,0.04954350006300956,0.10002400004304945,0.09956240002065897,0.7501383000053465
RSVPLG03,si,20260416-151319,1.0.2,20260219-152011,823,Practice,T1,1,Automatic,main,10,20260416-151414,local,global,300,H,H,E,E,E-H.png,H-E.png,hH,hH,mask-1.png,mask-2.png,h,1,0.4506332000019029,none,-5,0,0.049666899954900146,0.051498299930244684,0.09953599993605167,0.10170350002590567,0.29875499999616295
RSVPLG03,si,20260416-151319,1.0.2,20260219-152011,823,Practice,T1,1,Automatic,main,11,20260416-151418,global,global,300,H,H,E,A,H-E.png,H-A.png,hH,hH,mask-4.png,mask-3.png,h,1,0.4486709999619052,none,-5,0,0.048658500076271594,0.048475799965672195,0.10103300004266202,0.10146239993628114,0.3003864000784233
RSVPLG03,si,20260416-151319,1.0.2,20260219-152011,823,Practice,T1,1,Automatic,main,12,20260416-151422,local,global,750,S,H,A,A,A-S.png,H-A.png,sS,hH,mask-2.png,mask-3.png,s,1,0.0923518999479711,none,-5,0,0.04965790000278503,0.050260000047273934,0.09983960003592074,0.10083830007351935,0.7485444999765605
RSVPLG03,si,20260416-151319,1.0.2,20260219-152011,823,Practice,T1,1,Automatic,main,13,20260416-151426,local,global,750,S,H,E,E,E-S.png,H-E.png,sS,hH,mask-3.png,mask-1.png,s,1,0.36413649993482977,none,-5,0,0.05114739993587136,0.049831199925392866,0.0995998999569565,0.09903279994614422,0.7509936999995261
RSVPLG03,si,20260416-151319,1.0.2,20260219-152011,823,Practice,T1,1,Automatic,main,14,20260416-151431,global,global,300,S,H,A,A,S-A.png,H-A.png,sS,hH,mask-4.png,mask-3.png,s,1,0.4551590000046417,none,-5,0,0.05108310002833605,0.0508026999887079,0.10010120004881173,0.09976110002025962,0.29983030003495514
RSVPLG03,si,20260416-151319,1.0.2,20260219-152011,823,Practice,T1,1,Automatic,main,15,20260416-151435,global,local,300,H,S,A,E,H-A.png,E-S.png,hH,sS,mask-3.png,mask-1.png,h,1,0.50617800001055,none,-5,0,0.048773599904961884,0.05118469998706132,0.09884029999375343,0.10147380002308637,0.2984576999442652
RSVPLG03,si,20260416-151319,1.0.2,20260219-152011,823,Practice,T1,1,Automatic,main,16,20260416-151439,global,global,750,H,S,A,A,H-A.png,S-A.png,hH,sS,mask-4.png,mask-1.png,h,1,0.39624529995489866,none,-5,0,0.04867699998430908,0.05063830001745373,0.09803250001277775,0.10000169998966157,0.7479391000233591
RSVPLG03,si,20260416-151527,1.0.2,20260219-152011,823,Introduction,Both,1,Automatic,main,1,20260416-151548,global,global,750,H,S,A,A,H-A.png,S-A.png,hH,sS,mask-4.png,mask-4.png,s,0,0.28519389999564737,s,1,2.424027799977921,0.09834760008379817,0.09970080002676696,0.19934420008212328,0.20137850008904934,0.7483023999957368
RSVPLG03,si,20260416-151527,1.0.2,20260219-152011,823,Introduction,Both,1,Automatic,main,2,20260416-151556,local,global,750,H,S,A,E,A-H.png,S-E.png,hH,sS,mask-4.png,mask-4.png,h,1,2.807656200020574,s,1,1.0901652000611648,0.09925580001436174,0.09997929993551224,0.20116369996685535,0.20050119992811233,0.7502743999939412
RSVPLG03,si,20260416-151527,1.0.2,20260219-152011,823,Introduction,Both,1,Automatic,main,3,20260416-151604,local,global,750,S,H,E,A,E-S.png,H-A.png,sS,hH,mask-3.png,mask-2.png,s,1,1.6419761000433937,h,1,0.8083551999880001,0.0997872999869287,0.09992730000521988,0.19907480000983924,0.19882099993992597,0.7495299000293016
RSVPLG03,si,20260416-151527,1.0.2,20260219-152011,823,Introduction,Both,1,Automatic,main,4,20260416-151611,local,global,750,S,H,E,A,E-S.png,H-A.png,sS,hH,mask-3.png,mask-1.png,s,1,0.9200237999903038,h,1,0.5286525000119582,0.10020590003114194,0.09977030009031296,0.20008410001173615,0.19847659999504685,0.7518861999269575
RSVPLG03,si,20260416-151527,1.0.2,20260219-152011,823,Introduction,Both,1,Automatic,main,5,20260416-151617,global,global,750,S,H,E,A,S-E.png,H-A.png,sS,hH,mask-1.png,mask-2.png,s,1,0.7708645999664441,h,1,0.13844290003180504,0.09938659996259958,0.09840329992584884,0.19929229991976172,0.1986425999784842,0.7511439999798313
RSVPLG03,si,20260416-151527,1.0.2,20260219-152011,823,Introduction,Both,1,Automatic,main,6,20260416-151622,global,local,750,H,H,E,A,H-E.png,A-H.png,hH,hH,mask-4.png,mask-1.png,h,1,0.4116484000114724,s,0,0.24773890001233667,0.10088560008443892,0.10014340002089739,0.201452000066638,0.1992660000687465,0.7517282000044361
RSVPLG03,si,20260416-151527,1.0.2,20260219-152011,823,Introduction,Both,1,Automatic,main,7,20260416-151627,local,local,750,H,S,E,E,E-H.png,E-S.png,hH,sS,mask-1.png,mask-4.png,h,1,1.2039073999039829,s,1,0.20923249993938953,0.09972090006340295,0.10048979998100549,0.19983219995629042,0.20075840002391487,0.7503510999958962
RSVPLG03,si,20260416-151527,1.0.2,20260219-152011,823,Introduction,Both,1,Automatic,main,8,20260416-151633,local,local,750,H,H,A,E,A-H.png,E-H.png,hH,hH,mask-2.png,mask-3.png,h,1,1.1246005999855697,s,0,0.08177439996507019,0.10015169996768236,0.09958080004435033,0.20090599998366088,0.20079110004007816,0.749939699890092
RSVPLG03,si,20260416-151527,1.0.2,20260219-152011,823,Introduction,Both,1,Automatic,main,9,20260416-151638,global,local,750,S,S,E,A,S-E.png,A-S.png,sS,sS,mask-4.png,mask-2.png,s,1,1.9591039000079036,h,0,0.08137389994226396,0.1003759999293834,0.09955889999400824,0.2001494999276474,0.1997127999784425,0.7499752999283373
RSVPLG03,si,20260416-151527,1.0.2,20260219-152011,823,Introduction,Both,1,Automatic,main,10,20260416-151645,local,local,750,H,S,E,E,E-H.png,E-S.png,hH,sS,mask-3.png,mask-3.png,h,1,0.9618765000486746,s,1,0.10379689990077168,0.09971099998801947,0.0998066000174731,0.1992316999239847,0.1988354999339208,0.7507331999950111
RSVPLG03,si,20260416-151527,1.0.2,20260219-152011,823,Introduction,Both,1,Automatic,main,11,20260416-151650,local,global,750,S,H,E,E,E-S.png,H-E.png,sS,hH,mask-2.png,mask-3.png,h,0,0.7348869999404997,s,0,0.05032289994414896,0.10072710004169494,0.09912069991696626,0.20082090003415942,0.20031549991108477,0.7505694000283256
RSVPLG03,si,20260416-151527,1.0.2,20260219-152011,823,Introduction,Both,1,Automatic,main,12,20260416-151655,global,local,750,H,S,E,A,H-E.png,A-S.png,hH,sS,mask-4.png,mask-1.png,s,0,0.5879016999388114,h,0,0.09346789994742721,0.09641939995344728,0.09992929990403354,0.19843799993395805,0.19935499993152916,0.7470820000162348
RSVPLG03,si,20260416-151527,1.0.2,20260219-152011,823,Introduction,Both,1,Automatic,main,13,20260416-151700,global,global,750,H,S,E,A,H-E.png,S-A.png,hH,sS,mask-2.png,mask-3.png,h,1,0.4564126000041142,s,1,0.11747559998184443,0.09985080000478774,0.10164749994874,0.19890840002335608,0.2010903999907896,0.7488886000355706
RSVPLG03,si,20260416-151527,1.0.2,20260219-152011,823,Introduction,Both,1,Automatic,main,14,20260416-151705,local,local,750,S,H,A,A,A-S.png,A-H.png,sS,hH,mask-1.png,mask-4.png,s,1,0.6622410999843851,h,1,0.12109040003269911,0.10101300000678748,0.10053269995842129,0.19941140001174062,0.19995559996459633,0.750203000032343
RSVPLG03,si,20260416-151527,1.0.2,20260219-152011,823,Introduction,Both,1,Automatic,main,15,20260416-151710,global,global,750,S,H,A,E,S-A.png,H-E.png,sS,hH,mask-4.png,mask-2.png,h,0,0.2731557000661269,s,0,0.2424927999963984,0.09830630000215024,0.09907720005139709,0.19947470002807677,0.199748000013642,0.7499651999678463
RSVPLG03,si,20260416-151527,1.0.2,20260219-152011,823,Introduction,Both,1,Automatic,main,16,20260416-151715,global,local,750,H,H,E,E,H-E.png,E-H.png,hH,hH,mask-4.png,mask-3.png,s,0,1.309094600030221,h,1,0.06123190000653267,0.10041409998666495,0.09980409999843687,0.19971359998453408,0.19973100000061095,0.7504811000544578
RSVPLG03,si,20260416-151802,1.0.2,20260219-152011,823,Practice,Both,1,Automatic,main,1,20260416-151819,global,local,750,S,H,E,E,S-E.png,E-H.png,sS,hH,mask-2.png,mask-2.png,s,1,1.4667757999850437,h,1,0.06476659991312772,0.04805539990775287,0.0487197000766173,0.0967505999142304,0.0984802000457421,0.7480765999061987
RSVPLG03,si,20260416-151802,1.0.2,20260219-152011,823,Practice,Both,1,Automatic,main,2,20260416-151825,global,global,300,S,H,A,E,S-A.png,H-E.png,sS,hH,mask-3.png,mask-3.png,s,1,0.6313297000015154,h,1,0.08787620009388775,0.05180539994034916,0.05060750001575798,0.10089829994831234,0.10093309998046607,0.29932540003210306
RSVPLG03,si,20260416-151802,1.0.2,20260219-152011,823,Practice,Both,1,Automatic,main,3,20260416-151829,global,local,300,H,S,E,E,H-E.png,E-S.png,hH,sS,mask-2.png,mask-4.png,h,1,1.0916998999891803,h,0,0.11200950003694743,0.049891100032255054,0.050689400057308376,0.10013050003908575,0.10161879996303469,0.30022039997857064
RSVPLG03,si,20260416-151802,1.0.2,20260219-152011,823,Practice,Both,1,Automatic,main,4,20260416-151834,local,global,750,S,H,E,A,E-S.png,H-A.png,sS,hH,mask-2.png,mask-2.png,s,1,0.9842592000495642,h,1,0.053884899942204356,0.050672999932430685,0.050115799997001886,0.09962230001110584,0.10096539999358356,0.7496145999757573
RSVPLG03,si,20260416-151802,1.0.2,20260219-152011,823,Practice,Both,1,Automatic,main,5,20260416-151839,local,local,300,H,H,A,A,A-H.png,A-H.png,hH,hH,mask-1.png,mask-4.png,h,1,0.8445098999654874,h,1,0.0898643999826163,0.04972699994686991,0.05094120011199266,0.10064980003517121,0.10064480011351407,0.3011323999380693
RSVPLG03,si,20260416-151802,1.0.2,20260219-152011,823,Practice,Both,1,Automatic,main,6,20260416-151844,local,global,300,S,H,E,E,E-S.png,H-E.png,sS,hH,mask-3.png,mask-3.png,s,1,1.1219884000020102,h,1,0.08157659997232258,0.04994779999833554,0.049545699963346124,0.09925440000370145,0.09774240001570433,0.30224400002043694
RSVPLG03,si,20260416-151802,1.0.2,20260219-152011,823,Practice,Both,1,Automatic,main,7,20260416-151849,global,global,750,S,H,A,A,S-A.png,H-A.png,sS,hH,mask-1.png,mask-3.png,s,1,0.5514628000091761,h,1,0.03301490005105734,0.050321699935011566,0.049027200089767575,0.1000220999121666,0.10043260001111776,0.7517470999155194
RSVPLG03,si,20260416-151802,1.0.2,20260219-152011,823,Practice,Both,1,Automatic,main,8,20260416-151854,local,local,300,S,S,A,E,A-S.png,E-S.png,sS,sS,mask-1.png,mask-1.png,s,1,1.2635800000280142,h,0,0.01743720006197691,0.05077709991019219,0.050839300034567714,0.100300999940373,0.10090980003587902,0.3002109999069944
RSVPLG03,si,20260416-151802,1.0.2,20260219-152011,823,Practice,Both,1,Automatic,main,9,20260416-151859,local,local,750,S,S,E,A,E-S.png,A-S.png,sS,sS,mask-2.png,mask-4.png,s,1,1.1811669999733567,h,0,0.024823499959893525,0.050695099984295666,0.050431599956937134,0.10081859992351383,0.09963459998834878,0.7510214999783784
RSVPLG03,si,20260416-151802,1.0.2,20260219-152011,823,Practice,Both,1,Automatic,main,10,20260416-151904,local,global,300,S,H,A,E,A-S.png,H-E.png,sS,hH,mask-4.png,mask-3.png,s,1,1.1668285999912769,h,1,0.608163999975659,0.04971859999932349,0.049011999974027276,0.10000129998661578,0.10085659998003393,0.30033100000582635
RSVPLG03,si,20260416-151802,1.0.2,20260219-152011,823,Practice,Both,1,Automatic,main,11,20260416-151910,local,local,750,H,H,E,A,E-H.png,A-H.png,hH,hH,mask-1.png,mask-1.png,h,1,0.8016850999556482,s,0,0.06583279999904335,0.048521599965170026,0.04902419995050877,0.10001809999812394,0.09865249996073544,0.7497993999859318
RSVPLG03,si,20260416-151802,1.0.2,20260219-152011,823,Practice,Both,1,Automatic,main,12,20260416-151915,global,local,750,H,H,A,E,H-A.png,E-H.png,hH,hH,mask-2.png,mask-3.png,h,1,0.9109709999756888,h,1,0.10195120004937053,0.050020899972878397,0.04767929995432496,0.10088609997183084,0.09787559998221695,0.7530984999611974
RSVPLG03,si,20260416-151802,1.0.2,20260219-152011,823,Practice,Both,1,Automatic,main,13,20260416-151920,global,global,300,H,H,E,E,H-E.png,H-E.png,hH,hH,mask-3.png,mask-1.png,h,1,0.3816975000081584,h,1,0.09368510008789599,0.0460694000357762,0.04995210003107786,0.0963265000609681,0.09991009999066591,0.296465800027363
RSVPLG03,si,20260416-151802,1.0.2,20260219-152011,823,Practice,Both,1,Automatic,main,14,20260416-151924,global,global,750,S,H,A,E,S-A.png,H-E.png,sS,hH,mask-1.png,mask-4.png,s,1,0.32523169997148216,h,1,0.017739899922162294,0.050886299926787615,0.049418100039474666,0.10105299996212125,0.09968350001145154,0.7508190999506041
RSVPLG03,si,20260416-151802,1.0.2,20260219-152011,823,Practice,Both,1,Automatic,main,15,20260416-151929,global,local,300,S,S,E,E,S-E.png,E-S.png,sS,sS,mask-4.png,mask-4.png,s,1,0.4357006000354886,s,1,0.06999559991527349,0.04907950002234429,0.04961430002003908,0.09960770001634955,0.09873279999010265,0.3006455000722781
RSVPLG03,si,20260416-151802,1.0.2,20260219-152011,823,Practice,Both,1,Automatic,main,16,20260416-151933,local,global,750,S,S,A,A,A-S.png,S-A.png,sS,sS,mask-4.png,mask-1.png,s,1,0.8846440999768674,h,0,0.22634290007408708,0.050483400002121925,0.04980399995110929,0.10238120006397367,0.1017964999191463,0.7502695000730455
RSVPLG03,si,20260416-152043,1.0.2,20260219-152011,823,Experiment,Both,1,Automatic,warmup,1,20260416-152110,local,global,750,S,H,E,A,E-S.png,H-A.png,sS,hH,mask-4.png,mask-2.png,s,1,0.5845702000660822,h,1,0.02581280004233122,0.0487624000525102,0.0493433999363333,0.09961240005213767,0.09973079990595579,0.749477400095202
RSVPLG03,si,20260416-152043,1.0.2,20260219-152011,823,Experiment,Both,1,Automatic,warmup,2,20260416-152115,local,global,300,H,S,E,E,E-H.png,S-E.png,hH,sS,mask-1.png,mask-2.png,h,1,1.4346552999923006,s,1,0.805688300053589,0.04886859992984682,0.050443400046788156,0.09943459997884929,0.09932660008780658,0.2977685999358073
RSVPLG03,si,20260416-152043,1.0.2,20260219-152011,823,Experiment,Both,1,Automatic,warmup,3,20260416-152121,global,global,750,H,S,A,A,H-A.png,S-A.png,hH,sS,mask-1.png,mask-1.png,h,1,0.5994330999674276,s,1,0.3063849000027403,0.051120499963872135,0.04946940008085221,0.10060740006156266,0.09980340010952204,0.748985999962315
RSVPLG03,si,20260416-152043,1.0.2,20260219-152011,823,Experiment,Both,1,Automatic,warmup,4,20260416-152126,global,local,300,S,H,E,E,S-E.png,E-H.png,sS,hH,mask-3.png,mask-1.png,s,1,0.6831953000510111,h,1,0.2168635999551043,0.050378400017507374,0.050052399979904294,0.09856189996935427,0.10173570003826171,0.29753330000676215
RSVPLG03,si,20260416-152043,1.0.2,20260219-152011,823,Experiment,Both,1,Automatic,main,5,20260416-152131,global,local,300,S,H,E,E,S-E.png,E-H.png,sS,hH,mask-3.png,mask-1.png,s,1,0.3938418000470847,h,1,0.22114839998539537,0.04979660001117736,0.05346179998014122,0.09831640007905662,0.09838980005588382,0.3003133999882266
RSVPLG03,si,20260416-152043,1.0.2,20260219-152011,823,Experiment,Both,1,Automatic,main,6,20260416-152135,global,local,750,S,S,A,A,S-A.png,A-S.png,sS,sS,mask-3.png,mask-4.png,s,1,0.3317064999137074,h,0,0.06398919993080199,0.050581100047566,0.050455200020223856,0.09833150007762015,0.10159940004814416,0.7479722000425681
RSVPLG03,si,20260416-152043,1.0.2,20260219-152011,823,Experiment,Both,1,Automatic,main,7,20260416-152140,local,local,750,S,S,A,E,A-S.png,E-S.png,sS,sS,mask-1.png,mask-1.png,s,1,0.8574866999406368,s,1,0.11656170000787824,0.0500400000018999,0.049219600041396916,0.10086430003866553,0.10014009999576956,0.7500623000087216
RSVPLG03,si,20260416-152043,1.0.2,20260219-152011,823,Experiment,Both,1,Automatic,main,8,20260416-152145,local,local,300,H,H,A,E,A-H.png,E-H.png,hH,hH,mask-4.png,mask-4.png,s,0,1.4717107999604195,h,1,0.06409639993216842,0.051465600030496716,0.04939639999065548,0.10062909999396652,0.09949200006667525,0.3009809999493882
RSVPLG03,si,20260416-152043,1.0.2,20260219-152011,823,Experiment,Both,1,Automatic,main,9,20260416-152150,global,global,750,H,S,A,A,H-A.png,S-A.png,hH,sS,mask-1.png,mask-3.png,h,1,0.5210340999765322,s,1,0.11159440001938492,0.04973430000245571,0.050332099897786975,0.1003715000115335,0.10039339994546026,0.7501828001113608
RSVPLG03,si,20260416-152043,1.0.2,20260219-152011,823,Experiment,Both,1,Automatic,main,10,20260416-152155,local,global,750,S,S,E,E,E-S.png,S-E.png,sS,sS,mask-3.png,mask-1.png,s,1,1.905901600024663,h,0,0.10186789999715984,0.048587199999019504,0.04846189997624606,0.09950159990694374,0.09841490001417696,0.7492422999348491
RSVPLG03,si,20260416-152043,1.0.2,20260219-152011,823,Experiment,Both,1,Automatic,main,11,20260416-152201,global,global,750,S,S,A,A,S-A.png,S-A.png,sS,sS,mask-2.png,mask-4.png,s,1,0.74054090003483,s,1,0.10162680002395064,0.04971359996125102,0.049146999954245985,0.09935739997308701,0.10005210002418607,0.7481206000084057
RSVPLG03,si,20260416-152043,1.0.2,20260219-152011,823,Experiment,Both,1,Automatic,main,12,20260416-152206,local,local,300,H,S,E,A,E-H.png,A-S.png,hH,sS,mask-3.png,mask-4.png,h,1,1.0288785999873653,s,1,0.07982530002482235,0.05057039996609092,0.05082400003448129,0.10125599999446422,0.10128689999692142,0.29919549997430295
RSVPLG03,si,20260416-152043,1.0.2,20260219-152011,823,Experiment,Both,1,Automatic,main,13,20260416-152211,global,global,300,S,S,E,E,S-E.png,S-E.png,sS,sS,mask-2.png,mask-1.png,s,1,0.537176400073804,s,1,0.1007804999826476,0.05063429998699576,0.04938079998828471,0.09846220002509654,0.09916789992712438,0.2997709000483155
RSVPLG03,si,20260416-152043,1.0.2,20260219-152011,823,Experiment,Both,1,Automatic,main,14,20260416-152216,global,local,300,H,S,E,E,H-E.png,E-S.png,hH,sS,mask-1.png,mask-3.png,h,1,0.6630918000591919,s,1,0.06439989991486073,0.04969170002732426,0.04970820003654808,0.09989880002103746,0.09956180001609027,0.2998070999747142
RSVPLG03,si,20260416-152043,1.0.2,20260219-152011,823,Experiment,Both,1,Automatic,main,15,20260416-152220,local,local,750,H,H,A,A,A-H.png,A-H.png,hH,hH,mask-3.png,mask-2.png,h,1,0.4904458000091836,h,1,0.08876330009661615,0.052954599959775805,0.05064000003039837,0.09976789995562285,0.10009970003739,0.7504061999497935
RSVPLG03,si,20260416-152043,1.0.2,20260219-152011,823,Experiment,Both,1,Automatic,main,16,20260416-152225,local,global,300,S,H,E,A,E-S.png,H-A.png,sS,hH,mask-1.png,mask-2.png,s,1,0.5374927999218926,h,1,0.13778079999610782,0.05033160001039505,0.05008670000825077,0.09978160005994141,0.09978869999758899,0.3002581000328064
RSVPLG03,si,20260416-152043,1.0.2,20260219-152011,823,Experiment,Both,1,Automatic,main,17,20260416-152229,local,global,300,H,H,E,E,E-H.png,H-E.png,hH,hH,mask-3.png,mask-1.png,h,1,0.7392392000183463,s,0,0.07148180005606264,0.04933449998497963,0.05003280006349087,0.10053639998659492,0.1000046000117436,0.2982121999375522
RSVPLG03,si,20260416-152043,1.0.2,20260219-152011,823,Experiment,Both,1,Automatic,main,18,20260416-152234,local,local,300,H,H,E,A,E-H.png,A-H.png,hH,hH,mask-4.png,mask-4.png,h,1,0.8038143999874592,h,1,0.09888540010433644,0.050946999923326075,0.05014649999793619,0.10092629992868751,0.10158199991565198,0.3000715000089258
RSVPLG03,si,20260416-152043,1.0.2,20260219-152011,823,Experiment,Both,1,Automatic,main,19,20260416-152238,local,local,750,H,H,A,A,A-H.png,A-H.png,hH,hH,mask-3.png,mask-1.png,h,1,0.4501352000515908,h,1,0.1141586999874562,0.04988239996600896,0.04933569999411702,0.1002576999599114,0.10136750002857298,0.748662699945271
RSVPLG03,si,20260416-152043,1.0.2,20260219-152011,823,Experiment,Both,1,Automatic,main,20,20260416-152243,global,local,750,S,H,E,A,S-E.png,A-H.png,sS,hH,mask-4.png,mask-3.png,s,1,0.37821839994285256,h,1,0.1404934999300167,0.049607800086960196,0.048991199932061136,0.10064810002222657,0.09878629993181676,0.7484925000462681
RSVPLG03,si,20260416-152043,1.0.2,20260219-152011,823,Experiment,Both,1,Automatic,main,21,20260416-152248,local,global,750,S,H,E,E,E-S.png,H-E.png,sS,hH,mask-4.png,mask-1.png,s,1,1.7659556000726297,h,1,0.31078749999869615,0.04899759998079389,0.05137440003454685,0.09915969998110086,0.09889020002447069,0.7485690000467002
RSVPLG03,si,20260416-152043,1.0.2,20260219-152011,823,Experiment,Both,1,Automatic,main,22,20260416-152254,global,global,750,S,S,E,E,S-E.png,S-E.png,sS,sS,mask-3.png,mask-4.png,s,1,0.46760259999427944,s,1,0.10345729999244213,0.05006909999065101,0.05139409995172173,0.10006950004026294,0.10002419992815703,0.7490766000701115
RSVPLG03,si,20260416-152043,1.0.2,20260219-152011,823,Experiment,Both,1,Automatic,main,23,20260416-152259,global,local,750,H,H,A,A,H-A.png,A-H.png,hH,hH,mask-2.png,mask-3.png,h,1,0.4216847999487072,h,1,0.07973770005628467,0.049788900068961084,0.05064999999012798,0.09986020007636398,0.10089869995135814,0.7491980000631884
RSVPLG03,si,20260416-152043,1.0.2,20260219-152011,823,Experiment,Both,1,Automatic,main,24,20260416-152304,local,local,750,H,S,E,E,E-H.png,E-S.png,hH,sS,mask-1.png,mask-4.png,h,1,0.3419715000782162,s,1,0.06552499998360872,0.05059080000501126,0.04974879999645054,0.09956790006253868,0.10073489998467267,0.7483328999951482
RSVPLG03,si,20260416-152043,1.0.2,20260219-152011,823,Experiment,Both,1,Automatic,main,25,20260416-152308,local,local,300,H,H,A,A,A-H.png,A-H.png,hH,hH,mask-4.png,mask-2.png,h,1,0.7001715999795124,h,1,0.0804248999338597,0.04899969999678433,0.050911700003780425,0.09891059994697571,0.10081559990067035,0.29936850001104176
RSVPLG03,si,20260416-152043,1.0.2,20260219-152011,823,Experiment,Both,1,Automatic,main,26,20260416-152401,local,global,750,H,H,A,E,A-H.png,H-E.png,hH,hH,mask-1.png,mask-1.png,h,1,0.7532381000928581,h,1,0.12182839994784445,0.04949270002543926,0.04949950007721782,0.09941109991632402,0.09854540007654577,0.7502648999216035
RSVPLG03,si,20260416-152043,1.0.2,20260219-152011,823,Experiment,Both,1,Automatic,main,27,20260416-152406,global,local,750,S,S,A,E,S-A.png,E-S.png,sS,sS,mask-3.png,mask-3.png,s,1,0.357256899937056,s,1,0.1284682999830693,0.0507476000348106,0.04991639999207109,0.10073180007748306,0.09874179994221777,0.7512318000663072
RSVPLG03,si,20260416-152043,1.0.2,20260219-152011,823,Experiment,Both,1,Automatic,main,28,20260416-152411,local,local,300,H,S,A,A,A-H.png,A-S.png,hH,sS,mask-4.png,mask-4.png,s,0,0.44005990005098283,h,0,0.025949600036256015,0.05037730000913143,0.049856800003908575,0.10076980001758784,0.0995266999816522,0.3006998000200838
RSVPLG03,si,20260416-152043,1.0.2,20260219-152011,823,Experiment,Both,1,Automatic,main,29,20260416-152415,global,local,750,S,S,A,A,S-A.png,A-S.png,sS,sS,mask-1.png,mask-4.png,s,1,1.331872700015083,h,0,0.0966300000436604,0.04996720002964139,0.047969099949114025,0.0999984999652952,0.09951720002572984,0.7500796000240371
RSVPLG03,si,20260416-152043,1.0.2,20260219-152011,823,Experiment,Both,1,Automatic,main,30,20260416-152420,local,local,750,S,H,A,A,A-S.png,A-H.png,sS,hH,mask-3.png,mask-4.png,s,1,1.7122238000156358,h,1,0.12130270001944155,0.04934199992567301,0.05000689998269081,0.0994996998924762,0.09925430000294,0.7498355999123305
RSVPLG03,si,20260416-152043,1.0.2,20260219-152011,823,Experiment,Both,1,Automatic,main,31,20260416-152427,local,global,300,H,S,E,A,E-H.png,S-A.png,hH,sS,mask-1.png,mask-4.png,h,1,1.908106799935922,s,1,0.0404401000123471,0.05093879997730255,0.049766300013288856,0.10137109993956983,0.10030070005450398,0.2994258999824524
RSVPLG03,si,20260416-152043,1.0.2,20260219-152011,823,Experiment,Both,1,Automatic,main,32,20260416-152432,local,global,750,H,H,A,E,A-H.png,H-E.png,hH,hH,mask-1.png,mask-4.png,h,1,1.3779817000031471,h,1,0.11479959997814149,0.049776699976064265,0.050299800001084805,0.09982200001832098,0.09943919989746064,0.7502814000472426
RSVPLG03,si,20260416-152043,1.0.2,20260219-152011,823,Experiment,Both,1,Automatic,main,33,20260416-152438,global,local,750,S,S,A,E,S-A.png,E-S.png,sS,sS,mask-1.png,mask-1.png,s,1,0.7521826000884175,s,1,0.11419620004016906,0.04927219997625798,0.048014899948611856,0.09909959998913109,0.0982310000108555,0.7507501000072807
RSVPLG03,si,20260416-152043,1.0.2,20260219-152011,823,Experiment,Both,1,Automatic,main,34,20260416-152443,local,global,750,S,H,A,A,A-S.png,H-A.png,sS,hH,mask-4.png,mask-2.png,s,1,1.0925326000433415,h,1,0.058241200051270425,0.0493698000209406,0.0503313000081107,0.10031650005839765,0.10051879996899515,0.7483231000369415
RSVPLG03,si,20260416-152043,1.0.2,20260219-152011,823,Experiment,Both,1,Automatic,main,35,20260416-152448,local,local,750,S,S,A,E,A-S.png,E-S.png,sS,sS,mask-3.png,mask-1.png,s,1,0.7646272999700159,s,1,0.11145059997215867,0.05103129998315126,0.04783820000011474,0.10025209991727024,0.09838920005131513,0.7505461999680847
RSVPLG03,si,20260416-152043,1.0.2,20260219-152011,823,Experiment,Both,1,Automatic,main,36,20260416-152453,global,global,750,H,H,E,E,H-E.png,H-E.png,hH,hH,mask-3.png,mask-1.png,h,1,0.5683897000271827,h,1,0.11960839992389083,0.049805200076662004,0.049238699954003096,0.10271340003237128,0.09803779993671924,0.7513354000402614
RSVPLG03,si,20260416-152043,1.0.2,20260219-152011,823,Experiment,Both,1,Automatic,main,37,20260416-152458,local,global,300,H,S,E,A,E-H.png,S-A.png,hH,sS,mask-1.png,mask-1.png,h,1,1.6133558000437915,s,1,0.07427930005360395,0.04875029996037483,0.0500011999392882,0.09975920000579208,0.10133390000555664,0.2986225000349805
RSVPLG03,si,20260416-152043,1.0.2,20260219-152011,823,Experiment,Both,1,Automatic,main,38,20260416-152504,local,global,750,S,H,E,A,E-S.png,H-A.png,sS,hH,mask-3.png,mask-2.png,s,1,0.7813855001004413,h,1,0.10498029994778335,0.05082019988913089,0.04945399996358901,0.1008733999915421,0.09926809999160469,0.7517672999529168
RSVPLG03,si,20260416-152043,1.0.2,20260219-152011,823,Experiment,Both,1,Automatic,main,39,20260416-152509,global,local,750,S,H,E,E,S-E.png,E-H.png,sS,hH,mask-1.png,mask-2.png,s,1,0.7119010000023991,h,1,0.06484599993564188,0.048425500048324466,0.04913389997091144,0.098585500032641,0.0991292999824509,0.7492275000549853
RSVPLG03,si,20260416-152043,1.0.2,20260219-152011,823,Experiment,Both,1,Automatic,main,40,20260416-152514,local,local,300,S,S,A,A,A-S.png,A-S.png,sS,sS,mask-1.png,mask-1.png,s,1,1.0392649000277743,s,1,0.09306079999078065,0.05121460009831935,0.04721999994944781,0.10109990008641034,0.09741799999028444,0.3035251001128927
RSVPLG03,si,20260416-152043,1.0.2,20260219-152011,823,Experiment,Both,1,Automatic,main,41,20260416-152519,local,global,300,S,S,E,A,E-S.png,S-A.png,sS,sS,mask-1.png,mask-3.png,s,1,0.6086797999450937,s,1,0.09704149991739541,0.04983779997564852,0.05170459998771548,0.09893779992125928,0.10103789996355772,0.2979096999624744
RSVPLG03,si,20260416-152043,1.0.2,20260219-152011,823,Experiment,Both,1,Automatic,main,42,20260416-152523,global,global,750,S,S,A,E,S-A.png,S-E.png,sS,sS,mask-3.png,mask-3.png,s,1,0.566931499983184,s,1,0.08666130003985018,0.04963209992274642,0.048493800102733076,0.0998309999704361,0.09899510000832379,0.7502007998991758
RSVPLG03,si,20260416-152043,1.0.2,20260219-152011,823,Experiment,Both,1,Automatic,main,43,20260416-152528,global,global,300,S,H,E,E,S-E.png,H-E.png,sS,hH,mask-3.png,mask-1.png,s,1,0.44109300000127405,h,1,0.06394949997775257,0.04990180011373013,0.05082040000706911,0.10049330000765622,0.09990870009642094,0.29955220001284033
RSVPLG03,si,20260416-152043,1.0.2,20260219-152011,823,Experiment,Both,1,Automatic,main,44,20260416-152532,global,local,750,H,S,E,E,H-E.png,E-S.png,hH,sS,mask-4.png,mask-4.png,h,1,0.34302319993730634,s,1,0.04055340006016195,0.04957989999093115,0.050702800042927265,0.09935409994795918,0.09977440000511706,0.74971739994362
RSVPLG03,si,20260416-152043,1.0.2,20260219-152011,823,Experiment,Both,1,Automatic,main,45,20260416-152537,global,local,300,H,H,E,A,H-E.png,A-H.png,hH,hH,mask-2.png,mask-3.png,h,1,1.3476402999367565,h,1,0.088885199977085,0.05046359996777028,0.04977650009095669,0.10004109994042665,0.10004740010481328,0.30018159991595894
RSVPLG03,si,20260416-152043,1.0.2,20260219-152011,823,Experiment,Both,1,Automatic,main,46,20260416-152542,global,global,750,H,S,E,E,H-E.png,S-E.png,hH,sS,mask-2.png,mask-4.png,h,1,2.338430600007996,h,0,0.08885480009485036,0.0503943000221625,0.04941030009649694,0.09939530002884567,0.09929980000015348,0.7504402999766171
RSVPLG03,si,20260416-152043,1.0.2,20260219-152011,823,Experiment,Both,1,Automatic,main,47,20260416-152548,global,global,300,H,H,A,E,H-A.png,H-E.png,hH,hH,mask-4.png,mask-2.png,h,1,0.5155233000405133,h,1,0.08928940002806485,0.050633199978619814,0.04991950001567602,0.10028430004604161,0.09947290003765374,0.3011418000096455
RSVPLG03,si,20260416-152043,1.0.2,20260219-152011,823,Experiment,Both,1,Automatic,main,48,20260416-152553,local,local,300,S,H,E,A,E-S.png,A-H.png,sS,hH,mask-4.png,mask-3.png,s,1,0.7548641000175849,h,1,0.05678240000270307,0.04936990002170205,0.0498647999484092,0.1011610000859946,0.09932689997367561,0.2996257001068443
RSVPLG03,si,20260416-152043,1.0.2,20260219-152011,823,Experiment,Both,1,Automatic,main,49,20260416-152557,local,global,750,S,S,A,E,A-S.png,S-E.png,sS,sS,mask-1.png,mask-1.png,s,1,0.9042907000984997,h,0,1.1614186000078917,0.047745399991981685,0.04983659996651113,0.0970160000724718,0.09972299996297807,0.7478332000318915
RSVPLG03,si,20260416-152043,1.0.2,20260219-152011,823,Experiment,Both,1,Automatic,main,50,20260416-152603,local,global,300,S,S,E,A,E-S.png,S-A.png,sS,sS,mask-1.png,mask-3.png,s,1,0.897386800032109,h,0,0.17218639992643148,0.04781170003116131,0.05056700005661696,0.09880769997835159,0.09985460003372282,0.29975819995161146
RSVPLG03,si,20260416-152043,1.0.2,20260219-152011,823,Experiment,Both,1,Automatic,main,51,20260416-152623,global,global,300,H,H,A,E,H-A.png,H-E.png,hH,hH,mask-4.png,mask-4.png,h,1,0.5677914000116289,h,1,0.14149489998817444,0.04955950006842613,0.05101799999829382,0.09921470005065203,0.10016480006743222,0.29892510001081973
RSVPLG03,si,20260416-152043,1.0.2,20260219-152011,823,Experiment,Both,1,Automatic,main,52,20260416-152627,local,global,300,H,S,E,E,E-H.png,S-E.png,hH,sS,mask-2.png,mask-4.png,h,1,0.6315722999861464,h,0,0.11950719996821135,0.049109599902294576,0.05006850010249764,0.09802919998764992,0.0998810000019148,0.2982845999067649
RSVPLG03,si,20260416-152043,1.0.2,20260219-152011,823,Experiment,Both,1,Automatic,main,53,20260416-152631,global,local,300,H,S,A,E,H-A.png,E-S.png,hH,sS,mask-3.png,mask-4.png,h,1,1.8286512999329716,s,1,0.01459100004285574,0.04997900000307709,0.0487624000525102,0.09915019990876317,0.09979270002804697,0.3003020999021828
RSVPLG03,si,20260416-152043,1.0.2,20260219-152011,823,Experiment,Both,1,Automatic,main,54,20260416-152637,global,local,750,S,S,E,E,S-E.png,E-S.png,sS,sS,mask-4.png,mask-2.png,s,1,0.7434439000207931,s,1,0.13729300000704825,0.04837019997648895,0.04761269991286099,0.09846160002052784,0.09763789991848171,0.7502692000707611
RSVPLG03,si,20260416-152043,1.0.2,20260219-152011,823,Experiment,Both,1,Automatic,main,55,20260416-152642,global,global,750,H,H,A,A,H-A.png,H-A.png,hH,hH,mask-3.png,mask-1.png,h,1,0.5318694999441504,h,1,0.3771498999558389,0.049130900064483285,0.05110469995997846,0.09977680002339184,0.10223219997715205,0.7473449000390247
RSVPLG03,si,20260416-152043,1.0.2,20260219-152011,823,Experiment,Both,1,Automatic,main,56,20260416-152647,local,global,750,H,H,E,E,E-H.png,H-E.png,hH,hH,mask-3.png,mask-4.png,h,1,0.6545868999091908,s,0,0.15513660002034158,0.048718699952587485,0.0495224999031052,0.09852909995242953,0.10251899994909763,0.7479392000241205
RSVPLG03,si,20260416-152043,1.0.2,20260219-152011,823,Experiment,Both,1,Automatic,main,57,20260416-152652,global,local,300,H,S,A,E,H-A.png,E-S.png,hH,sS,mask-2.png,mask-1.png,h,1,0.7937359000789002,s,1,0.04872690001502633,0.051104299956932664,0.051901399972848594,0.09921209991443902,0.10188600001856685,0.2984779999824241
RSVPLG03,si,20260416-152043,1.0.2,20260219-152011,823,Experiment,Both,1,Automatic,main,58,20260416-152657,global,global,300,H,H,E,A,H-E.png,H-A.png,hH,hH,mask-3.png,mask-2.png,h,1,0.4883589999517426,h,1,0.10240250010974705,0.04987560003064573,0.04981460003182292,0.09806630003731698,0.09965710004325956,0.2989656999707222
RSVPLG03,si,20260416-152043,1.0.2,20260219-152011,823,Experiment,Both,1,Automatic,main,59,20260416-152701,local,local,300,H,H,E,A,E-H.png,A-H.png,hH,hH,mask-4.png,mask-3.png,h,1,0.39697160001378506,h,1,0.11368399998173118,0.049931100104004145,0.04950080008711666,0.10048830008599907,0.0993431000970304,0.29950590000953525
RSVPLG03,si,20260416-152043,1.0.2,20260219-152011,823,Experiment,Both,1,Automatic,main,60,20260416-152706,local,global,750,S,H,E,A,E-S.png,H-A.png,sS,hH,mask-4.png,mask-4.png,s,1,0.98256360006053,s,0,0.12146240007132292,0.04983089992310852,0.05022340000141412,0.09943369997199625,0.09955359995365143,0.7502873999765143
RSVPLG03,si,20260416-152043,1.0.2,20260219-152011,823,Experiment,Both,1,Automatic,main,61,20260416-152711,local,local,300,H,H,E,A,E-H.png,A-H.png,hH,hH,mask-4.png,mask-4.png,h,1,0.4918279000557959,h,1,0.10586500004865229,0.05105070001445711,0.04868889995850623,0.10048840008676052,0.09783370001241565,0.30158760002814233
RSVPLG03,si,20260416-152043,1.0.2,20260219-152011,823,Experiment,Both,1,Automatic,main,62,20260416-152715,local,local,750,H,S,E,A,E-H.png,A-S.png,hH,sS,mask-3.png,mask-1.png,h,1,0.49875239992979914,s,1,0.10392180003691465,0.04868290002923459,0.04994830000214279,0.10006620001513511,0.09953319991473109,0.7492566000437364
RSVPLG03,si,20260416-152043,1.0.2,20260219-152011,823,Experiment,Both,1,Automatic,main,63,20260416-152720,global,global,750,S,S,A,E,S-A.png,S-E.png,sS,sS,mask-3.png,mask-3.png,h,0,4.848972400068305,s,1,0.34910760005004704,0.050310199963860214,0.05070400005206466,0.10075889993458986,0.10115920007228851,0.7498080999357626
RSVPLG03,si,20260416-152043,1.0.2,20260219-152011,823,Experiment,Both,1,Automatic,main,64,20260416-152729,global,local,750,S,S,E,E,S-E.png,E-S.png,sS,sS,mask-2.png,mask-1.png,h,0,1.2252469999948516,s,1,0.06297250010538846,0.049988599959760904,0.050567900063470006,0.10109899996314198,0.1006741999881342,0.7481558999279514
RSVPLG03,si,20260416-152043,1.0.2,20260219-152011,823,Experiment,Both,1,Automatic,main,65,20260416-152735,global,local,300,S,S,A,E,S-A.png,E-S.png,sS,sS,mask-1.png,mask-1.png,s,1,0.42368040001019835,s,1,0.44773199991323054,0.048844599979929626,0.04933860001619905,0.09873930003959686,0.10032660001888871,0.2994730999926105
RSVPLG03,si,20260416-152043,1.0.2,20260219-152011,823,Experiment,Both,1,Automatic,main,66,20260416-152739,local,global,300,S,S,A,E,A-S.png,S-E.png,sS,sS,mask-3.png,mask-1.png,h,0,1.1464254999300465,s,1,0.13035089999902993,0.04817590001039207,0.049653499969281256,0.09796639997512102,0.0989304999820888,0.29819070000667125
RSVPLG03,si,20260416-152043,1.0.2,20260219-152011,823,Experiment,Both,1,Automatic,main,67,20260416-152744,global,global,300,S,H,E,E,S-E.png,H-E.png,sS,hH,mask-2.png,mask-3.png,s,1,1.0141773999202996,h,1,0.05017139995470643,0.05109800002537668,0.04942960001062602,0.10061920003499836,0.09990160004235804,0.30030290002468973
RSVPLG03,si,20260416-152043,1.0.2,20260219-152011,823,Experiment,Both,1,Automatic,main,68,20260416-152749,local,global,300,H,H,E,A,E-H.png,H-A.png,hH,hH,mask-2.png,mask-2.png,h,1,1.5140940001001582,s,0,0.10502119990997016,0.05093319993466139,0.05025040009059012,0.10085569997318089,0.10034980007912964,0.2995586999459192
RSVPLG03,si,20260416-152043,1.0.2,20260219-152011,823,Experiment,Both,1,Automatic,main,69,20260416-152755,global,global,300,H,H,A,A,H-A.png,H-A.png,hH,hH,mask-4.png,mask-1.png,h,1,0.4790926999412477,h,1,0.07834030000958592,0.04994679999072105,0.04916819999925792,0.10056569997686893,0.09934209997300059,0.30002159997820854
RSVPLG03,si,20260416-152043,1.0.2,20260219-152011,823,Experiment,Both,1,Automatic,main,70,20260416-152759,global,global,750,H,S,E,E,H-E.png,S-E.png,hH,sS,mask-4.png,mask-4.png,h,1,0.5370873999781907,s,1,0.10271610005293041,0.047235699952580035,0.050102700013667345,0.09708390000741929,0.09967709996271878,0.746114099980332
RSVPLG03,si,20260416-152043,1.0.2,20260219-152011,823,Experiment,Both,1,Automatic,main,71,20260416-152804,local,global,300,H,S,E,A,E-H.png,S-A.png,hH,sS,mask-1.png,mask-3.png,h,1,0.6776888000313193,s,1,0.06318010005634278,0.051367899985052645,0.050124699948355556,0.1009485999820754,0.10068529995623976,0.29999980004504323
RSVPLG03,si,20260416-152043,1.0.2,20260219-152011,823,Experiment,Both,1,Automatic,main,72,20260416-152808,global,global,750,S,H,A,E,S-A.png,H-E.png,sS,hH,mask-3.png,mask-4.png,s,1,0.3889203000580892,h,1,0.11121600004844368,0.04730520001612604,0.050410900032147765,0.09812410001177341,0.1016438000369817,0.7468451999593526
RSVPLG03,si,20260416-152043,1.0.2,20260219-152011,823,Experiment,Both,1,Automatic,main,73,20260416-152813,global,global,300,S,H,E,E,S-E.png,H-E.png,sS,hH,mask-3.png,mask-4.png,s,1,0.4326916999416426,h,1,0.11327700002584606,0.05311209999490529,0.04842970008030534,0.10042799997609109,0.09939270000904799,0.29909119999501854
RSVPLG03,si,20260416-152043,1.0.2,20260219-152011,823,Experiment,Both,1,Automatic,main,74,20260416-152817,local,local,300,H,S,A,E,A-H.png,E-S.png,hH,sS,mask-4.png,mask-4.png,h,1,1.0395838000113145,s,1,0.04970289999619126,0.0494753000093624,0.050172700081020594,0.09925889992155135,0.10110150009859353,0.29955489991698414
RSVPLG03,si,20260416-152043,1.0.2,20260219-152011,823,Experiment,Both,1,Automatic,main,75,20260416-152822,global,global,750,S,H,A,E,S-A.png,H-E.png,sS,hH,mask-2.png,mask-1.png,s,1,0.3837546000722796,h,1,0.1093085000757128,0.05115489999298006,0.049338400014676154,0.09997099998872727,0.10023219999857247,0.7493484999286011
RSVPLG03,si,20260416-152043,1.0.2,20260219-152011,823,Experiment,Both,1,Automatic,main,76,20260416-152841,global,local,750,H,H,A,E,H-A.png,E-H.png,hH,hH,mask-3.png,mask-3.png,h,1,0.5106390999862924,h,1,0.14130740007385612,0.04747680004220456,0.047970399959012866,0.09772249998059124,0.09809570002835244,0.7497284000273794
RSVPLG03,si,20260416-152043,1.0.2,20260219-152011,823,Experiment,Both,1,Automatic,main,77,20260416-152846,local,local,300,S,S,A,E,A-S.png,E-S.png,sS,sS,mask-2.png,mask-4.png,s,1,0.45198350003920496,s,1,0.07992129994090647,0.049975500092841685,0.04945040005259216,0.1006935000186786,0.0996832000091672,0.29927600000519305
RSVPLG03,si,20260416-152043,1.0.2,20260219-152011,823,Experiment,Both,1,Automatic,main,78,20260416-152850,global,global,750,H,S,E,E,H-E.png,S-E.png,hH,sS,mask-3.png,mask-1.png,h,1,0.43681770004332066,s,1,0.14853300002869219,0.050216499948874116,0.05005570000503212,0.09976679994724691,0.09986670000944287,0.7483763999771327
RSVPLG03,si,20260416-152043,1.0.2,20260219-152011,823,Experiment,Both,1,Automatic,main,79,20260416-152855,local,global,750,H,S,E,A,E-H.png,S-A.png,hH,sS,mask-4.png,mask-3.png,h,1,2.0376016000518575,s,1,0.09268720005638897,0.051125099998898804,0.049465499934740365,0.10010719997808337,0.09980279998853803,0.7504178000381216
RSVPLG03,si,20260416-152043,1.0.2,20260219-152011,823,Experiment,Both,1,Automatic,main,80,20260416-152901,global,local,300,S,H,A,A,S-A.png,A-H.png,sS,hH,mask-4.png,mask-3.png,s,1,0.8150628000730649,h,1,0.050004899967461824,0.05006190005224198,0.051206600037403405,0.10012069996446371,0.10039809998124838,0.299107400001958
RSVPLG03,si,20260416-152043,1.0.2,20260219-152011,823,Experiment,Both,1,Automatic,main,81,20260416-152906,global,global,300,H,S,E,A,H-E.png,S-A.png,hH,sS,mask-1.png,mask-2.png,h,1,0.9121239999076352,s,1,0.05715369991958141,0.049970799940638244,0.05021030001807958,0.10165840003173798,0.09994149999693036,0.30019989993888885
RSVPLG03,si,20260416-152043,1.0.2,20260219-152011,823,Experiment,Both,1,Automatic,main,82,20260416-152911,global,local,300,H,H,E,E,H-E.png,E-H.png,hH,hH,mask-3.png,mask-2.png,h,1,0.9190632000099868,h,1,0.10486999992281199,0.04927039996255189,0.0478204000974074,0.09908169996924698,0.1006595001090318,0.2995100999251008
RSVPLG03,si,20260416-152043,1.0.2,20260219-152011,823,Experiment,Both,1,Automatic,main,83,20260416-152915,local,local,750,S,S,E,A,E-S.png,A-S.png,sS,sS,mask-2.png,mask-2.png,s,1,1.0237455999013036,s,1,0.0994173000799492,0.05177859996911138,0.0492338000331074,0.10018169996328652,0.1001529999775812,0.7496121999574825
RSVPLG03,si,20260416-152043,1.0.2,20260219-152011,823,Experiment,Both,1,Automatic,main,84,20260416-152921,local,local,300,S,H,E,E,E-S.png,E-H.png,sS,hH,mask-1.png,mask-1.png,s,1,0.5552225999999791,s,0,0.16940669994801283,0.04997180006466806,0.05014339997433126,0.09968380001373589,0.10113149997778237,0.2983626000350341
RSVPLG03,si,20260416-152043,1.0.2,20260219-152011,823,Experiment,Both,1,Automatic,main,85,20260416-152925,local,local,750,H,H,E,A,E-H.png,A-H.png,hH,hH,mask-3.png,mask-1.png,h,1,0.6177765000611544,s,0,0.09749209997244179,0.050240300013683736,0.05126690003089607,0.09957249998115003,0.10006870003417134,0.7496771999867633
RSVPLG03,si,20260416-152043,1.0.2,20260219-152011,823,Experiment,Both,1,Automatic,main,86,20260416-152930,global,global,300,S,H,A,E,S-A.png,H-E.png,sS,hH,mask-2.png,mask-3.png,s,1,1.5369389998959377,h,1,0.047672700020484626,0.050324699957855046,0.05035540007520467,0.10120469995308667,0.10052330000326037,0.29937519994564354
RSVPLG03,si,20260416-152043,1.0.2,20260219-152011,823,Experiment,Both,1,Automatic,main,87,20260416-152935,global,global,300,H,H,A,E,H-A.png,H-E.png,hH,hH,mask-4.png,mask-3.png,h,1,0.39339979994110763,h,1,0.08213080000132322,0.049855099990963936,0.04901770001742989,0.09890530002303421,0.098918900010176,0.3000848999945447
RSVPLG03,si,20260416-152043,1.0.2,20260219-152011,823,Experiment,Both,1,Automatic,main,88,20260416-152940,global,global,300,S,H,A,E,S-A.png,H-E.png,sS,hH,mask-4.png,mask-3.png,s,1,0.5308652999810874,h,1,0.06532319996040314,0.051483299932442605,0.049662900040857494,0.10180569998919964,0.10144550004042685,0.2993896999396384
RSVPLG03,si,20260416-152043,1.0.2,20260219-152011,823,Experiment,Both,1,Automatic,main,89,20260416-152944,global,local,300,S,S,E,E,S-E.png,E-S.png,sS,sS,mask-2.png,mask-2.png,s,1,0.5989675000309944,s,1,0.19148489995859563,0.0487552999984473,0.049167599994689226,0.0992784999543801,0.09951420000288635,0.2980047999881208
RSVPLG03,si,20260416-152043,1.0.2,20260219-152011,823,Experiment,Both,1,Automatic,main,90,20260416-152948,local,global,750,H,S,A,A,A-H.png,S-A.png,hH,sS,mask-4.png,mask-1.png,s,0,0.9196186999324709,s,1,0.1057888000505045,0.047718699905090034,0.05055539996828884,0.1040119999088347,0.09993199992459267,0.749019099981524
RSVPLG03,si,20260416-152043,1.0.2,20260219-152011,823,Experiment,Both,1,Automatic,main,91,20260416-152954,local,local,750,H,S,A,A,A-H.png,A-S.png,hH,sS,mask-4.png,mask-2.png,h,1,0.41804130002856255,s,1,0.10252279997803271,0.050299900001846254,0.04988459998276085,0.09880369994789362,0.09853519999887794,0.7493750000139698
RSVPLG03,si,20260416-152043,1.0.2,20260219-152011,823,Experiment,Both,1,Automatic,main,92,20260416-152958,global,local,750,S,S,E,A,S-E.png,A-S.png,sS,sS,mask-2.png,mask-3.png,s,1,0.6929767000256106,h,0,0.06491189997177571,0.050733900046907365,0.04932999995071441,0.10084720002487302,0.10037909995298833,0.7495180000551045
RSVPLG03,si,20260416-152043,1.0.2,20260219-152011,823,Experiment,Both,1,Automatic,main,93,20260416-153003,global,local,300,S,H,E,E,S-E.png,E-H.png,sS,hH,mask-1.png,mask-1.png,s,1,0.5946218998869881,h,1,0.03695860004518181,0.049932299996726215,0.05131629994139075,0.09889789996668696,0.10268829995766282,0.29834320000372827
RSVPLG03,si,20260416-152043,1.0.2,20260219-152011,823,Experiment,Both,1,Automatic,main,94,20260416-153008,local,global,300,S,H,E,A,E-S.png,H-A.png,sS,hH,mask-1.png,mask-2.png,s,1,0.9554941999958828,h,1,0.08925670001190156,0.050000199931673706,0.05009459995198995,0.0990357999689877,0.10144020000007004,0.2975699999369681
RSVPLG03,si,20260416-152043,1.0.2,20260219-152011,823,Experiment,Both,1,Automatic,main,95,20260416-153012,local,local,750,S,S,A,E,A-S.png,E-S.png,sS,sS,mask-4.png,mask-3.png,s,1,0.5429688999429345,s,1,0.1194684999063611,0.05124270007945597,0.04885740007739514,0.10060090001206845,0.09890029998496175,0.7504007000243291
RSVPLG03,si,20260416-152043,1.0.2,20260219-152011,823,Experiment,Both,1,Automatic,main,96,20260416-153017,local,global,750,H,S,E,E,E-H.png,S-E.png,hH,sS,mask-1.png,mask-4.png,h,1,0.5765695000300184,s,1,0.04810210003051907,0.04940610006451607,0.050341099966317415,0.09951260010711849,0.10041549999732524,0.7488621000666171
RSVPLG03,si,20260416-152043,1.0.2,20260219-152011,823,Experiment,Both,1,Automatic,main,97,20260416-153022,global,local,300,S,H,A,E,S-A.png,E-H.png,sS,hH,mask-2.png,mask-4.png,s,1,0.7346661000046879,h,1,0.07731010008137673,0.05305780004709959,0.05029859999194741,0.101153300027363,0.10038339998573065,0.2993283000541851
RSVPLG03,si,20260416-152043,1.0.2,20260219-152011,823,Experiment,Both,1,Automatic,main,98,20260416-153027,local,global,300,H,S,A,E,A-H.png,S-E.png,hH,sS,mask-4.png,mask-4.png,h,1,0.6020607999525964,s,1,0.05434220004826784,0.05023489997256547,0.050104400026611984,0.09914479998406023,0.10115020000375807,0.29977629997301847
RSVPLG03,si,20260416-152043,1.0.2,20260219-152011,823,Experiment,Both,1,Automatic,main,99,20260416-153031,global,local,300,S,H,A,A,S-A.png,A-H.png,sS,hH,mask-1.png,mask-1.png,s,1,1.3535048000048846,h,1,0.058691399986855686,0.04901940003037453,0.049592399969697,0.09814510005526245,0.10049009998328984,0.2987165000522509
RSVPLG03,si,20260416-152043,1.0.2,20260219-152011,823,Experiment,Both,1,Automatic,main,100,20260416-153036,local,local,750,S,S,A,E,A-S.png,E-S.png,sS,sS,mask-3.png,mask-4.png,s,1,0.4755066999932751,s,1,0.1165404999628663,0.05097769992426038,0.050708399969153106,0.10168919991701841,0.10133520001545548,0.7483945999993011
RSVPLG03,si,20260416-153106,1.0.2,20260219-152011,823,Experiment,Both,1,Automatic,warmup,1,20260416-153130,local,local,300,H,S,E,E,E-H.png,E-S.png,hH,sS,mask-4.png,mask-3.png,h,1,0.49669039994478226,s,1,0.02794010005891323,0.0461159999249503,0.05105859995819628,0.0959230000153184,0.10012840002309531,0.29694729996845126
RSVPLG03,si,20260416-153106,1.0.2,20260219-152011,823,Experiment,Both,1,Automatic,warmup,2,20260416-153135,local,local,750,S,H,A,E,A-S.png,E-H.png,sS,hH,mask-2.png,mask-1.png,s,1,0.4257775000296533,h,1,0.08883819996844977,0.05180589994415641,0.050426999921910465,0.09996109991334379,0.10112809995189309,0.7507140999659896
RSVPLG03,si,20260416-153106,1.0.2,20260219-152011,823,Experiment,Both,1,Automatic,warmup,3,20260416-153139,global,global,750,S,H,E,A,S-E.png,H-A.png,sS,hH,mask-2.png,mask-1.png,s,1,1.2857392000732943,h,1,0.009244200075045228,0.04992260003928095,0.048592800041660666,0.09967130003497005,0.09806300001218915,0.7504467000253499
RSVPLG03,si,20260416-153106,1.0.2,20260219-152011,823,Experiment,Both,1,Automatic,warmup,4,20260416-153145,local,global,750,H,H,A,A,A-H.png,H-A.png,hH,hH,mask-1.png,mask-3.png,h,1,2.0928647000109777,h,1,0.08856269996613264,0.048678799998015165,0.04636799998115748,0.09877810010220855,0.0967202999163419,0.7519378000870347
RSVPLG03,si,20260416-153106,1.0.2,20260219-152011,823,Experiment,Both,1,Automatic,main,5,20260416-153151,global,global,750,H,S,E,E,H-E.png,S-E.png,hH,sS,mask-4.png,mask-3.png,h,1,0.41669240000192076,s,1,0.08863249991554767,0.05033310002181679,0.05034069996327162,0.09995750000234693,0.10016639996320009,0.7508061999687925
RSVPLG03,si,20260416-153106,1.0.2,20260219-152011,823,Experiment,Both,1,Automatic,main,6,20260416-153156,global,global,750,H,H,A,A,H-A.png,H-A.png,hH,hH,mask-2.png,mask-2.png,h,1,0.4228859000140801,h,1,0.0970398000208661,0.048384099965915084,0.05008129996713251,0.0991615999955684,0.10015519999433309,0.7503240000223741
RSVPLG03,si,20260416-153106,1.0.2,20260219-152011,823,Experiment,Both,1,Automatic,main,7,20260416-153201,local,local,750,S,S,E,A,E-S.png,A-S.png,sS,sS,mask-4.png,mask-4.png,s,1,0.4085291000083089,s,1,0.08497979992534965,0.050563500029966235,0.05006519996095449,0.10059320006985217,0.10125179996248335,0.7515982000622898
RSVPLG03,si,20260416-153106,1.0.2,20260219-152011,823,Experiment,Both,1,Automatic,main,8,20260416-153205,local,local,750,H,H,E,A,E-H.png,A-H.png,hH,hH,mask-3.png,mask-1.png,h,1,0.38650470005813986,h,1,0.11373620002996176,0.049807799980044365,0.04953009996097535,0.10006540000904351,0.1014803999569267,0.7505136999534443
RSVPLG03,si,20260416-153106,1.0.2,20260219-152011,823,Experiment,Both,1,Automatic,main,9,20260416-153210,global,global,750,H,S,E,A,H-E.png,S-A.png,hH,sS,mask-1.png,mask-4.png,h,1,0.4263988999882713,s,1,0.13799700001254678,0.049567599897272885,0.04923690005671233,0.10059589997399598,0.09999480005353689,0.7513784999027848
RSVPLG03,si,20260416-153106,1.0.2,20260219-152011,823,Experiment,Both,1,Automatic,main,10,20260416-153215,global,global,300,H,H,E,A,H-E.png,H-A.png,hH,hH,mask-2.png,mask-3.png,h,1,0.4270813000621274,h,1,0.0761398000176996,0.04871769994497299,0.0513936000643298,0.09999510005582124,0.10284489998593926,0.29829419997986406
RSVPLG03,si,20260416-153106,1.0.2,20260219-152011,823,Experiment,Both,1,Automatic,main,11,20260416-153219,global,local,750,H,H,A,E,H-A.png,E-H.png,hH,hH,mask-1.png,mask-4.png,h,1,0.35682990006171167,h,1,0.07249359996058047,0.04927239997778088,0.04882450005970895,0.10071929998230189,0.09892500005662441,0.7513076999457553
RSVPLG03,si,20260416-153106,1.0.2,20260219-152011,823,Experiment,Both,1,Automatic,main,12,20260416-153224,local,global,300,S,S,A,A,A-S.png,S-A.png,sS,sS,mask-4.png,mask-1.png,s,1,0.5328462000470608,s,1,0.0999698000960052,0.04989490006119013,0.05111849994864315,0.1012033000588417,0.10129989997949451,0.29969230003189296
RSVPLG03,si,20260416-153106,1.0.2,20260219-152011,823,Experiment,Both,1,Automatic,main,13,20260416-153228,local,local,300,H,S,E,E,E-H.png,E-S.png,hH,sS,mask-1.png,mask-1.png,h,1,0.5474957999540493,s,1,0.05289769999217242,0.05078200006391853,0.05022490001283586,0.10130360000766814,0.09939310001209378,0.3015958999749273
RSVPLG03,si,20260416-153106,1.0.2,20260219-152011,823,Experiment,Both,1,Automatic,main,14,20260416-153232,global,global,300,S,S,A,E,S-A.png,S-E.png,sS,sS,mask-1.png,mask-1.png,s,1,0.5554446000605822,h,0,0.06551069999113679,0.04936579999048263,0.049779900000430644,0.09928470000158995,0.09989579999819398,0.3004766999511048
RSVPLG03,si,20260416-153106,1.0.2,20260219-152011,823,Experiment,Both,1,Automatic,main,15,20260416-153237,local,global,750,S,S,E,E,E-S.png,S-E.png,sS,sS,mask-2.png,mask-2.png,s,1,0.5256530999904498,h,0,0.055313399992883205,0.051107199979014695,0.0491642999695614,0.10020699992310256,0.1010652999393642,0.7509917999850586
RSVPLG03,si,20260416-153106,1.0.2,20260219-152011,823,Experiment,Both,1,Automatic,main,16,20260416-153241,global,local,750,S,H,A,A,S-A.png,A-H.png,sS,hH,mask-3.png,mask-2.png,s,1,1.381961299921386,s,0,0.10582359996624291,0.050456900033168495,0.05048550001811236,0.10115190001670271,0.10099890001583844,0.7512704000109807
RSVPLG03,si,20260416-153106,1.0.2,20260219-152011,823,Experiment,Both,1,Automatic,main,17,20260416-153247,local,local,750,S,S,E,E,E-S.png,E-S.png,sS,sS,mask-3.png,mask-3.png,s,1,0.4807932999683544,s,1,0.08923419995699078,0.04948199994396418,0.048880200018174946,0.09854190004989505,0.09962200000882149,0.7495590000180528
RSVPLG03,si,20260416-153106,1.0.2,20260219-152011,823,Experiment,Both,1,Automatic,main,18,20260416-153252,global,local,750,S,S,E,E,S-E.png,E-S.png,sS,sS,mask-4.png,mask-2.png,s,1,0.41060440009459853,s,1,0.06506669998634607,0.04889299999922514,0.05021340004168451,0.10057160002179444,0.100643299985677,0.7492533000186086
RSVPLG03,si,20260416-153106,1.0.2,20260219-152011,823,Experiment,Both,1,Automatic,main,19,20260416-153256,global,local,750,H,H,A,A,H-A.png,A-H.png,hH,hH,mask-2.png,mask-1.png,h,1,0.3484166000271216,h,1,0.06974980002269149,0.04947209998499602,0.05167259997688234,0.09796709998045117,0.09979449992533773,0.7487384000560269
RSVPLG03,si,20260416-153106,1.0.2,20260219-152011,823,Experiment,Both,1,Automatic,main,20,20260416-153301,local,global,750,S,H,E,E,E-S.png,H-E.png,sS,hH,mask-2.png,mask-4.png,s,1,0.5360050000017509,h,1,0.07340100000146776,0.048493699985556304,0.04984979995060712,0.09953319991473109,0.10028480004984885,0.7505753999575973
RSVPLG03,si,20260416-153106,1.0.2,20260219-152011,823,Experiment,Both,1,Automatic,main,21,20260416-153306,global,local,750,S,S,A,E,S-A.png,E-S.png,sS,sS,mask-4.png,mask-2.png,s,1,0.35250009992159903,s,1,0.08045060001313686,0.049250800046138465,0.04856699996162206,0.10000810003839433,0.0985647999914363,0.7510788000654429
RSVPLG03,si,20260416-153106,1.0.2,20260219-152011,823,Experiment,Both,1,Automatic,main,22,20260416-153310,local,local,300,S,H,E,E,E-S.png,E-H.png,sS,hH,mask-1.png,mask-3.png,s,1,0.3383099000202492,h,1,0.027635299949906766,0.048978100065141916,0.04969140002503991,0.09923180006444454,0.1006428999826312,0.298807300045155
RSVPLG03,si,20260416-153106,1.0.2,20260219-152011,823,Experiment,Both,1,Automatic,main,23,20260416-153314,local,local,300,H,S,A,E,A-H.png,E-S.png,hH,sS,mask-4.png,mask-4.png,h,1,0.4007691000588238,s,1,0.039295799913816154,0.04624959989450872,0.04799470002762973,0.09628800000064075,0.09908980003092438,0.2977224999340251
RSVPLG03,si,20260416-153106,1.0.2,20260219-152011,823,Experiment,Both,1,Automatic,main,24,20260416-153318,local,local,750,H,H,E,E,E-H.png,E-H.png,hH,hH,mask-3.png,mask-1.png,h,1,1.011084199999459,h,1,0.08936750004068017,0.05016530002467334,0.04904999991413206,0.09913869993761182,0.0996698000235483,0.7506751000182703
RSVPLG03,si,20260416-153106,1.0.2,20260219-152011,823,Experiment,Both,1,Automatic,main,25,20260416-153323,local,local,750,H,H,E,A,E-H.png,A-H.png,hH,hH,mask-1.png,mask-1.png,h,1,0.7516710999188945,h,1,0.09483790001831949,0.05100580002181232,0.050052300095558167,0.10194189997855574,0.09948570001870394,0.7511675999267027
RSVPLG03,si,20260416-153106,1.0.2,20260219-152011,823,Experiment,Both,1,Automatic,main,26,20260416-153341,global,global,750,S,H,A,A,S-A.png,H-A.png,sS,hH,mask-4.png,mask-4.png,s,1,0.4333480999339372,h,1,0.08895240002311766,0.05035649996716529,0.04753880004864186,0.09933800005819649,0.09998130006715655,0.7521703999955207
RSVPLG03,si,20260416-153106,1.0.2,20260219-152011,823,Experiment,Both,1,Automatic,main,27,20260416-153346,global,global,750,S,H,E,A,S-E.png,H-A.png,sS,hH,mask-3.png,mask-4.png,s,1,0.9315516999922693,h,1,0.06828430003952235,0.0492962000425905,0.050379399908706546,0.0994913000613451,0.1000283999601379,0.750242100097239
RSVPLG03,si,20260416-153106,1.0.2,20260219-152011,823,Experiment,Both,1,Automatic,main,28,20260416-153351,global,global,750,S,S,E,A,S-E.png,S-A.png,sS,sS,mask-2.png,mask-4.png,s,1,0.41102200001478195,s,1,0.060325599974021316,0.051197699969634414,0.051791799953207374,0.1006125999847427,0.09926859999541193,0.7499106000177562
RSVPLG03,si,20260416-153106,1.0.2,20260219-152011,823,Experiment,Both,1,Automatic,main,29,20260416-153356,local,local,750,S,S,E,A,E-S.png,A-S.png,sS,sS,mask-3.png,mask-2.png,s,1,0.6475873000454158,s,1,0.0813125999411568,0.04961009998805821,0.05142679996788502,0.09959880006499588,0.09985939995385706,0.7494401000440121
RSVPLG03,si,20260416-153106,1.0.2,20260219-152011,823,Experiment,Both,1,Automatic,main,30,20260416-153401,global,global,300,S,S,E,A,S-E.png,S-A.png,sS,sS,mask-4.png,mask-3.png,s,1,0.4925725000211969,s,1,0.07976260001305491,0.05074169998988509,0.051911399932578206,0.10067319998051971,0.10127809992991388,0.29994739999528974
RSVPLG03,si,20260416-153106,1.0.2,20260219-152011,823,Experiment,Both,1,Automatic,main,31,20260416-153405,local,global,300,H,S,E,E,E-H.png,S-E.png,hH,sS,mask-2.png,mask-2.png,h,1,0.5073438000399619,s,1,0.05655590002425015,0.048628600081428885,0.04964129999279976,0.10063950007315725,0.09933700005058199,0.29946520004887134
RSVPLG03,si,20260416-153106,1.0.2,20260219-152011,823,Experiment,Both,1,Automatic,main,32,20260416-153409,global,global,300,S,S,E,A,S-E.png,S-A.png,sS,sS,mask-3.png,mask-4.png,s,1,0.3808263000100851,s,1,0.08914759999606758,0.04975830006878823,0.049794599995948374,0.1002552000572905,0.1005886000348255,0.3019507999997586
RSVPLG03,si,20260416-153106,1.0.2,20260219-152011,823,Experiment,Both,1,Automatic,main,33,20260416-153413,global,global,750,H,H,E,E,H-E.png,H-E.png,hH,hH,mask-3.png,mask-2.png,h,1,0.33242419990710914,h,1,0.0721917999908328,0.04901620000600815,0.05011269997339696,0.10024970001541078,0.09974660002626479,0.7506204999517649
RSVPLG03,si,20260416-153106,1.0.2,20260219-152011,823,Experiment,Both,1,Automatic,main,34,20260416-153418,global,global,300,S,S,E,E,S-E.png,S-E.png,sS,sS,mask-3.png,mask-4.png,s,1,0.4245227000210434,s,1,0.08843730005901307,0.0506042999913916,0.05018000002019107,0.10251170000992715,0.10361930006183684,0.3015041999751702
RSVPLG03,si,20260416-153106,1.0.2,20260219-152011,823,Experiment,Both,1,Automatic,main,35,20260416-153422,global,local,750,S,H,A,A,S-A.png,A-H.png,sS,hH,mask-1.png,mask-2.png,s,1,0.7391583999851719,h,1,0.04967880004551262,0.05101019993890077,0.05143559991847724,0.10068419994786382,0.10091619996819645,0.7499697000021115
RSVPLG03,si,20260416-153106,1.0.2,20260219-152011,823,Experiment,Both,1,Automatic,main,36,20260416-153427,local,global,300,S,H,E,A,E-S.png,H-A.png,sS,hH,mask-1.png,mask-2.png,s,1,1.1361344000324607,s,0,0.0985424000537023,0.04874289990402758,0.05000170005951077,0.09862349997274578,0.10108110005967319,0.29859319992829114
RSVPLG03,si,20260416-153106,1.0.2,20260219-152011,823,Experiment,Both,1,Automatic,main,37,20260416-153432,global,local,300,S,S,A,A,S-A.png,A-S.png,sS,sS,mask-1.png,mask-2.png,s,1,0.5545083000324667,h,0,0.04665999999269843,0.048052199999801815,0.04840390000026673,0.09788109990768135,0.09933959995396435,0.29948419996071607
RSVPLG03,si,20260416-153106,1.0.2,20260219-152011,823,Experiment,Both,1,Automatic,main,38,20260416-153436,local,global,750,H,S,A,E,A-H.png,S-E.png,hH,sS,mask-2.png,mask-2.png,h,1,1.3769954000599682,h,0,0.11894870002288371,0.05019079998601228,0.0484083000337705,0.09973090002313256,0.0983972999965772,0.7517652999376878
RSVPLG03,si,20260416-153106,1.0.2,20260219-152011,823,Experiment,Both,1,Automatic,main,39,20260416-153442,local,global,300,S,S,E,A,E-S.png,S-A.png,sS,sS,mask-3.png,mask-4.png,s,1,0.5784395000664517,h,0,0.0469134000595659,0.049392699962481856,0.04954360006377101,0.10063819994684309,0.09865749999880791,0.3010427999543026
RSVPLG03,si,20260416-153106,1.0.2,20260219-152011,823,Experiment,Both,1,Automatic,main,40,20260416-153446,global,local,750,S,S,A,A,S-A.png,A-S.png,sS,sS,mask-2.png,mask-3.png,s,1,0.6336717999074608,s,1,0.11121760006062686,0.05059570004232228,0.04904549999628216,0.09955849999096245,0.09939669992309064,0.7514427000423893
RSVPLG03,si,20260416-153106,1.0.2,20260219-152011,823,Experiment,Both,1,Automatic,main,41,20260416-153451,global,global,300,H,H,E,E,H-E.png,H-E.png,hH,hH,mask-4.png,mask-1.png,h,1,0.3831318999873474,h,1,0.10559759999159724,0.050089299911633134,0.0501018000068143,0.09979429992381483,0.10100080003030598,0.30020459997467697
RSVPLG03,si,20260416-153106,1.0.2,20260219-152011,823,Experiment,Both,1,Automatic,main,42,20260416-153455,global,local,750,H,S,A,E,H-A.png,E-S.png,hH,sS,mask-1.png,mask-2.png,h,1,0.42849680001381785,s,1,0.030587899964302778,0.051053599920123816,0.04845689993817359,0.10022499994374812,0.10011759994085878,0.7516169999726117
RSVPLG03,si,20260416-153106,1.0.2,20260219-152011,823,Experiment,Both,1,Automatic,main,43,20260416-153500,local,local,750,S,S,E,A,E-S.png,A-S.png,sS,sS,mask-4.png,mask-2.png,s,1,0.7569325999356806,s,1,0.08383060002233833,0.04937999998219311,0.050095300073735416,0.10135530005209148,0.09974830003920943,0.7510371999815106
RSVPLG03,si,20260416-153106,1.0.2,20260219-152011,823,Experiment,Both,1,Automatic,main,44,20260416-153505,local,local,300,H,S,E,E,E-H.png,E-S.png,hH,sS,mask-4.png,mask-3.png,h,1,1.2482984999660403,s,1,0.010274000000208616,0.04931409994605929,0.04933339997660369,0.09934269997756928,0.09916420001536608,0.30019869992975146
RSVPLG03,si,20260416-153106,1.0.2,20260219-152011,823,Experiment,Both,1,Automatic,main,45,20260416-153510,global,global,750,S,S,E,A,S-E.png,S-A.png,sS,sS,mask-2.png,mask-4.png,s,1,0.34688810002990067,s,1,0.07184850005432963,0.04992020002100617,0.051935499999672174,0.09981389995664358,0.10281960002612323,0.7498587999725714
RSVPLG03,si,20260416-153106,1.0.2,20260219-152011,823,Experiment,Both,1,Automatic,main,46,20260416-153514,global,local,300,S,S,A,A,S-A.png,A-S.png,sS,sS,mask-4.png,mask-2.png,s,1,1.237217599991709,s,1,0.13679590006358922,0.048219499993138015,0.05078940000385046,0.10056569997686893,0.1009707999182865,0.2998300000326708
RSVPLG03,si,20260416-153106,1.0.2,20260219-152011,823,Experiment,Both,1,Automatic,main,47,20260416-153519,local,global,300,S,S,E,E,E-S.png,S-E.png,sS,sS,mask-2.png,mask-2.png,s,1,0.6645895000547171,h,0,6.520003080368042e-05,0.04910790000576526,0.04936279996763915,0.10065619996748865,0.09823479992337525,0.30088370002340525
RSVPLG03,si,20260416-153106,1.0.2,20260219-152011,823,Experiment,Both,1,Automatic,main,48,20260416-153524,global,local,300,S,H,A,E,S-A.png,E-H.png,sS,hH,mask-3.png,mask-2.png,s,1,0.6170550000388175,h,1,0.06675990007352084,0.05009719997178763,0.049640399985946715,0.09851209993939847,0.09967290004715323,0.2995287999510765
RSVPLG03,si,20260416-153106,1.0.2,20260219-152011,823,Experiment,Both,1,Automatic,main,49,20260416-153528,local,global,750,S,H,E,A,E-S.png,H-A.png,sS,hH,mask-3.png,mask-4.png,s,1,0.6580098000122234,h,1,0.9527980999555439,0.049248000024817884,0.05104579997714609,0.10025989997666329,0.10185079998336732,0.7502222000621259
RSVPLG03,si,20260416-153106,1.0.2,20260219-152011,823,Experiment,Both,1,Automatic,main,50,20260416-153534,global,global,750,S,S,A,A,S-A.png,S-A.png,sS,sS,mask-3.png,mask-1.png,s,1,0.5629808000521734,s,1,0.1314641999779269,0.05001439992338419,0.04984669992700219,0.10003779991529882,0.09974589990451932,0.7507177999941632
RSVPLG03,si,20260416-153106,1.0.2,20260219-152011,823,Experiment,Both,1,Automatic,main,51,20260416-153624,local,global,750,S,H,A,A,A-S.png,H-A.png,sS,hH,mask-4.png,mask-4.png,s,1,0.6361130999866873,s,0,0.09052940004039556,0.050345600000582635,0.05131629994139075,0.10025140002835542,0.10139769990928471,0.7484243001090363
RSVPLG03,si,20260416-153106,1.0.2,20260219-152011,823,Experiment,Both,1,Automatic,main,52,20260416-153629,local,global,300,H,S,E,E,E-H.png,S-E.png,hH,sS,mask-1.png,mask-4.png,h,1,0.40954439993947744,s,1,0.553402499994263,0.05001340003218502,0.05136449995916337,0.10121940006501973,0.09817479993216693,0.30121050006709993
RSVPLG03,si,20260416-153106,1.0.2,20260219-152011,823,Experiment,Both,1,Automatic,main,53,20260416-153633,local,local,750,H,S,A,E,A-H.png,E-S.png,hH,sS,mask-3.png,mask-3.png,h,1,0.4246511000674218,s,1,0.008403500076383352,0.051776799955405295,0.050763299921527505,0.10247979999985546,0.09964079991914332,0.7512244000099599
RSVPLG03,si,20260416-153106,1.0.2,20260219-152011,823,Experiment,Both,1,Automatic,main,54,20260416-153637,local,global,750,S,H,A,A,A-S.png,H-A.png,sS,hH,mask-4.png,mask-1.png,s,1,0.5283803000347689,s,0,0.08089590002782643,0.05036899994593114,0.049477600026875734,0.10057959996629506,0.10003039997536689,0.7508728000102565
RSVPLG03,si,20260416-153106,1.0.2,20260219-152011,823,Experiment,Both,1,Automatic,main,55,20260416-153642,global,global,300,S,S,E,A,S-E.png,S-A.png,sS,sS,mask-4.png,mask-1.png,s,1,0.4509495000820607,s,1,0.08171269996091723,0.04944700002670288,0.049422800075262785,0.09996530006173998,0.0997401000931859,0.2996234999736771
RSVPLG03,si,20260416-153106,1.0.2,20260219-152011,823,Experiment,Both,1,Automatic,main,56,20260416-153646,local,global,300,S,H,E,E,E-S.png,H-E.png,sS,hH,mask-2.png,mask-4.png,s,1,0.5095508999656886,h,1,0.07176399999298155,0.049975399975664914,0.05065290001221001,0.09877069992944598,0.09968740004114807,0.2988404999487102
RSVPLG03,si,20260416-153106,1.0.2,20260219-152011,823,Experiment,Both,1,Automatic,main,57,20260416-153651,global,global,750,S,H,E,E,S-E.png,H-E.png,sS,hH,mask-3.png,mask-4.png,s,1,1.0048300999915227,h,1,0.03229060000739992,0.04891519993543625,0.049880199949257076,0.0991217999253422,0.10048229992389679,0.7509034000104293
RSVPLG03,si,20260416-153106,1.0.2,20260219-152011,823,Experiment,Both,1,Automatic,main,58,20260416-153656,global,global,300,H,H,E,A,H-E.png,H-A.png,hH,hH,mask-4.png,mask-3.png,h,1,0.44900429993867874,h,1,0.07705989992246032,0.04891669994685799,0.048915899940766394,0.09871799999382347,0.09896879992447793,0.2993078000145033
RSVPLG03,si,20260416-153106,1.0.2,20260219-152011,823,Experiment,Both,1,Automatic,main,59,20260416-153700,global,local,300,S,S,A,A,S-A.png,A-S.png,sS,sS,mask-3.png,mask-2.png,s,1,0.523456700029783,h,0,0.0339051999617368,0.05068290000781417,0.04812579997815192,0.10065829998347908,0.09722559992223978,0.30273190001025796
RSVPLG03,si,20260416-153106,1.0.2,20260219-152011,823,Experiment,Both,1,Automatic,main,60,20260416-153705,local,local,300,H,H,E,A,E-H.png,A-H.png,hH,hH,mask-4.png,mask-1.png,h,1,0.38299760001245886,h,1,0.08085779997054487,0.05021629994735122,0.04995090002194047,0.10102489998098463,0.10065070004202425,0.30070339993108064
RSVPLG03,si,20260416-153106,1.0.2,20260219-152011,823,Experiment,Both,1,Automatic,main,61,20260416-153709,local,local,300,H,S,A,E,A-H.png,E-S.png,hH,sS,mask-4.png,mask-3.png,h,1,0.6455331000033766,h,0,0.08020119997672737,0.049544400069862604,0.04969290003646165,0.10014220001176,0.09951049997471273,0.2999648000113666
RSVPLG03,si,20260416-153106,1.0.2,20260219-152011,823,Experiment,Both,1,Automatic,main,62,20260416-153713,local,global,750,S,S,E,E,E-S.png,S-E.png,sS,sS,mask-3.png,mask-4.png,h,0,0.4370416000019759,s,1,0.0339513000799343,0.05132679990492761,0.04810959997121245,0.10072389990091324,0.0978455999866128,0.7529056000057608
RSVPLG03,si,20260416-153106,1.0.2,20260219-152011,823,Experiment,Both,1,Automatic,main,63,20260416-153718,local,global,750,H,H,E,E,E-H.png,H-E.png,hH,hH,mask-2.png,mask-4.png,h,1,1.0015097999712452,s,0,0.027371600037440658,0.05058210005518049,0.05061269993893802,0.10089700005482882,0.10135769995395094,0.7495326000498608
RSVPLG03,si,20260416-153106,1.0.2,20260219-152011,823,Experiment,Both,1,Automatic,main,64,20260416-153723,local,global,300,S,H,E,A,E-S.png,H-A.png,sS,hH,mask-1.png,mask-4.png,s,1,0.3853182999882847,h,1,0.01250630000140518,0.050434900098480284,0.04968000005465001,0.09979450004175305,0.09956480003893375,0.301338899997063
RSVPLG03,si,20260416-153106,1.0.2,20260219-152011,823,Experiment,Both,1,Automatic,main,65,20260416-153727,global,global,300,S,H,A,E,S-A.png,H-E.png,sS,hH,mask-4.png,mask-3.png,s,1,0.773334400029853,h,1,0.009163199923932552,0.04882920009549707,0.04994159995112568,0.09953230002429336,0.0999938000459224,0.29945060005411506
RSVPLG03,si,20260416-153106,1.0.2,20260219-152011,823,Experiment,Both,1,Automatic,main,66,20260416-153732,local,global,750,H,H,E,E,E-H.png,H-E.png,hH,hH,mask-1.png,mask-3.png,h,1,0.5631076999707147,s,0,0.0172831000527367,0.048741000005975366,0.05010659992694855,0.09965320001356304,0.10074509994592518,0.7480215000687167
RSVPLG03,si,20260416-153106,1.0.2,20260219-152011,823,Experiment,Both,1,Automatic,main,67,20260416-153736,local,global,300,S,S,A,A,A-S.png,S-A.png,sS,sS,mask-4.png,mask-1.png,s,1,0.5279256999492645,h,0,0.06260699999984354,0.04939060006290674,0.04985149996355176,0.09832810005173087,0.10030799999367446,0.29904549999628216
RSVPLG03,si,20260416-153106,1.0.2,20260219-152011,823,Experiment,Both,1,Automatic,main,68,20260416-153741,local,local,300,H,H,A,E,A-H.png,E-H.png,hH,hH,mask-1.png,mask-3.png,h,1,0.5304877000162378,h,1,0.09694900002796203,0.050547300023026764,0.04880360001698136,0.10081169998738915,0.09914289996959269,0.3011726000113413
RSVPLG03,si,20260416-153106,1.0.2,20260219-152011,823,Experiment,Both,1,Automatic,main,69,20260416-153745,global,global,300,S,S,E,A,S-E.png,S-A.png,sS,sS,mask-2.png,mask-1.png,s,1,0.4907859000377357,s,1,0.06411260005552322,0.048447799985297024,0.05066539999097586,0.0985103000421077,0.09999060002155602,0.2984392000362277
RSVPLG03,si,20260416-153106,1.0.2,20260219-152011,823,Experiment,Both,1,Automatic,main,70,20260416-153749,local,local,750,H,S,A,E,A-H.png,E-S.png,hH,sS,mask-1.png,mask-4.png,h,1,0.40271169994957745,s,1,0.0336443999549374,0.050243400037288666,0.05005259998142719,0.0999808000633493,0.1016986999893561,0.7503973999992013
RSVPLG03,si,20260416-153106,1.0.2,20260219-152011,823,Experiment,Both,1,Automatic,main,71,20260416-153754,global,local,750,H,H,A,A,H-A.png,A-H.png,hH,hH,mask-3.png,mask-3.png,h,1,1.0638220000546426,h,1,0.07349890004843473,0.04891050001606345,0.04871050000656396,0.0998684000223875,0.09977420000359416,0.7502274999860674
RSVPLG03,si,20260416-153106,1.0.2,20260219-152011,823,Experiment,Both,1,Automatic,main,72,20260416-153759,local,local,300,H,H,E,E,E-H.png,E-H.png,hH,hH,mask-1.png,mask-2.png,h,1,0.49668890004977584,h,1,0.09758189995773137,0.05054889991879463,0.05072669999208301,0.10019999998621643,0.10051639995072037,0.2995191999943927
RSVPLG03,si,20260416-153106,1.0.2,20260219-152011,823,Experiment,Both,1,Automatic,main,73,20260416-153803,local,local,750,S,S,E,A,E-S.png,A-S.png,sS,sS,mask-1.png,mask-3.png,s,1,0.44478530006017536,s,1,0.08624249999411404,0.05018669995479286,0.05014199996367097,0.10054200002923608,0.10182169999461621,0.7497893000254408
RSVPLG03,si,20260416-153106,1.0.2,20260219-152011,823,Experiment,Both,1,Automatic,main,74,20260416-153808,global,global,300,H,S,E,A,H-E.png,S-A.png,hH,sS,mask-1.png,mask-4.png,h,1,0.4386452999897301,s,1,0.008331699995324016,0.050807900028303266,0.05002869991585612,0.10092070000246167,0.10029949992895126,0.3000865000067279
RSVPLG03,si,20260416-153106,1.0.2,20260219-152011,823,Experiment,Both,1,Automatic,main,75,20260416-153812,global,global,750,H,S,A,E,H-A.png,S-E.png,hH,sS,mask-4.png,mask-2.png,h,1,0.6399639000883326,s,1,0.02520350005943328,0.051275999983772635,0.05022949993144721,0.10119650000706315,0.09984039992559701,0.750812100013718
RSVPLG03,si,20260416-153106,1.0.2,20260219-152011,823,Experiment,Both,1,Automatic,main,76,20260416-153822,global,local,300,S,S,E,E,S-E.png,E-S.png,sS,sS,mask-2.png,mask-4.png,s,1,0.6264099999098107,h,0,0.017682800069451332,0.048650900018401444,0.050390400108881295,0.09818880003876984,0.0993543000658974,0.30015859997365624
RSVPLG03,si,20260416-153106,1.0.2,20260219-152011,823,Experiment,Both,1,Automatic,main,77,20260416-153826,global,global,300,H,H,E,E,H-E.png,H-E.png,hH,hH,mask-3.png,mask-4.png,h,1,0.29551359999459237,h,1,0.08823909994680434,0.04946230002678931,0.04924419999588281,0.09859940002206713,0.09852969995699823,0.3007137000095099
RSVPLG03,si,20260416-153106,1.0.2,20260219-152011,823,Experiment,Both,1,Automatic,main,78,20260416-153831,local,global,750,H,S,A,E,A-H.png,S-E.png,hH,sS,mask-2.png,mask-4.png,h,1,1.0717464999761432,h,0,0.08755810000002384,0.049981200019828975,0.050109899952076375,0.09979370003566146,0.1009036999894306,0.7502971000503749
RSVPLG03,si,20260416-153106,1.0.2,20260219-152011,823,Experiment,Both,1,Automatic,main,79,20260416-153836,global,local,300,H,S,A,E,H-A.png,E-S.png,hH,sS,mask-3.png,mask-4.png,h,1,0.8167973000090569,s,1,0.0028180000372231007,0.05018050002399832,0.049395999987609684,0.10005859995726496,0.09798169997520745,0.3015962999779731
RSVPLG03,si,20260416-153106,1.0.2,20260219-152011,823,Experiment,Both,1,Automatic,main,80,20260416-153840,local,global,750,S,H,A,E,A-S.png,H-E.png,sS,hH,mask-1.png,mask-3.png,s,1,0.8215368000091985,s,0,0.07486419996712357,0.04947169998195022,0.04984799993690103,0.09933050000108778,0.09873500000685453,0.7513338000280783
RSVPLG03,si,20260416-153106,1.0.2,20260219-152011,823,Experiment,Both,1,Automatic,main,81,20260416-153845,local,global,750,H,H,E,A,E-H.png,H-A.png,hH,hH,mask-1.png,mask-3.png,h,1,0.8881776999915019,s,0,0.0033612000988796353,0.05021749995648861,0.05008030007593334,0.10054339992348105,0.09928429999854416,0.7513533999444917
RSVPLG03,si,20260416-153106,1.0.2,20260219-152011,823,Experiment,Both,1,Automatic,main,82,20260416-153851,global,local,300,S,H,A,E,S-A.png,E-H.png,sS,hH,mask-3.png,mask-1.png,s,1,2.6422947000246495,h,1,2.785487200017087,0.04978790006134659,0.047232499928213656,0.0998070000205189,0.09749720001127571,0.3012285000877455
RSVPLG03,si,20260416-153106,1.0.2,20260219-152011,823,Experiment,Both,1,Automatic,main,83,20260416-153857,local,local,300,H,H,A,A,A-H.png,A-H.png,hH,hH,mask-3.png,mask-3.png,h,1,1.0051242000190541,h,1,0.11328669998329133,0.05262189998757094,0.05025930004194379,0.10096309997607023,0.09992599999532104,0.30164580000564456
RSVPLG03,si,20260416-153106,1.0.2,20260219-152011,823,Experiment,Both,1,Automatic,main,84,20260416-153902,global,local,300,H,S,E,A,H-E.png,A-S.png,hH,sS,mask-4.png,mask-4.png,h,1,0.6914539000717923,s,1,0.861564299906604,0.05050919996574521,0.05009459995198995,0.09999140002764761,0.10067169996909797,0.29891090001910925
RSVPLG03,si,20260416-153106,1.0.2,20260219-152011,823,Experiment,Both,1,Automatic,main,85,20260416-153907,global,local,750,S,S,E,A,S-E.png,A-S.png,sS,sS,mask-1.png,mask-3.png,s,1,0.38668300001882017,s,1,0.10462510003708303,0.05035209993366152,0.051538300001993775,0.09864300000481308,0.10053479997441173,0.7502131999935955
RSVPLG03,si,20260416-153106,1.0.2,20260219-152011,823,Experiment,Both,1,Automatic,main,86,20260416-153912,global,local,750,S,S,E,E,S-E.png,E-S.png,sS,sS,mask-3.png,mask-1.png,s,1,0.4464675000635907,s,1,0.09813870000652969,0.050887900055386126,0.05105869995895773,0.09892849996685982,0.0994213999947533,0.7500338000245392
RSVPLG03,si,20260416-153106,1.0.2,20260219-152011,823,Experiment,Both,1,Automatic,main,87,20260416-153916,local,local,300,H,S,E,A,E-H.png,A-S.png,hH,sS,mask-4.png,mask-3.png,h,1,0.6731784000294283,s,1,0.056575900060124695,0.0485560999950394,0.05188000004272908,0.10051079990807921,0.101025800104253,0.2984221999067813
RSVPLG03,si,20260416-153106,1.0.2,20260219-152011,823,Experiment,Both,1,Automatic,main,88,20260416-153921,local,local,300,H,S,E,E,E-H.png,E-S.png,hH,sS,mask-1.png,mask-1.png,h,1,0.7809033999219537,h,0,0.08069329999852926,0.05144150007981807,0.04898039996623993,0.10024890000931919,0.09890219999942929,0.30125490005593747
RSVPLG03,si,20260416-153106,1.0.2,20260219-152011,823,Experiment,Both,1,Automatic,main,89,20260416-153925,local,local,750,S,S,A,E,A-S.png,E-S.png,sS,sS,mask-1.png,mask-2.png,s,1,0.3769512000726536,h,0,0.04164750000927597,0.04778949997853488,0.04968369996640831,0.0987125999527052,0.1000472999876365,0.7488382000010461
RSVPLG03,si,20260416-153106,1.0.2,20260219-152011,823,Experiment,Both,1,Automatic,main,90,20260416-153930,local,global,300,H,H,E,E,E-H.png,H-E.png,hH,hH,mask-1.png,mask-3.png,h,1,1.6730044999858364,h,1,0.08461969997733831,0.05054059997200966,0.05073889996856451,0.10088249994441867,0.09947749995626509,0.2996948000509292
RSVPLG03,si,20260416-153106,1.0.2,20260219-152011,823,Experiment,Both,1,Automatic,main,91,20260416-153935,global,local,300,S,H,A,A,S-A.png,A-H.png,sS,hH,mask-2.png,mask-3.png,s,1,1.6357130999676883,s,0,0.08950859995093197,0.05017020006198436,0.04997050005476922,0.09912400005850941,0.10004020004998893,0.300148900016211
RSVPLG03,si,20260416-153106,1.0.2,20260219-152011,823,Experiment,Both,1,Automatic,main,92,20260416-153941,local,global,300,S,H,E,A,E-S.png,H-A.png,sS,hH,mask-1.png,mask-4.png,s,1,1.1288180000847206,h,1,0.5024480000138283,0.05114820005837828,0.052132700104266405,0.10026340000331402,0.10169860010500997,0.3000637999502942
RSVPLG03,si,20260416-153106,1.0.2,20260219-152011,823,Experiment,Both,1,Automatic,main,93,20260416-153946,global,local,300,H,H,A,E,H-A.png,E-H.png,hH,hH,mask-4.png,mask-2.png,s,0,1.0356595000484958,s,0,0.05911289993673563,0.048570599989034235,0.050659800064750016,0.0979698000010103,0.10057230002712458,0.29786829999648035
RSVPLG03,si,20260416-153106,1.0.2,20260219-152011,823,Experiment,Both,1,Automatic,main,94,20260416-153951,global,local,750,H,S,A,A,H-A.png,A-S.png,hH,sS,mask-3.png,mask-4.png,h,1,0.45285639993380755,h,0,0.07768520002719015,0.0500940999481827,0.0501995999366045,0.09947579994332045,0.1004141999874264,0.7505967000033706
RSVPLG03,si,20260416-153106,1.0.2,20260219-152011,823,Experiment,Both,1,Automatic,main,95,20260416-153956,global,local,300,S,S,A,A,S-A.png,A-S.png,sS,sS,mask-4.png,mask-4.png,s,1,1.2123494000406936,h,0,0.038066099979914725,0.04948869999498129,0.05046509997919202,0.10186840000096709,0.099943200009875,0.29954819998238236
RSVPLG03,si,20260416-153106,1.0.2,20260219-152011,823,Experiment,Both,1,Automatic,main,96,20260416-154001,local,local,750,S,S,E,E,E-S.png,E-S.png,sS,sS,mask-3.png,mask-2.png,s,1,0.7008777000010014,s,1,0.06492010003421456,0.04968699999153614,0.04943090002052486,0.09905499999877065,0.0986900000134483,0.7504567999858409
RSVPLG03,si,20260416-153106,1.0.2,20260219-152011,823,Experiment,Both,1,Automatic,main,97,20260416-154006,local,global,300,H,H,A,A,A-H.png,H-A.png,hH,hH,mask-2.png,mask-3.png,s,0,1.1178872999735177,h,1,0.022090399987064302,0.045891699963249266,0.05056480003986508,0.09808459994383156,0.10157649999018759,0.2958878999343142
RSVPLG03,si,20260416-153106,1.0.2,20260219-152011,823,Experiment,Both,1,Automatic,main,98,20260416-154010,global,local,300,S,H,E,A,S-E.png,A-H.png,sS,hH,mask-3.png,mask-3.png,s,1,0.39092819998040795,h,1,0.038938599987886846,0.04821569996420294,0.049812500015832484,0.09941120003350079,0.0999428000068292,0.3000097000040114
RSVPLG03,si,20260416-153106,1.0.2,20260219-152011,823,Experiment,Both,1,Automatic,main,99,20260416-154015,global,global,750,H,S,A,E,H-A.png,S-E.png,hH,sS,mask-4.png,mask-3.png,h,1,0.3959664999274537,s,1,0.006553400075063109,0.04917770007159561,0.05091799993533641,0.09975080005824566,0.10140179994050413,0.7501465000677854
RSVPLG03,si,20260416-153106,1.0.2,20260219-152011,823,Experiment,Both,1,Automatic,main,100,20260416-154019,local,local,300,S,S,A,A,A-S.png,A-S.png,sS,sS,mask-2.png,mask-1.png,s,1,0.7190532999811694,s,1,0.6248121000826359,0.04994019994046539,0.05130329995881766,0.10132909996900707,0.0999944000504911,0.2996507999487221
