exp,exp_initials,runtime,ver,modtime,sub,blocktype,targets,cuetype,mode,trialtype,trial,trialtime,t1_level,t2_level,t2_lag,t1,t2,distractor1,distractor2,stimfile1,stimfile2,t1_corr,t2_corr,maskfile1,maskfile2,t1_resp,t1_acc,t1_rt,t2_resp,t2_acc,t2_rt,t1_dur,t2_dur,t1mask_soa,t2mask_soa,t1t2_soa
RSVPLG03,sg,20260310-130308,1.0.2,20251105-084826,798,Introduction,T1,1,Automatic,main,1,20260310-130540,local,global,750,H,H,A,E,A-H.png,H-E.png,hH,hH,mask-2.png,mask-4.png,h,1,2.043607300147414,none,-5,0,0.09007729985751212,0.09646879998035729,0.19206569995731115,0.19942369987256825,0.7428407999686897
RSVPLG03,sg,20260310-130308,1.0.2,20251105-084826,798,Introduction,T1,1,Automatic,main,2,20260310-130546,global,global,750,H,S,A,E,H-A.png,S-E.png,hH,sS,mask-1.png,mask-4.png,s,0,1.7232045999262482,none,-5,0,0.09661419992335141,0.09822489996440709,0.19965949980542064,0.1989761998411268,0.7501177999656647
RSVPLG03,sg,20260310-130308,1.0.2,20251105-084826,798,Introduction,T1,1,Automatic,main,3,20260310-130552,local,global,750,S,S,E,E,E-S.png,S-E.png,sS,sS,mask-4.png,mask-4.png,s,1,1.3425523999612778,none,-5,0,0.09965789993293583,0.09723880002275109,0.20085999998264015,0.2001329001504928,0.7502371999435127
RSVPLG03,sg,20260310-130308,1.0.2,20251105-084826,798,Introduction,T1,1,Automatic,main,4,20260310-130558,global,global,750,H,S,E,A,H-E.png,S-A.png,hH,sS,mask-1.png,mask-3.png,h,1,1.1450002000201494,none,-5,0,0.09791240002959967,0.09738059993833303,0.20088399993255734,0.19927589991129935,0.7500718000810593
RSVPLG03,sg,20260310-130308,1.0.2,20251105-084826,798,Introduction,T1,1,Automatic,main,5,20260310-130603,local,global,750,S,H,E,A,E-S.png,H-A.png,sS,hH,mask-4.png,mask-1.png,s,1,0.6533874000888318,none,-5,0,0.09746049996465445,0.09698379994370043,0.2004297999665141,0.1999236000701785,0.7494514998979867
RSVPLG03,sg,20260310-130308,1.0.2,20251105-084826,798,Introduction,T1,1,Automatic,main,6,20260310-130608,local,local,750,H,S,A,A,A-H.png,A-S.png,hH,sS,mask-2.png,mask-4.png,s,0,0.565015200059861,none,-5,0,0.09878019988536835,0.09753599995747209,0.2006858999375254,0.20065809995867312,0.7505510000046343
RSVPLG03,sg,20260310-130308,1.0.2,20251105-084826,798,Introduction,T1,1,Automatic,main,7,20260310-130613,global,global,750,H,H,E,E,H-E.png,H-E.png,hH,hH,mask-4.png,mask-3.png,h,1,0.4651204999536276,none,-5,0,0.09588939999230206,0.09851250005885959,0.19885569997131824,0.20092669990845025,0.7487129999790341
RSVPLG03,sg,20260310-130308,1.0.2,20251105-084826,798,Introduction,T1,1,Automatic,main,8,20260310-130618,global,local,750,S,H,A,A,S-A.png,A-H.png,sS,hH,mask-4.png,mask-1.png,s,1,0.42115699988789856,none,-5,0,0.09664770006202161,0.09736939985305071,0.19984970008954406,0.19834119989536703,0.7502143001183867
RSVPLG03,sg,20260310-130308,1.0.2,20251105-084826,798,Introduction,T1,1,Automatic,main,9,20260310-130622,global,global,750,H,H,E,A,H-E.png,H-A.png,hH,hH,mask-2.png,mask-3.png,h,1,0.9154366001021117,none,-5,0,0.09841510001569986,0.09783970005810261,0.19838300021365285,0.19912370014935732,0.7493763000238687
RSVPLG03,sg,20260310-130308,1.0.2,20251105-084826,798,Introduction,T1,1,Automatic,main,10,20260310-130627,global,local,750,H,S,E,A,H-E.png,A-S.png,hH,sS,mask-4.png,mask-1.png,h,1,0.8284936998970807,none,-5,0,0.09841139987111092,0.09740200010128319,0.20019879983738065,0.2002559001557529,0.7499070998746902
RSVPLG03,sg,20260310-130308,1.0.2,20251105-084826,798,Introduction,T1,1,Automatic,main,11,20260310-130632,local,local,750,H,S,E,A,E-H.png,A-S.png,hH,sS,mask-3.png,mask-1.png,s,0,0.8398301000706851,none,-5,0,0.09852949995547533,0.09731450001709163,0.20057069999165833,0.19920959998853505,0.7507044000085443
RSVPLG03,sg,20260310-130308,1.0.2,20251105-084826,798,Introduction,T1,1,Automatic,main,12,20260310-130637,local,local,750,H,H,E,A,E-H.png,A-H.png,hH,hH,mask-2.png,mask-1.png,h,1,0.6242333999834955,none,-5,0,0.09753619995899498,0.09781170007772744,0.19862409983761609,0.1997512001544237,0.7485081998165697
RSVPLG03,sg,20260310-130308,1.0.2,20251105-084826,798,Introduction,T1,1,Automatic,main,13,20260310-130642,global,local,750,S,S,E,E,S-E.png,E-S.png,sS,sS,mask-4.png,mask-4.png,s,1,0.4521159001160413,none,-5,0,0.09698320017196238,0.0975612998008728,0.19936870015226305,0.19985239999368787,0.7503904001787305
RSVPLG03,sg,20260310-130308,1.0.2,20251105-084826,798,Introduction,T1,1,Automatic,main,14,20260310-130647,local,global,750,H,S,A,E,A-H.png,S-E.png,hH,sS,mask-3.png,mask-3.png,h,1,2.1253891999367625,none,-5,0,0.09617809997871518,0.0967212999239564,0.2002405000384897,0.19981199991889298,0.749169500079006
RSVPLG03,sg,20260310-130308,1.0.2,20251105-084826,798,Introduction,T1,1,Automatic,main,15,20260310-130653,local,local,750,S,S,A,A,A-S.png,A-S.png,sS,sS,mask-2.png,mask-4.png,s,1,0.4935470998752862,none,-5,0,0.0971843998413533,0.09785400005057454,0.19795629987493157,0.19991480000317097,0.7484006998129189
RSVPLG03,sg,20260310-130308,1.0.2,20251105-084826,798,Introduction,T1,1,Automatic,main,16,20260310-130658,global,local,750,H,H,A,A,H-A.png,A-H.png,hH,hH,mask-4.png,mask-4.png,h,1,0.38181610009633005,none,-5,0,0.09744519996456802,0.09852200001478195,0.2002250999212265,0.19989849999547005,0.7490936000831425
RSVPLG03,sg,20260310-130715,1.0.2,20251105-084826,798,Practice,T1,1,Automatic,main,1,20260310-130734,local,global,750,H,H,A,E,A-H.png,H-E.png,hH,hH,mask-3.png,mask-1.png,h,1,0.9408078000415117,none,-5,0,0.041073499945923686,0.04772530007176101,0.0924238997977227,0.09998199995607138,0.7420754998456687
RSVPLG03,sg,20260310-130715,1.0.2,20251105-084826,798,Practice,T1,1,Automatic,main,2,20260310-130739,local,global,300,H,H,A,A,A-H.png,H-A.png,hH,hH,mask-1.png,mask-3.png,h,1,0.5163344000466168,none,-5,0,0.04646750004030764,0.04539950005710125,0.09821550012566149,0.09915100014768541,0.30035219993442297
RSVPLG03,sg,20260310-130715,1.0.2,20251105-084826,798,Practice,T1,1,Automatic,main,3,20260310-130743,global,local,750,H,H,A,A,H-A.png,A-H.png,hH,hH,mask-4.png,mask-3.png,h,1,0.4629599000327289,none,-5,0,0.04667040007188916,0.0476777998264879,0.09985800017602742,0.10089150001294911,0.7494716001674533
RSVPLG03,sg,20260310-130715,1.0.2,20251105-084826,798,Practice,T1,1,Automatic,main,4,20260310-130748,local,global,300,S,S,E,A,E-S.png,S-A.png,sS,sS,mask-3.png,mask-3.png,s,1,0.44870830001309514,none,-5,0,0.047750200144946575,0.04750540014356375,0.09989910013973713,0.0995338000357151,0.30009989999234676
RSVPLG03,sg,20260310-130715,1.0.2,20251105-084826,798,Practice,T1,1,Automatic,main,5,20260310-130752,global,global,750,H,H,A,A,H-A.png,H-A.png,hH,hH,mask-3.png,mask-3.png,h,1,0.34681779984384775,none,-5,0,0.047545199980959296,0.047493499936535954,0.0985806998796761,0.09955249982886016,0.7491248000878841
RSVPLG03,sg,20260310-130715,1.0.2,20251105-084826,798,Practice,T1,1,Automatic,main,6,20260310-130756,local,local,750,H,H,A,E,A-H.png,E-H.png,hH,hH,mask-1.png,mask-2.png,h,1,0.3804711000993848,none,-5,0,0.046655899845063686,0.04734169994480908,0.10060219978913665,0.10036639985628426,0.7493491999339312
RSVPLG03,sg,20260310-130715,1.0.2,20251105-084826,798,Practice,T1,1,Automatic,main,7,20260310-130801,global,local,300,S,S,E,E,S-E.png,E-S.png,sS,sS,mask-2.png,mask-3.png,s,1,0.35186870000325143,none,-5,0,0.04759309999644756,0.04751970013603568,0.09962320001795888,0.09942600014619529,0.29994049994274974
RSVPLG03,sg,20260310-130715,1.0.2,20251105-084826,798,Practice,T1,1,Automatic,main,8,20260310-130805,global,global,300,S,S,E,A,S-E.png,S-A.png,sS,sS,mask-3.png,mask-1.png,s,1,0.3899108001496643,none,-5,0,0.049490299774333835,0.04673689999617636,0.10051749995909631,0.1001330001745373,0.3004122998099774
RSVPLG03,sg,20260310-130715,1.0.2,20251105-084826,798,Practice,T1,1,Automatic,main,9,20260310-130809,local,local,300,S,H,E,E,E-S.png,E-H.png,sS,hH,mask-3.png,mask-3.png,s,1,0.5973269999958575,none,-5,0,0.04766619997099042,0.04735159990377724,0.09958230005577207,0.09926189994439483,0.30068420013412833
RSVPLG03,sg,20260310-130715,1.0.2,20251105-084826,798,Practice,T1,1,Automatic,main,10,20260310-130813,local,local,750,H,H,A,A,A-H.png,A-H.png,hH,hH,mask-3.png,mask-3.png,h,1,0.38871020008809865,none,-5,0,0.04656980000436306,0.047518900129944086,0.09885519999079406,0.10154150007292628,0.7486574999056756
RSVPLG03,sg,20260310-130715,1.0.2,20251105-084826,798,Practice,T1,1,Automatic,main,11,20260310-130817,global,global,750,H,S,A,E,H-A.png,S-E.png,hH,sS,mask-2.png,mask-3.png,s,0,0.76659270003438,none,-5,0,0.04777140007354319,0.04881439986638725,0.09998519998043776,0.1010408999864012,0.7489136999938637
RSVPLG03,sg,20260310-130715,1.0.2,20251105-084826,798,Practice,T1,1,Automatic,main,12,20260310-130822,global,local,300,S,H,A,A,S-A.png,A-H.png,sS,hH,mask-2.png,mask-2.png,s,1,0.476482099853456,none,-5,0,0.047253600088879466,0.04661530000157654,0.09937920002266765,0.09774870006367564,0.30060720001347363
RSVPLG03,sg,20260310-130715,1.0.2,20251105-084826,798,Practice,T1,1,Automatic,main,13,20260310-130826,local,global,750,S,S,A,E,A-S.png,S-E.png,sS,sS,mask-4.png,mask-4.png,s,1,0.5254219002090394,none,-5,0,0.04574440000578761,0.04715949995443225,0.09809720003977418,0.10137369995936751,0.7478708999697119
RSVPLG03,sg,20260310-130715,1.0.2,20251105-084826,798,Practice,T1,1,Automatic,main,14,20260310-130831,global,global,300,S,H,E,A,S-E.png,H-A.png,sS,hH,mask-3.png,mask-2.png,s,1,0.6030598999932408,none,-5,0,0.04567029979079962,0.04867479996755719,0.09984379983507097,0.1008583998773247,0.2984637999907136
RSVPLG03,sg,20260310-130715,1.0.2,20251105-084826,798,Practice,T1,1,Automatic,main,15,20260310-130835,local,local,300,S,S,E,E,E-S.png,E-S.png,sS,sS,mask-2.png,mask-3.png,s,1,0.6145953999366611,none,-5,0,0.04559669992886484,0.04851370002143085,0.09846919984556735,0.10051649995148182,0.2981534998398274
RSVPLG03,sg,20260310-130715,1.0.2,20251105-084826,798,Practice,T1,1,Automatic,main,16,20260310-130839,global,local,750,S,S,A,E,S-A.png,E-S.png,sS,sS,mask-4.png,mask-2.png,s,1,0.4853370999917388,none,-5,0,0.04756979993544519,0.04656219994649291,0.1008622997906059,0.098572300048545,0.7510100998915732
RSVPLG03,sg,20260310-131026,1.0.2,20251105-084826,798,Introduction,Both,1,Automatic,main,1,20260310-131046,local,global,750,H,H,A,E,A-H.png,H-E.png,hH,hH,mask-4.png,mask-3.png,h,1,0.8239172000903636,s,0,3.740040000062436,0.08944760006852448,0.09851579996757209,0.19176060007885098,0.20006579998880625,0.7420538000296801
RSVPLG03,sg,20260310-131026,1.0.2,20251105-084826,798,Introduction,Both,1,Automatic,main,2,20260310-131055,global,global,750,S,S,E,A,S-E.png,S-A.png,sS,sS,mask-2.png,mask-1.png,s,1,1.6722033999394625,s,1,1.9014622999820858,0.0963862999342382,0.09622019995003939,0.20029870001599193,0.2000866001471877,0.7504575999919325
RSVPLG03,sg,20260310-131026,1.0.2,20251105-084826,798,Introduction,Both,1,Automatic,main,3,20260310-131103,global,local,750,H,H,A,A,H-A.png,A-H.png,hH,hH,mask-4.png,mask-4.png,h,1,0.8901492999866605,h,1,1.2542455000802875,0.09737049997784197,0.09837279981002212,0.20021990011446178,0.20028509991243482,0.7497686001006514
RSVPLG03,sg,20260310-131026,1.0.2,20251105-084826,798,Introduction,Both,1,Automatic,main,4,20260310-131110,local,global,750,S,H,A,E,A-S.png,H-E.png,sS,hH,mask-2.png,mask-4.png,s,1,2.4352339000906795,h,1,0.6136643998324871,0.09639189997687936,0.09843580005690455,0.1990161999128759,0.20133460010401905,0.7490407999139279
RSVPLG03,sg,20260310-131026,1.0.2,20251105-084826,798,Introduction,Both,1,Automatic,main,5,20260310-131117,local,local,750,H,H,A,A,A-H.png,A-H.png,hH,hH,mask-2.png,mask-4.png,h,1,0.8312888001091778,h,1,0.3424176999833435,0.0975445001386106,0.0974055000115186,0.20021990011446178,0.20018080016598105,0.7522118999622762
RSVPLG03,sg,20260310-131026,1.0.2,20251105-084826,798,Introduction,Both,1,Automatic,main,6,20260310-131123,local,local,750,H,H,A,E,A-H.png,E-H.png,hH,hH,mask-2.png,mask-1.png,h,1,0.7131791999563575,h,1,0.27383930003270507,0.0975807998329401,0.09869019989855587,0.19863249990157783,0.1999276999849826,0.7493290000129491
RSVPLG03,sg,20260310-131026,1.0.2,20251105-084826,798,Introduction,Both,1,Automatic,main,7,20260310-131128,local,local,750,H,S,A,A,A-H.png,A-S.png,hH,sS,mask-4.png,mask-3.png,h,1,0.6169217000715435,h,0,0.2751676000189036,0.09755580010823905,0.09655719995498657,0.1995761999860406,0.19960359996184707,0.7505969000048935
RSVPLG03,sg,20260310-131026,1.0.2,20251105-084826,798,Introduction,Both,1,Automatic,main,8,20260310-131133,global,global,750,S,H,A,E,S-A.png,H-E.png,sS,hH,mask-3.png,mask-3.png,s,1,2.05241210013628,h,1,0.2151969000697136,0.09745320002548397,0.09752309997566044,0.20024270005524158,0.19955889997072518,0.7503742000553757
RSVPLG03,sg,20260310-131026,1.0.2,20251105-084826,798,Introduction,Both,1,Automatic,main,9,20260310-131140,global,local,750,H,H,A,A,H-A.png,A-H.png,hH,hH,mask-1.png,mask-1.png,h,1,0.6328547999728471,h,1,0.2346453000791371,0.09748039999976754,0.0971481001470238,0.1993398000486195,0.20006579998880625,0.7504978999495506
RSVPLG03,sg,20260310-131026,1.0.2,20251105-084826,798,Introduction,Both,1,Automatic,main,10,20260310-131145,local,global,750,S,S,E,A,E-S.png,S-A.png,sS,sS,mask-2.png,mask-4.png,s,1,1.6459268000908196,s,1,0.16446619993075728,0.0974819001276046,0.09739740006625652,0.19917910010553896,0.20024839998222888,0.7499939000699669
RSVPLG03,sg,20260310-131026,1.0.2,20251105-084826,798,Introduction,Both,1,Automatic,main,11,20260310-131151,global,global,750,H,H,A,E,H-A.png,H-E.png,hH,hH,mask-1.png,mask-2.png,h,1,0.6017826998140663,h,1,0.2025417999830097,0.09736290015280247,0.09835310000926256,0.19875340000726283,0.20021230005659163,0.7495333000551909
RSVPLG03,sg,20260310-131026,1.0.2,20251105-084826,798,Introduction,Both,1,Automatic,main,12,20260310-131156,local,local,750,H,S,E,A,E-H.png,A-S.png,hH,sS,mask-4.png,mask-4.png,h,1,0.7473139001522213,s,1,0.20181130012497306,0.09558630012907088,0.09740329999476671,0.19958080002106726,0.19884730014018714,0.7500748999882489
RSVPLG03,sg,20260310-131026,1.0.2,20251105-084826,798,Introduction,Both,1,Automatic,main,13,20260310-131201,global,global,750,S,H,A,E,S-A.png,H-E.png,sS,hH,mask-3.png,mask-2.png,s,1,1.4707969999872148,h,1,0.10459840018302202,0.09741839999333024,0.09748429991304874,0.2003326998092234,0.20054930006153882,0.7500342999119312
RSVPLG03,sg,20260310-131026,1.0.2,20251105-084826,798,Introduction,Both,1,Automatic,main,14,20260310-131207,local,global,750,H,S,E,A,E-H.png,S-A.png,hH,sS,mask-1.png,mask-4.png,h,1,0.7322901000734419,s,1,0.02925870008766651,0.09740029997192323,0.09853539988398552,0.19913149997591972,0.20046869991347194,0.7487240000627935
RSVPLG03,sg,20260310-131026,1.0.2,20251105-084826,798,Introduction,Both,1,Automatic,main,15,20260310-131212,global,local,750,S,H,E,E,S-E.png,E-H.png,sS,hH,mask-1.png,mask-3.png,s,1,0.5667900000698864,s,0,0.12151849991641939,0.09847510000690818,0.09739549993537366,0.19958969997242093,0.20027639996260405,0.7508352000731975
RSVPLG03,sg,20260310-131026,1.0.2,20251105-084826,798,Introduction,Both,1,Automatic,main,16,20260310-131217,global,local,750,S,S,A,A,S-A.png,A-S.png,sS,sS,mask-4.png,mask-3.png,s,1,0.5424961999524385,s,1,0.2686455000657588,0.09736509993672371,0.09837679984048009,0.1995402998290956,0.2002480998635292,0.7512342999689281
RSVPLG03,sg,20260310-131236,1.0.2,20251105-084826,798,Practice,Both,1,Automatic,main,1,20260310-131317,global,local,750,H,H,E,E,H-E.png,E-H.png,hH,hH,mask-4.png,mask-3.png,h,1,1.2841163999401033,s,0,0.06056979997083545,0.04061720008030534,0.045851599890738726,0.0936875999905169,0.09995729988440871,0.7441073001828045
RSVPLG03,sg,20260310-131236,1.0.2,20251105-084826,798,Practice,Both,1,Automatic,main,2,20260310-131322,local,global,750,S,S,A,E,A-S.png,S-E.png,sS,sS,mask-4.png,mask-1.png,s,1,1.0254563000053167,h,0,0.08829619991593063,0.048122000182047486,0.04770490014925599,0.09996620006859303,0.09953140001744032,0.7504634000360966
RSVPLG03,sg,20260310-131236,1.0.2,20251105-084826,798,Practice,Both,1,Automatic,main,3,20260310-131327,local,local,750,S,H,A,A,A-S.png,A-H.png,sS,hH,mask-3.png,mask-3.png,s,1,0.8277503999415785,h,1,0.07735579996369779,0.04679640009999275,0.046555900014936924,0.09992439998313785,0.09962110011838377,0.7512713000178337
RSVPLG03,sg,20260310-131236,1.0.2,20251105-084826,798,Practice,Both,1,Automatic,main,4,20260310-131332,local,global,750,S,S,E,A,E-S.png,S-A.png,sS,sS,mask-2.png,mask-3.png,s,1,0.6990971998311579,s,1,0.32587440009228885,0.04651180002838373,0.047518800012767315,0.09858260001055896,0.09952160017564893,0.7507827999070287
RSVPLG03,sg,20260310-131236,1.0.2,20251105-084826,798,Practice,Both,1,Automatic,main,5,20260310-131338,local,global,300,H,H,E,A,E-H.png,H-A.png,hH,hH,mask-2.png,mask-2.png,h,1,0.8406814001500607,h,1,0.08208639989607036,0.04650719999335706,0.04846490011550486,0.09981829999014735,0.10131260007619858,0.299113999819383
RSVPLG03,sg,20260310-131236,1.0.2,20251105-084826,798,Practice,Both,1,Automatic,main,6,20260310-131342,global,global,300,H,S,E,A,H-E.png,S-A.png,hH,sS,mask-3.png,mask-2.png,s,0,0.6673317002132535,h,0,0.922095499932766,0.048729800153523684,0.04771159985102713,0.10191390011459589,0.0987635999917984,0.3018577001057565
RSVPLG03,sg,20260310-131236,1.0.2,20251105-084826,798,Practice,Both,1,Automatic,main,7,20260310-131348,local,local,300,S,S,A,A,A-S.png,A-S.png,sS,sS,mask-2.png,mask-1.png,s,1,0.7777388000395149,s,1,0.6476793000474572,0.046464100014418364,0.04748109984211624,0.10055209998972714,0.1003904000390321,0.298925600014627
RSVPLG03,sg,20260310-131236,1.0.2,20251105-084826,798,Practice,Both,1,Automatic,main,8,20260310-131353,global,local,300,H,H,E,A,H-E.png,A-H.png,hH,hH,mask-2.png,mask-1.png,h,1,0.5567946000955999,h,1,0.1472664000466466,0.04665739997290075,0.047855000011622906,0.10007549985311925,0.10017429990693927,0.30087459995411336
RSVPLG03,sg,20260310-131236,1.0.2,20251105-084826,798,Practice,Both,1,Automatic,main,9,20260310-131357,global,global,300,H,S,E,E,H-E.png,S-E.png,hH,sS,mask-4.png,mask-4.png,h,1,0.4691081000491977,s,1,0.3108268000651151,0.04665159992873669,0.04682189994491637,0.09948479989543557,0.09874669997952878,0.30033729993738234
RSVPLG03,sg,20260310-131236,1.0.2,20251105-084826,798,Practice,Both,1,Automatic,main,10,20260310-131402,global,local,300,S,S,A,A,S-A.png,A-S.png,sS,sS,mask-3.png,mask-1.png,s,1,1.1901229000650346,h,0,0.05349530000239611,0.048281299881637096,0.047554400051012635,0.10032109986059368,0.10066620004363358,0.30003849999047816
RSVPLG03,sg,20260310-131236,1.0.2,20251105-084826,798,Practice,Both,1,Automatic,main,11,20260310-131407,global,global,750,S,H,E,E,S-E.png,H-E.png,sS,hH,mask-4.png,mask-1.png,s,1,0.5378729999065399,h,1,0.5175354999955744,0.046526400139555335,0.04763510008342564,0.09960660012438893,0.10072290012612939,0.7490888999309391
RSVPLG03,sg,20260310-131236,1.0.2,20251105-084826,798,Practice,Both,1,Automatic,main,12,20260310-131412,local,global,300,S,H,E,A,E-S.png,H-A.png,sS,hH,mask-4.png,mask-3.png,s,1,0.4086307999677956,h,1,0.10587439988739789,0.04655739990994334,0.048617699882015586,0.0996004999615252,0.10064209997653961,0.29921910003758967
RSVPLG03,sg,20260310-131236,1.0.2,20251105-084826,798,Practice,Both,1,Automatic,main,13,20260310-131416,global,global,750,S,S,A,A,S-A.png,S-A.png,sS,sS,mask-1.png,mask-3.png,s,1,0.40836400003172457,s,1,0.15642979997210205,0.047111300053074956,0.0475441999733448,0.09989139996469021,0.1005613999441266,0.7504668000619859
RSVPLG03,sg,20260310-131236,1.0.2,20251105-084826,798,Practice,Both,1,Automatic,main,14,20260310-131421,local,local,750,H,S,E,E,E-H.png,E-S.png,hH,sS,mask-3.png,mask-3.png,h,1,0.9371549000497907,s,1,0.15780359995551407,0.048612600192427635,0.04747339989989996,0.10161730018444359,0.10047980002127588,0.7511116000823677
RSVPLG03,sg,20260310-131236,1.0.2,20251105-084826,798,Practice,Both,1,Automatic,main,15,20260310-131426,global,local,750,S,H,E,E,S-E.png,E-H.png,sS,hH,mask-4.png,mask-1.png,s,1,0.9385282997973263,s,0,0.07229739986360073,0.04753590002655983,0.04853580007329583,0.09875810006633401,0.1015633000060916,0.7494294000789523
RSVPLG03,sg,20260310-131236,1.0.2,20251105-084826,798,Practice,Both,1,Automatic,main,16,20260310-131431,local,local,300,S,S,E,A,E-S.png,A-S.png,sS,sS,mask-1.png,mask-1.png,s,1,1.0396835999563336,h,0,0.05525940004736185,0.04762149997986853,0.04870799998752773,0.09982020012103021,0.09986219997517765,0.2984432999510318
RSVPLG03,sg,20260310-131550,1.0.2,20251105-084826,798,Practice,Both,1,Automatic,main,1,20260310-131611,global,global,300,H,S,E,A,H-E.png,S-A.png,hH,sS,mask-1.png,mask-1.png,h,1,0.592959500150755,s,1,0.16742149996571243,0.04891740018501878,0.04755969997495413,0.10204540006816387,0.10157389985397458,0.3003804001491517
RSVPLG03,sg,20260310-131550,1.0.2,20251105-084826,798,Practice,Both,1,Automatic,main,2,20260310-131616,global,global,750,H,S,A,E,H-A.png,S-E.png,hH,sS,mask-1.png,mask-1.png,h,1,0.5334401000291109,s,1,0.10153499990701675,0.04757099994458258,0.04665550007484853,0.098600999917835,0.10080590005964041,0.7492090999148786
RSVPLG03,sg,20260310-131550,1.0.2,20251105-084826,798,Practice,Both,1,Automatic,main,3,20260310-131621,global,global,300,H,H,A,E,H-A.png,H-E.png,hH,hH,mask-4.png,mask-2.png,h,1,0.7526549000758678,h,1,0.1095392000861466,0.047620599856600165,0.04562659980729222,0.10059899999760091,0.09934789990074933,0.30082940007559955
RSVPLG03,sg,20260310-131550,1.0.2,20251105-084826,798,Practice,Both,1,Automatic,main,4,20260310-131625,global,local,750,S,S,A,A,S-A.png,A-S.png,sS,sS,mask-1.png,mask-3.png,s,1,0.6807017999235541,h,0,0.3264933000318706,0.04767210013233125,0.04764700005762279,0.09983880002982914,0.10084250010550022,0.7496263000648469
RSVPLG03,sg,20260310-131550,1.0.2,20251105-084826,798,Practice,Both,1,Automatic,main,5,20260310-131630,global,local,300,H,S,E,A,H-E.png,A-S.png,hH,sS,mask-1.png,mask-4.png,h,1,0.8593853001948446,s,1,0.8062560998369008,0.0476779998280108,0.047665500082075596,0.101063699927181,0.09988710004836321,0.30044269980862737
RSVPLG03,sg,20260310-131550,1.0.2,20251105-084826,798,Practice,Both,1,Automatic,main,6,20260310-131636,local,global,300,S,H,A,E,A-S.png,H-E.png,sS,hH,mask-4.png,mask-1.png,s,1,0.7095099000725895,h,1,0.2379898999352008,0.04678319999948144,0.04766599996946752,0.10114050004631281,0.09984849998727441,0.30066800001077354
RSVPLG03,sg,20260310-131550,1.0.2,20251105-084826,798,Practice,Both,1,Automatic,main,7,20260310-131640,local,local,750,H,H,A,E,A-H.png,E-H.png,hH,hH,mask-4.png,mask-4.png,h,1,0.4631899001542479,h,1,0.11322780000045896,0.048240600153803825,0.04767629993148148,0.10123520018532872,0.09991809981875122,0.7516289001796395
RSVPLG03,sg,20260310-131550,1.0.2,20251105-084826,798,Practice,Both,1,Automatic,main,8,20260310-131645,local,local,300,S,S,A,A,A-S.png,A-S.png,sS,sS,mask-2.png,mask-4.png,s,1,0.47855730005539954,s,1,0.08691839990206063,0.047190300188958645,0.046706699999049306,0.10041680000722408,0.09981160005554557,0.30099790007807314
RSVPLG03,sg,20260310-131550,1.0.2,20251105-084826,798,Practice,Both,1,Automatic,main,9,20260310-131649,local,global,750,H,S,A,A,A-H.png,S-A.png,hH,sS,mask-4.png,mask-3.png,h,1,0.7253097998909652,s,1,0.06463599996641278,0.04733979981392622,0.04751019994728267,0.09965149988420308,0.09935860009863973,0.7506134998984635
RSVPLG03,sg,20260310-131550,1.0.2,20251105-084826,798,Practice,Both,1,Automatic,main,10,20260310-131654,global,local,750,H,S,E,E,H-E.png,E-S.png,hH,sS,mask-4.png,mask-1.png,h,1,0.646814800100401,s,1,0.09097929997369647,0.04668120015412569,0.04701730003580451,0.10060220002196729,0.09928290010429919,0.7512399000115693
RSVPLG03,sg,20260310-131550,1.0.2,20251105-084826,798,Practice,Both,1,Automatic,main,11,20260310-131659,local,local,300,H,H,E,E,E-H.png,E-H.png,hH,hH,mask-4.png,mask-2.png,h,1,0.5553462998941541,h,1,0.08078570012003183,0.04658090020529926,0.04804379981942475,0.09856700012460351,0.10112949996255338,0.2989941001869738
RSVPLG03,sg,20260310-131550,1.0.2,20251105-084826,798,Practice,Both,1,Automatic,main,12,20260310-131703,local,global,300,H,S,A,E,A-H.png,S-E.png,hH,sS,mask-1.png,mask-1.png,h,1,0.8099007999990135,h,0,0.12136119999922812,0.04771039984188974,0.049184300005435944,0.09869859996251762,0.10150150000117719,0.2985098999924958
RSVPLG03,sg,20260310-131550,1.0.2,20251105-084826,798,Practice,Both,1,Automatic,main,13,20260310-131708,global,local,300,S,S,A,E,S-A.png,E-S.png,sS,sS,mask-3.png,mask-1.png,s,1,0.46539010014384985,s,1,0.07501669996418059,0.04803090007044375,0.04663060000166297,0.10202280012890697,0.09969579987227917,0.3022571001201868
RSVPLG03,sg,20260310-131550,1.0.2,20251105-084826,798,Practice,Both,1,Automatic,main,14,20260310-131712,global,global,750,H,S,E,E,H-E.png,S-E.png,hH,sS,mask-2.png,mask-4.png,h,1,0.9222631000448018,s,1,0.13030480011366308,0.047672800021246076,0.04866459988988936,0.09984869998879731,0.10004499997012317,0.7491609000135213
RSVPLG03,sg,20260310-131550,1.0.2,20251105-084826,798,Practice,Both,1,Automatic,main,15,20260310-131718,local,global,750,S,H,E,E,E-S.png,H-E.png,sS,hH,mask-4.png,mask-2.png,s,1,0.5714944999199361,s,0,0.33144099987111986,0.04773969994857907,0.04667790001258254,0.0998261000495404,0.10068450006656349,0.749677199870348
RSVPLG03,sg,20260310-131550,1.0.2,20251105-084826,798,Practice,Both,1,Automatic,main,16,20260310-131723,local,local,750,S,H,A,E,A-S.png,E-H.png,sS,hH,mask-2.png,mask-3.png,s,1,0.7460755999200046,h,1,0.15396709996275604,0.04712120001204312,0.04653190006501973,0.10050250007770956,0.09951650002039969,0.7507462000939995
RSVPLG03,sg,20260310-131758,1.0.2,20251105-084826,798,Experiment,Both,1,Automatic,warmup,1,20260310-132004,local,local,750,S,S,E,A,E-S.png,A-S.png,sS,sS,mask-3.png,mask-2.png,s,1,0.38474779995158315,s,1,0.08568229991942644,0.04836690006777644,0.048818100010976195,0.10135690006427467,0.10001050005666912,0.7502005998976529
RSVPLG03,sg,20260310-131758,1.0.2,20251105-084826,798,Experiment,Both,1,Automatic,warmup,2,20260310-132008,global,global,300,H,H,A,E,H-A.png,H-E.png,hH,hH,mask-3.png,mask-2.png,h,1,0.5444440999999642,h,1,0.10207989998161793,0.04860979993827641,0.04699129983782768,0.1007882000412792,0.09839499997906387,0.3014070000499487
RSVPLG03,sg,20260310-131758,1.0.2,20251105-084826,798,Experiment,Both,1,Automatic,warmup,3,20260310-132013,local,global,300,S,H,A,A,A-S.png,H-A.png,sS,hH,mask-3.png,mask-3.png,s,1,0.5824917000718415,h,1,0.1990163999143988,0.04756570002064109,0.04579019988887012,0.09958030004054308,0.09929849999025464,0.2998977000825107
RSVPLG03,sg,20260310-131758,1.0.2,20251105-084826,798,Experiment,Both,1,Automatic,warmup,4,20260310-132017,local,local,300,S,H,E,E,E-S.png,E-H.png,sS,hH,mask-4.png,mask-4.png,s,1,0.5118525000289083,h,1,0.07190379989333451,0.04841389995999634,0.047443600138649344,0.100538200000301,0.09979200013913214,0.3011403998825699
RSVPLG03,sg,20260310-131758,1.0.2,20251105-084826,798,Experiment,Both,1,Automatic,main,5,20260310-132021,global,local,300,S,H,A,E,S-A.png,E-H.png,sS,hH,mask-4.png,mask-3.png,s,1,0.37965810019522905,h,1,0.0938748000189662,0.048542500007897615,0.04755609994754195,0.10169530007988214,0.09889180003665388,0.3010856001637876
RSVPLG03,sg,20260310-131758,1.0.2,20251105-084826,798,Experiment,Both,1,Automatic,main,6,20260310-132026,local,local,300,S,S,E,A,E-S.png,A-S.png,sS,sS,mask-1.png,mask-2.png,s,1,0.38236539997160435,s,1,0.08761320007033646,0.047511399956420064,0.04770909994840622,0.09853870002552867,0.09977469989098608,0.2987925000488758
RSVPLG03,sg,20260310-131758,1.0.2,20251105-084826,798,Experiment,Both,1,Automatic,main,7,20260310-132030,local,global,300,H,H,A,A,A-H.png,H-A.png,hH,hH,mask-1.png,mask-3.png,h,1,0.3770834000315517,s,0,0.31709169992245734,0.04752209992147982,0.04743530019186437,0.10016610007733107,0.10029650013893843,0.29961119988001883
RSVPLG03,sg,20260310-131758,1.0.2,20251105-084826,798,Experiment,Both,1,Automatic,main,8,20260310-132034,global,global,300,H,H,A,E,H-A.png,H-E.png,hH,hH,mask-4.png,mask-1.png,h,1,1.6479597000870854,h,1,0.09231480001471937,0.046967600006610155,0.04844460007734597,0.10100010014139116,0.10026070009917021,0.2999271999578923
RSVPLG03,sg,20260310-131758,1.0.2,20251105-084826,798,Experiment,Both,1,Automatic,main,9,20260310-132040,local,global,300,S,S,E,A,E-S.png,S-A.png,sS,sS,mask-4.png,mask-1.png,s,1,0.5806931999977678,h,0,0.8120331999380141,0.04670309997163713,0.04769999999552965,0.10020039998926222,0.10020240000449121,0.2998405999969691
RSVPLG03,sg,20260310-131758,1.0.2,20251105-084826,798,Experiment,Both,1,Automatic,main,10,20260310-132045,global,local,750,H,S,A,A,H-A.png,A-S.png,hH,sS,mask-3.png,mask-3.png,h,1,0.582969699986279,s,1,0.7727472998667508,0.04668039991520345,0.04690609988756478,0.09918559994548559,0.0991699998266995,0.7502234000712633
RSVPLG03,sg,20260310-131758,1.0.2,20251105-084826,798,Experiment,Both,1,Automatic,main,11,20260310-132050,global,global,300,S,S,A,A,S-A.png,S-A.png,sS,sS,mask-4.png,mask-4.png,s,1,1.1384291001595557,h,0,0.049965300131589174,0.04853800009004772,0.047445899806916714,0.1006632000207901,0.10036809998564422,0.30049010016955435
RSVPLG03,sg,20260310-131758,1.0.2,20251105-084826,798,Experiment,Both,1,Automatic,main,12,20260310-132055,local,local,300,H,S,E,E,E-H.png,E-S.png,hH,sS,mask-4.png,mask-1.png,s,0,0.42986200004816055,h,0,0.18627659999765456,0.04735510004684329,0.047679999843239784,0.09955170005559921,0.10007559997029603,0.2983145001344383
RSVPLG03,sg,20260310-131758,1.0.2,20251105-084826,798,Experiment,Both,1,Automatic,main,13,20260310-132059,global,global,750,H,H,A,E,H-A.png,H-E.png,hH,hH,mask-3.png,mask-3.png,h,1,0.423074500169605,h,1,0.07532230019569397,0.0456297998316586,0.04867920000106096,0.09841819992288947,0.09940760000608861,0.7482817999552935
RSVPLG03,sg,20260310-131758,1.0.2,20251105-084826,798,Experiment,Both,1,Automatic,main,14,20260310-132104,local,global,750,S,H,E,E,E-S.png,H-E.png,sS,hH,mask-4.png,mask-3.png,s,1,0.5011626000050455,h,1,0.03291509998962283,0.04635920003056526,0.04749849997460842,0.09920169995166361,0.09935779985971749,0.7497101000044495
RSVPLG03,sg,20260310-131758,1.0.2,20251105-084826,798,Experiment,Both,1,Automatic,main,15,20260310-132109,global,local,750,S,S,A,A,S-A.png,A-S.png,sS,sS,mask-3.png,mask-4.png,s,1,0.45281960000284016,h,0,0.16728889988735318,0.046600200003013015,0.046513000037521124,0.1005971000995487,0.09929429995827377,0.7500257000792772
RSVPLG03,sg,20260310-131758,1.0.2,20251105-084826,798,Experiment,Both,1,Automatic,main,16,20260310-132113,local,local,750,H,H,E,E,E-H.png,E-H.png,hH,hH,mask-2.png,mask-4.png,s,0,0.6727725998498499,h,1,0.04874820006079972,0.047576399985700846,0.0478789999615401,0.10056579997763038,0.10113149997778237,0.7502109999768436
RSVPLG03,sg,20260310-131758,1.0.2,20251105-084826,798,Experiment,Both,1,Automatic,main,17,20260310-132118,global,global,750,H,S,E,E,H-E.png,S-E.png,hH,sS,mask-3.png,mask-2.png,h,1,0.5318409998435527,s,1,0.10268090013414621,0.04609739989973605,0.04766599996946752,0.09920169995166361,0.10054400004446507,0.7488247000146657
RSVPLG03,sg,20260310-131758,1.0.2,20251105-084826,798,Experiment,Both,1,Automatic,main,18,20260310-132123,global,local,300,S,H,E,A,S-E.png,A-H.png,sS,hH,mask-4.png,mask-2.png,h,0,0.5107956000138074,s,0,0.043438199907541275,0.04727059998549521,0.04644140019081533,0.09828170016407967,0.09842830011621118,0.29985690000467
RSVPLG03,sg,20260310-131758,1.0.2,20251105-084826,798,Experiment,Both,1,Automatic,main,19,20260310-132127,local,global,300,H,S,E,A,E-H.png,S-A.png,hH,sS,mask-1.png,mask-1.png,h,1,0.44359020004048944,s,1,0.12858000001870096,0.045690400060266256,0.047591600101441145,0.09918550006113946,0.09966049995273352,0.2994272999931127
RSVPLG03,sg,20260310-131758,1.0.2,20251105-084826,798,Experiment,Both,1,Automatic,main,20,20260310-132131,local,local,750,H,S,A,E,A-H.png,E-S.png,hH,sS,mask-4.png,mask-1.png,h,1,0.28898860001936555,s,1,0.15680460003204644,0.045699300011619925,0.04765219986438751,0.09835699992254376,0.09982199990190566,0.749266600003466
RSVPLG03,sg,20260310-131758,1.0.2,20251105-084826,798,Experiment,Both,1,Automatic,main,21,20260310-132136,global,global,750,S,H,A,A,S-A.png,H-A.png,sS,hH,mask-4.png,mask-3.png,s,1,0.33452160004526377,h,1,0.10237910016439855,0.04755609994754195,0.04682660009711981,0.09867990016937256,0.0989857001695782,0.7506671999581158
RSVPLG03,sg,20260310-131758,1.0.2,20251105-084826,798,Experiment,Both,1,Automatic,main,22,20260310-132141,local,global,300,H,S,E,E,E-H.png,S-E.png,hH,sS,mask-4.png,mask-1.png,h,1,0.5829920000396669,s,1,0.05626090010628104,0.04756249999627471,0.04753109999001026,0.10060540004633367,0.10050230007618666,0.29981189989484847
RSVPLG03,sg,20260310-131758,1.0.2,20251105-084826,798,Experiment,Both,1,Automatic,main,23,20260310-132145,global,global,300,H,S,E,E,H-E.png,S-E.png,hH,sS,mask-4.png,mask-1.png,h,1,0.3934297999367118,s,1,0.09754600003361702,0.047062099911272526,0.04739710013382137,0.09993280004709959,0.10025030001997948,0.299970299936831
RSVPLG03,sg,20260310-131758,1.0.2,20251105-084826,798,Experiment,Both,1,Automatic,main,24,20260310-132149,global,global,300,H,H,A,E,H-A.png,H-E.png,hH,hH,mask-4.png,mask-1.png,h,1,0.31052879989147186,h,1,0.07548450003378093,0.04805699991993606,0.047497899970039725,0.10134809999726713,0.10150300012901425,0.29933279985561967
RSVPLG03,sg,20260310-131758,1.0.2,20251105-084826,798,Experiment,Both,1,Automatic,main,25,20260310-132153,local,local,750,H,S,E,E,E-H.png,E-S.png,hH,sS,mask-4.png,mask-2.png,s,0,0.3677408001385629,h,0,0.6320955001283437,0.047680600080639124,0.04750019987113774,0.09985830006189644,0.10050229984335601,0.7494734001811594
RSVPLG03,sg,20260310-131758,1.0.2,20251105-084826,798,Experiment,Both,1,Automatic,main,26,20260310-132209,global,global,300,S,S,A,A,S-A.png,S-A.png,sS,sS,mask-4.png,mask-3.png,s,1,0.39680750016123056,s,1,0.1118468998465687,0.04755020001903176,0.04766739998012781,0.09958350006490946,0.10173969995230436,0.2983101001009345
RSVPLG03,sg,20260310-131758,1.0.2,20251105-084826,798,Experiment,Both,1,Automatic,main,27,20260310-132213,local,global,750,S,S,A,E,A-S.png,S-E.png,sS,sS,mask-3.png,mask-1.png,s,1,0.3985474999062717,s,1,0.11628610012121499,0.048570499988272786,0.047442000126466155,0.10044459998607635,0.10044619999825954,0.7508282999042422
RSVPLG03,sg,20260310-131758,1.0.2,20251105-084826,798,Experiment,Both,1,Automatic,main,28,20260310-132218,global,global,300,H,H,E,A,H-E.png,H-A.png,hH,hH,mask-2.png,mask-4.png,h,1,0.2868661000393331,h,1,0.04967790003865957,0.04758009989745915,0.04577159998007119,0.09859740012325346,0.09918759996071458,0.29985020007006824
RSVPLG03,sg,20260310-131758,1.0.2,20251105-084826,798,Experiment,Both,1,Automatic,main,29,20260310-132222,local,local,300,S,H,A,E,A-S.png,E-H.png,sS,hH,mask-1.png,mask-2.png,s,1,0.5129746999591589,h,1,0.05572890001349151,0.048929400043562055,0.047330099856480956,0.10201060003601015,0.09933190001174808,0.30222950014285743
RSVPLG03,sg,20260310-131758,1.0.2,20251105-084826,798,Experiment,Both,1,Automatic,main,30,20260310-132226,global,local,300,H,S,A,E,H-A.png,E-S.png,hH,sS,mask-1.png,mask-3.png,h,1,0.33709429996088147,s,1,0.05373789998702705,0.04757099994458258,0.04793509980663657,0.10155460005626082,0.09904889995232224,0.3011306000407785
RSVPLG03,sg,20260310-131758,1.0.2,20251105-084826,798,Experiment,Both,1,Automatic,main,31,20260310-132230,global,local,750,S,S,E,E,S-E.png,E-S.png,sS,sS,mask-3.png,mask-3.png,s,1,0.30751419998705387,s,1,0.09483740013092756,0.048630699981004,0.04724980005994439,0.10160379996523261,0.10030120005831122,0.7512155999429524
RSVPLG03,sg,20260310-131758,1.0.2,20251105-084826,798,Experiment,Both,1,Automatic,main,32,20260310-132235,local,global,300,H,H,A,E,A-H.png,H-E.png,hH,hH,mask-2.png,mask-1.png,h,1,0.6890078000724316,h,1,0.001472200034186244,0.04674190003424883,0.04767500003799796,0.099600899964571,0.09984829998575151,0.30072559998370707
RSVPLG03,sg,20260310-131758,1.0.2,20251105-084826,798,Experiment,Both,1,Automatic,main,33,20260310-132239,local,global,300,H,S,A,A,A-H.png,S-A.png,hH,sS,mask-2.png,mask-3.png,h,1,0.5017538999672979,s,1,0.04253199999220669,0.04858900001272559,0.04750699992291629,0.09959920006804168,0.0984906000085175,0.30085140001028776
RSVPLG03,sg,20260310-131758,1.0.2,20251105-084826,798,Experiment,Both,1,Automatic,main,34,20260310-132243,global,local,750,H,S,E,A,H-E.png,A-S.png,hH,sS,mask-2.png,mask-1.png,h,1,0.4060790000949055,h,0,0.08092059986665845,0.04757389985024929,0.047477800166234374,0.0995147000066936,0.10040740016847849,0.7498454998712987
RSVPLG03,sg,20260310-131758,1.0.2,20251105-084826,798,Experiment,Both,1,Automatic,main,35,20260310-132248,global,global,750,S,H,A,A,S-A.png,H-A.png,sS,hH,mask-3.png,mask-3.png,s,1,0.2711994000710547,h,1,0.5725561000872403,0.04690010007470846,0.0476454000454396,0.1000558000523597,0.09945780015550554,0.7504823000635952
RSVPLG03,sg,20260310-131758,1.0.2,20251105-084826,798,Experiment,Both,1,Automatic,main,36,20260310-132253,local,global,300,H,S,A,E,A-H.png,S-E.png,hH,sS,mask-2.png,mask-1.png,h,1,0.36579589988105,h,0,0.31271590013056993,0.04767100000753999,0.047435899963602424,0.09986529988236725,0.10026249988004565,0.29945729998871684
RSVPLG03,sg,20260310-131758,1.0.2,20251105-084826,798,Experiment,Both,1,Automatic,main,37,20260310-132257,local,local,750,H,S,A,E,A-H.png,E-S.png,hH,sS,mask-1.png,mask-2.png,h,1,0.33665700000710785,s,1,0.060629399958997965,0.04758800007402897,0.04752660007216036,0.10061960015445948,0.10053630010224879,0.7496960000135005
RSVPLG03,sg,20260310-131758,1.0.2,20251105-084826,798,Experiment,Both,1,Automatic,main,38,20260310-132302,local,local,750,H,H,A,E,A-H.png,E-H.png,hH,hH,mask-2.png,mask-1.png,h,1,0.4114898999687284,h,1,0.08632969995960593,0.0463192998431623,0.047730799997225404,0.09823070000857115,0.09976079990155995,0.7482191999442875
RSVPLG03,sg,20260310-131758,1.0.2,20251105-084826,798,Experiment,Both,1,Automatic,main,39,20260310-132306,local,local,300,H,S,A,A,A-H.png,A-S.png,hH,sS,mask-1.png,mask-3.png,h,1,0.42250630003400147,s,1,0.07756859995424747,0.04766050004400313,0.04668810009025037,0.09976949985139072,0.09946450009010732,0.3012466998770833
RSVPLG03,sg,20260310-131758,1.0.2,20251105-084826,798,Experiment,Both,1,Automatic,main,40,20260310-132310,global,global,750,S,H,E,E,S-E.png,H-E.png,sS,hH,mask-2.png,mask-2.png,s,1,0.360665800049901,h,1,0.07041149982251227,0.047575600212439895,0.04768680012784898,0.10003050020895898,0.09986039996147156,0.7502540000714362
RSVPLG03,sg,20260310-131758,1.0.2,20251105-084826,798,Experiment,Both,1,Automatic,main,41,20260310-132315,local,local,300,S,S,E,A,E-S.png,A-S.png,sS,sS,mask-4.png,mask-1.png,s,1,0.3218968000728637,s,1,0.06144100008532405,0.04767260001972318,0.04867570009082556,0.09985629981383681,0.10076429997570813,0.29920959984883666
RSVPLG03,sg,20260310-131758,1.0.2,20251105-084826,798,Experiment,Both,1,Automatic,main,42,20260310-132319,global,local,300,S,H,A,A,S-A.png,A-H.png,sS,hH,mask-2.png,mask-2.png,s,1,0.36726809991523623,h,1,0.027549500111490488,0.04689659993164241,0.04756229999475181,0.09999740007333457,0.09869639994576573,0.3011634999420494
RSVPLG03,sg,20260310-131758,1.0.2,20251105-084826,798,Experiment,Both,1,Automatic,main,43,20260310-132323,local,local,750,H,S,E,E,E-H.png,E-S.png,hH,sS,mask-2.png,mask-3.png,s,0,0.6078044001478702,h,0,0.6352947999257594,0.04767649993300438,0.04718320001848042,0.0996240999083966,0.09994360012933612,0.7498136998619884
RSVPLG03,sg,20260310-131758,1.0.2,20251105-084826,798,Experiment,Both,1,Automatic,main,44,20260310-132329,global,local,750,S,S,A,A,S-A.png,A-S.png,sS,sS,mask-1.png,mask-4.png,s,1,0.35804870002903044,h,0,0.04430549987591803,0.047800600063055754,0.04927069996483624,0.1009347999934107,0.1003095000050962,0.748856799909845
RSVPLG03,sg,20260310-131758,1.0.2,20251105-084826,798,Experiment,Both,1,Automatic,main,45,20260310-132333,local,local,300,S,H,A,E,A-S.png,E-H.png,sS,hH,mask-3.png,mask-1.png,s,1,0.4810364998411387,h,1,0.023238199995830655,0.047108300030231476,0.04751059995032847,0.10013570007868111,0.09852340002544224,0.2997149000875652
RSVPLG03,sg,20260310-131758,1.0.2,20251105-084826,798,Experiment,Both,1,Automatic,main,46,20260310-132337,local,local,300,H,S,E,A,E-H.png,A-S.png,hH,sS,mask-4.png,mask-1.png,h,1,0.3016780000180006,s,1,0.055981799960136414,0.04668730008415878,0.04755309992469847,0.10011010011658072,0.10057540005072951,0.29944860003888607
RSVPLG03,sg,20260310-131758,1.0.2,20251105-084826,798,Experiment,Both,1,Automatic,main,47,20260310-132341,global,global,300,S,H,E,A,S-E.png,H-A.png,sS,hH,mask-1.png,mask-1.png,h,0,0.6439102999866009,s,0,0.03996489988639951,0.04752220003865659,0.04752389993518591,0.10055690002627671,0.09852429991587996,0.3003414000850171
RSVPLG03,sg,20260310-131758,1.0.2,20251105-084826,798,Experiment,Both,1,Automatic,main,48,20260310-132346,local,local,750,S,H,E,E,E-S.png,E-H.png,sS,hH,mask-4.png,mask-1.png,s,1,0.2123829999472946,h,1,0.02350719994865358,0.04773950017988682,0.04854370001703501,0.10072720004245639,0.09992490010336041,0.7498373000416905
RSVPLG03,sg,20260310-131758,1.0.2,20251105-084826,798,Experiment,Both,1,Automatic,main,49,20260310-132350,global,global,750,H,S,E,E,H-E.png,S-E.png,hH,sS,mask-4.png,mask-3.png,h,1,0.2945733000524342,s,1,0.023241100134328008,0.04755340004339814,0.04736669990234077,0.09957620012573898,0.09905339987017214,0.7502968001645058
RSVPLG03,sg,20260310-131758,1.0.2,20251105-084826,798,Experiment,Both,1,Automatic,main,50,20260310-132355,global,global,750,S,S,A,E,S-A.png,S-E.png,sS,sS,mask-4.png,mask-1.png,s,1,0.20077640004456043,s,1,0.06995129981078207,0.04940870008431375,0.04759630002081394,0.1006430999841541,0.0997645000461489,0.7507730999495834
RSVPLG03,sg,20260310-131758,1.0.2,20251105-084826,798,Experiment,Both,1,Automatic,main,51,20260310-132413,global,local,300,S,H,E,E,S-E.png,E-H.png,sS,hH,mask-4.png,mask-2.png,s,1,0.39006060012616217,h,1,0.06834050011821091,0.047637600218877196,0.04741990007460117,0.0989701000507921,0.10099099995568395,0.2983798000495881
RSVPLG03,sg,20260310-131758,1.0.2,20251105-084826,798,Experiment,Both,1,Automatic,main,52,20260310-132417,local,global,300,S,S,E,A,E-S.png,S-A.png,sS,sS,mask-4.png,mask-3.png,s,1,0.3719111999962479,s,1,0.07709900010377169,0.0476795001886785,0.04719060007482767,0.10171050019562244,0.10029150010086596,0.3002496000844985
RSVPLG03,sg,20260310-131758,1.0.2,20251105-084826,798,Experiment,Both,1,Automatic,main,53,20260310-132421,local,local,300,S,H,E,A,E-S.png,A-H.png,sS,hH,mask-4.png,mask-4.png,s,1,0.35546569991856813,h,1,0.007599799893796444,0.046527500031515956,0.047838900005444884,0.09955230006016791,0.10092829982750118,0.29884360008873045
RSVPLG03,sg,20260310-131758,1.0.2,20251105-084826,798,Experiment,Both,1,Automatic,main,54,20260310-132425,global,global,750,H,H,E,E,H-E.png,H-E.png,hH,hH,mask-1.png,mask-3.png,h,1,0.3009299000259489,h,1,0.2980806000996381,0.047699599992483854,0.04699690011329949,0.0998738999478519,0.09905670001171529,0.7491184000391513
RSVPLG03,sg,20260310-131758,1.0.2,20251105-084826,798,Experiment,Both,1,Automatic,main,55,20260310-132430,local,local,300,H,S,E,E,E-H.png,E-S.png,hH,sS,mask-4.png,mask-3.png,h,1,0.34789249999448657,s,1,0.012859300011768937,0.047853099880740047,0.048121900064870715,0.1013421998359263,0.10104500013403594,0.30002489988692105
RSVPLG03,sg,20260310-131758,1.0.2,20251105-084826,798,Experiment,Both,1,Automatic,main,56,20260310-132434,local,local,300,H,S,E,A,E-H.png,A-S.png,hH,sS,mask-1.png,mask-1.png,h,1,0.3167019998654723,s,1,0.011969000101089478,0.04646189999766648,0.04768320010043681,0.09785429993644357,0.10090820002369583,0.29852129984647036
RSVPLG03,sg,20260310-131758,1.0.2,20251105-084826,798,Experiment,Both,1,Automatic,main,57,20260310-132438,global,local,750,S,S,A,A,S-A.png,A-S.png,sS,sS,mask-2.png,mask-1.png,s,1,0.3490597000345588,s,1,0.07197679998353124,0.04570050002075732,0.04676689999178052,0.09995470009744167,0.09977370011620224,0.7490258999168873
RSVPLG03,sg,20260310-131758,1.0.2,20251105-084826,798,Experiment,Both,1,Automatic,main,58,20260310-132443,global,global,750,S,H,A,A,S-A.png,H-A.png,sS,hH,mask-1.png,mask-4.png,s,1,0.3101772000081837,h,1,0.03591990005224943,0.047408000100404024,0.04820140008814633,0.10122009995393455,0.10100360005162656,0.7491003000177443
RSVPLG03,sg,20260310-131758,1.0.2,20251105-084826,798,Experiment,Both,1,Automatic,main,59,20260310-132447,local,global,300,S,S,A,A,A-S.png,S-A.png,sS,sS,mask-4.png,mask-2.png,s,1,0.3580764001235366,h,0,0.01575649995356798,0.047419199952855706,0.048355699982494116,0.10050430009141564,0.10038299998268485,0.29860109998844564
RSVPLG03,sg,20260310-131758,1.0.2,20251105-084826,798,Experiment,Both,1,Automatic,main,60,20260310-132451,local,global,300,S,S,E,A,E-S.png,S-A.png,sS,sS,mask-2.png,mask-1.png,s,1,0.3535209000110626,h,0,0.6977571998722851,0.04852109984494746,0.046010199934244156,0.10070830001495779,0.09931689989753067,0.3003692999482155
RSVPLG03,sg,20260310-131758,1.0.2,20251105-084826,798,Experiment,Both,1,Automatic,main,61,20260310-132456,global,local,300,S,H,A,A,S-A.png,A-H.png,sS,hH,mask-1.png,mask-4.png,s,1,0.3598028998821974,h,1,0.5045298999175429,0.04782909993082285,0.04629679978825152,0.10040849982760847,0.09965679980814457,0.30127639998681843
RSVPLG03,sg,20260310-131758,1.0.2,20251105-084826,798,Experiment,Both,1,Automatic,main,62,20260310-132500,local,local,750,H,H,A,A,A-H.png,A-H.png,hH,hH,mask-4.png,mask-2.png,h,1,0.25612949999049306,h,1,0.06739680003374815,0.04749699984677136,0.04751410009339452,0.0995039998088032,0.09878440015017986,0.7495827998500317
RSVPLG03,sg,20260310-131758,1.0.2,20251105-084826,798,Experiment,Both,1,Automatic,main,63,20260310-132504,local,global,750,S,S,E,A,E-S.png,S-A.png,sS,sS,mask-3.png,mask-4.png,s,1,0.3138822999317199,h,0,0.04540719999931753,0.047383799916133285,0.04754880000837147,0.09925289987586439,0.09987660008482635,0.7497103998903185
RSVPLG03,sg,20260310-131758,1.0.2,20251105-084826,798,Experiment,Both,1,Automatic,main,64,20260310-132509,local,local,750,H,H,E,E,E-H.png,E-H.png,hH,hH,mask-2.png,mask-1.png,h,1,0.22315320000052452,h,1,0.06099449982866645,0.047727499855682254,0.04852439998649061,0.10086739994585514,0.1005113001447171,0.7500181999057531
RSVPLG03,sg,20260310-131758,1.0.2,20251105-084826,798,Experiment,Both,1,Automatic,main,65,20260310-132513,global,local,300,S,S,A,E,S-A.png,E-S.png,sS,sS,mask-2.png,mask-4.png,s,1,0.7573447001632303,s,1,0.13818949996493757,0.04775839997455478,0.04826999991200864,0.0997635000385344,0.10056889988481998,0.3001119999680668
RSVPLG03,sg,20260310-131758,1.0.2,20251105-084826,798,Experiment,Both,1,Automatic,main,66,20260310-132518,global,local,750,H,S,E,E,H-E.png,E-S.png,hH,sS,mask-1.png,mask-3.png,s,0,0.3549704998731613,h,0,0.8295342000201344,0.04769879998639226,0.04751339997164905,0.09989700000733137,0.0995195999275893,0.7509814000222832
RSVPLG03,sg,20260310-131758,1.0.2,20251105-084826,798,Experiment,Both,1,Automatic,main,67,20260310-132523,local,local,750,H,S,E,E,E-H.png,E-S.png,hH,sS,mask-1.png,mask-1.png,h,1,0.2103554999921471,s,1,0.047087900107726455,0.047532099997624755,0.046628800220787525,0.09936699992977083,0.09907710016705096,0.7495974998455495
RSVPLG03,sg,20260310-131758,1.0.2,20251105-084826,798,Experiment,Both,1,Automatic,main,68,20260310-132527,local,global,750,S,H,E,E,E-S.png,H-E.png,sS,hH,mask-3.png,mask-3.png,s,1,1.0296950999181718,s,0,0.06418519979342818,0.04600850003771484,0.04755939985625446,0.09882860002107918,0.09861019998788834,0.7494293001946062
RSVPLG03,sg,20260310-131758,1.0.2,20251105-084826,798,Experiment,Both,1,Automatic,main,69,20260310-132533,local,global,300,H,S,E,E,E-H.png,S-E.png,hH,sS,mask-1.png,mask-2.png,h,1,0.4951601999346167,s,1,0.0570268000010401,0.04736409988254309,0.047560400096699595,0.1013958000112325,0.10071950010024011,0.30014419998042285
RSVPLG03,sg,20260310-131758,1.0.2,20251105-084826,798,Experiment,Both,1,Automatic,main,70,20260310-132537,local,global,750,S,H,E,E,E-S.png,H-E.png,sS,hH,mask-3.png,mask-4.png,s,1,0.41563080018386245,h,1,0.02728669997304678,0.047750999918207526,0.0476883000228554,0.10095419990830123,0.09944169991649687,0.7506967999506742
RSVPLG03,sg,20260310-131758,1.0.2,20251105-084826,798,Experiment,Both,1,Automatic,main,71,20260310-132542,global,local,750,S,S,A,E,S-A.png,E-S.png,sS,sS,mask-1.png,mask-3.png,s,1,0.333634200040251,s,1,0.0583621000405401,0.046742399921640754,0.048514199908822775,0.0998261000495404,0.10157949989661574,0.7482831000816077
RSVPLG03,sg,20260310-131758,1.0.2,20251105-084826,798,Experiment,Both,1,Automatic,main,72,20260310-132546,global,local,300,S,H,A,A,S-A.png,A-H.png,sS,hH,mask-1.png,mask-2.png,s,1,0.443472099956125,s,0,0.0518263999838382,0.04760000016540289,0.04755430016666651,0.09960640012286603,0.10056160017848015,0.29890990001149476
RSVPLG03,sg,20260310-131758,1.0.2,20251105-084826,798,Experiment,Both,1,Automatic,main,73,20260310-132550,global,global,300,H,H,A,A,H-A.png,H-A.png,hH,hH,mask-4.png,mask-3.png,h,1,0.30950429989024997,h,1,0.06646279990673065,0.04755620006471872,0.04662459995597601,0.09829130000434816,0.0996043998748064,0.29932760004885495
RSVPLG03,sg,20260310-131758,1.0.2,20251105-084826,798,Experiment,Both,1,Automatic,main,74,20260310-132554,global,local,300,S,H,E,A,S-E.png,A-H.png,sS,hH,mask-2.png,mask-3.png,s,1,0.33229020005092025,s,0,0.10736849997192621,0.04906419990584254,0.04765689978376031,0.10009559988975525,0.10162089997902513,0.30009580007754266
RSVPLG03,sg,20260310-131758,1.0.2,20251105-084826,798,Experiment,Both,1,Automatic,main,75,20260310-132558,global,global,750,H,H,A,E,H-A.png,H-E.png,hH,hH,mask-4.png,mask-3.png,h,1,0.26027759979479015,h,1,0.060482600005343556,0.0477009997703135,0.04866169998422265,0.09900569985620677,0.09950219979509711,0.7491860999725759
RSVPLG03,sg,20260310-131758,1.0.2,20251105-084826,798,Experiment,Both,1,Automatic,main,76,20260310-132614,global,local,300,H,S,E,E,H-E.png,E-S.png,hH,sS,mask-1.png,mask-3.png,h,1,0.39575190003961325,h,0,0.10429180017672479,0.04711079993285239,0.04873770009726286,0.10008769994601607,0.10088829998858273,0.2988597999792546
RSVPLG03,sg,20260310-131758,1.0.2,20251105-084826,798,Experiment,Both,1,Automatic,main,77,20260310-132618,local,global,750,H,S,A,A,A-H.png,S-A.png,hH,sS,mask-4.png,mask-1.png,h,1,0.3087212999816984,s,1,0.06883060000836849,0.047701200004667044,0.04669389990158379,0.10079300007782876,0.09955339995212853,0.7506638001650572
RSVPLG03,sg,20260310-131758,1.0.2,20251105-084826,798,Experiment,Both,1,Automatic,main,78,20260310-132622,global,local,750,H,S,A,E,H-A.png,E-S.png,hH,sS,mask-2.png,mask-3.png,h,1,0.6050261999480426,s,1,0.14816880016587675,0.04756679991260171,0.04751960001885891,0.09957319987006485,0.10153730004094541,0.7482078999746591
RSVPLG03,sg,20260310-131758,1.0.2,20251105-084826,798,Experiment,Both,1,Automatic,main,79,20260310-132627,global,local,300,S,H,A,A,S-A.png,A-H.png,sS,hH,mask-3.png,mask-1.png,s,1,0.3748430998530239,h,1,0.0722448998130858,0.04749589995481074,0.0475291998591274,0.10140729998238385,0.0986357000656426,0.30137280002236366
RSVPLG03,sg,20260310-131758,1.0.2,20251105-084826,798,Experiment,Both,1,Automatic,main,80,20260310-132631,local,global,300,H,H,A,E,A-H.png,H-E.png,hH,hH,mask-1.png,mask-1.png,s,0,0.4313970999792218,h,1,0.7703767998609692,0.048494999995455146,0.04838439985178411,0.10046729980967939,0.10009989980608225,0.29975040000863373
RSVPLG03,sg,20260310-131758,1.0.2,20251105-084826,798,Experiment,Both,1,Automatic,main,81,20260310-132636,local,local,750,S,H,E,E,E-S.png,E-H.png,sS,hH,mask-1.png,mask-1.png,s,1,0.6607354001607746,s,0,0.06962029985152185,0.047880099853500724,0.04837529989890754,0.10001989989541471,0.10033729998394847,0.7497459999285638
RSVPLG03,sg,20260310-131758,1.0.2,20251105-084826,798,Experiment,Both,1,Automatic,main,82,20260310-132641,local,local,750,S,H,E,A,E-S.png,A-H.png,sS,hH,mask-3.png,mask-4.png,s,1,0.30588799994438887,h,1,0.09588270005770028,0.047699700109660625,0.04768920014612377,0.09906999999657273,0.09988450002856553,0.7496327999979258
RSVPLG03,sg,20260310-131758,1.0.2,20251105-084826,798,Experiment,Both,1,Automatic,main,83,20260310-132646,global,global,300,H,H,E,A,H-E.png,H-A.png,hH,hH,mask-3.png,mask-4.png,h,1,0.38758370000869036,h,1,0.07107979990541935,0.047708099940791726,0.04724420001730323,0.10067639988847077,0.10002140002325177,0.30072599998675287
RSVPLG03,sg,20260310-131758,1.0.2,20251105-084826,798,Experiment,Both,1,Automatic,main,84,20260310-132650,local,global,750,H,S,A,E,A-H.png,S-E.png,hH,sS,mask-3.png,mask-2.png,h,1,0.6729502000380307,s,1,0.07043700013309717,0.048327500000596046,0.04732850007712841,0.09934789990074933,0.10042989999055862,0.7493489999324083
RSVPLG03,sg,20260310-131758,1.0.2,20251105-084826,798,Experiment,Both,1,Automatic,main,85,20260310-132655,local,local,300,H,H,A,A,A-H.png,A-H.png,hH,hH,mask-4.png,mask-2.png,h,1,0.2739237998612225,h,1,0.06963519984856248,0.04668380017392337,0.048677700106054544,0.10088000004179776,0.10033370018936694,0.29953439999371767
RSVPLG03,sg,20260310-131758,1.0.2,20251105-084826,798,Experiment,Both,1,Automatic,main,86,20260310-132659,global,global,300,H,H,E,E,H-E.png,H-E.png,hH,hH,mask-4.png,mask-4.png,h,1,0.26798369991593063,h,1,0.10321049997583032,0.047860699938610196,0.04669079999439418,0.1000798000022769,0.09997810004279017,0.3007374999579042
RSVPLG03,sg,20260310-131758,1.0.2,20251105-084826,798,Experiment,Both,1,Automatic,main,87,20260310-132703,local,global,750,S,S,A,A,A-S.png,S-A.png,sS,sS,mask-3.png,mask-3.png,s,1,0.5145189999602735,s,1,0.1511526999529451,0.04686070000752807,0.04584769997745752,0.09998820000328124,0.10001880000345409,0.7500271000899374
RSVPLG03,sg,20260310-131758,1.0.2,20251105-084826,798,Experiment,Both,1,Automatic,main,88,20260310-132707,global,global,300,H,S,A,E,H-A.png,S-E.png,hH,sS,mask-1.png,mask-2.png,h,1,0.40505239996127784,s,1,0.10914349998347461,0.04829409997910261,0.04743730020709336,0.10129139991477132,0.09843170014210045,0.301586999790743
RSVPLG03,sg,20260310-131758,1.0.2,20251105-084826,798,Experiment,Both,1,Automatic,main,89,20260310-132712,global,global,300,S,S,E,E,S-E.png,S-E.png,sS,sS,mask-2.png,mask-1.png,s,1,0.2923484998755157,s,1,0.1836949000135064,0.04774479987099767,0.047073200112208724,0.10095509979873896,0.10026670014485717,0.3009427997749299
RSVPLG03,sg,20260310-131758,1.0.2,20251105-084826,798,Experiment,Both,1,Automatic,main,90,20260310-132716,global,global,750,H,S,A,A,H-A.png,S-A.png,hH,sS,mask-3.png,mask-4.png,h,1,0.38455429999157786,s,1,0.0755222998559475,0.04668510006740689,0.046804599929600954,0.09988160012289882,0.09898480004630983,0.7493064000736922
RSVPLG03,sg,20260310-131758,1.0.2,20251105-084826,798,Experiment,Both,1,Automatic,main,91,20260310-132720,global,local,750,S,S,A,E,S-A.png,E-S.png,sS,sS,mask-3.png,mask-4.png,s,1,0.32079580007120967,s,1,0.08432370005175471,0.04747109999880195,0.04770019999705255,0.10055200010538101,0.09988949983380735,0.7508360000792891
RSVPLG03,sg,20260310-131758,1.0.2,20251105-084826,798,Experiment,Both,1,Automatic,main,92,20260310-132725,global,global,750,H,S,E,A,H-E.png,S-A.png,hH,sS,mask-1.png,mask-3.png,h,1,0.34973350004293025,s,1,0.07256369991227984,0.04767629993148148,0.04771309997886419,0.10046089999377728,0.09977449988946319,0.7499593000393361
RSVPLG03,sg,20260310-131758,1.0.2,20251105-084826,798,Experiment,Both,1,Automatic,main,93,20260310-132730,local,global,750,H,H,E,A,E-H.png,H-A.png,hH,hH,mask-3.png,mask-4.png,h,1,1.2144092000089586,h,1,0.06742029986344278,0.04839030001312494,0.047829699935391545,0.09887129999697208,0.10201529995538294,0.7492270001675934
RSVPLG03,sg,20260310-131758,1.0.2,20251105-084826,798,Experiment,Both,1,Automatic,main,94,20260310-132735,global,local,300,H,H,A,A,H-A.png,A-H.png,hH,hH,mask-2.png,mask-2.png,h,1,0.4025113999377936,h,1,0.09562880010344088,0.046827000100165606,0.04673420009203255,0.09901980007998645,0.10093179997056723,0.29964559990912676
RSVPLG03,sg,20260310-131758,1.0.2,20251105-084826,798,Experiment,Both,1,Automatic,main,95,20260310-132739,local,global,750,S,S,A,A,A-S.png,S-A.png,sS,sS,mask-1.png,mask-2.png,s,1,0.3406173000112176,h,0,0.15054049994796515,0.04650849988684058,0.048533399822190404,0.09937429986894131,0.09963199985213578,0.7495256999973208
RSVPLG03,sg,20260310-131758,1.0.2,20251105-084826,798,Experiment,Both,1,Automatic,main,96,20260310-132744,global,local,750,H,H,E,A,H-E.png,A-H.png,hH,hH,mask-1.png,mask-4.png,h,1,0.24089170014485717,h,1,0.08117490005679429,0.04602489992976189,0.04668670007959008,0.09849869995377958,0.0998844001442194,0.7504796998109668
RSVPLG03,sg,20260310-131758,1.0.2,20251105-084826,798,Experiment,Both,1,Automatic,main,97,20260310-132748,local,global,750,S,H,E,A,E-S.png,H-A.png,sS,hH,mask-4.png,mask-2.png,s,1,0.34208180010318756,s,0,0.09308640006929636,0.047668399987742305,0.04685280006378889,0.10085009993053973,0.09941169992089272,0.7501463999506086
RSVPLG03,sg,20260310-131758,1.0.2,20251105-084826,798,Experiment,Both,1,Automatic,main,98,20260310-132753,local,local,300,S,H,A,A,A-S.png,A-H.png,sS,hH,mask-1.png,mask-1.png,s,1,0.6570906999986619,s,0,0.09038610011339188,0.04767660005018115,0.04653789987787604,0.09984389995224774,0.09969890001229942,0.300400200067088
RSVPLG03,sg,20260310-131758,1.0.2,20251105-084826,798,Experiment,Both,1,Automatic,main,99,20260310-132757,local,global,750,H,H,E,A,E-H.png,H-A.png,hH,hH,mask-4.png,mask-2.png,h,1,0.2935382998548448,s,0,0.24892250006087124,0.04755349992774427,0.04747899994254112,0.09984439983963966,0.09941969998180866,0.7496579999569803
RSVPLG03,sg,20260310-131758,1.0.2,20251105-084826,798,Experiment,Both,1,Automatic,main,100,20260310-132802,global,local,750,H,S,E,E,H-E.png,E-S.png,hH,sS,mask-1.png,mask-2.png,h,1,0.32707270001992583,s,1,0.09235049993731081,0.04651209991425276,0.047619199845939875,0.09958809986710548,0.0987676999066025,0.7504088999703526
RSVPLG03,sg,20260310-132839,1.0.2,20251105-084826,798,Experiment,Both,1,Automatic,warmup,1,20260310-132916,global,global,750,H,S,E,A,H-E.png,S-A.png,hH,sS,mask-2.png,mask-2.png,h,1,0.47928260010667145,s,1,0.15276369987986982,0.048368200194090605,0.04658770002424717,0.10128810000605881,0.10012570000253618,0.752377400174737
RSVPLG03,sg,20260310-132839,1.0.2,20251105-084826,798,Experiment,Both,1,Automatic,warmup,2,20260310-132921,local,global,750,H,H,A,E,A-H.png,H-E.png,hH,hH,mask-2.png,mask-3.png,h,1,0.39481640001758933,h,1,0.10587530001066625,0.04804540006443858,0.04664280009455979,0.10007190005853772,0.09966840012930334,0.7515084999613464
RSVPLG03,sg,20260310-132839,1.0.2,20251105-084826,798,Experiment,Both,1,Automatic,warmup,3,20260310-132926,global,local,300,S,H,E,A,S-E.png,A-H.png,sS,hH,mask-1.png,mask-3.png,s,1,0.41126920003443956,h,1,0.29665639996528625,0.04632529988884926,0.047107899794355035,0.0993181997910142,0.09929949999786913,0.3005754000041634
RSVPLG03,sg,20260310-132839,1.0.2,20251105-084826,798,Experiment,Both,1,Automatic,warmup,4,20260310-132930,local,local,750,S,H,A,A,A-S.png,A-H.png,sS,hH,mask-4.png,mask-2.png,h,0,0.3262995001859963,h,1,0.12285170005634427,0.046599100111052394,0.04759700014255941,0.10161829995922744,0.09970310004428029,0.7514756999444216
RSVPLG03,sg,20260310-132839,1.0.2,20251105-084826,798,Experiment,Both,1,Automatic,main,5,20260310-132935,local,global,300,H,S,A,E,A-H.png,S-E.png,hH,sS,mask-3.png,mask-1.png,h,1,0.4012430999428034,s,1,0.07010499993339181,0.04672329989261925,0.048467300133779645,0.1010028999298811,0.10045489994809031,0.29996209987439215
RSVPLG03,sg,20260310-132839,1.0.2,20251105-084826,798,Experiment,Both,1,Automatic,main,6,20260310-132939,local,global,300,S,S,E,E,E-S.png,S-E.png,sS,sS,mask-3.png,mask-1.png,s,1,0.47701559984125197,s,1,0.07368819997645915,0.04661959991790354,0.04751179995946586,0.09986929991282523,0.10067870002239943,0.29928390006534755
RSVPLG03,sg,20260310-132839,1.0.2,20251105-084826,798,Experiment,Both,1,Automatic,main,7,20260310-132943,local,local,750,H,H,E,A,E-H.png,A-H.png,hH,hH,mask-4.png,mask-1.png,h,1,0.15736249997280538,h,1,0.20164790004491806,0.04739909991621971,0.04768730001524091,0.10023219999857247,0.09892789996229112,0.7519910999108106
RSVPLG03,sg,20260310-132839,1.0.2,20251105-084826,798,Experiment,Both,1,Automatic,main,8,20260310-132948,global,global,300,S,S,A,E,S-A.png,S-E.png,sS,sS,mask-1.png,mask-3.png,s,1,0.28234659996815026,s,1,0.08642209996469319,0.04751459998078644,0.0470579001121223,0.1003562998957932,0.10032700002193451,0.3000739999115467
RSVPLG03,sg,20260310-132839,1.0.2,20251105-084826,798,Experiment,Both,1,Automatic,main,9,20260310-132952,local,local,750,S,S,A,A,A-S.png,A-S.png,sS,sS,mask-4.png,mask-4.png,s,1,0.23463550000451505,s,1,0.11811010004021227,0.04768650000914931,0.047004600055515766,0.09889489994384348,0.10128189995884895,0.7499508000910282
RSVPLG03,sg,20260310-132839,1.0.2,20251105-084826,798,Experiment,Both,1,Automatic,main,10,20260310-132956,global,global,300,H,H,A,A,H-A.png,H-A.png,hH,hH,mask-4.png,mask-3.png,h,1,0.4282436999492347,h,1,0.08972660009749234,0.04756129998713732,0.04671599995344877,0.09855779982171953,0.10001219995319843,0.3002557000145316
RSVPLG03,sg,20260310-132839,1.0.2,20251105-084826,798,Experiment,Both,1,Automatic,main,11,20260310-133000,global,local,750,S,H,A,E,S-A.png,E-H.png,sS,hH,mask-1.png,mask-2.png,s,1,0.3222320999484509,h,1,0.1187722000759095,0.04884850000962615,0.04571009986102581,0.10103840008378029,0.09973490005359054,0.7531223001424223
RSVPLG03,sg,20260310-132839,1.0.2,20251105-084826,798,Experiment,Both,1,Automatic,main,12,20260310-133005,local,local,750,S,H,A,E,A-S.png,E-H.png,sS,hH,mask-1.png,mask-2.png,s,1,0.32649529981426895,h,1,0.06503980001434684,0.04700929997488856,0.04675840004347265,0.09876960003748536,0.10001960000954568,0.7504523999523371
RSVPLG03,sg,20260310-132839,1.0.2,20251105-084826,798,Experiment,Both,1,Automatic,main,13,20260310-133010,local,local,750,H,H,A,E,A-H.png,E-H.png,hH,hH,mask-4.png,mask-2.png,h,1,0.28580029984004796,h,1,0.07720050006173551,0.047538100043311715,0.048628499964252114,0.09853089996613562,0.10065739997662604,0.7491355000529438
RSVPLG03,sg,20260310-132839,1.0.2,20251105-084826,798,Experiment,Both,1,Automatic,main,14,20260310-133014,global,global,300,H,H,E,A,H-E.png,H-A.png,hH,hH,mask-3.png,mask-3.png,h,1,0.3381082001142204,h,1,0.07333349995315075,0.04661449999548495,0.0465826999861747,0.09967210004106164,0.09979979996569455,0.3000324999447912
RSVPLG03,sg,20260310-132839,1.0.2,20251105-084826,798,Experiment,Both,1,Automatic,main,15,20260310-133018,global,local,750,S,S,A,A,S-A.png,A-S.png,sS,sS,mask-2.png,mask-4.png,s,1,0.23866779985837638,h,0,0.23417539987713099,0.048232699977234006,0.0465210999827832,0.09988230001181364,0.09954490000382066,0.7516888999380171
RSVPLG03,sg,20260310-132839,1.0.2,20251105-084826,798,Experiment,Both,1,Automatic,main,16,20260310-133023,local,global,750,H,S,E,A,E-H.png,S-A.png,hH,sS,mask-2.png,mask-4.png,h,1,0.5571211001370102,h,0,0.3108133999630809,0.04735039989463985,0.04852849990129471,0.10010909987613559,0.10158729995600879,0.750258699990809
RSVPLG03,sg,20260310-132839,1.0.2,20251105-084826,798,Experiment,Both,1,Automatic,main,17,20260310-133028,local,local,300,H,S,A,E,A-H.png,E-S.png,hH,sS,mask-3.png,mask-3.png,h,1,0.6906640001107007,s,1,0.013715399894863367,0.04778739996254444,0.048634999897331,0.10101049998775125,0.10062769986689091,0.29983619996346533
RSVPLG03,sg,20260310-132839,1.0.2,20251105-084826,798,Experiment,Both,1,Automatic,main,18,20260310-133032,global,local,300,H,S,A,A,H-A.png,A-S.png,hH,sS,mask-4.png,mask-3.png,h,1,0.3351306999102235,h,0,0.09097480005584657,0.0478513000998646,0.04759069997817278,0.09969309996813536,0.10095970006659627,0.3000109000131488
RSVPLG03,sg,20260310-132839,1.0.2,20251105-084826,798,Experiment,Both,1,Automatic,main,19,20260310-133036,global,local,300,S,H,A,E,S-A.png,E-H.png,sS,hH,mask-3.png,mask-2.png,h,0,0.40232830005697906,s,0,0.26224750000983477,0.04772999999113381,0.048096299869939685,0.0998120999429375,0.10032309987582266,0.299988100072369
RSVPLG03,sg,20260310-132839,1.0.2,20251105-084826,798,Experiment,Both,1,Automatic,main,20,20260310-133040,global,local,300,H,H,E,A,H-E.png,A-H.png,hH,hH,mask-3.png,mask-4.png,h,1,0.2971941998694092,h,1,0.043679700000211596,0.046592900063842535,0.04649410001002252,0.10059559997171164,0.09857860021293163,0.30086319986730814
RSVPLG03,sg,20260310-132839,1.0.2,20251105-084826,798,Experiment,Both,1,Automatic,main,21,20260310-133044,local,local,300,H,H,A,E,A-H.png,E-H.png,hH,hH,mask-4.png,mask-4.png,h,1,0.36095150001347065,h,1,0.18462869990617037,0.04706769995391369,0.046851899940520525,0.10068490006960928,0.09986949991434813,0.3007090000901371
RSVPLG03,sg,20260310-132839,1.0.2,20251105-084826,798,Experiment,Both,1,Automatic,main,22,20260310-133049,local,global,300,S,H,A,E,A-S.png,H-E.png,sS,hH,mask-2.png,mask-1.png,h,0,0.38540089991874993,h,1,0.11211839993484318,0.04652840015478432,0.047739800065755844,0.09935370017774403,0.10095250001177192,0.29947170009836555
RSVPLG03,sg,20260310-132839,1.0.2,20251105-084826,798,Experiment,Both,1,Automatic,main,23,20260310-133053,global,global,750,H,S,A,A,H-A.png,S-A.png,hH,sS,mask-3.png,mask-2.png,h,1,0.5403908002190292,s,1,0.07803159998729825,0.04594620014540851,0.046672699972987175,0.09909999999217689,0.09989090007729828,0.7500271000899374
RSVPLG03,sg,20260310-132839,1.0.2,20251105-084826,798,Experiment,Both,1,Automatic,main,24,20260310-133058,global,local,300,H,S,E,E,H-E.png,E-S.png,hH,sS,mask-1.png,mask-1.png,h,1,0.44507379992865026,s,1,0.057236399967223406,0.047612000023946166,0.048784200102090836,0.09862189996056259,0.10098640015348792,0.29939839988946915
RSVPLG03,sg,20260310-132839,1.0.2,20251105-084826,798,Experiment,Both,1,Automatic,main,25,20260310-133102,global,global,750,S,S,E,E,S-E.png,S-E.png,sS,sS,mask-1.png,mask-2.png,s,1,0.2556770001538098,s,1,0.0708965000230819,0.04651520005427301,0.04848959995433688,0.09954069997183979,0.10056610009633005,0.7494558999314904
RSVPLG03,sg,20260310-132839,1.0.2,20251105-084826,798,Experiment,Both,1,Automatic,main,26,20260310-133140,global,local,750,H,H,E,E,H-E.png,E-H.png,hH,hH,mask-3.png,mask-4.png,h,1,0.33462810004130006,h,1,0.10100789996795356,0.048499800032004714,0.04650010005570948,0.09959030011668801,0.09960890002548695,0.7513216000515968
RSVPLG03,sg,20260310-132839,1.0.2,20251105-084826,798,Experiment,Both,1,Automatic,main,27,20260310-133144,local,local,750,H,H,A,A,A-H.png,A-H.png,hH,hH,mask-3.png,mask-4.png,h,1,0.29493860015645623,h,1,0.06061779987066984,0.04660360002890229,0.04847549996338785,0.09981900011189282,0.10042180004529655,0.7510925000533462
RSVPLG03,sg,20260310-132839,1.0.2,20251105-084826,798,Experiment,Both,1,Automatic,main,28,20260310-133149,local,global,750,H,S,A,A,A-H.png,S-A.png,hH,sS,mask-1.png,mask-1.png,h,1,0.367653600173071,h,0,0.05792759987525642,0.04720219993032515,0.04589490010403097,0.1003135999199003,0.09897659998387098,0.7505328999832273
RSVPLG03,sg,20260310-132839,1.0.2,20251105-084826,798,Experiment,Both,1,Automatic,main,29,20260310-133153,global,local,750,H,S,E,E,H-E.png,E-S.png,hH,sS,mask-2.png,mask-3.png,h,1,0.5142729000654072,s,1,0.012075100094079971,0.047148700105026364,0.04920490016229451,0.10019699996337295,0.09937930013984442,0.749801900004968
RSVPLG03,sg,20260310-132839,1.0.2,20251105-084826,798,Experiment,Both,1,Automatic,main,30,20260310-133158,local,global,750,S,S,A,E,A-S.png,S-E.png,sS,sS,mask-3.png,mask-4.png,s,1,0.27650669985450804,s,1,0.06021489994600415,0.047561699990183115,0.047528899973258376,0.09865689999423921,0.09955809987150133,0.7501056999899447
RSVPLG03,sg,20260310-132839,1.0.2,20251105-084826,798,Experiment,Both,1,Automatic,main,31,20260310-133202,local,global,300,H,H,A,A,A-H.png,H-A.png,hH,hH,mask-1.png,mask-2.png,h,1,0.5271697998978198,s,0,0.09382670000195503,0.04840230010449886,0.046917099971324205,0.09924060013145208,0.10101470001973212,0.30068630003370345
RSVPLG03,sg,20260310-132839,1.0.2,20251105-084826,798,Experiment,Both,1,Automatic,main,32,20260310-133207,global,global,300,H,S,E,E,H-E.png,S-E.png,hH,sS,mask-4.png,mask-1.png,h,1,0.4000569998752326,s,1,0.631541799986735,0.047555800061672926,0.04658539989031851,0.09955379995517433,0.09900389984250069,0.30011370009742677
RSVPLG03,sg,20260310-132839,1.0.2,20251105-084826,798,Experiment,Both,1,Automatic,main,33,20260310-133211,local,global,300,H,H,A,A,A-H.png,H-A.png,hH,hH,mask-4.png,mask-1.png,h,1,0.6017468001227826,h,1,0.02122410014271736,0.04771049995906651,0.04732250003144145,0.09976129978895187,0.09925820003263652,0.2994218999519944
RSVPLG03,sg,20260310-132839,1.0.2,20251105-084826,798,Experiment,Both,1,Automatic,main,34,20260310-133216,global,local,300,H,S,E,A,H-E.png,A-S.png,hH,sS,mask-2.png,mask-4.png,h,1,0.38555010012350976,h,0,0.18855850002728403,0.04641669988632202,0.04695199988782406,0.09869679994881153,0.09981409995816648,0.29995639994740486
RSVPLG03,sg,20260310-132839,1.0.2,20251105-084826,798,Experiment,Both,1,Automatic,main,35,20260310-133220,local,global,750,S,H,E,E,E-S.png,H-E.png,sS,hH,mask-2.png,mask-2.png,s,1,0.33594670007005334,h,1,0.053907700115814805,0.0467266000341624,0.04774839989840984,0.09895480005070567,0.09985309978947043,0.7513100001960993
RSVPLG03,sg,20260310-132839,1.0.2,20251105-084826,798,Experiment,Both,1,Automatic,main,36,20260310-133225,local,global,750,S,H,A,A,A-S.png,H-A.png,sS,hH,mask-2.png,mask-4.png,s,1,0.34586610016413033,s,0,0.07432149979285896,0.04772399994544685,0.04782660002820194,0.1009323000907898,0.10081660002470016,0.7499820999801159
RSVPLG03,sg,20260310-132839,1.0.2,20251105-084826,798,Experiment,Both,1,Automatic,main,37,20260310-133229,global,global,750,S,H,A,E,S-A.png,H-E.png,sS,hH,mask-1.png,mask-2.png,s,1,0.5370479999110103,h,1,0.7326177000068128,0.046686500078067183,0.04752220003865659,0.09875680017285049,0.1006630000192672,0.7495546999853104
RSVPLG03,sg,20260310-132839,1.0.2,20251105-084826,798,Experiment,Both,1,Automatic,main,38,20260310-133235,local,global,750,S,S,A,E,A-S.png,S-E.png,sS,sS,mask-3.png,mask-1.png,s,1,0.4358059000223875,h,0,0.12214009999297559,0.047524399822577834,0.04851939994841814,0.09853519988246262,0.09955830010585487,0.7499960998538882
RSVPLG03,sg,20260310-132839,1.0.2,20251105-084826,798,Experiment,Both,1,Automatic,main,39,20260310-133239,local,local,750,H,H,A,A,A-H.png,A-H.png,hH,hH,mask-1.png,mask-1.png,h,1,0.17834390001371503,h,1,0.05697619984857738,0.047145199961960316,0.048294899985194206,0.09925520000979304,0.10128659987822175,0.7490066001191735
RSVPLG03,sg,20260310-132839,1.0.2,20251105-084826,798,Experiment,Both,1,Automatic,main,40,20260310-133244,local,local,750,S,S,A,E,A-S.png,E-S.png,sS,sS,mask-1.png,mask-4.png,s,1,0.15795110003091395,s,1,0.0920650998596102,0.04772140015847981,0.04773420002311468,0.10093780001625419,0.10200350009836257,0.7504571001045406
RSVPLG03,sg,20260310-132839,1.0.2,20251105-084826,798,Experiment,Both,1,Automatic,main,41,20260310-133248,global,local,750,S,H,A,A,S-A.png,A-H.png,sS,hH,mask-2.png,mask-4.png,s,1,0.5552727999165654,s,0,0.07427690015174448,0.04775670007802546,0.04751830012537539,0.10002269991673529,0.10070900013670325,0.7514271999243647
RSVPLG03,sg,20260310-132839,1.0.2,20251105-084826,798,Experiment,Both,1,Automatic,main,42,20260310-133253,local,local,750,H,H,A,A,A-H.png,A-H.png,hH,hH,mask-4.png,mask-4.png,h,1,0.29052920010872185,h,1,0.057267799973487854,0.047819299856200814,0.04717770009301603,0.09833349986001849,0.10029789991676807,0.7498212999198586
RSVPLG03,sg,20260310-132839,1.0.2,20251105-084826,798,Experiment,Both,1,Automatic,main,43,20260310-133257,global,global,300,S,H,A,E,S-A.png,H-E.png,sS,hH,mask-4.png,mask-3.png,s,1,0.44137559994123876,h,1,0.020713899983093143,0.047536199912428856,0.045813299948349595,0.10159069998189807,0.09873969992622733,0.3020065000746399
RSVPLG03,sg,20260310-132839,1.0.2,20251105-084826,798,Experiment,Both,1,Automatic,main,44,20260310-133301,global,local,750,H,H,E,A,H-E.png,A-H.png,hH,hH,mask-2.png,mask-1.png,h,1,0.7967662001028657,h,1,0.07775550009682775,0.04706580005586147,0.04587360005825758,0.10000810003839433,0.09892649995163083,0.7514510999899358
RSVPLG03,sg,20260310-132839,1.0.2,20251105-084826,798,Experiment,Both,1,Automatic,main,45,20260310-133306,local,global,750,S,S,E,A,E-S.png,S-A.png,sS,sS,mask-4.png,mask-4.png,s,1,0.37457489990629256,h,0,0.03942630020901561,0.04762209998443723,0.04646000009961426,0.09933329978957772,0.09951209998689592,0.7506740998942405
RSVPLG03,sg,20260310-132839,1.0.2,20251105-084826,798,Experiment,Both,1,Automatic,main,46,20260310-133311,global,local,750,H,H,A,E,H-A.png,E-H.png,hH,hH,mask-3.png,mask-3.png,h,1,0.4926436999812722,h,1,0.13943149987608194,0.047856499906629324,0.047652099980041385,0.10100989998318255,0.09970309981144965,0.750516900094226
RSVPLG03,sg,20260310-132839,1.0.2,20251105-084826,798,Experiment,Both,1,Automatic,main,47,20260310-133316,global,local,300,S,H,A,E,S-A.png,E-H.png,sS,hH,mask-3.png,mask-4.png,s,1,0.35444169980473816,s,0,0.05293269990943372,0.04684270010329783,0.0477076000533998,0.09827040019445121,0.09946550009772182,0.30010330001823604
RSVPLG03,sg,20260310-132839,1.0.2,20251105-084826,798,Experiment,Both,1,Automatic,main,48,20260310-133320,local,local,300,S,S,E,A,E-S.png,A-S.png,sS,sS,mask-4.png,mask-4.png,s,1,0.34985340014100075,s,1,0.08097910019569099,0.04710119985975325,0.04773729993030429,0.09843849996104836,0.10007329983636737,0.29930770001374185
RSVPLG03,sg,20260310-132839,1.0.2,20251105-084826,798,Experiment,Both,1,Automatic,main,49,20260310-133324,local,global,300,S,S,A,A,A-S.png,S-A.png,sS,sS,mask-4.png,mask-1.png,s,1,0.234182900050655,h,0,0.03236369998194277,0.0467229001224041,0.04772239993326366,0.09990980010479689,0.09999189991503954,0.299341700039804
RSVPLG03,sg,20260310-132839,1.0.2,20251105-084826,798,Experiment,Both,1,Automatic,main,50,20260310-133328,local,global,300,H,S,A,E,A-H.png,S-E.png,hH,sS,mask-3.png,mask-1.png,h,1,0.268080199835822,h,0,0.07938459981232882,0.047154099913313985,0.047237300081178546,0.10004219994880259,0.09875499992631376,0.2999660999048501
RSVPLG03,sg,20260310-132839,1.0.2,20251105-084826,798,Experiment,Both,1,Automatic,main,51,20260310-133347,global,local,300,H,S,E,E,H-E.png,E-S.png,hH,sS,mask-1.png,mask-4.png,h,1,0.3370028999634087,h,0,0.07255009980872273,0.04687449987977743,0.04753089998848736,0.09908799990080297,0.1018928000703454,0.29926749994046986
RSVPLG03,sg,20260310-132839,1.0.2,20251105-084826,798,Experiment,Both,1,Automatic,main,52,20260310-133351,local,local,300,H,H,E,E,E-H.png,E-H.png,hH,hH,mask-4.png,mask-1.png,h,1,0.2860558000393212,h,1,0.03912810003384948,0.045404599979519844,0.04719970002770424,0.09854459995403886,0.10046930005773902,0.29914409993216395
RSVPLG03,sg,20260310-132839,1.0.2,20251105-084826,798,Experiment,Both,1,Automatic,main,53,20260310-133355,global,local,300,H,H,A,A,H-A.png,A-H.png,hH,hH,mask-2.png,mask-1.png,h,1,0.2825629999861121,s,0,0.18499489990063012,0.04858940001577139,0.047447700053453445,0.10161120002157986,0.10124220000579953,0.3008814000058919
RSVPLG03,sg,20260310-132839,1.0.2,20251105-084826,798,Experiment,Both,1,Automatic,main,54,20260310-133359,local,local,750,S,S,A,A,A-S.png,A-S.png,sS,sS,mask-2.png,mask-4.png,s,1,0.17212089989334345,s,1,0.05274780001491308,0.04842529981397092,0.04907889990136027,0.10129270004108548,0.10126199992373586,0.751931699924171
RSVPLG03,sg,20260310-132839,1.0.2,20251105-084826,798,Experiment,Both,1,Automatic,main,55,20260310-133404,local,global,300,S,S,E,A,E-S.png,S-A.png,sS,sS,mask-3.png,mask-4.png,s,1,0.33541940012946725,s,1,0.06559659983031452,0.04770489991642535,0.04669110011309385,0.09987529995851219,0.10091540007852018,0.30077319988049567
RSVPLG03,sg,20260310-132839,1.0.2,20251105-084826,798,Experiment,Both,1,Automatic,main,56,20260310-133408,global,global,300,S,H,E,A,S-E.png,H-A.png,sS,hH,mask-2.png,mask-1.png,s,1,0.48384919995442033,h,1,0.05452340003103018,0.047713000094518065,0.04695390001870692,0.09921770007349551,0.10029960004612803,0.30018060002475977
RSVPLG03,sg,20260310-132839,1.0.2,20251105-084826,798,Experiment,Both,1,Automatic,main,57,20260310-133412,global,local,750,H,H,A,A,H-A.png,A-H.png,hH,hH,mask-4.png,mask-2.png,h,1,0.15889089996926486,h,1,0.05871160002425313,0.04933280008845031,0.04783970001153648,0.10046260012313724,0.10098650003783405,0.7514853000175208
RSVPLG03,sg,20260310-132839,1.0.2,20251105-084826,798,Experiment,Both,1,Automatic,main,58,20260310-133416,global,global,300,S,S,A,A,S-A.png,S-A.png,sS,sS,mask-2.png,mask-4.png,s,1,0.26106469985097647,s,1,0.05823140009306371,0.047650699969381094,0.04652980016544461,0.10005140001885593,0.09971910016611218,0.300742199877277
RSVPLG03,sg,20260310-132839,1.0.2,20251105-084826,798,Experiment,Both,1,Automatic,main,59,20260310-133420,local,local,750,S,H,E,E,E-S.png,E-H.png,sS,hH,mask-1.png,mask-4.png,s,1,0.6172725998330861,s,0,0.059497500071302056,0.04771479987539351,0.04748840001411736,0.09980869991704822,0.10040430002845824,0.7511908998712897
RSVPLG03,sg,20260310-132839,1.0.2,20251105-084826,798,Experiment,Both,1,Automatic,main,60,20260310-133425,global,global,750,S,H,A,E,S-A.png,H-E.png,sS,hH,mask-1.png,mask-2.png,s,1,1.2166537002194673,h,1,0.1328716001007706,0.047408999875187874,0.04889849992468953,0.10095739993266761,0.10111490008421242,0.7502053999342024
RSVPLG03,sg,20260310-132839,1.0.2,20251105-084826,798,Experiment,Both,1,Automatic,main,61,20260310-133431,global,local,750,S,H,A,A,S-A.png,A-H.png,sS,hH,mask-1.png,mask-4.png,s,1,0.3212228000629693,h,1,0.13886489998549223,0.04857999994419515,0.046723200008273125,0.10046290000900626,0.09990140004083514,0.7516264000441879
RSVPLG03,sg,20260310-132839,1.0.2,20251105-084826,798,Experiment,Both,1,Automatic,main,62,20260310-133435,global,local,750,H,H,A,A,H-A.png,A-H.png,hH,hH,mask-1.png,mask-3.png,h,1,0.18811780004762113,h,1,0.07365629984997213,0.04861010005697608,0.04752380005083978,0.100576400058344,0.09859320009127259,0.7529146999586374
RSVPLG03,sg,20260310-132839,1.0.2,20251105-084826,798,Experiment,Both,1,Automatic,main,63,20260310-133440,local,global,750,S,H,A,A,A-S.png,H-A.png,sS,hH,mask-4.png,mask-4.png,s,1,0.27837800001725554,h,1,0.23085980000905693,0.047564399894326925,0.04751840000972152,0.10058589978143573,0.10088270017877221,0.7506485998164862
RSVPLG03,sg,20260310-132839,1.0.2,20251105-084826,798,Experiment,Both,1,Automatic,main,64,20260310-133444,local,local,750,S,H,A,A,A-S.png,A-H.png,sS,hH,mask-2.png,mask-2.png,s,1,0.36562850000336766,h,1,0.025891799945384264,0.04753300012089312,0.04653710010461509,0.09956760006025434,0.09830630011856556,0.7511479000095278
RSVPLG03,sg,20260310-132839,1.0.2,20251105-084826,798,Experiment,Both,1,Automatic,main,65,20260310-133449,global,global,300,S,S,A,A,S-A.png,S-A.png,sS,sS,mask-4.png,mask-1.png,s,1,1.0150410998612642,s,1,0.043143099872395396,0.04749440005980432,0.04735790006816387,0.10044039995409548,0.1002700999379158,0.30035319994203746
RSVPLG03,sg,20260310-132839,1.0.2,20251105-084826,798,Experiment,Both,1,Automatic,main,66,20260310-133454,global,local,300,H,S,A,E,H-A.png,E-S.png,hH,sS,mask-2.png,mask-1.png,h,1,0.38355310005135834,s,1,0.13715039985254407,0.046739700017496943,0.047786900075152516,0.10000699991360307,0.10192929999902844,0.29975149990059435
RSVPLG03,sg,20260310-132839,1.0.2,20251105-084826,798,Experiment,Both,1,Automatic,main,67,20260310-133458,global,global,750,H,S,A,A,H-A.png,S-A.png,hH,sS,mask-1.png,mask-2.png,h,1,0.4048282001167536,s,1,0.7934433999471366,0.04685069993138313,0.04659899999387562,0.10092050000093877,0.1006170001346618,0.7517249998636544
RSVPLG03,sg,20260310-132839,1.0.2,20251105-084826,798,Experiment,Both,1,Automatic,main,68,20260310-133503,global,global,750,S,S,A,A,S-A.png,S-A.png,sS,sS,mask-2.png,mask-2.png,s,1,0.225055200047791,s,1,0.060840100049972534,0.04857180011458695,0.048560200026258826,0.09964230004698038,0.09996160003356636,0.7501884000375867
RSVPLG03,sg,20260310-132839,1.0.2,20251105-084826,798,Experiment,Both,1,Automatic,main,69,20260310-133508,local,local,300,H,S,A,E,A-H.png,E-S.png,hH,sS,mask-3.png,mask-4.png,s,0,0.6725917998701334,h,0,0.5721456001047045,0.047684899996966124,0.04751619999296963,0.09985410002991557,0.10053079994395375,0.30008479999378324
RSVPLG03,sg,20260310-132839,1.0.2,20251105-084826,798,Experiment,Both,1,Automatic,main,70,20260310-133513,global,global,750,S,S,A,A,S-A.png,S-A.png,sS,sS,mask-4.png,mask-1.png,s,1,0.497589300153777,s,1,0.07584699988365173,0.04726130003109574,0.04957789997570217,0.0983131998218596,0.1005971000995487,0.7489326999057084
RSVPLG03,sg,20260310-132839,1.0.2,20251105-084826,798,Experiment,Both,1,Automatic,main,71,20260310-133517,global,local,750,S,S,A,A,S-A.png,A-S.png,sS,sS,mask-3.png,mask-4.png,s,1,0.23899530014023185,s,1,0.05928610009141266,0.04526940011419356,0.04858929989859462,0.09912539995275438,0.099916199920699,0.7491361000575125
RSVPLG03,sg,20260310-132839,1.0.2,20251105-084826,798,Experiment,Both,1,Automatic,main,72,20260310-133522,global,global,750,H,S,A,A,H-A.png,S-A.png,hH,sS,mask-1.png,mask-1.png,h,1,0.3252185999881476,s,1,0.006861699977889657,0.047495300183072686,0.047145399963483214,0.10060700005851686,0.09957550000399351,0.7504039001651108
RSVPLG03,sg,20260310-132839,1.0.2,20251105-084826,798,Experiment,Both,1,Automatic,main,73,20260310-133526,local,global,300,H,H,E,A,E-H.png,H-A.png,hH,hH,mask-4.png,mask-4.png,h,1,0.5772571000270545,h,1,0.0566722999792546,0.04772699996829033,0.048493299866095185,0.10096230008639395,0.10159159987233579,0.29948740010149777
RSVPLG03,sg,20260310-132839,1.0.2,20251105-084826,798,Experiment,Both,1,Automatic,main,74,20260310-133530,local,global,750,S,S,A,E,A-S.png,S-E.png,sS,sS,mask-4.png,mask-2.png,s,1,0.4125869998242706,s,1,0.054338299902155995,0.04881200008094311,0.04669700004160404,0.10204860009253025,0.09989170008338988,0.753111399943009
RSVPLG03,sg,20260310-132839,1.0.2,20251105-084826,798,Experiment,Both,1,Automatic,main,75,20260310-133535,local,local,300,S,H,A,E,A-S.png,E-H.png,sS,hH,mask-3.png,mask-1.png,s,1,0.4214180000126362,h,1,0.014982799999415874,0.04697030014358461,0.04760430008172989,0.09976810007356107,0.09983809990808368,0.300464800093323
RSVPLG03,sg,20260310-132839,1.0.2,20251105-084826,798,Experiment,Both,1,Automatic,main,76,20260310-133554,local,local,300,S,H,E,E,E-S.png,E-H.png,sS,hH,mask-4.png,mask-1.png,s,1,0.3527935999445617,h,1,0.10499659995548427,0.04756650002673268,0.04899540008045733,0.09969089995138347,0.10046200011856854,0.300032899947837
RSVPLG03,sg,20260310-132839,1.0.2,20251105-084826,798,Experiment,Both,1,Automatic,main,77,20260310-133559,global,global,300,H,S,E,A,H-E.png,S-A.png,hH,sS,mask-3.png,mask-1.png,h,1,0.41719069983810186,s,1,0.03556580003350973,0.04656929988414049,0.04656039993278682,0.09973909985274076,0.09905429999344051,0.3003020999021828
RSVPLG03,sg,20260310-132839,1.0.2,20251105-084826,798,Experiment,Both,1,Automatic,main,78,20260310-133603,global,global,750,H,S,E,A,H-E.png,S-A.png,hH,sS,mask-2.png,mask-2.png,h,1,0.32703309995122254,s,1,0.013344299979507923,0.047543699853122234,0.04846670012921095,0.10057049989700317,0.09938349993899465,0.7508141999132931
RSVPLG03,sg,20260310-132839,1.0.2,20251105-084826,798,Experiment,Both,1,Automatic,main,79,20260310-133607,global,local,300,S,S,A,E,S-A.png,E-S.png,sS,sS,mask-1.png,mask-2.png,s,1,0.242852000053972,s,1,0.05929989996366203,0.04756700014695525,0.04857189999893308,0.09806360001675785,0.10167420003563166,0.2987194999586791
RSVPLG03,sg,20260310-132839,1.0.2,20251105-084826,798,Experiment,Both,1,Automatic,main,80,20260310-133611,local,local,750,S,H,A,A,A-S.png,A-H.png,sS,hH,mask-2.png,mask-4.png,s,1,0.2413057000376284,h,1,0.01261620013974607,0.04643499990925193,0.047184200026094913,0.09852539980784059,0.09913549991324544,0.7502254999708384
RSVPLG03,sg,20260310-132839,1.0.2,20251105-084826,798,Experiment,Both,1,Automatic,main,81,20260310-133616,local,local,300,H,H,A,A,A-H.png,A-H.png,hH,hH,mask-2.png,mask-2.png,h,1,0.2654343000613153,h,1,0.06056710006669164,0.04799069999717176,0.04756690002977848,0.10114070004783571,0.10068919998593628,0.30058209993876517
RSVPLG03,sg,20260310-132839,1.0.2,20251105-084826,798,Experiment,Both,1,Automatic,main,82,20260310-133620,global,global,300,H,S,E,E,H-E.png,S-E.png,hH,sS,mask-4.png,mask-3.png,h,1,0.30277969990856946,s,1,0.043394999811425805,0.04851830005645752,0.04753149999305606,0.09954320010729134,0.10058240010403097,0.30114470003172755
RSVPLG03,sg,20260310-132839,1.0.2,20251105-084826,798,Experiment,Both,1,Automatic,main,83,20260310-133624,local,global,300,H,S,E,A,E-H.png,S-A.png,hH,sS,mask-4.png,mask-4.png,h,1,0.3849436999298632,s,1,0.04241540003567934,0.04869819991290569,0.046523600118234754,0.09987169993110001,0.09949520020745695,0.3015224998816848
RSVPLG03,sg,20260310-132839,1.0.2,20251105-084826,798,Experiment,Both,1,Automatic,main,84,20260310-133628,local,global,300,H,S,E,A,E-H.png,S-A.png,hH,sS,mask-1.png,mask-3.png,h,1,0.2654132000170648,s,1,0.3934239998925477,0.047704200027510524,0.04749259981326759,0.09966599987819791,0.09999059978872538,0.30001590005122125
RSVPLG03,sg,20260310-132839,1.0.2,20251105-084826,798,Experiment,Both,1,Automatic,main,85,20260310-133632,local,local,300,S,S,E,E,E-S.png,E-S.png,sS,sS,mask-4.png,mask-4.png,s,1,0.17537090019322932,s,1,0.06104680011048913,0.048742700135335326,0.04681949992664158,0.10033469996415079,0.1001027999445796,0.3010547000449151
RSVPLG03,sg,20260310-132839,1.0.2,20251105-084826,798,Experiment,Both,1,Automatic,main,86,20260310-133636,local,local,300,H,H,A,A,A-H.png,A-H.png,hH,hH,mask-4.png,mask-1.png,h,1,0.24255759990774095,h,1,0.07702800002880394,0.047569300048053265,0.04960969998501241,0.09962649992667139,0.10067819990217686,0.2991341999731958
RSVPLG03,sg,20260310-132839,1.0.2,20251105-084826,798,Experiment,Both,1,Automatic,main,87,20260310-133640,local,global,300,H,S,E,E,E-H.png,S-E.png,hH,sS,mask-1.png,mask-3.png,h,1,0.3005522999446839,h,0,0.09272040007635951,0.04929460003040731,0.04690720001235604,0.10008549992926419,0.10098390001803637,0.3009269000031054
RSVPLG03,sg,20260310-132839,1.0.2,20251105-084826,798,Experiment,Both,1,Automatic,main,88,20260310-133644,global,global,750,S,S,E,A,S-E.png,S-A.png,sS,sS,mask-2.png,mask-1.png,s,1,0.1935529001057148,s,1,0.043299000011757016,0.04874269990250468,0.047592699993401766,0.10160269984044135,0.09967570006847382,0.7518397998064756
RSVPLG03,sg,20260310-132839,1.0.2,20251105-084826,798,Experiment,Both,1,Automatic,main,89,20260310-133648,local,global,750,H,H,A,E,A-H.png,H-E.png,hH,hH,mask-3.png,mask-1.png,h,1,0.356474099913612,s,0,0.05946559994481504,0.047566400142386556,0.047468299977481365,0.09958359994925559,0.09941100003197789,0.7500668000429869
RSVPLG03,sg,20260310-132839,1.0.2,20251105-084826,798,Experiment,Both,1,Automatic,main,90,20260310-133652,global,global,750,S,S,A,A,S-A.png,S-A.png,sS,sS,mask-3.png,mask-3.png,s,1,0.27188310003839433,s,1,0.057187900179997087,0.04815410007722676,0.046413599979132414,0.09941269992850721,0.10033429996110499,0.7512302999384701
RSVPLG03,sg,20260310-132839,1.0.2,20251105-084826,798,Experiment,Both,1,Automatic,main,91,20260310-133657,local,local,300,H,H,E,E,E-H.png,E-H.png,hH,hH,mask-2.png,mask-2.png,h,1,0.656015100190416,h,1,0.05691569996997714,0.04752729996107519,0.04663680004887283,0.10054789995774627,0.09923910000361502,0.3011173999402672
RSVPLG03,sg,20260310-132839,1.0.2,20251105-084826,798,Experiment,Both,1,Automatic,main,92,20260310-133701,global,global,300,H,H,E,A,H-E.png,H-A.png,hH,hH,mask-4.png,mask-2.png,h,1,0.2404694000724703,h,1,0.0590085000731051,0.04880720004439354,0.04760629986412823,0.10089970007538795,0.09971360000781715,0.30126770003698766
RSVPLG03,sg,20260310-132839,1.0.2,20251105-084826,798,Experiment,Both,1,Automatic,main,93,20260310-133705,local,global,750,H,H,A,A,A-H.png,H-A.png,hH,hH,mask-4.png,mask-3.png,h,1,0.252028499962762,h,1,0.041321200085803866,0.047661300050094724,0.04656209982931614,0.09969280008226633,0.09975619986653328,0.7506256001070142
RSVPLG03,sg,20260310-132839,1.0.2,20251105-084826,798,Experiment,Both,1,Automatic,main,94,20260310-133710,global,global,750,H,S,A,A,H-A.png,S-A.png,hH,sS,mask-3.png,mask-1.png,h,1,0.32795229996554554,s,1,0.022870000218972564,0.04703909996896982,0.04686569981276989,0.10024569998495281,0.10126769985072315,0.750189300160855
RSVPLG03,sg,20260310-132839,1.0.2,20251105-084826,798,Experiment,Both,1,Automatic,main,95,20260310-133714,global,local,300,H,S,A,A,H-A.png,A-S.png,hH,sS,mask-2.png,mask-2.png,h,1,0.3186663999222219,s,1,0.0066148999612778425,0.04677679995074868,0.04771979991346598,0.10005089989863336,0.09992709988728166,0.2996567999944091
RSVPLG03,sg,20260310-132839,1.0.2,20251105-084826,798,Experiment,Both,1,Automatic,main,96,20260310-133718,global,global,300,S,H,A,A,S-A.png,H-A.png,sS,hH,mask-1.png,mask-4.png,s,1,0.32306749979034066,h,1,0.030498000094667077,0.048523700097575784,0.04715800005942583,0.10054469993337989,0.10023509990423918,0.3001941000111401
RSVPLG03,sg,20260310-132839,1.0.2,20251105-084826,798,Experiment,Both,1,Automatic,main,97,20260310-133722,global,local,300,H,S,E,E,H-E.png,E-S.png,hH,sS,mask-4.png,mask-3.png,h,1,0.2965113001409918,s,1,0.014489799970760942,0.047773499973118305,0.04778919997625053,0.10010519996285439,0.10147709981538355,0.29978570016101
RSVPLG03,sg,20260310-132839,1.0.2,20251105-084826,798,Experiment,Both,1,Automatic,main,98,20260310-133726,local,global,750,S,H,E,E,E-S.png,H-E.png,sS,hH,mask-4.png,mask-2.png,s,1,0.20386369992047548,s,0,0.38137130020186305,0.04722509998828173,0.0471002000849694,0.09932989999651909,0.10010470007546246,0.7508036999497563
RSVPLG03,sg,20260310-132839,1.0.2,20251105-084826,798,Experiment,Both,1,Automatic,main,99,20260310-133731,local,local,300,S,S,E,A,E-S.png,A-S.png,sS,sS,mask-1.png,mask-2.png,s,1,0.15864129993133247,s,1,0.05567110003903508,0.046565000200644135,0.047588299959897995,0.09961540019139647,0.10062279994599521,0.30001020012423396
RSVPLG03,sg,20260310-132839,1.0.2,20251105-084826,798,Experiment,Both,1,Automatic,main,100,20260310-133735,global,local,750,H,S,A,E,H-A.png,E-S.png,hH,sS,mask-3.png,mask-2.png,h,1,0.37365399999544024,s,1,0.03550560004077852,0.046714600175619125,0.047762899892404675,0.09814360016025603,0.09893249999731779,0.7508758001495153
