exp,exp_initials,runtime,ver,modtime,sub,blocktype,targets,cuetype,mode,trialtype,trial,trialtime,t1_level,t2_level,t2_lag,t1,t2,distractor1,distractor2,stimfile1,stimfile2,t1_corr,t2_corr,maskfile1,maskfile2,t1_resp,t1_acc,t1_rt,t2_resp,t2_acc,t2_rt,t1_dur,t2_dur,t1mask_soa,t2mask_soa,t1t2_soa
RSVPLG03,JM,20260311-100351,1.0.2,20251105-084826,803,Introduction,T1,1,Automatic,main,1,20260311-100413,local,global,750,H,S,A,E,A-H.png,S-E.png,hH,sS,mask-3.png,mask-2.png,h,1,1.0124307998921722,none,-5,0,0.09147980017587543,0.09734439989551902,0.19333810009993613,0.1998219999950379,0.7437293000984937
RSVPLG03,JM,20260311-100351,1.0.2,20251105-084826,803,Introduction,T1,1,Automatic,main,2,20260311-100419,global,local,750,S,H,E,E,S-E.png,E-H.png,sS,hH,mask-2.png,mask-4.png,h,0,1.4915253999643028,none,-5,0,0.09754320001229644,0.09752269997261465,0.19955849996767938,0.20064570009708405,0.7500569000840187
RSVPLG03,JM,20260311-100351,1.0.2,20251105-084826,803,Introduction,T1,1,Automatic,main,3,20260311-100424,local,local,750,S,H,E,A,E-S.png,A-H.png,sS,hH,mask-3.png,mask-2.png,s,1,1.3000201000832021,none,-5,0,0.09540129988454282,0.09760019998066127,0.19961349992081523,0.19963090005330741,0.7494475999847054
RSVPLG03,JM,20260311-100351,1.0.2,20251105-084826,803,Introduction,T1,1,Automatic,main,4,20260311-100430,local,global,750,H,S,A,A,A-H.png,S-A.png,hH,sS,mask-4.png,mask-3.png,h,1,1.7466851000208408,none,-5,0,0.09678889997303486,0.09665089985355735,0.19992359983734787,0.19968719989992678,0.7491866999771446
RSVPLG03,JM,20260311-100351,1.0.2,20251105-084826,803,Introduction,T1,1,Automatic,main,5,20260311-100436,global,local,750,S,S,A,E,S-A.png,E-S.png,sS,sS,mask-1.png,mask-2.png,h,0,2.302967300172895,none,-5,0,0.0975291000213474,0.09656580002047122,0.20054810005240142,0.19957199995405972,0.750216200016439
RSVPLG03,JM,20260311-100351,1.0.2,20251105-084826,803,Introduction,T1,1,Automatic,main,6,20260311-100442,global,global,750,S,H,E,E,S-E.png,H-E.png,sS,hH,mask-3.png,mask-3.png,h,0,1.5603411998599768,none,-5,0,0.09752819989807904,0.09753770008683205,0.20023419987410307,0.19959360011853278,0.7506583998911083
RSVPLG03,JM,20260311-100351,1.0.2,20251105-084826,803,Introduction,T1,1,Automatic,main,7,20260311-100448,local,local,750,S,S,A,E,A-S.png,E-S.png,sS,sS,mask-4.png,mask-1.png,s,1,1.2168901998084038,none,-5,0,0.0959496998693794,0.0974679000210017,0.19979999982751906,0.19958740007132292,0.7499495998490602
RSVPLG03,JM,20260311-100351,1.0.2,20251105-084826,803,Introduction,T1,1,Automatic,main,8,20260311-100453,local,local,750,S,H,E,E,E-S.png,E-H.png,sS,hH,mask-1.png,mask-3.png,h,0,1.5137636000290513,none,-5,0,0.09754089987836778,0.09751980006694794,0.1995928999967873,0.1995556999463588,0.7499933999497443
RSVPLG03,JM,20260311-100351,1.0.2,20251105-084826,803,Introduction,T1,1,Automatic,main,9,20260311-100459,global,local,750,S,H,E,A,S-E.png,A-H.png,sS,hH,mask-1.png,mask-2.png,h,0,1.4057090000715107,none,-5,0,0.09738420019857585,0.09939160011708736,0.19922760012559593,0.20024330005981028,0.7490336000919342
RSVPLG03,JM,20260311-100351,1.0.2,20251105-084826,803,Introduction,T1,1,Automatic,main,10,20260311-100505,local,global,750,S,H,E,E,E-S.png,H-E.png,sS,hH,mask-1.png,mask-2.png,s,1,2.7927081000525504,none,-5,0,0.09738669986836612,0.09654649998992682,0.20016439980827272,0.20060859993100166,0.749238699907437
RSVPLG03,JM,20260311-100351,1.0.2,20251105-084826,803,Introduction,T1,1,Automatic,main,11,20260311-100511,local,global,750,S,H,A,E,A-S.png,H-E.png,sS,hH,mask-4.png,mask-3.png,s,1,2.5327542999293655,none,-5,0,0.09866419993340969,0.09754649992100894,0.20170109998434782,0.20158759993501008,0.7500720000825822
RSVPLG03,JM,20260311-100351,1.0.2,20251105-084826,803,Introduction,T1,1,Automatic,main,12,20260311-100518,global,global,750,H,H,A,E,H-A.png,H-E.png,hH,hH,mask-2.png,mask-4.png,h,1,2.800447199959308,none,-5,0,0.09844029997475445,0.09751619980670512,0.20047849998809397,0.199363199993968,0.7501539001241326
RSVPLG03,JM,20260311-100351,1.0.2,20251105-084826,803,Introduction,T1,1,Automatic,main,13,20260311-100525,local,local,750,H,H,E,A,E-H.png,A-H.png,hH,hH,mask-2.png,mask-3.png,h,1,0.9356204997748137,none,-5,0,0.09739880007691681,0.09810810000635684,0.19935739994980395,0.20100799994543195,0.748902800027281
RSVPLG03,JM,20260311-100351,1.0.2,20251105-084826,803,Introduction,T1,1,Automatic,main,14,20260311-100530,global,local,750,H,H,A,A,H-A.png,A-H.png,hH,hH,mask-2.png,mask-3.png,s,0,1.7218365999870002,none,-5,0,0.09597550006583333,0.09628010005690157,0.19918340002186596,0.20031520002521574,0.7496440999675542
RSVPLG03,JM,20260311-100351,1.0.2,20251105-084826,803,Introduction,T1,1,Automatic,main,15,20260311-100536,global,global,750,H,S,E,E,H-E.png,S-E.png,hH,sS,mask-1.png,mask-2.png,h,1,0.677113699959591,none,-5,0,0.09837829996831715,0.09653730015270412,0.19948079995810986,0.19963260018266737,0.7503549999091774
RSVPLG03,JM,20260311-100351,1.0.2,20251105-084826,803,Introduction,T1,1,Automatic,main,16,20260311-100541,global,global,750,S,S,A,A,S-A.png,S-A.png,sS,sS,mask-4.png,mask-1.png,s,1,1.0197336999699473,none,-5,0,0.09745100000873208,0.09759919997304678,0.20046279998496175,0.19982670014724135,0.7505093000363559
RSVPLG03,JM,20260311-100641,1.0.2,20251105-084826,803,Introduction,Both,1,Automatic,main,1,20260311-100658,local,local,750,H,H,A,A,A-H.png,A-H.png,hH,hH,mask-1.png,mask-1.png,h,1,1.4806850999593735,h,1,1.8209603000432253,0.09148359997197986,0.09928770014084876,0.19371110014617443,0.19985900004394352,0.7434300000313669
RSVPLG03,JM,20260311-100641,1.0.2,20251105-084826,803,Introduction,Both,1,Automatic,main,2,20260311-100705,local,local,750,S,S,A,E,A-S.png,E-S.png,sS,sS,mask-4.png,mask-3.png,s,1,2.188813199987635,h,0,1.076704900013283,0.09738140017725527,0.09632020001299679,0.20125010004267097,0.19947720016352832,0.7510633000638336
RSVPLG03,JM,20260311-100641,1.0.2,20251105-084826,803,Introduction,Both,1,Automatic,main,3,20260311-100713,local,global,750,S,H,A,A,A-S.png,H-A.png,sS,hH,mask-1.png,mask-4.png,s,1,1.4726738000754267,h,1,1.3774355000350624,0.09638370014727116,0.09912019991315901,0.20000430010259151,0.20011909981258214,0.7482826001942158
RSVPLG03,JM,20260311-100641,1.0.2,20251105-084826,803,Introduction,Both,1,Automatic,main,4,20260311-100720,global,global,750,S,H,E,E,S-E.png,H-E.png,sS,hH,mask-4.png,mask-1.png,s,1,1.4008965000975877,h,1,0.9542697998695076,0.09702159999869764,0.09846040001139045,0.19804619997739792,0.19947120011784136,0.7484673999715596
RSVPLG03,JM,20260311-100641,1.0.2,20251105-084826,803,Introduction,Both,1,Automatic,main,5,20260311-100726,local,global,750,H,H,E,A,E-H.png,H-A.png,hH,hH,mask-2.png,mask-3.png,h,1,1.124834799906239,s,0,0.9873377000913024,0.0972077997867018,0.09612969984300435,0.20027549983933568,0.19929519994184375,0.7511740999761969
RSVPLG03,JM,20260311-100641,1.0.2,20251105-084826,803,Introduction,Both,1,Automatic,main,6,20260311-100733,local,global,750,S,H,A,A,A-S.png,H-A.png,sS,hH,mask-3.png,mask-2.png,s,1,2.178210200043395,h,1,0.2778127999044955,0.09720729989930987,0.09704629983752966,0.19970029988326132,0.1994874000083655,0.7501775999553502
RSVPLG03,JM,20260311-100641,1.0.2,20251105-084826,803,Introduction,Both,1,Automatic,main,7,20260311-100739,global,global,750,H,H,A,A,H-A.png,H-A.png,hH,hH,mask-1.png,mask-4.png,h,1,1.1298742999788374,h,1,0.4279978999402374,0.0975343999452889,0.09758419985882938,0.198884499957785,0.19963999977335334,0.7499257000163198
RSVPLG03,JM,20260311-100641,1.0.2,20251105-084826,803,Introduction,Both,1,Automatic,main,8,20260311-100745,global,local,750,H,H,A,E,H-A.png,E-H.png,hH,hH,mask-1.png,mask-1.png,h,1,2.114153299946338,s,0,0.3005368998274207,0.09774870006367564,0.09772660001181066,0.20188340009190142,0.19989429996348917,0.7501876000314951
RSVPLG03,JM,20260311-100641,1.0.2,20251105-084826,803,Introduction,Both,1,Automatic,main,9,20260311-100752,local,local,750,H,S,A,E,A-H.png,E-S.png,hH,sS,mask-4.png,mask-3.png,h,1,3.095861099893227,h,0,0.2973178999964148,0.0974475999828428,0.09744150005280972,0.20049539976753294,0.19948459998704493,0.7504365998320282
RSVPLG03,JM,20260311-100641,1.0.2,20251105-084826,803,Introduction,Both,1,Automatic,main,10,20260311-100800,local,local,750,S,S,A,E,A-S.png,E-S.png,sS,sS,mask-2.png,mask-4.png,s,1,0.9959023999981582,s,1,0.44187390012666583,0.0975815998390317,0.09633029997348785,0.2016278998926282,0.20038159983232617,0.7512109000235796
RSVPLG03,JM,20260311-100641,1.0.2,20251105-084826,803,Introduction,Both,1,Automatic,main,11,20260311-100805,local,global,750,H,S,E,E,E-H.png,S-E.png,hH,sS,mask-3.png,mask-1.png,h,1,1.5094981000293046,s,1,0.36463019996881485,0.09641240001656115,0.09667930006980896,0.2002888999413699,0.19859200017526746,0.7504538998473436
RSVPLG03,JM,20260311-100641,1.0.2,20251105-084826,803,Introduction,Both,1,Automatic,main,12,20260311-100812,global,local,750,H,S,A,E,H-A.png,E-S.png,hH,sS,mask-1.png,mask-2.png,h,1,1.3916983001399785,s,1,0.44394430005922914,0.09735299996100366,0.09713559993542731,0.2002000999636948,0.20007069990970194,0.7500771000050008
RSVPLG03,JM,20260311-100641,1.0.2,20251105-084826,803,Introduction,Both,1,Automatic,main,13,20260311-100818,global,global,750,H,S,A,E,H-A.png,S-E.png,hH,sS,mask-3.png,mask-3.png,h,1,0.8414654000662267,s,1,0.13999229995533824,0.09907529992051423,0.09739449992775917,0.2008493000175804,0.20025189989246428,0.7514659001026303
RSVPLG03,JM,20260311-100641,1.0.2,20251105-084826,803,Introduction,Both,1,Automatic,main,14,20260311-100823,global,local,750,S,H,A,E,S-A.png,E-H.png,sS,hH,mask-3.png,mask-1.png,s,1,1.4186124000698328,s,0,0.3110065998043865,0.09739780006930232,0.0973857999779284,0.1984029000159353,0.2002864999230951,0.7485225000418723
RSVPLG03,JM,20260311-100641,1.0.2,20251105-084826,803,Introduction,Both,1,Automatic,main,15,20260311-100829,global,global,750,S,H,E,E,S-E.png,H-E.png,sS,hH,mask-4.png,mask-3.png,s,1,1.0382329998537898,h,1,0.11761459987610579,0.09843720006756485,0.09737590001896024,0.20115939993411303,0.19922160007990897,0.7516610999591649
RSVPLG03,JM,20260311-100641,1.0.2,20251105-084826,803,Introduction,Both,1,Automatic,main,16,20260311-100834,global,local,750,S,H,E,E,S-E.png,E-H.png,sS,hH,mask-1.png,mask-3.png,s,1,1.8952786000445485,s,0,0.12259159982204437,0.09712999989278615,0.0984572998713702,0.19825909985229373,0.19933860003948212,0.7488345999736339
RSVPLG03,JM,20260311-100857,1.0.2,20251105-084826,803,Practice,T1,1,Automatic,main,1,20260311-100921,global,global,750,H,S,A,A,H-A.png,S-A.png,hH,sS,mask-2.png,mask-2.png,h,1,1.4862784000579268,none,-5,0,0.04087119991891086,0.04859629995189607,0.09414809988811612,0.10117949987761676,0.7430960000492632
RSVPLG03,JM,20260311-100857,1.0.2,20251105-084826,803,Practice,T1,1,Automatic,main,2,20260311-100926,global,local,300,H,S,E,E,H-E.png,E-S.png,hH,sS,mask-3.png,mask-1.png,h,1,0.684738899813965,none,-5,0,0.04868550016544759,0.04751289985142648,0.10090179997496307,0.0993951999116689,0.30163700017146766
RSVPLG03,JM,20260311-100857,1.0.2,20251105-084826,803,Practice,T1,1,Automatic,main,3,20260311-100931,global,local,750,S,S,A,E,S-A.png,E-S.png,sS,sS,mask-4.png,mask-1.png,s,1,0.5041265999898314,none,-5,0,0.048674199962988496,0.04769719997420907,0.10087740002200007,0.09990339982323349,0.7504659001715481
RSVPLG03,JM,20260311-100857,1.0.2,20251105-084826,803,Practice,T1,1,Automatic,main,4,20260311-100935,local,global,750,S,H,A,E,A-S.png,H-E.png,sS,hH,mask-2.png,mask-2.png,s,1,0.47060579992830753,none,-5,0,0.047514099860563874,0.04950940003618598,0.09937309985980392,0.10051160003058612,0.7496878998354077
RSVPLG03,JM,20260311-100857,1.0.2,20251105-084826,803,Practice,T1,1,Automatic,main,5,20260311-100940,local,local,750,H,H,E,A,E-H.png,A-H.png,hH,hH,mask-1.png,mask-3.png,h,1,0.3524011999834329,none,-5,0,0.04774040007032454,0.047665099846199155,0.09979959996417165,0.09986949991434813,0.7496893000788987
RSVPLG03,JM,20260311-100857,1.0.2,20251105-084826,803,Practice,T1,1,Automatic,main,6,20260311-100944,global,global,750,S,S,A,E,S-A.png,S-E.png,sS,sS,mask-2.png,mask-1.png,s,1,0.3825516998767853,none,-5,0,0.04767749994061887,0.04769730009138584,0.09987240005284548,0.1008884001057595,0.7497566998936236
RSVPLG03,JM,20260311-100857,1.0.2,20251105-084826,803,Practice,T1,1,Automatic,main,7,20260311-100948,local,global,750,H,H,E,E,E-H.png,H-E.png,hH,hH,mask-2.png,mask-4.png,h,1,0.3221714999526739,none,-5,0,0.048686099937185645,0.047687399899587035,0.09955710009671748,0.10065499995835125,0.750880700070411
RSVPLG03,JM,20260311-100857,1.0.2,20251105-084826,803,Practice,T1,1,Automatic,main,8,20260311-100953,local,global,300,H,S,E,E,E-H.png,S-E.png,hH,sS,mask-2.png,mask-1.png,h,1,0.9223247999325395,none,-5,0,0.047520099906250834,0.046543800039216876,0.10068829986266792,0.09973330004140735,0.3011409000027925
RSVPLG03,JM,20260311-100857,1.0.2,20251105-084826,803,Practice,T1,1,Automatic,main,9,20260311-100957,local,local,300,S,S,E,A,E-S.png,A-S.png,sS,sS,mask-2.png,mask-1.png,s,1,0.4657094001304358,none,-5,0,0.04760469985194504,0.04771810001693666,0.0999751000199467,0.09973670006729662,0.3003294998779893
RSVPLG03,JM,20260311-100857,1.0.2,20251105-084826,803,Practice,T1,1,Automatic,main,10,20260311-101001,local,global,300,H,S,E,E,E-H.png,S-E.png,hH,sS,mask-2.png,mask-2.png,h,1,0.40966000012122095,none,-5,0,0.04705060017295182,0.0458553999196738,0.10031740018166602,0.09938500006683171,0.2999462001025677
RSVPLG03,JM,20260311-100857,1.0.2,20251105-084826,803,Practice,T1,1,Automatic,main,11,20260311-101005,global,local,750,H,S,E,A,H-E.png,A-S.png,hH,sS,mask-2.png,mask-1.png,h,1,0.42422050004824996,none,-5,0,0.04890509997494519,0.04786729998886585,0.10006520012393594,0.10197580000385642,0.7499685999937356
RSVPLG03,JM,20260311-100857,1.0.2,20251105-084826,803,Practice,T1,1,Automatic,main,12,20260311-101010,global,global,300,H,S,E,A,H-E.png,S-A.png,hH,sS,mask-2.png,mask-4.png,h,1,0.668446599971503,none,-5,0,0.04799459991045296,0.0484914998523891,0.10019539995118976,0.10073939990252256,0.3002774000633508
RSVPLG03,JM,20260311-100857,1.0.2,20251105-084826,803,Practice,T1,1,Automatic,main,13,20260311-101014,local,local,750,S,S,E,A,E-S.png,A-S.png,sS,sS,mask-4.png,mask-2.png,s,1,0.2981102999765426,none,-5,0,0.04805109999142587,0.046637200051918626,0.10050960001535714,0.10032050008885562,0.7515984999481589
RSVPLG03,JM,20260311-100857,1.0.2,20251105-084826,803,Practice,T1,1,Automatic,main,14,20260311-101018,global,global,300,S,H,E,A,S-E.png,H-A.png,sS,hH,mask-2.png,mask-1.png,s,1,0.4222510000690818,none,-5,0,0.04716109996661544,0.04656870011240244,0.09970310004428029,0.09963189996778965,0.29995410004630685
RSVPLG03,JM,20260311-100857,1.0.2,20251105-084826,803,Practice,T1,1,Automatic,main,15,20260311-101022,global,local,300,S,H,E,E,S-E.png,E-H.png,sS,hH,mask-4.png,mask-3.png,s,1,0.37690680008381605,none,-5,0,0.04652999993413687,0.04652160010300577,0.09856349998153746,0.09953590016812086,0.29981939983554184
RSVPLG03,JM,20260311-100857,1.0.2,20251105-084826,803,Practice,T1,1,Automatic,main,16,20260311-101026,local,local,300,S,H,A,E,A-S.png,E-H.png,sS,hH,mask-4.png,mask-4.png,s,1,0.3585868999361992,none,-5,0,0.04751550010405481,0.04752220003865659,0.0997216000687331,0.10153450001962483,0.30056130001321435
RSVPLG03,JM,20260311-101054,1.0.2,20251105-084826,803,Practice,Both,1,Automatic,main,1,20260311-101125,global,global,300,H,S,A,E,H-A.png,S-E.png,hH,sS,mask-2.png,mask-1.png,h,1,0.5995497999247164,s,1,1.227623299928382,0.042143499944359064,0.047477800166234374,0.0941075999289751,0.09965079999528825,0.29350139992311597
RSVPLG03,JM,20260311-101054,1.0.2,20251105-084826,803,Practice,Both,1,Automatic,main,2,20260311-101130,global,global,750,H,S,E,E,H-E.png,S-E.png,hH,sS,mask-1.png,mask-4.png,h,1,0.5582626999821514,s,1,0.4836383000947535,0.04617980006150901,0.04772090003825724,0.09905730001628399,0.09990240004844964,0.749406399903819
RSVPLG03,JM,20260311-101054,1.0.2,20251105-084826,803,Practice,Both,1,Automatic,main,3,20260311-101135,local,global,750,S,H,E,A,E-S.png,H-A.png,sS,hH,mask-1.png,mask-4.png,s,1,0.6050264001823962,s,0,0.3206513000186533,0.0477314000017941,0.04880440002307296,0.1001188000664115,0.09935860009863973,0.7484349999576807
RSVPLG03,JM,20260311-101054,1.0.2,20251105-084826,803,Practice,Both,1,Automatic,main,4,20260311-101140,local,local,750,H,H,E,A,E-H.png,A-H.png,hH,hH,mask-4.png,mask-1.png,h,1,0.46784979989752173,h,1,0.34789289999753237,0.048004900105297565,0.04776390013284981,0.10161309991963208,0.10000970005057752,0.750147599959746
RSVPLG03,JM,20260311-101054,1.0.2,20251105-084826,803,Practice,Both,1,Automatic,main,5,20260311-101145,local,local,750,H,H,A,E,A-H.png,E-H.png,hH,hH,mask-1.png,mask-1.png,h,1,0.6228130999952555,h,1,0.30582350003533065,0.04764660005457699,0.04768799990415573,0.09981480007991195,0.0998958998825401,0.749820000026375
RSVPLG03,JM,20260311-101054,1.0.2,20251105-084826,803,Practice,Both,1,Automatic,main,6,20260311-101150,local,global,300,H,S,A,E,A-H.png,S-E.png,hH,sS,mask-1.png,mask-2.png,h,1,1.0957419001497328,h,0,0.5013971000444144,0.04769030003808439,0.04771060007624328,0.09979310003109276,0.09979599993675947,0.2997389999218285
RSVPLG03,JM,20260311-101054,1.0.2,20251105-084826,803,Practice,Both,1,Automatic,main,7,20260311-101156,global,global,300,S,H,E,A,S-E.png,H-A.png,sS,hH,mask-3.png,mask-3.png,s,1,0.6774758000392467,h,1,0.2144917999394238,0.04771279986016452,0.0487937000580132,0.09990479983389378,0.10089690005406737,0.2988691998180002
RSVPLG03,JM,20260311-101054,1.0.2,20251105-084826,803,Practice,Both,1,Automatic,main,8,20260311-101200,global,global,750,S,H,E,E,S-E.png,H-E.png,sS,hH,mask-2.png,mask-2.png,s,1,0.6321099998895079,h,1,0.172881199978292,0.04756939993239939,0.04654709994792938,0.10029959981329739,0.09960619988851249,0.7487675999291241
RSVPLG03,JM,20260311-101054,1.0.2,20251105-084826,803,Practice,Both,1,Automatic,main,9,20260311-101205,global,local,300,H,H,E,E,H-E.png,E-H.png,hH,hH,mask-2.png,mask-1.png,h,1,1.115068200044334,h,1,0.18436000007204711,0.04751079995185137,0.04746489995159209,0.10152869997546077,0.1005379999987781,0.2997710001654923
RSVPLG03,JM,20260311-101054,1.0.2,20251105-084826,803,Practice,Both,1,Automatic,main,10,20260311-101210,local,local,300,H,S,A,A,A-H.png,A-S.png,hH,sS,mask-4.png,mask-1.png,h,1,0.8521594000048935,s,1,0.4279948000330478,0.04652639990672469,0.04750939994119108,0.09852539980784059,0.10005489992909133,0.29878779989667237
RSVPLG03,JM,20260311-101054,1.0.2,20251105-084826,803,Practice,Both,1,Automatic,main,11,20260311-101215,global,local,750,H,S,A,A,H-A.png,A-S.png,hH,sS,mask-1.png,mask-4.png,h,1,0.7716408001724631,h,0,0.19946859986521304,0.04755480005405843,0.047525699948892,0.09979370003566146,0.09951069997623563,0.7479507999960333
RSVPLG03,JM,20260311-101054,1.0.2,20251105-084826,803,Practice,Both,1,Automatic,main,12,20260311-101220,local,local,300,S,S,E,A,E-S.png,A-S.png,sS,sS,mask-1.png,mask-2.png,s,1,1.6193258999846876,h,0,0.14076450001448393,0.04751809989102185,0.04751079995185137,0.10080199991352856,0.09881040011532605,0.30004379991441965
RSVPLG03,JM,20260311-101054,1.0.2,20251105-084826,803,Practice,Both,1,Automatic,main,13,20260311-101225,global,local,300,S,S,A,E,S-A.png,E-S.png,sS,sS,mask-2.png,mask-3.png,s,1,0.7542247998062521,s,1,0.16103930003009737,0.046522999880835414,0.047534999903291464,0.09955249982886016,0.10052619990892708,0.2979250999633223
RSVPLG03,JM,20260311-101054,1.0.2,20251105-084826,803,Practice,Both,1,Automatic,main,14,20260311-101230,local,global,750,H,S,E,E,E-H.png,S-E.png,hH,sS,mask-3.png,mask-3.png,h,1,1.4186976000200957,h,0,0.38077370007522404,0.04817439988255501,0.04566399985924363,0.10023919981904328,0.09966979990713298,0.7505924999713898
RSVPLG03,JM,20260311-101054,1.0.2,20251105-084826,803,Practice,Both,1,Automatic,main,15,20260311-101236,global,local,750,S,H,E,E,S-E.png,E-H.png,sS,hH,mask-2.png,mask-3.png,s,1,0.9891710001975298,s,0,0.19817650015465915,0.04769459995441139,0.047695100074633956,0.09917830000631511,0.09988650004379451,0.7493459000252187
RSVPLG03,JM,20260311-101054,1.0.2,20251105-084826,803,Practice,Both,1,Automatic,main,16,20260311-101241,local,global,300,H,H,A,A,A-H.png,H-A.png,hH,hH,mask-4.png,mask-2.png,h,1,0.9639479999896139,s,0,0.42420120001770556,0.04750960017554462,0.048502800054848194,0.09984060004353523,0.10076819988898933,0.29953470011241734
RSVPLG03,JM,20260311-101315,1.0.2,20251105-084826,803,Practice,Both,1,Automatic,main,1,20260311-101330,local,local,300,S,S,E,E,E-S.png,E-S.png,sS,sS,mask-3.png,mask-1.png,s,1,0.7580458999145776,s,1,0.46924140001647174,0.04005319997668266,0.04507649992592633,0.09326989995315671,0.09816180006600916,0.2917015999555588
RSVPLG03,JM,20260311-101315,1.0.2,20251105-084826,803,Practice,Both,1,Automatic,main,2,20260311-101335,local,local,750,S,S,E,E,E-S.png,E-S.png,sS,sS,mask-1.png,mask-4.png,s,1,0.9661421999335289,s,1,0.2928923999425024,0.047735999803990126,0.046887499978765845,0.09933270001783967,0.09921310003846884,0.7582695998717099
RSVPLG03,JM,20260311-101315,1.0.2,20251105-084826,803,Practice,Both,1,Automatic,main,3,20260311-101341,global,global,750,S,H,E,A,S-E.png,H-A.png,sS,hH,mask-3.png,mask-2.png,s,1,0.5241937001701444,h,1,0.12125169998034835,0.047719200141727924,0.04784959997050464,0.09994290000759065,0.09904470015317202,0.7578161000274122
RSVPLG03,JM,20260311-101315,1.0.2,20251105-084826,803,Practice,Both,1,Automatic,main,4,20260311-101345,global,local,750,H,H,A,E,H-A.png,E-H.png,hH,hH,mask-2.png,mask-2.png,s,0,1.1198126999661326,h,1,0.11762910010293126,0.04698540014214814,0.04767240001820028,0.0985109000466764,0.09792010020464659,0.7580683999694884
RSVPLG03,JM,20260311-101315,1.0.2,20251105-084826,803,Practice,Both,1,Automatic,main,5,20260311-101351,global,local,300,S,S,A,E,S-A.png,E-S.png,sS,sS,mask-4.png,mask-4.png,s,1,0.8315121000632644,h,0,0.2509643000084907,0.04663279978558421,0.04501000000163913,0.0998157998546958,0.09870929992757738,0.2973952000029385
RSVPLG03,JM,20260311-101315,1.0.2,20251105-084826,803,Practice,Both,1,Automatic,main,6,20260311-101356,global,local,750,S,H,E,A,S-E.png,A-H.png,sS,hH,mask-2.png,mask-3.png,s,1,0.8844279998447746,h,1,0.1870741001330316,0.04778919997625053,0.04719299986027181,0.0999348999466747,0.09837529994547367,0.7587939000222832
RSVPLG03,JM,20260311-101315,1.0.2,20251105-084826,803,Practice,Both,1,Automatic,main,7,20260311-101401,local,local,750,S,H,A,A,A-S.png,A-H.png,sS,hH,mask-4.png,mask-2.png,s,1,0.6044942999724299,h,1,0.10190610005520284,0.04759790003299713,0.047736600041389465,0.09978779987432063,0.09890399989672005,0.7578547999728471
RSVPLG03,JM,20260311-101315,1.0.2,20251105-084826,803,Practice,Both,1,Automatic,main,8,20260311-101406,local,global,750,S,H,A,A,A-S.png,H-A.png,sS,hH,mask-4.png,mask-4.png,s,1,0.6801324000116438,h,1,0.14101230003871024,0.04571070009842515,0.0474433999042958,0.09829009999521077,0.09960340010002255,0.7568814000114799
RSVPLG03,JM,20260311-101315,1.0.2,20251105-084826,803,Practice,Both,1,Automatic,main,9,20260311-101411,local,local,300,H,H,E,E,E-H.png,E-H.png,hH,hH,mask-4.png,mask-3.png,s,0,1.113578800112009,s,0,0.17189329979009926,0.04653439996764064,0.04769209981895983,0.09969120007008314,0.09987439983524382,0.295660600066185
RSVPLG03,JM,20260311-101315,1.0.2,20251105-084826,803,Practice,Both,1,Automatic,main,10,20260311-101415,global,global,300,S,S,E,E,S-E.png,S-E.png,sS,sS,mask-1.png,mask-1.png,h,0,0.9514617000240833,h,0,0.5706272998359054,0.04649799992330372,0.045106800040230155,0.0978925998788327,0.09733549994416535,0.29765490000136197
RSVPLG03,JM,20260311-101315,1.0.2,20251105-084826,803,Practice,Both,1,Automatic,main,11,20260311-101421,local,global,300,S,S,E,E,E-S.png,S-E.png,sS,sS,mask-2.png,mask-1.png,h,0,1.6229322999715805,s,1,0.08367089997045696,0.047724900068715215,0.04555019992403686,0.0999084000941366,0.09742309991270304,0.29730030009523034
RSVPLG03,JM,20260311-101315,1.0.2,20251105-084826,803,Practice,Both,1,Automatic,main,12,20260311-101426,global,local,300,H,H,E,A,H-E.png,A-H.png,hH,hH,mask-1.png,mask-1.png,h,1,1.4656581999734044,h,1,0.35672010015696287,0.04766930011101067,0.04565139999613166,0.09990429994650185,0.09789089998230338,0.29761689994484186
RSVPLG03,JM,20260311-101315,1.0.2,20251105-084826,803,Practice,Both,1,Automatic,main,13,20260311-101432,local,global,300,S,S,A,E,A-S.png,S-E.png,sS,sS,mask-2.png,mask-1.png,s,1,1.0940058000851423,s,1,0.18152179988101125,0.04587349994108081,0.04749160003848374,0.09842579998075962,0.09957099985331297,0.29598370008170605
RSVPLG03,JM,20260311-101315,1.0.2,20251105-084826,803,Practice,Both,1,Automatic,main,14,20260311-101436,global,global,300,H,H,A,A,H-A.png,H-A.png,hH,hH,mask-4.png,mask-2.png,h,1,0.8687541000545025,h,1,0.5536686999257654,0.04668780020438135,0.04670110018923879,0.0977555001154542,0.09985620016232133,0.2955620000138879
RSVPLG03,JM,20260311-101315,1.0.2,20251105-084826,803,Practice,Both,1,Automatic,main,15,20260311-101441,global,global,750,S,S,E,E,S-E.png,S-E.png,sS,sS,mask-1.png,mask-4.png,s,1,0.6204002001322806,s,1,0.18412230000831187,0.04785790015012026,0.046042799949645996,0.10095230001024902,0.09825789998285472,0.7592754000797868
RSVPLG03,JM,20260311-101315,1.0.2,20251105-084826,803,Practice,Both,1,Automatic,main,16,20260311-101446,local,global,750,H,H,A,E,A-H.png,H-E.png,hH,hH,mask-1.png,mask-1.png,h,1,0.6671219000127167,h,1,0.16487710014916956,0.04868209990672767,0.047711499966681004,0.09976599994115531,0.09925199998542666,0.758225099882111
RSVPLG03,JM,20260311-101524,1.0.2,20251105-084826,803,Experiment,T1,1,Automatic,warmup,1,20260311-101559,local,local,750,H,S,E,A,E-H.png,A-S.png,hH,sS,mask-3.png,mask-1.png,h,1,0.5318550001829863,none,-5,0,0.04099149978719652,0.04852269985713065,0.09415899985469878,0.09963329997844994,0.7445155999157578
RSVPLG03,JM,20260311-101524,1.0.2,20251105-084826,803,Experiment,T1,1,Automatic,warmup,2,20260311-101603,global,global,750,H,S,E,A,H-E.png,S-A.png,hH,sS,mask-2.png,mask-2.png,h,1,0.3490991999860853,none,-5,0,0.047314299969002604,0.04680799995549023,0.09907760005444288,0.09988079988397658,0.7497648999560624
RSVPLG03,JM,20260311-101524,1.0.2,20251105-084826,803,Experiment,T1,1,Automatic,warmup,3,20260311-101607,local,local,300,H,H,E,E,E-H.png,E-H.png,hH,hH,mask-2.png,mask-1.png,h,1,0.4436127000954002,none,-5,0,0.04754159995354712,0.04714230005629361,0.09952479996718466,0.10020720004104078,0.29985630000010133
RSVPLG03,JM,20260311-101524,1.0.2,20251105-084826,803,Experiment,T1,1,Automatic,warmup,4,20260311-101612,global,global,300,S,S,E,E,S-E.png,S-E.png,sS,sS,mask-1.png,mask-2.png,s,1,0.7749491999857128,none,-5,0,0.04751810012385249,0.04716509999707341,0.0986345000565052,0.10028310003690422,0.2992376999463886
RSVPLG03,JM,20260311-101524,1.0.2,20251105-084826,803,Experiment,T1,1,Automatic,main,5,20260311-101616,local,global,300,H,S,A,E,A-H.png,S-E.png,hH,sS,mask-1.png,mask-4.png,h,1,0.39005659986287355,none,-5,0,0.04728680010885,0.04710559989325702,0.09962850017473102,0.09943800000473857,0.30015650019049644
RSVPLG03,JM,20260311-101524,1.0.2,20251105-084826,803,Experiment,T1,1,Automatic,main,6,20260311-101620,global,global,300,H,S,E,E,H-E.png,S-E.png,hH,sS,mask-4.png,mask-4.png,h,1,0.47483570012263954,none,-5,0,0.04749969998374581,0.04852409986779094,0.10139350011013448,0.10074059991165996,0.3001068001613021
RSVPLG03,JM,20260311-101524,1.0.2,20251105-084826,803,Experiment,T1,1,Automatic,main,7,20260311-101624,local,local,750,H,H,A,A,A-H.png,A-H.png,hH,hH,mask-3.png,mask-1.png,h,1,0.3910523001104593,none,-5,0,0.04867230006493628,0.046666699927300215,0.09988599992357194,0.09988539991900325,0.7516328000929207
RSVPLG03,JM,20260311-101524,1.0.2,20251105-084826,803,Experiment,T1,1,Automatic,main,8,20260311-101628,local,global,300,H,S,A,A,A-H.png,S-A.png,hH,sS,mask-4.png,mask-4.png,h,1,0.4417900999542326,none,-5,0,0.047575199976563454,0.047654900001361966,0.0997838000766933,0.09987320005893707,0.3004016000777483
RSVPLG03,JM,20260311-101524,1.0.2,20251105-084826,803,Experiment,T1,1,Automatic,main,9,20260311-101632,global,global,750,H,H,E,E,H-E.png,H-E.png,hH,hH,mask-3.png,mask-1.png,h,1,0.4570414999034256,none,-5,0,0.04769999999552965,0.0476691999938339,0.09988639992661774,0.09915019990876317,0.7501546000130475
RSVPLG03,JM,20260311-101524,1.0.2,20251105-084826,803,Experiment,T1,1,Automatic,main,10,20260311-101637,global,global,750,H,S,A,E,H-A.png,S-E.png,hH,sS,mask-1.png,mask-4.png,h,1,0.3767221001908183,none,-5,0,0.047741999849677086,0.048502299934625626,0.10091129993088543,0.09960360010154545,0.7507779998704791
RSVPLG03,JM,20260311-101524,1.0.2,20251105-084826,803,Experiment,T1,1,Automatic,main,11,20260311-101641,global,global,750,H,S,E,E,H-E.png,S-E.png,hH,sS,mask-3.png,mask-1.png,h,1,0.4949422001373023,none,-5,0,0.04732890008017421,0.04852910013869405,0.10029580001719296,0.10036550019867718,0.749741799896583
RSVPLG03,JM,20260311-101524,1.0.2,20251105-084826,803,Experiment,T1,1,Automatic,main,12,20260311-101646,global,local,300,S,H,E,A,S-E.png,A-H.png,sS,hH,mask-2.png,mask-4.png,s,1,0.8171053999103606,none,-5,0,0.04750060010701418,0.04750650003552437,0.09852910018526018,0.10056090005673468,0.2997731000650674
RSVPLG03,JM,20260311-101524,1.0.2,20251105-084826,803,Experiment,T1,1,Automatic,main,13,20260311-101650,local,local,300,H,S,A,E,A-H.png,E-S.png,hH,sS,mask-4.png,mask-3.png,h,1,0.5381642000284046,none,-5,0,0.04868669994175434,0.04752689995802939,0.10071969986893237,0.10058890003710985,0.30010359990410507
RSVPLG03,JM,20260311-101524,1.0.2,20251105-084826,803,Experiment,T1,1,Automatic,main,14,20260311-101654,local,local,300,S,H,A,A,A-S.png,A-H.png,sS,hH,mask-2.png,mask-3.png,s,1,0.5868104000110179,none,-5,0,0.04752349993214011,0.04752249992452562,0.10051729995757341,0.09866730007342994,0.30141489999368787
RSVPLG03,JM,20260311-101524,1.0.2,20251105-084826,803,Experiment,T1,1,Automatic,main,15,20260311-101658,local,global,750,S,H,A,A,A-S.png,H-A.png,sS,hH,mask-1.png,mask-2.png,s,1,0.3511202000081539,none,-5,0,0.047572199953719974,0.04750460013747215,0.10060260002501309,0.10094320005737245,0.7511418999638408
RSVPLG03,JM,20260311-101524,1.0.2,20251105-084826,803,Experiment,T1,1,Automatic,main,16,20260311-101703,local,global,300,H,H,A,E,A-H.png,H-E.png,hH,hH,mask-1.png,mask-3.png,h,1,0.3833997999317944,none,-5,0,0.04754569986835122,0.0475173001177609,0.09965139999985695,0.1005579000338912,0.29977889987640083
RSVPLG03,JM,20260311-101524,1.0.2,20251105-084826,803,Experiment,T1,1,Automatic,main,17,20260311-101706,global,global,750,H,S,E,E,H-E.png,S-E.png,hH,sS,mask-1.png,mask-4.png,h,1,0.41386010008864105,none,-5,0,0.04750910005532205,0.04732659994624555,0.09852050011977553,0.09934119996614754,0.7505101000424474
RSVPLG03,JM,20260311-101524,1.0.2,20251105-084826,803,Experiment,T1,1,Automatic,main,18,20260311-101711,local,local,300,H,H,A,E,A-H.png,E-H.png,hH,hH,mask-4.png,mask-3.png,h,1,0.8926792000420392,none,-5,0,0.049125999910756946,0.045546700013801455,0.1001503998413682,0.09975469997152686,0.30224039987660944
RSVPLG03,JM,20260311-101524,1.0.2,20251105-084826,803,Experiment,T1,1,Automatic,main,19,20260311-101715,local,local,750,S,S,A,E,A-S.png,E-S.png,sS,sS,mask-4.png,mask-3.png,s,1,0.3442687001079321,none,-5,0,0.04654440004378557,0.04756510001607239,0.0996586000546813,0.10154499998316169,0.7494960001204163
RSVPLG03,JM,20260311-101524,1.0.2,20251105-084826,803,Experiment,T1,1,Automatic,main,20,20260311-101720,local,global,750,H,S,E,E,E-H.png,S-E.png,hH,sS,mask-4.png,mask-1.png,h,1,0.34941279981285334,none,-5,0,0.047525699948892,0.04784990008920431,0.10061359987594187,0.09863619995303452,0.7520134998485446
RSVPLG03,JM,20260311-101524,1.0.2,20251105-084826,803,Experiment,T1,1,Automatic,main,21,20260311-101724,local,local,300,H,S,A,A,A-H.png,A-S.png,hH,sS,mask-4.png,mask-3.png,h,1,0.35345759987831116,none,-5,0,0.04751090006902814,0.04861779999919236,0.09950790018774569,0.10051549994386733,0.29909360012970865
RSVPLG03,JM,20260311-101524,1.0.2,20251105-084826,803,Experiment,T1,1,Automatic,main,22,20260311-101728,local,global,300,H,S,A,A,A-H.png,S-A.png,hH,sS,mask-1.png,mask-2.png,h,1,0.39060530019924045,none,-5,0,0.04759019985795021,0.047497000079602,0.09888559998944402,0.10055329999886453,0.2992425998672843
RSVPLG03,JM,20260311-101524,1.0.2,20251105-084826,803,Experiment,T1,1,Automatic,main,23,20260311-101732,local,global,750,H,H,E,E,E-H.png,H-E.png,hH,hH,mask-3.png,mask-1.png,h,1,0.12720119999721646,none,-5,0,0.04786579986102879,0.04784699995070696,0.10107529978267848,0.09996430017054081,0.7504969998262823
RSVPLG03,JM,20260311-101524,1.0.2,20251105-084826,803,Experiment,T1,1,Automatic,main,24,20260311-101736,global,global,300,S,S,A,E,S-A.png,S-E.png,sS,sS,mask-1.png,mask-3.png,s,1,0.7192532999906689,none,-5,0,0.04752389993518591,0.04756890004500747,0.10050629987381399,0.1005766000598669,0.30150369997136295
RSVPLG03,JM,20260311-101524,1.0.2,20251105-084826,803,Experiment,T1,1,Automatic,main,25,20260311-101740,local,global,750,H,S,A,E,A-H.png,S-E.png,hH,sS,mask-1.png,mask-2.png,h,1,0.4792746000457555,none,-5,0,0.04850969999097288,0.047521699918434024,0.10051329992711544,0.10151030006818473,0.7507295999675989
RSVPLG03,JM,20260311-101524,1.0.2,20251105-084826,803,Experiment,T1,1,Automatic,main,26,20260311-101751,global,local,300,S,H,E,A,S-E.png,A-H.png,sS,hH,mask-3.png,mask-2.png,s,1,0.34100200003013015,none,-5,0,0.04859340004622936,0.04705270007252693,0.10013239993713796,0.10027960012666881,0.30061109992675483
RSVPLG03,JM,20260311-101524,1.0.2,20251105-084826,803,Experiment,T1,1,Automatic,main,27,20260311-101755,global,local,750,S,S,E,A,S-E.png,A-S.png,sS,sS,mask-2.png,mask-3.png,s,1,0.36346700019203126,none,-5,0,0.04780580010265112,0.04770910018123686,0.10100120003335178,0.099887500051409,0.7502468000166118
RSVPLG03,JM,20260311-101524,1.0.2,20251105-084826,803,Experiment,T1,1,Automatic,main,28,20260311-101759,local,global,750,S,S,E,A,E-S.png,S-A.png,sS,sS,mask-1.png,mask-2.png,s,1,0.4124199999496341,none,-5,0,0.04757250007241964,0.04752649995498359,0.10008440003730357,0.09954149997793138,0.7518450000789016
RSVPLG03,JM,20260311-101524,1.0.2,20251105-084826,803,Experiment,T1,1,Automatic,main,29,20260311-101804,local,local,300,H,S,E,A,E-H.png,A-S.png,hH,sS,mask-3.png,mask-4.png,h,1,0.3581516998820007,none,-5,0,0.0465204999782145,0.047624099999666214,0.09953880007378757,0.09971880004741251,0.29981749993748963
RSVPLG03,JM,20260311-101524,1.0.2,20251105-084826,803,Experiment,T1,1,Automatic,main,30,20260311-101807,local,global,750,H,S,A,E,A-H.png,S-E.png,hH,sS,mask-2.png,mask-3.png,h,1,0.41902210004627705,none,-5,0,0.047561899991706014,0.048266599886119366,0.09850770002231002,0.10142310010269284,0.7492551999166608
RSVPLG03,JM,20260311-101524,1.0.2,20251105-084826,803,Experiment,T1,1,Automatic,main,31,20260311-101812,global,global,750,H,S,E,E,H-E.png,S-E.png,hH,sS,mask-2.png,mask-1.png,h,1,0.2360441000200808,none,-5,0,0.047427000012248755,0.047370199812576175,0.0995197999291122,0.10039289994165301,0.750890800030902
RSVPLG03,JM,20260311-101524,1.0.2,20251105-084826,803,Experiment,T1,1,Automatic,main,32,20260311-101816,local,global,750,H,S,A,E,A-H.png,S-E.png,hH,sS,mask-1.png,mask-4.png,h,1,0.14433560008183122,none,-5,0,0.0475252999458462,0.048573700012639165,0.10089459992013872,0.10056920000351965,0.7495593999046832
RSVPLG03,JM,20260311-101524,1.0.2,20251105-084826,803,Experiment,T1,1,Automatic,main,33,20260311-101820,global,global,300,H,H,A,E,H-A.png,H-E.png,hH,hH,mask-4.png,mask-3.png,h,1,0.5087929000146687,none,-5,0,0.048866699915379286,0.04750970005989075,0.1009392999112606,0.09952810010872781,0.3012411999516189
RSVPLG03,JM,20260311-101524,1.0.2,20251105-084826,803,Experiment,T1,1,Automatic,main,34,20260311-101824,global,local,750,H,H,E,A,H-E.png,A-H.png,hH,hH,mask-4.png,mask-1.png,h,1,0.2789291001390666,none,-5,0,0.04723930009640753,0.047857699915766716,0.09963270020671189,0.10105539998039603,0.7495534000918269
RSVPLG03,JM,20260311-101524,1.0.2,20251105-084826,803,Experiment,T1,1,Automatic,main,35,20260311-101829,local,global,300,S,H,E,A,E-S.png,H-A.png,sS,hH,mask-3.png,mask-3.png,s,1,0.7877293999772519,none,-5,0,0.04669529991224408,0.04774459986947477,0.09839069982990623,0.10006990004330873,0.2998208999633789
RSVPLG03,JM,20260311-101524,1.0.2,20251105-084826,803,Experiment,T1,1,Automatic,main,36,20260311-101833,local,global,300,H,H,A,A,A-H.png,H-A.png,hH,hH,mask-4.png,mask-2.png,h,1,0.43293859995901585,none,-5,0,0.04751349985599518,0.047507200157269835,0.09952789987437427,0.09977330011315644,0.29985839989967644
RSVPLG03,JM,20260311-101524,1.0.2,20251105-084826,803,Experiment,T1,1,Automatic,main,37,20260311-101837,global,local,750,H,S,A,E,H-A.png,E-S.png,hH,sS,mask-3.png,mask-1.png,h,1,0.2946369000710547,none,-5,0,0.04853659984655678,0.04753999994136393,0.10092919995076954,0.10056989989243448,0.7503184999804944
RSVPLG03,JM,20260311-101524,1.0.2,20251105-084826,803,Experiment,T1,1,Automatic,main,38,20260311-101841,global,local,750,H,H,E,E,H-E.png,E-H.png,hH,hH,mask-2.png,mask-1.png,h,1,0.35239399992860854,none,-5,0,0.0475124001968652,0.04563359986059368,0.09955610008910298,0.09869719995185733,0.7517942001577467
RSVPLG03,JM,20260311-101524,1.0.2,20251105-084826,803,Experiment,T1,1,Automatic,main,39,20260311-101845,global,global,300,S,H,A,E,S-A.png,H-E.png,sS,hH,mask-1.png,mask-2.png,h,0,0.5402677000965923,none,-5,0,0.04849159996956587,0.04735309979878366,0.10032949992455542,0.10031569981947541,0.3002981999889016
RSVPLG03,JM,20260311-101524,1.0.2,20251105-084826,803,Experiment,T1,1,Automatic,main,40,20260311-101850,global,global,750,H,S,E,E,H-E.png,S-E.png,hH,sS,mask-4.png,mask-1.png,h,1,0.34790730010718107,none,-5,0,0.04579899995587766,0.047613499918952584,0.09990220004692674,0.1005672998726368,0.7501197000965476
RSVPLG03,JM,20260311-101524,1.0.2,20251105-084826,803,Experiment,T1,1,Automatic,main,41,20260311-101854,local,local,750,S,H,E,A,E-S.png,A-H.png,sS,hH,mask-1.png,mask-4.png,s,1,0.34279630007222295,none,-5,0,0.047518800012767315,0.046227699844166636,0.09885390009731054,0.10032989992760122,0.7502781001385301
RSVPLG03,JM,20260311-101524,1.0.2,20251105-084826,803,Experiment,T1,1,Automatic,main,42,20260311-101858,local,local,300,S,H,E,A,E-S.png,A-H.png,sS,hH,mask-3.png,mask-2.png,s,1,0.4234168000984937,none,-5,0,0.04709460004232824,0.04748310009017587,0.0997641000431031,0.09916680003516376,0.29945589997805655
RSVPLG03,JM,20260311-101524,1.0.2,20251105-084826,803,Experiment,T1,1,Automatic,main,43,20260311-101902,global,local,750,H,S,A,A,H-A.png,A-S.png,hH,sS,mask-1.png,mask-2.png,h,1,0.3688336000777781,none,-5,0,0.04755749995820224,0.04762430000118911,0.09886140003800392,0.1017485000193119,0.7493497999384999
RSVPLG03,JM,20260311-101524,1.0.2,20251105-084826,803,Experiment,T1,1,Automatic,main,44,20260311-101907,local,local,300,H,H,A,E,A-H.png,E-H.png,hH,hH,mask-1.png,mask-2.png,h,1,0.3763025999069214,none,-5,0,0.04753379989415407,0.04751190007664263,0.09854959999211133,0.10053170006722212,0.29985329997725785
RSVPLG03,JM,20260311-101524,1.0.2,20251105-084826,803,Experiment,T1,1,Automatic,main,45,20260311-101910,local,global,300,S,H,A,A,A-S.png,H-A.png,sS,hH,mask-2.png,mask-2.png,s,1,0.39395920000970364,none,-5,0,0.047514500096440315,0.048596000066027045,0.09961599996313453,0.09973290003836155,0.30033269990235567
RSVPLG03,JM,20260311-101524,1.0.2,20251105-084826,803,Experiment,T1,1,Automatic,main,46,20260311-101914,global,local,300,H,H,A,E,H-A.png,E-H.png,hH,hH,mask-1.png,mask-3.png,h,1,0.3353331000544131,none,-5,0,0.047266299836337566,0.046908400021493435,0.1002458999864757,0.09923660010099411,0.30042329989373684
RSVPLG03,JM,20260311-101524,1.0.2,20251105-084826,803,Experiment,T1,1,Automatic,main,47,20260311-101918,local,global,300,S,S,A,A,A-S.png,S-A.png,sS,sS,mask-4.png,mask-3.png,s,1,0.5878869998268783,none,-5,0,0.046778100077062845,0.04765109997242689,0.10108279995620251,0.09972129995003343,0.3005745999980718
RSVPLG03,JM,20260311-101524,1.0.2,20251105-084826,803,Experiment,T1,1,Automatic,main,48,20260311-101922,global,local,300,H,H,A,E,H-A.png,E-H.png,hH,hH,mask-2.png,mask-1.png,h,1,0.3511266999412328,none,-5,0,0.048155999975278974,0.04688700009137392,0.10026179999113083,0.09933029999956489,0.30027649994008243
RSVPLG03,JM,20260311-101524,1.0.2,20251105-084826,803,Experiment,T1,1,Automatic,main,49,20260311-101926,local,global,300,H,H,E,A,E-H.png,H-A.png,hH,hH,mask-2.png,mask-1.png,h,1,0.6285971000324935,none,-5,0,0.04773460002616048,0.04619330004788935,0.09994949982501566,0.0995108000934124,0.30084059992805123
RSVPLG03,JM,20260311-101524,1.0.2,20251105-084826,803,Experiment,T1,1,Automatic,main,50,20260311-101930,local,local,750,S,H,A,A,A-S.png,A-H.png,sS,hH,mask-2.png,mask-3.png,s,1,0.8164313999004662,none,-5,0,0.04730820003896952,0.04687620000913739,0.09851839998736978,0.10010310006327927,0.7505401999223977
RSVPLG03,JM,20260311-101524,1.0.2,20251105-084826,803,Experiment,T1,1,Automatic,main,51,20260311-101946,global,global,300,H,S,A,E,H-A.png,S-E.png,hH,sS,mask-1.png,mask-3.png,s,0,1.1020268998108804,none,-5,0,0.04749569995328784,0.0475677999202162,0.10066200001165271,0.10088869999162853,0.30006120004691184
RSVPLG03,JM,20260311-101524,1.0.2,20251105-084826,803,Experiment,T1,1,Automatic,main,52,20260311-101951,global,local,750,S,S,A,E,S-A.png,E-S.png,sS,sS,mask-3.png,mask-1.png,s,1,0.3872276998590678,none,-5,0,0.04651809995993972,0.04746459983289242,0.09959019999951124,0.09928579977713525,0.7495185001753271
RSVPLG03,JM,20260311-101524,1.0.2,20251105-084826,803,Experiment,T1,1,Automatic,main,53,20260311-101955,global,local,300,H,S,A,E,H-A.png,E-S.png,hH,sS,mask-2.png,mask-2.png,s,0,0.9380375999026,none,-5,0,0.0467355998698622,0.046738100005313754,0.09997179987840354,0.09988029999658465,0.30009359982796013
RSVPLG03,JM,20260311-101524,1.0.2,20251105-084826,803,Experiment,T1,1,Automatic,main,54,20260311-102000,local,local,750,H,H,A,A,A-H.png,A-H.png,hH,hH,mask-4.png,mask-2.png,h,1,0.40165750007145107,none,-5,0,0.046810299856588244,0.047538600163534284,0.09957979992032051,0.09963050018996,0.7496103998273611
RSVPLG03,JM,20260311-101524,1.0.2,20251105-084826,803,Experiment,T1,1,Automatic,main,55,20260311-102004,global,local,300,S,H,E,A,S-E.png,A-H.png,sS,hH,mask-4.png,mask-3.png,s,1,0.35354149993509054,none,-5,0,0.04883739980868995,0.04769110004417598,0.1009876998141408,0.09985640016384423,0.30159319983795285
RSVPLG03,JM,20260311-101524,1.0.2,20251105-084826,803,Experiment,T1,1,Automatic,main,56,20260311-102008,global,global,300,H,S,A,E,H-A.png,S-E.png,hH,sS,mask-2.png,mask-4.png,h,1,0.41693899990059435,none,-5,0,0.04579490004107356,0.04752639983780682,0.09952170005999506,0.09954009996727109,0.3001223001629114
RSVPLG03,JM,20260311-101524,1.0.2,20251105-084826,803,Experiment,T1,1,Automatic,main,57,20260311-102012,global,local,750,S,S,A,A,S-A.png,A-S.png,sS,sS,mask-1.png,mask-1.png,s,1,0.40753010008484125,none,-5,0,0.04757250007241964,0.0476071999873966,0.09949829988181591,0.09968660003505647,0.7501564000267535
RSVPLG03,JM,20260311-101524,1.0.2,20251105-084826,803,Experiment,T1,1,Automatic,main,58,20260311-102016,global,global,750,H,H,E,A,H-E.png,H-A.png,hH,hH,mask-1.png,mask-3.png,h,1,0.23844470013864338,none,-5,0,0.04757099994458258,0.04819840006530285,0.1006044999230653,0.10000720014795661,0.7497564998921007
RSVPLG03,JM,20260311-101524,1.0.2,20251105-084826,803,Experiment,T1,1,Automatic,main,59,20260311-102021,global,global,300,S,H,E,E,S-E.png,H-E.png,sS,hH,mask-3.png,mask-1.png,s,1,0.36627770005725324,none,-5,0,0.04851810005493462,0.04707670002244413,0.09953089989721775,0.10114220017567277,0.30031379987485707
RSVPLG03,JM,20260311-101524,1.0.2,20251105-084826,803,Experiment,T1,1,Automatic,main,60,20260311-102025,local,global,750,H,H,A,E,A-H.png,H-E.png,hH,hH,mask-3.png,mask-1.png,h,1,0.26612719986587763,none,-5,0,0.04772999999113381,0.0486884000711143,0.10001690010540187,0.09988899994641542,0.7496768001001328
RSVPLG03,JM,20260311-101524,1.0.2,20251105-084826,803,Experiment,T1,1,Automatic,main,61,20260311-102029,local,global,750,H,S,E,E,E-H.png,S-E.png,hH,sS,mask-2.png,mask-1.png,h,1,0.2887673999648541,none,-5,0,0.04661829979158938,0.04766159993596375,0.09962559980340302,0.1009010998532176,0.7490491999778897
RSVPLG03,JM,20260311-101524,1.0.2,20251105-084826,803,Experiment,T1,1,Automatic,main,62,20260311-102033,global,global,750,H,H,A,A,H-A.png,H-A.png,hH,hH,mask-1.png,mask-4.png,h,1,0.126147500006482,none,-5,0,0.047517099883407354,0.0467936999630183,0.10040779993869364,0.09991390001960099,0.7505548999179155
RSVPLG03,JM,20260311-101524,1.0.2,20251105-084826,803,Experiment,T1,1,Automatic,main,63,20260311-102037,global,global,300,H,H,A,E,H-A.png,H-E.png,hH,hH,mask-3.png,mask-4.png,h,1,0.5941163001116365,none,-5,0,0.04681079997681081,0.04868000000715256,0.09889000002294779,0.10021750000305474,0.2989250000100583
RSVPLG03,JM,20260311-101524,1.0.2,20251105-084826,803,Experiment,T1,1,Automatic,main,64,20260311-102041,local,global,750,H,S,E,A,E-H.png,S-A.png,hH,sS,mask-3.png,mask-1.png,h,1,0.2640581999439746,none,-5,0,0.04706329992040992,0.04762129997834563,0.09969890001229942,0.09915450005792081,0.7506203998345882
RSVPLG03,JM,20260311-101524,1.0.2,20251105-084826,803,Experiment,T1,1,Automatic,main,65,20260311-102046,local,local,750,S,H,E,E,E-S.png,E-H.png,sS,hH,mask-2.png,mask-3.png,s,1,0.29967850004322827,none,-5,0,0.04751429986208677,0.04738319991156459,0.09952139994129539,0.09865189995616674,0.7517236999701709
RSVPLG03,JM,20260311-101524,1.0.2,20251105-084826,803,Experiment,T1,1,Automatic,main,66,20260311-102050,global,global,300,H,S,E,E,H-E.png,S-E.png,hH,sS,mask-3.png,mask-1.png,h,1,0.5197864000219852,none,-5,0,0.04750470002181828,0.0464977000374347,0.09954809979535639,0.1005101001355797,0.2998141997959465
RSVPLG03,JM,20260311-101524,1.0.2,20251105-084826,803,Experiment,T1,1,Automatic,main,67,20260311-102054,local,global,750,H,S,E,E,E-H.png,S-E.png,hH,sS,mask-3.png,mask-1.png,h,1,0.3174969998653978,none,-5,0,0.04745130008086562,0.047524499939754605,0.09847520012408495,0.1006004000082612,0.7497549001127481
RSVPLG03,JM,20260311-101524,1.0.2,20251105-084826,803,Experiment,T1,1,Automatic,main,68,20260311-102058,local,local,300,S,S,A,E,A-S.png,E-S.png,sS,sS,mask-2.png,mask-1.png,s,1,0.3437073000241071,none,-5,0,0.047521400032565,0.047579600010067225,0.10055990004912019,0.10171740013174713,0.3004409000277519
RSVPLG03,JM,20260311-101524,1.0.2,20251105-084826,803,Experiment,T1,1,Automatic,main,69,20260311-102102,global,global,750,S,H,A,E,S-A.png,H-E.png,sS,hH,mask-4.png,mask-4.png,h,0,0.7861528000794351,none,-5,0,0.046718900091946125,0.0475248999428004,0.098907700041309,0.10154780000448227,0.7490698001347482
RSVPLG03,JM,20260311-101524,1.0.2,20251105-084826,803,Experiment,T1,1,Automatic,main,70,20260311-102107,local,global,750,S,H,A,A,A-S.png,H-A.png,sS,hH,mask-1.png,mask-4.png,s,1,0.2461343000177294,none,-5,0,0.04722820012830198,0.04788969992659986,0.10025470005348325,0.10002050013281405,0.7504751000087708
RSVPLG03,JM,20260311-101524,1.0.2,20251105-084826,803,Experiment,T1,1,Automatic,main,71,20260311-102111,global,global,300,H,S,E,E,H-E.png,S-E.png,hH,sS,mask-3.png,mask-2.png,h,1,0.33668259996920824,none,-5,0,0.04760980000719428,0.04788059997372329,0.09963220008648932,0.09991519991308451,0.2999289999715984
RSVPLG03,JM,20260311-101524,1.0.2,20251105-084826,803,Experiment,T1,1,Automatic,main,72,20260311-102115,local,local,300,S,H,E,A,E-S.png,A-H.png,sS,hH,mask-3.png,mask-2.png,s,1,0.5910343998111784,none,-5,0,0.047589899972081184,0.04682220006361604,0.10160350007936358,0.09996860008686781,0.30202409997582436
RSVPLG03,JM,20260311-101524,1.0.2,20251105-084826,803,Experiment,T1,1,Automatic,main,73,20260311-102119,local,local,300,S,H,A,A,A-S.png,A-H.png,sS,hH,mask-4.png,mask-1.png,s,1,0.3187212999910116,none,-5,0,0.04707959992811084,0.046774199930951,0.0994299000594765,0.10001099994406104,0.30027040001004934
RSVPLG03,JM,20260311-101524,1.0.2,20251105-084826,803,Experiment,T1,1,Automatic,main,74,20260311-102123,global,local,750,S,H,A,A,S-A.png,A-H.png,sS,hH,mask-2.png,mask-2.png,s,1,0.36648790002800524,none,-5,0,0.04764000000432134,0.04858619999140501,0.09893839992582798,0.10059409984387457,0.7493239000905305
RSVPLG03,JM,20260311-101524,1.0.2,20251105-084826,803,Experiment,T1,1,Automatic,main,75,20260311-102128,global,local,300,S,S,A,E,S-A.png,E-S.png,sS,sS,mask-1.png,mask-4.png,s,1,0.2529015999753028,none,-5,0,0.04864799999631941,0.046545099932700396,0.1017151998821646,0.0996291998308152,0.3018237000796944
RSVPLG03,JM,20260311-101524,1.0.2,20251105-084826,803,Experiment,T1,1,Automatic,main,76,20260311-102139,global,local,300,S,H,A,E,S-A.png,E-H.png,sS,hH,mask-2.png,mask-2.png,h,0,2.1641100000124425,none,-5,0,0.04657310014590621,0.04833590006455779,0.09861159999854863,0.10130800004117191,0.2990844000596553
RSVPLG03,JM,20260311-101524,1.0.2,20251105-084826,803,Experiment,T1,1,Automatic,main,77,20260311-102145,local,local,750,S,H,E,A,E-S.png,A-H.png,sS,hH,mask-4.png,mask-1.png,s,1,0.37086690007708967,none,-5,0,0.04767860006541014,0.0466221000533551,0.09990389994345605,0.09997200011275709,0.750369899906218
RSVPLG03,JM,20260311-101524,1.0.2,20251105-084826,803,Experiment,T1,1,Automatic,main,78,20260311-102149,global,global,300,S,H,E,E,S-E.png,H-E.png,sS,hH,mask-4.png,mask-3.png,s,1,0.32687190012075007,none,-5,0,0.04767360002733767,0.04770629992708564,0.09887999994680285,0.10195209993980825,0.2984937001019716
RSVPLG03,JM,20260311-101524,1.0.2,20251105-084826,803,Experiment,T1,1,Automatic,main,79,20260311-102153,local,local,750,S,H,A,A,A-S.png,A-H.png,sS,hH,mask-1.png,mask-4.png,s,1,0.31917809997685254,none,-5,0,0.047662500059232116,0.04763889987953007,0.09882920002564788,0.09973490005359054,0.7501092001330107
RSVPLG03,JM,20260311-101524,1.0.2,20251105-084826,803,Experiment,T1,1,Automatic,main,80,20260311-102158,global,local,300,H,S,A,A,H-A.png,A-S.png,hH,sS,mask-2.png,mask-4.png,h,1,0.33726599998772144,none,-5,0,0.047970900079235435,0.04768100008368492,0.1010181000456214,0.0999271001201123,0.3008916999679059
RSVPLG03,JM,20260311-101524,1.0.2,20251105-084826,803,Experiment,T1,1,Automatic,main,81,20260311-102202,local,global,300,H,H,E,A,E-H.png,H-A.png,hH,hH,mask-3.png,mask-3.png,h,1,0.352419399889186,none,-5,0,0.04774650000035763,0.04698339989408851,0.09989439998753369,0.10028719995170832,0.3005091000813991
RSVPLG03,JM,20260311-101524,1.0.2,20251105-084826,803,Experiment,T1,1,Automatic,main,82,20260311-102205,global,global,750,S,H,A,A,S-A.png,H-A.png,sS,hH,mask-3.png,mask-2.png,s,1,0.0944201999809593,none,-5,0,0.04772339994087815,0.04669549991376698,0.0999208998400718,0.10097129992209375,0.7506806999444962
RSVPLG03,JM,20260311-101524,1.0.2,20251105-084826,803,Experiment,T1,1,Automatic,main,83,20260311-102210,local,local,300,S,S,A,A,A-S.png,A-S.png,sS,sS,mask-1.png,mask-4.png,s,1,0.35070499987341464,none,-5,0,0.04587160004302859,0.04769839998334646,0.09997730003669858,0.10090299998410046,0.29960589995607734
RSVPLG03,JM,20260311-101524,1.0.2,20251105-084826,803,Experiment,T1,1,Automatic,main,84,20260311-102213,local,local,750,S,S,E,E,E-S.png,E-S.png,sS,sS,mask-4.png,mask-3.png,s,1,0.29460739996284246,none,-5,0,0.04768100008368492,0.04761640005744994,0.09993070014752448,0.09879479999653995,0.751939200097695
RSVPLG03,JM,20260311-101524,1.0.2,20251105-084826,803,Experiment,T1,1,Automatic,main,85,20260311-102218,global,local,750,S,S,A,E,S-A.png,E-S.png,sS,sS,mask-1.png,mask-1.png,s,1,0.3016937000211328,none,-5,0,0.04707089997828007,0.04768339986912906,0.10027870000340044,0.09988730004988611,0.7497145000379533
RSVPLG03,JM,20260311-101524,1.0.2,20251105-084826,803,Experiment,T1,1,Automatic,main,86,20260311-102222,global,local,300,H,S,E,A,H-E.png,A-S.png,hH,sS,mask-4.png,mask-4.png,h,1,0.39997839997522533,none,-5,0,0.04717949987389147,0.047139399917796254,0.10015260009095073,0.09990220004692674,0.30031189997680485
RSVPLG03,JM,20260311-101524,1.0.2,20251105-084826,803,Experiment,T1,1,Automatic,main,87,20260311-102226,local,global,300,H,S,A,E,A-H.png,S-E.png,hH,sS,mask-2.png,mask-2.png,h,1,0.42304359981790185,none,-5,0,0.0477076000533998,0.04766970011405647,0.09910099999979138,0.10088280006311834,0.2998234999831766
RSVPLG03,JM,20260311-101524,1.0.2,20251105-084826,803,Experiment,T1,1,Automatic,main,88,20260311-102230,global,local,750,H,S,A,E,H-A.png,E-S.png,hH,sS,mask-1.png,mask-3.png,h,1,0.24560429994016886,none,-5,0,0.047037400072440505,0.04769579996354878,0.09862270019948483,0.09913349989801645,0.7510647000744939
RSVPLG03,JM,20260311-101524,1.0.2,20251105-084826,803,Experiment,T1,1,Automatic,main,89,20260311-102234,local,global,300,S,H,E,A,E-S.png,H-A.png,sS,hH,mask-1.png,mask-1.png,s,1,0.3384857999626547,none,-5,0,0.04856220004148781,0.04760799999348819,0.10060709994286299,0.09965260000899434,0.3009508999530226
RSVPLG03,JM,20260311-101524,1.0.2,20251105-084826,803,Experiment,T1,1,Automatic,main,90,20260311-102238,global,local,300,S,H,A,A,S-A.png,A-H.png,sS,hH,mask-2.png,mask-2.png,s,1,0.3376815998926759,none,-5,0,0.04751239996403456,0.047222499968484044,0.0995390999596566,0.09852289990521967,0.3002343000844121
RSVPLG03,JM,20260311-101524,1.0.2,20251105-084826,803,Experiment,T1,1,Automatic,main,91,20260311-102242,local,local,750,H,S,A,E,A-H.png,E-S.png,hH,sS,mask-4.png,mask-2.png,s,0,0.225605099927634,none,-5,0,0.04960619984194636,0.04614590015262365,0.10062179993838072,0.0991142001003027,0.7522167998831719
RSVPLG03,JM,20260311-101524,1.0.2,20251105-084826,803,Experiment,T1,1,Automatic,main,92,20260311-102246,local,local,750,H,S,E,E,E-H.png,E-S.png,hH,sS,mask-3.png,mask-1.png,h,1,0.2619737000204623,none,-5,0,0.047431600047275424,0.047475599916651845,0.09854470007121563,0.09980209986679256,0.7499522001016885
RSVPLG03,JM,20260311-101524,1.0.2,20251105-084826,803,Experiment,T1,1,Automatic,main,93,20260311-102250,local,local,300,S,H,A,A,A-S.png,A-H.png,sS,hH,mask-3.png,mask-2.png,s,1,0.8965401002205908,none,-5,0,0.04593509994447231,0.04758510016836226,0.09906499995850027,0.10055350000038743,0.2993203999940306
RSVPLG03,JM,20260311-101524,1.0.2,20251105-084826,803,Experiment,T1,1,Automatic,main,94,20260311-102255,local,local,750,H,S,E,A,E-H.png,A-S.png,hH,sS,mask-2.png,mask-1.png,h,1,0.20812930003739893,none,-5,0,0.04689719993621111,0.04763929988257587,0.0989739999640733,0.09979250002652407,0.7505103999283165
RSVPLG03,JM,20260311-101524,1.0.2,20251105-084826,803,Experiment,T1,1,Automatic,main,95,20260311-102259,global,local,750,H,S,A,E,H-A.png,E-S.png,hH,sS,mask-1.png,mask-1.png,h,1,0.5575963000301272,none,-5,0,0.04769919998943806,0.0474933001678437,0.09975189995020628,0.1005308001767844,0.7498311998788267
RSVPLG03,JM,20260311-101524,1.0.2,20251105-084826,803,Experiment,T1,1,Automatic,main,96,20260311-102304,global,local,750,H,S,E,A,H-E.png,A-S.png,hH,sS,mask-4.png,mask-4.png,h,1,0.3496197999920696,none,-5,0,0.047705700155347586,0.04769869986921549,0.09988630004227161,0.09991779993288219,0.7497766001615673
RSVPLG03,JM,20260311-101524,1.0.2,20251105-084826,803,Experiment,T1,1,Automatic,main,97,20260311-102308,global,local,300,S,S,E,E,S-E.png,E-S.png,sS,sS,mask-4.png,mask-1.png,s,1,0.4474393001291901,none,-5,0,0.0477226001676172,0.04900279990397394,0.09882239997386932,0.09987320005893707,0.29947170009836555
RSVPLG03,JM,20260311-101524,1.0.2,20251105-084826,803,Experiment,T1,1,Automatic,main,98,20260311-102312,global,global,750,H,S,A,A,H-A.png,S-A.png,hH,sS,mask-2.png,mask-3.png,h,1,0.10474280011840165,none,-5,0,0.047641800018027425,0.046345199923962355,0.10080890008248389,0.09991119988262653,0.7508608000352979
RSVPLG03,JM,20260311-101524,1.0.2,20251105-084826,803,Experiment,T1,1,Automatic,main,99,20260311-102316,global,global,750,H,S,A,E,H-A.png,S-E.png,hH,sS,mask-1.png,mask-4.png,h,1,0.09084459999576211,none,-5,0,0.047724299831315875,0.04774899990297854,0.10017589991912246,0.10083430004306138,0.7499663999769837
RSVPLG03,JM,20260311-101524,1.0.2,20251105-084826,803,Experiment,T1,1,Automatic,main,100,20260311-102320,global,global,300,H,S,A,A,H-A.png,S-A.png,hH,sS,mask-2.png,mask-4.png,s,0,0.8881793001201004,none,-5,0,0.047578199999406934,0.046549699967727065,0.0996553001459688,0.0996012999676168,0.30006000003777444
RSVPLG03,JM,20260311-102451,1.0.2,20251105-084826,803,Experiment,Both,1,Automatic,warmup,1,20260311-102511,global,local,750,H,S,A,E,H-A.png,E-S.png,hH,sS,mask-3.png,mask-4.png,h,1,0.48823100002482533,s,1,0.11242490005679429,0.04292870010249317,0.04876789986155927,0.09624410001561046,0.101978600025177,0.7448248001746833
RSVPLG03,JM,20260311-102451,1.0.2,20251105-084826,803,Experiment,Both,1,Automatic,warmup,2,20260311-102516,local,global,300,H,H,A,A,A-H.png,H-A.png,hH,hH,mask-4.png,mask-2.png,h,1,0.7502607998903841,h,1,0.3396426001563668,0.048616700107231736,0.046099600149318576,0.09980709990486503,0.09914349997416139,0.30135819991119206
RSVPLG03,JM,20260311-102451,1.0.2,20251105-084826,803,Experiment,Both,1,Automatic,warmup,3,20260311-102521,local,local,300,H,H,A,A,A-H.png,A-H.png,hH,hH,mask-3.png,mask-2.png,h,1,0.6278812999371439,h,1,0.15394410002045333,0.04693569988012314,0.04751209984533489,0.09902619989588857,0.09963419986888766,0.3007380000781268
RSVPLG03,JM,20260311-102451,1.0.2,20251105-084826,803,Experiment,Both,1,Automatic,warmup,4,20260311-102525,global,global,300,H,H,E,E,H-E.png,H-E.png,hH,hH,mask-1.png,mask-2.png,h,1,0.42732989997603,h,1,0.14798979996703565,0.04720929986797273,0.04861399997025728,0.0982852999586612,0.1007878000382334,0.29889769991859794
RSVPLG03,JM,20260311-102451,1.0.2,20251105-084826,803,Experiment,Both,1,Automatic,main,5,20260311-102529,global,global,750,S,H,E,E,S-E.png,H-E.png,sS,hH,mask-3.png,mask-1.png,s,1,0.9489939999766648,h,1,0.1725866999477148,0.046699600061401725,0.04770680004730821,0.09818609990179539,0.09990640007890761,0.7497278999071568
RSVPLG03,JM,20260311-102451,1.0.2,20251105-084826,803,Experiment,Both,1,Automatic,main,6,20260311-102535,global,global,300,S,H,A,A,S-A.png,H-A.png,sS,hH,mask-3.png,mask-3.png,s,1,0.6673567001707852,h,1,0.07449579983949661,0.04744110000319779,0.04767700005322695,0.09965540003031492,0.09991850005462766,0.30027020000852644
RSVPLG03,JM,20260311-102451,1.0.2,20251105-084826,803,Experiment,Both,1,Automatic,main,7,20260311-102539,local,global,300,S,S,A,E,A-S.png,S-E.png,sS,sS,mask-1.png,mask-3.png,s,1,0.8123677000403404,h,0,0.021273700054734945,0.047697799978777766,0.046665400033816695,0.09976750006899238,0.10016359994187951,0.300250600092113
RSVPLG03,JM,20260311-102451,1.0.2,20251105-084826,803,Experiment,Both,1,Automatic,main,8,20260311-102544,local,global,750,H,H,A,A,A-H.png,H-A.png,hH,hH,mask-1.png,mask-1.png,h,1,1.1124428000766784,h,1,0.09165550000034273,0.04683250002563,0.04693410010077059,0.10007889987900853,0.100247299997136,0.7494500998873264
RSVPLG03,JM,20260311-102451,1.0.2,20251105-084826,803,Experiment,Both,1,Automatic,main,9,20260311-102549,global,local,300,S,S,E,E,S-E.png,E-S.png,sS,sS,mask-4.png,mask-2.png,s,1,0.9604938998818398,h,0,0.005096600158140063,0.04771540011279285,0.048835800029337406,0.10084780002944171,0.10024020005948842,0.2998242999892682
RSVPLG03,JM,20260311-102451,1.0.2,20251105-084826,803,Experiment,Both,1,Automatic,main,10,20260311-102554,global,local,300,H,H,A,A,H-A.png,A-H.png,hH,hH,mask-3.png,mask-1.png,h,1,0.5356831001117826,h,1,0.12286169989965856,0.04749289993196726,0.04737369995564222,0.09950859984382987,0.10036189993843436,0.2992829999420792
RSVPLG03,JM,20260311-102451,1.0.2,20251105-084826,803,Experiment,Both,1,Automatic,main,11,20260311-102558,global,global,300,H,S,E,A,H-E.png,S-A.png,hH,sS,mask-3.png,mask-2.png,h,1,0.5752075999043882,s,1,0.7194761000573635,0.04871319979429245,0.047733800020068884,0.10092499991878867,0.09993020002730191,0.30081629985943437
RSVPLG03,JM,20260311-102451,1.0.2,20251105-084826,803,Experiment,Both,1,Automatic,main,12,20260311-102602,local,local,300,S,S,A,E,A-S.png,E-S.png,sS,sS,mask-1.png,mask-1.png,s,1,0.7481828001327813,h,0,0.023884099908173084,0.04769349982962012,0.04668809985741973,0.09990369994193316,0.09990340005606413,0.3005343999247998
RSVPLG03,JM,20260311-102451,1.0.2,20251105-084826,803,Experiment,Both,1,Automatic,main,13,20260311-102607,global,global,750,H,S,A,E,H-A.png,S-E.png,hH,sS,mask-1.png,mask-2.png,h,1,0.8312462999019772,s,1,0.9275517000351101,0.04753959993831813,0.04773620003834367,0.10137860011309385,0.0990095001179725,0.7513653000351042
RSVPLG03,JM,20260311-102451,1.0.2,20251105-084826,803,Experiment,Both,1,Automatic,main,14,20260311-102612,global,local,300,H,H,E,A,H-E.png,A-H.png,hH,hH,mask-2.png,mask-2.png,h,1,0.6116818999871612,s,0,1.0942396000027657,0.04862729995511472,0.047607599990442395,0.10073810000903904,0.09966069995425642,0.30117259989492595
RSVPLG03,JM,20260311-102451,1.0.2,20251105-084826,803,Experiment,Both,1,Automatic,main,15,20260311-102617,global,local,300,H,S,E,A,H-E.png,A-S.png,hH,sS,mask-4.png,mask-4.png,h,1,0.5949142999015749,s,1,0.34825260005891323,0.047750100027769804,0.04651390016078949,0.09985130000859499,0.09978920011781156,0.30056519992649555
RSVPLG03,JM,20260311-102451,1.0.2,20251105-084826,803,Experiment,Both,1,Automatic,main,16,20260311-102622,local,global,750,S,H,A,A,A-S.png,H-A.png,sS,hH,mask-3.png,mask-1.png,h,0,0.7037059001158923,s,0,0.18995489994995296,0.04754750011488795,0.04732489981688559,0.0995677001774311,0.09913089987821877,0.749775200150907
RSVPLG03,JM,20260311-102451,1.0.2,20251105-084826,803,Experiment,Both,1,Automatic,main,17,20260311-102627,global,global,300,H,H,A,A,H-A.png,H-A.png,hH,hH,mask-4.png,mask-2.png,h,1,0.5785462998319417,h,1,0.14147119992412627,0.0477549999486655,0.047576900105923414,0.09990120003931224,0.09958220017142594,0.3006613999605179
RSVPLG03,JM,20260311-102451,1.0.2,20251105-084826,803,Experiment,Both,1,Automatic,main,18,20260311-102631,local,global,750,H,H,E,A,E-H.png,H-A.png,hH,hH,mask-4.png,mask-3.png,h,1,0.7494048001244664,h,1,0.1180445000063628,0.04639700008556247,0.047477300046011806,0.09925660002045333,0.10033540008589625,0.7500787999015301
RSVPLG03,JM,20260311-102451,1.0.2,20251105-084826,803,Experiment,Both,1,Automatic,main,19,20260311-102636,global,global,750,S,H,E,E,S-E.png,H-E.png,sS,hH,mask-2.png,mask-4.png,s,1,0.9238398999441415,h,1,0.006966999964788556,0.04755739984102547,0.04753020009957254,0.10057819983921945,0.10011669993400574,0.7499986998736858
RSVPLG03,JM,20260311-102451,1.0.2,20251105-084826,803,Experiment,Both,1,Automatic,main,20,20260311-102641,local,local,300,S,H,E,A,E-S.png,A-H.png,sS,hH,mask-1.png,mask-3.png,s,1,0.7103520999662578,h,1,0.9022659999318421,0.04751820000819862,0.04658919991925359,0.10153600014746189,0.10058289999142289,0.3011487000621855
RSVPLG03,JM,20260311-102451,1.0.2,20251105-084826,803,Experiment,Both,1,Automatic,main,21,20260311-102646,local,global,300,H,S,A,E,A-H.png,S-E.png,hH,sS,mask-3.png,mask-2.png,s,0,0.923990499926731,s,1,0.9867606998886913,0.0485404001083225,0.047532400116324425,0.09959570015780628,0.09959380002692342,0.2999464999884367
RSVPLG03,JM,20260311-102451,1.0.2,20251105-084826,803,Experiment,Both,1,Automatic,main,22,20260311-102652,local,local,300,H,H,A,A,A-H.png,A-H.png,hH,hH,mask-1.png,mask-1.png,h,1,0.6299326000735164,h,1,0.11833100020885468,0.047504200134426355,0.047643400030210614,0.09844000008888543,0.09967629984021187,0.2990817001555115
RSVPLG03,JM,20260311-102451,1.0.2,20251105-084826,803,Experiment,Both,1,Automatic,main,23,20260311-102656,local,local,750,H,H,A,E,A-H.png,E-H.png,hH,hH,mask-1.png,mask-4.png,h,1,0.5901872999966145,h,1,0.15068249986506999,0.04714559996500611,0.04675999982282519,0.1002086999360472,0.09986049984581769,0.750945100095123
RSVPLG03,JM,20260311-102451,1.0.2,20251105-084826,803,Experiment,Both,1,Automatic,main,24,20260311-102701,local,global,750,H,H,E,E,E-H.png,H-E.png,hH,hH,mask-2.png,mask-3.png,h,1,0.6228195000439882,h,1,0.220299799926579,0.045996000058948994,0.0475677999202162,0.1012283000163734,0.10057049989700317,0.7492471002042294
RSVPLG03,JM,20260311-102451,1.0.2,20251105-084826,803,Experiment,Both,1,Automatic,main,25,20260311-102706,global,global,300,H,H,A,A,H-A.png,H-A.png,hH,hH,mask-4.png,mask-1.png,h,1,0.5074142999947071,h,1,0.18913239985704422,0.04572079982608557,0.04649160010740161,0.0997921999078244,0.0995147000066936,0.3000522998627275
RSVPLG03,JM,20260311-102451,1.0.2,20251105-084826,803,Experiment,Both,1,Automatic,main,26,20260311-102717,global,local,300,H,H,E,A,H-E.png,A-H.png,hH,hH,mask-1.png,mask-1.png,h,1,0.4031110000796616,h,1,0.1854075000155717,0.04708059993572533,0.047495000064373016,0.10015870002098382,0.09933690004982054,0.30029379995539784
RSVPLG03,JM,20260311-102451,1.0.2,20251105-084826,803,Experiment,Both,1,Automatic,main,27,20260311-102722,global,global,750,S,H,A,A,S-A.png,H-A.png,sS,hH,mask-1.png,mask-3.png,s,1,0.6473075000103563,h,1,0.4531880000140518,0.046610800083726645,0.0485491999424994,0.10074219992384315,0.10157739999704063,0.7494177001062781
RSVPLG03,JM,20260311-102451,1.0.2,20251105-084826,803,Experiment,Both,1,Automatic,main,28,20260311-102727,global,global,750,H,S,A,E,H-A.png,S-E.png,hH,sS,mask-1.png,mask-3.png,h,1,0.7018935000523925,s,1,0.26786520006135106,0.04601130005903542,0.04757459997199476,0.09895840007811785,0.10066209989599884,0.7494310000911355
RSVPLG03,JM,20260311-102451,1.0.2,20251105-084826,803,Experiment,Both,1,Automatic,main,29,20260311-102732,global,global,300,S,H,E,E,S-E.png,H-E.png,sS,hH,mask-2.png,mask-3.png,s,1,0.7037341000977904,h,1,0.2763475999236107,0.04757010005414486,0.04669650015421212,0.09860230004414916,0.09988290001638234,0.3004252999089658
RSVPLG03,JM,20260311-102451,1.0.2,20251105-084826,803,Experiment,Both,1,Automatic,main,30,20260311-102737,global,global,300,H,H,E,E,H-E.png,H-E.png,hH,hH,mask-1.png,mask-3.png,s,0,0.6926462000701576,h,1,0.23010380007326603,0.046915499959141016,0.047299699857831,0.09901600005105138,0.10055970004759729,0.29957620007917285
RSVPLG03,JM,20260311-102451,1.0.2,20251105-084826,803,Experiment,Both,1,Automatic,main,31,20260311-102741,global,local,750,S,H,E,A,S-E.png,A-H.png,sS,hH,mask-4.png,mask-3.png,s,1,0.4913260000757873,h,1,0.22907349979504943,0.047504100017249584,0.046431099995970726,0.09950669994577765,0.09981509996578097,0.7507752000819892
RSVPLG03,JM,20260311-102451,1.0.2,20251105-084826,803,Experiment,Both,1,Automatic,main,32,20260311-102746,local,local,750,S,S,E,A,E-S.png,A-S.png,sS,sS,mask-4.png,mask-4.png,s,1,0.46312259999103844,s,1,0.24577239993959665,0.04749460006132722,0.04749769996851683,0.09948169998824596,0.09951560012996197,0.7499975999817252
RSVPLG03,JM,20260311-102451,1.0.2,20251105-084826,803,Experiment,Both,1,Automatic,main,33,20260311-102751,local,global,300,H,S,E,A,E-H.png,S-A.png,hH,sS,mask-3.png,mask-1.png,h,1,0.8331036998424679,h,0,0.13519709999673069,0.04730720003135502,0.04748180019669235,0.10031210002489388,0.10047030006535351,0.3005278999917209
RSVPLG03,JM,20260311-102451,1.0.2,20251105-084826,803,Experiment,Both,1,Automatic,main,34,20260311-102756,local,global,300,H,H,E,A,E-H.png,H-A.png,hH,hH,mask-3.png,mask-4.png,h,1,1.2219446999952197,s,0,0.33067029993981123,0.04780509998090565,0.045979700051248074,0.10029560001567006,0.10011440003290772,0.3009549998678267
RSVPLG03,JM,20260311-102451,1.0.2,20251105-084826,803,Experiment,Both,1,Automatic,main,35,20260311-102801,global,global,300,S,S,A,A,S-A.png,S-A.png,sS,sS,mask-3.png,mask-2.png,h,0,0.5932515999302268,s,1,0.8184297999832779,0.0464355000294745,0.04763819999061525,0.10013250005431473,0.10068979999050498,0.3002408999018371
RSVPLG03,JM,20260311-102451,1.0.2,20251105-084826,803,Experiment,Both,1,Automatic,main,36,20260311-102806,local,local,750,S,H,E,A,E-S.png,A-H.png,sS,hH,mask-3.png,mask-3.png,s,1,1.0493898000568151,h,1,0.2836634998675436,0.04751940001733601,0.046546199824661016,0.09953150013461709,0.09959389991126955,0.7502680001780391
RSVPLG03,JM,20260311-102451,1.0.2,20251105-084826,803,Experiment,Both,1,Automatic,main,37,20260311-102812,global,global,750,S,H,A,A,S-A.png,H-A.png,sS,hH,mask-1.png,mask-1.png,h,0,0.8846405001822859,h,1,0.2051323999185115,0.047645899932831526,0.04767320002429187,0.0999828998465091,0.1008685000706464,0.7498985999263823
RSVPLG03,JM,20260311-102451,1.0.2,20251105-084826,803,Experiment,Both,1,Automatic,main,38,20260311-102817,local,global,750,S,S,E,E,E-S.png,S-E.png,sS,sS,mask-2.png,mask-1.png,s,1,0.9621914001181722,h,0,0.2631546000484377,0.04769910010509193,0.047686100006103516,0.09989800001494586,0.09914329997263849,0.749716900056228
RSVPLG03,JM,20260311-102451,1.0.2,20251105-084826,803,Experiment,Both,1,Automatic,main,39,20260311-102822,local,global,300,H,H,A,A,A-H.png,H-A.png,hH,hH,mask-2.png,mask-1.png,h,1,1.075896100141108,s,0,0.29910119995474815,0.04872380010783672,0.04757590009830892,0.10065370006486773,0.09855600004084408,0.30104549997486174
RSVPLG03,JM,20260311-102451,1.0.2,20251105-084826,803,Experiment,Both,1,Automatic,main,40,20260311-102827,local,local,300,H,H,A,E,A-H.png,E-H.png,hH,hH,mask-3.png,mask-1.png,h,1,0.7007214000914246,h,1,0.1464927000924945,0.047725999960675836,0.04867190006189048,0.10083400015719235,0.10122040007263422,0.29947230010293424
RSVPLG03,JM,20260311-102451,1.0.2,20251105-084826,803,Experiment,Both,1,Automatic,main,41,20260311-102832,local,global,300,S,S,A,A,A-S.png,S-A.png,sS,sS,mask-4.png,mask-4.png,s,1,0.7342984999995679,h,0,0.3624927999917418,0.04751099995337427,0.047502700006589293,0.10154699999839067,0.09849729994311929,0.3017893999349326
RSVPLG03,JM,20260311-102451,1.0.2,20251105-084826,803,Experiment,Both,1,Automatic,main,42,20260311-102837,global,local,300,H,H,E,A,H-E.png,A-H.png,hH,hH,mask-3.png,mask-3.png,h,1,0.670349600026384,h,1,0.12298209988512099,0.0474907997995615,0.0475163001101464,0.10058099986054003,0.0998834001366049,0.29981679981574416
RSVPLG03,JM,20260311-102451,1.0.2,20251105-084826,803,Experiment,Both,1,Automatic,main,43,20260311-102841,local,global,300,H,S,E,A,E-H.png,S-A.png,hH,sS,mask-3.png,mask-1.png,h,1,0.9453189000487328,s,1,0.204001700039953,0.048817799892276525,0.04583990015089512,0.10190279991365969,0.09895969997160137,0.3012490998953581
RSVPLG03,JM,20260311-102451,1.0.2,20251105-084826,803,Experiment,Both,1,Automatic,main,44,20260311-102846,local,global,750,H,S,E,E,E-H.png,S-E.png,hH,sS,mask-3.png,mask-2.png,h,1,1.228494299808517,s,1,0.3471343000419438,0.04755369992926717,0.04686010000295937,0.10135099990293384,0.10095850005745888,0.7513268999755383
RSVPLG03,JM,20260311-102451,1.0.2,20251105-084826,803,Experiment,Both,1,Automatic,main,45,20260311-102852,local,global,750,H,H,E,E,E-H.png,H-E.png,hH,hH,mask-1.png,mask-1.png,h,1,1.565617699874565,s,0,0.34023369988426566,0.04758600005879998,0.04683350003324449,0.10063700005412102,0.09999210014939308,0.7502343999221921
RSVPLG03,JM,20260311-102451,1.0.2,20251105-084826,803,Experiment,Both,1,Automatic,main,46,20260311-102858,global,local,750,S,H,A,A,S-A.png,A-H.png,sS,hH,mask-2.png,mask-2.png,s,1,0.90035289991647,h,1,0.2968586999922991,0.04893040005117655,0.04651520005427301,0.10102339996956289,0.10055530001409352,0.7519550998695195
RSVPLG03,JM,20260311-102451,1.0.2,20251105-084826,803,Experiment,Both,1,Automatic,main,47,20260311-102903,local,global,750,H,H,E,E,E-H.png,H-E.png,hH,hH,mask-4.png,mask-3.png,h,1,0.7459111998323351,h,1,0.6837106000166386,0.04775079991668463,0.04773849993944168,0.10077350004576147,0.09979270002804697,0.7502216999419034
RSVPLG03,JM,20260311-102451,1.0.2,20251105-084826,803,Experiment,Both,1,Automatic,main,48,20260311-102909,global,local,750,S,H,A,A,S-A.png,A-H.png,sS,hH,mask-1.png,mask-3.png,s,1,1.1015868000686169,h,1,0.2797179000917822,0.048510400112718344,0.04749940009787679,0.10054540005512536,0.09949419996701181,0.7509576000738889
RSVPLG03,JM,20260311-102451,1.0.2,20251105-084826,803,Experiment,Both,1,Automatic,main,49,20260311-102915,global,global,300,S,H,A,E,S-A.png,H-E.png,sS,hH,mask-4.png,mask-2.png,s,1,1.0490399000700563,h,1,0.22001709998585284,0.047502399887889624,0.04657529992982745,0.09952749987132847,0.0996403000317514,0.2999686000403017
RSVPLG03,JM,20260311-102451,1.0.2,20251105-084826,803,Experiment,Both,1,Automatic,main,50,20260311-102919,global,global,300,S,S,E,A,S-E.png,S-A.png,sS,sS,mask-1.png,mask-4.png,s,1,0.7095399000681937,s,1,0.2773097001481801,0.04752000002190471,0.04759510001167655,0.10153169999830425,0.10061159986071289,0.3011314000468701
RSVPLG03,JM,20260311-102451,1.0.2,20251105-084826,803,Experiment,Both,1,Automatic,main,51,20260311-102935,global,global,750,S,H,A,E,S-A.png,H-E.png,sS,hH,mask-1.png,mask-4.png,s,1,0.7710515998769552,h,1,0.30941570014692843,0.046720300102606416,0.047855200013145804,0.09934450010769069,0.10089340014383197,0.7491576999891549
RSVPLG03,JM,20260311-102451,1.0.2,20251105-084826,803,Experiment,Both,1,Automatic,main,52,20260311-102940,local,global,300,S,H,A,E,A-S.png,H-E.png,sS,hH,mask-4.png,mask-2.png,s,1,0.9861842000391334,h,1,0.18762139999307692,0.04869839991442859,0.04675920004956424,0.09999429993331432,0.09989860001951456,0.30014649988152087
RSVPLG03,JM,20260311-102451,1.0.2,20251105-084826,803,Experiment,Both,1,Automatic,main,53,20260311-102945,global,local,750,H,H,E,A,H-E.png,A-H.png,hH,hH,mask-4.png,mask-1.png,h,1,0.4485523998737335,h,1,0.21702999994158745,0.04776900005526841,0.0459836998488754,0.0996053998824209,0.10034599993377924,0.7499079999979585
RSVPLG03,JM,20260311-102451,1.0.2,20251105-084826,803,Experiment,Both,1,Automatic,main,54,20260311-102949,local,local,300,S,H,E,A,E-S.png,A-H.png,sS,hH,mask-1.png,mask-3.png,s,1,0.6498497000429779,h,1,0.16725869989022613,0.046877099899575114,0.04867519997060299,0.10017580003477633,0.10106229991652071,0.2988193999044597
RSVPLG03,JM,20260311-102451,1.0.2,20251105-084826,803,Experiment,Both,1,Automatic,main,55,20260311-102954,local,global,300,H,S,A,A,A-H.png,S-A.png,hH,sS,mask-3.png,mask-3.png,h,1,0.4540836999658495,h,0,0.13758919993415475,0.04731579986400902,0.04723380017094314,0.09965320001356304,0.10040980018675327,0.3001148998737335
RSVPLG03,JM,20260311-102451,1.0.2,20251105-084826,803,Experiment,Both,1,Automatic,main,56,20260311-102958,global,global,300,S,S,A,A,S-A.png,S-A.png,sS,sS,mask-1.png,mask-2.png,s,1,0.518570699961856,s,1,0.18792550009675324,0.04690610012039542,0.04582620016299188,0.10014390014111996,0.1000369000248611,0.30007110000588
RSVPLG03,JM,20260311-102451,1.0.2,20251105-084826,803,Experiment,Both,1,Automatic,main,57,20260311-103003,local,global,750,H,H,A,E,A-H.png,H-E.png,hH,hH,mask-1.png,mask-2.png,h,1,0.9232980001252145,s,0,0.29915600013919175,0.04753690003417432,0.047809300012886524,0.1005386000033468,0.10003040009178221,0.7509872999507934
RSVPLG03,JM,20260311-102451,1.0.2,20251105-084826,803,Experiment,Both,1,Automatic,main,58,20260311-103008,global,local,300,S,S,A,E,S-A.png,E-S.png,sS,sS,mask-3.png,mask-4.png,s,1,0.5655171999242157,s,1,0.2929461000021547,0.04596400004811585,0.04869160009548068,0.09824210009537637,0.09989950014278293,0.2988160999957472
RSVPLG03,JM,20260311-102451,1.0.2,20251105-084826,803,Experiment,Both,1,Automatic,main,59,20260311-103013,local,local,300,H,H,E,A,E-H.png,A-H.png,hH,hH,mask-2.png,mask-1.png,h,1,0.7655174001120031,h,1,0.2140236000996083,0.04764849995262921,0.047665199963375926,0.10176189988851547,0.09984549996443093,0.30035070003941655
RSVPLG03,JM,20260311-102451,1.0.2,20251105-084826,803,Experiment,Both,1,Automatic,main,60,20260311-103017,local,local,300,H,S,A,E,A-H.png,E-S.png,hH,sS,mask-3.png,mask-3.png,h,1,0.7949971999041736,s,1,0.31301170005463064,0.047721399925649166,0.04769419995136559,0.09882869990542531,0.09972209995612502,0.30046129995025694
RSVPLG03,JM,20260311-102451,1.0.2,20251105-084826,803,Experiment,Both,1,Automatic,main,61,20260311-103022,local,local,750,S,S,E,A,E-S.png,A-S.png,sS,sS,mask-2.png,mask-1.png,s,1,1.2105405000038445,h,0,0.168331999797374,0.04767080000601709,0.04759249999187887,0.09989620000123978,0.09901329991407692,0.75164830009453
RSVPLG03,JM,20260311-102451,1.0.2,20251105-084826,803,Experiment,Both,1,Automatic,main,62,20260311-103028,local,global,300,H,S,E,E,E-H.png,S-E.png,hH,sS,mask-3.png,mask-4.png,h,1,1.6052434002049267,s,1,0.9081252000760287,0.047554299933835864,0.045698000118136406,0.09957229997962713,0.09963549999520183,0.2998265998903662
RSVPLG03,JM,20260311-102451,1.0.2,20251105-084826,803,Experiment,Both,1,Automatic,main,63,20260311-103034,local,global,300,S,H,A,E,A-S.png,H-E.png,sS,hH,mask-4.png,mask-2.png,s,1,1.0805325999390334,s,0,0.21613389998674393,0.04877860005944967,0.04767200001515448,0.09998230007477105,0.09984729997813702,0.30158680002205074
RSVPLG03,JM,20260311-102451,1.0.2,20251105-084826,803,Experiment,Both,1,Automatic,main,64,20260311-103039,global,local,300,S,S,A,E,S-A.png,E-S.png,sS,sS,mask-4.png,mask-1.png,s,1,0.8959528000559658,h,0,0.39366209995932877,0.04790490004234016,0.04634750005789101,0.10110100009478629,0.10023520002141595,0.3013051999732852
RSVPLG03,JM,20260311-102451,1.0.2,20251105-084826,803,Experiment,Both,1,Automatic,main,65,20260311-103044,global,global,750,H,H,E,A,H-E.png,H-A.png,hH,hH,mask-4.png,mask-3.png,h,1,0.5323801001068205,h,1,0.2816166998818517,0.04754319996573031,0.047030000016093254,0.10109849995933473,0.10010210005566478,0.7516628000885248
RSVPLG03,JM,20260311-102451,1.0.2,20251105-084826,803,Experiment,Both,1,Automatic,main,66,20260311-103049,local,local,300,S,H,E,A,E-S.png,A-H.png,sS,hH,mask-2.png,mask-3.png,s,1,0.861689800163731,h,1,0.18787960009649396,0.04769870010204613,0.04691609996370971,0.1000123000703752,0.09902919991873205,0.30036530015058815
RSVPLG03,JM,20260311-102451,1.0.2,20251105-084826,803,Experiment,Both,1,Automatic,main,67,20260311-103053,local,global,300,H,H,A,A,A-H.png,H-A.png,hH,hH,mask-1.png,mask-3.png,h,1,0.43162929988466203,s,0,0.2077448999043554,0.04683850007131696,0.047539199935272336,0.10093650012277067,0.09954699990339577,0.30026220018044114
RSVPLG03,JM,20260311-102451,1.0.2,20251105-084826,803,Experiment,Both,1,Automatic,main,68,20260311-103058,local,local,300,S,S,A,E,A-S.png,E-S.png,sS,sS,mask-3.png,mask-3.png,h,0,0.5618581001181155,s,1,0.1236370000988245,0.04666510014794767,0.04766779998317361,0.10067190020345151,0.1017293999902904,0.2990866000764072
RSVPLG03,JM,20260311-102451,1.0.2,20251105-084826,803,Experiment,Both,1,Automatic,main,69,20260311-103102,global,local,300,S,H,A,E,S-A.png,E-H.png,sS,hH,mask-1.png,mask-1.png,s,1,0.7194531001150608,s,0,0.11952889990061522,0.04755469993688166,0.04653130006045103,0.09963369998149574,0.09958030004054308,0.3000300999265164
RSVPLG03,JM,20260311-102451,1.0.2,20251105-084826,803,Experiment,Both,1,Automatic,main,70,20260311-103107,global,local,300,S,S,E,A,S-E.png,A-S.png,sS,sS,mask-3.png,mask-3.png,s,1,0.45039320015348494,h,0,0.09245700016617775,0.047508500050753355,0.04753439989872277,0.10051280003972352,0.09955629985779524,0.3008006000891328
RSVPLG03,JM,20260311-102451,1.0.2,20251105-084826,803,Experiment,Both,1,Automatic,main,71,20260311-103111,global,global,300,S,S,E,E,S-E.png,S-E.png,sS,sS,mask-1.png,mask-2.png,s,1,0.4418203001841903,s,1,0.2209634999744594,0.04749020002782345,0.04751360020600259,0.10149379982613027,0.10056460020132363,0.30107359983958304
RSVPLG03,JM,20260311-102451,1.0.2,20251105-084826,803,Experiment,Both,1,Automatic,main,72,20260311-103115,global,global,750,S,H,E,E,S-E.png,H-E.png,sS,hH,mask-3.png,mask-4.png,s,1,1.0788209000602365,h,1,0.29398919991217554,0.04752869997173548,0.04751250008121133,0.10050820000469685,0.10052680014632642,0.7518076999112964
RSVPLG03,JM,20260311-102451,1.0.2,20251105-084826,803,Experiment,Both,1,Automatic,main,73,20260311-103121,local,local,750,S,H,E,A,E-S.png,A-H.png,sS,hH,mask-4.png,mask-4.png,s,1,0.5392589999828488,h,1,0.2360865999944508,0.04751090006902814,0.0474394999910146,0.09952099993824959,0.100285500055179,0.7488204999826849
RSVPLG03,JM,20260311-102451,1.0.2,20251105-084826,803,Experiment,Both,1,Automatic,main,74,20260311-103126,local,global,750,H,H,E,E,E-H.png,H-E.png,hH,hH,mask-4.png,mask-1.png,s,0,0.7771861001383513,h,1,0.09194389986805618,0.0485062999650836,0.04645799985155463,0.10054849996231496,0.09939119988121092,0.7508221999742091
RSVPLG03,JM,20260311-102451,1.0.2,20251105-084826,803,Experiment,Both,1,Automatic,main,75,20260311-103131,global,local,750,S,H,E,A,S-E.png,A-H.png,sS,hH,mask-3.png,mask-1.png,s,1,0.6811365000903606,h,1,0.2337541999295354,0.04752349993214011,0.048621200025081635,0.0995775000192225,0.1016328998375684,0.748611900024116
RSVPLG03,JM,20260311-102451,1.0.2,20251105-084826,803,Experiment,Both,1,Automatic,main,76,20260311-103150,local,local,750,S,S,A,A,A-S.png,A-S.png,sS,sS,mask-4.png,mask-4.png,s,1,0.45938250003382564,s,1,0.37927739997394383,0.04852570011280477,0.04756920016370714,0.0999088000971824,0.09957780013792217,0.7504879999905825
RSVPLG03,JM,20260311-102451,1.0.2,20251105-084826,803,Experiment,Both,1,Automatic,main,77,20260311-103154,local,local,750,S,H,E,E,E-S.png,E-H.png,sS,hH,mask-1.png,mask-4.png,s,1,0.3622183999978006,h,1,0.21536150015890598,0.04751510010100901,0.04850980010814965,0.10053310007788241,0.10152100003324449,0.7489489000290632
RSVPLG03,JM,20260311-102451,1.0.2,20251105-084826,803,Experiment,Both,1,Automatic,main,78,20260311-103159,local,local,750,S,S,E,E,E-S.png,E-S.png,sS,sS,mask-3.png,mask-2.png,s,1,0.38263110001571476,s,1,0.4097932998556644,0.04767209989950061,0.04768300009891391,0.09987279982306063,0.10088229994289577,0.7497143999207765
RSVPLG03,JM,20260311-102451,1.0.2,20251105-084826,803,Experiment,Both,1,Automatic,main,79,20260311-103204,local,local,750,S,H,E,E,E-S.png,E-H.png,sS,hH,mask-1.png,mask-1.png,s,1,0.46698979986831546,h,1,0.20433519990183413,0.04666549991816282,0.04768530000001192,0.09964999998919666,0.10093159996904433,0.7499170999508351
RSVPLG03,JM,20260311-102451,1.0.2,20251105-084826,803,Experiment,Both,1,Automatic,main,80,20260311-103209,global,local,750,H,S,E,A,H-E.png,A-S.png,hH,sS,mask-1.png,mask-4.png,h,1,0.6877312001306564,s,1,0.8238433999940753,0.04769139993004501,0.04871250013820827,0.10006630001589656,0.09993480006232858,0.7499521998688579
RSVPLG03,JM,20260311-102451,1.0.2,20251105-084826,803,Experiment,Both,1,Automatic,main,81,20260311-103215,local,global,750,S,S,E,A,E-S.png,S-A.png,sS,sS,mask-2.png,mask-1.png,s,1,0.4805217001121491,s,1,0.2817667000927031,0.04727490013465285,0.046811699867248535,0.100370500003919,0.09913489990867674,0.7504408000968397
RSVPLG03,JM,20260311-102451,1.0.2,20251105-084826,803,Experiment,Both,1,Automatic,main,82,20260311-103220,global,global,750,H,S,E,E,H-E.png,S-E.png,hH,sS,mask-2.png,mask-1.png,h,1,0.7626991998404264,s,1,0.18736109999008477,0.04621100006625056,0.0471240000333637,0.09921899996697903,0.09914860012941062,0.7502573998644948
RSVPLG03,JM,20260311-102451,1.0.2,20251105-084826,803,Experiment,Both,1,Automatic,main,83,20260311-103225,local,local,750,H,S,E,A,E-H.png,A-S.png,hH,sS,mask-4.png,mask-4.png,s,0,0.38322259997949004,s,1,0.28313400014303625,0.047515999991446733,0.04770309990271926,0.09952920000068843,0.09981859987601638,0.7496019001118839
RSVPLG03,JM,20260311-102451,1.0.2,20251105-084826,803,Experiment,Both,1,Automatic,main,84,20260311-103230,global,local,300,H,S,A,E,H-A.png,E-S.png,hH,sS,mask-3.png,mask-1.png,h,1,0.7176279998384416,h,0,0.14245709986425936,0.04744370002299547,0.04758440004661679,0.10058670002035797,0.10089450003579259,0.29999869992025197
RSVPLG03,JM,20260311-102451,1.0.2,20251105-084826,803,Experiment,Both,1,Automatic,main,85,20260311-103234,global,local,750,H,H,E,E,H-E.png,E-H.png,hH,hH,mask-2.png,mask-4.png,h,1,0.6778284998144954,s,0,0.16718690004199743,0.046383000211790204,0.0471325998660177,0.09961170004680753,0.09947820007801056,0.7502449001185596
RSVPLG03,JM,20260311-102451,1.0.2,20251105-084826,803,Experiment,Both,1,Automatic,main,86,20260311-103239,local,local,300,H,H,A,E,A-H.png,E-H.png,hH,hH,mask-4.png,mask-2.png,h,1,0.7250524999108166,h,1,0.25821799994446337,0.04761030012741685,0.047379700001329184,0.1000318001024425,0.09853970003314316,0.3015885001514107
RSVPLG03,JM,20260311-102451,1.0.2,20251105-084826,803,Experiment,Both,1,Automatic,main,87,20260311-103244,local,local,300,H,S,E,A,E-H.png,A-S.png,hH,sS,mask-4.png,mask-2.png,h,1,0.6362203999888152,h,0,0.1549443998374045,0.047914500115439296,0.04720779997296631,0.1007833001203835,0.10006830003112555,0.3006386000197381
RSVPLG03,JM,20260311-102451,1.0.2,20251105-084826,803,Experiment,Both,1,Automatic,main,88,20260311-103248,local,local,300,H,S,E,E,E-H.png,E-S.png,hH,sS,mask-4.png,mask-4.png,h,1,0.461543699959293,s,1,0.093729899963364,0.04749480006285012,0.04792479984462261,0.09953880007378757,0.09994699992239475,0.29980830010026693
RSVPLG03,JM,20260311-102451,1.0.2,20251105-084826,803,Experiment,Both,1,Automatic,main,89,20260311-103253,global,local,750,H,S,A,E,H-A.png,E-S.png,hH,sS,mask-4.png,mask-4.png,h,1,0.671284600161016,s,1,0.17081509996205568,0.048489300068467855,0.047491699922829866,0.1003135999199003,0.09945959993638098,0.7510617000516504
RSVPLG03,JM,20260311-102451,1.0.2,20251105-084826,803,Experiment,Both,1,Automatic,main,90,20260311-103257,global,local,750,S,S,A,A,S-A.png,A-S.png,sS,sS,mask-2.png,mask-1.png,s,1,0.6426921999081969,s,1,0.16532929986715317,0.047515799989923835,0.04755200003273785,0.09956420003436506,0.10039780009537935,0.7495329000521451
RSVPLG03,JM,20260311-102451,1.0.2,20251105-084826,803,Experiment,Both,1,Automatic,main,91,20260311-103302,global,local,750,S,S,E,A,S-E.png,A-S.png,sS,sS,mask-2.png,mask-3.png,s,1,0.47865089983679354,s,1,0.16608760016970336,0.04751179995946586,0.04853640007786453,0.10152569995261729,0.10052630002610385,0.7509828999172896
RSVPLG03,JM,20260311-102451,1.0.2,20251105-084826,803,Experiment,Both,1,Automatic,main,92,20260311-103307,global,global,750,H,S,A,E,H-A.png,S-E.png,hH,sS,mask-2.png,mask-4.png,h,1,0.677917200140655,s,1,0.23365710000507534,0.0487748000305146,0.04774670000188053,0.10006939992308617,0.09938380005769432,0.7514045999851078
RSVPLG03,JM,20260311-102451,1.0.2,20251105-084826,803,Experiment,Both,1,Automatic,main,93,20260311-103312,global,global,750,S,S,A,E,S-A.png,S-E.png,sS,sS,mask-1.png,mask-4.png,s,1,0.4823822998441756,s,1,0.31303149997256696,0.045690700178965926,0.04754059994593263,0.09988260013051331,0.09945550002157688,0.750171400140971
RSVPLG03,JM,20260311-102451,1.0.2,20251105-084826,803,Experiment,Both,1,Automatic,main,94,20260311-103317,local,global,750,H,S,A,A,A-H.png,S-A.png,hH,sS,mask-4.png,mask-2.png,h,1,0.9600903000682592,h,0,0.47666950011625886,0.04747970006428659,0.0474974000826478,0.10056120017543435,0.10052830004133284,0.7496462999843061
RSVPLG03,JM,20260311-102451,1.0.2,20251105-084826,803,Experiment,Both,1,Automatic,main,95,20260311-103323,local,local,750,S,H,A,E,A-S.png,E-H.png,sS,hH,mask-3.png,mask-2.png,h,0,0.5169242001138628,h,1,0.3743653998244554,0.048600499983876944,0.04651090013794601,0.0997262999881059,0.09961439995095134,0.7509269998408854
RSVPLG03,JM,20260311-102451,1.0.2,20251105-084826,803,Experiment,Both,1,Automatic,main,96,20260311-103328,local,local,750,S,H,A,A,A-S.png,A-H.png,sS,hH,mask-1.png,mask-1.png,s,1,0.8082747000735253,h,1,0.09284229995682836,0.046496600145474076,0.047521499916911125,0.10054010013118386,0.10057600005529821,0.749987700022757
RSVPLG03,JM,20260311-102451,1.0.2,20251105-084826,803,Experiment,Both,1,Automatic,main,97,20260311-103333,global,local,300,H,S,E,A,H-E.png,A-S.png,hH,sS,mask-3.png,mask-2.png,h,1,0.7324244999326766,h,0,0.6500859002117068,0.04773289989680052,0.047534999903291464,0.10081969993188977,0.09963379986584187,0.30054219998419285
RSVPLG03,JM,20260311-102451,1.0.2,20251105-084826,803,Experiment,Both,1,Automatic,main,98,20260311-103338,global,local,750,H,S,E,E,H-E.png,E-S.png,hH,sS,mask-2.png,mask-1.png,h,1,0.5858276998624206,s,1,0.18129279999993742,0.0456256999168545,0.047511300072073936,0.09910740004852414,0.10054649994708598,0.749656799947843
RSVPLG03,JM,20260311-102451,1.0.2,20251105-084826,803,Experiment,Both,1,Automatic,main,99,20260311-103343,global,local,750,S,S,A,A,S-A.png,A-S.png,sS,sS,mask-2.png,mask-1.png,s,1,0.390497799962759,s,1,0.19619709998369217,0.04752829996868968,0.04749109991826117,0.09944499982520938,0.09990769997239113,0.7497147999238223
RSVPLG03,JM,20260311-102451,1.0.2,20251105-084826,803,Experiment,Both,1,Automatic,main,100,20260311-103348,global,global,300,H,H,A,A,H-A.png,H-A.png,hH,hH,mask-1.png,mask-1.png,h,1,0.48064640001393855,h,1,0.16544430004432797,0.04874589992687106,0.04764269990846515,0.09995089983567595,0.09982929984107614,0.30156349996104836
