exp,exp_initials,runtime,ver,modtime,sub,blocktype,targets,cuetype,mode,trialtype,trial,trialtime,t1_level,t2_level,t2_lag,t1,t2,distractor1,distractor2,stimfile1,stimfile2,t1_corr,t2_corr,maskfile1,maskfile2,t1_resp,t1_acc,t1_rt,t2_resp,t2_acc,t2_rt,t1_dur,t2_dur,t1mask_soa,t2mask_soa,t1t2_soa
RSVPLG03,md,20251104-091612,1.0.1,20251020-085245,732,Introduction,T1,1,Automatic,main,1,20251104-091635,local,global,750,H,H,A,A,A-H.png,H-A.png,hH,hH,mask-4.png,mask-2.png,s,0,1.8648022001143545,none,-5,0,0.09048829996027052,0.09756350005045533,0.19350389996543527,0.20087410020641983,0.7433115998283029
RSVPLG03,md,20251104-091612,1.0.1,20251020-085245,732,Introduction,T1,1,Automatic,main,2,20251104-091641,local,local,750,H,H,A,A,A-H.png,A-H.png,hH,hH,mask-4.png,mask-2.png,h,1,1.1822565000038594,none,-5,0,0.09857690008357167,0.09744469984434545,0.20059409993700683,0.19933609990403056,0.7515627001412213
RSVPLG03,md,20251104-091612,1.0.1,20251020-085245,732,Introduction,T1,1,Automatic,main,3,20251104-091647,global,global,750,H,H,E,A,H-E.png,H-A.png,hH,hH,mask-3.png,mask-3.png,h,1,1.9971350999549031,none,-5,0,0.09741110005415976,0.09744100016541779,0.2003228000830859,0.1993863999377936,0.7502401999663562
RSVPLG03,md,20251104-091612,1.0.1,20251020-085245,732,Introduction,T1,1,Automatic,main,4,20251104-091653,local,global,750,H,S,E,A,E-H.png,S-A.png,hH,sS,mask-1.png,mask-4.png,s,0,1.4401298000011593,none,-5,0,0.09735409985296428,0.09731740015558898,0.19925419986248016,0.20003910013474524,0.7503328998573124
RSVPLG03,md,20251104-091612,1.0.1,20251020-085245,732,Introduction,T1,1,Automatic,main,5,20251104-091659,global,global,750,H,S,E,A,H-E.png,S-A.png,hH,sS,mask-4.png,mask-4.png,h,1,1.683302499819547,none,-5,0,0.09778179996646941,0.09819240006618202,0.19969499995931983,0.20111260004341602,0.7500970000401139
RSVPLG03,md,20251104-091612,1.0.1,20251020-085245,732,Introduction,T1,1,Automatic,main,6,20251104-091704,local,local,750,H,H,A,A,A-H.png,A-H.png,hH,hH,mask-4.png,mask-4.png,h,1,2.245369300013408,none,-5,0,0.097451499896124,0.09751860005781054,0.20053989998996258,0.2005606999155134,0.7508660999592394
RSVPLG03,md,20251104-091612,1.0.1,20251020-085245,732,Introduction,T1,1,Automatic,main,7,20251104-091711,local,local,750,S,S,E,E,E-S.png,E-S.png,sS,sS,mask-4.png,mask-1.png,s,1,1.0616349000483751,none,-5,0,0.09756290004588664,0.09846149990335107,0.2006938001140952,0.2011786000803113,0.7505441000685096
RSVPLG03,md,20251104-091612,1.0.1,20251020-085245,732,Introduction,T1,1,Automatic,main,8,20251104-091716,global,local,750,H,S,A,A,H-A.png,A-S.png,hH,sS,mask-4.png,mask-4.png,s,0,1.2415653001517057,none,-5,0,0.09936319990083575,0.09737380011938512,0.201197300106287,0.20021980023011565,0.7515284998808056
RSVPLG03,md,20251104-091612,1.0.1,20251020-085245,732,Introduction,T1,1,Automatic,main,9,20251104-091721,local,global,750,S,S,A,A,A-S.png,S-A.png,sS,sS,mask-1.png,mask-4.png,h,0,1.0310025999788195,none,-5,0,0.09565229993313551,0.0978297998663038,0.2002826000098139,0.2007102998904884,0.7496396999340504
RSVPLG03,md,20251104-091612,1.0.1,20251020-085245,732,Introduction,T1,1,Automatic,main,10,20251104-091726,global,global,750,H,H,A,A,H-A.png,H-A.png,hH,hH,mask-2.png,mask-2.png,h,1,1.0074678999371827,none,-5,0,0.09790079994127154,0.09839730011299253,0.19810759997926652,0.20101239997893572,0.750270799966529
RSVPLG03,md,20251104-091612,1.0.1,20251020-085245,732,Introduction,T1,1,Automatic,main,11,20251104-091732,local,local,750,S,H,A,A,A-S.png,A-H.png,sS,hH,mask-2.png,mask-4.png,h,0,1.5799316999036819,none,-5,0,0.09846000000834465,0.09882880002260208,0.2014776999130845,0.20061239995993674,0.7504702999722213
RSVPLG03,md,20251104-091612,1.0.1,20251020-085245,732,Introduction,T1,1,Automatic,main,12,20251104-091737,local,global,750,S,H,E,A,E-S.png,H-A.png,sS,hH,mask-4.png,mask-1.png,s,1,0.8006580998189747,none,-5,0,0.09739910019561648,0.09753190004266798,0.20118980016559362,0.200450100004673,0.7513183001428843
RSVPLG03,md,20251104-091612,1.0.1,20251020-085245,732,Introduction,T1,1,Automatic,main,13,20251104-091742,global,local,750,H,H,E,E,H-E.png,E-H.png,hH,hH,mask-1.png,mask-1.png,h,1,0.6113517000339925,none,-5,0,0.09819670021533966,0.09709380008280277,0.20096020004712045,0.19951790012419224,0.7509874000679702
RSVPLG03,md,20251104-091612,1.0.1,20251020-085245,732,Introduction,T1,1,Automatic,main,14,20251104-091747,global,global,750,H,H,A,A,H-A.png,H-A.png,hH,hH,mask-1.png,mask-3.png,s,0,1.0244968000333756,none,-5,0,0.09735430008731782,0.09726270008832216,0.2012660000473261,0.20015030005015433,0.7513147999998182
RSVPLG03,md,20251104-091612,1.0.1,20251020-085245,732,Introduction,T1,1,Automatic,main,15,20251104-091752,global,local,750,S,H,A,E,S-A.png,E-H.png,sS,hH,mask-1.png,mask-2.png,s,1,0.741332600126043,none,-5,0,0.09638580004684627,0.0977793000638485,0.19924909994006157,0.20054959994740784,0.7487230999395251
RSVPLG03,md,20251104-091612,1.0.1,20251020-085245,732,Introduction,T1,1,Automatic,main,16,20251104-091757,global,local,750,S,S,E,A,S-E.png,A-S.png,sS,sS,mask-4.png,mask-3.png,h,0,0.9064627999905497,none,-5,0,0.0963582000695169,0.09834830020554364,0.20025140000507236,0.20090200006961823,0.7500899999868125
RSVPLG03,md,20251104-091837,1.0.1,20251020-085245,732,Practice,T1,1,Automatic,main,1,20251104-091858,local,global,300,H,H,E,E,E-H.png,H-E.png,hH,hH,mask-4.png,mask-4.png,s,0,1.4938575001433492,none,-5,0,0.039311999920755625,0.048581400187686086,0.09217579988762736,0.1011386001482606,0.29242059984244406
RSVPLG03,md,20251104-091837,1.0.1,20251020-085245,732,Practice,T1,1,Automatic,main,2,20251104-091903,local,global,300,S,S,E,E,E-S.png,S-E.png,sS,sS,mask-4.png,mask-4.png,s,1,1.296848800033331,none,-5,0,0.04704339988529682,0.047819700092077255,0.09921979997307062,0.09997499990276992,0.2989870000164956
RSVPLG03,md,20251104-091837,1.0.1,20251020-085245,732,Practice,T1,1,Automatic,main,3,20251104-091908,local,global,750,S,S,A,E,A-S.png,S-E.png,sS,sS,mask-2.png,mask-2.png,h,0,0.5722318000625819,none,-5,0,0.04747990006580949,0.04754190007224679,0.10057400004006922,0.0986438998952508,0.7505928999744356
RSVPLG03,md,20251104-091837,1.0.1,20251020-085245,732,Practice,T1,1,Automatic,main,4,20251104-091913,global,global,300,H,S,A,E,H-A.png,S-E.png,hH,sS,mask-2.png,mask-1.png,h,1,0.7203821998555213,none,-5,0,0.04840720002539456,0.04732979997061193,0.10027800011448562,0.09921619994565845,0.3011169000528753
RSVPLG03,md,20251104-091837,1.0.1,20251020-085245,732,Practice,T1,1,Automatic,main,5,20251104-091917,global,local,300,S,S,A,A,S-A.png,A-S.png,sS,sS,mask-3.png,mask-4.png,s,1,1.0031786998733878,none,-5,0,0.0494832000695169,0.0485020000487566,0.10050840000621974,0.09981380007229745,0.30070620006881654
RSVPLG03,md,20251104-091837,1.0.1,20251020-085245,732,Practice,T1,1,Automatic,main,6,20251104-091922,global,local,750,S,H,E,E,S-E.png,E-H.png,sS,hH,mask-2.png,mask-4.png,s,1,0.6379768999759108,none,-5,0,0.04856229992583394,0.04791130009107292,0.10157199995592237,0.10098720015957952,0.7503219998907298
RSVPLG03,md,20251104-091837,1.0.1,20251020-085245,732,Practice,T1,1,Automatic,main,7,20251104-091926,local,local,300,H,S,E,A,E-H.png,A-S.png,hH,sS,mask-2.png,mask-2.png,s,0,1.1079945999663323,none,-5,0,0.04753839992918074,0.04751980002038181,0.09892209991812706,0.10052370000630617,0.30027120001614094
RSVPLG03,md,20251104-091837,1.0.1,20251020-085245,732,Practice,T1,1,Automatic,main,8,20251104-091931,global,global,750,H,S,E,A,H-E.png,S-A.png,hH,sS,mask-2.png,mask-4.png,h,1,0.6668479000218213,none,-5,0,0.04755669995211065,0.04648880008608103,0.10063270013779402,0.09962910017929971,0.7507331999950111
RSVPLG03,md,20251104-091837,1.0.1,20251020-085245,732,Practice,T1,1,Automatic,main,9,20251104-091935,local,local,750,H,S,A,E,A-H.png,E-S.png,hH,sS,mask-1.png,mask-1.png,h,1,0.7171760001219809,none,-5,0,0.04767400003038347,0.04759390000253916,0.0991559000685811,0.09981660009361804,0.7502723000943661
RSVPLG03,md,20251104-091837,1.0.1,20251020-085245,732,Practice,T1,1,Automatic,main,10,20251104-091940,global,local,300,H,S,A,A,H-A.png,A-S.png,hH,sS,mask-4.png,mask-2.png,h,1,0.5875168999191374,none,-5,0,0.04768590000458062,0.047755900071933866,0.099721800070256,0.09997650003060699,0.29998239991255105
RSVPLG03,md,20251104-091837,1.0.1,20251020-085245,732,Practice,T1,1,Automatic,main,11,20251104-091944,global,global,300,S,S,E,A,S-E.png,S-A.png,sS,sS,mask-2.png,mask-1.png,s,1,0.622995600104332,none,-5,0,0.04866080009378493,0.04682749998755753,0.10185489989817142,0.10104610002599657,0.30068719992414117
RSVPLG03,md,20251104-091837,1.0.1,20251020-085245,732,Practice,T1,1,Automatic,main,12,20251104-091948,global,local,750,S,H,E,A,S-E.png,A-H.png,sS,hH,mask-3.png,mask-3.png,h,0,1.155783100053668,none,-5,0,0.04570319992490113,0.045740799978375435,0.09888969990424812,0.09997089998796582,0.7499426999129355
RSVPLG03,md,20251104-091837,1.0.1,20251020-085245,732,Practice,T1,1,Automatic,main,13,20251104-091953,local,local,750,H,S,E,A,E-H.png,A-S.png,hH,sS,mask-3.png,mask-3.png,s,0,0.6824318999424577,none,-5,0,0.04752849997021258,0.04749969998374581,0.1015523998066783,0.10150270001031458,0.7501269998028874
RSVPLG03,md,20251104-091837,1.0.1,20251020-085245,732,Practice,T1,1,Automatic,main,14,20251104-091958,global,global,750,H,S,A,A,H-A.png,S-A.png,hH,sS,mask-1.png,mask-4.png,h,1,0.6379604001995176,none,-5,0,0.04860959993675351,0.04689139989204705,0.10161240003071725,0.09997679991647601,0.7505497999954969
RSVPLG03,md,20251104-091837,1.0.1,20251020-085245,732,Practice,T1,1,Automatic,main,15,20251104-092003,local,global,750,H,H,A,E,A-H.png,H-E.png,hH,hH,mask-3.png,mask-4.png,s,0,0.5093682000879198,none,-5,0,0.04598070005886257,0.04670579987578094,0.09828300005756319,0.0989514000248164,0.750058599980548
RSVPLG03,md,20251104-091837,1.0.1,20251020-085245,732,Practice,T1,1,Automatic,main,16,20251104-092007,local,local,300,H,H,E,E,E-H.png,E-H.png,hH,hH,mask-2.png,mask-2.png,h,1,0.78905040002428,none,-5,0,0.04670040006749332,0.047667300095781684,0.09988939994946122,0.09975540009327233,0.2995106999296695
RSVPLG03,md,20251104-092028,1.0.1,20251020-085245,732,Practice,T1,1,Automatic,main,1,20251104-092049,local,local,750,H,H,A,A,A-H.png,A-H.png,hH,hH,mask-3.png,mask-2.png,h,1,0.45987979997880757,none,-5,0,0.04034069995395839,0.04767960007302463,0.09275899990461767,0.09989599999971688,0.7434996999800205
RSVPLG03,md,20251104-092028,1.0.1,20251020-085245,732,Practice,T1,1,Automatic,main,2,20251104-092054,global,global,750,H,H,E,E,H-E.png,H-E.png,hH,hH,mask-1.png,mask-3.png,h,1,0.4657135000452399,none,-5,0,0.046681800158694386,0.046705099986866117,0.0988849001005292,0.09998199995607138,0.7500878002028912
RSVPLG03,md,20251104-092028,1.0.1,20251020-085245,732,Practice,T1,1,Automatic,main,3,20251104-092058,local,global,750,S,S,E,A,E-S.png,S-A.png,sS,sS,mask-1.png,mask-3.png,s,1,0.5434455999638885,none,-5,0,0.04701990005560219,0.0463214002083987,0.10087920003570616,0.09942350001074374,0.7511708999518305
RSVPLG03,md,20251104-092028,1.0.1,20251020-085245,732,Practice,T1,1,Automatic,main,4,20251104-092103,global,global,300,H,H,A,A,H-A.png,H-A.png,hH,hH,mask-1.png,mask-1.png,h,1,0.3413950998801738,none,-5,0,0.045654800022020936,0.047655100002884865,0.0998777998611331,0.09984069992788136,0.2984664000105113
RSVPLG03,md,20251104-092028,1.0.1,20251020-085245,732,Practice,T1,1,Automatic,main,5,20251104-092106,global,global,750,S,S,E,E,S-E.png,S-E.png,sS,sS,mask-4.png,mask-2.png,s,1,0.38190370006486773,none,-5,0,0.04756489978171885,0.046991500072181225,0.09957579988986254,0.1011022999882698,0.748321799794212
RSVPLG03,md,20251104-092028,1.0.1,20251020-085245,732,Practice,T1,1,Automatic,main,6,20251104-092111,local,global,300,H,H,E,E,E-H.png,H-E.png,hH,hH,mask-4.png,mask-3.png,h,1,0.751601800089702,none,-5,0,0.04772799997590482,0.04669379978440702,0.09896590001881123,0.09993599983863533,0.3006538001354784
RSVPLG03,md,20251104-092028,1.0.1,20251020-085245,732,Practice,T1,1,Automatic,main,7,20251104-092115,global,local,300,H,S,A,A,H-A.png,A-S.png,hH,sS,mask-3.png,mask-3.png,h,1,0.4010508998762816,none,-5,0,0.04862609994597733,0.04650259995833039,0.10164660005830228,0.09941170015372336,0.3007447998970747
RSVPLG03,md,20251104-092028,1.0.1,20251020-085245,732,Practice,T1,1,Automatic,main,8,20251104-092119,global,local,750,S,S,E,A,S-E.png,A-S.png,sS,sS,mask-4.png,mask-2.png,s,1,0.5419397000223398,none,-5,0,0.0484288998413831,0.04850209993310273,0.10048939986154437,0.1015283998567611,0.7490373000036925
RSVPLG03,md,20251104-092028,1.0.1,20251020-085245,732,Practice,T1,1,Automatic,main,9,20251104-092123,global,local,300,S,H,A,E,S-A.png,E-H.png,sS,hH,mask-3.png,mask-2.png,s,1,0.4611818001139909,none,-5,0,0.047552800038829446,0.046539299888536334,0.1015533001627773,0.10054869996383786,0.3008197001181543
RSVPLG03,md,20251104-092028,1.0.1,20251020-085245,732,Practice,T1,1,Automatic,main,10,20251104-092127,global,global,300,H,S,E,A,H-E.png,S-A.png,hH,sS,mask-3.png,mask-2.png,h,1,0.39938610000535846,none,-5,0,0.047495700186118484,0.04749609995633364,0.0984859000891447,0.09948670002631843,0.3000398001167923
RSVPLG03,md,20251104-092028,1.0.1,20251020-085245,732,Practice,T1,1,Automatic,main,11,20251104-092131,local,local,750,H,S,E,E,E-H.png,E-S.png,hH,sS,mask-3.png,mask-2.png,s,0,0.6056768000125885,none,-5,0,0.048548700055107474,0.047536199912428856,0.10061860014684498,0.10063959984108806,0.750696400180459
RSVPLG03,md,20251104-092028,1.0.1,20251020-085245,732,Practice,T1,1,Automatic,main,12,20251104-092136,local,local,300,H,H,A,A,A-H.png,A-H.png,hH,hH,mask-4.png,mask-2.png,h,1,0.5568788999225944,none,-5,0,0.04751459998078644,0.04751019994728267,0.09853950003162026,0.10055299988016486,0.29822460003197193
RSVPLG03,md,20251104-092028,1.0.1,20251020-085245,732,Practice,T1,1,Automatic,main,13,20251104-092140,local,global,300,S,S,E,A,E-S.png,S-A.png,sS,sS,mask-2.png,mask-4.png,s,1,0.531922800000757,none,-5,0,0.047557400073856115,0.04761709994636476,0.09858280001208186,0.0996191999875009,0.29874220001511276
RSVPLG03,md,20251104-092028,1.0.1,20251020-085245,732,Practice,T1,1,Automatic,main,14,20251104-092144,local,local,300,H,H,E,A,E-H.png,A-H.png,hH,hH,mask-2.png,mask-2.png,s,0,0.6259238000493497,none,-5,0,0.04751530010253191,0.04742880002595484,0.10158110014162958,0.09846249991096556,0.3017715001478791
RSVPLG03,md,20251104-092028,1.0.1,20251020-085245,732,Practice,T1,1,Automatic,main,15,20251104-092148,global,local,750,S,S,E,A,S-E.png,A-S.png,sS,sS,mask-1.png,mask-3.png,s,1,0.7079259001184255,none,-5,0,0.04848710005171597,0.047601099824532866,0.10040079988539219,0.09926329995505512,0.7511684000492096
RSVPLG03,md,20251104-092028,1.0.1,20251020-085245,732,Practice,T1,1,Automatic,main,16,20251104-092153,local,global,750,S,H,E,E,E-S.png,H-E.png,sS,hH,mask-3.png,mask-2.png,s,1,0.47552090021781623,none,-5,0,0.04856220004148781,0.04755449993535876,0.10059779998846352,0.09956400003284216,0.7494397000409663
RSVPLG03,md,20251104-092313,1.0.1,20251020-085245,732,Practice,Both,1,Automatic,main,1,20251104-092336,global,local,300,S,S,E,E,S-E.png,E-S.png,sS,sS,mask-3.png,mask-4.png,s,1,1.5489628999494016,h,0,1.5112821999937296,0.04005259997211397,0.0472827001940459,0.09317900007590652,0.10029870015569031,0.29300309997051954
RSVPLG03,md,20251104-092313,1.0.1,20251020-085245,732,Practice,Both,1,Automatic,main,2,20251104-092342,global,local,300,H,S,A,A,H-A.png,A-S.png,hH,sS,mask-3.png,mask-2.png,h,1,1.1244852000381798,s,1,1.115054100053385,0.04668510006740689,0.04771919990889728,0.09888059995137155,0.10097149992361665,0.2984553000424057
RSVPLG03,md,20251104-092313,1.0.1,20251020-085245,732,Practice,Both,1,Automatic,main,3,20251104-092348,local,local,300,H,S,A,E,A-H.png,E-S.png,hH,sS,mask-1.png,mask-3.png,s,0,1.7682219000998884,h,0,0.9687609001994133,0.04668349982239306,0.048573700012639165,0.1007528998889029,0.10080929985269904,0.2993811999913305
RSVPLG03,md,20251104-092313,1.0.1,20251020-085245,732,Practice,Both,1,Automatic,main,4,20251104-092354,global,global,300,H,H,A,E,H-A.png,H-E.png,hH,hH,mask-3.png,mask-2.png,h,1,0.9575370999518782,s,0,1.1636412001680583,0.04759490001015365,0.047539199935272336,0.09958579996600747,0.09958579996600747,0.29982970003038645
RSVPLG03,md,20251104-092313,1.0.1,20251020-085245,732,Practice,Both,1,Automatic,main,5,20251104-092400,local,local,750,S,H,A,A,A-S.png,A-H.png,sS,hH,mask-1.png,mask-3.png,h,0,2.000892900163308,s,0,0.3771021000575274,0.047496900195255876,0.04750670003704727,0.0991760001052171,0.09950749995186925,0.749957200139761
RSVPLG03,md,20251104-092313,1.0.1,20251020-085245,732,Practice,Both,1,Automatic,main,6,20251104-092407,global,global,300,S,H,E,E,S-E.png,H-E.png,sS,hH,mask-1.png,mask-3.png,s,1,0.8172939999494702,h,1,0.6475114000495523,0.04746769997291267,0.04750630003400147,0.09880319982767105,0.1016059999819845,0.2982546999119222
RSVPLG03,md,20251104-092313,1.0.1,20251020-085245,732,Practice,Both,1,Automatic,main,7,20251104-092412,local,local,300,S,H,A,E,A-S.png,E-H.png,sS,hH,mask-3.png,mask-2.png,s,1,2.6598821999505162,h,1,0.5406205002218485,0.046520600095391273,0.047531899996101856,0.09853830002248287,0.0995350000448525,0.29983599996194243
RSVPLG03,md,20251104-092313,1.0.1,20251020-085245,732,Practice,Both,1,Automatic,main,8,20251104-092419,global,global,750,S,H,E,E,S-E.png,H-E.png,sS,hH,mask-1.png,mask-2.png,h,0,1.3581312000751495,s,0,0.3536401998717338,0.045879799872636795,0.04866820015013218,0.09913440002128482,0.09983700001612306,0.7490764998365194
RSVPLG03,md,20251104-092313,1.0.1,20251020-085245,732,Practice,Both,1,Automatic,main,9,20251104-092424,local,global,300,H,S,E,E,E-H.png,S-E.png,hH,sS,mask-2.png,mask-1.png,s,0,0.7858754000626504,h,0,0.32114449981600046,0.04628969985060394,0.04711899999529123,0.09945949981920421,0.10013099992647767,0.2997188998851925
RSVPLG03,md,20251104-092313,1.0.1,20251020-085245,732,Practice,Both,1,Automatic,main,10,20251104-092429,local,global,750,S,H,A,A,A-S.png,H-A.png,sS,hH,mask-3.png,mask-3.png,s,1,1.7462595000397414,h,1,0.3626650001388043,0.04752699984237552,0.0475752002093941,0.10053219995461404,0.09854700020514429,0.7515820998232812
RSVPLG03,md,20251104-092313,1.0.1,20251020-085245,732,Practice,Both,1,Automatic,main,11,20251104-092435,local,local,750,H,H,A,A,A-H.png,A-H.png,hH,hH,mask-3.png,mask-2.png,h,1,1.9636554000899196,h,1,0.10575620015151799,0.04854170000180602,0.047511199954897165,0.09953709994442761,0.09952299995347857,0.7497719000093639
RSVPLG03,md,20251104-092313,1.0.1,20251020-085245,732,Practice,Both,1,Automatic,main,12,20251104-092442,local,global,300,S,H,A,E,A-S.png,H-E.png,sS,hH,mask-1.png,mask-3.png,s,1,1.1675466999877244,h,1,1.263977900147438,0.04758020001463592,0.046505500096827745,0.10063100000843406,0.09955199994146824,0.30101360008120537
RSVPLG03,md,20251104-092313,1.0.1,20251020-085245,732,Practice,Both,1,Automatic,main,13,20251104-092446,global,local,750,S,H,A,A,S-A.png,A-H.png,sS,hH,mask-1.png,mask-1.png,s,1,1.8302780999802053,h,1,0.012709799921140075,0.04756580013781786,0.047966500045731664,0.10056050005368888,0.10105860000476241,0.750022100051865
RSVPLG03,md,20251104-092313,1.0.1,20251020-085245,732,Practice,Both,1,Automatic,main,14,20251104-092452,local,global,750,H,S,E,E,E-H.png,S-E.png,hH,sS,mask-4.png,mask-3.png,s,0,0.7549882000312209,h,0,0.8513942998833954,0.04758289991877973,0.04785259999334812,0.09821749990805984,0.1010955001693219,0.7488725997973233
RSVPLG03,md,20251104-092313,1.0.1,20251020-085245,732,Practice,Both,1,Automatic,main,15,20251104-092457,global,local,750,S,H,A,E,S-A.png,E-H.png,sS,hH,mask-2.png,mask-2.png,s,1,1.3776322999037802,h,1,0.17225030018016696,0.04748949990607798,0.04707979992963374,0.10136999981477857,0.10022159991785884,0.7500557999592274
RSVPLG03,md,20251104-092313,1.0.1,20251020-085245,732,Practice,Both,1,Automatic,main,16,20251104-092503,global,global,750,S,H,E,A,S-E.png,H-A.png,sS,hH,mask-4.png,mask-1.png,s,1,0.736290100030601,h,1,0.15304949996061623,0.04751519998535514,0.047522899927571416,0.1005186999682337,0.09950819984078407,0.7507919000927359
RSVPLG03,md,20251104-092521,1.0.1,20251020-085245,732,Practice,Both,1,Automatic,main,1,20251104-092552,global,local,750,S,H,E,A,S-E.png,A-H.png,sS,hH,mask-1.png,mask-2.png,s,1,0.5618163999170065,h,1,0.0936097998637706,0.04209900018759072,0.046673000091686845,0.09428440011106431,0.10009109997190535,0.7440707001369447
RSVPLG03,md,20251104-092521,1.0.1,20251020-085245,732,Practice,Both,1,Automatic,main,2,20251104-092557,local,local,750,H,H,A,A,A-H.png,A-H.png,hH,hH,mask-2.png,mask-3.png,h,1,0.4961461001075804,s,0,0.06820470001548529,0.04720639996230602,0.04751449986360967,0.09867959981784225,0.09934279997833073,0.7471566000021994
RSVPLG03,md,20251104-092521,1.0.1,20251020-085245,732,Practice,Both,1,Automatic,main,3,20251104-092601,global,local,300,H,H,E,A,H-E.png,A-H.png,hH,hH,mask-3.png,mask-2.png,h,1,0.5785612999461591,s,0,0.039637899957597256,0.04849190008826554,0.04858469986356795,0.1005107001401484,0.1015897998586297,0.29911210015416145
RSVPLG03,md,20251104-092521,1.0.1,20251020-085245,732,Practice,Both,1,Automatic,main,4,20251104-092606,global,local,300,S,H,A,E,S-A.png,E-H.png,sS,hH,mask-4.png,mask-3.png,h,0,2.1312069999985397,s,0,0.11315069999545813,0.04750060010701418,0.04827059991657734,0.10049189999699593,0.09975680010393262,0.2991722000297159
RSVPLG03,md,20251104-092521,1.0.1,20251020-085245,732,Practice,Both,1,Automatic,main,5,20251104-092611,global,global,300,H,S,E,A,H-E.png,S-A.png,hH,sS,mask-4.png,mask-4.png,s,0,1.5090620999690145,h,0,0.6349714000243694,0.0486067000310868,0.048582599963992834,0.09993579983711243,0.1005959000904113,0.29938069987110794
RSVPLG03,md,20251104-092521,1.0.1,20251020-085245,732,Practice,Both,1,Automatic,main,6,20251104-092617,global,local,750,S,S,E,A,S-E.png,A-S.png,sS,sS,mask-1.png,mask-2.png,s,1,0.6397595000453293,h,0,0.24595850007608533,0.04670479986816645,0.049170900136232376,0.10077839996665716,0.10119950002990663,0.7478846998419613
RSVPLG03,md,20251104-092521,1.0.1,20251020-085245,732,Practice,Both,1,Automatic,main,7,20251104-092622,local,global,300,H,S,E,E,E-H.png,S-E.png,hH,sS,mask-4.png,mask-1.png,s,0,0.9947241998743266,h,0,0.1907528000883758,0.048246300080791116,0.046730499947443604,0.10014690016396344,0.10013279994018376,0.2998351000715047
RSVPLG03,md,20251104-092521,1.0.1,20251020-085245,732,Practice,Both,1,Automatic,main,8,20251104-092627,global,global,750,S,S,E,E,S-E.png,S-E.png,sS,sS,mask-2.png,mask-4.png,s,1,1.1984979999251664,s,1,0.9022469001356512,0.04753890004940331,0.04738290002569556,0.09954080008901656,0.10034330002963543,0.7489340000320226
RSVPLG03,md,20251104-092521,1.0.1,20251020-085245,732,Practice,Both,1,Automatic,main,9,20251104-092633,local,global,750,H,H,E,E,E-H.png,H-E.png,hH,hH,mask-4.png,mask-2.png,h,1,0.4651540999766439,h,1,0.3299823999404907,0.04750069999136031,0.04803339997306466,0.09957570000551641,0.09952099993824959,0.747337399981916
RSVPLG03,md,20251104-092521,1.0.1,20251020-085245,732,Practice,Both,1,Automatic,main,10,20251104-092638,global,global,750,S,S,A,A,S-A.png,S-A.png,sS,sS,mask-3.png,mask-3.png,s,1,1.0507553999777883,h,0,0.41660359990783036,0.04735019989311695,0.04851210000924766,0.10027289995923638,0.1004572999663651,0.7474994000513107
RSVPLG03,md,20251104-092521,1.0.1,20251020-085245,732,Practice,Both,1,Automatic,main,11,20251104-092644,local,local,300,H,H,E,E,E-H.png,E-H.png,hH,hH,mask-4.png,mask-1.png,h,1,0.9264244001824409,s,0,0.7111287000589073,0.047679000068455935,0.046704200096428394,0.09988950006663799,0.09987529995851219,0.3003813000395894
RSVPLG03,md,20251104-092521,1.0.1,20251020-085245,732,Practice,Both,1,Automatic,main,12,20251104-092649,local,global,750,S,H,A,E,A-S.png,H-E.png,sS,hH,mask-4.png,mask-1.png,s,1,1.3785545001737773,h,1,0.265857300022617,0.04769310005940497,0.04784210002981126,0.10095739993266761,0.10004719998687506,0.747963499976322
RSVPLG03,md,20251104-092521,1.0.1,20251020-085245,732,Practice,Both,1,Automatic,main,13,20251104-092655,global,global,300,H,S,E,E,H-E.png,S-E.png,hH,sS,mask-4.png,mask-4.png,h,1,1.1894954000599682,s,1,0.17314519989304245,0.04867920000106096,0.04767540004104376,0.09972460009157658,0.09973379992879927,0.2993165999650955
RSVPLG03,md,20251104-092521,1.0.1,20251020-085245,732,Practice,Both,1,Automatic,main,14,20251104-092700,local,local,300,H,S,A,E,A-H.png,E-S.png,hH,sS,mask-3.png,mask-4.png,h,1,1.0545673999004066,s,1,0.21705089998431504,0.04691599984653294,0.04762269998900592,0.1011030999943614,0.10061249998398125,0.2991877000313252
RSVPLG03,md,20251104-092521,1.0.1,20251020-085245,732,Practice,Both,1,Automatic,main,15,20251104-092705,local,local,750,H,H,A,A,A-H.png,A-H.png,hH,hH,mask-1.png,mask-4.png,h,1,0.7133377999998629,h,1,0.18133509997278452,0.0477936000097543,0.046400599880144,0.1000411999411881,0.10044519999064505,0.7493672000709921
RSVPLG03,md,20251104-092521,1.0.1,20251020-085245,732,Practice,Both,1,Automatic,main,16,20251104-092710,local,global,300,S,S,A,A,A-S.png,S-A.png,sS,sS,mask-2.png,mask-4.png,h,0,0.9816003001760691,s,1,0.130835099844262,0.04769450007006526,0.04775990010239184,0.10008100001141429,0.0992195000872016,0.2997125999536365
RSVPLG03,md,20251104-092730,1.0.1,20251020-085245,732,Practice,Both,1,Automatic,main,1,20251104-092747,global,local,300,H,S,E,A,H-E.png,A-S.png,hH,sS,mask-4.png,mask-3.png,h,1,0.8220150999259204,h,0,0.1343301001470536,0.04007500014267862,0.046441299840807915,0.09395730006508529,0.1002936998847872,0.29410110018216074
RSVPLG03,md,20251104-092730,1.0.1,20251020-085245,732,Practice,Both,1,Automatic,main,2,20251104-092752,local,global,750,S,S,E,E,E-S.png,S-E.png,sS,sS,mask-1.png,mask-1.png,s,1,0.8889132000040263,h,0,0.07151720020920038,0.04761030012741685,0.048240500036627054,0.09879139997065067,0.09852649993263185,0.750080700032413
RSVPLG03,md,20251104-092730,1.0.1,20251020-085245,732,Practice,Both,1,Automatic,main,3,20251104-092757,local,global,300,S,H,A,A,A-S.png,H-A.png,sS,hH,mask-2.png,mask-1.png,h,0,0.6354224998503923,s,0,0.08624089998193085,0.04673100006766617,0.047555699944496155,0.09831400006078184,0.09945700014941394,0.2998252999968827
RSVPLG03,md,20251104-092730,1.0.1,20251020-085245,732,Practice,Both,1,Automatic,main,4,20251104-092801,local,local,750,S,H,E,E,E-S.png,E-H.png,sS,hH,mask-2.png,mask-3.png,s,1,0.7614687997847795,h,1,0.12513770000077784,0.047710799844935536,0.04753579990938306,0.10135959996841848,0.09953780006617308,0.751430599950254
RSVPLG03,md,20251104-092730,1.0.1,20251020-085245,732,Practice,Both,1,Automatic,main,5,20251104-092806,local,global,300,S,S,A,E,A-S.png,S-E.png,sS,sS,mask-1.png,mask-2.png,h,0,0.8128311999607831,s,1,0.08463559998199344,0.047409400111064315,0.04749610018916428,0.10037979995831847,0.0993825001642108,0.3006583999376744
RSVPLG03,md,20251104-092730,1.0.1,20251020-085245,732,Practice,Both,1,Automatic,main,6,20251104-092811,local,local,300,S,S,A,E,A-S.png,E-S.png,sS,sS,mask-3.png,mask-2.png,h,0,0.6103797000832856,s,1,0.08726619998924434,0.046511700144037604,0.047515999991446733,0.09862609999254346,0.1005186999682337,0.29889990016818047
RSVPLG03,md,20251104-092730,1.0.1,20251020-085245,732,Practice,Both,1,Automatic,main,7,20251104-092815,global,global,750,S,H,E,E,S-E.png,H-E.png,sS,hH,mask-4.png,mask-4.png,s,1,0.7683733999729156,h,1,0.09230949985794723,0.04763889987953007,0.04753149999305606,0.10071869986131787,0.0986979000736028,0.7507319999858737
RSVPLG03,md,20251104-092730,1.0.1,20251020-085245,732,Practice,Both,1,Automatic,main,8,20251104-092820,global,local,300,H,S,E,E,H-E.png,E-S.png,hH,sS,mask-1.png,mask-1.png,h,1,0.5297968999948353,h,0,0.08607350010424852,0.04746440006420016,0.047582099912688136,0.09935480006970465,0.10165099985897541,0.298648500116542
RSVPLG03,md,20251104-092730,1.0.1,20251020-085245,732,Practice,Both,1,Automatic,main,9,20251104-092824,local,global,750,S,S,A,A,A-S.png,S-A.png,sS,sS,mask-4.png,mask-1.png,s,1,0.4597121998667717,h,0,0.05815459997393191,0.04572469997219741,0.047585299937054515,0.09813780011609197,0.10155989998020232,0.7486990001052618
RSVPLG03,md,20251104-092730,1.0.1,20251020-085245,732,Practice,Both,1,Automatic,main,10,20251104-092829,global,local,750,S,S,E,A,S-E.png,A-S.png,sS,sS,mask-1.png,mask-2.png,s,1,0.8085513000842184,h,0,0.1298400000669062,0.04751699999906123,0.04750159988179803,0.10054020001552999,0.10051360004581511,0.7496863000560552
RSVPLG03,md,20251104-092730,1.0.1,20251020-085245,732,Practice,Both,1,Automatic,main,11,20251104-092834,local,local,300,S,S,A,A,A-S.png,A-S.png,sS,sS,mask-4.png,mask-1.png,h,0,0.6663116000127047,s,1,0.07539650006219745,0.04696969990618527,0.04737399984151125,0.1000832999125123,0.09941549994982779,0.29974559997208416
RSVPLG03,md,20251104-092730,1.0.1,20251020-085245,732,Practice,Both,1,Automatic,main,12,20251104-092839,global,global,750,S,S,A,A,S-A.png,S-A.png,sS,sS,mask-2.png,mask-3.png,s,1,1.0124576999805868,s,1,0.07939339987933636,0.047595700016245246,0.04769899998791516,0.10002090013585985,0.10081700002774596,0.7493517000693828
RSVPLG03,md,20251104-092730,1.0.1,20251020-085245,732,Practice,Both,1,Automatic,main,13,20251104-092844,local,local,750,S,H,A,E,A-S.png,E-H.png,sS,hH,mask-4.png,mask-4.png,s,1,0.34652499994263053,h,1,0.08715070015750825,0.04754800000227988,0.04820670001208782,0.10156889981590211,0.0988605001475662,0.7510217998642474
RSVPLG03,md,20251104-092730,1.0.1,20251020-085245,732,Practice,Both,1,Automatic,main,14,20251104-092848,global,global,300,H,S,A,A,H-A.png,S-A.png,hH,sS,mask-2.png,mask-2.png,h,1,0.7526788001414388,h,0,0.05227049998939037,0.047890299931168556,0.04753359989263117,0.09894350008107722,0.10056960000656545,0.30028890003450215
RSVPLG03,md,20251104-092730,1.0.1,20251020-085245,732,Practice,Both,1,Automatic,main,15,20251104-092853,global,global,300,S,H,E,E,S-E.png,H-E.png,sS,hH,mask-2.png,mask-3.png,s,1,1.0098041000310332,h,1,0.08570339996367693,0.0465398000087589,0.046616300009191036,0.10056050005368888,0.09979520016349852,0.30085709993727505
RSVPLG03,md,20251104-092730,1.0.1,20251020-085245,732,Practice,Both,1,Automatic,main,16,20251104-092858,global,local,750,S,S,A,E,S-A.png,E-S.png,sS,sS,mask-3.png,mask-2.png,s,1,1.2471199999563396,s,1,0.3609058998990804,0.04570449981838465,0.04868160001933575,0.099394999910146,0.10010419995523989,0.7489262998569757
RSVPLG03,md,20251104-092925,1.0.1,20251020-085245,732,Practice,Both,1,Automatic,main,1,20251104-092941,local,global,750,H,H,A,E,A-H.png,H-E.png,hH,hH,mask-3.png,mask-2.png,h,1,0.689095800044015,h,1,0.06597950006835163,0.039258900098502636,0.04752860008738935,0.09217550000175834,0.09970380016602576,0.7445137999020517
RSVPLG03,md,20251104-092925,1.0.1,20251020-085245,732,Practice,Both,1,Automatic,main,2,20251104-092945,global,global,750,S,S,A,A,S-A.png,S-A.png,sS,sS,mask-4.png,mask-4.png,s,1,0.4872744001913816,s,1,0.10314219980500638,0.048669000156223774,0.047690399922430515,0.09919700003229082,0.10007149982266128,0.7535213001538068
RSVPLG03,md,20251104-092925,1.0.1,20251020-085245,732,Practice,Both,1,Automatic,main,3,20251104-092950,local,global,300,S,S,E,A,E-S.png,S-A.png,sS,sS,mask-3.png,mask-3.png,s,1,0.4741937001235783,s,1,0.07458860008046031,0.04755080002360046,0.047638799995183945,0.10064940014854074,0.09980589989572763,0.3011889001354575
RSVPLG03,md,20251104-092925,1.0.1,20251020-085245,732,Practice,Both,1,Automatic,main,4,20251104-092954,local,local,750,H,H,A,E,A-H.png,E-H.png,hH,hH,mask-1.png,mask-3.png,h,1,0.3055030999239534,h,1,0.05709189991466701,0.047469599870964885,0.047896699979901314,0.10152629995718598,0.10132230003364384,0.7519439000170678
RSVPLG03,md,20251104-092925,1.0.1,20251020-085245,732,Practice,Both,1,Automatic,main,5,20251104-092959,local,global,300,S,S,E,A,E-S.png,S-A.png,sS,sS,mask-4.png,mask-4.png,s,1,1.2579088998027146,s,1,0.06821960001252592,0.048563500167801976,0.049488999880850315,0.10055600013583899,0.10131729999557137,0.3010250001680106
RSVPLG03,md,20251104-092925,1.0.1,20251020-085245,732,Practice,Both,1,Automatic,main,6,20251104-093004,global,global,300,H,H,E,A,H-E.png,H-A.png,hH,hH,mask-3.png,mask-1.png,h,1,0.4674036998767406,h,1,0.06036320002749562,0.047499499982222915,0.04751840000972152,0.1004949000198394,0.09953389992006123,0.3007390000857413
RSVPLG03,md,20251104-092925,1.0.1,20251020-085245,732,Practice,Both,1,Automatic,main,7,20251104-093008,global,global,300,S,S,E,E,S-E.png,S-E.png,sS,sS,mask-1.png,mask-2.png,s,1,0.4384316001087427,s,1,0.07237170008011162,0.04737490019761026,0.04574610013514757,0.0997021000366658,0.09979919996112585,0.30166990007273853
RSVPLG03,md,20251104-092925,1.0.1,20251020-085245,732,Practice,Both,1,Automatic,main,8,20251104-093012,global,global,750,H,S,E,E,H-E.png,S-E.png,hH,sS,mask-1.png,mask-3.png,h,1,0.4691484000068158,s,1,0.22063530003651977,0.047614699928089976,0.04764319979585707,0.09964070003479719,0.09909849986433983,0.7523356000892818
RSVPLG03,md,20251104-092925,1.0.1,20251020-085245,732,Practice,Both,1,Automatic,main,9,20251104-093017,local,local,300,H,S,A,E,A-H.png,E-S.png,hH,sS,mask-3.png,mask-4.png,s,0,0.43379150005057454,h,0,0.07035140017978847,0.04793569981120527,0.04654070013202727,0.10001079994253814,0.09953180002048612,0.30134219978936017
RSVPLG03,md,20251104-092925,1.0.1,20251020-085245,732,Practice,Both,1,Automatic,main,10,20251104-093021,local,local,300,S,H,E,A,E-S.png,A-H.png,sS,hH,mask-2.png,mask-3.png,s,1,0.9510085000656545,s,0,0.29709879984147847,0.047696599969640374,0.047455199994146824,0.1009349999949336,0.09956959984265268,0.3014456999953836
RSVPLG03,md,20251104-092925,1.0.1,20251020-085245,732,Practice,Both,1,Automatic,main,11,20251104-093026,global,local,300,S,S,A,E,S-A.png,E-S.png,sS,sS,mask-1.png,mask-2.png,s,1,0.5761084000114352,h,0,0.03549490007571876,0.04848430003039539,0.04748870013281703,0.1004560999572277,0.10145990015007555,0.3014926998876035
RSVPLG03,md,20251104-092925,1.0.1,20251020-085245,732,Practice,Both,1,Automatic,main,12,20251104-093030,local,global,750,S,S,A,E,A-S.png,S-E.png,sS,sS,mask-2.png,mask-3.png,s,1,1.5150737001094967,s,1,0.09232119983062148,0.047524600056931376,0.046953999903053045,0.10050770011730492,0.09995749988593161,0.7525989001151174
RSVPLG03,md,20251104-092925,1.0.1,20251020-085245,732,Practice,Both,1,Automatic,main,13,20251104-093036,local,local,750,H,S,A,E,A-H.png,E-S.png,hH,sS,mask-1.png,mask-2.png,h,1,0.3846602998673916,s,1,0.1656797998584807,0.04755829996429384,0.049472999991849065,0.09940989990718663,0.10067439987324178,0.7512644999660552
RSVPLG03,md,20251104-092925,1.0.1,20251020-085245,732,Practice,Both,1,Automatic,main,14,20251104-093041,global,local,750,S,H,E,E,S-E.png,E-H.png,sS,hH,mask-2.png,mask-2.png,s,1,0.7085863000247627,h,1,0.10797209991142154,0.047558699967339635,0.04752220003865659,0.10061610001139343,0.1005353000946343,0.7521997999865562
RSVPLG03,md,20251104-092925,1.0.1,20251020-085245,732,Practice,Both,1,Automatic,main,15,20251104-093046,global,local,750,S,H,A,A,S-A.png,A-H.png,sS,hH,mask-2.png,mask-1.png,s,1,0.5770175999496132,h,1,0.18611490004695952,0.048563500167801976,0.04753390001133084,0.10054850019514561,0.09962930018082261,0.752846600022167
RSVPLG03,md,20251104-092925,1.0.1,20251020-085245,732,Practice,Both,1,Automatic,main,16,20251104-093050,global,local,300,S,S,A,A,S-A.png,A-S.png,sS,sS,mask-4.png,mask-3.png,s,1,0.6818574999924749,s,1,0.05245210020802915,0.0485211000777781,0.04895250010304153,0.10152869997546077,0.10108199995011091,0.30039400001987815
RSVPLG03,md,20251104-093254,1.0.1,20251020-085245,732,Experiment,Both,1,Automatic,warmup,1,20251104-093355,global,global,750,H,S,A,E,H-A.png,S-E.png,hH,sS,mask-4.png,mask-3.png,h,1,0.42921030009165406,s,1,0.16524609993211925,0.04018870019353926,0.047502600122243166,0.09194530011154711,0.10069260001182556,0.742599599994719
RSVPLG03,md,20251104-093254,1.0.1,20251020-085245,732,Experiment,Both,1,Automatic,warmup,2,20251104-093400,local,local,300,S,H,E,E,E-S.png,E-H.png,sS,hH,mask-4.png,mask-2.png,s,1,0.6791066001169384,h,1,0.09257599990814924,0.04650430008769035,0.045691399835050106,0.09971360000781715,0.09934389987029135,0.30030370014719665
RSVPLG03,md,20251104-093254,1.0.1,20251020-085245,732,Experiment,Both,1,Automatic,warmup,3,20251104-093405,global,local,300,H,H,E,E,H-E.png,E-H.png,hH,hH,mask-1.png,mask-4.png,h,1,0.41025649989023805,h,1,0.1673844000324607,0.04761180002242327,0.04782549990341067,0.09961310005746782,0.09984780009835958,0.2998798000626266
RSVPLG03,md,20251104-093254,1.0.1,20251020-085245,732,Experiment,Both,1,Automatic,warmup,4,20251104-093409,local,global,300,S,H,A,A,A-S.png,H-A.png,sS,hH,mask-4.png,mask-2.png,s,1,0.5272649999242276,s,0,0.13455519988201559,0.0475057999137789,0.04757299995981157,0.10152100003324449,0.09957389999181032,0.30179299996234477
RSVPLG03,md,20251104-093254,1.0.1,20251020-085245,732,Experiment,Both,1,Automatic,warmup,5,20251104-093413,local,global,750,H,S,E,A,E-H.png,S-A.png,hH,sS,mask-3.png,mask-1.png,h,1,0.800980000058189,h,0,0.2973923999816179,0.04849909991025925,0.047507100040093064,0.09951630001887679,0.09956700005568564,0.7514444999396801
RSVPLG03,md,20251104-093254,1.0.1,20251020-085245,732,Experiment,Both,1,Automatic,main,6,20251104-093419,global,global,300,H,S,E,E,H-E.png,S-E.png,hH,sS,mask-1.png,mask-3.png,h,1,0.46090930001810193,s,1,0.11908970004878938,0.047527499962598085,0.04752989998087287,0.09854629985056818,0.09853140008635819,0.299822999862954
RSVPLG03,md,20251104-093254,1.0.1,20251020-085245,732,Experiment,Both,1,Automatic,main,7,20251104-093423,local,global,300,H,S,E,E,E-H.png,S-E.png,hH,sS,mask-1.png,mask-1.png,s,0,0.570539099862799,h,0,0.5515674999915063,0.04654500004835427,0.04753859993070364,0.09978569997474551,0.09956369991414249,0.30006429995410144
RSVPLG03,md,20251104-093254,1.0.1,20251020-085245,732,Experiment,Both,1,Automatic,main,8,20251104-093428,local,local,750,S,H,A,A,A-S.png,A-H.png,sS,hH,mask-4.png,mask-1.png,s,1,0.35643679997883737,h,1,0.05942429997958243,0.04639070015400648,0.04730480001308024,0.09923920012079179,0.10015319986268878,0.7493992000818253
RSVPLG03,md,20251104-093254,1.0.1,20251020-085245,732,Experiment,Both,1,Automatic,main,9,20251104-093432,local,local,750,H,S,A,A,A-H.png,A-S.png,hH,sS,mask-1.png,mask-4.png,h,1,0.35885370010510087,s,1,0.1037855998147279,0.04753120010718703,0.04760110005736351,0.10054360004141927,0.09880780009552836,0.7504076999612153
RSVPLG03,md,20251104-093254,1.0.1,20251020-085245,732,Experiment,Both,1,Automatic,main,10,20251104-093437,local,local,300,S,S,E,E,E-S.png,E-S.png,sS,sS,mask-4.png,mask-4.png,s,1,0.5307412999682128,s,1,0.07613270008005202,0.04736069985665381,0.04719509999267757,0.10037569981068373,0.10024039982818067,0.3002386000007391
RSVPLG03,md,20251104-093254,1.0.1,20251020-085245,732,Experiment,Both,1,Automatic,main,11,20251104-093441,global,global,750,H,S,E,A,H-E.png,S-A.png,hH,sS,mask-3.png,mask-3.png,h,1,0.2625951999798417,s,1,0.07592769991606474,0.04728709999471903,0.04750899993814528,0.09832769981585443,0.10051369993016124,0.7495945999398828
RSVPLG03,md,20251104-093254,1.0.1,20251020-085245,732,Experiment,Both,1,Automatic,main,12,20251104-093445,global,local,750,H,H,A,A,H-A.png,A-H.png,hH,hH,mask-4.png,mask-4.png,h,1,0.3734581000171602,h,1,0.07124219997785985,0.048055300023406744,0.04688689997419715,0.10006309999153018,0.09824309987016022,0.7502242000773549
RSVPLG03,md,20251104-093254,1.0.1,20251020-085245,732,Experiment,Both,1,Automatic,main,13,20251104-093450,local,global,750,H,H,E,A,E-H.png,H-A.png,hH,hH,mask-1.png,mask-1.png,h,1,0.4958911999128759,h,1,0.059741999953985214,0.046553799882531166,0.04834460001438856,0.09948779991827905,0.10129899997264147,0.7491590999998152
RSVPLG03,md,20251104-093254,1.0.1,20251020-085245,732,Experiment,Both,1,Automatic,main,14,20251104-093455,global,local,750,H,H,E,E,H-E.png,E-H.png,hH,hH,mask-4.png,mask-1.png,h,1,0.4640514000784606,h,1,0.055067599983885884,0.046478800009936094,0.048297599889338017,0.0994959999807179,0.10136640002019703,0.7480506000574678
RSVPLG03,md,20251104-093254,1.0.1,20251020-085245,732,Experiment,Both,1,Automatic,main,15,20251104-093459,global,global,750,H,S,E,A,H-E.png,S-A.png,hH,sS,mask-4.png,mask-2.png,h,1,0.22177299996837974,s,1,0.023173299850896,0.049034600146114826,0.046542400028556585,0.10004850011318922,0.0995929001364857,0.7517858999781311
RSVPLG03,md,20251104-093254,1.0.1,20251020-085245,732,Experiment,Both,1,Automatic,main,16,20251104-093504,local,global,750,S,H,A,E,A-S.png,H-E.png,sS,hH,mask-4.png,mask-3.png,s,1,0.4214121999684721,h,1,0.02840379998087883,0.04750020010396838,0.04537409986369312,0.10150400013662875,0.09763900004327297,0.7520910000894219
RSVPLG03,md,20251104-093254,1.0.1,20251020-085245,732,Experiment,Both,1,Automatic,main,17,20251104-093508,global,global,300,H,H,E,E,H-E.png,H-E.png,hH,hH,mask-1.png,mask-1.png,h,1,0.5519425999373198,h,1,0.0703409998677671,0.04666109988465905,0.047694499837234616,0.09987189993262291,0.10088140005245805,0.2995309999678284
RSVPLG03,md,20251104-093254,1.0.1,20251020-085245,732,Experiment,Both,1,Automatic,main,18,20251104-093512,global,local,300,H,H,A,E,H-A.png,E-H.png,hH,hH,mask-2.png,mask-1.png,h,1,0.4818055999930948,h,1,0.059676799923181534,0.04760610009543598,0.047338000033050776,0.1006428999826312,0.10136920004151762,0.2989487999584526
RSVPLG03,md,20251104-093254,1.0.1,20251020-085245,732,Experiment,Both,1,Automatic,main,19,20251104-093517,global,local,750,S,S,A,E,S-A.png,E-S.png,sS,sS,mask-2.png,mask-4.png,s,1,0.5884183999150991,s,1,0.06626829993911088,0.04775210004299879,0.048481399891898036,0.09993900009430945,0.1017736999783665,0.7485601000953466
RSVPLG03,md,20251104-093254,1.0.1,20251020-085245,732,Experiment,Both,1,Automatic,main,20,20251104-093521,global,local,750,H,S,E,A,H-E.png,A-S.png,hH,sS,mask-1.png,mask-4.png,h,1,0.20661929994821548,h,0,0.050831699976697564,0.047790899872779846,0.04783489997498691,0.0989815997891128,0.09906999999657273,0.7496227999217808
RSVPLG03,md,20251104-093254,1.0.1,20251020-085245,732,Experiment,Both,1,Automatic,main,21,20251104-093526,global,global,300,H,H,E,E,H-E.png,H-E.png,hH,hH,mask-3.png,mask-1.png,h,1,0.43572910013608634,h,1,0.07517859991639853,0.047674900153651834,0.04697449994273484,0.09988009999506176,0.1003286000341177,0.29949100012890995
RSVPLG03,md,20251104-093254,1.0.1,20251020-085245,732,Experiment,Both,1,Automatic,main,22,20251104-093530,global,local,750,S,S,E,A,S-E.png,A-S.png,sS,sS,mask-1.png,mask-4.png,s,1,0.4024735998827964,h,0,1.1409915999975055,0.047731899889186025,0.0477356999181211,0.09976479993201792,0.1003316999413073,0.7492664998862892
RSVPLG03,md,20251104-093254,1.0.1,20251020-085245,732,Experiment,Both,1,Automatic,main,23,20251104-093536,global,local,300,S,H,E,A,S-E.png,A-H.png,sS,hH,mask-4.png,mask-4.png,s,1,0.7426555000711232,s,0,0.05331999994814396,0.04674010002054274,0.04675629991106689,0.09878970007412136,0.10000619990751147,0.29948490019887686
RSVPLG03,md,20251104-093254,1.0.1,20251020-085245,732,Experiment,Both,1,Automatic,main,24,20251104-093540,local,global,300,H,S,E,A,E-H.png,S-A.png,hH,sS,mask-4.png,mask-3.png,h,1,0.3989321000408381,h,0,0.07931609987281263,0.047013700008392334,0.04655040008947253,0.10003679990768433,0.09856870002113283,0.3007465999107808
RSVPLG03,md,20251104-093254,1.0.1,20251020-085245,732,Experiment,Both,1,Automatic,main,25,20251104-093544,local,global,300,H,H,E,E,E-H.png,H-E.png,hH,hH,mask-3.png,mask-2.png,h,1,0.6587461999151856,s,0,0.0773653001524508,0.0474978000856936,0.04747799993492663,0.1007636000867933,0.10046619991771877,0.3002172000706196
RSVPLG03,md,20251104-093254,1.0.1,20251020-085245,732,Experiment,Both,1,Automatic,main,26,20251104-093556,local,global,300,H,H,A,A,A-H.png,H-A.png,hH,hH,mask-3.png,mask-4.png,h,1,0.41968890000134706,h,1,0.043410199927166104,0.046472499845549464,0.04774520010687411,0.0994616998359561,0.10023360000923276,0.2984503998886794
RSVPLG03,md,20251104-093254,1.0.1,20251020-085245,732,Experiment,Both,1,Automatic,main,27,20251104-093600,local,local,750,S,H,A,E,A-S.png,E-H.png,sS,hH,mask-3.png,mask-2.png,s,1,0.3876013997942209,h,1,0.02169369999319315,0.04965860000811517,0.048942800145596266,0.1007010000757873,0.10083440016023815,0.7506377999670804
RSVPLG03,md,20251104-093254,1.0.1,20251020-085245,732,Experiment,Both,1,Automatic,main,28,20251104-093604,local,local,300,S,S,A,E,A-S.png,E-S.png,sS,sS,mask-3.png,mask-3.png,s,1,0.42910139984451234,s,1,0.07779869996011257,0.04751800000667572,0.047677200054749846,0.10053539997898042,0.10089000011794269,0.2998460999224335
RSVPLG03,md,20251104-093254,1.0.1,20251020-085245,732,Experiment,Both,1,Automatic,main,29,20251104-093609,local,local,300,S,H,A,A,A-S.png,A-H.png,sS,hH,mask-4.png,mask-3.png,s,1,0.4582622000016272,h,1,0.6818134998902678,0.04752759984694421,0.047545199980959296,0.09959689993411303,0.09853160008788109,0.2999344998970628
RSVPLG03,md,20251104-093254,1.0.1,20251020-085245,732,Experiment,Both,1,Automatic,main,30,20251104-093613,local,local,750,S,H,A,A,A-S.png,A-H.png,sS,hH,mask-1.png,mask-2.png,s,1,0.36418390017934144,h,1,0.0752366001252085,0.04699230007827282,0.04862240003421903,0.10004479996860027,0.10166659997776151,0.7482926999218762
RSVPLG03,md,20251104-093254,1.0.1,20251020-085245,732,Experiment,Both,1,Automatic,main,31,20251104-093618,local,local,300,S,H,A,E,A-S.png,E-H.png,sS,hH,mask-2.png,mask-1.png,s,1,0.34045420004986227,h,1,0.05512520018965006,0.04668320016935468,0.04768619989044964,0.09989640000276268,0.10096419998444617,0.29963270016014576
RSVPLG03,md,20251104-093254,1.0.1,20251020-085245,732,Experiment,Both,1,Automatic,main,32,20251104-093622,local,global,750,H,H,E,E,E-H.png,H-E.png,hH,hH,mask-4.png,mask-2.png,h,1,0.4582127998583019,h,1,0.05960340006276965,0.046847499907016754,0.046535300090909004,0.09981869999319315,0.09855810017324984,0.751212399918586
RSVPLG03,md,20251104-093254,1.0.1,20251020-085245,732,Experiment,Both,1,Automatic,main,33,20251104-093627,global,global,300,S,H,E,E,S-E.png,H-E.png,sS,hH,mask-4.png,mask-2.png,s,1,0.763390599982813,s,0,0.07758949999697506,0.048606100026518106,0.046545400051400065,0.10067770001478493,0.09961390006355941,0.30106059997342527
RSVPLG03,md,20251104-093254,1.0.1,20251020-085245,732,Experiment,Both,1,Automatic,main,34,20251104-093631,local,global,300,H,H,A,E,A-H.png,H-E.png,hH,hH,mask-3.png,mask-2.png,h,1,0.3439876001793891,h,1,0.05858559999614954,0.04739469988271594,0.04913599998690188,0.10005100001581013,0.09995199996046722,0.2999346998985857
RSVPLG03,md,20251104-093254,1.0.1,20251020-085245,732,Experiment,Both,1,Automatic,main,35,20251104-093635,global,local,300,S,S,A,E,S-A.png,E-S.png,sS,sS,mask-1.png,mask-3.png,s,1,0.48633759981021285,h,0,0.05314380000345409,0.046754400013014674,0.046745700063183904,0.10003919992595911,0.09993500006385148,0.3002377999946475
RSVPLG03,md,20251104-093254,1.0.1,20251020-085245,732,Experiment,Both,1,Automatic,main,36,20251104-093639,local,global,300,S,H,E,A,E-S.png,H-A.png,sS,hH,mask-2.png,mask-2.png,s,1,0.6075127001386136,h,1,0.05530679994262755,0.04853769997134805,0.048540599877014756,0.10071899998001754,0.09965289989486337,0.2996106001082808
RSVPLG03,md,20251104-093254,1.0.1,20251020-085245,732,Experiment,Both,1,Automatic,main,37,20251104-093644,local,local,750,H,H,E,E,E-H.png,E-H.png,hH,hH,mask-3.png,mask-2.png,s,0,0.49191479990258813,h,1,0.6361746999900788,0.04853989998809993,0.04857699992135167,0.10058389999903738,0.09959889994934201,0.750800000037998
RSVPLG03,md,20251104-093254,1.0.1,20251020-085245,732,Experiment,Both,1,Automatic,main,38,20251104-093649,local,global,300,H,H,A,E,A-H.png,H-E.png,hH,hH,mask-4.png,mask-2.png,h,1,0.7106040001381189,h,1,0.0700476998463273,0.04750800016336143,0.04851359990425408,0.10050780000165105,0.10053299996070564,0.2997481001075357
RSVPLG03,md,20251104-093254,1.0.1,20251020-085245,732,Experiment,Both,1,Automatic,main,39,20251104-093653,global,local,300,H,H,A,E,H-A.png,E-H.png,hH,hH,mask-1.png,mask-3.png,h,1,0.4528985999058932,h,1,0.08024969999678433,0.047007699962705374,0.04758480004966259,0.098113700048998,0.09969199984334409,0.29994740011170506
RSVPLG03,md,20251104-093254,1.0.1,20251020-085245,732,Experiment,Both,1,Automatic,main,40,20251104-093657,local,local,300,S,H,E,E,E-S.png,E-H.png,sS,hH,mask-3.png,mask-3.png,s,1,0.3864561999216676,h,1,0.011780499946326017,0.04753910005092621,0.04655260010622442,0.09854579996317625,0.0987201000098139,0.2997554000467062
RSVPLG03,md,20251104-093254,1.0.1,20251020-085245,732,Experiment,Both,1,Automatic,main,41,20251104-093701,local,global,750,S,H,A,A,A-S.png,H-A.png,sS,hH,mask-1.png,mask-1.png,s,1,0.7285028002224863,h,1,0.05818270007148385,0.047557299956679344,0.047555699944496155,0.10063169989734888,0.10156959993764758,0.7501580000389367
RSVPLG03,md,20251104-093254,1.0.1,20251020-085245,732,Experiment,Both,1,Automatic,main,42,20251104-093706,local,local,300,H,S,E,A,E-H.png,A-S.png,hH,sS,mask-2.png,mask-4.png,h,1,0.3601659000851214,s,1,0.05566129996441305,0.04750739992596209,0.04750300012528896,0.1009559000376612,0.10162520012818277,0.30027369991876185
RSVPLG03,md,20251104-093254,1.0.1,20251020-085245,732,Experiment,Both,1,Automatic,main,43,20251104-093710,global,global,300,H,S,A,E,H-A.png,S-E.png,hH,sS,mask-3.png,mask-2.png,h,1,0.3635589999612421,s,1,0.06443180004134774,0.04750009998679161,0.04751230007968843,0.10049299988895655,0.10051860008388758,0.30000679986551404
RSVPLG03,md,20251104-093254,1.0.1,20251020-085245,732,Experiment,Both,1,Automatic,main,44,20251104-093714,global,global,750,S,H,E,E,S-E.png,H-E.png,sS,hH,mask-1.png,mask-3.png,h,0,0.5472422000020742,s,0,0.007359100040048361,0.04623179999180138,0.047533199889585376,0.09945670003071427,0.09890459990128875,0.7494640999939293
RSVPLG03,md,20251104-093254,1.0.1,20251020-085245,732,Experiment,Both,1,Automatic,main,45,20251104-093719,global,global,300,S,H,E,E,S-E.png,H-E.png,sS,hH,mask-4.png,mask-2.png,s,1,0.19265109999105334,h,1,0.026700800051912665,0.047687900019809604,0.04772990010678768,0.09992249985225499,0.10091110016219318,0.2985975998453796
RSVPLG03,md,20251104-093254,1.0.1,20251020-085245,732,Experiment,Both,1,Automatic,main,46,20251104-093723,global,global,750,S,S,A,A,S-A.png,S-A.png,sS,sS,mask-4.png,mask-3.png,s,1,0.5908993000630289,s,1,0.07577240001410246,0.04752520006150007,0.04580290010198951,0.10073280008509755,0.09835169999860227,0.7510218999814242
RSVPLG03,md,20251104-093254,1.0.1,20251020-085245,732,Experiment,Both,1,Automatic,main,47,20251104-093728,local,global,750,H,H,E,E,E-H.png,H-E.png,hH,hH,mask-3.png,mask-4.png,s,0,0.49291459983214736,h,1,0.5728915999643505,0.04690449987538159,0.04768749978393316,0.09831779985688627,0.10076079983264208,0.7491526000667363
RSVPLG03,md,20251104-093254,1.0.1,20251020-085245,732,Experiment,Both,1,Automatic,main,48,20251104-093732,global,global,300,H,H,E,E,H-E.png,H-E.png,hH,hH,mask-3.png,mask-2.png,h,1,0.4689485998824239,h,1,0.09254239988513291,0.047503799898549914,0.046528799924999475,0.1004953000228852,0.09953429992310703,0.3009548999834806
RSVPLG03,md,20251104-093254,1.0.1,20251020-085245,732,Experiment,Both,1,Automatic,main,49,20251104-093737,local,global,750,S,S,A,E,A-S.png,S-E.png,sS,sS,mask-1.png,mask-2.png,s,1,0.47866549994796515,h,0,0.6144079000223428,0.04750730004161596,0.046577699948102236,0.09951980016194284,0.09965560003183782,0.7509852000512183
RSVPLG03,md,20251104-093254,1.0.1,20251020-085245,732,Experiment,Both,1,Automatic,main,50,20251104-093742,local,global,300,S,S,A,E,A-S.png,S-E.png,sS,sS,mask-4.png,mask-2.png,s,1,0.4407369000837207,h,0,0.08905029995366931,0.04852120019495487,0.046527700033038855,0.10052590002305806,0.09957489999942482,0.301067000022158
RSVPLG03,md,20251104-093254,1.0.1,20251020-085245,732,Experiment,Both,1,Automatic,main,51,20251104-093809,global,global,300,H,S,A,E,H-A.png,S-E.png,hH,sS,mask-1.png,mask-2.png,h,1,0.3282572999596596,s,1,0.044420499820262194,0.04770269989967346,0.047710200073197484,0.10011989995837212,0.09964790008962154,0.30062130000442266
RSVPLG03,md,20251104-093254,1.0.1,20251020-085245,732,Experiment,Both,1,Automatic,main,52,20251104-093813,global,local,750,S,H,A,E,S-A.png,E-H.png,sS,hH,mask-2.png,mask-2.png,h,0,0.4955665001180023,h,1,0.07038359995931387,0.046582199865952134,0.04614620003849268,0.09959029988385737,0.10028279991820455,0.7504422999918461
RSVPLG03,md,20251104-093254,1.0.1,20251020-085245,732,Experiment,Both,1,Automatic,main,53,20251104-093817,global,local,300,H,S,E,E,H-E.png,E-S.png,hH,sS,mask-2.png,mask-2.png,h,1,0.33218659996055067,h,0,0.08471770002506673,0.04672469990327954,0.04757649987004697,0.0989318999927491,0.0996675998903811,0.3005522999446839
RSVPLG03,md,20251104-093254,1.0.1,20251020-085245,732,Experiment,Both,1,Automatic,main,54,20251104-093821,local,local,300,H,H,E,A,E-H.png,A-H.png,hH,hH,mask-4.png,mask-3.png,h,1,0.35665799980051816,h,1,0.05189709994010627,0.047683400101959705,0.04768559988588095,0.0989026001188904,0.10033749998547137,0.2995184001047164
RSVPLG03,md,20251104-093254,1.0.1,20251020-085245,732,Experiment,Both,1,Automatic,main,55,20251104-093825,local,global,300,H,S,A,E,A-H.png,S-E.png,hH,sS,mask-1.png,mask-2.png,h,1,0.46119780000299215,s,1,0.300641399808228,0.04774309997446835,0.04656510008499026,0.09975700010545552,0.09837749996222556,0.30013790004886687
RSVPLG03,md,20251104-093254,1.0.1,20251020-085245,732,Experiment,Both,1,Automatic,main,56,20251104-093830,local,local,300,S,H,A,E,A-S.png,E-H.png,sS,hH,mask-1.png,mask-2.png,s,1,0.44996159989386797,s,0,0.08800729992799461,0.04753089998848736,0.04537680000066757,0.09774670004844666,0.09902300010435283,0.3001776000019163
RSVPLG03,md,20251104-093254,1.0.1,20251020-085245,732,Experiment,Both,1,Automatic,main,57,20251104-093834,global,global,750,H,S,E,A,H-E.png,S-A.png,hH,sS,mask-4.png,mask-4.png,h,1,0.5821519999299198,s,1,0.08649589982815087,0.04752630018629134,0.04754759999923408,0.09941320004872978,0.09951579989865422,0.7503745001740754
RSVPLG03,md,20251104-093254,1.0.1,20251020-085245,732,Experiment,Both,1,Automatic,main,58,20251104-093839,global,global,750,S,H,A,A,S-A.png,H-A.png,sS,hH,mask-4.png,mask-3.png,s,1,0.41160800005309284,h,1,0.14005240006372333,0.047542099840939045,0.04752750019542873,0.09861329989507794,0.09862310020253062,0.7499181998427957
RSVPLG03,md,20251104-093254,1.0.1,20251020-085245,732,Experiment,Both,1,Automatic,main,59,20251104-093844,local,global,750,S,S,E,E,E-S.png,S-E.png,sS,sS,mask-2.png,mask-1.png,s,1,0.6889677001163363,h,0,0.05464580003172159,0.04655100009404123,0.04661229997873306,0.09962440002709627,0.09967549983412027,0.7499480000697076
RSVPLG03,md,20251104-093254,1.0.1,20251020-085245,732,Experiment,Both,1,Automatic,main,60,20251104-093848,local,global,750,S,H,A,E,A-S.png,H-E.png,sS,hH,mask-1.png,mask-2.png,s,1,0.4431843999773264,h,1,0.028317500138655305,0.047521699918434024,0.04754989990033209,0.09858269989490509,0.10055459989234805,0.7496048000175506
RSVPLG03,md,20251104-093254,1.0.1,20251020-085245,732,Experiment,Both,1,Automatic,main,61,20251104-093853,global,global,300,S,H,A,E,S-A.png,H-E.png,sS,hH,mask-3.png,mask-2.png,s,1,0.6862842999398708,h,1,0.04382829996757209,0.04751639999449253,0.04676140006631613,0.098588100168854,0.09986409987322986,0.2998572001233697
RSVPLG03,md,20251104-093254,1.0.1,20251020-085245,732,Experiment,Both,1,Automatic,main,62,20251104-093857,global,global,750,H,H,E,A,H-E.png,H-A.png,hH,hH,mask-2.png,mask-2.png,h,1,0.3586415001191199,h,1,0.08930880017578602,0.04617729992605746,0.04957559984177351,0.10020510014146566,0.10157509986311197,0.7483199001289904
RSVPLG03,md,20251104-093254,1.0.1,20251020-085245,732,Experiment,Both,1,Automatic,main,63,20251104-093902,global,global,750,S,H,E,A,S-E.png,H-A.png,sS,hH,mask-1.png,mask-2.png,s,1,0.3986202999949455,h,1,0.06793959997594357,0.047619299963116646,0.04598070005886257,0.09987040003761649,0.09889909997582436,0.7502737999893725
RSVPLG03,md,20251104-093254,1.0.1,20251020-085245,732,Experiment,Both,1,Automatic,main,64,20251104-093907,local,local,750,S,H,E,A,E-S.png,A-H.png,sS,hH,mask-1.png,mask-4.png,s,1,0.9210572000592947,h,1,0.020716900005936623,0.045771699864417315,0.045625700149685144,0.09937989991158247,0.09966770000755787,0.7503849999047816
RSVPLG03,md,20251104-093254,1.0.1,20251020-085245,732,Experiment,Both,1,Automatic,main,65,20251104-093912,local,local,750,S,H,E,E,E-S.png,E-H.png,sS,hH,mask-2.png,mask-2.png,s,1,0.305825499817729,h,1,0.08071219990961254,0.04764360003173351,0.04761440004222095,0.10098049999214709,0.10079459985718131,0.7508751000277698
RSVPLG03,md,20251104-093254,1.0.1,20251020-085245,732,Experiment,Both,1,Automatic,main,66,20251104-093916,global,local,300,S,H,E,E,S-E.png,E-H.png,sS,hH,mask-4.png,mask-4.png,s,1,0.8320486999582499,s,0,0.07324810000136495,0.047502300003543496,0.04751270008273423,0.10052870004437864,0.09962400002405047,0.3008034999947995
RSVPLG03,md,20251104-093254,1.0.1,20251020-085245,732,Experiment,Both,1,Automatic,main,67,20251104-093921,local,local,750,S,S,A,A,A-S.png,A-S.png,sS,sS,mask-4.png,mask-2.png,s,1,0.46058029984124005,s,1,0.08149100001901388,0.048584199976176023,0.047545199980959296,0.10063320002518594,0.1006585001014173,0.7502905998844653
RSVPLG03,md,20251104-093254,1.0.1,20251020-085245,732,Experiment,Both,1,Automatic,main,68,20251104-093925,global,global,300,H,S,A,A,H-A.png,S-A.png,hH,sS,mask-4.png,mask-3.png,h,1,0.43539030011743307,h,0,0.10752329998649657,0.04751779977232218,0.046536399982869625,0.09852979984134436,0.09852859983220696,0.2997592999599874
RSVPLG03,md,20251104-093254,1.0.1,20251020-085245,732,Experiment,Both,1,Automatic,main,69,20251104-093930,local,local,300,S,S,E,A,E-S.png,A-S.png,sS,sS,mask-4.png,mask-2.png,s,1,0.4792331999633461,s,1,0.11259760009124875,0.04685969999991357,0.046586399897933006,0.09903319994919002,0.09970050002448261,0.300305699929595
RSVPLG03,md,20251104-093254,1.0.1,20251020-085245,732,Experiment,Both,1,Automatic,main,70,20251104-093934,global,global,750,S,S,E,A,S-E.png,S-A.png,sS,sS,mask-1.png,mask-3.png,s,1,0.9114845001604408,h,0,0.03787000011652708,0.047677299939095974,0.04780729999765754,0.09986729989759624,0.09997340012341738,0.7498879998456687
RSVPLG03,md,20251104-093254,1.0.1,20251020-085245,732,Experiment,Both,1,Automatic,main,71,20251104-093939,local,local,300,H,S,A,E,A-H.png,E-S.png,hH,sS,mask-4.png,mask-2.png,s,0,0.7681986999232322,h,0,0.880275399889797,0.04771630000323057,0.0478600999340415,0.09979060012847185,0.1010250998660922,0.29970080009661615
RSVPLG03,md,20251104-093254,1.0.1,20251020-085245,732,Experiment,Both,1,Automatic,main,72,20251104-093943,global,local,750,S,H,A,A,S-A.png,A-H.png,sS,hH,mask-1.png,mask-2.png,s,1,0.5118828001432121,h,1,0.2811181000433862,0.047529099974781275,0.047516100108623505,0.09954579989425838,0.09874260006472468,0.7493086999747902
RSVPLG03,md,20251104-093254,1.0.1,20251020-085245,732,Experiment,Both,1,Automatic,main,73,20251104-093948,global,local,750,H,H,A,E,H-A.png,E-H.png,hH,hH,mask-3.png,mask-4.png,h,1,0.6392161000985652,s,0,0.2995653001125902,0.047567399917170405,0.04666470014490187,0.09962740004993975,0.09985939995385706,0.7512926999479532
RSVPLG03,md,20251104-093254,1.0.1,20251020-085245,732,Experiment,Both,1,Automatic,main,74,20251104-093953,local,global,300,H,H,A,E,A-H.png,H-E.png,hH,hH,mask-1.png,mask-3.png,h,1,0.4455078998580575,h,1,0.07394229993224144,0.048584300093352795,0.047532200114801526,0.09958599996753037,0.09960950003005564,0.301244999980554
RSVPLG03,md,20251104-093254,1.0.1,20251020-085245,732,Experiment,Both,1,Automatic,main,75,20251104-093957,global,local,300,H,S,E,E,H-E.png,E-S.png,hH,sS,mask-4.png,mask-3.png,h,1,0.46515459986403584,h,0,0.0879464999306947,0.04951060004532337,0.04776200000196695,0.10056830011308193,0.10015679989010096,0.3007760001346469
RSVPLG03,md,20251104-093254,1.0.1,20251020-085245,732,Experiment,Both,1,Automatic,main,76,20251104-094010,global,global,750,S,H,A,A,S-A.png,H-A.png,sS,hH,mask-2.png,mask-1.png,s,1,0.4138008998706937,h,1,0.11379109998233616,0.047537999926134944,0.04755169991403818,0.10069160000421107,0.09957049996592104,0.7507956000044942
RSVPLG03,md,20251104-093254,1.0.1,20251020-085245,732,Experiment,Both,1,Automatic,main,77,20251104-094014,global,local,750,S,H,A,E,S-A.png,E-H.png,sS,hH,mask-2.png,mask-1.png,s,1,0.5867616999894381,h,1,0.3354811000172049,0.04758460004813969,0.04757410008460283,0.09959380002692342,0.09957890002988279,0.7498832000419497
RSVPLG03,md,20251104-093254,1.0.1,20251020-085245,732,Experiment,Both,1,Automatic,main,78,20251104-094019,global,local,300,S,S,E,E,S-E.png,E-S.png,sS,sS,mask-2.png,mask-1.png,s,1,0.4804033001419157,h,0,0.18885820009745657,0.04721729992888868,0.04712189990095794,0.09955489984713495,0.09917569998651743,0.30010410002432764
RSVPLG03,md,20251104-093254,1.0.1,20251020-085245,732,Experiment,Both,1,Automatic,main,79,20251104-094024,global,local,750,S,H,A,A,S-A.png,A-H.png,sS,hH,mask-2.png,mask-3.png,s,1,0.7979804999195039,s,0,0.06696049985475838,0.047600500052794814,0.04663169989362359,0.09963429998606443,0.10021839989349246,0.7511978000402451
RSVPLG03,md,20251104-093254,1.0.1,20251020-085245,732,Experiment,Both,1,Automatic,main,80,20251104-094029,global,global,300,S,S,A,E,S-A.png,S-E.png,sS,sS,mask-2.png,mask-3.png,s,1,0.4646848998963833,s,1,0.07612250000238419,0.04754359996877611,0.04752789996564388,0.09895609994418919,0.1016196000855416,0.2983130000066012
RSVPLG03,md,20251104-093254,1.0.1,20251020-085245,732,Experiment,Both,1,Automatic,main,81,20251104-094033,local,global,750,S,H,E,A,E-S.png,H-A.png,sS,hH,mask-1.png,mask-4.png,s,1,1.0808872000779957,h,1,0.027502999873831868,0.046513000037521124,0.04758680006489158,0.0995388999581337,0.09960469999350607,0.7498174000065774
RSVPLG03,md,20251104-093254,1.0.1,20251020-085245,732,Experiment,Both,1,Automatic,main,82,20251104-094038,local,global,300,S,S,E,A,E-S.png,S-A.png,sS,sS,mask-1.png,mask-3.png,s,1,0.6865605998318642,h,0,0.07581509998999536,0.0474978000856936,0.04751899978145957,0.10049280012026429,0.09854609984904528,0.30178760015405715
RSVPLG03,md,20251104-093254,1.0.1,20251020-085245,732,Experiment,Both,1,Automatic,main,83,20251104-094042,global,local,300,S,S,A,E,S-A.png,E-S.png,sS,sS,mask-3.png,mask-3.png,s,1,1.8474455999676138,s,1,0.09290659986436367,0.04751499998383224,0.04652240010909736,0.10054880008101463,0.10056699998676777,0.30007670004852116
RSVPLG03,md,20251104-093254,1.0.1,20251020-085245,732,Experiment,Both,1,Automatic,main,84,20251104-094048,local,local,750,S,S,A,E,A-S.png,E-S.png,sS,sS,mask-4.png,mask-3.png,s,1,0.4903179998509586,s,1,0.09361870004795492,0.04580730013549328,0.04752380005083978,0.09857150004245341,0.10055379988625646,0.7491765001323074
RSVPLG03,md,20251104-093254,1.0.1,20251020-085245,732,Experiment,Both,1,Automatic,main,85,20251104-094053,local,local,750,S,S,E,E,E-S.png,E-S.png,sS,sS,mask-1.png,mask-2.png,s,1,0.35583809996023774,s,1,0.09226020006462932,0.04860119987279177,0.047581200022250414,0.10068419994786382,0.09964190004393458,0.7506094998680055
RSVPLG03,md,20251104-093254,1.0.1,20251020-085245,732,Experiment,Both,1,Automatic,main,86,20251104-094057,local,local,300,S,S,E,E,E-S.png,E-S.png,sS,sS,mask-1.png,mask-2.png,s,1,0.4538960000500083,s,1,0.08671390009112656,0.04870070004835725,0.04757320019416511,0.10114070004783571,0.09959690016694367,0.30056989984586835
RSVPLG03,md,20251104-093254,1.0.1,20251020-085245,732,Experiment,Both,1,Automatic,main,87,20251104-094101,local,local,300,H,H,E,E,E-H.png,E-H.png,hH,hH,mask-1.png,mask-2.png,h,1,0.47256479994393885,h,1,0.06428629998117685,0.047687900019809604,0.047679999843239784,0.10007209982722998,0.09989079996012151,0.2985266000032425
RSVPLG03,md,20251104-093254,1.0.1,20251020-085245,732,Experiment,Both,1,Automatic,main,88,20251104-094105,local,global,300,S,S,A,E,A-S.png,S-E.png,sS,sS,mask-4.png,mask-4.png,s,1,0.5020173999946564,s,1,0.07142710010521114,0.04766869987361133,0.04769759997725487,0.09883469995111227,0.09909619996324182,0.30046089994721115
RSVPLG03,md,20251104-093254,1.0.1,20251020-085245,732,Experiment,Both,1,Automatic,main,89,20251104-094110,global,local,750,S,H,E,A,S-E.png,A-H.png,sS,hH,mask-2.png,mask-4.png,s,1,0.4025284999515861,h,1,0.09844200010411441,0.046646400121971965,0.047699099872261286,0.09902049996890128,0.09989489987492561,0.7497754001524299
RSVPLG03,md,20251104-093254,1.0.1,20251020-085245,732,Experiment,Both,1,Automatic,main,90,20251104-094114,local,local,750,H,S,E,E,E-H.png,E-S.png,hH,sS,mask-1.png,mask-3.png,h,1,0.8773786001838744,s,1,0.08575220010243356,0.047679100185632706,0.047529299976304173,0.09991730004549026,0.1006207000464201,0.7498447000980377
RSVPLG03,md,20251104-093254,1.0.1,20251020-085245,732,Experiment,Both,1,Automatic,main,91,20251104-094119,global,local,300,S,S,A,A,S-A.png,A-S.png,sS,sS,mask-4.png,mask-2.png,s,1,0.5804186000023037,s,1,0.0907177000772208,0.045720099937170744,0.047671600012108684,0.0997488999273628,0.09991479991003871,0.2994411000981927
RSVPLG03,md,20251104-093254,1.0.1,20251020-085245,732,Experiment,Both,1,Automatic,main,92,20251104-094123,local,local,750,S,S,A,A,A-S.png,A-S.png,sS,sS,mask-4.png,mask-2.png,s,1,0.414559000171721,s,1,0.10240640002302825,0.048623899929225445,0.04651920008473098,0.10168919991701841,0.09881520015187562,0.7516051998827606
RSVPLG03,md,20251104-093254,1.0.1,20251020-085245,732,Experiment,Both,1,Automatic,main,93,20251104-094128,local,global,300,H,H,A,A,A-H.png,H-A.png,hH,hH,mask-4.png,mask-3.png,s,0,0.7413698001764715,h,1,0.06821330008096993,0.04752789996564388,0.04649760015308857,0.09873580001294613,0.09937430010177195,0.2998328998219222
RSVPLG03,md,20251104-093254,1.0.1,20251020-085245,732,Experiment,Both,1,Automatic,main,94,20251104-094133,local,global,750,S,S,E,E,E-S.png,S-E.png,sS,sS,mask-1.png,mask-4.png,s,1,0.49349160003475845,s,1,0.34474590001627803,0.046514099929481745,0.04650230007246137,0.09880420006811619,0.09850740013644099,0.7507704999297857
RSVPLG03,md,20251104-093254,1.0.1,20251020-085245,732,Experiment,Both,1,Automatic,main,95,20251104-094137,global,local,300,H,S,E,E,H-E.png,E-S.png,hH,sS,mask-3.png,mask-3.png,s,0,0.39806940010748804,s,1,0.08858999982476234,0.04766199993900955,0.04665740020573139,0.09984629997052252,0.09982930007390678,0.3003536998294294
RSVPLG03,md,20251104-093254,1.0.1,20251020-085245,732,Experiment,Both,1,Automatic,main,96,20251104-094142,global,global,750,H,H,A,E,H-A.png,H-E.png,hH,hH,mask-3.png,mask-1.png,h,1,0.21648090006783605,h,1,0.057021599961444736,0.04669470014050603,0.046870100079104304,0.09988160012289882,0.10015630000270903,0.7495619000401348
RSVPLG03,md,20251104-093254,1.0.1,20251020-085245,732,Experiment,Both,1,Automatic,main,97,20251104-094146,local,global,750,S,H,A,A,A-S.png,H-A.png,sS,hH,mask-2.png,mask-2.png,s,1,0.4797735000029206,h,1,0.044045699993148446,0.04762209998443723,0.04760590009391308,0.10004520020447671,0.09968170011416078,0.75080809998326
RSVPLG03,md,20251104-093254,1.0.1,20251020-085245,732,Experiment,Both,1,Automatic,main,98,20251104-094151,local,local,750,H,S,E,E,E-H.png,E-S.png,hH,sS,mask-4.png,mask-3.png,h,1,0.2894790000282228,s,1,0.07464349991641939,0.048508299980312586,0.04752890020608902,0.09980880003422499,0.09993290016427636,0.7498315998818725
RSVPLG03,md,20251104-093254,1.0.1,20251020-085245,732,Experiment,Both,1,Automatic,main,99,20251104-094155,local,global,750,H,H,A,E,A-H.png,H-E.png,hH,hH,mask-3.png,mask-3.png,h,1,0.11820210004225373,h,1,0.12212430010549724,0.047690900042653084,0.04767449991777539,0.09992760000750422,0.09992860001511872,0.7498683000449091
RSVPLG03,md,20251104-093254,1.0.1,20251020-085245,732,Experiment,Both,1,Automatic,main,100,20251104-094159,global,local,750,H,S,E,A,H-E.png,A-S.png,hH,sS,mask-1.png,mask-3.png,h,1,0.36335200001485646,h,0,0.08923589996993542,0.04876090004108846,0.04665979999117553,0.10088280006311834,0.09984479984268546,0.7511201000306755
RSVPLG03,md,20251104-093254,1.0.1,20251020-085245,732,Experiment,Both,1,Automatic,main,101,20251104-094208,global,global,300,H,H,E,A,H-E.png,H-A.png,hH,hH,mask-4.png,mask-1.png,h,1,0.30889240000396967,h,1,0.07035159994848073,0.047498099971562624,0.04751920001581311,0.1004993999376893,0.09884089999832213,0.3007097998633981
RSVPLG03,md,20251104-093254,1.0.1,20251020-085245,732,Experiment,Both,1,Automatic,main,102,20251104-094212,global,local,750,S,H,E,A,S-E.png,A-H.png,sS,hH,mask-2.png,mask-2.png,s,1,0.3498791998717934,h,1,0.0019344000611454248,0.04771009995602071,0.04675309988670051,0.10010499996133149,0.09890239988453686,0.7511998999398202
RSVPLG03,md,20251104-093254,1.0.1,20251020-085245,732,Experiment,Both,1,Automatic,main,103,20251104-094217,global,global,300,H,H,E,A,H-E.png,H-A.png,hH,hH,mask-3.png,mask-1.png,h,1,0.3532998999580741,h,1,0.06511620013043284,0.04661460011266172,0.04769890010356903,0.09980010008439422,0.0988882000092417,0.29942970001138747
RSVPLG03,md,20251104-093254,1.0.1,20251020-085245,732,Experiment,Both,1,Automatic,main,104,20251104-094221,global,local,300,H,S,A,A,H-A.png,A-S.png,hH,sS,mask-3.png,mask-1.png,h,1,0.5337517999578267,s,1,0.03866269998252392,0.0466024000197649,0.047366000013425946,0.09918570006266236,0.10009530000388622,0.2991796999704093
RSVPLG03,md,20251104-093254,1.0.1,20251020-085245,732,Experiment,Both,1,Automatic,main,105,20251104-094225,local,local,300,H,H,A,A,A-H.png,A-H.png,hH,hH,mask-3.png,mask-2.png,h,1,0.442561199888587,h,1,0.05108250002376735,0.04768310021609068,0.04758010013028979,0.09888250008225441,0.09977370011620224,0.30047310004010797
RSVPLG03,md,20251104-093254,1.0.1,20251020-085245,732,Experiment,Both,1,Automatic,main,106,20251104-094229,local,local,750,H,S,A,A,A-H.png,A-S.png,hH,sS,mask-4.png,mask-4.png,h,1,0.3564397001173347,s,1,0.12232320010662079,0.0456604000646621,0.04767200001515448,0.09984660008922219,0.09989820001646876,0.7497004000470042
RSVPLG03,md,20251104-093254,1.0.1,20251020-085245,732,Experiment,Both,1,Automatic,main,107,20251104-094234,global,global,300,H,H,E,E,H-E.png,H-E.png,hH,hH,mask-3.png,mask-3.png,h,1,0.2843137001618743,h,1,0.09366709995083511,0.047528599854558706,0.047508500050753355,0.10053249984048307,0.09955439995974302,0.3008018999826163
RSVPLG03,md,20251104-093254,1.0.1,20251020-085245,732,Experiment,Both,1,Automatic,main,108,20251104-094238,global,global,750,S,S,A,E,S-A.png,S-E.png,sS,sS,mask-2.png,mask-3.png,s,1,0.8934245998971164,s,1,0.10215610009618104,0.04767509992234409,0.04774480010382831,0.10186129994690418,0.09890089998953044,0.7515593999996781
RSVPLG03,md,20251104-093254,1.0.1,20251020-085245,732,Experiment,Both,1,Automatic,main,109,20251104-094243,local,global,750,S,H,A,E,A-S.png,H-E.png,sS,hH,mask-3.png,mask-4.png,h,0,1.4554174998775125,h,1,0.11662109987810254,0.04759379988536239,0.04650719999335706,0.09960099984891713,0.09951359988190234,0.7500265999697149
RSVPLG03,md,20251104-093254,1.0.1,20251020-085245,732,Experiment,Both,1,Automatic,main,110,20251104-094249,global,local,300,H,H,E,A,H-E.png,A-H.png,hH,hH,mask-4.png,mask-4.png,h,1,0.41347450017929077,h,1,0.07604720001108944,0.04698610003106296,0.0479137001093477,0.0992185000795871,0.10113289998844266,0.29879079991951585
RSVPLG03,md,20251104-093254,1.0.1,20251020-085245,732,Experiment,Both,1,Automatic,main,111,20251104-094253,local,global,300,H,H,E,E,E-H.png,H-E.png,hH,hH,mask-4.png,mask-3.png,s,0,0.9885339001193643,h,1,0.11612629983574152,0.047686400124803185,0.04747359990142286,0.10087920003570616,0.0989888000767678,0.3015340000856668
RSVPLG03,md,20251104-093254,1.0.1,20251020-085245,732,Experiment,Both,1,Automatic,main,112,20251104-094257,global,local,750,H,H,E,A,H-E.png,A-H.png,hH,hH,mask-4.png,mask-4.png,h,1,0.2553169000893831,h,1,0.06707199988886714,0.04585399990901351,0.04751239996403456,0.09885660000145435,0.09956130012869835,0.7495870999991894
RSVPLG03,md,20251104-093254,1.0.1,20251020-085245,732,Experiment,Both,1,Automatic,main,113,20251104-094302,local,local,300,H,H,E,E,E-H.png,E-H.png,hH,hH,mask-4.png,mask-1.png,h,1,0.41578450007364154,h,1,0.07531560002826154,0.04765169997699559,0.04784530005417764,0.10068819997832179,0.09904429991729558,0.30029619997367263
RSVPLG03,md,20251104-093254,1.0.1,20251020-085245,732,Experiment,Both,1,Automatic,main,114,20251104-094306,global,global,300,S,S,A,A,S-A.png,S-A.png,sS,sS,mask-1.png,mask-4.png,s,1,1.1622325000353158,s,1,0.07642719987779856,0.04717809986323118,0.04757310007698834,0.09916089987382293,0.09957480011507869,0.29945739987306297
RSVPLG03,md,20251104-093254,1.0.1,20251020-085245,732,Experiment,Both,1,Automatic,main,115,20251104-094311,local,global,750,S,H,A,E,A-S.png,H-E.png,sS,hH,mask-1.png,mask-4.png,s,1,0.572730700019747,h,1,0.03171599982306361,0.04653599997982383,0.04751530010253191,0.09952130005694926,0.10052300011739135,0.7501246000174433
RSVPLG03,md,20251104-093254,1.0.1,20251020-085245,732,Experiment,Both,1,Automatic,main,116,20251104-094315,global,global,750,S,H,A,E,S-A.png,H-E.png,sS,hH,mask-1.png,mask-2.png,h,0,0.4122067999560386,h,1,0.07515949988737702,0.0475291998591274,0.04750709980726242,0.10041899979114532,0.09853710001334548,0.7504265999887139
RSVPLG03,md,20251104-093254,1.0.1,20251020-085245,732,Experiment,Both,1,Automatic,main,117,20251104-094320,global,global,750,H,H,E,A,H-E.png,H-A.png,hH,hH,mask-1.png,mask-1.png,h,1,0.9341796999797225,s,0,0.07699569989927113,0.047512799967080355,0.04862409993074834,0.09851830010302365,0.10063919983804226,0.749173300107941
RSVPLG03,md,20251104-093254,1.0.1,20251020-085245,732,Experiment,Both,1,Automatic,main,118,20251104-094325,global,global,750,S,H,E,E,S-E.png,H-E.png,sS,hH,mask-3.png,mask-2.png,s,1,0.28429099987261,h,1,0.04415850015357137,0.047542700078338385,0.04663810017518699,0.09955079993233085,0.10063260002061725,0.7493916999083012
RSVPLG03,md,20251104-093254,1.0.1,20251020-085245,732,Experiment,Both,1,Automatic,main,119,20251104-094329,local,local,300,H,S,E,E,E-H.png,E-S.png,hH,sS,mask-3.png,mask-3.png,h,1,0.4634006000123918,s,1,0.03794499998912215,0.04751459998078644,0.04750259988941252,0.10049430001527071,0.09850029996596277,0.30172260012477636
RSVPLG03,md,20251104-093254,1.0.1,20251020-085245,732,Experiment,Both,1,Automatic,main,120,20251104-094334,global,local,750,H,S,E,A,H-E.png,A-S.png,hH,sS,mask-4.png,mask-1.png,h,1,0.33856389997527003,h,0,0.08334440016187727,0.04654210014268756,0.04753590002655983,0.09954510000534356,0.10152530018240213,0.7488945999648422
RSVPLG03,md,20251104-093254,1.0.1,20251020-085245,732,Experiment,Both,1,Automatic,main,121,20251104-094338,global,local,300,H,H,A,A,H-A.png,A-H.png,hH,hH,mask-1.png,mask-1.png,h,1,0.4446115999016911,h,1,0.07521330006420612,0.04755609994754195,0.049186900025233626,0.09856049995869398,0.10021020006388426,0.2983729001134634
RSVPLG03,md,20251104-093254,1.0.1,20251020-085245,732,Experiment,Both,1,Automatic,main,122,20251104-094342,local,global,300,H,S,A,A,A-H.png,S-A.png,hH,sS,mask-3.png,mask-1.png,h,1,0.6317695998586714,h,0,0.09307529986836016,0.04656239994801581,0.047532099997624755,0.10063360002823174,0.099835499888286,0.2999432999640703
RSVPLG03,md,20251104-093254,1.0.1,20251020-085245,732,Experiment,Both,1,Automatic,main,123,20251104-094347,local,global,750,S,S,A,E,A-S.png,S-E.png,sS,sS,mask-1.png,mask-4.png,s,1,0.675576200010255,h,0,0.042788000078871846,0.04724069987423718,0.04697730019688606,0.10023489990271628,0.09949819999746978,0.7497655998449773
RSVPLG03,md,20251104-093254,1.0.1,20251020-085245,732,Experiment,Both,1,Automatic,main,124,20251104-094351,local,local,750,S,H,A,A,A-S.png,A-H.png,sS,hH,mask-3.png,mask-1.png,s,1,0.2859932000283152,h,1,0.042730099987238646,0.048059399938210845,0.04765180009417236,0.10030719987116754,0.09983290010131896,0.7501166998408735
RSVPLG03,md,20251104-093254,1.0.1,20251020-085245,732,Experiment,Both,1,Automatic,main,125,20251104-094356,global,local,300,S,H,A,E,S-A.png,E-H.png,sS,hH,mask-4.png,mask-4.png,s,1,0.44679529988206923,s,0,0.08771890006028116,0.0475252999458462,0.0484780000988394,0.09998029982671142,0.10050040017813444,0.29925249982625246
RSVPLG03,md,20251104-094439,1.0.1,20251020-085245,732,Experiment,Both,1,Automatic,warmup,1,20251104-094526,local,global,300,H,S,A,E,A-H.png,S-E.png,hH,sS,mask-2.png,mask-2.png,h,1,0.4429756000172347,h,0,0.025339700048789382,0.040223600110039115,0.04732100013643503,0.09302220004610717,0.10040550003759563,0.2930578999221325
RSVPLG03,md,20251104-094439,1.0.1,20251020-085245,732,Experiment,Both,1,Automatic,warmup,2,20251104-094530,local,local,750,S,H,A,A,A-S.png,A-H.png,sS,hH,mask-4.png,mask-2.png,s,1,0.3400598999578506,h,1,0.03691580006852746,0.047678800066933036,0.04859989997930825,0.10074330004863441,0.10080170002765954,0.7495493001770228
RSVPLG03,md,20251104-094439,1.0.1,20251020-085245,732,Experiment,Both,1,Automatic,warmup,3,20251104-094535,local,global,750,H,H,A,E,A-H.png,H-E.png,hH,hH,mask-2.png,mask-4.png,h,1,0.4060362000018358,h,1,0.06659159995615482,0.047579600010067225,0.04652229999192059,0.09859159984625876,0.09967389982193708,0.7493626000359654
RSVPLG03,md,20251104-094439,1.0.1,20251020-085245,732,Experiment,Both,1,Automatic,warmup,4,20251104-094539,local,local,300,H,S,E,A,E-H.png,A-S.png,hH,sS,mask-2.png,mask-2.png,h,1,0.4172602999024093,s,1,0.02815230004489422,0.04873040015809238,0.047537000151351094,0.10075670015066862,0.09958140016533434,0.30120730004273355
RSVPLG03,md,20251104-094439,1.0.1,20251020-085245,732,Experiment,Both,1,Automatic,warmup,5,20251104-094543,global,local,300,H,S,A,E,H-A.png,E-S.png,hH,sS,mask-1.png,mask-4.png,h,1,0.32198189990594983,h,0,0.05988819990307093,0.04741819994524121,0.04740460007451475,0.10029649990610778,0.0996157000772655,0.3003221999388188
RSVPLG03,md,20251104-094439,1.0.1,20251020-085245,732,Experiment,Both,1,Automatic,main,6,20251104-094547,local,global,750,H,S,E,E,E-H.png,S-E.png,hH,sS,mask-4.png,mask-4.png,h,1,0.4941473000217229,s,1,0.10120640019886196,0.04752310016192496,0.047518800012767315,0.1005148000549525,0.09853239986114204,0.751678500091657
RSVPLG03,md,20251104-094439,1.0.1,20251020-085245,732,Experiment,Both,1,Automatic,main,7,20251104-094552,local,local,300,H,H,E,A,E-H.png,A-H.png,hH,hH,mask-3.png,mask-1.png,h,1,0.32229329994879663,h,1,0.06349209998734295,0.04678179998882115,0.046431299997493625,0.10035309987142682,0.10031779995188117,0.30045420001260936
RSVPLG03,md,20251104-094439,1.0.1,20251020-085245,732,Experiment,Both,1,Automatic,main,8,20251104-094556,global,global,300,H,H,E,E,H-E.png,H-E.png,hH,hH,mask-2.png,mask-3.png,h,1,0.302708099829033,h,1,0.052224700106307864,0.04610309982672334,0.04767789994366467,0.09812219999730587,0.09978369995951653,0.2986806998960674
RSVPLG03,md,20251104-094439,1.0.1,20251020-085245,732,Experiment,Both,1,Automatic,main,9,20251104-094600,local,local,750,S,S,A,E,A-S.png,E-S.png,sS,sS,mask-4.png,mask-1.png,s,1,0.4948154001031071,s,1,0.07514699990861118,0.045710999984294176,0.046582299983128905,0.0998452000785619,0.09962940006516874,0.7500829000491649
RSVPLG03,md,20251104-094439,1.0.1,20251020-085245,732,Experiment,Both,1,Automatic,main,10,20251104-094605,local,local,300,S,H,E,E,E-S.png,E-H.png,sS,hH,mask-4.png,mask-3.png,s,1,0.2982157999649644,h,1,0.009793300181627274,0.04756260011345148,0.048716200049966574,0.09990380005910993,0.10104560013860464,0.2988235999364406
RSVPLG03,md,20251104-094439,1.0.1,20251020-085245,732,Experiment,Both,1,Automatic,main,11,20251104-094609,global,global,750,H,S,A,E,H-A.png,S-E.png,hH,sS,mask-2.png,mask-4.png,h,1,0.36631920002400875,s,1,0.006847199983894825,0.04751499998383224,0.046620599925518036,0.10062699997797608,0.10079549998044968,0.7497731000185013
RSVPLG03,md,20251104-094439,1.0.1,20251020-085245,732,Experiment,Both,1,Automatic,main,12,20251104-094613,global,local,750,H,H,E,A,H-E.png,A-H.png,hH,hH,mask-3.png,mask-4.png,h,1,0.38084799982607365,h,1,0.05419170018285513,0.04624300007708371,0.04777979990467429,0.09948900016024709,0.10002740006893873,0.7496538001578301
RSVPLG03,md,20251104-094439,1.0.1,20251020-085245,732,Experiment,Both,1,Automatic,main,13,20251104-094618,local,global,300,S,S,E,E,E-S.png,S-E.png,sS,sS,mask-1.png,mask-1.png,s,1,0.7616446001920849,h,0,0.019033899996429682,0.04739429987967014,0.04753559990786016,0.10072940005920827,0.10158819984644651,0.30012440006248653
RSVPLG03,md,20251104-094439,1.0.1,20251020-085245,732,Experiment,Both,1,Automatic,main,14,20251104-094622,local,local,750,H,H,E,E,E-H.png,E-H.png,hH,hH,mask-4.png,mask-4.png,h,1,0.383020400069654,h,1,0.07606870005838573,0.04770629992708564,0.04754119995050132,0.10183860012330115,0.10159650002606213,0.7503204999957234
RSVPLG03,md,20251104-094439,1.0.1,20251020-085245,732,Experiment,Both,1,Automatic,main,15,20251104-094627,global,local,300,S,H,A,E,S-A.png,E-H.png,sS,hH,mask-2.png,mask-3.png,s,1,0.6914201001636684,h,1,0.787599400151521,0.047576900105923414,0.047572100069373846,0.09957130020484328,0.0997478999197483,0.29980810009874403
RSVPLG03,md,20251104-094439,1.0.1,20251020-085245,732,Experiment,Both,1,Automatic,main,16,20251104-094631,local,local,300,H,H,E,A,E-H.png,A-H.png,hH,hH,mask-1.png,mask-4.png,h,1,0.40095250005833805,h,1,0.06520879990421236,0.04722489998675883,0.04751550010405481,0.09906310006044805,0.10092630004510283,0.2981326999142766
RSVPLG03,md,20251104-094439,1.0.1,20251020-085245,732,Experiment,Both,1,Automatic,main,17,20251104-094635,global,global,750,H,H,E,A,H-E.png,H-A.png,hH,hH,mask-2.png,mask-4.png,h,1,0.31729339994490147,h,1,0.09650370012968779,0.047577799996361136,0.04845190001651645,0.09882920002564788,0.10149020003154874,0.7487093999516219
RSVPLG03,md,20251104-094439,1.0.1,20251020-085245,732,Experiment,Both,1,Automatic,main,18,20251104-094639,global,global,750,H,H,A,E,H-A.png,H-E.png,hH,hH,mask-4.png,mask-1.png,h,1,0.27294930000789464,h,1,0.07671019993722439,0.04569039982743561,0.047326400177553296,0.09876009984873235,0.10038370010443032,0.7493496998213232
RSVPLG03,md,20251104-094439,1.0.1,20251020-085245,732,Experiment,Both,1,Automatic,main,19,20251104-094644,global,local,750,S,H,A,E,S-A.png,E-H.png,sS,hH,mask-3.png,mask-2.png,s,1,0.5714124999940395,s,0,0.07976280013099313,0.04851599992252886,0.04770549992099404,0.09969489998184144,0.10058650001883507,0.7507639999967068
RSVPLG03,md,20251104-094439,1.0.1,20251020-085245,732,Experiment,Both,1,Automatic,main,20,20251104-094648,local,local,300,S,S,A,A,A-S.png,A-S.png,sS,sS,mask-3.png,mask-2.png,s,1,0.5353008001111448,h,0,0.5352811000775546,0.04831659980118275,0.04768519988283515,0.10078049986623228,0.09989119996316731,0.3010970000177622
RSVPLG03,md,20251104-094439,1.0.1,20251020-085245,732,Experiment,Both,1,Automatic,main,21,20251104-094653,global,local,750,H,S,A,A,H-A.png,A-S.png,hH,sS,mask-3.png,mask-1.png,h,1,0.36295190011151135,h,0,0.08370610000565648,0.04816269990988076,0.04753789980895817,0.10012670001015067,0.09867460001260042,0.7512757000513375
RSVPLG03,md,20251104-094439,1.0.1,20251020-085245,732,Experiment,Both,1,Automatic,main,22,20251104-094658,global,global,750,H,H,A,E,H-A.png,H-E.png,hH,hH,mask-2.png,mask-2.png,h,1,0.33254590001888573,h,1,0.07746300008147955,0.04754190007224679,0.049607899971306324,0.0990087001118809,0.10163239995017648,0.7487437000963837
RSVPLG03,md,20251104-094439,1.0.1,20251020-085245,732,Experiment,Both,1,Automatic,main,23,20251104-094702,local,global,300,H,S,A,E,A-H.png,S-E.png,hH,sS,mask-4.png,mask-4.png,h,1,1.0874688001349568,h,0,0.07515180017799139,0.04773300001397729,0.04767929995432496,0.09991560014896095,0.10187279991805553,0.2995478000957519
RSVPLG03,md,20251104-094439,1.0.1,20251020-085245,732,Experiment,Both,1,Automatic,main,24,20251104-094707,global,global,300,S,S,A,E,S-A.png,S-E.png,sS,sS,mask-1.png,mask-2.png,s,1,0.4993080000858754,s,1,0.05329349986277521,0.04765149997547269,0.04774870001710951,0.09979999996721745,0.09984160005114973,0.29949690005742013
RSVPLG03,md,20251104-094439,1.0.1,20251020-085245,732,Experiment,Both,1,Automatic,main,25,20251104-094711,global,local,300,S,H,E,E,S-E.png,E-H.png,sS,hH,mask-2.png,mask-4.png,s,1,0.3884419999085367,s,0,0.06602899986319244,0.047682300209999084,0.046727400040254,0.09886670019477606,0.1009358000010252,0.29951050016097724
RSVPLG03,md,20251104-094439,1.0.1,20251020-085245,732,Experiment,Both,1,Automatic,main,26,20251104-094717,global,global,300,H,H,A,E,H-A.png,H-E.png,hH,hH,mask-3.png,mask-2.png,h,1,0.4108062000013888,h,1,0.07570810010656714,0.04774349997751415,0.04832830000668764,0.09997890004888177,0.10045329993590713,0.29898570012301207
RSVPLG03,md,20251104-094439,1.0.1,20251020-085245,732,Experiment,Both,1,Automatic,main,27,20251104-094721,local,local,300,S,H,A,A,A-S.png,A-H.png,sS,hH,mask-3.png,mask-4.png,s,1,0.6540342001244426,h,1,0.047686300007626414,0.0475063999183476,0.04758449993096292,0.0995974000543356,0.09963529999367893,0.2991979999933392
RSVPLG03,md,20251104-094439,1.0.1,20251020-085245,732,Experiment,Both,1,Automatic,main,28,20251104-094726,local,global,300,H,H,E,A,E-H.png,H-A.png,hH,hH,mask-2.png,mask-1.png,h,1,0.387929700082168,h,1,0.07536290003918111,0.045518599916249514,0.04741419991478324,0.09963640011847019,0.09938749996945262,0.2989238000009209
RSVPLG03,md,20251104-094439,1.0.1,20251020-085245,732,Experiment,Both,1,Automatic,main,29,20251104-094730,local,global,300,H,H,A,E,A-H.png,H-E.png,hH,hH,mask-2.png,mask-2.png,h,1,0.5561007999349385,h,1,0.05287339980714023,0.04753850004635751,0.04651940008625388,0.10056119994260371,0.09880870021879673,0.3008134998381138
RSVPLG03,md,20251104-094439,1.0.1,20251020-085245,732,Experiment,Both,1,Automatic,main,30,20251104-094734,local,local,300,H,S,A,E,A-H.png,E-S.png,hH,sS,mask-4.png,mask-1.png,h,1,0.33796610007993877,s,1,0.019316400168463588,0.04770349990576506,0.047693599946796894,0.10015400010161102,0.09975349996238947,0.3006959001068026
RSVPLG03,md,20251104-094439,1.0.1,20251020-085245,732,Experiment,Both,1,Automatic,main,31,20251104-094738,global,global,750,S,S,E,A,S-E.png,S-A.png,sS,sS,mask-2.png,mask-3.png,s,1,0.34934749989770353,s,1,0.08239339990541339,0.04753870004788041,0.047535100020468235,0.10063969995826483,0.10056160017848015,0.7499905999284238
RSVPLG03,md,20251104-094439,1.0.1,20251020-085245,732,Experiment,Both,1,Automatic,main,32,20251104-094743,global,local,300,S,S,E,A,S-E.png,A-S.png,sS,sS,mask-1.png,mask-3.png,h,0,0.7363110999576747,h,0,0.07600569981150329,0.04852829989977181,0.04751530010253191,0.09952619997784495,0.09958120016381145,0.30048129986971617
RSVPLG03,md,20251104-094439,1.0.1,20251020-085245,732,Experiment,Both,1,Automatic,main,33,20251104-094747,global,global,300,S,S,A,E,S-A.png,S-E.png,sS,sS,mask-1.png,mask-4.png,s,1,0.34604269987903535,s,1,0.07659910013899207,0.046555399894714355,0.047536199912428856,0.09855569992214441,0.10064209997653961,0.2994331999216229
RSVPLG03,md,20251104-094439,1.0.1,20251020-085245,732,Experiment,Both,1,Automatic,main,34,20251104-094751,local,local,300,S,S,A,A,A-S.png,A-S.png,sS,sS,mask-2.png,mask-4.png,s,1,0.38653350016102195,s,1,0.8741453001275659,0.04751830012537539,0.04751639999449253,0.09957349998876452,0.09958230005577207,0.3000072001013905
RSVPLG03,md,20251104-094439,1.0.1,20251020-085245,732,Experiment,Both,1,Automatic,main,35,20251104-094756,global,global,300,S,S,E,E,S-E.png,S-E.png,sS,sS,mask-2.png,mask-1.png,s,1,0.3453052998520434,s,1,0.07098100008442998,0.04762599989771843,0.0486928999889642,0.0988304999191314,0.10066070011816919,0.29872719990089536
RSVPLG03,md,20251104-094439,1.0.1,20251020-085245,732,Experiment,Both,1,Automatic,main,36,20251104-094800,local,local,750,S,S,A,E,A-S.png,E-S.png,sS,sS,mask-2.png,mask-3.png,s,1,0.3315540999174118,s,1,0.06945620011538267,0.04678010009229183,0.04746650019660592,0.09898500004783273,0.1007028000894934,0.749157999875024
RSVPLG03,md,20251104-094439,1.0.1,20251020-085245,732,Experiment,Both,1,Automatic,main,37,20251104-094804,local,global,750,S,S,E,E,E-S.png,S-E.png,sS,sS,mask-4.png,mask-1.png,s,1,0.32859769999049604,s,1,0.06777879991568625,0.047534799901768565,0.04856080003082752,0.09864920005202293,0.09979060012847185,0.748763799900189
RSVPLG03,md,20251104-094439,1.0.1,20251020-085245,732,Experiment,Both,1,Automatic,main,38,20251104-094809,local,local,300,S,H,E,A,E-S.png,A-H.png,sS,hH,mask-2.png,mask-2.png,s,1,0.3956126000266522,s,0,0.07659310009330511,0.04754830012097955,0.04755089990794659,0.10063680005259812,0.10048220003955066,0.30011430010199547
RSVPLG03,md,20251104-094439,1.0.1,20251020-085245,732,Experiment,Both,1,Automatic,main,39,20251104-094813,global,global,300,S,S,A,A,S-A.png,S-A.png,sS,sS,mask-3.png,mask-4.png,s,1,0.2759954999201,s,1,0.08068259991705418,0.047539199935272336,0.047375999856740236,0.10037119989283383,0.10023099998943508,0.3004258000291884
RSVPLG03,md,20251104-094439,1.0.1,20251020-085245,732,Experiment,Both,1,Automatic,main,40,20251104-094817,local,global,750,S,S,A,A,A-S.png,S-A.png,sS,sS,mask-2.png,mask-2.png,h,0,0.23527680011466146,h,0,0.11645619990304112,0.04752949997782707,0.04825860005803406,0.10149549995549023,0.099444700172171,0.7504799999296665
RSVPLG03,md,20251104-094439,1.0.1,20251020-085245,732,Experiment,Both,1,Automatic,main,41,20251104-094821,global,local,750,H,H,A,E,H-A.png,E-H.png,hH,hH,mask-2.png,mask-1.png,h,1,0.40146969980560243,s,0,0.027419199934229255,0.04553669993765652,0.048512599896639585,0.09955439995974302,0.10053249984048307,0.748424099991098
RSVPLG03,md,20251104-094439,1.0.1,20251020-085245,732,Experiment,Both,1,Automatic,main,42,20251104-094826,local,global,300,S,S,E,A,E-S.png,S-A.png,sS,sS,mask-2.png,mask-3.png,s,1,0.8718743999488652,h,0,0.006110599962994456,0.04857280012220144,0.047081900062039495,0.10058380011469126,0.10009779990650713,0.30122290016151965
RSVPLG03,md,20251104-094439,1.0.1,20251020-085245,732,Experiment,Both,1,Automatic,main,43,20251104-094830,local,local,300,H,H,E,A,E-H.png,A-H.png,hH,hH,mask-3.png,mask-2.png,h,1,0.3290697999764234,h,1,0.08572520012967288,0.047563100000843406,0.047554400051012635,0.10077490005642176,0.09855840005911887,0.30150309996679425
RSVPLG03,md,20251104-094439,1.0.1,20251020-085245,732,Experiment,Both,1,Automatic,main,44,20251104-094834,local,local,750,H,S,A,A,A-H.png,A-S.png,hH,sS,mask-3.png,mask-4.png,h,1,0.39479060005396605,s,1,0.0972800999879837,0.04660590016283095,0.04740869998931885,0.09967820020392537,0.10055269999429584,0.7492069001309574
RSVPLG03,md,20251104-094439,1.0.1,20251020-085245,732,Experiment,Both,1,Automatic,main,45,20251104-094839,local,global,300,H,S,E,A,E-H.png,S-A.png,hH,sS,mask-4.png,mask-2.png,s,0,0.44826949993148446,s,1,0.1372811000328511,0.04673020006157458,0.04778689984232187,0.09991219989024103,0.0999826998449862,0.29951400007121265
RSVPLG03,md,20251104-094439,1.0.1,20251020-085245,732,Experiment,Both,1,Automatic,main,46,20251104-094843,local,local,750,S,H,A,E,A-S.png,E-H.png,sS,hH,mask-1.png,mask-4.png,s,1,0.23023960017599165,h,1,0.08972309995442629,0.047665500082075596,0.04670649999752641,0.09906670008786023,0.1009559000376612,0.7497145999222994
RSVPLG03,md,20251104-094439,1.0.1,20251020-085245,732,Experiment,Both,1,Automatic,main,47,20251104-094848,local,global,750,H,S,E,E,E-H.png,S-E.png,hH,sS,mask-3.png,mask-3.png,h,1,0.3334290999919176,h,0,0.0861082999035716,0.04828809993341565,0.048612199956551194,0.10059289983473718,0.10062510007992387,0.7492450999561697
RSVPLG03,md,20251104-094439,1.0.1,20251020-085245,732,Experiment,Both,1,Automatic,main,48,20251104-094852,local,global,300,S,H,E,E,E-S.png,H-E.png,sS,hH,mask-3.png,mask-4.png,s,1,0.4749090999830514,s,0,0.09292289987206459,0.04553089989349246,0.04758740006946027,0.09861329989507794,0.09863770008087158,0.29994909977540374
RSVPLG03,md,20251104-094439,1.0.1,20251020-085245,732,Experiment,Both,1,Automatic,main,49,20251104-094856,local,global,300,H,S,A,E,A-H.png,S-E.png,hH,sS,mask-1.png,mask-1.png,h,1,0.790355599950999,h,0,0.13567029987461865,0.04754119995050132,0.047570900060236454,0.10060829995200038,0.10169160016812384,0.3002402998972684
RSVPLG03,md,20251104-094439,1.0.1,20251020-085245,732,Experiment,Both,1,Automatic,main,50,20251104-094901,local,global,750,H,H,A,A,A-H.png,H-A.png,hH,hH,mask-4.png,mask-1.png,s,0,0.1593259999062866,h,1,0.09044929989613593,0.04758190014399588,0.04870659997686744,0.10076100006699562,0.10065550007857382,0.7498302001040429
RSVPLG03,md,20251104-094439,1.0.1,20251020-085245,732,Experiment,Both,1,Automatic,main,51,20251104-094912,global,global,300,S,S,A,A,S-A.png,S-A.png,sS,sS,mask-3.png,mask-4.png,s,1,0.2840140999760479,s,1,0.07038830011151731,0.04754389985464513,0.0472762999124825,0.10121580003760755,0.10031899996101856,0.30085200001485646
RSVPLG03,md,20251104-094439,1.0.1,20251020-085245,732,Experiment,Both,1,Automatic,main,52,20251104-094916,global,local,300,S,H,A,E,S-A.png,E-H.png,sS,hH,mask-4.png,mask-3.png,s,1,0.2546552000567317,s,0,0.0889904999639839,0.04753470001742244,0.04653209983371198,0.09872510004788637,0.09835619991645217,0.30107250018045306
RSVPLG03,md,20251104-094439,1.0.1,20251020-085245,732,Experiment,Both,1,Automatic,main,53,20251104-094920,global,global,750,H,S,A,A,H-A.png,S-A.png,hH,sS,mask-4.png,mask-4.png,h,1,0.36909530009143054,s,1,0.10027209995314479,0.047644800040870905,0.04767960007302463,0.09961899998597801,0.09970850008539855,0.7497853999957442
RSVPLG03,md,20251104-094439,1.0.1,20251020-085245,732,Experiment,Both,1,Automatic,main,54,20251104-094925,local,global,750,S,S,A,A,A-S.png,S-A.png,sS,sS,mask-3.png,mask-2.png,s,1,0.6858552999328822,h,0,0.060318199917674065,0.0475061999168247,0.04750950005836785,0.10059659997932613,0.09953149990178645,0.7520512999035418
RSVPLG03,md,20251104-094439,1.0.1,20251020-085245,732,Experiment,Both,1,Automatic,main,55,20251104-094930,global,local,300,S,S,E,E,S-E.png,E-S.png,sS,sS,mask-1.png,mask-2.png,s,1,0.6063959999009967,h,0,0.12511210003867745,0.04653440020047128,0.046576800057664514,0.09957429999485612,0.09883220004849136,0.29987180000171065
RSVPLG03,md,20251104-094439,1.0.1,20251020-085245,732,Experiment,Both,1,Automatic,main,56,20251104-094934,global,global,300,S,S,A,A,S-A.png,S-A.png,sS,sS,mask-2.png,mask-4.png,s,1,0.2540069001261145,s,1,0.07524210005067289,0.04758469993248582,0.04863420012407005,0.09858889994211495,0.10167880007065833,0.29888979997485876
RSVPLG03,md,20251104-094439,1.0.1,20251020-085245,732,Experiment,Both,1,Automatic,main,57,20251104-094938,local,global,300,H,S,A,E,A-H.png,S-E.png,hH,sS,mask-2.png,mask-1.png,h,1,0.382279499899596,h,0,0.0912354001775384,0.04751760000362992,0.047529099974781275,0.09953419980593026,0.10058779991231859,0.29981389991007745
RSVPLG03,md,20251104-094439,1.0.1,20251020-085245,732,Experiment,Both,1,Automatic,main,58,20251104-094942,local,global,750,H,H,E,A,E-H.png,H-A.png,hH,hH,mask-3.png,mask-2.png,h,1,0.5937512998934835,h,1,0.060831099981442094,0.046642300207167864,0.047540699830278754,0.09967190003953874,0.0995630999095738,0.7495453001465648
RSVPLG03,md,20251104-094439,1.0.1,20251020-085245,732,Experiment,Both,1,Automatic,main,59,20251104-094947,global,local,300,S,H,A,A,S-A.png,A-H.png,sS,hH,mask-1.png,mask-2.png,s,1,0.4941783999092877,s,0,0.43838579999282956,0.04668510006740689,0.0476730999071151,0.09952379995957017,0.10074349981732666,0.2992301001213491
RSVPLG03,md,20251104-094439,1.0.1,20251020-085245,732,Experiment,Both,1,Automatic,main,60,20251104-094952,global,global,300,S,H,A,A,S-A.png,H-A.png,sS,hH,mask-3.png,mask-3.png,s,1,0.7584740999154747,h,1,0.003289199899882078,0.047647399827837944,0.047567800153046846,0.10074659995734692,0.10062350006774068,0.300166699802503
RSVPLG03,md,20251104-094439,1.0.1,20251020-085245,732,Experiment,Both,1,Automatic,main,61,20251104-094956,local,local,750,H,H,A,A,A-H.png,A-H.png,hH,hH,mask-4.png,mask-4.png,h,1,0.4190062000416219,s,0,0.14034929987974465,0.047554099932312965,0.04753739992156625,0.09956769994460046,0.09857090003788471,0.7501981998793781
RSVPLG03,md,20251104-094439,1.0.1,20251020-085245,732,Experiment,Both,1,Automatic,main,62,20251104-095001,global,global,750,S,H,E,E,S-E.png,H-E.png,sS,hH,mask-2.png,mask-4.png,s,1,0.18107920000329614,h,1,0.05898380000144243,0.04753169999457896,0.04958490002900362,0.09957289998419583,0.10167110012844205,0.7478272998705506
RSVPLG03,md,20251104-094439,1.0.1,20251020-085245,732,Experiment,Both,1,Automatic,main,63,20251104-095005,local,local,750,S,H,E,A,E-S.png,A-H.png,sS,hH,mask-4.png,mask-1.png,s,1,0.36675320006906986,h,1,0.06965139997191727,0.04657869995571673,0.047594300005584955,0.09968529990874231,0.09966400009579957,0.7500290998723358
RSVPLG03,md,20251104-094439,1.0.1,20251020-085245,732,Experiment,Both,1,Automatic,main,64,20251104-095010,local,global,300,H,H,E,A,E-H.png,H-A.png,hH,hH,mask-4.png,mask-4.png,h,1,0.44745020009577274,h,1,0.07636790000833571,0.04761270014569163,0.04849600000306964,0.10162910004146397,0.10061619989573956,0.30074160010553896
RSVPLG03,md,20251104-094439,1.0.1,20251020-085245,732,Experiment,Both,1,Automatic,main,65,20251104-095014,global,global,300,H,S,E,A,H-E.png,S-A.png,hH,sS,mask-2.png,mask-2.png,h,1,0.6559476000256836,h,0,1.0261937000323087,0.04753239988349378,0.04756970005109906,0.0985621998552233,0.09851219994015992,0.2999936998821795
RSVPLG03,md,20251104-094439,1.0.1,20251020-085245,732,Experiment,Both,1,Automatic,main,66,20251104-095019,global,local,300,H,S,A,A,H-A.png,A-S.png,hH,sS,mask-4.png,mask-1.png,h,1,0.38434530002996325,s,1,0.20007309992797673,0.046745500061661005,0.04773490014486015,0.09999929997138679,0.0999696000944823,0.29966649995185435
RSVPLG03,md,20251104-094439,1.0.1,20251020-085245,732,Experiment,Both,1,Automatic,main,67,20251104-095023,global,global,300,H,S,E,A,H-E.png,S-A.png,hH,sS,mask-3.png,mask-3.png,h,1,0.4660067998338491,s,1,0.12384279980324209,0.047538100043311715,0.04751370009034872,0.09960360010154545,0.09780200012028217,0.2999249999411404
RSVPLG03,md,20251104-094439,1.0.1,20251020-085245,732,Experiment,Both,1,Automatic,main,68,20251104-095028,global,local,750,S,S,A,A,S-A.png,A-S.png,sS,sS,mask-3.png,mask-4.png,s,1,0.2872443001251668,s,1,1.032088000094518,0.04583009984344244,0.04754470009356737,0.10030079982243478,0.09986139996908605,0.7499309999402612
RSVPLG03,md,20251104-094439,1.0.1,20251020-085245,732,Experiment,Both,1,Automatic,main,69,20251104-095033,local,global,300,S,S,E,E,E-S.png,S-E.png,sS,sS,mask-3.png,mask-1.png,h,0,0.7137341999914497,s,1,0.03372049983590841,0.04850300005637109,0.04741440014913678,0.10035429988056421,0.10039740009233356,0.3003048999235034
RSVPLG03,md,20251104-094439,1.0.1,20251020-085245,732,Experiment,Both,1,Automatic,main,70,20251104-095037,global,global,300,H,H,E,E,H-E.png,H-E.png,hH,hH,mask-4.png,mask-1.png,h,1,0.5055180001072586,h,1,0.5677215000614524,0.04762159986421466,0.04753009998239577,0.09968929993920028,0.09848329983651638,0.30046369996853173
RSVPLG03,md,20251104-094439,1.0.1,20251020-085245,732,Experiment,Both,1,Automatic,main,71,20251104-095042,global,global,750,S,H,E,A,S-E.png,H-A.png,sS,hH,mask-3.png,mask-2.png,s,1,0.25508480006828904,h,1,0.09426219994202256,0.04753129999153316,0.047521800035610795,0.10167520004324615,0.09860639995895326,0.7514599000569433
RSVPLG03,md,20251104-094439,1.0.1,20251020-085245,732,Experiment,Both,1,Automatic,main,72,20251104-095047,global,global,300,S,H,E,A,S-E.png,H-A.png,sS,hH,mask-4.png,mask-2.png,s,1,0.3796518000308424,h,1,0.07713139988481998,0.04711319995112717,0.04784290003590286,0.09817019989714026,0.0980752999894321,0.2994677999522537
RSVPLG03,md,20251104-094439,1.0.1,20251020-085245,732,Experiment,Both,1,Automatic,main,73,20251104-095051,global,local,750,S,S,E,E,S-E.png,E-S.png,sS,sS,mask-2.png,mask-4.png,s,1,0.7673790999688208,s,1,0.0546256999950856,0.04751079995185137,0.047535100020468235,0.10011809994466603,0.10058280010707676,0.7508288999088109
RSVPLG03,md,20251104-094439,1.0.1,20251020-085245,732,Experiment,Both,1,Automatic,main,74,20251104-095056,local,global,750,H,S,E,A,E-H.png,S-A.png,hH,sS,mask-2.png,mask-2.png,h,1,1.1422398001886904,s,1,0.23967289994470775,0.047598900040611625,0.047533700009807944,0.10161689994856715,0.09954990004189312,0.7505264000501484
RSVPLG03,md,20251104-094439,1.0.1,20251020-085245,732,Experiment,Both,1,Automatic,main,75,20251104-095101,global,global,750,S,S,A,E,S-A.png,S-E.png,sS,sS,mask-4.png,mask-2.png,s,1,0.34670679992996156,s,1,0.0724212999921292,0.04847619985230267,0.04758640006184578,0.09911339986138046,0.10064300009980798,0.7509047999046743
