exp,exp_initials,runtime,ver,modtime,sub,blocktype,targets,cuetype,mode,trialtype,trial,trialtime,t1_level,t2_level,t2_lag,t1,t2,distractor1,distractor2,stimfile1,stimfile2,t1_corr,t2_corr,maskfile1,maskfile2,t1_resp,t1_acc,t1_rt,t2_resp,t2_acc,t2_rt,t1_dur,t2_dur,t1mask_soa,t2mask_soa,t1t2_soa
RSVPLG03,JM,20251027-120843,1.0.1,20251020-085245,717,Introduction,T1,1,Automatic,main,1,20251027-120949,global,global,750,H,S,E,A,H-E.png,S-A.png,hH,sS,mask-2.png,mask-2.png,h,1,4.39759160001995,none,-5,0,0.09037939994595945,0.09756480000214651,0.19185669999569654,0.20138520002365112,0.7428318999591284
RSVPLG03,JM,20251027-120843,1.0.1,20251020-085245,717,Introduction,T1,1,Automatic,main,2,20251027-120958,global,local,750,S,H,A,E,S-A.png,E-H.png,sS,hH,mask-2.png,mask-2.png,s,1,1.4812533999793231,none,-5,0,0.09921030001714826,0.09643520001554862,0.2001204999978654,0.19923370005562901,0.752865299989935
RSVPLG03,JM,20251027-120843,1.0.1,20251020-085245,717,Introduction,T1,1,Automatic,main,3,20251027-121003,global,global,750,H,H,A,E,H-A.png,H-E.png,hH,hH,mask-3.png,mask-2.png,h,1,0.9905727000441402,none,-5,0,0.09627979999640957,0.09856140002375469,0.20138440001755953,0.20061910001095384,0.7507163999835029
RSVPLG03,JM,20251027-120843,1.0.1,20251020-085245,717,Introduction,T1,1,Automatic,main,4,20251027-121009,local,global,750,H,H,E,E,E-H.png,H-E.png,hH,hH,mask-1.png,mask-4.png,h,1,1.615601500030607,none,-5,0,0.09656979999272153,0.09865110000828281,0.19986910000443459,0.2019475999986753,0.749240999983158
RSVPLG03,JM,20251027-120843,1.0.1,20251020-085245,717,Introduction,T1,1,Automatic,main,5,20251027-121014,global,local,750,S,S,E,A,S-E.png,A-S.png,sS,sS,mask-3.png,mask-4.png,s,1,0.7642321999883279,none,-5,0,0.09672470000805333,0.09777930000564083,0.19905039999866858,0.1999358999892138,0.7505463000270538
RSVPLG03,JM,20251027-120843,1.0.1,20251020-085245,717,Introduction,T1,1,Automatic,main,6,20251027-121019,local,global,750,H,H,A,E,A-H.png,H-E.png,hH,hH,mask-4.png,mask-1.png,h,1,1.208925699989777,none,-5,0,0.09746620000805706,0.09657190000871196,0.20129460003226995,0.1999311000108719,0.7520392999867909
RSVPLG03,JM,20251027-120843,1.0.1,20251020-085245,717,Introduction,T1,1,Automatic,main,7,20251027-121025,global,global,750,H,H,A,A,H-A.png,H-A.png,hH,hH,mask-4.png,mask-3.png,h,1,0.8741130999987945,none,-5,0,0.09853050002129748,0.09705129999201745,0.2013503999914974,0.1988565999781713,0.7525369999930263
RSVPLG03,JM,20251027-120843,1.0.1,20251020-085245,717,Introduction,T1,1,Automatic,main,8,20251027-121030,local,local,750,S,H,E,E,E-S.png,E-H.png,sS,hH,mask-2.png,mask-2.png,s,1,1.1539038000046276,none,-5,0,0.09706460003508255,0.09884539997437969,0.20011899998644367,0.20057769998675212,0.7495384000358172
RSVPLG03,JM,20251027-120843,1.0.1,20251020-085245,717,Introduction,T1,1,Automatic,main,9,20251027-121035,local,local,750,H,S,E,A,E-H.png,A-S.png,hH,sS,mask-1.png,mask-2.png,s,0,1.0316561000072397,none,-5,0,0.09903670003404841,0.09813810000196099,0.20114229997852817,0.20111690001795068,0.7518129000090994
RSVPLG03,JM,20251027-120843,1.0.1,20251020-085245,717,Introduction,T1,1,Automatic,main,10,20251027-121040,global,local,750,S,S,E,A,S-E.png,A-S.png,sS,sS,mask-1.png,mask-1.png,s,1,2.6520612000022084,none,-5,0,0.09745539998402819,0.09735400002682582,0.20070789998862892,0.20028310001362115,0.7519279000116512
RSVPLG03,JM,20251027-120843,1.0.1,20251020-085245,717,Introduction,T1,1,Automatic,main,11,20251027-121047,local,global,750,S,H,A,A,A-S.png,H-A.png,sS,hH,mask-2.png,mask-3.png,h,0,2.2688448000117205,none,-5,0,0.09652670001378283,0.0972438000026159,0.1986715000239201,0.20008590002544224,0.7496502000140026
RSVPLG03,JM,20251027-120843,1.0.1,20251020-085245,717,Introduction,T1,1,Automatic,main,12,20251027-121053,local,local,750,H,H,A,A,A-H.png,A-H.png,hH,hH,mask-2.png,mask-1.png,h,1,1.1868100000428967,none,-5,0,0.09849360003136098,0.09822230000281706,0.20176429999992251,0.2000292000011541,0.7513583000400104
RSVPLG03,JM,20251027-120843,1.0.1,20251020-085245,717,Introduction,T1,1,Automatic,main,13,20251027-121059,global,local,750,S,H,E,A,S-E.png,A-H.png,sS,hH,mask-2.png,mask-4.png,s,1,0.4633106999681331,none,-5,0,0.0996403000317514,0.09857570001622662,0.20201720000477508,0.2006260000052862,0.7515973999979906
RSVPLG03,JM,20251027-120843,1.0.1,20251020-085245,717,Introduction,T1,1,Automatic,main,14,20251027-121103,global,global,750,H,H,E,E,H-E.png,H-E.png,hH,hH,mask-3.png,mask-2.png,h,1,0.35271210002247244,none,-5,0,0.098464899987448,0.09754380001686513,0.2003528000204824,0.20159569999668747,0.7509263000101782
RSVPLG03,JM,20251027-120843,1.0.1,20251020-085245,717,Introduction,T1,1,Automatic,main,15,20251027-121108,local,global,750,S,S,E,E,E-S.png,S-E.png,sS,sS,mask-3.png,mask-1.png,s,1,1.090239199984353,none,-5,0,0.09716599999228492,0.09777570003643632,0.19984600000316277,0.19966879999265075,0.7521001999848522
RSVPLG03,JM,20251027-120843,1.0.1,20251020-085245,717,Introduction,T1,1,Automatic,main,16,20251027-121113,local,local,750,S,S,E,A,E-S.png,A-S.png,sS,sS,mask-4.png,mask-3.png,s,1,0.5009199000196531,none,-5,0,0.09884720004629344,0.09922570001799613,0.2004570999997668,0.20139589998871088,0.7503240000223741
RSVPLG03,JM,20251027-121130,1.0.1,20251020-085245,717,Practice,T1,1,Automatic,main,1,20251027-121153,global,local,750,H,H,A,E,H-A.png,E-H.png,hH,hH,mask-4.png,mask-3.png,h,1,1.1537601000163704,none,-5,0,0.040715400013141334,0.04759660002309829,0.09262459998717532,0.09961739997379482,0.7442606000113301
RSVPLG03,JM,20251027-121130,1.0.1,20251020-085245,717,Practice,T1,1,Automatic,main,2,20251027-121158,local,global,300,S,H,A,A,A-S.png,H-A.png,sS,hH,mask-1.png,mask-4.png,h,0,1.2709254000219516,none,-5,0,0.04763759998604655,0.04677689995151013,0.10082519997376949,0.09897669998463243,0.3009506000089459
RSVPLG03,JM,20251027-121130,1.0.1,20251020-085245,717,Practice,T1,1,Automatic,main,3,20251027-121203,local,local,750,H,S,E,A,E-H.png,A-S.png,hH,sS,mask-4.png,mask-4.png,h,1,1.172197400010191,none,-5,0,0.0473033000016585,0.04652520001400262,0.10003799997502938,0.09985990001587197,0.7517921999678947
RSVPLG03,JM,20251027-121130,1.0.1,20251020-085245,717,Practice,T1,1,Automatic,main,4,20251027-121208,global,local,750,H,S,E,E,H-E.png,E-S.png,hH,sS,mask-2.png,mask-2.png,s,0,0.9016586999641731,none,-5,0,0.04781000001821667,0.046133499999996275,0.10008760000346228,0.09983449999708682,0.7522228000452742
RSVPLG03,JM,20251027-121130,1.0.1,20251020-085245,717,Practice,T1,1,Automatic,main,5,20251027-121213,global,global,750,S,S,A,E,S-A.png,S-E.png,sS,sS,mask-1.png,mask-1.png,h,0,1.0816009999834932,none,-5,0,0.048019500041846186,0.047637699986808,0.10013010003603995,0.10173320001922548,0.7506747000152245
RSVPLG03,JM,20251027-121130,1.0.1,20251020-085245,717,Practice,T1,1,Automatic,main,6,20251027-121218,global,global,300,S,H,E,E,S-E.png,H-E.png,sS,hH,mask-2.png,mask-4.png,s,1,0.5534397999872454,none,-5,0,0.047517199942376465,0.04676380002638325,0.09956499998224899,0.1008564000367187,0.3008365999558009
RSVPLG03,JM,20251027-121130,1.0.1,20251020-085245,717,Practice,T1,1,Automatic,main,7,20251027-121222,local,local,300,S,S,A,E,A-S.png,E-S.png,sS,sS,mask-3.png,mask-4.png,s,1,0.7023539000074379,none,-5,0,0.04762609995668754,0.04838160000508651,0.10070129996165633,0.1011655000038445,0.30031489999964833
RSVPLG03,JM,20251027-121130,1.0.1,20251020-085245,717,Practice,T1,1,Automatic,main,8,20251027-121227,global,global,300,H,H,A,A,H-A.png,H-A.png,hH,hH,mask-2.png,mask-4.png,h,1,0.3920439000357874,none,-5,0,0.04571219999343157,0.046725899970624596,0.0989127000211738,0.09993039997061715,0.299485600029584
RSVPLG03,JM,20251027-121130,1.0.1,20251020-085245,717,Practice,T1,1,Automatic,main,9,20251027-121231,local,global,300,H,S,A,E,A-H.png,S-E.png,hH,sS,mask-3.png,mask-4.png,h,1,0.4008625000133179,none,-5,0,0.04869329999201,0.04778369999257848,0.10017369996057823,0.09983969997847453,0.3007492999895476
RSVPLG03,JM,20251027-121130,1.0.1,20251020-085245,717,Practice,T1,1,Automatic,main,10,20251027-121235,local,global,750,S,H,A,A,A-S.png,H-A.png,sS,hH,mask-2.png,mask-3.png,h,0,0.6460029000299983,none,-5,0,0.047718599962536246,0.048044499999377877,0.09994719998212531,0.10004089999711141,0.7518947999924421
RSVPLG03,JM,20251027-121130,1.0.1,20251020-085245,717,Practice,T1,1,Automatic,main,11,20251027-121239,local,local,300,H,S,A,A,A-H.png,A-S.png,hH,sS,mask-4.png,mask-2.png,h,1,0.6055870999698527,none,-5,0,0.04684050002833828,0.04742910002823919,0.09989000001223758,0.10074249998433515,0.30076810001628473
RSVPLG03,JM,20251027-121130,1.0.1,20251020-085245,717,Practice,T1,1,Automatic,main,12,20251027-121243,local,local,750,H,S,A,A,A-H.png,A-S.png,hH,sS,mask-2.png,mask-4.png,s,0,0.41796099999919534,none,-5,0,0.047621000034268945,0.046712899988051504,0.09996040002442896,0.10108509997371584,0.7509597000316717
RSVPLG03,JM,20251027-121130,1.0.1,20251020-085245,717,Practice,T1,1,Automatic,main,13,20251027-121248,global,local,300,H,H,A,A,H-A.png,A-H.png,hH,hH,mask-2.png,mask-1.png,h,1,0.4176547999959439,none,-5,0,0.047538200044073164,0.046746700012590736,0.09939590003341436,0.098820400016848,0.30069810000713915
RSVPLG03,JM,20251027-121130,1.0.1,20251020-085245,717,Practice,T1,1,Automatic,main,14,20251027-121252,global,local,300,H,H,A,E,H-A.png,E-H.png,hH,hH,mask-1.png,mask-2.png,h,1,0.5726592999999411,none,-5,0,0.048680500010959804,0.04768560000229627,0.10015640000347048,0.10073239996563643,0.30090760003076866
RSVPLG03,JM,20251027-121130,1.0.1,20251020-085245,717,Practice,T1,1,Automatic,main,15,20251027-121256,global,global,750,H,S,E,A,H-E.png,S-A.png,hH,sS,mask-3.png,mask-2.png,s,0,0.38242019998142496,none,-5,0,0.04595439997501671,0.047259400016628206,0.09990859997924417,0.09978889999911189,0.750298600003589
RSVPLG03,JM,20251027-121130,1.0.1,20251020-085245,717,Practice,T1,1,Automatic,main,16,20251027-121300,local,global,750,H,S,E,A,E-H.png,S-A.png,hH,sS,mask-1.png,mask-1.png,s,0,0.3441134999739006,none,-5,0,0.04634149995399639,0.04657219996443018,0.10034629999427125,0.09936069999821484,0.7509380999836139
RSVPLG03,JM,20251027-121336,1.0.1,20251020-085245,717,Practice,T1,1,Automatic,main,1,20251027-121415,local,global,750,H,S,A,A,A-H.png,S-A.png,hH,sS,mask-4.png,mask-4.png,s,0,0.7805785000091419,none,-5,0,0.04194450000068173,0.04959800001233816,0.09591119998367503,0.10158339998451993,0.7435284000239335
RSVPLG03,JM,20251027-121336,1.0.1,20251020-085245,717,Practice,T1,1,Automatic,main,2,20251027-121420,global,local,300,S,S,A,A,S-A.png,A-S.png,sS,sS,mask-1.png,mask-2.png,s,1,1.3809669999754988,none,-5,0,0.047794199956115335,0.04674280004110187,0.09998780000023544,0.10036949999630451,0.3006154999602586
RSVPLG03,JM,20251027-121336,1.0.1,20251020-085245,717,Practice,T1,1,Automatic,main,3,20251027-121425,local,global,750,S,S,A,A,A-S.png,S-A.png,sS,sS,mask-4.png,mask-4.png,s,1,0.4803317000041716,none,-5,0,0.04660699999658391,0.047720099973957986,0.09963960002642125,0.1002153999870643,0.7487972000380978
RSVPLG03,JM,20251027-121336,1.0.1,20251020-085245,717,Practice,T1,1,Automatic,main,4,20251027-121429,local,global,300,S,H,A,E,A-S.png,H-E.png,sS,hH,mask-1.png,mask-1.png,h,0,0.8264504999970086,none,-5,0,0.04574150004191324,0.04675610002595931,0.0989943000022322,0.09902249998413026,0.29940660001011565
RSVPLG03,JM,20251027-121336,1.0.1,20251020-085245,717,Practice,T1,1,Automatic,main,5,20251027-121434,global,local,750,H,S,E,E,H-E.png,E-S.png,hH,sS,mask-2.png,mask-2.png,h,1,0.7529574999934994,none,-5,0,0.04643200000282377,0.047389799961820245,0.09952809999231249,0.09972890000790358,0.7496253999997862
RSVPLG03,JM,20251027-121336,1.0.1,20251020-085245,717,Practice,T1,1,Automatic,main,6,20251027-121438,local,global,300,H,H,A,A,A-H.png,H-A.png,hH,hH,mask-3.png,mask-3.png,h,1,0.9323870000080206,none,-5,0,0.04592359997332096,0.048689299961552024,0.09817349998047575,0.099911900004372,0.29836020001675934
RSVPLG03,JM,20251027-121336,1.0.1,20251020-085245,717,Practice,T1,1,Automatic,main,7,20251027-121443,local,local,300,H,H,A,A,A-H.png,A-H.png,hH,hH,mask-4.png,mask-1.png,h,1,0.6417644000030123,none,-5,0,0.04867649998050183,0.04756999999517575,0.10119820002000779,0.0997703000321053,0.2997865999932401
RSVPLG03,JM,20251027-121336,1.0.1,20251020-085245,717,Practice,T1,1,Automatic,main,8,20251027-121447,global,local,750,H,H,E,E,H-E.png,E-H.png,hH,hH,mask-1.png,mask-4.png,h,1,0.8240081000258215,none,-5,0,0.04750139999669045,0.047339499986264855,0.10051540000131354,0.09986679995199665,0.7500755999935791
RSVPLG03,JM,20251027-121336,1.0.1,20251020-085245,717,Practice,T1,1,Automatic,main,9,20251027-121452,global,global,750,H,S,A,A,H-A.png,S-A.png,hH,sS,mask-3.png,mask-2.png,s,0,0.8358775000087917,none,-5,0,0.04760300001362339,0.047496700019109994,0.1000243000453338,0.10158810002030805,0.7498407000093721
RSVPLG03,JM,20251027-121336,1.0.1,20251020-085245,717,Practice,T1,1,Automatic,main,10,20251027-121457,local,local,750,S,H,E,A,E-S.png,A-H.png,sS,hH,mask-1.png,mask-2.png,h,0,1.2911317000398412,none,-5,0,0.046376599988434464,0.0481535000144504,0.09846319997450337,0.10134310001740232,0.748480100010056
RSVPLG03,JM,20251027-121336,1.0.1,20251020-085245,717,Practice,T1,1,Automatic,main,11,20251027-121502,global,global,750,H,S,A,E,H-A.png,S-E.png,hH,sS,mask-2.png,mask-3.png,s,0,1.3072221000329591,none,-5,0,0.048388399998657405,0.048489100008737296,0.1008053999976255,0.1007192000397481,0.7497614999883808
RSVPLG03,JM,20251027-121336,1.0.1,20251020-085245,717,Practice,T1,1,Automatic,main,12,20251027-121506,global,global,300,H,H,E,E,H-E.png,H-E.png,hH,hH,mask-3.png,mask-1.png,h,1,1.0455432999879122,none,-5,0,0.047574799973517656,0.047417900001164526,0.09920559998136014,0.10080879996530712,0.298921599984169
RSVPLG03,JM,20251027-121336,1.0.1,20251020-085245,717,Practice,T1,1,Automatic,main,13,20251027-121511,global,local,300,H,H,E,E,H-E.png,E-H.png,hH,hH,mask-1.png,mask-3.png,h,1,0.4261609999812208,none,-5,0,0.048704300017561764,0.0474779000505805,0.10088919999543577,0.10080880002351478,0.2996176999877207
RSVPLG03,JM,20251027-121336,1.0.1,20251020-085245,717,Practice,T1,1,Automatic,main,14,20251027-121515,local,local,300,H,H,A,A,A-H.png,A-H.png,hH,hH,mask-2.png,mask-3.png,s,0,0.35382110002683476,none,-5,0,0.047721899987664074,0.04707200004486367,0.10082619998138398,0.09929040004499257,0.29992649995256215
RSVPLG03,JM,20251027-121336,1.0.1,20251020-085245,717,Practice,T1,1,Automatic,main,15,20251027-121520,global,global,300,H,S,E,A,H-E.png,S-A.png,hH,sS,mask-2.png,mask-2.png,h,1,0.5851438999525271,none,-5,0,0.04811929998686537,0.048698000027798116,0.10137519997078925,0.09999850002350286,0.30085429997416213
RSVPLG03,JM,20251027-121336,1.0.1,20251020-085245,717,Practice,T1,1,Automatic,main,16,20251027-121524,local,local,750,S,S,E,A,E-S.png,A-S.png,sS,sS,mask-3.png,mask-3.png,s,1,1.0935561999795027,none,-5,0,0.04756939999060705,0.04760230000829324,0.09958919999189675,0.09962749999249354,0.7491970999981277
RSVPLG03,JM,20251027-121552,1.0.1,20251020-085245,717,Practice,T1,1,Automatic,main,1,20251027-121618,global,global,750,S,S,E,E,S-E.png,S-E.png,sS,sS,mask-4.png,mask-2.png,s,1,0.9951378999976441,none,-5,0,0.041935899993404746,0.04891199996927753,0.09492010000394657,0.1000425000092946,0.7445737000089139
RSVPLG03,JM,20251027-121552,1.0.1,20251020-085245,717,Practice,T1,1,Automatic,main,2,20251027-121624,global,local,750,H,H,E,E,H-E.png,E-H.png,hH,hH,mask-2.png,mask-2.png,h,1,0.39878889999818057,none,-5,0,0.04751379997469485,0.04767500003799796,0.10168079996947199,0.09893219999503344,0.7517633999814279
RSVPLG03,JM,20251027-121552,1.0.1,20251020-085245,717,Practice,T1,1,Automatic,main,3,20251027-121628,local,global,300,H,S,A,E,A-H.png,S-E.png,hH,sS,mask-3.png,mask-4.png,s,0,3.443734700034838,none,-5,0,0.04748730000574142,0.047723399999085814,0.09952130005694926,0.09920559998136014,0.299930100038182
RSVPLG03,JM,20251027-121552,1.0.1,20251020-085245,717,Practice,T1,1,Automatic,main,4,20251027-121635,global,global,300,H,H,E,E,H-E.png,H-E.png,hH,hH,mask-1.png,mask-4.png,h,1,0.3205557999899611,none,-5,0,0.04644499998539686,0.047533700009807944,0.09905259998049587,0.10072679998120293,0.3002340999664739
RSVPLG03,JM,20251027-121552,1.0.1,20251020-085245,717,Practice,T1,1,Automatic,main,5,20251027-121639,global,local,300,S,S,A,E,S-A.png,E-S.png,sS,sS,mask-2.png,mask-2.png,s,1,0.4550759000121616,none,-5,0,0.04918650002218783,0.04751229996327311,0.10121950000757352,0.09857239999109879,0.30168070003855973
RSVPLG03,JM,20251027-121552,1.0.1,20251020-085245,717,Practice,T1,1,Automatic,main,6,20251027-121643,local,global,750,S,H,A,E,A-S.png,H-E.png,sS,hH,mask-3.png,mask-1.png,h,0,0.4454124000039883,none,-5,0,0.04695640003774315,0.04757920000702143,0.09904230001848191,0.09894450003048405,0.750228299992159
RSVPLG03,JM,20251027-121552,1.0.1,20251020-085245,717,Practice,T1,1,Automatic,main,7,20251027-121647,global,local,750,S,S,E,E,S-E.png,E-S.png,sS,sS,mask-1.png,mask-1.png,s,1,0.2132768000010401,none,-5,0,0.04832560004433617,0.04750119999516755,0.09927790000801906,0.09876300004543737,0.7508030000026338
RSVPLG03,JM,20251027-121552,1.0.1,20251020-085245,717,Practice,T1,1,Automatic,main,8,20251027-121652,local,local,750,S,H,A,E,A-S.png,E-H.png,sS,hH,mask-3.png,mask-4.png,h,0,0.3666559999692254,none,-5,0,0.04693319997750223,0.04741539998212829,0.09921999997459352,0.09965350001584738,0.7498694999958389
RSVPLG03,JM,20251027-121552,1.0.1,20251020-085245,717,Practice,T1,1,Automatic,main,9,20251027-121656,local,global,300,H,S,E,E,E-H.png,S-E.png,hH,sS,mask-3.png,mask-2.png,s,0,0.7144389000022784,none,-5,0,0.04668820003280416,0.046031300036702305,0.09988799999700859,0.09915770002407953,0.30044510000152513
RSVPLG03,JM,20251027-121552,1.0.1,20251020-085245,717,Practice,T1,1,Automatic,main,10,20251027-121700,global,global,750,H,H,E,A,H-E.png,H-A.png,hH,hH,mask-3.png,mask-2.png,h,1,0.39738719997694716,none,-5,0,0.04802190000191331,0.04790150001645088,0.10021850001066923,0.10053599998354912,0.7507229000329971
RSVPLG03,JM,20251027-121552,1.0.1,20251020-085245,717,Practice,T1,1,Automatic,main,11,20251027-121705,local,local,750,S,H,A,E,A-S.png,E-H.png,sS,hH,mask-3.png,mask-2.png,h,0,0.5857537999982014,none,-5,0,0.04773869999917224,0.04762789997039363,0.09977599995909259,0.10088859999086708,0.7499992999946699
RSVPLG03,JM,20251027-121552,1.0.1,20251020-085245,717,Practice,T1,1,Automatic,main,12,20251027-121709,local,local,300,S,S,A,A,A-S.png,A-S.png,sS,sS,mask-1.png,mask-2.png,h,0,0.3520713000325486,none,-5,0,0.047529100032988936,0.04767090000677854,0.10079410002799705,0.10081410000566393,0.2997318999841809
RSVPLG03,JM,20251027-121552,1.0.1,20251020-085245,717,Practice,T1,1,Automatic,main,13,20251027-121713,local,global,750,H,S,E,E,E-H.png,S-E.png,hH,sS,mask-1.png,mask-4.png,s,0,0.40940919995773584,none,-5,0,0.04695360001642257,0.047629899985622615,0.09969080000882968,0.09981679997872561,0.7504896000027657
RSVPLG03,JM,20251027-121552,1.0.1,20251020-085245,717,Practice,T1,1,Automatic,main,14,20251027-121718,local,local,300,H,H,A,E,A-H.png,E-H.png,hH,hH,mask-2.png,mask-4.png,s,0,0.5178430000087246,none,-5,0,0.04754930001217872,0.0476123999687843,0.1014067999785766,0.10013099998468533,0.3010569000034593
RSVPLG03,JM,20251027-121552,1.0.1,20251020-085245,717,Practice,T1,1,Automatic,main,15,20251027-121722,global,local,300,H,H,A,A,H-A.png,A-H.png,hH,hH,mask-4.png,mask-1.png,h,1,0.3768388000316918,none,-5,0,0.04870889999438077,0.04874340002425015,0.10194700001738966,0.10099960002116859,0.300764599989634
RSVPLG03,JM,20251027-121552,1.0.1,20251020-085245,717,Practice,T1,1,Automatic,main,16,20251027-121726,global,global,300,H,H,A,A,H-A.png,H-A.png,hH,hH,mask-2.png,mask-1.png,h,1,0.3514648000127636,none,-5,0,0.04739799996605143,0.04751780000515282,0.09952839999459684,0.10154880001209676,0.29876959999091923
RSVPLG03,JM,20251027-121822,1.0.1,20251020-085245,717,Practice,Both,1,Automatic,main,1,20251027-121851,local,local,300,H,S,A,A,A-H.png,A-S.png,hH,sS,mask-4.png,mask-1.png,h,1,1.4371867000008933,s,1,13.590387800009921,0.041953900014050305,0.04753679997520521,0.0967164000030607,0.09952549997251481,0.296513200039044
RSVPLG03,JM,20251027-121822,1.0.1,20251020-085245,717,Practice,Both,1,Automatic,main,2,20251027-121910,global,global,300,H,S,E,E,H-E.png,S-E.png,hH,sS,mask-3.png,mask-2.png,h,1,1.37254169996595,s,1,0.26905050000641495,0.04550900001777336,0.04567060002591461,0.09851969999726862,0.09807470004307106,0.299748899997212
RSVPLG03,JM,20251027-121822,1.0.1,20251020-085245,717,Practice,Both,1,Automatic,main,3,20251027-121915,local,global,300,S,S,A,A,A-S.png,S-A.png,sS,sS,mask-2.png,mask-2.png,s,1,1.0211854000226595,h,0,0.03767019999213517,0.047677099995780736,0.04867089999606833,0.10097440000390634,0.10084860003553331,0.2996326999855228
RSVPLG03,JM,20251027-121822,1.0.1,20251020-085245,717,Practice,Both,1,Automatic,main,4,20251027-121920,local,global,750,S,H,A,E,A-S.png,H-E.png,sS,hH,mask-4.png,mask-3.png,s,1,0.7766089999931864,h,1,0.8922524999943562,0.0475577000179328,0.045940999989397824,0.09958630002802238,0.09914090001257136,0.7490689000114799
RSVPLG03,JM,20251027-121822,1.0.1,20251020-085245,717,Practice,Both,1,Automatic,main,5,20251027-121926,local,global,750,S,S,A,E,A-S.png,S-E.png,sS,sS,mask-3.png,mask-1.png,h,0,0.5629909000126645,s,1,0.2680484000011347,0.04751950001809746,0.04726459999801591,0.09973549999995157,0.09994129999540746,0.748814599995967
RSVPLG03,JM,20251027-121822,1.0.1,20251020-085245,717,Practice,Both,1,Automatic,main,6,20251027-121931,global,local,300,H,H,E,E,H-E.png,E-H.png,hH,hH,mask-2.png,mask-2.png,h,1,0.5561569000128657,h,1,0.06920470000477508,0.04860580002423376,0.04756859998451546,0.10000169998966157,0.10025079996557906,0.3001484000124037
RSVPLG03,JM,20251027-121822,1.0.1,20251020-085245,717,Practice,Both,1,Automatic,main,7,20251027-121935,global,local,750,H,H,E,A,H-E.png,A-H.png,hH,hH,mask-2.png,mask-1.png,h,1,0.4522990999976173,s,0,0.08703860000241548,0.04768260003766045,0.047342500009108335,0.0998752000159584,0.09955540002556518,0.750276800012216
RSVPLG03,JM,20251027-121822,1.0.1,20251020-085245,717,Practice,Both,1,Automatic,main,8,20251027-121940,global,global,300,H,S,A,A,H-A.png,S-A.png,hH,sS,mask-1.png,mask-3.png,s,0,1.171542700030841,s,1,0.62163219996728,0.04750280000735074,0.047507000039331615,0.1005013000103645,0.10150910000083968,0.29850360000273213
RSVPLG03,JM,20251027-121822,1.0.1,20251020-085245,717,Practice,Both,1,Automatic,main,9,20251027-121945,local,local,300,H,S,A,A,A-H.png,A-S.png,hH,sS,mask-3.png,mask-3.png,h,1,0.5255979999783449,h,0,0.6055462000076659,0.04833170003257692,0.04768379998859018,0.10035770002286881,0.10150350001640618,0.29953760001808405
RSVPLG03,JM,20251027-121822,1.0.1,20251020-085245,717,Practice,Both,1,Automatic,main,10,20251027-121950,local,local,750,S,S,E,E,E-S.png,E-S.png,sS,sS,mask-4.png,mask-1.png,s,1,0.3170445999712683,s,1,0.08336950000375509,0.04734119999920949,0.04867220000596717,0.10022299998672679,0.0998949000495486,0.7496683999779634
RSVPLG03,JM,20251027-121822,1.0.1,20251020-085245,717,Practice,Both,1,Automatic,main,11,20251027-121955,global,local,300,S,H,E,A,S-E.png,A-H.png,sS,hH,mask-1.png,mask-1.png,s,1,0.45571740000741556,h,1,0.10179849999258295,0.047344100021291524,0.047351500019431114,0.09999820002121851,0.10017119999974966,0.299086700018961
RSVPLG03,JM,20251027-121822,1.0.1,20251020-085245,717,Practice,Both,1,Automatic,main,12,20251027-121959,local,local,750,S,S,A,E,A-S.png,E-S.png,sS,sS,mask-2.png,mask-2.png,s,1,0.42332560004433617,s,1,0.15362150000873953,0.047668499988503754,0.047661099990364164,0.09987040003761649,0.09986600000411272,0.7492897000047378
RSVPLG03,JM,20251027-121822,1.0.1,20251020-085245,717,Practice,Both,1,Automatic,main,13,20251027-122004,global,global,750,H,H,E,A,H-E.png,H-A.png,hH,hH,mask-3.png,mask-2.png,h,1,0.5595789999933913,h,1,0.08761849999427795,0.04755780001869425,0.04632080002920702,0.0995402000262402,0.09929530002409592,0.750229199999012
RSVPLG03,JM,20251027-121822,1.0.1,20251020-085245,717,Practice,Both,1,Automatic,main,14,20251027-122009,global,local,750,S,S,E,E,S-E.png,E-S.png,sS,sS,mask-2.png,mask-4.png,s,1,0.28798309998819605,s,1,0.14146100002108142,0.0476321000023745,0.0475441999733448,0.1001350000151433,0.09870249999221414,0.7510390999959782
RSVPLG03,JM,20251027-121822,1.0.1,20251020-085245,717,Practice,Both,1,Automatic,main,15,20251027-122013,local,global,300,H,S,E,E,E-H.png,S-E.png,hH,sS,mask-3.png,mask-1.png,s,0,0.7167164999991655,h,0,0.10736610001185909,0.04747819999465719,0.045868400018662214,0.10061989998212084,0.10019150003790855,0.30098849994828925
RSVPLG03,JM,20251027-121822,1.0.1,20251020-085245,717,Practice,Both,1,Automatic,main,16,20251027-122018,global,global,750,S,H,A,E,S-A.png,H-E.png,sS,hH,mask-2.png,mask-1.png,s,1,0.8800981999957003,h,1,0.12302880000788718,0.049047700013034046,0.047899299999699,0.09960309998132288,0.1001611000392586,0.7484296999755315
RSVPLG03,JM,20251027-122105,1.0.1,20251020-085245,717,Practice,Both,1,Automatic,main,1,20251027-122123,global,local,300,S,H,A,E,S-A.png,E-H.png,sS,hH,mask-1.png,mask-3.png,s,1,1.2939546999987215,h,1,0.3278796999948099,0.04099929996300489,0.04767390002962202,0.0932844000053592,0.1018787000211887,0.29284179996466264
RSVPLG03,JM,20251027-122105,1.0.1,20251020-085245,717,Practice,Both,1,Automatic,main,2,20251027-122129,local,global,750,S,H,A,A,A-S.png,H-A.png,sS,hH,mask-1.png,mask-2.png,h,0,1.4067554000066593,h,1,0.20407239999622107,0.046520099975168705,0.047530700045172125,0.09969539998564869,0.10069300001487136,0.7489807999809273
RSVPLG03,JM,20251027-122105,1.0.1,20251020-085245,717,Practice,Both,1,Automatic,main,3,20251027-122135,global,global,300,S,S,A,A,S-A.png,S-A.png,sS,sS,mask-3.png,mask-4.png,s,1,0.39392230001976714,s,1,0.11212999996496364,0.04829279996920377,0.04747369996039197,0.10005629999795929,0.10031289997277781,0.3001698000007309
RSVPLG03,JM,20251027-122105,1.0.1,20251020-085245,717,Practice,Both,1,Automatic,main,4,20251027-122139,local,local,750,H,H,A,E,A-H.png,E-H.png,hH,hH,mask-1.png,mask-2.png,h,1,0.5832625000039116,s,0,0.09799689997453243,0.04804670001612976,0.047517200000584126,0.10016580001683906,0.10057110001798719,0.750232300022617
RSVPLG03,JM,20251027-122105,1.0.1,20251020-085245,717,Practice,Both,1,Automatic,main,5,20251027-122144,local,local,300,S,H,E,A,E-S.png,A-H.png,sS,hH,mask-3.png,mask-1.png,s,1,1.0798723999760114,s,0,0.2043765999842435,0.04537070001242682,0.04655550001189113,0.09875930001726374,0.0995837000082247,0.29868820001138374
RSVPLG03,JM,20251027-122105,1.0.1,20251020-085245,717,Practice,Both,1,Automatic,main,6,20251027-122149,global,global,750,S,S,E,A,S-E.png,S-A.png,sS,sS,mask-1.png,mask-4.png,s,1,0.6836901000351645,s,1,0.10918450000463054,0.04756059998180717,0.04659350001020357,0.09981600003084168,0.09963419998530298,0.7502837000065483
RSVPLG03,JM,20251027-122105,1.0.1,20251020-085245,717,Practice,Both,1,Automatic,main,7,20251027-122154,global,global,300,S,S,E,A,S-E.png,S-A.png,sS,sS,mask-4.png,mask-4.png,s,1,0.47751609998522326,s,1,0.0871155999484472,0.04852569999638945,0.047515999991446733,0.09960859996499494,0.10160960000939667,0.2992742999922484
RSVPLG03,JM,20251027-122105,1.0.1,20251020-085245,717,Practice,Both,1,Automatic,main,8,20251027-122158,local,global,750,S,H,A,E,A-S.png,H-E.png,sS,hH,mask-2.png,mask-3.png,s,1,0.8043395999702625,h,1,0.09220120002282783,0.047065299993846565,0.04704090004088357,0.09903879999183118,0.10124400001950562,0.7485238999943249
RSVPLG03,JM,20251027-122105,1.0.1,20251020-085245,717,Practice,Both,1,Automatic,main,9,20251027-122203,local,local,750,H,S,A,E,A-H.png,E-S.png,hH,sS,mask-3.png,mask-2.png,h,1,0.38046879996545613,s,1,0.07014109997544438,0.04877300001680851,0.04770480003207922,0.10197339998558164,0.09982020000461489,0.7515809999895282
RSVPLG03,JM,20251027-122105,1.0.1,20251020-085245,717,Practice,Both,1,Automatic,main,10,20251027-122208,global,global,750,H,H,A,E,H-A.png,H-E.png,hH,hH,mask-4.png,mask-1.png,h,1,0.39248889998998493,h,1,0.07659270003205165,0.04772659996524453,0.04655680002178997,0.09998880000784993,0.09956260002218187,0.75027829996543
RSVPLG03,JM,20251027-122105,1.0.1,20251020-085245,717,Practice,Both,1,Automatic,main,11,20251027-122212,global,local,750,S,S,E,A,S-E.png,A-S.png,sS,sS,mask-4.png,mask-4.png,s,1,0.9731815999839455,h,0,0.10559769999235868,0.04754030000185594,0.047558900027070194,0.09852549998322502,0.09874450002098456,0.7500345999724232
RSVPLG03,JM,20251027-122105,1.0.1,20251020-085245,717,Practice,Both,1,Automatic,main,12,20251027-122217,global,local,300,S,H,E,E,S-E.png,E-H.png,sS,hH,mask-1.png,mask-2.png,s,1,1.213498900004197,h,1,1.3581409999751486,0.048515899979975075,0.04748710000421852,0.10060689999954775,0.1001976000261493,0.3008490999927744
RSVPLG03,JM,20251027-122105,1.0.1,20251020-085245,717,Practice,Both,1,Automatic,main,13,20251027-122222,global,local,750,H,H,E,A,H-E.png,A-H.png,hH,hH,mask-1.png,mask-2.png,h,1,0.3695399999851361,h,1,0.07863689999794587,0.048551400017458946,0.04715090000536293,0.0993037999724038,0.10008880001259968,0.7508372999727726
RSVPLG03,JM,20251027-122105,1.0.1,20251020-085245,717,Practice,Both,1,Automatic,main,14,20251027-122227,local,global,300,S,S,A,E,A-S.png,S-E.png,sS,sS,mask-1.png,mask-2.png,h,0,0.4575708999764174,s,1,0.08763670001644641,0.048644699971191585,0.04644840001128614,0.10091249999823049,0.10008430003654212,0.3004076999495737
RSVPLG03,JM,20251027-122105,1.0.1,20251020-085245,717,Practice,Both,1,Automatic,main,15,20251027-122231,local,local,300,S,H,E,A,E-S.png,A-H.png,sS,hH,mask-2.png,mask-3.png,s,1,0.5190510000102222,h,1,0.0749661999871023,0.0456891999929212,0.045613199996296316,0.09779490000801161,0.09968099999241531,0.3001933000050485
RSVPLG03,JM,20251027-122105,1.0.1,20251020-085245,717,Practice,Both,1,Automatic,main,16,20251027-122235,local,global,300,S,H,E,E,E-S.png,H-E.png,sS,hH,mask-4.png,mask-2.png,s,1,0.9061990000191145,h,1,0.10779460001504049,0.04779180005425587,0.04735810001147911,0.09943580004619434,0.10017489996971563,0.29938660003244877
RSVPLG03,JM,20251027-122324,1.0.1,20251020-085245,717,Experiment,T1,1,Automatic,warmup,1,20251027-122355,global,local,300,S,H,E,E,S-E.png,E-H.png,sS,hH,mask-3.png,mask-2.png,s,1,0.78963739995379,none,-5,0,0.04192450002301484,0.04745710000861436,0.0934150000102818,0.10045570001238957,0.29350730002624914
RSVPLG03,JM,20251027-122324,1.0.1,20251020-085245,717,Experiment,T1,1,Automatic,warmup,2,20251027-122400,global,global,300,S,S,E,A,S-E.png,S-A.png,sS,sS,mask-3.png,mask-3.png,s,1,0.48022629995830357,none,-5,0,0.04589589999523014,0.047130800026934594,0.0987637999933213,0.09998380002798513,0.29942519997712225
RSVPLG03,JM,20251027-122324,1.0.1,20251020-085245,717,Experiment,T1,1,Automatic,warmup,3,20251027-122404,global,local,750,S,H,E,E,S-E.png,E-H.png,sS,hH,mask-2.png,mask-3.png,s,1,0.3268056999659166,none,-5,0,0.047554099990520626,0.04753619997063652,0.09988459997111931,0.09857480000937358,0.7497011999948882
RSVPLG03,JM,20251027-122324,1.0.1,20251020-085245,717,Experiment,T1,1,Automatic,warmup,4,20251027-122408,local,global,750,S,H,A,A,A-S.png,H-A.png,sS,hH,mask-4.png,mask-2.png,h,0,0.8855217000236735,none,-5,0,0.046117199992295355,0.04852850001771003,0.09926369995810091,0.10152470000321046,0.7483431999571621
RSVPLG03,JM,20251027-122324,1.0.1,20251020-085245,717,Experiment,T1,1,Automatic,warmup,5,20251027-122413,global,global,750,H,H,A,A,H-A.png,H-A.png,hH,hH,mask-3.png,mask-2.png,h,1,0.5448076999746263,none,-5,0,0.04567349998978898,0.04762299999129027,0.09990789997391403,0.10085220000473782,0.7478434999939054
RSVPLG03,JM,20251027-122324,1.0.1,20251020-085245,717,Experiment,T1,1,Automatic,main,6,20251027-122417,global,global,300,H,H,E,E,H-E.png,H-E.png,hH,hH,mask-2.png,mask-3.png,h,1,0.44640209997305647,none,-5,0,0.04668530001072213,0.04765899997437373,0.09994849999202415,0.10008249996462837,0.2995692000258714
RSVPLG03,JM,20251027-122324,1.0.1,20251020-085245,717,Experiment,T1,1,Automatic,main,7,20251027-122421,global,local,300,S,H,E,E,S-E.png,E-H.png,sS,hH,mask-4.png,mask-1.png,s,1,0.3648242999915965,none,-5,0,0.04770870000356808,0.04868450004141778,0.10091020003892481,0.1008873000391759,0.30014720000326633
RSVPLG03,JM,20251027-122324,1.0.1,20251020-085245,717,Experiment,T1,1,Automatic,main,8,20251027-122425,global,local,750,S,S,A,E,S-A.png,E-S.png,sS,sS,mask-2.png,mask-2.png,s,1,0.2539051999920048,none,-5,0,0.04624569998122752,0.04568250000011176,0.09858269995311275,0.09957749996101484,0.7500072999973781
RSVPLG03,JM,20251027-122324,1.0.1,20251020-085245,717,Experiment,T1,1,Automatic,main,9,20251027-122429,global,global,300,S,H,A,E,S-A.png,H-E.png,sS,hH,mask-4.png,mask-1.png,s,1,0.5860695000155829,none,-5,0,0.04631489998428151,0.048487799998838454,0.09946309996303171,0.10157370002707466,0.29791539994766936
RSVPLG03,JM,20251027-122324,1.0.1,20251020-085245,717,Experiment,T1,1,Automatic,main,10,20251027-122434,global,global,300,H,H,A,A,H-A.png,H-A.png,hH,hH,mask-3.png,mask-4.png,h,1,0.25799200002802536,none,-5,0,0.04655389999970794,0.04598039999837056,0.09972940001171082,0.09907599998405203,0.3003937000175938
RSVPLG03,JM,20251027-122324,1.0.1,20251020-085245,717,Experiment,T1,1,Automatic,main,11,20251027-122437,local,global,300,H,S,E,A,E-H.png,S-A.png,hH,sS,mask-2.png,mask-3.png,h,1,0.4580318999942392,none,-5,0,0.046903899987228215,0.04653409996535629,0.10074649995658547,0.10044849995756522,0.3006374000106007
RSVPLG03,JM,20251027-122324,1.0.1,20251020-085245,717,Experiment,T1,1,Automatic,main,12,20251027-122441,local,global,300,H,S,E,A,E-H.png,S-A.png,hH,sS,mask-3.png,mask-2.png,h,1,0.32950570003595203,none,-5,0,0.04697890003444627,0.047970600018743426,0.0992168000084348,0.10109490004833788,0.2987857999978587
RSVPLG03,JM,20251027-122324,1.0.1,20251020-085245,717,Experiment,T1,1,Automatic,main,13,20251027-122445,local,local,300,S,S,E,A,E-S.png,A-S.png,sS,sS,mask-3.png,mask-1.png,s,1,0.31892369996057823,none,-5,0,0.04810060001909733,0.04749919997993857,0.10120360000291839,0.10086910001700744,0.29943950002780184
RSVPLG03,JM,20251027-122324,1.0.1,20251020-085245,717,Experiment,T1,1,Automatic,main,14,20251027-122449,local,global,300,H,H,A,A,A-H.png,H-A.png,hH,hH,mask-4.png,mask-2.png,h,1,0.30387980001978576,none,-5,0,0.0467130999895744,0.04623530001845211,0.09887280000839382,0.09938670002156869,0.2994471999700181
RSVPLG03,JM,20251027-122324,1.0.1,20251020-085245,717,Experiment,T1,1,Automatic,main,15,20251027-122453,global,global,750,S,H,A,E,S-A.png,H-E.png,sS,hH,mask-1.png,mask-3.png,s,1,0.44255819998215884,none,-5,0,0.047730499994941056,0.047714399988763034,0.10014769999543205,0.10096390004036948,0.7504738999996334
RSVPLG03,JM,20251027-122324,1.0.1,20251020-085245,717,Experiment,T1,1,Automatic,main,16,20251027-122458,global,local,300,H,S,E,A,H-E.png,A-S.png,hH,sS,mask-4.png,mask-3.png,h,1,0.31433470000047237,none,-5,0,0.04757150000659749,0.04693019995465875,0.10089629999129102,0.1013130999635905,0.2994065000093542
RSVPLG03,JM,20251027-122324,1.0.1,20251020-085245,717,Experiment,T1,1,Automatic,main,17,20251027-122501,local,local,750,S,H,E,E,E-S.png,E-H.png,sS,hH,mask-4.png,mask-1.png,s,1,0.007325200014747679,none,-5,0,0.047163299983367324,0.04769099998520687,0.09985900000901893,0.09989830001723021,0.7506572999991477
RSVPLG03,JM,20251027-122324,1.0.1,20251020-085245,717,Experiment,T1,1,Automatic,main,18,20251027-122505,local,local,750,S,H,A,E,A-S.png,E-H.png,sS,hH,mask-1.png,mask-1.png,h,0,0.2681237999931909,none,-5,0,0.04738470003940165,0.04670259996782988,0.09947110002394766,0.09971639997093007,0.7498457000474446
RSVPLG03,JM,20251027-122324,1.0.1,20251020-085245,717,Experiment,T1,1,Automatic,main,19,20251027-122510,global,global,300,S,H,E,E,S-E.png,H-E.png,sS,hH,mask-2.png,mask-3.png,s,1,0.3446133999968879,none,-5,0,0.048646299983374774,0.047592999995686114,0.10048630001256242,0.10065849998500198,0.3003315000096336
RSVPLG03,JM,20251027-122324,1.0.1,20251020-085245,717,Experiment,T1,1,Automatic,main,20,20251027-122514,local,global,750,S,H,A,E,A-S.png,H-E.png,sS,hH,mask-4.png,mask-3.png,s,1,0.3406629000091925,none,-5,0,0.0474335000035353,0.04839770001126453,0.10050180001417175,0.10004350001690909,0.7497384999878705
RSVPLG03,JM,20251027-122324,1.0.1,20251020-085245,717,Experiment,T1,1,Automatic,main,21,20251027-122518,global,local,750,H,S,A,A,H-A.png,A-S.png,hH,sS,mask-2.png,mask-3.png,h,1,0.23144370003137738,none,-5,0,0.04787850001594052,0.047342500009108335,0.0997765000211075,0.10018110001692548,0.7495270000072196
RSVPLG03,JM,20251027-122324,1.0.1,20251020-085245,717,Experiment,T1,1,Automatic,main,22,20251027-122522,local,local,750,S,S,E,E,E-S.png,E-S.png,sS,sS,mask-3.png,mask-4.png,s,1,0.19805750000523403,none,-5,0,0.04615800001192838,0.04710779996821657,0.09833559999242425,0.10104949999367818,0.7485646000131965
RSVPLG03,JM,20251027-122324,1.0.1,20251020-085245,717,Experiment,T1,1,Automatic,main,23,20251027-122526,local,local,300,S,S,A,E,A-S.png,E-S.png,sS,sS,mask-3.png,mask-1.png,h,0,0.37101999996230006,none,-5,0,0.04849549999926239,0.047507000039331615,0.09956240002065897,0.09775559999980032,0.3008572999970056
RSVPLG03,JM,20251027-122324,1.0.1,20251020-085245,717,Experiment,T1,1,Automatic,main,24,20251027-122530,local,local,300,H,S,A,E,A-H.png,E-S.png,hH,sS,mask-1.png,mask-4.png,s,0,0.3908704000059515,none,-5,0,0.0486498000100255,0.04763970000203699,0.10015990003012121,0.10080769995693117,0.3004726000363007
RSVPLG03,JM,20251027-122324,1.0.1,20251020-085245,717,Experiment,T1,1,Automatic,main,25,20251027-122534,local,local,750,H,H,A,A,A-H.png,A-H.png,hH,hH,mask-1.png,mask-4.png,h,1,0.2542947999900207,none,-5,0,0.04675300000235438,0.04861759999766946,0.09993119997670874,0.10082719998899847,0.7485118000186048
RSVPLG03,JM,20251027-122324,1.0.1,20251020-085245,717,Experiment,T1,1,Automatic,main,26,20251027-122541,global,global,750,H,S,A,E,H-A.png,S-E.png,hH,sS,mask-1.png,mask-2.png,h,1,0.2918143999995664,none,-5,0,0.04769269999815151,0.047681899974122643,0.09931439999490976,0.09888329997193068,0.7506844000308774
RSVPLG03,JM,20251027-122324,1.0.1,20251020-085245,717,Experiment,T1,1,Automatic,main,27,20251027-122545,local,global,750,S,H,A,A,A-S.png,H-A.png,sS,hH,mask-1.png,mask-2.png,s,1,0.24757689994294196,none,-5,0,0.04751920001581311,0.047504100017249584,0.0997314999694936,0.0989009999902919,0.750142099976074
RSVPLG03,JM,20251027-122324,1.0.1,20251020-085245,717,Experiment,T1,1,Automatic,main,28,20251027-122549,local,global,750,H,H,A,E,A-H.png,H-E.png,hH,hH,mask-2.png,mask-4.png,h,1,0.3316142999683507,none,-5,0,0.04850469995290041,0.046535200031939894,0.10152430000016466,0.1005322000128217,0.7506384999724105
RSVPLG03,JM,20251027-122324,1.0.1,20251020-085245,717,Experiment,T1,1,Automatic,main,29,20251027-122554,global,local,300,S,H,A,A,S-A.png,A-H.png,sS,hH,mask-2.png,mask-1.png,s,1,0.3400897000101395,none,-5,0,0.047517200000584126,0.04754780000075698,0.09921670000767335,0.10046279995003715,0.2993686000118032
RSVPLG03,JM,20251027-122324,1.0.1,20251020-085245,717,Experiment,T1,1,Automatic,main,30,20251027-122558,local,global,750,H,S,A,A,A-H.png,S-A.png,hH,sS,mask-4.png,mask-3.png,s,0,0.32324350002454594,none,-5,0,0.04769409995060414,0.04792300000553951,0.09990370000014082,0.10050329996738583,0.7500676999916323
RSVPLG03,JM,20251027-122324,1.0.1,20251020-085245,717,Experiment,T1,1,Automatic,main,31,20251027-122602,global,global,300,H,S,E,E,H-E.png,S-E.png,hH,sS,mask-4.png,mask-4.png,h,1,0.3504576000268571,none,-5,0,0.045789900003001094,0.04737420001765713,0.09905449999496341,0.10051100002601743,0.29909280000720173
RSVPLG03,JM,20251027-122324,1.0.1,20251020-085245,717,Experiment,T1,1,Automatic,main,32,20251027-122606,global,local,300,S,H,E,A,S-E.png,A-H.png,sS,hH,mask-4.png,mask-3.png,s,1,0.47230510000372306,none,-5,0,0.04770509997615591,0.04868880001595244,0.09925089997705072,0.09904360002838075,0.300050999969244
RSVPLG03,JM,20251027-122324,1.0.1,20251020-085245,717,Experiment,T1,1,Automatic,main,33,20251027-122610,global,global,750,H,S,E,E,H-E.png,S-E.png,hH,sS,mask-2.png,mask-4.png,h,1,0.2228258000104688,none,-5,0,0.04678299999795854,0.04849040001863614,0.09874559997115284,0.10151140001835302,0.7486046999692917
RSVPLG03,JM,20251027-122324,1.0.1,20251020-085245,717,Experiment,T1,1,Automatic,main,34,20251027-122614,local,local,300,H,H,A,A,A-H.png,A-H.png,hH,hH,mask-2.png,mask-1.png,h,1,0.3204576999996789,none,-5,0,0.04770060000009835,0.04884229996241629,0.09987469995394349,0.10105279996059835,0.29881639999803156
RSVPLG03,JM,20251027-122324,1.0.1,20251020-085245,717,Experiment,T1,1,Automatic,main,35,20251027-122618,global,local,750,S,H,E,A,S-E.png,A-H.png,sS,hH,mask-2.png,mask-1.png,s,1,0.2930311000091024,none,-5,0,0.047681900032330304,0.04718200000934303,0.10058560001198202,0.09966129995882511,0.7508746000239626
RSVPLG03,JM,20251027-122324,1.0.1,20251020-085245,717,Experiment,T1,1,Automatic,main,36,20251027-122622,global,global,300,S,S,A,E,S-A.png,S-E.png,sS,sS,mask-2.png,mask-3.png,s,1,0.2573953000246547,none,-5,0,0.04674320004414767,0.04723939998075366,0.09889120003208518,0.10044080001534894,0.29908140003681183
RSVPLG03,JM,20251027-122324,1.0.1,20251020-085245,717,Experiment,T1,1,Automatic,main,37,20251027-122626,local,local,300,H,H,A,A,A-H.png,A-H.png,hH,hH,mask-1.png,mask-4.png,h,1,0.320562599983532,none,-5,0,0.0460383000317961,0.04758179996861145,0.09795090003171936,0.10149009997257963,0.2981637000339106
RSVPLG03,JM,20251027-122324,1.0.1,20251020-085245,717,Experiment,T1,1,Automatic,main,38,20251027-122630,local,global,750,S,S,A,A,A-S.png,S-A.png,sS,sS,mask-2.png,mask-4.png,h,0,0.6943516999599524,none,-5,0,0.04783680004766211,0.047733500017784536,0.10128750000149012,0.10098470002412796,0.7498487000120804
RSVPLG03,JM,20251027-122324,1.0.1,20251020-085245,717,Experiment,T1,1,Automatic,main,39,20251027-122635,local,global,300,S,H,A,A,A-S.png,H-A.png,sS,hH,mask-4.png,mask-3.png,h,0,0.36497350002173334,none,-5,0,0.04619840002851561,0.04756810003891587,0.10016349999932572,0.0995041000423953,0.2989375999895856
RSVPLG03,JM,20251027-122324,1.0.1,20251020-085245,717,Experiment,T1,1,Automatic,main,40,20251027-122639,local,global,750,S,H,A,A,A-S.png,H-A.png,sS,hH,mask-2.png,mask-4.png,h,0,0.2849421999999322,none,-5,0,0.047809200012125075,0.046446099993772805,0.09890529996482655,0.0992349999723956,0.7493182999896817
RSVPLG03,JM,20251027-122324,1.0.1,20251020-085245,717,Experiment,T1,1,Automatic,main,41,20251027-122643,global,global,300,S,S,E,E,S-E.png,S-E.png,sS,sS,mask-2.png,mask-4.png,s,1,0.27514119999250397,none,-5,0,0.04782320000231266,0.04753739997977391,0.10099489998538047,0.10072529996978119,0.30044180003460497
RSVPLG03,JM,20251027-122324,1.0.1,20251020-085245,717,Experiment,T1,1,Automatic,main,42,20251027-122647,local,local,750,S,S,A,A,A-S.png,A-S.png,sS,sS,mask-1.png,mask-4.png,h,0,0.01468429999658838,none,-5,0,0.04771390004316345,0.04769859998486936,0.09995390003314242,0.10027029999764636,0.7506973000126891
RSVPLG03,JM,20251027-122324,1.0.1,20251020-085245,717,Experiment,T1,1,Automatic,main,43,20251027-122651,global,global,300,H,S,A,E,H-A.png,S-E.png,hH,sS,mask-2.png,mask-1.png,h,1,0.3559472000342794,none,-5,0,0.04779190005501732,0.04749730002367869,0.09962900000391528,0.09937579999677837,0.30093480000505224
RSVPLG03,JM,20251027-122324,1.0.1,20251020-085245,717,Experiment,T1,1,Automatic,main,44,20251027-122655,local,global,750,H,H,E,E,E-H.png,H-E.png,hH,hH,mask-2.png,mask-3.png,h,1,0.3165445000049658,none,-5,0,0.047585199994500726,0.04712280002422631,0.09881019999738783,0.10128880001138896,0.7490128999925219
RSVPLG03,JM,20251027-122324,1.0.1,20251020-085245,717,Experiment,T1,1,Automatic,main,45,20251027-122659,global,local,750,S,H,A,E,S-A.png,E-H.png,sS,hH,mask-3.png,mask-1.png,s,1,0.172503300011158,none,-5,0,0.048877499997615814,0.04735769995022565,0.10106469999300316,0.1003956999629736,0.7502686000079848
RSVPLG03,JM,20251027-122324,1.0.1,20251020-085245,717,Experiment,T1,1,Automatic,main,46,20251027-122703,global,local,300,S,H,A,A,S-A.png,A-H.png,sS,hH,mask-4.png,mask-2.png,s,1,0.3044043999980204,none,-5,0,0.04939990001730621,0.04747490002773702,0.1003336000139825,0.10074630001327023,0.3004034999758005
RSVPLG03,JM,20251027-122324,1.0.1,20251020-085245,717,Experiment,T1,1,Automatic,main,47,20251027-122707,global,local,300,H,S,A,E,H-A.png,E-S.png,hH,sS,mask-2.png,mask-1.png,h,1,0.4057809999794699,none,-5,0,0.04769310000119731,0.04726810002466664,0.10005210002418607,0.10104989999672398,0.2993739999947138
RSVPLG03,JM,20251027-122324,1.0.1,20251020-085245,717,Experiment,T1,1,Automatic,main,48,20251027-122711,global,global,300,H,S,E,A,H-E.png,S-A.png,hH,sS,mask-1.png,mask-2.png,h,1,0.2645173000055365,none,-5,0,0.046498100040480494,0.04631910001626238,0.1007069000042975,0.09931810002308339,0.30019540002103895
RSVPLG03,JM,20251027-122324,1.0.1,20251020-085245,717,Experiment,T1,1,Automatic,main,49,20251027-122715,global,global,750,H,H,E,A,H-E.png,H-A.png,hH,hH,mask-4.png,mask-2.png,h,1,0.25890529999742284,none,-5,0,0.046476999996230006,0.04772209998918697,0.09976070001721382,0.09995899995556101,0.7492159000248648
RSVPLG03,JM,20251027-122324,1.0.1,20251020-085245,717,Experiment,T1,1,Automatic,main,50,20251027-122719,local,local,300,H,H,E,A,E-H.png,A-H.png,hH,hH,mask-3.png,mask-1.png,h,1,0.45573810004862025,none,-5,0,0.04844809998758137,0.046803099976386875,0.10038139997050166,0.10053539997898042,0.30040599999483675
RSVPLG03,JM,20251027-122324,1.0.1,20251020-085245,717,Experiment,T1,1,Automatic,main,51,20251027-122726,local,local,750,H,S,E,A,E-H.png,A-S.png,hH,sS,mask-2.png,mask-2.png,h,1,0.0005075999652035534,none,-5,0,0.047543799970299006,0.046746599953621626,0.0982046999852173,0.09824369999114424,0.7494034999981523
RSVPLG03,JM,20251027-122324,1.0.1,20251020-085245,717,Experiment,T1,1,Automatic,main,52,20251027-122730,local,local,300,H,S,A,E,A-H.png,E-S.png,hH,sS,mask-3.png,mask-3.png,s,0,0.39836340001784265,none,-5,0,0.0479304000036791,0.047628399974200875,0.10103670001262799,0.10160669998731464,0.2996872999938205
RSVPLG03,JM,20251027-122324,1.0.1,20251020-085245,717,Experiment,T1,1,Automatic,main,53,20251027-122734,local,global,750,H,S,E,A,E-H.png,S-A.png,hH,sS,mask-4.png,mask-2.png,h,1,0.41546990000642836,none,-5,0,0.04755640000803396,0.04754269996192306,0.09900909999851137,0.0996006999630481,0.749781200021971
RSVPLG03,JM,20251027-122324,1.0.1,20251020-085245,717,Experiment,T1,1,Automatic,main,54,20251027-122739,local,local,300,S,H,A,A,A-S.png,A-H.png,sS,hH,mask-3.png,mask-4.png,h,0,0.49248980003176257,none,-5,0,0.045912800007499754,0.04824099998222664,0.0975095999892801,0.10047890001442283,0.29792829998768866
RSVPLG03,JM,20251027-122324,1.0.1,20251020-085245,717,Experiment,T1,1,Automatic,main,55,20251027-122743,global,local,750,H,H,A,E,H-A.png,E-H.png,hH,hH,mask-3.png,mask-1.png,h,1,0.28638609999325126,none,-5,0,0.04651479999301955,0.04754160001175478,0.09958739997819066,0.09957960003521293,0.7493845999706537
RSVPLG03,JM,20251027-122324,1.0.1,20251020-085245,717,Experiment,T1,1,Automatic,main,56,20251027-122747,global,local,300,S,S,E,E,S-E.png,E-S.png,sS,sS,mask-4.png,mask-4.png,s,1,0.5555582999950275,none,-5,0,0.04830200003925711,0.0471726999967359,0.09874159999890253,0.09904669999377802,0.29987650003749877
RSVPLG03,JM,20251027-122324,1.0.1,20251020-085245,717,Experiment,T1,1,Automatic,main,57,20251027-122751,global,local,300,H,S,E,A,H-E.png,A-S.png,hH,sS,mask-3.png,mask-1.png,h,1,0.2995435000048019,none,-5,0,0.04754880000837147,0.04778719996102154,0.10071460000472143,0.10098459996515885,0.2996164000360295
RSVPLG03,JM,20251027-122324,1.0.1,20251020-085245,717,Experiment,T1,1,Automatic,main,58,20251027-122755,local,global,300,S,H,A,A,A-S.png,H-A.png,sS,hH,mask-3.png,mask-1.png,h,0,0.2439489999669604,none,-5,0,0.04657979996409267,0.04760420002276078,0.09867390000727028,0.10161070001777261,0.29801149998093024
RSVPLG03,JM,20251027-122324,1.0.1,20251020-085245,717,Experiment,T1,1,Automatic,main,59,20251027-122759,local,global,300,H,H,E,E,E-H.png,H-E.png,hH,hH,mask-2.png,mask-1.png,s,0,0.31462409999221563,none,-5,0,0.048700899991672486,0.04881859995657578,0.10100849997252226,0.10209349996875972,0.2990691000013612
RSVPLG03,JM,20251027-122324,1.0.1,20251020-085245,717,Experiment,T1,1,Automatic,main,60,20251027-122803,global,global,750,H,H,E,A,H-E.png,H-A.png,hH,hH,mask-3.png,mask-3.png,h,1,0.14846579998265952,none,-5,0,0.04678269999567419,0.04670269996859133,0.09999660000903532,0.0990060999756679,0.7489217999973334
RSVPLG03,JM,20251027-122324,1.0.1,20251020-085245,717,Experiment,T1,1,Automatic,main,61,20251027-122807,global,global,750,S,H,E,E,S-E.png,H-E.png,sS,hH,mask-2.png,mask-4.png,s,1,0.3383113000309095,none,-5,0,0.045993999985512346,0.04757270001573488,0.09925460000522435,0.09861849999288097,0.7492864999803714
RSVPLG03,JM,20251027-122324,1.0.1,20251020-085245,717,Experiment,T1,1,Automatic,main,62,20251027-122811,local,global,300,H,H,E,E,E-H.png,H-E.png,hH,hH,mask-4.png,mask-4.png,s,0,0.2722104999702424,none,-5,0,0.048311599995940924,0.04902759997639805,0.10149199998704717,0.10022570000728592,0.29960069997468963
RSVPLG03,JM,20251027-122324,1.0.1,20251020-085245,717,Experiment,T1,1,Automatic,main,63,20251027-122815,global,local,300,H,H,A,A,H-A.png,A-H.png,hH,hH,mask-4.png,mask-3.png,h,1,0.2718272000201978,none,-5,0,0.04870589997153729,0.04670579999219626,0.09977779997279868,0.09950730000855401,0.3004658999852836
RSVPLG03,JM,20251027-122324,1.0.1,20251020-085245,717,Experiment,T1,1,Automatic,main,64,20251027-122819,local,global,300,H,S,A,E,A-H.png,S-E.png,hH,sS,mask-1.png,mask-1.png,h,1,0.2661112999776378,none,-5,0,0.04752949997782707,0.04754360002698377,0.1000173999927938,0.10042550001526251,0.30059249995974824
RSVPLG03,JM,20251027-122324,1.0.1,20251020-085245,717,Experiment,T1,1,Automatic,main,65,20251027-122823,global,local,300,S,S,A,A,S-A.png,A-S.png,sS,sS,mask-2.png,mask-4.png,s,1,0.2530038999975659,none,-5,0,0.04796120000537485,0.04857909999554977,0.1010342999943532,0.10065989999566227,0.29969170002732426
RSVPLG03,JM,20251027-122324,1.0.1,20251020-085245,717,Experiment,T1,1,Automatic,main,66,20251027-122826,global,global,750,H,S,E,A,H-E.png,S-A.png,hH,sS,mask-4.png,mask-2.png,h,1,0.6511245000292547,none,-5,0,0.04720269999234006,0.04692069999873638,0.09944159997394308,0.09909159998642281,0.7493212000117637
RSVPLG03,JM,20251027-122324,1.0.1,20251020-085245,717,Experiment,T1,1,Automatic,main,67,20251027-122831,local,global,300,H,H,A,A,A-H.png,H-A.png,hH,hH,mask-1.png,mask-4.png,h,1,0.7091064000269398,none,-5,0,0.04671680001774803,0.04658939997898415,0.10000260005472228,0.09878609998850152,0.30001590005122125
RSVPLG03,JM,20251027-122324,1.0.1,20251020-085245,717,Experiment,T1,1,Automatic,main,68,20251027-122835,global,local,750,H,S,A,A,H-A.png,A-S.png,hH,sS,mask-4.png,mask-4.png,h,1,0.3410368000040762,none,-5,0,0.04689590004272759,0.04858179995790124,0.0993910999968648,0.10087429999839514,0.748630000045523
RSVPLG03,JM,20251027-122324,1.0.1,20251020-085245,717,Experiment,T1,1,Automatic,main,69,20251027-122840,global,local,750,H,S,E,A,H-E.png,A-S.png,hH,sS,mask-3.png,mask-3.png,h,1,0.01826099999016151,none,-5,0,0.04805320000741631,0.04777840001042932,0.10018040001159534,0.10085930000059307,0.748851399985142
RSVPLG03,JM,20251027-122324,1.0.1,20251020-085245,717,Experiment,T1,1,Automatic,main,70,20251027-122844,local,global,750,H,H,E,E,E-H.png,H-E.png,hH,hH,mask-1.png,mask-2.png,s,0,0.24898019997635856,none,-5,0,0.04657469998346642,0.04747789999237284,0.09967729996424168,0.10003600001800805,0.7490432999911718
RSVPLG03,JM,20251027-122324,1.0.1,20251020-085245,717,Experiment,T1,1,Automatic,main,71,20251027-122848,global,local,750,H,S,A,E,H-A.png,E-S.png,hH,sS,mask-2.png,mask-3.png,h,1,0.08848209999268875,none,-5,0,0.04779609997058287,0.04699489998165518,0.10049069998785853,0.09966479998547584,0.7503248999710195
RSVPLG03,JM,20251027-122324,1.0.1,20251020-085245,717,Experiment,T1,1,Automatic,main,72,20251027-122852,local,global,300,H,H,E,E,E-H.png,H-E.png,hH,hH,mask-2.png,mask-2.png,s,0,0.575871900015045,none,-5,0,0.0487359999679029,0.04671089997282252,0.09953750000568107,0.09891289996448904,0.3003233000054024
RSVPLG03,JM,20251027-122324,1.0.1,20251020-085245,717,Experiment,T1,1,Automatic,main,73,20251027-122856,local,global,750,S,S,A,E,A-S.png,S-E.png,sS,sS,mask-4.png,mask-1.png,s,1,0.24224840005626902,none,-5,0,0.04572959995130077,0.047507899987977,0.10000129998661578,0.10080730001209304,0.7489560999674723
RSVPLG03,JM,20251027-122324,1.0.1,20251020-085245,717,Experiment,T1,1,Automatic,main,74,20251027-122900,global,global,300,S,S,E,E,S-E.png,S-E.png,sS,sS,mask-1.png,mask-4.png,s,1,0.5807960000238381,none,-5,0,0.04725679999683052,0.04709529998945072,0.10168640001211315,0.09826140000950545,0.30150780000258237
RSVPLG03,JM,20251027-122324,1.0.1,20251020-085245,717,Experiment,T1,1,Automatic,main,75,20251027-122905,global,local,750,S,H,E,A,S-E.png,A-H.png,sS,hH,mask-2.png,mask-2.png,s,1,0.16813320002984256,none,-5,0,0.0485327000496909,0.046522999997250736,0.10054930002661422,0.09981250000419095,0.7506482000462711
RSVPLG03,JM,20251027-122324,1.0.1,20251020-085245,717,Experiment,T1,1,Automatic,main,76,20251027-122910,local,local,300,S,S,A,E,A-S.png,E-S.png,sS,sS,mask-4.png,mask-2.png,s,1,0.437761600012891,none,-5,0,0.04856100003235042,0.04738599999109283,0.10066250001545995,0.09933140000794083,0.30032480001682416
RSVPLG03,JM,20251027-122324,1.0.1,20251020-085245,717,Experiment,T1,1,Automatic,main,77,20251027-122914,global,global,750,S,H,A,A,S-A.png,H-A.png,sS,hH,mask-3.png,mask-1.png,s,1,0.24075579998316243,none,-5,0,0.04571899998700246,0.04770060000009835,0.09995659999549389,0.09891010000137612,0.7495076999766752
RSVPLG03,JM,20251027-122324,1.0.1,20251020-085245,717,Experiment,T1,1,Automatic,main,78,20251027-122918,local,local,750,H,S,E,A,E-H.png,A-S.png,hH,sS,mask-2.png,mask-3.png,s,0,0.26581490004900843,none,-5,0,0.04596250003669411,0.04631089995382354,0.09873840003274381,0.09903230000054464,0.7497687000432052
RSVPLG03,JM,20251027-122324,1.0.1,20251020-085245,717,Experiment,T1,1,Automatic,main,79,20251027-122922,global,global,300,S,S,E,E,S-E.png,S-E.png,sS,sS,mask-3.png,mask-3.png,s,1,0.38935319997835904,none,-5,0,0.04489359998842701,0.04655070003354922,0.09953819995280355,0.09891609998885542,0.2990954999695532
RSVPLG03,JM,20251027-122324,1.0.1,20251020-085245,717,Experiment,T1,1,Automatic,main,80,20251027-122926,local,local,300,H,H,E,A,E-H.png,A-H.png,hH,hH,mask-3.png,mask-2.png,h,1,0.33751520002260804,none,-5,0,0.04563039995264262,0.047425500000827014,0.09866279998095706,0.09907060000114143,0.2985732999513857
RSVPLG03,JM,20251027-122324,1.0.1,20251020-085245,717,Experiment,T1,1,Automatic,main,81,20251027-122930,global,global,750,H,H,A,E,H-A.png,H-E.png,hH,hH,mask-1.png,mask-1.png,h,1,0.17910660000052303,none,-5,0,0.04718880000291392,0.04658770002424717,0.09947229997487739,0.09967470000265166,0.7499423999688588
RSVPLG03,JM,20251027-122324,1.0.1,20251020-085245,717,Experiment,T1,1,Automatic,main,82,20251027-122934,local,local,300,S,S,A,E,A-S.png,E-S.png,sS,sS,mask-3.png,mask-1.png,s,1,0.5394682999467477,none,-5,0,0.0463354000239633,0.04760970000643283,0.09832629997981712,0.0987213000189513,0.30038069997681305
RSVPLG03,JM,20251027-122324,1.0.1,20251020-085245,717,Experiment,T1,1,Automatic,main,83,20251027-122938,local,global,300,S,H,E,E,E-S.png,H-E.png,sS,hH,mask-4.png,mask-3.png,s,1,0.3921182000194676,none,-5,0,0.046614899998530746,0.046634200029075146,0.09899239998776466,0.09907650004606694,0.2999803999555297
RSVPLG03,JM,20251027-122324,1.0.1,20251020-085245,717,Experiment,T1,1,Automatic,main,84,20251027-122942,global,global,750,H,S,E,E,H-E.png,S-E.png,hH,sS,mask-2.png,mask-4.png,h,1,0.028823599976021796,none,-5,0,0.04672139999456704,0.04806889995234087,0.10100930003682151,0.10005829995498061,0.7489415000309236
RSVPLG03,JM,20251027-122324,1.0.1,20251020-085245,717,Experiment,T1,1,Automatic,main,85,20251027-122947,local,local,300,S,S,A,A,A-S.png,A-S.png,sS,sS,mask-4.png,mask-2.png,h,0,0.36386450001737103,none,-5,0,0.046898100001271814,0.04717879998497665,0.09770039998693392,0.10111109999706969,0.29832790000364184
RSVPLG03,JM,20251027-122324,1.0.1,20251020-085245,717,Experiment,T1,1,Automatic,main,86,20251027-122950,local,global,300,S,H,A,A,A-S.png,H-A.png,sS,hH,mask-3.png,mask-3.png,s,1,0.23726530000567436,none,-5,0,0.04766620002919808,0.04860370000824332,0.09885890001896769,0.10146599996369332,0.2990869000204839
RSVPLG03,JM,20251027-122324,1.0.1,20251020-085245,717,Experiment,T1,1,Automatic,main,87,20251027-122954,global,local,750,S,S,A,A,S-A.png,A-S.png,sS,sS,mask-3.png,mask-3.png,s,1,0.0534336999990046,none,-5,0,0.04752130003180355,0.04850919998716563,0.09959860000526533,0.10152149997884408,0.7482674000202678
RSVPLG03,JM,20251027-122324,1.0.1,20251020-085245,717,Experiment,T1,1,Automatic,main,88,20251027-122958,local,global,300,H,H,E,E,E-H.png,H-E.png,hH,hH,mask-2.png,mask-4.png,h,1,0.35902910004369915,none,-5,0,0.047513000026810914,0.048252000007778406,0.09950559999560937,0.10105739999562502,0.29893340001581237
RSVPLG03,JM,20251027-122324,1.0.1,20251020-085245,717,Experiment,T1,1,Automatic,main,89,20251027-123002,local,global,300,S,S,E,E,E-S.png,S-E.png,sS,sS,mask-2.png,mask-1.png,s,1,0.2461257999530062,none,-5,0,0.04569679999258369,0.04669580003246665,0.09994469996308908,0.09894260001601651,0.29997569997794926
RSVPLG03,JM,20251027-122324,1.0.1,20251020-085245,717,Experiment,T1,1,Automatic,main,90,20251027-123006,global,global,750,S,H,A,E,S-A.png,H-E.png,sS,hH,mask-3.png,mask-1.png,s,1,0.2253154999925755,none,-5,0,0.047805999987758696,0.04812099999981001,0.1008925000205636,0.10122960002627224,0.7502083000144921
RSVPLG03,JM,20251027-122324,1.0.1,20251020-085245,717,Experiment,T1,1,Automatic,main,91,20251027-123010,global,global,300,H,S,A,E,H-A.png,S-E.png,hH,sS,mask-4.png,mask-2.png,h,1,0.3255100999958813,none,-5,0,0.04637090000323951,0.047372100001666695,0.09933029999956489,0.10037109995028004,0.2992587000480853
RSVPLG03,JM,20251027-122324,1.0.1,20251020-085245,717,Experiment,T1,1,Automatic,main,92,20251027-123014,local,local,750,S,H,A,A,A-S.png,A-H.png,sS,hH,mask-3.png,mask-2.png,h,0,0.40833539998857304,none,-5,0,0.04670720000285655,0.04729979997500777,0.0999180999933742,0.10121029999572784,0.7493422999978065
RSVPLG03,JM,20251027-122324,1.0.1,20251020-085245,717,Experiment,T1,1,Automatic,main,93,20251027-123019,global,global,750,H,S,A,E,H-A.png,S-E.png,hH,sS,mask-1.png,mask-1.png,h,1,0.07271499995840713,none,-5,0,0.046814800007268786,0.04684550000820309,0.09998140000971034,0.09903889999259263,0.7502511999919079
RSVPLG03,JM,20251027-122324,1.0.1,20251020-085245,717,Experiment,T1,1,Automatic,main,94,20251027-123023,global,local,750,S,S,E,A,S-E.png,A-S.png,sS,sS,mask-2.png,mask-4.png,s,1,0.08950440003536642,none,-5,0,0.048970799951348454,0.04874649998964742,0.1009976000059396,0.10086150001734495,0.750670799985528
RSVPLG03,JM,20251027-122324,1.0.1,20251020-085245,717,Experiment,T1,1,Automatic,main,95,20251027-123027,global,local,750,H,S,A,A,H-A.png,A-S.png,hH,sS,mask-1.png,mask-4.png,h,1,0.07907259999774396,none,-5,0,0.047579600010067225,0.04746510001132265,0.09846619999734685,0.09867139998823404,0.7501250000204891
RSVPLG03,JM,20251027-122324,1.0.1,20251020-085245,717,Experiment,T1,1,Automatic,main,96,20251027-123031,global,local,300,S,H,A,A,S-A.png,A-H.png,sS,hH,mask-2.png,mask-3.png,s,1,0.33792119997087866,none,-5,0,0.04878630000166595,0.04770039999857545,0.10098490002565086,0.09869509999407455,0.30048299999907613
RSVPLG03,JM,20251027-122324,1.0.1,20251020-085245,717,Experiment,T1,1,Automatic,main,97,20251027-123035,local,local,750,H,S,E,A,E-H.png,A-S.png,hH,sS,mask-4.png,mask-3.png,s,0,0.38605380000080913,none,-5,0,0.046859399997629225,0.04911319998791441,0.10002489999169484,0.10114350001094863,0.7486613999935798
RSVPLG03,JM,20251027-122324,1.0.1,20251020-085245,717,Experiment,T1,1,Automatic,main,98,20251027-123039,local,local,300,H,H,E,E,E-H.png,E-H.png,hH,hH,mask-3.png,mask-4.png,h,1,0.20726619998458773,none,-5,0,0.046354199992492795,0.04648189997533336,0.09932300000218675,0.09973499999614432,0.2995608000201173
RSVPLG03,JM,20251027-122324,1.0.1,20251020-085245,717,Experiment,T1,1,Automatic,main,99,20251027-123043,local,global,750,H,S,A,E,A-H.png,S-E.png,hH,sS,mask-1.png,mask-2.png,h,1,0.18433950003236532,none,-5,0,0.047369099978823215,0.04753109999001026,0.1012343000038527,0.10153490002267063,0.749774299969431
RSVPLG03,JM,20251027-122324,1.0.1,20251020-085245,717,Experiment,T1,1,Automatic,main,100,20251027-123047,local,local,750,S,S,E,A,E-S.png,A-S.png,sS,sS,mask-1.png,mask-2.png,s,1,0.4992688000202179,none,-5,0,0.04752290004398674,0.047754300001543015,0.09988090000115335,0.10065050004050136,0.7487854000064544
RSVPLG03,JM,20251027-122324,1.0.1,20251020-085245,717,Experiment,T1,1,Automatic,main,101,20251027-123053,local,global,750,S,S,E,A,E-S.png,S-A.png,sS,sS,mask-4.png,mask-4.png,s,1,0.15144899999722838,none,-5,0,0.04875959997298196,0.04658409999683499,0.10079499997664243,0.10066299996105954,0.7502408000291325
RSVPLG03,JM,20251027-122324,1.0.1,20251020-085245,717,Experiment,T1,1,Automatic,main,102,20251027-123057,global,local,300,H,H,A,A,H-A.png,A-H.png,hH,hH,mask-4.png,mask-1.png,h,1,0.2680908999755047,none,-5,0,0.04878890002146363,0.0479300000006333,0.1005750999902375,0.10085340001387522,0.29955699999118224
RSVPLG03,JM,20251027-122324,1.0.1,20251020-085245,717,Experiment,T1,1,Automatic,main,103,20251027-123101,local,local,750,H,H,A,E,A-H.png,E-H.png,hH,hH,mask-3.png,mask-3.png,h,1,0.0014127000467851758,none,-5,0,0.047623899998143315,0.0482155000208877,0.09867369994753972,0.10034010000526905,0.7486673999810591
RSVPLG03,JM,20251027-122324,1.0.1,20251020-085245,717,Experiment,T1,1,Automatic,main,104,20251027-123105,local,local,300,H,S,A,A,A-H.png,A-S.png,hH,sS,mask-3.png,mask-3.png,h,1,0.4151978000300005,none,-5,0,0.04677700001047924,0.0475389999919571,0.09983369999099523,0.10053599998354912,0.3000614999909885
RSVPLG03,JM,20251027-122324,1.0.1,20251020-085245,717,Experiment,T1,1,Automatic,main,105,20251027-123109,local,global,750,H,H,A,A,A-H.png,H-A.png,hH,hH,mask-4.png,mask-4.png,h,1,0.555494100030046,none,-5,0,0.04721170000266284,0.04658350005047396,0.09990029997425154,0.09959800000069663,0.7490255999728106
RSVPLG03,JM,20251027-122324,1.0.1,20251020-085245,717,Experiment,T1,1,Automatic,main,106,20251027-123114,global,global,300,H,H,A,A,H-A.png,H-A.png,hH,hH,mask-2.png,mask-1.png,h,1,0.24795569997513667,none,-5,0,0.04769300000043586,0.04644390003522858,0.10009709995938465,0.09828239999478683,0.301318799960427
RSVPLG03,JM,20251027-122324,1.0.1,20251020-085245,717,Experiment,T1,1,Automatic,main,107,20251027-123118,global,global,750,H,S,E,A,H-E.png,S-A.png,hH,sS,mask-2.png,mask-2.png,h,1,0.2571391999954358,none,-5,0,0.04753690003417432,0.04669600003398955,0.09937280003214255,0.0979702000040561,0.7499393000034615
RSVPLG03,JM,20251027-122324,1.0.1,20251020-085245,717,Experiment,T1,1,Automatic,main,108,20251027-123122,local,global,300,S,S,E,E,E-S.png,S-E.png,sS,sS,mask-3.png,mask-2.png,s,1,0.8556636999710463,none,-5,0,0.04756559996167198,0.04752290004398674,0.10043659998336807,0.09973710001213476,0.3015101999626495
RSVPLG03,JM,20251027-122324,1.0.1,20251020-085245,717,Experiment,T1,1,Automatic,main,109,20251027-123126,local,local,750,H,S,A,E,A-H.png,E-S.png,hH,sS,mask-1.png,mask-3.png,h,1,0.18315799999982119,none,-5,0,0.04713689995696768,0.04867619997821748,0.09996199997840449,0.10071919998154044,0.7491331999772228
RSVPLG03,JM,20251027-122324,1.0.1,20251020-085245,717,Experiment,T1,1,Automatic,main,110,20251027-123130,global,global,300,S,S,E,A,S-E.png,S-A.png,sS,sS,mask-2.png,mask-4.png,s,1,0.6134192000026815,none,-5,0,0.04695950000314042,0.047573399962857366,0.0997497999924235,0.09865080000599846,0.3007878999924287
RSVPLG03,JM,20251027-122324,1.0.1,20251020-085245,717,Experiment,T1,1,Automatic,main,111,20251027-123135,global,local,750,S,S,A,A,S-A.png,A-S.png,sS,sS,mask-1.png,mask-4.png,s,1,0.49651329999323934,none,-5,0,0.04654630000004545,0.04828489996725693,0.09943760000169277,0.09933109994744882,0.7486502000247128
RSVPLG03,JM,20251027-122324,1.0.1,20251020-085245,717,Experiment,T1,1,Automatic,main,112,20251027-123139,local,local,300,S,H,E,A,E-S.png,A-H.png,sS,hH,mask-4.png,mask-4.png,s,1,0.7060915000038221,none,-5,0,0.04844750004122034,0.0484767000307329,0.10051650000968948,0.10065099998610094,0.29954520001774654
RSVPLG03,JM,20251027-122324,1.0.1,20251020-085245,717,Experiment,T1,1,Automatic,main,113,20251027-123144,global,local,300,H,H,A,A,H-A.png,A-H.png,hH,hH,mask-1.png,mask-2.png,h,1,0.2759395000175573,none,-5,0,0.04767659999197349,0.04769289999967441,0.09986389998812228,0.10188980004750192,0.29931649996433407
RSVPLG03,JM,20251027-122324,1.0.1,20251020-085245,717,Experiment,T1,1,Automatic,main,114,20251027-123147,local,local,750,H,S,A,E,A-H.png,E-S.png,hH,sS,mask-4.png,mask-3.png,h,1,0.38631359999999404,none,-5,0,0.04818179999710992,0.046129200025461614,0.09947690000990406,0.10023280000314116,0.7503585999947973
RSVPLG03,JM,20251027-122324,1.0.1,20251020-085245,717,Experiment,T1,1,Automatic,main,115,20251027-123152,local,global,750,H,S,E,A,E-H.png,S-A.png,hH,sS,mask-2.png,mask-1.png,h,1,0.14954049995867535,none,-5,0,0.04663040000014007,0.04774210002506152,0.09971800004132092,0.09998260001884773,0.7489696000120603
RSVPLG03,JM,20251027-122324,1.0.1,20251020-085245,717,Experiment,T1,1,Automatic,main,116,20251027-123156,local,local,750,S,S,A,A,A-S.png,A-S.png,sS,sS,mask-3.png,mask-1.png,s,1,0.3337431000545621,none,-5,0,0.04866440000478178,0.047250500007066876,0.09999590000370517,0.10033290000865236,0.7508228999795392
RSVPLG03,JM,20251027-122324,1.0.1,20251020-085245,717,Experiment,T1,1,Automatic,main,117,20251027-123200,global,local,750,H,S,E,E,H-E.png,E-S.png,hH,sS,mask-3.png,mask-3.png,h,1,0.24825120001332834,none,-5,0,0.04755339998519048,0.04852880001999438,0.09959040000103414,0.10082629998214543,0.7495421000057831
RSVPLG03,JM,20251027-122324,1.0.1,20251020-085245,717,Experiment,T1,1,Automatic,main,118,20251027-123205,local,global,750,H,H,A,E,A-H.png,H-E.png,hH,hH,mask-3.png,mask-4.png,h,1,0.34659600001759827,none,-5,0,0.047773800033610314,0.04851839999901131,0.10017799999332055,0.10003810003399849,0.74924390000524
RSVPLG03,JM,20251027-122324,1.0.1,20251020-085245,717,Experiment,T1,1,Automatic,main,119,20251027-123209,global,local,300,H,S,A,E,H-A.png,E-S.png,hH,sS,mask-1.png,mask-3.png,h,1,0.4596812999807298,none,-5,0,0.04626560001634061,0.04634729999816045,0.09890849998919293,0.1001778999925591,0.2998386000399478
RSVPLG03,JM,20251027-122324,1.0.1,20251020-085245,717,Experiment,T1,1,Automatic,main,120,20251027-123213,global,local,300,S,H,E,E,S-E.png,E-H.png,sS,hH,mask-2.png,mask-4.png,s,1,0.30358270002761856,none,-5,0,0.047301200043875724,0.04672500002197921,0.09807599999476224,0.1008608000120148,0.299453400017228
RSVPLG03,JM,20251027-122324,1.0.1,20251020-085245,717,Experiment,T1,1,Automatic,main,121,20251027-123217,global,global,300,H,H,A,E,H-A.png,H-E.png,hH,hH,mask-2.png,mask-2.png,h,1,0.14888569997856393,none,-5,0,0.04707770003005862,0.0475814999663271,0.09902650001458824,0.09842619998380542,0.3007388000260107
RSVPLG03,JM,20251027-122324,1.0.1,20251020-085245,717,Experiment,T1,1,Automatic,main,122,20251027-123221,global,global,750,H,H,E,A,H-E.png,H-A.png,hH,hH,mask-3.png,mask-1.png,h,1,0.00932949996786192,none,-5,0,0.04738190001808107,0.04672669997671619,0.09875020000617951,0.09828839998226613,0.7498491000151262
RSVPLG03,JM,20251027-122324,1.0.1,20251020-085245,717,Experiment,T1,1,Automatic,main,123,20251027-123225,local,local,750,H,S,A,E,A-H.png,E-S.png,hH,sS,mask-2.png,mask-4.png,h,1,0.04594869998982176,none,-5,0,0.04755309998290613,0.0476071999873966,0.10073559999000281,0.1007918999530375,0.7499498000252061
RSVPLG03,JM,20251027-122324,1.0.1,20251020-085245,717,Experiment,T1,1,Automatic,main,124,20251027-123229,global,local,750,H,S,A,E,H-A.png,E-S.png,hH,sS,mask-2.png,mask-3.png,h,1,0.05661679996410385,none,-5,0,0.0475272000185214,0.04589880001731217,0.10071570001309738,0.09916559996781871,0.7504462000215426
RSVPLG03,JM,20251027-122324,1.0.1,20251020-085245,717,Experiment,T1,1,Automatic,main,125,20251027-123233,global,global,750,H,H,E,E,H-E.png,H-E.png,hH,hH,mask-1.png,mask-4.png,h,1,0.1508517000474967,none,-5,0,0.046884600014891475,0.04718870000215247,0.09920880000572652,0.10002160002477467,0.7491745000006631
RSVPLG03,JM,20251027-123257,1.0.1,20251020-085245,717,Experiment,Both,1,Automatic,warmup,1,20251027-123320,local,global,300,H,S,E,A,E-H.png,S-A.png,hH,sS,mask-3.png,mask-4.png,s,0,1.1539666000171565,s,1,0.10639349999837577,0.039054499997291714,0.0456774000194855,0.09286669996799901,0.09946100000524893,0.293294099974446
RSVPLG03,JM,20251027-123257,1.0.1,20251020-085245,717,Experiment,Both,1,Automatic,warmup,2,20251027-123325,global,local,750,S,S,A,E,S-A.png,E-S.png,sS,sS,mask-1.png,mask-3.png,s,1,0.48097340000094846,s,1,0.07736609998391941,0.04793589998735115,0.047487800009548664,0.10047459998168051,0.10008699999889359,0.7492492999881506
RSVPLG03,JM,20251027-123257,1.0.1,20251020-085245,717,Experiment,Both,1,Automatic,warmup,3,20251027-123330,local,global,750,S,S,E,E,E-S.png,S-E.png,sS,sS,mask-4.png,mask-3.png,s,1,0.3089956999756396,s,1,0.07112249999772757,0.049583799962420017,0.04654489998938516,0.10056389996316284,0.09962999995332211,0.7511311999987811
RSVPLG03,JM,20251027-123257,1.0.1,20251020-085245,717,Experiment,Both,1,Automatic,warmup,4,20251027-123334,global,global,750,H,S,E,E,H-E.png,S-E.png,hH,sS,mask-3.png,mask-4.png,h,1,0.35280460002832115,s,1,0.11228030000347644,0.04775319999316707,0.046887500036973506,0.09968809998827055,0.09972140000900254,0.7501210999907926
RSVPLG03,JM,20251027-123257,1.0.1,20251020-085245,717,Experiment,Both,1,Automatic,warmup,5,20251027-123339,global,global,300,H,H,E,A,H-E.png,H-A.png,hH,hH,mask-2.png,mask-3.png,h,1,0.510554599983152,h,1,0.08967909996863455,0.04733170004328713,0.04651899996679276,0.10009860002901405,0.10040009999647737,0.3007807000540197
RSVPLG03,JM,20251027-123257,1.0.1,20251020-085245,717,Experiment,Both,1,Automatic,main,6,20251027-123343,global,local,750,H,H,A,A,H-A.png,A-H.png,hH,hH,mask-3.png,mask-3.png,s,0,1.4897759000305086,s,0,0.05585529998643324,0.04779829998733476,0.04769600002327934,0.09824459999799728,0.0992606999934651,0.749540299992077
RSVPLG03,JM,20251027-123257,1.0.1,20251020-085245,717,Experiment,Both,1,Automatic,main,7,20251027-123349,local,global,300,S,H,A,A,A-S.png,H-A.png,sS,hH,mask-1.png,mask-2.png,h,0,0.4131141999969259,s,0,0.5095543999923393,0.047899400000460446,0.04700409999350086,0.10116820002440363,0.09983879997162148,0.30010510003194213
RSVPLG03,JM,20251027-123257,1.0.1,20251020-085245,717,Experiment,Both,1,Automatic,main,8,20251027-123353,local,local,750,S,S,A,E,A-S.png,E-S.png,sS,sS,mask-1.png,mask-3.png,s,1,0.48517649999121204,s,1,0.2953811000334099,0.047815300000365824,0.048603500006720424,0.10001940000802279,0.10065829998347908,0.7488595999893732
RSVPLG03,JM,20251027-123257,1.0.1,20251020-085245,717,Experiment,Both,1,Automatic,main,9,20251027-123358,global,local,300,S,H,E,A,S-E.png,A-H.png,sS,hH,mask-2.png,mask-3.png,s,1,0.3240904999547638,h,1,0.006936099962331355,0.04771080001955852,0.04770160000771284,0.09926320001250133,0.09890159999486059,0.3004740999895148
RSVPLG03,JM,20251027-123257,1.0.1,20251020-085245,717,Experiment,Both,1,Automatic,main,10,20251027-123402,local,local,300,S,S,A,A,A-S.png,A-S.png,sS,sS,mask-4.png,mask-2.png,h,0,0.47658039996167645,h,0,0.09708629996748641,0.04691810003714636,0.047926299972459674,0.09984460001578555,0.10017659998266026,0.2990142000489868
RSVPLG03,JM,20251027-123257,1.0.1,20251020-085245,717,Experiment,Both,1,Automatic,main,11,20251027-123406,local,local,750,H,H,A,E,A-H.png,E-H.png,hH,hH,mask-2.png,mask-3.png,h,1,0.4245655999984592,s,0,0.4726098999963142,0.04731690004700795,0.04771319997962564,0.10114660003455356,0.09974839998176321,0.7500054000411183
RSVPLG03,JM,20251027-123257,1.0.1,20251020-085245,717,Experiment,Both,1,Automatic,main,12,20251027-123411,global,global,300,H,H,A,E,H-A.png,H-E.png,hH,hH,mask-3.png,mask-4.png,s,0,4.5385366000118665,h,1,0.08900480001466349,0.04799560003448278,0.048032699967734516,0.09833459998480976,0.10009399999398738,0.2991796000278555
RSVPLG03,JM,20251027-123257,1.0.1,20251020-085245,717,Experiment,Both,1,Automatic,main,13,20251027-123419,global,global,750,H,S,A,E,H-A.png,S-E.png,hH,sS,mask-2.png,mask-4.png,h,1,0.27689710003323853,s,1,0.08107309998013079,0.047558599966578186,0.04860059998463839,0.10040589998243377,0.09939370001666248,0.7490746999974363
RSVPLG03,JM,20251027-123257,1.0.1,20251020-085245,717,Experiment,Both,1,Automatic,main,14,20251027-123424,local,global,300,H,H,E,E,E-H.png,H-E.png,hH,hH,mask-4.png,mask-4.png,h,1,0.41161360003752634,s,0,0.5853380999760702,0.04651660000672564,0.046274099964648485,0.09958119998918846,0.0986278000054881,0.30012249998981133
RSVPLG03,JM,20251027-123257,1.0.1,20251020-085245,717,Experiment,Both,1,Automatic,main,15,20251027-123428,global,local,750,S,H,A,A,S-A.png,A-H.png,sS,hH,mask-1.png,mask-3.png,s,1,0.37429320003138855,s,0,0.266959999979008,0.048630699981004,0.04654740000842139,0.10082150000380352,0.09914330003084615,0.7502895999932662
RSVPLG03,JM,20251027-123257,1.0.1,20251020-085245,717,Experiment,Both,1,Automatic,main,16,20251027-123433,global,global,750,S,S,E,E,S-E.png,S-E.png,sS,sS,mask-1.png,mask-3.png,s,1,0.2511483000125736,s,1,0.32313680002698675,0.048650800017639995,0.04655830003321171,0.10036919999402016,0.09935350000159815,0.7512482000165619
RSVPLG03,JM,20251027-123257,1.0.1,20251020-085245,717,Experiment,Both,1,Automatic,main,17,20251027-123438,global,global,750,S,S,A,A,S-A.png,S-A.png,sS,sS,mask-1.png,mask-1.png,s,1,0.31678950000787154,s,1,0.059897699975408614,0.04675189999397844,0.045948399987537414,0.1000478999922052,0.1002030999516137,0.7501289999927394
RSVPLG03,JM,20251027-123257,1.0.1,20251020-085245,717,Experiment,Both,1,Automatic,main,18,20251027-123442,global,local,750,S,S,E,A,S-E.png,A-S.png,sS,sS,mask-1.png,mask-4.png,s,1,0.4466077000251971,h,0,0.02282130002276972,0.04761120001785457,0.048723200045060366,0.10024719999637455,0.10197830002289265,0.7483385999803431
RSVPLG03,JM,20251027-123257,1.0.1,20251020-085245,717,Experiment,Both,1,Automatic,main,19,20251027-123447,local,global,750,H,H,A,E,A-H.png,H-E.png,hH,hH,mask-4.png,mask-2.png,s,0,0.8128673000028357,h,1,0.028243099979590625,0.04760410002199933,0.046719999983906746,0.1008375000092201,0.09899750002659857,0.7498790000099689
RSVPLG03,JM,20251027-123257,1.0.1,20251020-085245,717,Experiment,Both,1,Automatic,main,20,20251027-123452,local,global,300,S,S,A,E,A-S.png,S-E.png,sS,sS,mask-2.png,mask-2.png,s,1,0.5506671000039205,s,1,0.06606019998434931,0.047708400001283735,0.04670599999371916,0.09995050000725314,0.09895979997236282,0.30065520002972335
RSVPLG03,JM,20251027-123257,1.0.1,20251020-085245,717,Experiment,Both,1,Automatic,main,21,20251027-123456,global,global,750,S,H,A,A,S-A.png,H-A.png,sS,hH,mask-4.png,mask-2.png,s,1,0.35240420000627637,s,0,0.05393220001133159,0.04737400001613423,0.04651350004132837,0.10025280003901571,0.09852960001444444,0.7511384999961592
RSVPLG03,JM,20251027-123257,1.0.1,20251020-085245,717,Experiment,Both,1,Automatic,main,22,20251027-123501,global,global,750,H,S,E,E,H-E.png,S-E.png,hH,sS,mask-4.png,mask-2.png,s,0,0.4231265000416897,s,1,0.07575019996147603,0.04569870000705123,0.046851999999489635,0.0990929999970831,0.09905760001856834,0.7487425999715924
RSVPLG03,JM,20251027-123257,1.0.1,20251020-085245,717,Experiment,Both,1,Automatic,main,23,20251027-123506,global,global,300,S,S,A,E,S-A.png,S-E.png,sS,sS,mask-3.png,mask-2.png,s,1,0.34063970000715926,s,1,0.022752000018954277,0.04636830004164949,0.04752530000405386,0.09937220002757385,0.10081629996420816,0.29932440002448857
RSVPLG03,JM,20251027-123257,1.0.1,20251020-085245,717,Experiment,Both,1,Automatic,main,24,20251027-123510,global,local,300,H,S,A,A,H-A.png,A-S.png,hH,sS,mask-4.png,mask-1.png,h,1,0.42535830003907904,s,1,0.044766100007109344,0.045687499979976565,0.04733529995428398,0.09988420002628118,0.09999649995006621,0.2990723000257276
RSVPLG03,JM,20251027-123257,1.0.1,20251020-085245,717,Experiment,Both,1,Automatic,main,25,20251027-123514,local,local,750,S,H,E,E,E-S.png,E-H.png,sS,hH,mask-4.png,mask-2.png,s,1,0.7779141999781132,h,1,0.6787857000017539,0.04706609999993816,0.04739229998085648,0.09962709998944774,0.10010189999593422,0.7497331000049599
RSVPLG03,JM,20251027-123257,1.0.1,20251020-085245,717,Experiment,Both,1,Automatic,main,26,20251027-123544,global,global,300,H,H,A,A,H-A.png,H-A.png,hH,hH,mask-3.png,mask-3.png,h,1,0.5982678000000305,h,1,0.07144660002086312,0.046340900007635355,0.04731970001012087,0.10008220002055168,0.10006349999457598,0.299964000005275
RSVPLG03,JM,20251027-123257,1.0.1,20251020-085245,717,Experiment,Both,1,Automatic,main,27,20251027-123549,global,local,750,H,H,E,A,H-E.png,A-H.png,hH,hH,mask-2.png,mask-1.png,h,1,0.9594337000162341,h,1,0.0579635999747552,0.047157200053334236,0.04771050001727417,0.09861290000844747,0.09997169999405742,0.7487504000309855
RSVPLG03,JM,20251027-123257,1.0.1,20251020-085245,717,Experiment,Both,1,Automatic,main,28,20251027-123554,local,global,300,H,S,A,E,A-H.png,S-E.png,hH,sS,mask-4.png,mask-1.png,s,0,0.46530219999840483,s,1,0.028764699993189424,0.04659230000106618,0.04761860001599416,0.0996875999844633,0.09899450000375509,0.2993267999845557
RSVPLG03,JM,20251027-123257,1.0.1,20251020-085245,717,Experiment,Both,1,Automatic,main,29,20251027-123558,global,local,750,H,H,E,A,H-E.png,A-H.png,hH,hH,mask-3.png,mask-3.png,h,1,0.46660079999128357,s,0,0.05436569999437779,0.0456774000194855,0.04761720000533387,0.09853129996918142,0.10052949999226257,0.7478038999834098
RSVPLG03,JM,20251027-123257,1.0.1,20251020-085245,717,Experiment,Both,1,Automatic,main,30,20251027-123603,local,global,750,H,S,A,E,A-H.png,S-E.png,hH,sS,mask-1.png,mask-1.png,s,0,0.4156041999813169,s,1,0.06051630002912134,0.0473346000071615,0.04643360001500696,0.09838929999386892,0.10021220002090558,0.74936620000517
RSVPLG03,JM,20251027-123257,1.0.1,20251020-085245,717,Experiment,Both,1,Automatic,main,31,20251027-123607,global,global,300,H,S,E,A,H-E.png,S-A.png,hH,sS,mask-3.png,mask-2.png,h,1,0.3230485000531189,s,1,0.04044369998155162,0.04853299999376759,0.046483599988278,0.10056530003203079,0.10079629998654127,0.30005740001797676
RSVPLG03,JM,20251027-123257,1.0.1,20251020-085245,717,Experiment,Both,1,Automatic,main,32,20251027-123611,local,global,750,S,H,E,E,E-S.png,H-E.png,sS,hH,mask-1.png,mask-3.png,s,1,0.7660724999732338,h,1,0.029305100033525378,0.04762279998976737,0.048607700038701296,0.10160409996751696,0.0999809000059031,0.7499499999685213
RSVPLG03,JM,20251027-123257,1.0.1,20251020-085245,717,Experiment,Both,1,Automatic,main,33,20251027-123616,local,global,750,H,S,A,A,A-H.png,S-A.png,hH,sS,mask-4.png,mask-1.png,h,1,0.5668065000209026,s,1,0.08446270000422373,0.048373600002378225,0.047864000021945685,0.09961769997607917,0.10036889999173582,0.7488445999915712
RSVPLG03,JM,20251027-123257,1.0.1,20251020-085245,717,Experiment,Both,1,Automatic,main,34,20251027-123621,local,local,300,S,H,A,E,A-S.png,E-H.png,sS,hH,mask-3.png,mask-3.png,h,0,0.5685931000043638,s,0,0.055983100028242916,0.04749700002139434,0.0484258999931626,0.09896940004546195,0.1008492999826558,0.29835360002471134
RSVPLG03,JM,20251027-123257,1.0.1,20251020-085245,717,Experiment,Both,1,Automatic,main,35,20251027-123625,local,global,300,S,H,E,A,E-S.png,H-A.png,sS,hH,mask-2.png,mask-4.png,s,1,0.630656799999997,h,1,0.08785990002797917,0.04828360001556575,0.047611899964977056,0.10031700000399724,0.10092739999527112,0.30022170004667714
RSVPLG03,JM,20251027-123257,1.0.1,20251020-085245,717,Experiment,Both,1,Automatic,main,36,20251027-123630,local,global,750,S,S,A,E,A-S.png,S-E.png,sS,sS,mask-2.png,mask-2.png,h,0,0.6711554999928921,s,1,0.13176020001992583,0.04758070001844317,0.04791399999521673,0.09993359999498352,0.10034940001787618,0.749940300011076
RSVPLG03,JM,20251027-123257,1.0.1,20251020-085245,717,Experiment,Both,1,Automatic,main,37,20251027-123635,local,local,750,H,H,E,E,E-H.png,E-H.png,hH,hH,mask-4.png,mask-1.png,s,0,0.762303100025747,s,0,0.07118359999731183,0.04792100004851818,0.04653320001671091,0.09961050003767014,0.09899919998133555,0.7507603000267409
RSVPLG03,JM,20251027-123257,1.0.1,20251020-085245,717,Experiment,Both,1,Automatic,main,38,20251027-123640,local,global,750,H,H,A,A,A-H.png,H-A.png,hH,hH,mask-1.png,mask-1.png,h,1,0.8818847999791615,h,1,0.07603699999162927,0.047322999977041036,0.04798670002492145,0.0978441999759525,0.09879850002471358,0.748803999973461
RSVPLG03,JM,20251027-123257,1.0.1,20251020-085245,717,Experiment,Both,1,Automatic,main,39,20251027-123645,local,local,750,S,H,E,A,E-S.png,A-H.png,sS,hH,mask-2.png,mask-4.png,s,1,0.388513799989596,h,1,0.052253799978643656,0.047405999968759716,0.046537899994291365,0.09930429997621104,0.09988230001181364,0.7501893999869935
RSVPLG03,JM,20251027-123257,1.0.1,20251020-085245,717,Experiment,Both,1,Automatic,main,40,20251027-123649,local,local,750,H,S,E,E,E-H.png,E-S.png,hH,sS,mask-4.png,mask-4.png,h,1,0.5064497999846935,s,1,0.057131199981085956,0.04804140003398061,0.04655460000503808,0.10105920000933111,0.09977349999826401,0.7502313000150025
RSVPLG03,JM,20251027-123257,1.0.1,20251020-085245,717,Experiment,Both,1,Automatic,main,41,20251027-123654,global,global,750,S,S,A,A,S-A.png,S-A.png,sS,sS,mask-4.png,mask-4.png,s,1,0.384496099955868,s,1,0.0662165000103414,0.047410500003024936,0.049223900015931576,0.10172989999409765,0.10097170004155487,0.7492555999779142
RSVPLG03,JM,20251027-123257,1.0.1,20251020-085245,717,Experiment,Both,1,Automatic,main,42,20251027-123659,local,local,300,S,S,A,E,A-S.png,E-S.png,sS,sS,mask-4.png,mask-3.png,s,1,0.47146580001572147,s,1,0.056488399975933135,0.04741249996004626,0.04855559999123216,0.10142580000683665,0.10136639996198937,0.2999246999970637
RSVPLG03,JM,20251027-123257,1.0.1,20251020-085245,717,Experiment,Both,1,Automatic,main,43,20251027-123703,local,global,300,S,H,E,E,E-S.png,H-E.png,sS,hH,mask-1.png,mask-3.png,s,1,0.45182580000255257,h,1,0.5412416000035591,0.04796370002441108,0.04669480002485216,0.09927760000573471,0.10052949999226257,0.29996570001821965
RSVPLG03,JM,20251027-123257,1.0.1,20251020-085245,717,Experiment,Both,1,Automatic,main,44,20251027-123708,global,local,300,S,H,E,A,S-E.png,A-H.png,sS,hH,mask-4.png,mask-4.png,s,1,0.26606550003634766,h,1,0.17098340002121404,0.04653089999919757,0.047222299966961145,0.09978489996865392,0.09969599999021739,0.3000082999933511
RSVPLG03,JM,20251027-123257,1.0.1,20251020-085245,717,Experiment,Both,1,Automatic,main,45,20251027-123712,global,global,750,S,H,A,A,S-A.png,H-A.png,sS,hH,mask-3.png,mask-2.png,s,1,0.4133859999710694,h,1,0.04394130001310259,0.047523100045509636,0.046942599990870804,0.10001290001673624,0.10011190001387149,0.7498708000057377
RSVPLG03,JM,20251027-123257,1.0.1,20251020-085245,717,Experiment,Both,1,Automatic,main,46,20251027-123716,local,local,300,H,H,A,E,A-H.png,E-H.png,hH,hH,mask-3.png,mask-3.png,h,1,0.45876999996835366,s,0,0.10148579999804497,0.04658779996680096,0.04878180002560839,0.10067129996605217,0.10172859998419881,0.298903499962762
RSVPLG03,JM,20251027-123257,1.0.1,20251020-085245,717,Experiment,Both,1,Automatic,main,47,20251027-123721,local,global,750,H,H,E,E,E-H.png,H-E.png,hH,hH,mask-2.png,mask-3.png,s,0,0.673623199982103,h,1,0.04340209998190403,0.047715900000184774,0.04688270000042394,0.09983220003778115,0.09817030001431704,0.750637800025288
RSVPLG03,JM,20251027-123257,1.0.1,20251020-085245,717,Experiment,Both,1,Automatic,main,48,20251027-123726,global,local,750,H,S,E,A,H-E.png,A-S.png,hH,sS,mask-4.png,mask-2.png,h,1,0.2834858000278473,h,0,0.13896179996663705,0.04879669996444136,0.04757330002030358,0.09993849997408688,0.10150250000879169,0.7496750999707729
RSVPLG03,JM,20251027-123257,1.0.1,20251020-085245,717,Experiment,Both,1,Automatic,main,49,20251027-123730,local,global,750,H,H,A,A,A-H.png,H-A.png,hH,hH,mask-2.png,mask-3.png,h,1,0.6856884000007994,h,1,0.08696260000579059,0.04753390001133084,0.04753590002655983,0.09971809998387471,0.09962600003927946,0.7502662999904715
RSVPLG03,JM,20251027-123257,1.0.1,20251020-085245,717,Experiment,Both,1,Automatic,main,50,20251027-123735,local,local,750,H,S,E,A,E-H.png,A-S.png,hH,sS,mask-4.png,mask-3.png,h,1,0.5329789000097662,h,0,0.07251039997208863,0.047518600011244416,0.04749869997613132,0.09955060004722327,0.10153019998688251,0.7481158000300638
RSVPLG03,JM,20251027-123257,1.0.1,20251020-085245,717,Experiment,Both,1,Automatic,main,51,20251027-123800,local,local,300,S,S,E,E,E-S.png,E-S.png,sS,sS,mask-1.png,mask-1.png,s,1,0.3071304999757558,s,1,0.05735429999185726,0.04655500000808388,0.04753420001361519,0.09963480004807934,0.09936200000811368,0.2999118000152521
RSVPLG03,JM,20251027-123257,1.0.1,20251020-085245,717,Experiment,Both,1,Automatic,main,52,20251027-123804,local,local,750,H,H,A,E,A-H.png,E-H.png,hH,hH,mask-1.png,mask-3.png,h,1,0.6978112999931909,s,0,0.037052700005006045,0.04863489995477721,0.04657980002230033,0.10066989995539188,0.10040840000147,0.7502418999793008
RSVPLG03,JM,20251027-123257,1.0.1,20251020-085245,717,Experiment,Both,1,Automatic,main,53,20251027-123809,local,local,300,H,S,E,A,E-H.png,A-S.png,hH,sS,mask-3.png,mask-4.png,s,0,0.4687905000173487,h,0,0.28386419999878854,0.04748710000421852,0.04749600001377985,0.10059789998922497,0.10046990000410005,0.29964189999736845
RSVPLG03,JM,20251027-123257,1.0.1,20251020-085245,717,Experiment,Both,1,Automatic,main,54,20251027-123813,global,local,300,S,S,A,A,S-A.png,A-S.png,sS,sS,mask-4.png,mask-2.png,s,1,0.3515046000247821,h,0,0.04496630001813173,0.04757989995414391,0.04652999999234453,0.09993959998246282,0.09934620000422001,0.30070789996534586
RSVPLG03,JM,20251027-123257,1.0.1,20251020-085245,717,Experiment,Both,1,Automatic,main,55,20251027-123817,global,global,750,S,H,E,A,S-E.png,H-A.png,sS,hH,mask-2.png,mask-3.png,s,1,0.3227785999770276,h,1,0.00978899997426197,0.047386899997945875,0.04587349999928847,0.10036779998335987,0.09998840000480413,0.749440899991896
RSVPLG03,JM,20251027-123257,1.0.1,20251020-085245,717,Experiment,Both,1,Automatic,main,56,20251027-123822,global,global,750,H,H,E,E,H-E.png,H-E.png,hH,hH,mask-3.png,mask-3.png,h,1,1.0525068999850191,h,1,0.3468760999967344,0.047807800001464784,0.046244700031820685,0.09937399998307228,0.09810360003029928,0.7505139999557287
RSVPLG03,JM,20251027-123257,1.0.1,20251020-085245,717,Experiment,Both,1,Automatic,main,57,20251027-123827,local,global,300,S,H,A,E,A-S.png,H-E.png,sS,hH,mask-4.png,mask-3.png,h,0,0.3396781000192277,h,1,0.1872208999702707,0.04702659999020398,0.0468383000115864,0.09831590001704171,0.10086559999035671,0.29862539999885485
RSVPLG03,JM,20251027-123257,1.0.1,20251020-085245,717,Experiment,Both,1,Automatic,main,58,20251027-123831,global,global,750,H,H,E,A,H-E.png,H-A.png,hH,hH,mask-1.png,mask-1.png,h,1,0.23405110003659502,h,1,0.06979829998454079,0.04770440002903342,0.04765389999374747,0.09992639999836683,0.10083950002444908,0.7494991000276059
RSVPLG03,JM,20251027-123257,1.0.1,20251020-085245,717,Experiment,Both,1,Automatic,main,59,20251027-123836,global,local,300,H,H,E,E,H-E.png,E-H.png,hH,hH,mask-2.png,mask-4.png,h,1,0.5173793000285514,s,0,0.12486640003044158,0.04673569998703897,0.04880889999913052,0.10082180000608787,0.10091929999180138,0.29888879996724427
RSVPLG03,JM,20251027-123257,1.0.1,20251020-085245,717,Experiment,Both,1,Automatic,main,60,20251027-123840,local,global,300,S,S,E,E,E-S.png,S-E.png,sS,sS,mask-1.png,mask-1.png,s,1,0.26314250001451,s,1,0.2004921999759972,0.04830610001226887,0.04836939997039735,0.1008235999615863,0.10013370000524446,0.3007678000140004
RSVPLG03,JM,20251027-123257,1.0.1,20251020-085245,717,Experiment,Both,1,Automatic,main,61,20251027-123844,global,local,300,H,H,E,E,H-E.png,E-H.png,hH,hH,mask-2.png,mask-1.png,h,1,0.4588813000009395,h,1,0.5547431000159122,0.049339500023052096,0.04784529999596998,0.10042440000688657,0.09948200004873797,0.30067039997084066
RSVPLG03,JM,20251027-123257,1.0.1,20251020-085245,717,Experiment,Both,1,Automatic,main,62,20251027-123849,local,global,300,S,S,A,E,A-S.png,S-E.png,sS,sS,mask-3.png,mask-2.png,h,0,0.6229320999700576,s,1,0.7993891999940388,0.04879410000285134,0.04918729997007176,0.10119670000858605,0.09979629999725148,0.3002976000425406
RSVPLG03,JM,20251027-123257,1.0.1,20251020-085245,717,Experiment,Both,1,Automatic,main,63,20251027-123853,local,local,300,S,S,A,E,A-S.png,E-S.png,sS,sS,mask-1.png,mask-2.png,s,1,0.8505150999990292,s,1,0.08129920001374558,0.04741480003576726,0.04893140000058338,0.09862730000168085,0.10013829998206347,0.29832290002377704
RSVPLG03,JM,20251027-123257,1.0.1,20251020-085245,717,Experiment,Both,1,Automatic,main,64,20251027-123858,local,global,300,H,S,E,A,E-H.png,S-A.png,hH,sS,mask-3.png,mask-2.png,s,0,0.777985599997919,s,1,0.10761579999234527,0.04712279996601865,0.048135199991520494,0.10048979998100549,0.09948580001946539,0.2999975999700837
RSVPLG03,JM,20251027-123257,1.0.1,20251020-085245,717,Experiment,Both,1,Automatic,main,65,20251027-123903,local,local,750,H,S,E,E,E-H.png,E-S.png,hH,sS,mask-4.png,mask-2.png,h,1,0.6376867999788374,s,1,0.135238999966532,0.04758040001615882,0.0485259999986738,0.09998670005006716,0.09982850000960752,0.7490638000308536
RSVPLG03,JM,20251027-123257,1.0.1,20251020-085245,717,Experiment,Both,1,Automatic,main,66,20251027-123908,local,local,300,H,H,E,A,E-H.png,A-H.png,hH,hH,mask-3.png,mask-1.png,h,1,0.490527399990242,h,1,0.08822340000187978,0.046726000029593706,0.04774439998436719,0.09994769998593256,0.10046200000215322,0.2985348000074737
RSVPLG03,JM,20251027-123257,1.0.1,20251020-085245,717,Experiment,Both,1,Automatic,main,67,20251027-123912,global,local,750,S,H,E,E,S-E.png,E-H.png,sS,hH,mask-3.png,mask-3.png,s,1,0.3840461999643594,h,1,0.10779619996901602,0.046638699946925044,0.0471537999692373,0.10005129995988682,0.10071009997045621,0.7480551999760792
RSVPLG03,JM,20251027-123257,1.0.1,20251020-085245,717,Experiment,Both,1,Automatic,main,68,20251027-123916,global,global,300,S,S,E,E,S-E.png,S-E.png,sS,sS,mask-2.png,mask-2.png,s,1,0.3371352999820374,s,1,0.10609800001839176,0.04622560000279918,0.04612710000947118,0.09975350002059713,0.09924700000556186,0.29995519999647513
RSVPLG03,JM,20251027-123257,1.0.1,20251020-085245,717,Experiment,Both,1,Automatic,main,69,20251027-123921,global,global,750,S,S,E,E,S-E.png,S-E.png,sS,sS,mask-2.png,mask-1.png,s,1,0.3100653000292368,s,1,0.08490359998540953,0.04763909999746829,0.047552899981383234,0.10029729997040704,0.10090740001760423,0.750485899974592
RSVPLG03,JM,20251027-123257,1.0.1,20251020-085245,717,Experiment,Both,1,Automatic,main,70,20251027-123925,global,local,300,S,S,E,E,S-E.png,E-S.png,sS,sS,mask-4.png,mask-4.png,s,1,0.40286630002083257,s,1,0.05947330000344664,0.04635189997497946,0.04752129997359589,0.09938179998425767,0.0976714999997057,0.29964869999093935
RSVPLG03,JM,20251027-123257,1.0.1,20251020-085245,717,Experiment,Both,1,Automatic,main,71,20251027-123929,local,global,750,S,S,A,E,A-S.png,S-E.png,sS,sS,mask-4.png,mask-3.png,s,1,0.2737335999845527,s,1,0.08827260002726689,0.046658000035677105,0.04705270001431927,0.09980219998396933,0.09940690000075847,0.7487398000084795
RSVPLG03,JM,20251027-123257,1.0.1,20251020-085245,717,Experiment,Both,1,Automatic,main,72,20251027-123934,local,local,750,H,S,A,E,A-H.png,E-S.png,hH,sS,mask-3.png,mask-3.png,h,1,0.26986249996116385,s,1,0.10165099997539073,0.047763400012627244,0.046710999973583966,0.10021230002166703,0.10101449996000156,0.7495911000296474
RSVPLG03,JM,20251027-123257,1.0.1,20251020-085245,717,Experiment,Both,1,Automatic,main,73,20251027-123938,global,global,300,S,S,E,E,S-E.png,S-E.png,sS,sS,mask-3.png,mask-1.png,s,1,0.47049600002355874,s,1,0.0904364999732934,0.048551700019743294,0.04754800000227988,0.10175520001212135,0.099712900002487,0.3013588000321761
RSVPLG03,JM,20251027-123257,1.0.1,20251020-085245,717,Experiment,Both,1,Automatic,main,74,20251027-123943,global,local,750,S,H,E,E,S-E.png,E-H.png,sS,hH,mask-4.png,mask-4.png,s,1,0.8653314000112005,h,1,0.029001399991102517,0.04661010002018884,0.04773910000221804,0.09979970002314076,0.09884920000331476,0.7491958999889903
RSVPLG03,JM,20251027-123257,1.0.1,20251020-085245,717,Experiment,Both,1,Automatic,main,75,20251027-123948,local,global,300,H,S,A,E,A-H.png,S-E.png,hH,sS,mask-3.png,mask-4.png,h,1,0.30734390002908185,s,1,0.2855373999918811,0.04771020001498982,0.048352900019381195,0.10060660005547106,0.10117360000731423,0.29969870002241805
RSVPLG03,JM,20251027-123257,1.0.1,20251020-085245,717,Experiment,Both,1,Automatic,main,76,20251027-123952,global,global,300,S,S,A,A,S-A.png,S-A.png,sS,sS,mask-4.png,mask-3.png,s,1,0.2803779999958351,s,1,0.10910339996917173,0.04758330003824085,0.04672849999042228,0.0999308000318706,0.09797980001894757,0.3016764000058174
RSVPLG03,JM,20251027-123257,1.0.1,20251020-085245,717,Experiment,Both,1,Automatic,main,77,20251027-123956,global,local,300,H,H,E,A,H-E.png,A-H.png,hH,hH,mask-4.png,mask-2.png,h,1,0.29135740001220256,h,1,0.09059569996315986,0.04766949999611825,0.04689910000888631,0.09988930000690743,0.09996110002975911,0.3007071000174619
RSVPLG03,JM,20251027-123257,1.0.1,20251020-085245,717,Experiment,Both,1,Automatic,main,78,20251027-124000,global,global,750,H,S,E,E,H-E.png,S-E.png,hH,sS,mask-1.png,mask-3.png,h,1,0.22076559998095036,s,1,0.07314549997681752,0.04664419998880476,0.04746790003264323,0.09981769998557866,0.10070619999896735,0.7491265999851748
RSVPLG03,JM,20251027-123257,1.0.1,20251020-085245,717,Experiment,Both,1,Automatic,main,79,20251027-124005,local,local,300,S,H,A,E,A-S.png,E-H.png,sS,hH,mask-1.png,mask-2.png,h,0,0.42668189998948947,s,0,0.06111169996438548,0.048537899972870946,0.047656800015829504,0.09979090001434088,0.10002260003238916,0.29927939997287467
RSVPLG03,JM,20251027-123257,1.0.1,20251020-085245,717,Experiment,Both,1,Automatic,main,80,20251027-124009,local,local,300,H,H,A,A,A-H.png,A-H.png,hH,hH,mask-4.png,mask-3.png,h,1,0.19569439999759197,h,1,0.07714770000893623,0.04853560001356527,0.04773290001321584,0.10178450000239536,0.10011679999297485,0.30050050001591444
RSVPLG03,JM,20251027-123257,1.0.1,20251020-085245,717,Experiment,Both,1,Automatic,main,81,20251027-124013,global,local,750,H,H,A,E,H-A.png,E-H.png,hH,hH,mask-3.png,mask-4.png,h,1,0.26823830005014315,h,1,0.07505250000394881,0.04733759997179732,0.04747910000151023,0.10004280001157895,0.10053449997212738,0.7498539999942295
RSVPLG03,JM,20251027-123257,1.0.1,20251020-085245,717,Experiment,Both,1,Automatic,main,82,20251027-124018,local,global,300,H,S,E,A,E-H.png,S-A.png,hH,sS,mask-4.png,mask-1.png,h,1,0.33593659999314696,s,1,0.3004308000090532,0.04788979998556897,0.04896099999314174,0.10000699997181073,0.10131590004311875,0.3000740999705158
RSVPLG03,JM,20251027-123257,1.0.1,20251020-085245,717,Experiment,Both,1,Automatic,main,83,20251027-124022,local,global,750,H,S,E,E,E-H.png,S-E.png,hH,sS,mask-2.png,mask-4.png,h,1,0.323088499950245,s,1,0.12740480003412813,0.04778859997168183,0.04775620001601055,0.09915099997306243,0.09994869999354705,0.7498472000006586
RSVPLG03,JM,20251027-123257,1.0.1,20251020-085245,717,Experiment,Both,1,Automatic,main,84,20251027-124026,global,global,300,H,S,A,A,H-A.png,S-A.png,hH,sS,mask-3.png,mask-3.png,h,1,0.2092566000064835,s,1,0.1062225999776274,0.04673310002544895,0.047524900001008064,0.0999809000059031,0.0999374000239186,0.29976570000872016
RSVPLG03,JM,20251027-123257,1.0.1,20251020-085245,717,Experiment,Both,1,Automatic,main,85,20251027-124031,local,local,750,H,S,A,A,A-H.png,A-S.png,hH,sS,mask-2.png,mask-4.png,h,1,0.5233811999787576,h,0,0.07951569999568164,0.04752400005236268,0.04717410000739619,0.10043860005680472,0.1000736000132747,0.7501238000113517
RSVPLG03,JM,20251027-123257,1.0.1,20251020-085245,717,Experiment,Both,1,Automatic,main,86,20251027-124035,global,global,300,H,H,E,E,H-E.png,H-E.png,hH,hH,mask-3.png,mask-3.png,h,1,0.2950499000144191,h,1,0.08951979997800663,0.04764800000702962,0.04680730000836775,0.09893199999351054,0.09961970004951581,0.29892129998188466
RSVPLG03,JM,20251027-123257,1.0.1,20251020-085245,717,Experiment,Both,1,Automatic,main,87,20251027-124039,local,local,750,S,H,A,A,A-S.png,A-H.png,sS,hH,mask-2.png,mask-2.png,h,0,0.2224063000176102,h,1,0.07456440001260489,0.04651319998083636,0.04740590002620593,0.09879560000263155,0.10117259999969974,0.7488370999926701
RSVPLG03,JM,20251027-123257,1.0.1,20251020-085245,717,Experiment,Both,1,Automatic,main,88,20251027-124044,global,local,300,S,S,A,E,S-A.png,E-S.png,sS,sS,mask-4.png,mask-1.png,s,1,0.2171564000309445,s,1,0.22248039999976754,0.04875980003271252,0.04582439997466281,0.1016065000439994,0.09787389996927232,0.3014268000260927
RSVPLG03,JM,20251027-123257,1.0.1,20251020-085245,717,Experiment,Both,1,Automatic,main,89,20251027-124048,global,local,300,H,H,E,A,H-E.png,A-H.png,hH,hH,mask-2.png,mask-3.png,h,1,0.30462069995701313,h,1,0.055259999993722886,0.047823699947912246,0.04714869998861104,0.09978039999259636,0.10040949995163828,0.29974919999949634
RSVPLG03,JM,20251027-123257,1.0.1,20251020-085245,717,Experiment,Both,1,Automatic,main,90,20251027-124052,local,local,750,H,S,E,E,E-H.png,E-S.png,hH,sS,mask-1.png,mask-1.png,h,1,0.21987660002196208,s,1,0.02171620004810393,0.04884369997307658,0.0456218000035733,0.10006239998620003,0.09883149998495355,0.75142980000237
RSVPLG03,JM,20251027-123257,1.0.1,20251020-085245,717,Experiment,Both,1,Automatic,main,91,20251027-124056,local,global,750,H,S,E,A,E-H.png,S-A.png,hH,sS,mask-2.png,mask-4.png,h,1,0.3169241999858059,s,1,0.06849390000570565,0.046508500003255904,0.048116100020706654,0.09968019998632371,0.10071369999786839,0.7485485000070184
RSVPLG03,JM,20251027-123257,1.0.1,20251020-085245,717,Experiment,Both,1,Automatic,main,92,20251027-124101,global,local,750,H,H,E,A,H-E.png,A-H.png,hH,hH,mask-4.png,mask-1.png,h,1,0.2467476999736391,h,1,0.07802020001690835,0.04871250002179295,0.047722999996040016,0.09993899997789413,0.09991659998195246,0.7495116000063717
RSVPLG03,JM,20251027-123257,1.0.1,20251020-085245,717,Experiment,Both,1,Automatic,main,93,20251027-124105,global,global,300,H,H,A,E,H-A.png,H-E.png,hH,hH,mask-4.png,mask-4.png,h,1,0.41927799995755777,h,1,0.09197719994699582,0.04746810003416613,0.04830070002935827,0.09949350001988932,0.10003309999592602,0.2987839999841526
RSVPLG03,JM,20251027-123257,1.0.1,20251020-085245,717,Experiment,Both,1,Automatic,main,94,20251027-124109,local,local,750,H,H,E,E,E-H.png,E-H.png,hH,hH,mask-3.png,mask-1.png,h,1,0.20470729999942705,h,1,0.07689409999875352,0.04750310000963509,0.0478245000122115,0.10053809999953955,0.10018140001920983,0.7496185000054538
RSVPLG03,JM,20251027-123257,1.0.1,20251020-085245,717,Experiment,Both,1,Automatic,main,95,20251027-124114,global,global,300,H,S,E,E,H-E.png,S-E.png,hH,sS,mask-3.png,mask-4.png,h,1,0.46547320001991466,s,1,0.08715030003804713,0.04869160003727302,0.04850019997684285,0.10015900002326816,0.10146289999829605,0.2998162000440061
RSVPLG03,JM,20251027-123257,1.0.1,20251020-085245,717,Experiment,Both,1,Automatic,main,96,20251027-124118,local,global,750,H,H,A,A,A-H.png,H-A.png,hH,hH,mask-1.png,mask-3.png,h,1,0.20261879998724908,h,1,0.07110539998393506,0.04733139998279512,0.04697580001084134,0.09979990002466366,0.10008460003882647,0.7500513999839313
RSVPLG03,JM,20251027-123257,1.0.1,20251020-085245,717,Experiment,Both,1,Automatic,main,97,20251027-124122,global,local,750,S,S,E,A,S-E.png,A-S.png,sS,sS,mask-1.png,mask-1.png,s,1,0.05423379997955635,h,0,0.13906929997028783,0.04614140000194311,0.04637130000628531,0.09862549998797476,0.09882329998072237,0.7494079999742098
RSVPLG03,JM,20251027-123257,1.0.1,20251020-085245,717,Experiment,Both,1,Automatic,main,98,20251027-124127,local,local,300,S,H,E,E,E-S.png,E-H.png,sS,hH,mask-2.png,mask-1.png,s,1,0.35364990000380203,h,1,0.013795799983199686,0.046072600001934916,0.04606710001826286,0.09916610002983361,0.09947319998173043,0.299845700035803
