exp,exp_initials,runtime,ver,modtime,sub,blocktype,targets,cuetype,mode,trialtype,trial,trialtime,t1_level,t2_level,t2_lag,t1,t2,distractor1,distractor2,stimfile1,stimfile2,t1_corr,t2_corr,maskfile1,maskfile2,t1_resp,t1_acc,t1_rt,t2_resp,t2_acc,t2_rt,t1_dur,t2_dur,t1mask_soa,t2mask_soa,t1t2_soa
RSVPLG03,km,20260423-161753,1.0.2,20251113-095759,829,Introduction,T1,1,Automatic,main,1,20260423-161817,local,global,750,H,S,E,A,E-H.png,S-A.png,hH,sS,mask-3.png,mask-1.png,h,1,0.03833159990608692,none,-5,0,0.09243669966235757,0.09991310024634004,0.19134689960628748,0.20201030001044273,0.7432526997290552
RSVPLG03,km,20260423-161753,1.0.2,20251113-095759,829,Introduction,T1,1,Automatic,main,2,20260423-161821,global,global,750,H,H,E,A,H-E.png,H-A.png,hH,hH,mask-1.png,mask-1.png,s,0,2.2109531997703016,none,-5,0,0.10084319999441504,0.10192579962313175,0.2003421001136303,0.19994599977508187,0.7517051002942026
RSVPLG03,km,20260423-161753,1.0.2,20251113-095759,829,Introduction,T1,1,Automatic,main,3,20260423-161828,local,global,750,S,H,E,A,E-S.png,H-A.png,sS,hH,mask-1.png,mask-4.png,s,1,2.4001762000843883,none,-5,0,0.09995080018416047,0.10036479961127043,0.19994520023465157,0.19990449957549572,0.7494172002188861
RSVPLG03,km,20260423-161753,1.0.2,20251113-095759,829,Introduction,T1,1,Automatic,main,4,20260423-161834,global,local,750,H,H,A,A,H-A.png,A-H.png,hH,hH,mask-1.png,mask-2.png,h,1,0.8063301001675427,none,-5,0,0.09926389995962381,0.10197689989581704,0.20066630002111197,0.20163400005549192,0.7509767999872565
RSVPLG03,km,20260423-161753,1.0.2,20251113-095759,829,Introduction,T1,1,Automatic,main,5,20260423-161839,global,local,750,H,H,E,E,H-E.png,E-H.png,hH,hH,mask-1.png,mask-4.png,h,1,0.940431599970907,none,-5,0,0.09951240010559559,0.10189160006120801,0.1985587002709508,0.2019179998897016,0.7492932002060115
RSVPLG03,km,20260423-161753,1.0.2,20251113-095759,829,Introduction,T1,1,Automatic,main,6,20260423-161844,global,local,750,H,H,A,A,H-A.png,A-H.png,hH,hH,mask-1.png,mask-1.png,h,1,0.6689335997216403,none,-5,0,0.0988841000944376,0.10000320011749864,0.1994794001802802,0.20075810002163053,0.7505512000061572
RSVPLG03,km,20260423-161753,1.0.2,20251113-095759,829,Introduction,T1,1,Automatic,main,7,20260423-161849,local,local,750,H,H,E,E,E-H.png,E-H.png,hH,hH,mask-2.png,mask-4.png,h,1,0.8081037001684308,none,-5,0,0.09987360006198287,0.09904329990968108,0.20094180013984442,0.19852779991924763,0.7519523999653757
RSVPLG03,km,20260423-161753,1.0.2,20251113-095759,829,Introduction,T1,1,Automatic,main,8,20260423-161854,local,local,750,S,H,E,A,E-S.png,A-H.png,sS,hH,mask-3.png,mask-4.png,h,0,0.7661769003607333,none,-5,0,0.09993659984320402,0.09991060011088848,0.20098230009898543,0.20191479986533523,0.7505752998404205
RSVPLG03,km,20260423-161753,1.0.2,20251113-095759,829,Introduction,T1,1,Automatic,main,9,20260423-161859,global,global,750,H,S,A,A,H-A.png,S-A.png,hH,sS,mask-3.png,mask-1.png,h,1,1.18815749976784,none,-5,0,0.10179409990087152,0.09969040006399155,0.2016785000450909,0.2003113003447652,0.7503952998667955
RSVPLG03,km,20260423-161753,1.0.2,20251113-095759,829,Introduction,T1,1,Automatic,main,10,20260423-161904,local,local,750,H,S,A,A,A-H.png,A-S.png,hH,sS,mask-1.png,mask-1.png,h,1,1.3606300996616483,none,-5,0,0.09862960036844015,0.09977299999445677,0.2007251000031829,0.199571100063622,0.751331300009042
RSVPLG03,km,20260423-161753,1.0.2,20251113-095759,829,Introduction,T1,1,Automatic,main,11,20260423-161910,global,local,750,S,S,A,A,S-A.png,A-S.png,sS,sS,mask-3.png,mask-2.png,s,1,0.6965729002840817,none,-5,0,0.10011250013485551,0.09999840008094907,0.20023140031844378,0.19866220001131296,0.7507287003099918
RSVPLG03,km,20260423-161753,1.0.2,20251113-095759,829,Introduction,T1,1,Automatic,main,12,20260423-161915,local,global,750,H,H,E,E,E-H.png,H-E.png,hH,hH,mask-1.png,mask-3.png,s,0,2.2432205001823604,none,-5,0,0.09889260027557611,0.10025979997590184,0.1999099999666214,0.2016083998605609,0.7489831000566483
RSVPLG03,km,20260423-161753,1.0.2,20251113-095759,829,Introduction,T1,1,Automatic,main,13,20260423-161921,local,local,750,S,H,A,E,A-S.png,E-H.png,sS,hH,mask-2.png,mask-2.png,h,0,1.6763908001594245,none,-5,0,0.09995649987831712,0.10089810006320477,0.19996429979801178,0.19989759987220168,0.750004000030458
RSVPLG03,km,20260423-161753,1.0.2,20251113-095759,829,Introduction,T1,1,Automatic,main,14,20260423-161927,local,global,750,H,S,E,A,E-H.png,S-A.png,hH,sS,mask-4.png,mask-2.png,s,0,1.015493500046432,none,-5,0,0.09980139974504709,0.09851789986714721,0.19982399977743626,0.19850980024784803,0.7520940997637808
RSVPLG03,km,20260423-161753,1.0.2,20251113-095759,829,Introduction,T1,1,Automatic,main,15,20260423-161932,global,global,750,S,H,E,A,S-E.png,H-A.png,sS,hH,mask-1.png,mask-2.png,h,0,2.035730700008571,none,-5,0,0.09996430017054081,0.09995540045201778,0.20008750027045608,0.201528400182724,0.7503432999365032
RSVPLG03,km,20260423-161753,1.0.2,20251113-095759,829,Introduction,T1,1,Automatic,main,16,20260423-161938,global,global,750,H,S,A,E,H-A.png,S-E.png,hH,sS,mask-1.png,mask-4.png,s,0,1.108130699954927,none,-5,0,0.09988259989768267,0.09993070038035512,0.20111489994451404,0.1995718004181981,0.7520301998592913
RSVPLG03,km,20260423-162001,1.0.2,20251113-095759,829,Practice,T1,1,Automatic,main,1,20260423-162020,local,global,300,S,S,E,E,E-S.png,S-E.png,sS,sS,mask-1.png,mask-4.png,s,1,0.35617469996213913,none,-5,0,0.048219199758023024,0.05070349993184209,0.09753349982202053,0.10012830002233386,0.29830479994416237
RSVPLG03,km,20260423-162001,1.0.2,20251113-095759,829,Practice,T1,1,Automatic,main,2,20260423-162024,local,local,300,S,H,A,E,A-S.png,E-H.png,sS,hH,mask-3.png,mask-2.png,s,1,0.41673089982941747,none,-5,0,0.04876450030133128,0.05173749988898635,0.09963280009105802,0.10164939984679222,0.2993120001628995
RSVPLG03,km,20260423-162001,1.0.2,20251113-095759,829,Practice,T1,1,Automatic,main,3,20260423-162028,global,global,750,H,S,A,A,H-A.png,S-A.png,hH,sS,mask-3.png,mask-3.png,h,1,0.6481691999360919,none,-5,0,0.048714700154960155,0.050854400265961885,0.09923319984227419,0.09985559992492199,0.7517924997955561
RSVPLG03,km,20260423-162001,1.0.2,20251113-095759,829,Practice,T1,1,Automatic,main,4,20260423-162032,local,global,750,S,S,E,E,E-S.png,S-E.png,sS,sS,mask-2.png,mask-3.png,s,1,0.471620200201869,none,-5,0,0.0498969997279346,0.05003509996458888,0.09988219989463687,0.1000415999442339,0.7520770998671651
RSVPLG03,km,20260423-162001,1.0.2,20251113-095759,829,Practice,T1,1,Automatic,main,5,20260423-162037,global,local,750,H,H,A,E,H-A.png,E-H.png,hH,hH,mask-2.png,mask-4.png,h,1,0.5162161001935601,none,-5,0,0.051466300152242184,0.0484996996819973,0.10073229996487498,0.10004839999601245,0.7528946003876626
RSVPLG03,km,20260423-162001,1.0.2,20251113-095759,829,Practice,T1,1,Automatic,main,6,20260423-162041,global,global,300,S,S,A,A,S-A.png,S-A.png,sS,sS,mask-3.png,mask-4.png,s,1,0.5660466998815536,none,-5,0,0.05098440032452345,0.049665399827063084,0.10024050017818809,0.10092939995229244,0.30010730028152466
RSVPLG03,km,20260423-162001,1.0.2,20251113-095759,829,Practice,T1,1,Automatic,main,7,20260423-162045,local,local,300,H,S,E,E,E-H.png,E-S.png,hH,sS,mask-3.png,mask-4.png,h,1,0.3144319001585245,none,-5,0,0.05031669978052378,0.04889259999617934,0.10044629964977503,0.09955829987302423,0.3012692998163402
RSVPLG03,km,20260423-162001,1.0.2,20251113-095759,829,Practice,T1,1,Automatic,main,8,20260423-162049,global,local,300,H,S,A,A,H-A.png,A-S.png,hH,sS,mask-2.png,mask-1.png,h,1,0.5669062002561986,none,-5,0,0.04970450000837445,0.050033200066536665,0.09913549991324544,0.09824740001931787,0.3010907000862062
RSVPLG03,km,20260423-162001,1.0.2,20251113-095759,829,Practice,T1,1,Automatic,main,9,20260423-162053,global,global,750,H,H,A,E,H-A.png,H-E.png,hH,hH,mask-4.png,mask-2.png,h,1,0.6197116002440453,none,-5,0,0.05084039969369769,0.049870300106704235,0.09989889990538359,0.09981200005859137,0.7516449997201562
RSVPLG03,km,20260423-162001,1.0.2,20251113-095759,829,Practice,T1,1,Automatic,main,10,20260423-162058,local,local,750,H,H,A,E,A-H.png,E-H.png,hH,hH,mask-3.png,mask-4.png,h,1,1.0625521996989846,none,-5,0,0.0495615997351706,0.050725600216537714,0.09922940004616976,0.10102450009435415,0.7501381998881698
RSVPLG03,km,20260423-162001,1.0.2,20251113-095759,829,Practice,T1,1,Automatic,main,11,20260423-162103,global,global,300,H,S,E,A,H-E.png,S-A.png,hH,sS,mask-4.png,mask-3.png,h,1,1.2909253998659551,none,-5,0,0.04898830037564039,0.0506718996912241,0.09909930033609271,0.10155289992690086,0.29837940027937293
RSVPLG03,km,20260423-162001,1.0.2,20251113-095759,829,Practice,T1,1,Automatic,main,12,20260423-162108,local,global,750,H,H,E,E,E-H.png,H-E.png,hH,hH,mask-2.png,mask-2.png,h,1,0.30457499995827675,none,-5,0,0.050997099839150906,0.0500666000880301,0.10111840022727847,0.10026159975677729,0.7522994000464678
RSVPLG03,km,20260423-162001,1.0.2,20251113-095759,829,Practice,T1,1,Automatic,main,13,20260423-162112,global,local,750,H,S,A,A,H-A.png,A-S.png,hH,sS,mask-2.png,mask-2.png,h,1,0.40742090018466115,none,-5,0,0.049642699770629406,0.04967550002038479,0.1006666999310255,0.1004701997153461,0.7521379999816418
RSVPLG03,km,20260423-162001,1.0.2,20251113-095759,829,Practice,T1,1,Automatic,main,14,20260423-162116,local,local,750,S,S,E,E,E-S.png,E-S.png,sS,sS,mask-4.png,mask-3.png,s,1,0.32724530017003417,none,-5,0,0.051174100022763014,0.05003960011526942,0.09934499999508262,0.10015369998291135,0.7515326999127865
RSVPLG03,km,20260423-162001,1.0.2,20251113-095759,829,Practice,T1,1,Automatic,main,15,20260423-162121,global,local,300,S,H,E,E,S-E.png,E-H.png,sS,hH,mask-2.png,mask-1.png,s,1,0.7853764002211392,none,-5,0,0.048699900042265654,0.04865769995376468,0.10051710018888116,0.09878569981083274,0.29985690023750067
RSVPLG03,km,20260423-162001,1.0.2,20251113-095759,829,Practice,T1,1,Automatic,main,16,20260423-162125,local,global,300,H,H,E,A,E-H.png,H-A.png,hH,hH,mask-4.png,mask-1.png,h,1,0.4104921002872288,none,-5,0,0.04886960005387664,0.04967560013756156,0.09881770005449653,0.10052620014175773,0.29889679979532957
RSVPLG03,km,20260423-162153,1.0.2,20251113-095759,829,Introduction,Both,1,Automatic,main,1,20260423-162217,local,local,750,H,H,A,E,A-H.png,E-H.png,hH,hH,mask-1.png,mask-3.png,h,1,1.1904737995937467,h,1,1.8362699002027512,0.09440409997478127,0.10052949981763959,0.19492689985781908,0.2022736999206245,0.7465134998783469
RSVPLG03,km,20260423-162153,1.0.2,20251113-095759,829,Introduction,Both,1,Automatic,main,2,20260423-162224,global,global,750,H,H,E,A,H-E.png,H-A.png,hH,hH,mask-4.png,mask-3.png,h,1,1.3790700999088585,h,1,0.6577568002976477,0.09956569969654083,0.09845990035682917,0.1994922999292612,0.2001705002039671,0.7533355997875333
RSVPLG03,km,20260423-162153,1.0.2,20251113-095759,829,Introduction,Both,1,Automatic,main,3,20260423-162230,global,global,750,S,H,A,A,S-A.png,H-A.png,sS,hH,mask-4.png,mask-3.png,s,1,2.028399500064552,h,1,0.2064745002426207,0.10049069998785853,0.09988619992509484,0.19971089996397495,0.20089339977130294,0.752169500105083
RSVPLG03,km,20260423-162153,1.0.2,20251113-095759,829,Introduction,Both,1,Automatic,main,4,20260423-162237,local,global,750,S,H,E,E,E-S.png,H-E.png,sS,hH,mask-4.png,mask-1.png,s,1,4.817212000023574,h,1,0.4455492999404669,0.09931079996749759,0.09989019995555282,0.19929490005597472,0.20094949984923005,0.7524496000260115
RSVPLG03,km,20260423-162153,1.0.2,20251113-095759,829,Introduction,Both,1,Automatic,main,5,20260423-162246,global,global,750,H,H,A,E,H-A.png,H-E.png,hH,hH,mask-3.png,mask-1.png,h,1,2.197687800042331,h,1,0.3016273002140224,0.09932669997215271,0.09962579980492592,0.20084769977256656,0.20179039984941483,0.7516377000138164
RSVPLG03,km,20260423-162153,1.0.2,20251113-095759,829,Introduction,Both,1,Automatic,main,6,20260423-162253,global,local,750,H,H,E,E,H-E.png,E-H.png,hH,hH,mask-2.png,mask-1.png,h,1,1.3613746999762952,h,1,0.30384769989177585,0.10088479984551668,0.10087200021371245,0.20068809995427728,0.20085590006783605,0.7534696999937296
RSVPLG03,km,20260423-162153,1.0.2,20251113-095759,829,Introduction,Both,1,Automatic,main,7,20260423-162259,local,local,750,H,H,A,A,A-H.png,A-H.png,hH,hH,mask-3.png,mask-2.png,h,1,1.1176688000559807,h,1,0.384423999581486,0.09945519967004657,0.10097069991752505,0.20112379966303706,0.20143490005284548,0.7523484998382628
RSVPLG03,km,20260423-162153,1.0.2,20251113-095759,829,Introduction,Both,1,Automatic,main,8,20260423-162304,local,local,750,H,H,E,A,E-H.png,A-H.png,hH,hH,mask-3.png,mask-3.png,h,1,0.6209681001491845,h,1,0.3659727000631392,0.10001969989389181,0.1000403999350965,0.20125610008835793,0.20216119987890124,0.7522777998819947
RSVPLG03,km,20260423-162153,1.0.2,20251113-095759,829,Introduction,Both,1,Automatic,main,9,20260423-162310,global,global,750,S,H,A,E,S-A.png,H-E.png,sS,hH,mask-1.png,mask-2.png,s,1,2.7474030000157654,h,1,0.3498325003311038,0.10132999997586012,0.1009638998657465,0.20134769985452294,0.20086980005726218,0.7529405998066068
RSVPLG03,km,20260423-162153,1.0.2,20251113-095759,829,Introduction,Both,1,Automatic,main,10,20260423-162317,global,local,750,S,S,E,E,S-E.png,E-S.png,sS,sS,mask-2.png,mask-4.png,s,1,1.2240589996799827,s,1,0.3817229997366667,0.1016946998424828,0.10047740023583174,0.2011329997330904,0.20236320002004504,0.7527600997127593
RSVPLG03,km,20260423-162153,1.0.2,20251113-095759,829,Introduction,Both,1,Automatic,main,11,20260423-162323,local,local,750,H,S,A,A,A-H.png,A-S.png,hH,sS,mask-4.png,mask-1.png,h,1,2.199158899951726,s,1,0.16010520001873374,0.1008371002972126,0.10161429969593883,0.20067490031942725,0.20135069964453578,0.7528537004254758
RSVPLG03,km,20260423-162153,1.0.2,20251113-095759,829,Introduction,Both,1,Automatic,main,12,20260423-162330,local,global,750,S,S,E,A,E-S.png,S-A.png,sS,sS,mask-3.png,mask-1.png,s,1,1.3335158000700176,s,1,0.3650953001342714,0.09902830002829432,0.10188419977203012,0.2005121000111103,0.20098489988595247,0.7510579000227153
RSVPLG03,km,20260423-162153,1.0.2,20251113-095759,829,Introduction,Both,1,Automatic,main,13,20260423-162336,local,global,750,H,S,A,A,A-H.png,S-A.png,hH,sS,mask-2.png,mask-2.png,h,1,1.3124433998018503,s,1,0.25386569974943995,0.09946609986945987,0.10091080004349351,0.19855509977787733,0.19995580008253455,0.7520736996084452
RSVPLG03,km,20260423-162153,1.0.2,20251113-095759,829,Introduction,Both,1,Automatic,main,14,20260423-162341,global,local,750,S,H,A,E,S-A.png,E-H.png,sS,hH,mask-4.png,mask-2.png,s,1,1.9806070998311043,h,1,0.11001030029729009,0.10064359987154603,0.09990779962390661,0.20050029968842864,0.20000799978151917,0.7537406999617815
RSVPLG03,km,20260423-162153,1.0.2,20251113-095759,829,Introduction,Both,1,Automatic,main,15,20260423-162348,local,global,750,S,H,E,E,E-S.png,H-E.png,sS,hH,mask-3.png,mask-3.png,s,1,1.707353100180626,h,1,0.22140329983085394,0.10090170009061694,0.09988630004227161,0.1998967998661101,0.2000344004482031,0.7530119996517897
RSVPLG03,km,20260423-162153,1.0.2,20251113-095759,829,Introduction,Both,1,Automatic,main,16,20260423-162354,global,local,750,S,S,E,E,S-E.png,E-S.png,sS,sS,mask-1.png,mask-2.png,s,1,1.2414063001051545,s,1,0.12682799994945526,0.09998900024220347,0.09988369978964329,0.2003362001851201,0.19988409988582134,0.7540506003424525
RSVPLG03,km,20260423-162415,1.0.2,20251113-095759,829,Practice,Both,1,Automatic,main,1,20260423-162433,local,global,750,S,H,E,E,E-S.png,H-E.png,sS,hH,mask-4.png,mask-1.png,s,1,0.9263629000633955,h,1,0.6729306997731328,0.04013459989801049,0.05084700044244528,0.09025530004873872,0.09982530027627945,0.7423202996142209
RSVPLG03,km,20260423-162415,1.0.2,20251113-095759,829,Practice,Both,1,Automatic,main,2,20260423-162439,local,global,300,H,H,E,A,E-H.png,H-A.png,hH,hH,mask-1.png,mask-4.png,h,1,2.2105863001197577,h,1,1.566177099943161,0.04885669983923435,0.04863999970257282,0.09984140004962683,0.09984369995072484,0.29951340006664395
RSVPLG03,km,20260423-162415,1.0.2,20251113-095759,829,Practice,Both,1,Automatic,main,3,20260423-162446,local,global,300,H,H,A,E,A-H.png,H-E.png,hH,hH,mask-2.png,mask-2.png,h,1,2.0783991999924183,h,1,1.1516974000260234,0.050454200245440006,0.04834889993071556,0.1006784001365304,0.09979050001129508,0.3019662001170218
RSVPLG03,km,20260423-162415,1.0.2,20251113-095759,829,Practice,Both,1,Automatic,main,4,20260423-162453,global,local,750,S,S,A,A,S-A.png,A-S.png,sS,sS,mask-2.png,mask-3.png,s,1,1.065641799941659,s,1,0.32164360024034977,0.05087460018694401,0.04873429983854294,0.10084300022572279,0.09968739980831742,0.7511941003613174
RSVPLG03,km,20260423-162415,1.0.2,20251113-095759,829,Practice,Both,1,Automatic,main,5,20260423-162459,local,local,300,S,H,A,A,A-S.png,A-H.png,sS,hH,mask-3.png,mask-4.png,s,1,0.9447500999085605,h,1,0.20645100018009543,0.050772799644619226,0.04970439989119768,0.10062449984252453,0.09899810003116727,0.3018888998776674
RSVPLG03,km,20260423-162415,1.0.2,20251113-095759,829,Practice,Both,1,Automatic,main,6,20260423-162503,global,local,750,S,S,E,E,S-E.png,E-S.png,sS,sS,mask-4.png,mask-2.png,s,1,1.516013199929148,s,1,0.19163879984989762,0.04972450016066432,0.049166399985551834,0.09996679984033108,0.09927699994295835,0.751048999838531
RSVPLG03,km,20260423-162415,1.0.2,20251113-095759,829,Practice,Both,1,Automatic,main,7,20260423-162509,local,local,750,H,H,E,A,E-H.png,A-H.png,hH,hH,mask-1.png,mask-1.png,h,1,0.5837810998782516,h,1,0.26913459971547127,0.04864839976653457,0.05088810017332435,0.0993041000328958,0.10189920011907816,0.7503055999986827
RSVPLG03,km,20260423-162415,1.0.2,20251113-095759,829,Practice,Both,1,Automatic,main,8,20260423-162514,global,global,300,H,H,A,E,H-A.png,H-E.png,hH,hH,mask-2.png,mask-3.png,h,1,1.7379777999594808,h,1,0.1920019001699984,0.05103310011327267,0.050676099956035614,0.09982689982280135,0.10047840001061559,0.2996149999089539
RSVPLG03,km,20260423-162415,1.0.2,20251113-095759,829,Practice,Both,1,Automatic,main,9,20260423-162520,global,local,300,S,H,A,E,S-A.png,E-H.png,sS,hH,mask-1.png,mask-1.png,s,1,0.9416540004312992,s,0,0.6408806000836194,0.050032599829137325,0.04983890010043979,0.10034669982269406,0.09979359991848469,0.3004089999012649
RSVPLG03,km,20260423-162415,1.0.2,20251113-095759,829,Practice,Both,1,Automatic,main,10,20260423-162525,global,local,300,H,S,A,A,H-A.png,A-S.png,hH,sS,mask-1.png,mask-1.png,h,1,0.911444800440222,h,0,0.4932502000592649,0.05006879987195134,0.04958759993314743,0.0991961001418531,0.10015549976378679,0.2989337001927197
RSVPLG03,km,20260423-162415,1.0.2,20251113-095759,829,Practice,Both,1,Automatic,main,11,20260423-162530,local,local,300,S,H,E,A,E-S.png,A-H.png,sS,hH,mask-1.png,mask-1.png,s,1,1.9772645998746157,h,1,0.7346085999161005,0.049050699919462204,0.050767899956554174,0.10017480002716184,0.10072819981724024,0.2997208000160754
RSVPLG03,km,20260423-162415,1.0.2,20251113-095759,829,Practice,Both,1,Automatic,main,12,20260423-162536,local,local,750,S,S,A,A,A-S.png,A-S.png,sS,sS,mask-4.png,mask-4.png,s,1,0.779876499902457,s,1,0.14263250026851892,0.05151270003989339,0.05055629974231124,0.10153029998764396,0.10138699971139431,0.7505952003411949
RSVPLG03,km,20260423-162415,1.0.2,20251113-095759,829,Practice,Both,1,Automatic,main,13,20260423-162541,local,global,750,S,H,E,E,E-S.png,H-E.png,sS,hH,mask-1.png,mask-1.png,s,1,0.6378947999328375,h,1,0.7334779999218881,0.049839300103485584,0.05039370013400912,0.09968290012329817,0.10200640000402927,0.7488951999694109
RSVPLG03,km,20260423-162415,1.0.2,20251113-095759,829,Practice,Both,1,Automatic,main,14,20260423-162547,global,global,300,H,S,E,A,H-E.png,S-A.png,hH,sS,mask-3.png,mask-4.png,s,0,3.9065425996668637,h,0,0.15941909980028868,0.04837519954890013,0.05059649981558323,0.098573699593544,0.10130190011113882,0.29896119982004166
RSVPLG03,km,20260423-162415,1.0.2,20251113-095759,829,Practice,Both,1,Automatic,main,15,20260423-162555,global,global,750,H,S,E,A,H-E.png,S-A.png,hH,sS,mask-3.png,mask-3.png,h,1,0.5894363997504115,s,1,0.20760719990357757,0.04984720004722476,0.04985800012946129,0.10088180005550385,0.1032094000838697,0.7500046999193728
RSVPLG03,km,20260423-162415,1.0.2,20251113-095759,829,Practice,Both,1,Automatic,main,16,20260423-162600,global,global,750,S,S,A,A,S-A.png,S-A.png,sS,sS,mask-4.png,mask-1.png,s,1,1.1269052997231483,h,0,0.2059519998729229,0.050013200379908085,0.049839799758046865,0.10112770041450858,0.09980699978768826,0.7518284004181623
RSVPLG03,km,20260423-162741,1.0.2,20251113-095759,829,Experiment,Both,1,Automatic,warmup,1,20260423-162816,local,local,750,H,H,A,A,A-H.png,A-H.png,hH,hH,mask-4.png,mask-1.png,h,1,0.475541400257498,h,1,0.3175256000831723,0.04022639989852905,0.0510669001378119,0.0913285999558866,0.1001924998126924,0.740890699904412
RSVPLG03,km,20260423-162741,1.0.2,20251113-095759,829,Experiment,Both,1,Automatic,warmup,2,20260423-162821,global,global,300,H,H,A,A,H-A.png,H-A.png,hH,hH,mask-3.png,mask-1.png,h,1,1.0615852996706963,h,1,0.332678799983114,0.05009459983557463,0.04935749992728233,0.10022429982200265,0.10010910034179688,0.29841639986261725
RSVPLG03,km,20260423-162741,1.0.2,20251113-095759,829,Experiment,Both,1,Automatic,warmup,3,20260423-162826,local,global,750,H,H,E,A,E-H.png,H-A.png,hH,hH,mask-2.png,mask-2.png,h,1,0.7403994998894632,h,1,0.1556330001913011,0.04989399993792176,0.04889249987900257,0.09896639967337251,0.09929329995065928,0.7485100999474525
RSVPLG03,km,20260423-162741,1.0.2,20251113-095759,829,Experiment,Both,1,Automatic,warmup,4,20260423-162831,global,local,750,S,S,A,A,S-A.png,A-S.png,sS,sS,mask-2.png,mask-4.png,s,1,1.2150338999927044,s,1,0.23842080030590296,0.04968990013003349,0.049594399984925985,0.09967430029064417,0.10060689970850945,0.7491840003058314
RSVPLG03,km,20260423-162741,1.0.2,20251113-095759,829,Experiment,Both,1,Automatic,main,5,20260423-162837,local,global,750,H,H,A,E,A-H.png,H-E.png,hH,hH,mask-1.png,mask-4.png,h,1,0.737155799753964,h,1,0.1617681998759508,0.04989060014486313,0.04872600035741925,0.09985469980165362,0.09824720025062561,0.7504424997605383
RSVPLG03,km,20260423-162741,1.0.2,20251113-095759,829,Experiment,Both,1,Automatic,main,6,20260423-162842,global,local,300,H,H,E,E,H-E.png,E-H.png,hH,hH,mask-4.png,mask-1.png,h,1,0.8003687998279929,s,0,0.07756759971380234,0.04983989987522364,0.04990920005366206,0.09985759994015098,0.1009229002520442,0.29971779976040125
RSVPLG03,km,20260423-162741,1.0.2,20251113-095759,829,Experiment,Both,1,Automatic,main,7,20260423-162846,local,local,300,H,H,A,A,A-H.png,A-H.png,hH,hH,mask-2.png,mask-1.png,h,1,1.1401392999105155,h,1,0.6361118997447193,0.048573399893939495,0.05076400004327297,0.09854619996622205,0.1004011002369225,0.29792069969698787
RSVPLG03,km,20260423-162741,1.0.2,20251113-095759,829,Experiment,Both,1,Automatic,main,8,20260423-162851,global,local,300,H,S,E,E,H-E.png,E-S.png,hH,sS,mask-2.png,mask-2.png,h,1,0.5515259001404047,s,1,0.12883760035037994,0.04950999980792403,0.04829089995473623,0.09913600003346801,0.09892159979790449,0.3003221000544727
RSVPLG03,km,20260423-162741,1.0.2,20251113-095759,829,Experiment,Both,1,Automatic,main,9,20260423-162856,local,local,750,S,S,A,A,A-S.png,A-S.png,sS,sS,mask-4.png,mask-1.png,s,1,1.6301682000048459,s,1,0.09745470015332103,0.04998190002515912,0.0500190001912415,0.09814730007201433,0.1000993000343442,0.7480267998762429
RSVPLG03,km,20260423-162741,1.0.2,20251113-095759,829,Experiment,Both,1,Automatic,main,10,20260423-162902,global,local,750,S,H,E,E,S-E.png,E-H.png,sS,hH,mask-3.png,mask-2.png,s,1,0.6675423998385668,h,1,0.07944259978830814,0.048881000373512506,0.04995750030502677,0.09828320005908608,0.10030410019680858,0.7474853000603616
RSVPLG03,km,20260423-162741,1.0.2,20251113-095759,829,Experiment,Both,1,Automatic,main,11,20260423-162906,local,local,750,S,S,A,A,A-S.png,A-S.png,sS,sS,mask-3.png,mask-3.png,s,1,1.4763501002453268,h,0,0.14479599986225367,0.04974010027945042,0.051262699998915195,0.09946929989382625,0.10060540027916431,0.7483907998539507
RSVPLG03,km,20260423-162741,1.0.2,20251113-095759,829,Experiment,Both,1,Automatic,main,12,20260423-162912,global,local,300,S,S,A,E,S-A.png,E-S.png,sS,sS,mask-2.png,mask-2.png,s,1,0.9273866000585258,h,0,0.07692839996889234,0.05098529998213053,0.04931230004876852,0.10123809985816479,0.09981980035081506,0.3001211998052895
RSVPLG03,km,20260423-162741,1.0.2,20251113-095759,829,Experiment,Both,1,Automatic,main,13,20260423-162917,local,local,300,S,H,E,E,E-S.png,E-H.png,sS,hH,mask-4.png,mask-3.png,s,1,0.6975424000993371,h,1,0.14056249987334013,0.05028169974684715,0.05077419988811016,0.09946699999272823,0.09990089992061257,0.29960000002756715
RSVPLG03,km,20260423-162741,1.0.2,20251113-095759,829,Experiment,Both,1,Automatic,main,14,20260423-162921,local,global,300,H,S,E,E,E-H.png,S-E.png,hH,sS,mask-4.png,mask-2.png,s,0,1.2524135001003742,h,0,0.09271779982373118,0.0499936998821795,0.04965549986809492,0.09981840010732412,0.09951790003105998,0.29940810007974505
RSVPLG03,km,20260423-162741,1.0.2,20251113-095759,829,Experiment,Both,1,Automatic,main,15,20260423-162926,local,global,300,S,H,E,E,E-S.png,H-E.png,sS,hH,mask-2.png,mask-1.png,s,1,0.5746240001171827,h,1,0.1442132997326553,0.048553899861872196,0.04967049974948168,0.09959889994934201,0.10022469982504845,0.298331200145185
RSVPLG03,km,20260423-162741,1.0.2,20251113-095759,829,Experiment,Both,1,Automatic,main,16,20260423-162931,global,global,300,S,S,E,E,S-E.png,S-E.png,sS,sS,mask-2.png,mask-4.png,s,1,0.6118662999942899,h,0,0.1262686001136899,0.04976219963282347,0.0507451999001205,0.10066080000251532,0.10064199985936284,0.29938620002940297
RSVPLG03,km,20260423-162741,1.0.2,20251113-095759,829,Experiment,Both,1,Automatic,main,17,20260423-162935,local,global,300,S,S,A,E,A-S.png,S-E.png,sS,sS,mask-2.png,mask-1.png,s,1,0.742240299936384,h,0,0.12656040024012327,0.0498540997505188,0.050876600202172995,0.09947139956057072,0.09997630026191473,0.2982392995618284
RSVPLG03,km,20260423-162741,1.0.2,20251113-095759,829,Experiment,Both,1,Automatic,main,18,20260423-162939,global,local,300,S,H,E,E,S-E.png,E-H.png,sS,hH,mask-3.png,mask-4.png,s,1,0.9646483999677002,s,0,0.3187998002395034,0.05162400007247925,0.05013919994235039,0.1007221001200378,0.10058859968557954,0.2992723002098501
RSVPLG03,km,20260423-162741,1.0.2,20251113-095759,829,Experiment,Both,1,Automatic,main,19,20260423-162944,global,local,750,S,H,E,E,S-E.png,E-H.png,sS,hH,mask-4.png,mask-2.png,s,1,1.2150755999609828,h,1,0.28760260017588735,0.05055169994011521,0.050852800253778696,0.09993770020082593,0.1010243003256619,0.7497956999577582
RSVPLG03,km,20260423-162741,1.0.2,20251113-095759,829,Experiment,Both,1,Automatic,main,20,20260423-162950,local,local,300,S,S,E,A,E-S.png,A-S.png,sS,sS,mask-2.png,mask-2.png,s,1,0.5164391999132931,h,0,0.11047080019488931,0.04965390032157302,0.04957680031657219,0.09964619996026158,0.09935570042580366,0.2995124999433756
RSVPLG03,km,20260423-162741,1.0.2,20251113-095759,829,Experiment,Both,1,Automatic,main,21,20260423-162954,local,global,300,S,H,A,E,A-S.png,H-E.png,sS,hH,mask-1.png,mask-3.png,s,1,1.7325992998667061,h,1,0.12565780011937022,0.048911199904978275,0.04948720009997487,0.09929069969803095,0.09922390012070537,0.2992757996544242
RSVPLG03,km,20260423-162741,1.0.2,20251113-095759,829,Experiment,Both,1,Automatic,main,22,20260423-163000,global,global,750,S,S,E,E,S-E.png,S-E.png,sS,sS,mask-1.png,mask-3.png,s,1,1.250122300349176,s,1,0.688750899862498,0.05005100043490529,0.04934889962896705,0.09777300013229251,0.09912999998778105,0.7484588003717363
RSVPLG03,km,20260423-162741,1.0.2,20251113-095759,829,Experiment,Both,1,Automatic,main,23,20260423-163006,local,local,750,H,S,E,E,E-H.png,E-S.png,hH,sS,mask-2.png,mask-2.png,s,0,0.6184877003543079,h,0,0.09353560023009777,0.05002140020951629,0.05106920003890991,0.10006250021979213,0.09931010007858276,0.7490925998426974
RSVPLG03,km,20260423-162741,1.0.2,20251113-095759,829,Experiment,Both,1,Automatic,main,24,20260423-163010,local,local,750,H,H,E,A,E-H.png,A-H.png,hH,hH,mask-1.png,mask-3.png,h,1,0.6450757998973131,h,1,0.8470238000154495,0.0493923001922667,0.051090499851852655,0.09924800042062998,0.10021770000457764,0.7485362002626061
RSVPLG03,km,20260423-162741,1.0.2,20251113-095759,829,Experiment,Both,1,Automatic,main,25,20260423-163016,local,local,750,S,S,E,A,E-S.png,A-S.png,sS,sS,mask-3.png,mask-3.png,s,1,0.868654000107199,h,0,0.08216140000149608,0.05011649988591671,0.04988229973241687,0.09921179991215467,0.09991619968786836,0.7493826001882553
RSVPLG03,km,20260423-162741,1.0.2,20251113-095759,829,Experiment,Both,1,Automatic,main,26,20260423-163040,local,global,300,S,S,E,A,E-S.png,S-A.png,sS,sS,mask-4.png,mask-1.png,s,1,0.45199930015951395,h,0,0.07816299982368946,0.0500861001200974,0.0503115002065897,0.10129370028153062,0.09948100009933114,0.3001985000446439
RSVPLG03,km,20260423-162741,1.0.2,20251113-095759,829,Experiment,Both,1,Automatic,main,27,20260423-163044,global,local,750,H,H,E,E,H-E.png,E-H.png,hH,hH,mask-1.png,mask-2.png,h,1,0.549172000028193,h,1,0.2740695998072624,0.04986819997429848,0.04874200001358986,0.09884139988571405,0.09932270040735602,0.7489099996164441
RSVPLG03,km,20260423-162741,1.0.2,20251113-095759,829,Experiment,Both,1,Automatic,main,28,20260423-163049,global,global,750,H,H,E,A,H-E.png,H-A.png,hH,hH,mask-4.png,mask-3.png,h,1,0.5127729000523686,h,1,0.1433728002011776,0.04924320010468364,0.049856800120323896,0.09958640020340681,0.09999230038374662,0.7507675997912884
RSVPLG03,km,20260423-162741,1.0.2,20251113-095759,829,Experiment,Both,1,Automatic,main,29,20260423-163053,global,local,750,H,S,A,A,H-A.png,A-S.png,hH,sS,mask-2.png,mask-1.png,h,1,0.5312743997201324,s,1,0.09103470016270876,0.05066840024664998,0.04835369996726513,0.10052220011129975,0.0988103998824954,0.7497379002161324
RSVPLG03,km,20260423-162741,1.0.2,20251113-095759,829,Experiment,Both,1,Automatic,main,30,20260423-163058,global,local,300,S,S,A,A,S-A.png,A-S.png,sS,sS,mask-4.png,mask-3.png,s,1,1.0896524996496737,h,0,0.18959939992055297,0.049942499957978725,0.050702900160104036,0.0990756000392139,0.0995248002000153,0.300182499922812
RSVPLG03,km,20260423-162741,1.0.2,20251113-095759,829,Experiment,Both,1,Automatic,main,31,20260423-163103,local,global,300,S,S,A,E,A-S.png,S-E.png,sS,sS,mask-3.png,mask-1.png,s,1,0.6925011998973787,h,0,0.09690740006044507,0.04996889969334006,0.05010470002889633,0.10007799975574017,0.1000056997872889,0.2998641999438405
RSVPLG03,km,20260423-162741,1.0.2,20251113-095759,829,Experiment,Both,1,Automatic,main,32,20260423-163107,global,local,300,S,S,A,A,S-A.png,A-S.png,sS,sS,mask-1.png,mask-3.png,s,1,0.9605894996784627,h,0,0.5727589000016451,0.05133459996432066,0.04935640003532171,0.10082300007343292,0.09883949998766184,0.3008256000466645
RSVPLG03,km,20260423-162741,1.0.2,20251113-095759,829,Experiment,Both,1,Automatic,main,33,20260423-163113,global,global,750,H,H,A,A,H-A.png,H-A.png,hH,hH,mask-2.png,mask-4.png,h,1,0.48467120015993714,h,1,0.2185215000063181,0.04955070000141859,0.04984290013089776,0.10053209960460663,0.09971370035782456,0.748314299620688
RSVPLG03,km,20260423-162741,1.0.2,20251113-095759,829,Experiment,Both,1,Automatic,main,34,20260423-163117,local,global,750,S,H,E,E,E-S.png,H-E.png,sS,hH,mask-4.png,mask-1.png,s,1,3.528134999796748,h,1,0.26984470011666417,0.047704899683594704,0.048368599731475115,0.0986235998570919,0.09834000002592802,0.749026000034064
RSVPLG03,km,20260423-162741,1.0.2,20251113-095759,829,Experiment,Both,1,Automatic,main,35,20260423-163125,local,global,300,H,S,A,A,A-H.png,S-A.png,hH,sS,mask-2.png,mask-3.png,h,1,0.8264062996022403,s,1,0.09442989993840456,0.049822499975562096,0.04967250023037195,0.09979879995808005,0.10056500043720007,0.3001238997094333
RSVPLG03,km,20260423-162741,1.0.2,20251113-095759,829,Experiment,Both,1,Automatic,main,36,20260423-163130,local,local,750,S,S,E,A,E-S.png,A-S.png,sS,sS,mask-2.png,mask-3.png,s,1,1.0844771000556648,s,1,0.09348740009590983,0.049864699598401785,0.04966939985752106,0.09984769998118281,0.100441699847579,0.7495932998135686
RSVPLG03,km,20260423-162741,1.0.2,20251113-095759,829,Experiment,Both,1,Automatic,main,37,20260423-163135,global,global,750,S,H,E,E,S-E.png,H-E.png,sS,hH,mask-3.png,mask-1.png,s,1,0.8698272998444736,h,1,0.09468970028683543,0.04986769985407591,0.04859279980883002,0.10089149978011847,0.09793499996885657,0.74954740004614
RSVPLG03,km,20260423-162741,1.0.2,20251113-095759,829,Experiment,Both,1,Automatic,main,38,20260423-163140,global,global,750,S,S,E,E,S-E.png,S-E.png,sS,sS,mask-3.png,mask-1.png,s,1,1.1717254002578557,s,1,0.20631179958581924,0.049931100104004145,0.04987059999257326,0.09994729980826378,0.09987109992653131,0.7494057998992503
RSVPLG03,km,20260423-162741,1.0.2,20251113-095759,829,Experiment,Both,1,Automatic,main,39,20260423-163145,global,local,300,S,H,A,A,S-A.png,A-H.png,sS,hH,mask-2.png,mask-4.png,s,1,0.6935066999867558,h,1,0.12755180010572076,0.05059799971058965,0.04966370016336441,0.10048040002584457,0.09848209982737899,0.3010816997848451
RSVPLG03,km,20260423-162741,1.0.2,20251113-095759,829,Experiment,Both,1,Automatic,main,40,20260423-163150,local,global,300,S,S,E,A,E-S.png,S-A.png,sS,sS,mask-2.png,mask-2.png,s,1,0.712907399982214,s,1,0.33502859994769096,0.04997549997642636,0.0508376001380384,0.10007049981504679,0.09985999995842576,0.2983577996492386
RSVPLG03,km,20260423-162741,1.0.2,20251113-095759,829,Experiment,Both,1,Automatic,main,41,20260423-163155,local,local,300,S,S,A,E,A-S.png,E-S.png,sS,sS,mask-1.png,mask-3.png,s,1,0.47232860000804067,s,1,0.12481159996241331,0.04959519999101758,0.049619299825280905,0.10136139998212457,0.10126660019159317,0.29952909983694553
RSVPLG03,km,20260423-162741,1.0.2,20251113-095759,829,Experiment,Both,1,Automatic,main,42,20260423-163159,local,global,750,H,H,A,A,A-H.png,H-A.png,hH,hH,mask-1.png,mask-4.png,h,1,1.1142378002405167,h,1,0.8147204001434147,0.048596799839287996,0.049849099945276976,0.09840029990300536,0.09885399974882603,0.7493410999886692
RSVPLG03,km,20260423-162741,1.0.2,20251113-095759,829,Experiment,Both,1,Automatic,main,43,20260423-163205,global,global,300,H,H,A,A,H-A.png,H-A.png,hH,hH,mask-4.png,mask-1.png,h,1,0.8316775998100638,h,1,0.2860007002018392,0.0500942999497056,0.0505088996142149,0.1002237000502646,0.09996639983728528,0.29894520016387105
RSVPLG03,km,20260423-162741,1.0.2,20251113-095759,829,Experiment,Both,1,Automatic,main,44,20260423-163209,local,global,750,S,H,A,A,A-S.png,H-A.png,sS,hH,mask-2.png,mask-2.png,s,1,0.6791185000911355,h,1,1.963790699839592,0.0481330999173224,0.04973849980160594,0.09840339981019497,0.10069470014423132,0.7479034001007676
RSVPLG03,km,20260423-162741,1.0.2,20251113-095759,829,Experiment,Both,1,Automatic,main,45,20260423-163216,local,global,750,H,H,E,E,E-H.png,H-E.png,hH,hH,mask-2.png,mask-3.png,h,1,1.6873820000328124,h,1,0.2214518003165722,0.04973520012572408,0.04964140010997653,0.09946569986641407,0.09962770016863942,0.7501452998258173
RSVPLG03,km,20260423-162741,1.0.2,20251113-095759,829,Experiment,Both,1,Automatic,main,46,20260423-163222,local,local,300,S,S,E,A,E-S.png,A-S.png,sS,sS,mask-4.png,mask-1.png,s,1,0.8113609002903104,s,1,0.1256087999790907,0.04985379986464977,0.04933620011433959,0.09982959972694516,0.0987788001075387,0.30023999977856874
RSVPLG03,km,20260423-162741,1.0.2,20251113-095759,829,Experiment,Both,1,Automatic,main,47,20260423-163227,local,global,300,S,H,A,E,A-S.png,H-E.png,sS,hH,mask-3.png,mask-3.png,s,1,0.640425399877131,h,1,0.10949379997327924,0.0499145002104342,0.04885699972510338,0.10099840024486184,0.09911180008202791,0.2997966003604233
RSVPLG03,km,20260423-162741,1.0.2,20251113-095759,829,Experiment,Both,1,Automatic,main,48,20260423-163231,local,local,300,S,S,E,A,E-S.png,A-S.png,sS,sS,mask-3.png,mask-4.png,s,1,0.42749139992520213,s,1,0.13753110030665994,0.04992899997159839,0.0498755001462996,0.0993669000454247,0.09987250017002225,0.29923769971355796
RSVPLG03,km,20260423-162741,1.0.2,20251113-095759,829,Experiment,Both,1,Automatic,main,49,20260423-163235,global,local,300,S,S,E,A,S-E.png,A-S.png,sS,sS,mask-1.png,mask-3.png,s,1,1.2007081001065671,s,1,0.11237519979476929,0.04976420011371374,0.04957920033484697,0.09952459996566176,0.09865320008248091,0.3000206998549402
RSVPLG03,km,20260423-162741,1.0.2,20251113-095759,829,Experiment,Both,1,Automatic,main,50,20260423-163240,global,global,300,S,H,A,A,S-A.png,H-A.png,sS,hH,mask-2.png,mask-4.png,s,1,1.8304498000070453,s,0,0.09453420015051961,0.04992319969460368,0.04850520007312298,0.09885559976100922,0.10014059999957681,0.3002112996764481
RSVPLG03,km,20260423-162741,1.0.2,20251113-095759,829,Experiment,Both,1,Automatic,main,51,20260423-163306,local,global,750,H,H,E,A,E-H.png,H-A.png,hH,hH,mask-1.png,mask-2.png,h,1,0.6082219001837075,h,1,0.22151280008256435,0.04991940036416054,0.05002770014107227,0.10105400020256639,0.10012650024145842,0.7506578001193702
RSVPLG03,km,20260423-162741,1.0.2,20251113-095759,829,Experiment,Both,1,Automatic,main,52,20260423-163311,local,global,300,S,H,E,A,E-S.png,H-A.png,sS,hH,mask-2.png,mask-4.png,s,1,0.453908100258559,h,1,0.07855689991265535,0.04906190000474453,0.0493946997448802,0.09900700021535158,0.0993673000484705,0.3000759002752602
RSVPLG03,km,20260423-162741,1.0.2,20251113-095759,829,Experiment,Both,1,Automatic,main,53,20260423-163315,global,local,750,H,H,A,A,H-A.png,A-H.png,hH,hH,mask-2.png,mask-3.png,h,1,0.33364030020311475,h,1,0.10842779977247119,0.049850699957460165,0.05009809974581003,0.1000403999350965,0.09900179971009493,0.7495385999791324
RSVPLG03,km,20260423-162741,1.0.2,20251113-095759,829,Experiment,Both,1,Automatic,main,54,20260423-163320,local,local,300,S,H,A,A,A-S.png,A-H.png,sS,hH,mask-3.png,mask-3.png,s,1,0.48616129998117685,s,0,0.07657850021496415,0.048591900151222944,0.05041579995304346,0.09948120033368468,0.10017090011388063,0.29947410011664033
RSVPLG03,km,20260423-162741,1.0.2,20251113-095759,829,Experiment,Both,1,Automatic,main,55,20260423-163324,global,global,300,H,S,E,A,H-E.png,S-A.png,hH,sS,mask-4.png,mask-2.png,h,1,0.4854224002920091,h,0,0.1580548998899758,0.050006099976599216,0.05050270026549697,0.0990038001909852,0.10017400002107024,0.29871519980952144
RSVPLG03,km,20260423-162741,1.0.2,20251113-095759,829,Experiment,Both,1,Automatic,main,56,20260423-163328,global,local,750,H,H,A,E,H-A.png,E-H.png,hH,hH,mask-3.png,mask-1.png,h,1,0.614635800011456,h,1,0.2881414000876248,0.04904610011726618,0.05047499993816018,0.09847779991105199,0.09896229999139905,0.7487113000825047
RSVPLG03,km,20260423-162741,1.0.2,20251113-095759,829,Experiment,Both,1,Automatic,main,57,20260423-163333,global,local,300,H,H,E,A,H-E.png,A-H.png,hH,hH,mask-3.png,mask-4.png,h,1,0.5358023997396231,h,1,0.09551099967211485,0.048745700158178806,0.050716899801045656,0.09875740017741919,0.09953230014070868,0.29911490017548203
RSVPLG03,km,20260423-162741,1.0.2,20251113-095759,829,Experiment,Both,1,Automatic,main,58,20260423-163337,global,global,750,H,H,E,E,H-E.png,H-E.png,hH,hH,mask-3.png,mask-4.png,h,1,0.3252446996048093,h,1,0.12531609972938895,0.05082679959014058,0.049610599875450134,0.09968919958919287,0.09869839996099472,0.7497543999925256
RSVPLG03,km,20260423-162741,1.0.2,20251113-095759,829,Experiment,Both,1,Automatic,main,59,20260423-163342,global,global,750,H,H,E,A,H-E.png,H-A.png,hH,hH,mask-3.png,mask-2.png,h,1,0.3200781000778079,h,1,0.20952290017157793,0.050858700182288885,0.049859900027513504,0.10090010007843375,0.09978780010715127,0.7489720000885427
RSVPLG03,km,20260423-162741,1.0.2,20251113-095759,829,Experiment,Both,1,Automatic,main,60,20260423-163346,local,global,300,S,S,A,E,A-S.png,S-E.png,sS,sS,mask-3.png,mask-3.png,h,0,0.8449830003082752,s,1,0.04629520000889897,0.04836519993841648,0.05029019992798567,0.09959719981998205,0.09915800020098686,0.30003360006958246
RSVPLG03,km,20260423-162741,1.0.2,20251113-095759,829,Experiment,Both,1,Automatic,main,61,20260423-163351,global,global,300,S,S,A,E,S-A.png,S-E.png,sS,sS,mask-4.png,mask-2.png,s,1,0.6195581997744739,h,0,0.25744570000097156,0.04992450028657913,0.05093719996511936,0.09991860017180443,0.09867009986191988,0.2997787003405392
RSVPLG03,km,20260423-162741,1.0.2,20251113-095759,829,Experiment,Both,1,Automatic,main,62,20260423-163355,global,global,750,H,S,E,E,H-E.png,S-E.png,hH,sS,mask-1.png,mask-4.png,h,1,1.6344373999163508,h,0,0.6580113000236452,0.05029800022020936,0.04985649976879358,0.09965200023725629,0.09984860010445118,0.7490918003022671
RSVPLG03,km,20260423-162741,1.0.2,20251113-095759,829,Experiment,Both,1,Automatic,main,63,20260423-163402,global,local,750,S,S,A,E,S-A.png,E-S.png,sS,sS,mask-1.png,mask-4.png,s,1,0.6677271001972258,s,1,0.318482399918139,0.04981300001963973,0.04962640022858977,0.10080720018595457,0.09867360023781657,0.7504635998047888
RSVPLG03,km,20260423-162741,1.0.2,20251113-095759,829,Experiment,Both,1,Automatic,main,64,20260423-163407,global,local,300,H,S,E,A,H-E.png,A-S.png,hH,sS,mask-4.png,mask-3.png,h,1,0.517858199775219,h,0,0.17289579985663295,0.04964039986953139,0.05074639990925789,0.09951920015737414,0.09957440011203289,0.29980779998004436
RSVPLG03,km,20260423-162741,1.0.2,20251113-095759,829,Experiment,Both,1,Automatic,main,65,20260423-163411,global,global,300,S,S,A,E,S-A.png,S-E.png,sS,sS,mask-2.png,mask-4.png,s,1,0.45678510004654527,s,1,0.34929190017282963,0.04972330015152693,0.05152030009776354,0.09945240011438727,0.10014129988849163,0.2985894000157714
RSVPLG03,km,20260423-162741,1.0.2,20251113-095759,829,Experiment,Both,1,Automatic,main,66,20260423-163416,global,local,750,S,H,E,E,S-E.png,E-H.png,sS,hH,mask-2.png,mask-1.png,s,1,0.5970206996425986,s,0,0.12671170011162758,0.04811949981376529,0.05024239979684353,0.09811329981312156,0.09964949963614345,0.7472326001152396
RSVPLG03,km,20260423-162741,1.0.2,20251113-095759,829,Experiment,Both,1,Automatic,main,67,20260423-163421,local,local,300,H,H,A,E,A-H.png,E-H.png,hH,hH,mask-4.png,mask-4.png,h,1,0.8713088999502361,h,1,0.1940270997583866,0.04993829969316721,0.051979999989271164,0.10017520003020763,0.09907630039379,0.300070199649781
RSVPLG03,km,20260423-162741,1.0.2,20251113-095759,829,Experiment,Both,1,Automatic,main,68,20260423-163425,local,local,750,S,S,E,E,E-S.png,E-S.png,sS,sS,mask-3.png,mask-3.png,s,1,0.558593399822712,s,1,0.10912410030141473,0.05009099980816245,0.04985000006854534,0.10030119959264994,0.09989879978820682,0.749592499807477
RSVPLG03,km,20260423-162741,1.0.2,20251113-095759,829,Experiment,Both,1,Automatic,main,69,20260423-163430,global,global,750,S,S,A,E,S-A.png,S-E.png,sS,sS,mask-4.png,mask-1.png,s,1,0.4052242999896407,s,1,0.11263530002906919,0.04874530015513301,0.05087679997086525,0.09977270010858774,0.10001629963517189,0.7476890003308654
RSVPLG03,km,20260423-162741,1.0.2,20251113-095759,829,Experiment,Both,1,Automatic,main,70,20260423-163435,local,local,750,S,H,E,A,E-S.png,A-H.png,sS,hH,mask-2.png,mask-3.png,s,1,0.9873828999698162,h,1,0.07718440005555749,0.04988279985263944,0.049315699841827154,0.0997876999899745,0.09969040006399155,0.7497546998783946
RSVPLG03,km,20260423-162741,1.0.2,20251113-095759,829,Experiment,Both,1,Automatic,main,71,20260423-163440,global,global,300,H,H,A,A,H-A.png,H-A.png,hH,hH,mask-1.png,mask-4.png,h,1,0.8023094995878637,s,0,0.03081770008429885,0.049883400090038776,0.05090710008516908,0.1003597998060286,0.10095359990373254,0.29923779983073473
RSVPLG03,km,20260423-162741,1.0.2,20251113-095759,829,Experiment,Both,1,Automatic,main,72,20260423-163444,global,local,750,S,H,A,E,S-A.png,E-H.png,sS,hH,mask-2.png,mask-2.png,s,1,0.5326999998651445,h,1,0.12708080001175404,0.04985710000619292,0.048882799688726664,0.09970220038667321,0.0988427996635437,0.7495413003489375
RSVPLG03,km,20260423-162741,1.0.2,20251113-095759,829,Experiment,Both,1,Automatic,main,73,20260423-163449,global,local,300,S,S,A,E,S-A.png,E-S.png,sS,sS,mask-3.png,mask-1.png,s,1,0.5803358000703156,h,0,0.7177555002272129,0.05059110000729561,0.049485300201922655,0.10035829991102219,0.10136449988931417,0.2999005997553468
RSVPLG03,km,20260423-162741,1.0.2,20251113-095759,829,Experiment,Both,1,Automatic,main,74,20260423-163454,global,local,750,S,H,A,A,S-A.png,A-H.png,sS,hH,mask-3.png,mask-1.png,s,1,1.0334029998630285,h,1,0.9116143002174795,0.05030369991436601,0.05091980006545782,0.1008609002456069,0.09991690004244447,0.7489344999194145
RSVPLG03,km,20260423-162741,1.0.2,20251113-095759,829,Experiment,Both,1,Automatic,main,75,20260423-163500,global,global,300,S,H,A,E,S-A.png,H-E.png,sS,hH,mask-4.png,mask-2.png,s,1,0.5460819997824728,h,1,0.0661486997269094,0.05005590012297034,0.05007590027526021,0.0992319998331368,0.10095990030094981,0.29877599980682135
RSVPLG03,km,20260423-162741,1.0.2,20251113-095759,829,Experiment,Both,1,Automatic,main,76,20260423-163509,local,global,750,S,H,E,A,E-S.png,H-A.png,sS,hH,mask-2.png,mask-1.png,s,1,0.5001260000281036,h,1,0.04401100007817149,0.049512799829244614,0.04942589998245239,0.09933879971504211,0.0994254001416266,0.749459299724549
RSVPLG03,km,20260423-162741,1.0.2,20251113-095759,829,Experiment,Both,1,Automatic,main,77,20260423-163514,global,global,300,H,S,E,E,H-E.png,S-E.png,hH,sS,mask-1.png,mask-4.png,h,1,0.7545958999544382,s,1,0.03055319981649518,0.04858059994876385,0.04878909979015589,0.09975400008261204,0.09802229981869459,0.3007546002045274
RSVPLG03,km,20260423-162741,1.0.2,20251113-095759,829,Experiment,Both,1,Automatic,main,78,20260423-163518,global,global,750,S,S,A,A,S-A.png,S-A.png,sS,sS,mask-2.png,mask-1.png,s,1,1.0981382997706532,h,0,0.7680180999450386,0.05178160034120083,0.04965900024399161,0.10255010006949306,0.10048960009589791,0.7502115000970662
RSVPLG03,km,20260423-162741,1.0.2,20251113-095759,829,Experiment,Both,1,Automatic,main,79,20260423-163524,local,global,750,H,H,A,A,A-H.png,H-A.png,hH,hH,mask-3.png,mask-3.png,h,1,0.5634440002031624,h,1,0.10937709966674447,0.04994429973885417,0.048872300423681736,0.09995239973068237,0.10086530027911067,0.7489949995651841
RSVPLG03,km,20260423-162741,1.0.2,20251113-095759,829,Experiment,Both,1,Automatic,main,80,20260423-163529,local,local,300,H,H,A,E,A-H.png,E-H.png,hH,hH,mask-2.png,mask-3.png,h,1,0.7576695000752807,h,1,0.09577709995210171,0.04958390025421977,0.05022719968110323,0.09952760022133589,0.10059519996866584,0.2987340004183352
RSVPLG03,km,20260423-162741,1.0.2,20251113-095759,829,Experiment,Both,1,Automatic,main,81,20260423-163534,global,local,750,S,H,A,A,S-A.png,A-H.png,sS,hH,mask-4.png,mask-1.png,s,1,1.063041899818927,h,1,0.04624500032514334,0.04989599995315075,0.049760099966079,0.09815379977226257,0.09857740020379424,0.7488302998244762
RSVPLG03,km,20260423-162741,1.0.2,20251113-095759,829,Experiment,Both,1,Automatic,main,82,20260423-163539,local,global,300,S,H,A,E,A-S.png,H-E.png,sS,hH,mask-1.png,mask-4.png,h,0,0.6318065002560616,s,0,0.04356919974088669,0.04887779988348484,0.048668500036001205,0.09883869998157024,0.0980245997197926,0.29896359983831644
RSVPLG03,km,20260423-162741,1.0.2,20251113-095759,829,Experiment,Both,1,Automatic,main,83,20260423-163543,local,global,750,S,H,A,E,A-S.png,H-E.png,sS,hH,mask-2.png,mask-2.png,s,1,1.707296899985522,h,1,0.42954420018941164,0.04869569977745414,0.04869160009548068,0.09949439996853471,0.0994764999486506,0.74874969990924
RSVPLG03,km,20260423-162741,1.0.2,20251113-095759,829,Experiment,Both,1,Automatic,main,84,20260423-163549,local,local,750,S,S,E,E,E-S.png,E-S.png,sS,sS,mask-3.png,mask-3.png,s,1,0.44789049960672855,s,1,0.10979750007390976,0.0503388000652194,0.04955130023881793,0.10189370019361377,0.09951930027455091,0.7511606998741627
RSVPLG03,km,20260423-162741,1.0.2,20251113-095759,829,Experiment,Both,1,Automatic,main,85,20260423-163554,local,local,750,S,S,E,A,E-S.png,A-S.png,sS,sS,mask-4.png,mask-2.png,s,1,0.3737543998286128,s,1,0.1274011000059545,0.04980390006676316,0.048925500363111496,0.09977580001577735,0.09798650024458766,0.74978579999879
RSVPLG03,km,20260423-162741,1.0.2,20251113-095759,829,Experiment,Both,1,Automatic,main,86,20260423-163559,global,global,300,H,S,A,A,H-A.png,S-A.png,hH,sS,mask-3.png,mask-4.png,h,1,1.4713373999111354,s,1,0.045217900071293116,0.05163659993559122,0.04936450021341443,0.10035139974206686,0.0985611998476088,0.30094419978559017
RSVPLG03,km,20260423-162741,1.0.2,20251113-095759,829,Experiment,Both,1,Automatic,main,87,20260423-163604,local,global,750,H,S,A,A,A-H.png,S-A.png,hH,sS,mask-3.png,mask-4.png,h,1,0.629683000035584,s,1,0.1269386000931263,0.050669300369918346,0.04878890002146363,0.10156420012935996,0.09877819987013936,0.7501974003389478
RSVPLG03,km,20260423-162741,1.0.2,20251113-095759,829,Experiment,Both,1,Automatic,main,88,20260423-163609,local,local,300,S,S,E,E,E-S.png,E-S.png,sS,sS,mask-3.png,mask-4.png,s,1,0.39135139994323254,s,1,0.11048270016908646,0.04960169969126582,0.04988620011135936,0.0996000999584794,0.09964130027219653,0.29843289963901043
RSVPLG03,km,20260423-162741,1.0.2,20251113-095759,829,Experiment,Both,1,Automatic,main,89,20260423-163613,local,global,750,S,S,E,A,E-S.png,S-A.png,sS,sS,mask-2.png,mask-3.png,s,1,0.8176054996438324,s,1,0.11009919969365001,0.04896369995549321,0.049555900041013956,0.09772139973938465,0.0993575002066791,0.748046999797225
RSVPLG03,km,20260423-162741,1.0.2,20251113-095759,829,Experiment,Both,1,Automatic,main,90,20260423-163618,local,global,750,S,S,E,A,E-S.png,S-A.png,sS,sS,mask-2.png,mask-3.png,s,1,0.6891439999453723,s,1,0.09352630004286766,0.051038400270044804,0.048784700222313404,0.10018020030111074,0.09910849994048476,0.7498221001587808
RSVPLG03,km,20260423-162741,1.0.2,20251113-095759,829,Experiment,Both,1,Automatic,main,91,20260423-163623,global,local,750,S,S,A,A,S-A.png,A-S.png,sS,sS,mask-1.png,mask-4.png,s,1,0.7430537999607623,s,1,0.241559199988842,0.049860899802297354,0.04954570019617677,0.09983239974826574,0.10020720027387142,0.7494064997881651
RSVPLG03,km,20260423-162741,1.0.2,20251113-095759,829,Experiment,Both,1,Automatic,main,92,20260423-163628,local,local,750,H,S,E,E,E-H.png,E-S.png,hH,sS,mask-3.png,mask-4.png,h,1,0.5827580997720361,s,1,0.07855880027636886,0.05090790009126067,0.04883009986951947,0.10088729998096824,0.09945430001243949,0.750002000015229
RSVPLG03,km,20260423-162741,1.0.2,20251113-095759,829,Experiment,Both,1,Automatic,main,93,20260423-163633,local,local,750,S,H,A,A,A-S.png,A-H.png,sS,hH,mask-1.png,mask-2.png,s,1,1.0625667003914714,h,1,0.2557367002591491,0.04982919991016388,0.049496700055897236,0.10019049979746342,0.09803650015965104,0.7492968998849392
RSVPLG03,km,20260423-162741,1.0.2,20251113-095759,829,Experiment,Both,1,Automatic,main,94,20260423-163638,global,global,300,S,H,A,A,S-A.png,H-A.png,sS,hH,mask-2.png,mask-3.png,s,1,0.5766036999411881,h,1,0.07753959996625781,0.04797119973227382,0.049072600435465574,0.09996329993009567,0.10059000039473176,0.2976837996393442
RSVPLG03,km,20260423-162741,1.0.2,20251113-095759,829,Experiment,Both,1,Automatic,main,95,20260423-163642,global,local,300,H,S,A,E,H-A.png,E-S.png,hH,sS,mask-2.png,mask-3.png,h,1,0.5444891997613013,s,1,0.04940610006451607,0.04867639997974038,0.04892140021547675,0.09913730015978217,0.09965059999376535,0.30085959983989596
RSVPLG03,km,20260423-162741,1.0.2,20251113-095759,829,Experiment,Both,1,Automatic,main,96,20260423-163646,local,local,300,H,S,E,A,E-H.png,A-S.png,hH,sS,mask-1.png,mask-1.png,h,1,0.6548212999477983,s,1,0.029528199695050716,0.049134999979287386,0.04798009991645813,0.09945360012352467,0.09826919995248318,0.3014842001721263
RSVPLG03,km,20260423-162741,1.0.2,20251113-095759,829,Experiment,Both,1,Automatic,main,97,20260423-163651,local,local,300,H,S,A,A,A-H.png,A-S.png,hH,sS,mask-1.png,mask-1.png,h,1,0.7909738998860121,s,1,0.028929600026458502,0.04991080006584525,0.04988890001550317,0.09986579976975918,0.09989890037104487,0.2987917996942997
RSVPLG03,km,20260423-162741,1.0.2,20251113-095759,829,Experiment,Both,1,Automatic,main,98,20260423-163655,global,global,300,S,H,A,A,S-A.png,H-A.png,sS,hH,mask-2.png,mask-4.png,h,0,0.7315218998119235,s,0,0.0980686997063458,0.04897919995710254,0.04869120009243488,0.10047339973971248,0.09911349974572659,0.29935829993337393
RSVPLG03,km,20260423-162741,1.0.2,20251113-095759,829,Experiment,Both,1,Automatic,main,99,20260423-163700,global,global,750,S,H,E,A,S-E.png,H-A.png,sS,hH,mask-3.png,mask-1.png,s,1,0.5201519997790456,h,1,0.014182399958372116,0.04899250017479062,0.05067580007016659,0.09907980030402541,0.10044820001348853,0.7483251001685858
RSVPLG03,km,20260423-162741,1.0.2,20251113-095759,829,Experiment,Both,1,Automatic,main,100,20260423-163704,global,global,750,H,H,A,A,H-A.png,H-A.png,hH,hH,mask-1.png,mask-1.png,h,1,0.4339789003133774,h,1,0.5229519000276923,0.04859590018168092,0.049990400206297636,0.09910740004852414,0.10020220000296831,0.749626699835062
RSVPLG03,km,20260423-163743,1.0.2,20251113-095759,829,Experiment,Both,1,Automatic,warmup,1,20260423-163811,local,global,300,S,S,E,A,E-S.png,S-A.png,sS,sS,mask-1.png,mask-2.png,s,1,0.4478645999915898,h,0,0.014214999973773956,0.041930800303816795,0.0496887001208961,0.09260360011830926,0.10014980006963015,0.2905541001819074
RSVPLG03,km,20260423-163743,1.0.2,20251113-095759,829,Experiment,Both,1,Automatic,warmup,2,20260423-163815,global,local,300,S,S,A,A,S-A.png,A-S.png,sS,sS,mask-3.png,mask-3.png,s,1,0.3932822998613119,h,0,0.012338100001215935,0.04950499953702092,0.04992770031094551,0.10026029963046312,0.09889700030907989,0.299611599650234
RSVPLG03,km,20260423-163743,1.0.2,20251113-095759,829,Experiment,Both,1,Automatic,warmup,3,20260423-163819,local,local,750,H,H,A,A,A-H.png,A-H.png,hH,hH,mask-1.png,mask-4.png,h,1,0.42264150036498904,h,1,0.09368080040439963,0.049796899780631065,0.048659199848771095,0.09885710012167692,0.09883179981261492,0.7484328001737595
RSVPLG03,km,20260423-163743,1.0.2,20251113-095759,829,Experiment,Both,1,Automatic,warmup,4,20260423-163824,local,local,300,S,S,A,E,A-S.png,E-S.png,sS,sS,mask-3.png,mask-3.png,h,0,0.4414895996451378,h,0,0.09289480000734329,0.05049729999154806,0.050956799648702145,0.09916630014777184,0.10000059986487031,0.2991782003082335
RSVPLG03,km,20260423-163743,1.0.2,20251113-095759,829,Experiment,Both,1,Automatic,main,5,20260423-163828,global,global,300,H,S,E,A,H-E.png,S-A.png,hH,sS,mask-4.png,mask-4.png,h,1,0.40368600003421307,s,1,0.06253969995304942,0.048584799747914076,0.050205300096422434,0.09862199984490871,0.10021959990262985,0.2982395999133587
RSVPLG03,km,20260423-163743,1.0.2,20251113-095759,829,Experiment,Both,1,Automatic,main,6,20260423-163832,global,local,300,S,S,E,A,S-E.png,A-S.png,sS,sS,mask-1.png,mask-3.png,s,1,0.3807299002073705,h,0,0.062095100060105324,0.04955969983711839,0.04936219984665513,0.09780990006402135,0.09815779980272055,0.2985628000460565
RSVPLG03,km,20260423-163743,1.0.2,20251113-095759,829,Experiment,Both,1,Automatic,main,7,20260423-163836,local,global,750,S,H,E,A,E-S.png,H-A.png,sS,hH,mask-3.png,mask-1.png,s,1,0.5959535003639758,h,1,0.04408820020034909,0.048931699711829424,0.05141259962692857,0.09912699973210692,0.10107139963656664,0.7469615000300109
RSVPLG03,km,20260423-163743,1.0.2,20251113-095759,829,Experiment,Both,1,Automatic,main,8,20260423-163841,global,global,750,S,H,E,A,S-E.png,H-A.png,sS,hH,mask-1.png,mask-3.png,s,1,0.432337099686265,h,1,0.030377000104635954,0.05086029972881079,0.048562100157141685,0.09990749973803759,0.09871880011633039,0.7492295997217298
RSVPLG03,km,20260423-163743,1.0.2,20251113-095759,829,Experiment,Both,1,Automatic,main,9,20260423-163845,global,local,750,S,S,A,A,S-A.png,A-S.png,sS,sS,mask-1.png,mask-2.png,s,1,0.5098520000465214,h,0,0.11051890021190047,0.048711900133639574,0.04987930040806532,0.09915510006248951,0.099919100292027,0.74879390001297
RSVPLG03,km,20260423-163743,1.0.2,20251113-095759,829,Experiment,Both,1,Automatic,main,10,20260423-163850,global,global,300,S,S,A,E,S-A.png,S-E.png,sS,sS,mask-2.png,mask-1.png,s,1,0.6715216999873519,s,1,0.5602230001240969,0.04919599974527955,0.050986799877136946,0.09953950019553304,0.10000819992274046,0.29788880003616214
RSVPLG03,km,20260423-163743,1.0.2,20251113-095759,829,Experiment,Both,1,Automatic,main,11,20260423-163855,global,global,300,H,H,E,A,H-E.png,H-A.png,hH,hH,mask-3.png,mask-2.png,h,1,0.4859602996148169,h,1,0.34786910004913807,0.04985870001837611,0.049865399952977896,0.09986119996756315,0.09986309986561537,0.29993660002946854
RSVPLG03,km,20260423-163743,1.0.2,20251113-095759,829,Experiment,Both,1,Automatic,main,12,20260423-163859,local,global,300,H,S,A,A,A-H.png,S-A.png,hH,sS,mask-3.png,mask-3.png,h,1,0.46416820026934147,s,1,0.033649499993771315,0.049905600026249886,0.04905960010364652,0.09761339984834194,0.0989137003198266,0.298762499820441
RSVPLG03,km,20260423-163743,1.0.2,20251113-095759,829,Experiment,Both,1,Automatic,main,13,20260423-163903,local,local,300,H,S,E,A,E-H.png,A-S.png,hH,sS,mask-2.png,mask-4.png,h,1,0.6930122999474406,s,1,0.07881169999018312,0.049332800321280956,0.05068680038675666,0.09905690001323819,0.0994679001159966,0.2986469999887049
RSVPLG03,km,20260423-163743,1.0.2,20251113-095759,829,Experiment,Both,1,Automatic,main,14,20260423-163908,local,global,750,H,S,E,E,E-H.png,S-E.png,hH,sS,mask-1.png,mask-4.png,h,1,0.433022300247103,s,1,0.08030570019036531,0.05005359975621104,0.050095700193196535,0.10014669969677925,0.10001860000193119,0.7481907997280359
RSVPLG03,km,20260423-163743,1.0.2,20251113-095759,829,Experiment,Both,1,Automatic,main,15,20260423-163912,local,local,300,S,S,E,E,E-S.png,E-S.png,sS,sS,mask-3.png,mask-2.png,h,0,1.5085460999980569,s,1,0.06122370017692447,0.050401899963617325,0.04812700022011995,0.09996379958465695,0.09868200030177832,0.3011391996406019
RSVPLG03,km,20260423-163743,1.0.2,20251113-095759,829,Experiment,Both,1,Automatic,main,16,20260423-163918,local,local,750,S,S,A,E,A-S.png,E-S.png,sS,sS,mask-3.png,mask-4.png,s,1,0.3875121995806694,s,1,0.06411019992083311,0.04966939985752106,0.050891300197690725,0.09942439990118146,0.09966630022972822,0.7482233997434378
RSVPLG03,km,20260423-163743,1.0.2,20251113-095759,829,Experiment,Both,1,Automatic,main,17,20260423-163922,global,local,300,S,S,E,E,S-E.png,E-S.png,sS,sS,mask-4.png,mask-3.png,s,1,0.4136529001407325,h,0,0.06252440018579364,0.0499652000144124,0.049694899935275316,0.10056849988177419,0.10039249993860722,0.29879110027104616
RSVPLG03,km,20260423-163743,1.0.2,20251113-095759,829,Experiment,Both,1,Automatic,main,18,20260423-163926,global,global,300,S,S,A,E,S-A.png,S-E.png,sS,sS,mask-2.png,mask-2.png,s,1,0.38693679962307215,s,1,0.10636990005150437,0.050576199777424335,0.049794699996709824,0.09932549996301532,0.1007069000042975,0.2990600001066923
RSVPLG03,km,20260423-163743,1.0.2,20251113-095759,829,Experiment,Both,1,Automatic,main,19,20260423-163930,global,global,750,S,S,E,E,S-E.png,S-E.png,sS,sS,mask-3.png,mask-4.png,s,1,0.4276030999608338,s,1,0.07762470003217459,0.04840020043775439,0.048476300202310085,0.09837090037763119,0.09972820011898875,0.7477012001909316
RSVPLG03,km,20260423-163743,1.0.2,20251113-095759,829,Experiment,Both,1,Automatic,main,20,20260423-163935,local,local,300,H,S,A,E,A-H.png,E-S.png,hH,sS,mask-4.png,mask-2.png,h,1,1.0648296000435948,h,0,0.8022390999831259,0.05087750032544136,0.04887069994583726,0.09985920041799545,0.09988589957356453,0.2998996004462242
RSVPLG03,km,20260423-163743,1.0.2,20251113-095759,829,Experiment,Both,1,Automatic,main,21,20260423-163940,local,global,300,H,H,E,A,E-H.png,H-A.png,hH,hH,mask-1.png,mask-2.png,h,1,0.47395840007811785,s,0,0.8729726998135448,0.05086610000580549,0.050868500024080276,0.09947500005364418,0.10095790028572083,0.2991305999457836
RSVPLG03,km,20260423-163743,1.0.2,20251113-095759,829,Experiment,Both,1,Automatic,main,22,20260423-163945,global,global,750,S,H,E,E,S-E.png,H-E.png,sS,hH,mask-2.png,mask-2.png,s,1,0.33791640028357506,h,1,0.076621999964118,0.049904000014066696,0.04989939974620938,0.10091219982132316,0.10105889989063144,0.7478497000411153
RSVPLG03,km,20260423-163743,1.0.2,20251113-095759,829,Experiment,Both,1,Automatic,main,23,20260423-163950,global,global,300,H,H,E,A,H-E.png,H-A.png,hH,hH,mask-2.png,mask-3.png,h,1,0.3973361002281308,h,1,0.09527029981836677,0.05171649996191263,0.04952519992366433,0.10056830011308193,0.10035250009968877,0.29984029987826943
RSVPLG03,km,20260423-163743,1.0.2,20251113-095759,829,Experiment,Both,1,Automatic,main,24,20260423-163954,global,global,750,H,H,E,E,H-E.png,H-E.png,hH,hH,mask-2.png,mask-1.png,h,1,0.286593500059098,h,1,0.07750329980626702,0.04989589983597398,0.05066690035164356,0.09896859992295504,0.09949490008875728,0.7480470999144018
RSVPLG03,km,20260423-163743,1.0.2,20251113-095759,829,Experiment,Both,1,Automatic,main,25,20260423-163958,local,local,300,S,H,A,A,A-S.png,A-H.png,sS,hH,mask-4.png,mask-1.png,s,1,0.7613523998297751,h,1,0.051327799912542105,0.04987110011279583,0.048792799934744835,0.09890530025586486,0.09847649978473783,0.29972210014238954
RSVPLG03,km,20260423-163743,1.0.2,20251113-095759,829,Experiment,Both,1,Automatic,main,26,20260423-164005,local,local,300,H,H,E,A,E-H.png,A-H.png,hH,hH,mask-1.png,mask-4.png,h,1,0.38186389999464154,h,1,0.07856089994311333,0.0501067996956408,0.05044779973104596,0.10031959973275661,0.09925549989566207,0.29962579999119043
RSVPLG03,km,20260423-163743,1.0.2,20251113-095759,829,Experiment,Both,1,Automatic,main,27,20260423-164009,local,local,750,S,S,E,A,E-S.png,A-S.png,sS,sS,mask-2.png,mask-3.png,s,1,0.5127035998739302,h,0,0.07740559987723827,0.04886050010100007,0.048618500120937824,0.09887170000001788,0.10000690026208758,0.747661099769175
RSVPLG03,km,20260423-163743,1.0.2,20251113-095759,829,Experiment,Both,1,Automatic,main,28,20260423-164014,global,local,750,H,H,E,E,H-E.png,E-H.png,hH,hH,mask-2.png,mask-3.png,h,1,0.451163399964571,s,0,1.7243217998184264,0.049703000113368034,0.04968620045110583,0.10068030003458261,0.09957640012726188,0.7481498997658491
RSVPLG03,km,20260423-163743,1.0.2,20251113-095759,829,Experiment,Both,1,Automatic,main,29,20260423-164020,global,local,750,H,H,A,A,H-A.png,A-H.png,hH,hH,mask-3.png,mask-1.png,h,1,0.4350177999585867,h,1,0.1120346998795867,0.050534400157630444,0.050931500270962715,0.10057649994269013,0.10118609992787242,0.7485338998958468
RSVPLG03,km,20260423-163743,1.0.2,20251113-095759,829,Experiment,Both,1,Automatic,main,30,20260423-164025,local,local,750,H,S,E,E,E-H.png,E-S.png,hH,sS,mask-1.png,mask-3.png,h,1,0.3662437000311911,s,1,0.10762420017272234,0.04978160001337528,0.04970690002664924,0.098677400033921,0.10047389985993505,0.7479952001012862
RSVPLG03,km,20260423-163743,1.0.2,20251113-095759,829,Experiment,Both,1,Automatic,main,31,20260423-164029,global,local,750,H,H,A,A,H-A.png,A-H.png,hH,hH,mask-4.png,mask-4.png,h,1,0.33745819982141256,h,1,0.12650249991565943,0.05002050008624792,0.0490163997747004,0.09825670020654798,0.10009570000693202,0.7475579003803432
RSVPLG03,km,20260423-163743,1.0.2,20251113-095759,829,Experiment,Both,1,Automatic,main,32,20260423-164034,global,global,750,H,H,A,A,H-A.png,H-A.png,hH,hH,mask-3.png,mask-2.png,h,1,0.2586400997824967,h,1,0.12312120012938976,0.04895179998129606,0.048796700313687325,0.09953129990026355,0.10039150016382337,0.7474480997771025
RSVPLG03,km,20260423-163743,1.0.2,20251113-095759,829,Experiment,Both,1,Automatic,main,33,20260423-164038,local,global,750,H,S,A,A,A-H.png,S-A.png,hH,sS,mask-3.png,mask-3.png,h,1,0.8257873998954892,h,0,0.39951839996501803,0.04895940003916621,0.04874679958447814,0.09917489998042583,0.10057389969006181,0.7489896002225578
RSVPLG03,km,20260423-163743,1.0.2,20251113-095759,829,Experiment,Both,1,Automatic,main,34,20260423-164043,global,global,300,H,H,A,E,H-A.png,H-E.png,hH,hH,mask-1.png,mask-2.png,h,1,0.4492369000799954,s,0,0.12643379997462034,0.04864150006324053,0.049315799959003925,0.10019390005618334,0.09880119981244206,0.29929080000147223
RSVPLG03,km,20260423-163743,1.0.2,20251113-095759,829,Experiment,Both,1,Automatic,main,35,20260423-164048,global,local,300,S,S,A,E,S-A.png,E-S.png,sS,sS,mask-2.png,mask-1.png,s,1,0.4592352001927793,h,0,0.12761239986866713,0.04987280024215579,0.0499188001267612,0.09996969997882843,0.09986549988389015,0.298790100030601
RSVPLG03,km,20260423-163743,1.0.2,20251113-095759,829,Experiment,Both,1,Automatic,main,36,20260423-164052,local,global,750,S,H,A,E,A-S.png,H-E.png,sS,hH,mask-4.png,mask-3.png,h,0,0.5459549999795854,h,1,0.09753759996965528,0.05077529978007078,0.051233300007879734,0.1015629000030458,0.10011100023984909,0.7485085995867848
RSVPLG03,km,20260423-163743,1.0.2,20251113-095759,829,Experiment,Both,1,Automatic,main,37,20260423-164056,local,global,300,H,H,E,E,E-H.png,H-E.png,hH,hH,mask-1.png,mask-3.png,h,1,0.6083958996459842,s,0,0.4504423998296261,0.05033010011538863,0.050422600004822016,0.10081559978425503,0.09964830009266734,0.2987613999284804
RSVPLG03,km,20260423-163743,1.0.2,20251113-095759,829,Experiment,Both,1,Automatic,main,38,20260423-164101,global,global,750,S,S,E,A,S-E.png,S-A.png,sS,sS,mask-4.png,mask-2.png,s,1,1.2509729000739753,h,0,0.49549400014802814,0.04971260018646717,0.04879589984193444,0.09930820018053055,0.09798590000718832,0.7498087999410927
RSVPLG03,km,20260423-163743,1.0.2,20251113-095759,829,Experiment,Both,1,Automatic,main,39,20260423-164107,global,local,750,H,H,E,A,H-E.png,A-H.png,hH,hH,mask-3.png,mask-3.png,h,1,0.39474150026217103,h,1,0.12981930002570152,0.048729199916124344,0.049624300096184015,0.10043850028887391,0.0997872999869287,0.7486145999282598
RSVPLG03,km,20260423-163743,1.0.2,20251113-095759,829,Experiment,Both,1,Automatic,main,40,20260423-164112,local,local,300,H,S,E,A,E-H.png,A-S.png,hH,sS,mask-1.png,mask-3.png,h,1,0.4008974996395409,s,1,0.12618819996714592,0.049376099836081266,0.04831920005381107,0.09883720008656383,0.0997919999063015,0.29882009979337454
RSVPLG03,km,20260423-163743,1.0.2,20251113-095759,829,Experiment,Both,1,Automatic,main,41,20260423-164116,global,local,750,S,S,E,E,S-E.png,E-S.png,sS,sS,mask-4.png,mask-4.png,h,0,1.6651061000302434,s,1,0.1100921998731792,0.0500471000559628,0.04932399978861213,0.10041029984131455,0.0987089998088777,0.747361599933356
RSVPLG03,km,20260423-163743,1.0.2,20251113-095759,829,Experiment,Both,1,Automatic,main,42,20260423-164122,local,global,300,H,H,A,E,A-H.png,H-E.png,hH,hH,mask-3.png,mask-3.png,h,1,0.5758021003566682,h,1,0.14679120015352964,0.04926200024783611,0.05015819985419512,0.09971440024673939,0.10077729960903525,0.297397100366652
RSVPLG03,km,20260423-163743,1.0.2,20251113-095759,829,Experiment,Both,1,Automatic,main,43,20260423-164126,global,global,750,H,H,E,E,H-E.png,H-E.png,hH,hH,mask-3.png,mask-1.png,s,0,1.5196810001507401,s,0,0.10885210009291768,0.04985889978706837,0.049858400132507086,0.0998726999387145,0.09991429978981614,0.7479995000176132
RSVPLG03,km,20260423-163743,1.0.2,20251113-095759,829,Experiment,Both,1,Automatic,main,44,20260423-164132,global,local,300,S,S,A,A,S-A.png,A-S.png,sS,sS,mask-1.png,mask-2.png,s,1,1.3817512998357415,h,0,0.20583859970793128,0.049507899675518274,0.04942480009049177,0.09988729981705546,0.0990178999491036,0.3000333998352289
RSVPLG03,km,20260423-163743,1.0.2,20251113-095759,829,Experiment,Both,1,Automatic,main,45,20260423-164137,local,local,750,S,H,E,A,E-S.png,A-H.png,sS,hH,mask-4.png,mask-4.png,s,1,0.39092699997127056,h,1,0.1428868998773396,0.05087450006976724,0.051140999887138605,0.10084210010245442,0.10242629982531071,0.7483216999098659
RSVPLG03,km,20260423-163743,1.0.2,20251113-095759,829,Experiment,Both,1,Automatic,main,46,20260423-164142,global,local,300,H,S,A,A,H-A.png,A-S.png,hH,sS,mask-2.png,mask-3.png,h,1,0.41340640000998974,s,1,0.07987450016662478,0.049102900084108114,0.04866169998422265,0.09891630010679364,0.09954350022599101,0.2994511001743376
RSVPLG03,km,20260423-163743,1.0.2,20251113-095759,829,Experiment,Both,1,Automatic,main,47,20260423-164146,global,global,300,H,S,E,E,H-E.png,S-E.png,hH,sS,mask-4.png,mask-2.png,h,1,1.5534892999567091,h,0,0.33404479967430234,0.05096220038831234,0.04987380001693964,0.10119660012423992,0.09989650035277009,0.29920540004968643
RSVPLG03,km,20260423-163743,1.0.2,20251113-095759,829,Experiment,Both,1,Automatic,main,48,20260423-164151,local,global,300,H,H,E,E,E-H.png,H-E.png,hH,hH,mask-2.png,mask-3.png,h,1,0.4964757999405265,s,0,0.045254099648445845,0.04884409997612238,0.0498021999374032,0.09851739974692464,0.0986524997279048,0.2994659999385476
RSVPLG03,km,20260423-163743,1.0.2,20251113-095759,829,Experiment,Both,1,Automatic,main,49,20260423-164155,global,local,300,S,H,A,A,S-A.png,A-H.png,sS,hH,mask-3.png,mask-1.png,h,0,0.7077176999300718,s,0,0.7671446003951132,0.050407400354743004,0.05018319981172681,0.10047650011256337,0.09917159983888268,0.30031670024618506
RSVPLG03,km,20260423-163743,1.0.2,20251113-095759,829,Experiment,Both,1,Automatic,main,50,20260423-164200,global,global,300,H,H,E,A,H-E.png,H-A.png,hH,hH,mask-2.png,mask-1.png,h,1,1.180120199918747,s,0,0.14344409992918372,0.04985910002142191,0.04853260004892945,0.0995841003023088,0.09928339999169111,0.30006800033152103
RSVPLG03,km,20260423-163743,1.0.2,20251113-095759,829,Experiment,Both,1,Automatic,main,51,20260423-164235,global,local,300,H,H,E,E,H-E.png,E-H.png,hH,hH,mask-2.png,mask-3.png,h,1,0.48774740006774664,h,1,0.19037039997056127,0.04943790007382631,0.048785699997097254,0.09988999972119927,0.10022020014002919,0.2999145998619497
RSVPLG03,km,20260423-163743,1.0.2,20251113-095759,829,Experiment,Both,1,Automatic,main,52,20260423-164240,global,global,300,H,S,E,E,H-E.png,S-E.png,hH,sS,mask-1.png,mask-4.png,h,1,0.34554570028558373,s,1,0.030550200026482344,0.051915299613028765,0.05074420012533665,0.09865609975531697,0.10057190014049411,0.2975130998529494
RSVPLG03,km,20260423-163743,1.0.2,20251113-095759,829,Experiment,Both,1,Automatic,main,53,20260423-164244,global,local,300,S,H,E,E,S-E.png,E-H.png,sS,hH,mask-4.png,mask-1.png,s,1,0.4463689001277089,h,1,0.046427200082689524,0.05086440034210682,0.04968049982562661,0.10009020008146763,0.09877389995381236,0.30006480030715466
RSVPLG03,km,20260423-163743,1.0.2,20251113-095759,829,Experiment,Both,1,Automatic,main,54,20260423-164248,local,local,300,H,H,A,A,A-H.png,A-H.png,hH,hH,mask-1.png,mask-3.png,h,1,0.3728292998857796,h,1,0.10906859999522567,0.049777400214225054,0.04989950032904744,0.09975010016933084,0.09987560007721186,0.2995759998448193
RSVPLG03,km,20260423-163743,1.0.2,20251113-095759,829,Experiment,Both,1,Automatic,main,55,20260423-164252,global,local,750,S,H,E,E,S-E.png,E-H.png,sS,hH,mask-1.png,mask-1.png,s,1,0.8633987000212073,h,1,0.8788481000810862,0.04895199974998832,0.04887469997629523,0.10000519966706634,0.0999261001124978,0.7484394996427
RSVPLG03,km,20260423-163743,1.0.2,20251113-095759,829,Experiment,Both,1,Automatic,main,56,20260423-164258,global,global,300,S,H,A,E,S-A.png,H-E.png,sS,hH,mask-1.png,mask-2.png,s,1,0.43435779958963394,h,1,0.030424199998378754,0.05128799984231591,0.0486096004024148,0.09977780003100634,0.1008270001038909,0.2996699996292591
RSVPLG03,km,20260423-163743,1.0.2,20251113-095759,829,Experiment,Both,1,Automatic,main,57,20260423-164302,local,local,750,S,S,E,E,E-S.png,E-S.png,sS,sS,mask-4.png,mask-2.png,s,1,0.4545752997510135,s,1,0.0977913998067379,0.04953380022197962,0.04803760023787618,0.09926490020006895,0.09995780000463128,0.7491142000071704
RSVPLG03,km,20260423-163743,1.0.2,20251113-095759,829,Experiment,Both,1,Automatic,main,58,20260423-164307,global,local,300,S,H,E,E,S-E.png,E-H.png,sS,hH,mask-3.png,mask-2.png,s,1,0.3759376001544297,h,1,0.033585399854928255,0.0505193998105824,0.049416699912399054,0.10118199978023767,0.09941729996353388,0.2993771000765264
RSVPLG03,km,20260423-163743,1.0.2,20251113-095759,829,Experiment,Both,1,Automatic,main,59,20260423-164311,global,global,750,H,S,A,A,H-A.png,S-A.png,hH,sS,mask-3.png,mask-3.png,h,1,0.7162048001773655,s,1,0.04611410014331341,0.04857899993658066,0.048889399971812963,0.09830550011247396,0.0989656001329422,0.7481229999102652
RSVPLG03,km,20260423-163743,1.0.2,20251113-095759,829,Experiment,Both,1,Automatic,main,60,20260423-164315,local,local,750,H,H,A,A,A-H.png,A-H.png,hH,hH,mask-4.png,mask-1.png,h,1,0.27324889972805977,h,1,0.07828949997201562,0.04986719973385334,0.0488728997297585,0.09977239975705743,0.09993669996038079,0.7484353999607265
RSVPLG03,km,20260423-163743,1.0.2,20251113-095759,829,Experiment,Both,1,Automatic,main,61,20260423-164320,local,local,750,S,S,E,E,E-S.png,E-S.png,sS,sS,mask-2.png,mask-2.png,s,1,0.3663684003986418,s,1,0.09404860017821193,0.04986630007624626,0.04988630022853613,0.10101860016584396,0.09995830012485385,0.750159100163728
RSVPLG03,km,20260423-163743,1.0.2,20251113-095759,829,Experiment,Both,1,Automatic,main,62,20260423-164324,global,local,750,H,H,E,A,H-E.png,A-H.png,hH,hH,mask-4.png,mask-2.png,h,1,0.2875302000902593,h,1,0.09478140017017722,0.049525999929755926,0.04989099968224764,0.09820350026711822,0.09990279981866479,0.7481332002207637
RSVPLG03,km,20260423-163743,1.0.2,20251113-095759,829,Experiment,Both,1,Automatic,main,63,20260423-164329,local,global,300,S,S,E,E,E-S.png,S-E.png,sS,sS,mask-2.png,mask-4.png,s,1,1.3262851000763476,h,0,0.3503329996019602,0.047913200221955776,0.05005130032077432,0.09791690018028021,0.1005064002238214,0.29776509990915656
RSVPLG03,km,20260423-163743,1.0.2,20251113-095759,829,Experiment,Both,1,Automatic,main,64,20260423-164334,global,global,750,H,H,A,E,H-A.png,H-E.png,hH,hH,mask-4.png,mask-1.png,h,1,0.42755409982055426,h,1,0.12480530003085732,0.051026000175625086,0.05008020019158721,0.10111640021204948,0.10009470023214817,0.749208000022918
RSVPLG03,km,20260423-163743,1.0.2,20251113-095759,829,Experiment,Both,1,Automatic,main,65,20260423-164339,local,local,300,S,H,E,A,E-S.png,A-H.png,sS,hH,mask-1.png,mask-2.png,s,1,1.2908685002475977,h,1,0.029543000273406506,0.048295299988240004,0.04917050013318658,0.10011259978637099,0.09943419974297285,0.29971549985930324
RSVPLG03,km,20260423-163743,1.0.2,20251113-095759,829,Experiment,Both,1,Automatic,main,66,20260423-164343,global,local,300,H,H,A,E,H-A.png,E-H.png,hH,hH,mask-3.png,mask-4.png,h,1,0.3054681997746229,s,0,0.06566400034353137,0.04953210009261966,0.050525699742138386,0.09919320000335574,0.10020789969712496,0.2984134000726044
RSVPLG03,km,20260423-163743,1.0.2,20251113-095759,829,Experiment,Both,1,Automatic,main,67,20260423-164347,local,global,750,H,H,A,A,A-H.png,H-A.png,hH,hH,mask-1.png,mask-3.png,h,1,0.431430600117892,s,0,0.1416319003328681,0.048359999898821115,0.05103550013154745,0.09892009990289807,0.10044600022956729,0.7480819998309016
RSVPLG03,km,20260423-163743,1.0.2,20251113-095759,829,Experiment,Both,1,Automatic,main,68,20260423-164352,local,global,300,H,H,E,A,E-H.png,H-A.png,hH,hH,mask-4.png,mask-1.png,h,1,0.3247648999094963,s,0,0.10862269997596741,0.050652900245040655,0.050596500281244516,0.10049430001527071,0.09926920011639595,0.2993360999971628
RSVPLG03,km,20260423-163743,1.0.2,20251113-095759,829,Experiment,Both,1,Automatic,main,69,20260423-164356,local,local,750,H,S,A,A,A-H.png,A-S.png,hH,sS,mask-1.png,mask-4.png,h,1,0.3715451001189649,s,1,0.08060159999877214,0.048844000324606895,0.049672000110149384,0.09886240027844906,0.09967970009893179,0.7477222001180053
RSVPLG03,km,20260423-163743,1.0.2,20251113-095759,829,Experiment,Both,1,Automatic,main,70,20260423-164401,global,local,750,S,H,A,E,S-A.png,E-H.png,sS,hH,mask-2.png,mask-2.png,h,0,0.7934340997599065,h,1,0.09530459996312857,0.05009050015360117,0.04934680042788386,0.10043040011078119,0.09921190002933145,0.7488815998658538
RSVPLG03,km,20260423-163743,1.0.2,20251113-095759,829,Experiment,Both,1,Automatic,main,71,20260423-164406,local,global,300,H,S,A,E,A-H.png,S-E.png,hH,sS,mask-2.png,mask-1.png,h,1,0.4541818001307547,h,0,1.0067588998936117,0.04903429979458451,0.04948840010911226,0.10014929994940758,0.09914689976722002,0.29852910013869405
RSVPLG03,km,20260423-163743,1.0.2,20251113-095759,829,Experiment,Both,1,Automatic,main,72,20260423-164411,local,local,750,S,H,A,E,A-S.png,E-H.png,sS,hH,mask-3.png,mask-2.png,s,1,0.38106280006468296,h,1,0.043707000091671944,0.049851799849420786,0.05109310010448098,0.09927249979227781,0.09972930001094937,0.7482195999473333
RSVPLG03,km,20260423-163743,1.0.2,20251113-095759,829,Experiment,Both,1,Automatic,main,73,20260423-164415,global,global,300,S,H,A,E,S-A.png,H-E.png,sS,hH,mask-1.png,mask-4.png,s,1,0.4049571002833545,h,1,0.47839950025081635,0.05008750036358833,0.0507447998970747,0.09988330025225878,0.10075129987671971,0.30050820019096136
RSVPLG03,km,20260423-163743,1.0.2,20251113-095759,829,Experiment,Both,1,Automatic,main,74,20260423-164420,local,local,750,S,H,A,E,A-S.png,E-H.png,sS,hH,mask-1.png,mask-2.png,s,1,0.2721249000169337,h,1,0.46275960002094507,0.05003829998895526,0.04974819999188185,0.0992331001907587,0.10102429986000061,0.7475403002463281
RSVPLG03,km,20260423-163743,1.0.2,20251113-095759,829,Experiment,Both,1,Automatic,main,75,20260423-164425,global,local,750,H,S,A,A,H-A.png,A-S.png,hH,sS,mask-1.png,mask-1.png,h,1,0.39132880000397563,s,1,0.15869490010663867,0.04984499979764223,0.04867370007559657,0.09983049985021353,0.09965999983251095,0.749089399818331
RSVPLG03,km,20260423-163743,1.0.2,20251113-095759,829,Experiment,Both,1,Automatic,main,76,20260423-164443,local,global,300,S,H,A,A,A-S.png,H-A.png,sS,hH,mask-3.png,mask-2.png,s,1,0.30854219989851117,h,1,0.011501300148665905,0.05017430009320378,0.04847110016271472,0.10042330017313361,0.0983428000472486,0.3009913000278175
RSVPLG03,km,20260423-163743,1.0.2,20251113-095759,829,Experiment,Both,1,Automatic,main,77,20260423-164447,local,global,300,S,H,E,A,E-S.png,H-A.png,sS,hH,mask-4.png,mask-3.png,s,1,0.47840879997238517,s,0,0.2848909003660083,0.048446900211274624,0.048193300142884254,0.09951130021363497,0.09955610008910298,0.29913750011473894
RSVPLG03,km,20260423-163743,1.0.2,20251113-095759,829,Experiment,Both,1,Automatic,main,78,20260423-164452,local,local,750,H,H,A,E,A-H.png,E-H.png,hH,hH,mask-2.png,mask-1.png,h,1,0.29974000016227365,h,1,0.0759926000609994,0.050875999964773655,0.05089160008355975,0.09987949999049306,0.09999410016462207,0.7478994000703096
RSVPLG03,km,20260423-163743,1.0.2,20251113-095759,829,Experiment,Both,1,Automatic,main,79,20260423-164456,local,global,300,S,S,E,A,E-S.png,S-A.png,sS,sS,mask-3.png,mask-2.png,s,1,0.6225787997245789,s,1,0.09785619983449578,0.05069829989224672,0.04963869974017143,0.10000600013881922,0.0992947998456657,0.30066860001534224
RSVPLG03,km,20260423-163743,1.0.2,20251113-095759,829,Experiment,Both,1,Automatic,main,80,20260423-164500,local,local,300,S,S,A,E,A-S.png,E-S.png,sS,sS,mask-3.png,mask-4.png,s,1,0.28357290010899305,s,1,0.09237209986895323,0.05174299981445074,0.04951809998601675,0.10041429987177253,0.09915859997272491,0.30067049991339445
RSVPLG03,km,20260423-163743,1.0.2,20251113-095759,829,Experiment,Both,1,Automatic,main,81,20260423-164504,local,local,300,H,H,A,E,A-H.png,E-H.png,hH,hH,mask-3.png,mask-3.png,h,1,0.30130150029435754,h,1,0.07865619985386729,0.04795619985088706,0.050517600029706955,0.099554100073874,0.1001312998123467,0.29790859995409846
RSVPLG03,km,20260423-163743,1.0.2,20251113-095759,829,Experiment,Both,1,Automatic,main,82,20260423-164508,local,global,750,S,H,E,E,E-S.png,H-E.png,sS,hH,mask-2.png,mask-3.png,s,1,0.5604643998667598,s,0,0.14091349998489022,0.04996550036594272,0.050817899871617556,0.09942380012944341,0.10115120001137257,0.7486307001672685
RSVPLG03,km,20260423-163743,1.0.2,20251113-095759,829,Experiment,Both,1,Automatic,main,83,20260423-164513,local,global,750,S,H,A,A,A-S.png,H-A.png,sS,hH,mask-1.png,mask-3.png,s,1,0.43738989997655153,h,1,0.047825700137764215,0.050742299761623144,0.04901359975337982,0.10155659960582852,0.10021780012175441,0.7495817998424172
RSVPLG03,km,20260423-163743,1.0.2,20251113-095759,829,Experiment,Both,1,Automatic,main,84,20260423-164518,global,local,300,H,H,A,E,H-A.png,E-H.png,hH,hH,mask-3.png,mask-2.png,h,1,0.4258868000470102,s,0,0.01441279985010624,0.04883879981935024,0.05085640028119087,0.09881109977141023,0.09957780037075281,0.29872459964826703
RSVPLG03,km,20260423-163743,1.0.2,20251113-095759,829,Experiment,Both,1,Automatic,main,85,20260423-164522,global,local,750,H,H,E,A,H-E.png,A-H.png,hH,hH,mask-1.png,mask-3.png,h,1,0.45281130028888583,h,1,0.2701491001062095,0.0504749002866447,0.05026850011199713,0.10046990029513836,0.10067050019279122,0.7470031999982893
RSVPLG03,km,20260423-163743,1.0.2,20251113-095759,829,Experiment,Both,1,Automatic,main,86,20260423-164527,local,local,300,H,S,A,E,A-H.png,E-S.png,hH,sS,mask-4.png,mask-2.png,h,1,0.43240390019491315,s,1,0.07767770020291209,0.049854500219225883,0.049860000144690275,0.09991340013220906,0.09992720000445843,0.298849199898541
RSVPLG03,km,20260423-163743,1.0.2,20251113-095759,829,Experiment,Both,1,Automatic,main,87,20260423-164531,local,global,750,S,S,E,A,E-S.png,S-A.png,sS,sS,mask-1.png,mask-1.png,s,1,0.4444415997713804,s,1,0.20452550007030368,0.04985829954966903,0.05082939984276891,0.09985539969056845,0.1009931000880897,0.7471440997906029
RSVPLG03,km,20260423-163743,1.0.2,20251113-095759,829,Experiment,Both,1,Automatic,main,88,20260423-164535,global,global,750,S,S,E,A,S-E.png,S-A.png,sS,sS,mask-4.png,mask-3.png,s,1,0.3542829002253711,h,0,0.0947432997636497,0.05000750022009015,0.050272200256586075,0.09986210009083152,0.0996195999905467,0.7494534999132156
RSVPLG03,km,20260423-163743,1.0.2,20251113-095759,829,Experiment,Both,1,Automatic,main,89,20260423-164540,local,global,750,S,S,E,A,E-S.png,S-A.png,sS,sS,mask-3.png,mask-2.png,s,1,0.36642020009458065,h,0,0.28766980022192,0.0508644999936223,0.049675299786031246,0.0999436997808516,0.09875469980761409,0.7491596001200378
RSVPLG03,km,20260423-163743,1.0.2,20251113-095759,829,Experiment,Both,1,Automatic,main,90,20260423-164545,local,global,300,H,S,E,E,E-H.png,S-E.png,hH,sS,mask-3.png,mask-4.png,h,1,1.1065568998456001,s,1,0.031697200145572424,0.04887169972062111,0.04988780012354255,0.09830839978531003,0.09986909991130233,0.2982959998771548
RSVPLG03,km,20260423-163743,1.0.2,20251113-095759,829,Experiment,Both,1,Automatic,main,91,20260423-164549,local,local,750,S,S,E,A,E-S.png,A-S.png,sS,sS,mask-3.png,mask-3.png,s,1,0.3347648000344634,s,1,0.10753080016002059,0.05042009986937046,0.04887629998847842,0.09897179994732141,0.09869580017402768,0.7496690000407398
RSVPLG03,km,20260423-163743,1.0.2,20251113-095759,829,Experiment,Both,1,Automatic,main,92,20260423-164554,global,global,300,H,S,A,E,H-A.png,S-E.png,hH,sS,mask-2.png,mask-2.png,h,1,0.2805619998835027,h,0,0.10811970010399818,0.05084040015935898,0.0491216997615993,0.10104440012946725,0.09787839977070689,0.2999952002428472
RSVPLG03,km,20260423-163743,1.0.2,20251113-095759,829,Experiment,Both,1,Automatic,main,93,20260423-164558,global,local,750,H,H,A,E,H-A.png,E-H.png,hH,hH,mask-2.png,mask-1.png,h,1,0.8813761002384126,h,1,0.1744484999217093,0.05064980033785105,0.049724800046533346,0.09969309996813536,0.10067819990217686,0.7492965999990702
RSVPLG03,km,20260423-163743,1.0.2,20251113-095759,829,Experiment,Both,1,Automatic,main,94,20260423-164603,local,global,750,H,S,E,E,E-H.png,S-E.png,hH,sS,mask-4.png,mask-1.png,h,1,0.49635770032182336,h,0,0.7653831001371145,0.04865779960528016,0.05008580023422837,0.0998703995719552,0.10013250028714538,0.7473800997249782
RSVPLG03,km,20260423-163743,1.0.2,20251113-095759,829,Experiment,Both,1,Automatic,main,95,20260423-164609,local,local,300,H,H,A,A,A-H.png,A-H.png,hH,hH,mask-1.png,mask-1.png,h,1,0.44764159992337227,h,1,0.11152140004560351,0.04957230016589165,0.04840749967843294,0.10008030012249947,0.09929409995675087,0.3005339000374079
RSVPLG03,km,20260423-163743,1.0.2,20251113-095759,829,Experiment,Both,1,Automatic,main,96,20260423-164613,global,global,750,S,S,E,A,S-E.png,S-A.png,sS,sS,mask-3.png,mask-3.png,s,1,0.37237609969452024,h,0,0.040537800174206495,0.05093499971553683,0.049890799913555384,0.0997151997871697,0.09988529980182648,0.7490232000127435
RSVPLG03,km,20260423-163743,1.0.2,20251113-095759,829,Experiment,Both,1,Automatic,main,97,20260423-164617,global,local,300,S,H,A,A,S-A.png,A-H.png,sS,hH,mask-1.png,mask-1.png,s,1,0.31111810030415654,h,1,0.04428179981186986,0.05128289991989732,0.05157850030809641,0.10093740001320839,0.10095580015331507,0.29899009969085455
RSVPLG03,km,20260423-163743,1.0.2,20251113-095759,829,Experiment,Both,1,Automatic,main,98,20260423-164621,global,global,750,H,S,E,A,H-E.png,S-A.png,hH,sS,mask-1.png,mask-1.png,h,1,0.36859830003231764,s,1,0.08215359970927238,0.047909400425851345,0.0499156997539103,0.09889050014317036,0.09968059975653887,0.7470679003745317
RSVPLG03,km,20260423-163743,1.0.2,20251113-095759,829,Experiment,Both,1,Automatic,main,99,20260423-164626,local,global,750,S,H,E,E,E-S.png,H-E.png,sS,hH,mask-4.png,mask-1.png,s,1,0.6520546996034682,h,1,0.04613040015101433,0.049727499950677156,0.05075690010562539,0.10077530005946755,0.10047029983252287,0.7477311999537051
RSVPLG03,km,20260423-163743,1.0.2,20251113-095759,829,Experiment,Both,1,Automatic,main,100,20260423-164630,local,global,750,H,S,A,E,A-H.png,S-E.png,hH,sS,mask-3.png,mask-1.png,h,1,0.7066795001737773,s,1,0.45024190004915,0.05041719973087311,0.05086209997534752,0.10114379972219467,0.09975389996543527,0.7482674000784755
