exp,exp_initials,runtime,ver,modtime,sub,blocktype,targets,cuetype,mode,trialtype,trial,trialtime,t1_level,t2_level,t2_lag,t1,t2,distractor1,distractor2,stimfile1,stimfile2,t1_corr,t2_corr,maskfile1,maskfile2,t1_resp,t1_acc,t1_rt,t2_resp,t2_acc,t2_rt,t1_dur,t2_dur,t1mask_soa,t2mask_soa,t1t2_soa
RSVPLG03,JM,20260326-094816,1.0.2,20251105-084826,811,Introduction,T1,1,Automatic,main,1,20260326-094850,local,global,750,S,S,A,A,A-S.png,S-A.png,sS,sS,mask-1.png,mask-1.png,h,0,5.34076329995878,none,-5,0,0.09750210004858673,0.09757490013726056,0.19855470000766218,0.19964370015077293,0.7481972998939455
RSVPLG03,JM,20260326-094816,1.0.2,20251105-084826,811,Introduction,T1,1,Automatic,main,2,20260326-094859,global,global,750,S,H,E,E,S-E.png,H-E.png,sS,hH,mask-4.png,mask-4.png,s,1,24.3183365999721,none,-5,0,0.09581349999643862,0.09827059996314347,0.19900420005433261,0.2003964998293668,0.7491910001263022
RSVPLG03,JM,20260326-094816,1.0.2,20251105-084826,811,Introduction,T1,1,Automatic,main,3,20260326-094928,global,local,750,H,S,E,E,H-E.png,E-S.png,hH,sS,mask-2.png,mask-2.png,h,1,1.7006091000512242,none,-5,0,0.09642979991622269,0.09744190005585551,0.1993432999588549,0.20039230003021657,0.7492181998677552
RSVPLG03,JM,20260326-094816,1.0.2,20251105-084826,811,Introduction,T1,1,Automatic,main,4,20260326-094934,local,local,750,S,H,A,A,A-S.png,A-H.png,sS,hH,mask-2.png,mask-2.png,s,1,1.6468364000320435,none,-5,0,0.0984019001480192,0.09727280004881322,0.20052130008116364,0.20003490010276437,0.74967489996925
RSVPLG03,JM,20260326-094816,1.0.2,20251105-084826,811,Introduction,T1,1,Automatic,main,5,20260326-094940,local,global,750,H,H,E,A,E-H.png,H-A.png,hH,hH,mask-2.png,mask-3.png,h,1,1.2588545000180602,none,-5,0,0.09656949993222952,0.09755559987388551,0.1985114999115467,0.19904639991000295,0.7491935000289232
RSVPLG03,JM,20260326-094816,1.0.2,20251105-084826,811,Introduction,T1,1,Automatic,main,6,20260326-094945,local,local,750,S,S,E,A,E-S.png,A-S.png,sS,sS,mask-1.png,mask-1.png,s,1,0.7586594999302179,none,-5,0,0.09738900000229478,0.09743049996905029,0.20027339993976057,0.19919289997778833,0.7504751000087708
RSVPLG03,JM,20260326-094816,1.0.2,20251105-084826,811,Introduction,T1,1,Automatic,main,7,20260326-094950,global,local,750,S,H,A,A,S-A.png,A-H.png,sS,hH,mask-3.png,mask-4.png,s,1,0.9563078000210226,none,-5,0,0.09841899992898107,0.09924580017104745,0.20014489977620542,0.2000488000921905,0.7485556998290122
RSVPLG03,JM,20260326-094816,1.0.2,20251105-084826,811,Introduction,T1,1,Automatic,main,8,20260326-094955,local,local,750,H,H,A,A,A-H.png,A-H.png,hH,hH,mask-4.png,mask-2.png,h,1,0.8313359001185745,none,-5,0,0.09738830011337996,0.09745340002700686,0.19823450013063848,0.2011554001364857,0.7481168999802321
RSVPLG03,JM,20260326-094816,1.0.2,20251105-084826,811,Introduction,T1,1,Automatic,main,9,20260326-095000,local,local,750,S,H,A,E,A-S.png,E-H.png,sS,hH,mask-1.png,mask-2.png,s,1,0.6471457001753151,none,-5,0,0.09738239995203912,0.09739550016820431,0.20042279991321266,0.1998603001702577,0.7489376999437809
RSVPLG03,JM,20260326-094816,1.0.2,20251105-084826,811,Introduction,T1,1,Automatic,main,10,20260326-095005,global,global,750,S,H,E,A,S-E.png,H-A.png,sS,hH,mask-2.png,mask-3.png,s,1,0.7903999001719058,none,-5,0,0.09833110007457435,0.09881599992513657,0.2002687999047339,0.20011219987645745,0.7487967000342906
RSVPLG03,JM,20260326-094816,1.0.2,20251105-084826,811,Introduction,T1,1,Automatic,main,11,20260326-095010,global,global,750,S,S,E,A,S-E.png,S-A.png,sS,sS,mask-2.png,mask-4.png,s,1,0.9850103999488056,none,-5,0,0.09601949993520975,0.09697529999539256,0.19789190008305013,0.19986389996483922,0.748563300119713
RSVPLG03,JM,20260326-094816,1.0.2,20251105-084826,811,Introduction,T1,1,Automatic,main,12,20260326-095015,global,local,750,S,H,E,E,S-E.png,E-H.png,sS,hH,mask-3.png,mask-2.png,s,1,0.6179219000041485,none,-5,0,0.09600610006600618,0.09760809992440045,0.20008129999041557,0.20074190013110638,0.7481706000398844
RSVPLG03,JM,20260326-094816,1.0.2,20251105-084826,811,Introduction,T1,1,Automatic,main,13,20260326-095020,global,local,750,S,S,A,E,S-A.png,E-S.png,sS,sS,mask-1.png,mask-2.png,s,1,0.7198981998953968,none,-5,0,0.09756710007786751,0.09656190010719001,0.20152579993009567,0.1998823001049459,0.7505266999360174
RSVPLG03,JM,20260326-094816,1.0.2,20251105-084826,811,Introduction,T1,1,Automatic,main,14,20260326-095025,global,global,750,S,S,A,A,S-A.png,S-A.png,sS,sS,mask-3.png,mask-2.png,s,1,0.801212300080806,none,-5,0,0.09739020001143217,0.09737690002657473,0.200459600193426,0.19852100010029972,0.7500215000472963
RSVPLG03,JM,20260326-094816,1.0.2,20251105-084826,811,Introduction,T1,1,Automatic,main,15,20260326-095030,local,global,750,H,S,E,A,E-H.png,S-A.png,hH,sS,mask-3.png,mask-1.png,h,1,0.6087289999704808,none,-5,0,0.0974821001291275,0.09658599994145334,0.19951700000092387,0.199658100027591,0.748514800099656
RSVPLG03,JM,20260326-094816,1.0.2,20251105-084826,811,Introduction,T1,1,Automatic,main,16,20260326-095035,local,global,750,H,H,E,A,E-H.png,H-A.png,hH,hH,mask-2.png,mask-1.png,h,1,0.7166303999256343,none,-5,0,0.09660939988680184,0.0976075001526624,0.19973540003411472,0.19977569999173284,0.7495462999213487
RSVPLG03,JM,20260326-095121,1.0.2,20251105-084826,811,Introduction,Both,1,Automatic,main,1,20260326-095200,local,local,750,S,S,A,E,A-S.png,E-S.png,sS,sS,mask-4.png,mask-4.png,s,1,1.5608630999922752,s,1,1.3830746999010444,0.09747579996474087,0.09736030013300478,0.2014333000406623,0.2001165000256151,0.7496058000251651
RSVPLG03,JM,20260326-095121,1.0.2,20251105-084826,811,Introduction,Both,1,Automatic,main,2,20260326-095207,global,local,750,H,S,A,E,H-A.png,E-S.png,hH,sS,mask-3.png,mask-3.png,h,1,2.3765503000468016,h,0,0.32513339980505407,0.09759410005062819,0.09578329999931157,0.19926910009235144,0.1989925999660045,0.7502371000591666
RSVPLG03,JM,20260326-095121,1.0.2,20251105-084826,811,Introduction,Both,1,Automatic,main,3,20260326-095214,local,global,750,H,H,A,A,A-H.png,H-A.png,hH,hH,mask-4.png,mask-4.png,h,1,5.195272400043905,s,0,0.7787621000315994,0.09756300016306341,0.09759070002473891,0.20044829999096692,0.1983582000248134,0.7502397000789642
RSVPLG03,JM,20260326-095121,1.0.2,20251105-084826,811,Introduction,Both,1,Automatic,main,4,20260326-095224,global,global,750,H,H,A,E,H-A.png,H-E.png,hH,hH,mask-4.png,mask-3.png,h,1,0.9572004999499768,h,1,0.525172800058499,0.0975770999211818,0.09758480009622872,0.1996321000624448,0.20068670017644763,0.7492112999316305
RSVPLG03,JM,20260326-095121,1.0.2,20251105-084826,811,Introduction,Both,1,Automatic,main,5,20260326-095230,local,global,750,H,S,E,E,E-H.png,S-E.png,hH,sS,mask-2.png,mask-1.png,h,1,5.306805199943483,s,1,0.937794400146231,0.0955790001899004,0.09745889995247126,0.19970230013132095,0.20064550009556115,0.7477319000754505
RSVPLG03,JM,20260326-095121,1.0.2,20251105-084826,811,Introduction,Both,1,Automatic,main,6,20260326-095241,local,local,750,H,S,E,E,E-H.png,E-S.png,hH,sS,mask-3.png,mask-1.png,h,1,1.9524332000873983,s,1,0.36785109993070364,0.09559460007585585,0.09756250004284084,0.19800620013847947,0.2005137000232935,0.7479727000463754
RSVPLG03,JM,20260326-095121,1.0.2,20251105-084826,811,Introduction,Both,1,Automatic,main,7,20260326-095247,local,global,750,H,S,A,E,A-H.png,S-E.png,hH,sS,mask-2.png,mask-1.png,h,1,2.2835152000188828,s,1,0.3936135000549257,0.09618219989351928,0.09757680003531277,0.2002610000781715,0.2003114998806268,0.7480045000556856
RSVPLG03,JM,20260326-095121,1.0.2,20251105-084826,811,Introduction,Both,1,Automatic,main,8,20260326-095254,global,global,750,H,S,A,A,H-A.png,S-A.png,hH,sS,mask-3.png,mask-1.png,h,1,0.9572039002086967,s,1,0.18568720016628504,0.09563659993000329,0.0976390999276191,0.19975319993682206,0.19968550000339746,0.7478819999378175
RSVPLG03,JM,20260326-095121,1.0.2,20251105-084826,811,Introduction,Both,1,Automatic,main,9,20260326-095300,local,global,750,H,S,E,A,E-H.png,S-A.png,hH,sS,mask-2.png,mask-3.png,h,1,1.325632199877873,s,1,0.5977412001229823,0.09756869985722005,0.09758529998362064,0.20148839987814426,0.19965480011887848,0.7500020998995751
RSVPLG03,JM,20260326-095121,1.0.2,20251105-084826,811,Introduction,Both,1,Automatic,main,10,20260326-095306,local,local,750,H,H,E,E,E-H.png,E-H.png,hH,hH,mask-1.png,mask-1.png,h,1,0.6150130999740213,h,1,0.3124997999984771,0.09757119999267161,0.0975443001370877,0.19952589995227754,0.19938970007933676,0.7479050999972969
RSVPLG03,JM,20260326-095121,1.0.2,20251105-084826,811,Introduction,Both,1,Automatic,main,11,20260326-095311,global,local,750,H,H,A,E,H-A.png,E-H.png,hH,hH,mask-2.png,mask-2.png,s,0,1.5327684001531452,h,1,0.30981959984637797,0.09754780004732311,0.09639739990234375,0.19959770003333688,0.19945650012232363,0.750020100036636
RSVPLG03,JM,20260326-095121,1.0.2,20251105-084826,811,Introduction,Both,1,Automatic,main,12,20260326-095317,global,global,750,H,S,A,E,H-A.png,S-E.png,hH,sS,mask-4.png,mask-4.png,h,1,0.9495593998581171,h,0,1.6891900000628084,0.09758309996686876,0.09657109994441271,0.1993190001230687,0.19972290005534887,0.7501258000265807
RSVPLG03,JM,20260326-095121,1.0.2,20251105-084826,811,Introduction,Both,1,Automatic,main,13,20260326-095324,local,local,750,S,H,E,E,E-S.png,E-H.png,sS,hH,mask-3.png,mask-4.png,s,1,0.768702199915424,h,1,0.3956583000253886,0.09884479991160333,0.09738910011947155,0.19972519995644689,0.1993637999985367,0.7499975999817252
RSVPLG03,JM,20260326-095121,1.0.2,20251105-084826,811,Introduction,Both,1,Automatic,main,14,20260326-095329,global,global,750,S,S,A,E,S-A.png,S-E.png,sS,sS,mask-1.png,mask-2.png,s,1,0.743847600184381,s,1,0.5013213998172432,0.09738650009967387,0.09757000021636486,0.19875460001640022,0.19970450014807284,0.7482741998974234
RSVPLG03,JM,20260326-095121,1.0.2,20251105-084826,811,Introduction,Both,1,Automatic,main,15,20260326-095335,global,local,750,S,H,A,A,S-A.png,A-H.png,sS,hH,mask-3.png,mask-2.png,s,1,0.8774506999179721,h,1,0.40620749979279935,0.09756709984503686,0.09755850001238286,0.19970949995331466,0.19965659989975393,0.7501403999049217
RSVPLG03,JM,20260326-095121,1.0.2,20251105-084826,811,Introduction,Both,1,Automatic,main,16,20260326-095340,global,local,750,S,H,E,E,S-E.png,E-H.png,sS,hH,mask-1.png,mask-3.png,s,1,0.8820424000732601,s,0,0.4057408000808209,0.09737499989569187,0.0974953998811543,0.20127149997279048,0.20035689999349415,0.7492647999897599
RSVPLG03,JM,20260326-095411,1.0.2,20251105-084826,811,Practice,T1,1,Automatic,main,1,20260326-095432,local,global,750,S,S,E,A,E-S.png,S-A.png,sS,sS,mask-2.png,mask-3.png,s,1,1.0052716999780387,none,-5,0,0.04705139994621277,0.047666499856859446,0.09967609983868897,0.09984529996290803,0.7505002999678254
RSVPLG03,JM,20260326-095411,1.0.2,20251105-084826,811,Practice,T1,1,Automatic,main,2,20260326-095437,local,global,750,H,H,A,E,A-H.png,H-E.png,hH,hH,mask-1.png,mask-4.png,h,1,0.8914697000291198,none,-5,0,0.04755929997190833,0.047531899996101856,0.09867770015262067,0.10054529993794858,0.7493012000340968
RSVPLG03,JM,20260326-095411,1.0.2,20251105-084826,811,Practice,T1,1,Automatic,main,3,20260326-095442,local,local,750,H,H,E,A,E-H.png,A-H.png,hH,hH,mask-1.png,mask-4.png,h,1,0.5616421999875456,none,-5,0,0.04762279987335205,0.04751510010100901,0.09963810001499951,0.10051720007322729,0.7493784998077899
RSVPLG03,JM,20260326-095411,1.0.2,20251105-084826,811,Practice,T1,1,Automatic,main,4,20260326-095446,global,global,750,S,H,E,A,S-E.png,H-A.png,sS,hH,mask-4.png,mask-3.png,s,1,0.7139000000897795,none,-5,0,0.047684800112619996,0.04767529992386699,0.0989001002162695,0.09992720000445843,0.74987250007689
RSVPLG03,JM,20260326-095411,1.0.2,20251105-084826,811,Practice,T1,1,Automatic,main,5,20260326-095451,global,global,300,H,H,A,E,H-A.png,H-E.png,hH,hH,mask-4.png,mask-3.png,s,0,1.9033133001066744,none,-5,0,0.04868429992347956,0.047526700189337134,0.09993329993449152,0.10139470011927187,0.2998529998585582
RSVPLG03,JM,20260326-095411,1.0.2,20251105-084826,811,Practice,T1,1,Automatic,main,6,20260326-095456,global,local,750,H,S,E,E,H-E.png,E-S.png,hH,sS,mask-1.png,mask-2.png,h,1,0.6670639000367373,none,-5,0,0.046751199988648295,0.04884620010852814,0.09879609989002347,0.10103180003352463,0.7483842999208719
RSVPLG03,JM,20260326-095411,1.0.2,20251105-084826,811,Practice,T1,1,Automatic,main,7,20260326-095501,global,local,300,H,S,E,E,H-E.png,E-S.png,hH,sS,mask-4.png,mask-2.png,h,1,0.5435860001016408,none,-5,0,0.04936900013126433,0.04916379996575415,0.10030209994874895,0.10025789984501898,0.3002139001619071
RSVPLG03,JM,20260326-095411,1.0.2,20251105-084826,811,Practice,T1,1,Automatic,main,8,20260326-095505,global,local,750,H,H,A,E,H-A.png,E-H.png,hH,hH,mask-1.png,mask-3.png,h,1,0.6547924999613315,none,-5,0,0.04751920001581311,0.04702590010128915,0.1008886001072824,0.10028150002472103,0.75076560000889
RSVPLG03,JM,20260326-095411,1.0.2,20251105-084826,811,Practice,T1,1,Automatic,main,9,20260326-095510,global,local,300,H,S,E,E,H-E.png,E-S.png,hH,sS,mask-4.png,mask-1.png,h,1,0.4854273998644203,none,-5,0,0.04751519998535514,0.04768249997869134,0.10067129996605217,0.09820350003428757,0.3011185999494046
RSVPLG03,JM,20260326-095411,1.0.2,20251105-084826,811,Practice,T1,1,Automatic,main,10,20260326-095514,global,global,750,S,S,E,A,S-E.png,S-A.png,sS,sS,mask-4.png,mask-4.png,s,1,0.33531730016693473,none,-5,0,0.04643310001119971,0.04778510006144643,0.09939080011099577,0.09996989998035133,0.7496792001184076
RSVPLG03,JM,20260326-095411,1.0.2,20251105-084826,811,Practice,T1,1,Automatic,main,11,20260326-095518,local,global,300,S,S,E,A,E-S.png,S-A.png,sS,sS,mask-2.png,mask-4.png,s,1,0.4607019000686705,none,-5,0,0.0476885000243783,0.04672549990937114,0.09890460013411939,0.09999909996986389,0.29955560015514493
RSVPLG03,JM,20260326-095411,1.0.2,20251105-084826,811,Practice,T1,1,Automatic,main,12,20260326-095522,local,global,300,H,H,A,E,A-H.png,H-E.png,hH,hH,mask-4.png,mask-3.png,h,1,0.45117409992963076,none,-5,0,0.048674399964511395,0.046686500078067183,0.10086909984238446,0.0998686000239104,0.30127379996702075
RSVPLG03,JM,20260326-095411,1.0.2,20251105-084826,811,Practice,T1,1,Automatic,main,13,20260326-095526,local,local,300,S,H,A,A,A-S.png,A-H.png,sS,hH,mask-3.png,mask-1.png,s,1,0.3428385998122394,none,-5,0,0.04567490005865693,0.04755389993079007,0.09885790012776852,0.10154780000448227,0.2982912000734359
RSVPLG03,JM,20260326-095411,1.0.2,20251105-084826,811,Practice,T1,1,Automatic,main,14,20260326-095530,local,local,750,S,H,A,A,A-S.png,A-H.png,sS,hH,mask-3.png,mask-4.png,s,1,0.6606316999532282,none,-5,0,0.04755100002512336,0.047508199932053685,0.09955320018343627,0.09886839985847473,0.7498829001560807
RSVPLG03,JM,20260326-095411,1.0.2,20251105-084826,811,Practice,T1,1,Automatic,main,15,20260326-095535,local,local,300,S,S,E,E,E-S.png,E-S.png,sS,sS,mask-1.png,mask-2.png,s,1,0.7854508999735117,none,-5,0,0.04777999990619719,0.04780120006762445,0.09934399998746812,0.09994900017045438,0.30013669980689883
RSVPLG03,JM,20260326-095411,1.0.2,20251105-084826,811,Practice,T1,1,Automatic,main,16,20260326-095539,global,global,300,H,H,E,E,H-E.png,H-E.png,hH,hH,mask-1.png,mask-2.png,h,1,0.4427449000068009,none,-5,0,0.046631200006231666,0.04712700005620718,0.09982969984412193,0.10033160005696118,0.3002936998382211
RSVPLG03,JM,20260326-095609,1.0.2,20251105-084826,811,Practice,Both,1,Automatic,main,1,20260326-095633,local,local,750,S,S,A,E,A-S.png,E-S.png,sS,sS,mask-3.png,mask-1.png,s,1,1.2609210999216884,s,1,0.3222473000641912,0.04006409994326532,0.04574229987338185,0.09329369990155101,0.09978999989107251,0.7446010001003742
RSVPLG03,JM,20260326-095609,1.0.2,20251105-084826,811,Practice,Both,1,Automatic,main,2,20260326-095639,global,global,750,H,H,E,E,H-E.png,H-E.png,hH,hH,mask-3.png,mask-2.png,h,1,1.4357587001286447,s,0,0.3417804001364857,0.04775660019367933,0.04578000004403293,0.0999657001812011,0.09873720002360642,0.7507218001410365
RSVPLG03,JM,20260326-095609,1.0.2,20251105-084826,811,Practice,Both,1,Automatic,main,3,20260326-095645,global,local,750,S,H,E,A,S-E.png,A-H.png,sS,hH,mask-1.png,mask-4.png,s,1,1.408476100070402,s,0,0.311044700210914,0.047709399834275246,0.04715749993920326,0.09943169984035194,0.10061360010877252,0.7495168999303132
RSVPLG03,JM,20260326-095609,1.0.2,20251105-084826,811,Practice,Both,1,Automatic,main,4,20260326-095651,global,local,300,H,S,A,A,H-A.png,A-S.png,hH,sS,mask-1.png,mask-4.png,h,1,1.4550027002114803,s,1,0.5396474001463503,0.04710890003480017,0.047524600056931376,0.09931660001166165,0.09853610000573099,0.2995472000911832
RSVPLG03,JM,20260326-095609,1.0.2,20251105-084826,811,Practice,Both,1,Automatic,main,5,20260326-095656,global,global,300,H,H,E,E,H-E.png,H-E.png,hH,hH,mask-1.png,mask-3.png,h,1,0.5976916998624802,h,1,0.3288791000377387,0.04759610001929104,0.04773209989070892,0.09994859993457794,0.10056959977373481,0.29906260012649
RSVPLG03,JM,20260326-095609,1.0.2,20251105-084826,811,Practice,Both,1,Automatic,main,6,20260326-095701,global,global,300,S,S,E,E,S-E.png,S-E.png,sS,sS,mask-1.png,mask-4.png,s,1,0.5446463001426309,s,1,0.25509760016575456,0.04850349994376302,0.04774399986490607,0.10279139992780983,0.09998099994845688,0.3012767001055181
RSVPLG03,JM,20260326-095609,1.0.2,20251105-084826,811,Practice,Both,1,Automatic,main,7,20260326-095705,local,local,750,S,H,E,A,E-S.png,A-H.png,sS,hH,mask-2.png,mask-3.png,s,1,0.6303481000941247,h,1,0.29882470006123185,0.04646660014986992,0.0469762000720948,0.09992239996790886,0.10043200012296438,0.7493400999810547
RSVPLG03,JM,20260326-095609,1.0.2,20251105-084826,811,Practice,Both,1,Automatic,main,8,20260326-095710,local,local,300,S,S,E,A,E-S.png,A-S.png,sS,sS,mask-3.png,mask-1.png,s,1,0.6846004000399262,s,1,0.25920239998959005,0.04729910008609295,0.0459803999401629,0.10044570011086762,0.09822700009681284,0.30201920005492866
RSVPLG03,JM,20260326-095609,1.0.2,20251105-084826,811,Practice,Both,1,Automatic,main,9,20260326-095715,global,global,750,H,H,A,E,H-A.png,H-E.png,hH,hH,mask-4.png,mask-4.png,h,1,0.6709755000192672,h,1,0.34499230002984405,0.045688899932429194,0.046724800020456314,0.09918279992416501,0.0985733000561595,0.7488738000392914
RSVPLG03,JM,20260326-095609,1.0.2,20251105-084826,811,Practice,Both,1,Automatic,main,10,20260326-095720,local,global,300,H,H,E,A,E-H.png,H-A.png,hH,hH,mask-4.png,mask-1.png,h,1,1.4885364000219852,h,1,0.5576748999301344,0.04793419991619885,0.047305500134825706,0.09944100002758205,0.0997633000370115,0.29986979998648167
RSVPLG03,JM,20260326-095609,1.0.2,20251105-084826,811,Practice,Both,1,Automatic,main,11,20260326-095726,local,local,300,S,S,A,E,A-S.png,E-S.png,sS,sS,mask-2.png,mask-4.png,s,1,0.5509870001114905,s,1,0.4801709000021219,0.049188399920240045,0.04628799995407462,0.10073830001056194,0.09861280000768602,0.3003227000590414
RSVPLG03,JM,20260326-095609,1.0.2,20251105-084826,811,Practice,Both,1,Automatic,main,12,20260326-095730,global,local,300,H,H,E,A,H-E.png,A-H.png,hH,hH,mask-2.png,mask-3.png,h,1,0.5873322000261396,h,1,0.24142300011590123,0.04751780000515282,0.04707319987937808,0.10102390008978546,0.10001960000954568,0.30080800014548004
RSVPLG03,JM,20260326-095609,1.0.2,20251105-084826,811,Practice,Both,1,Automatic,main,13,20260326-095735,global,local,750,H,S,A,A,H-A.png,A-S.png,hH,sS,mask-4.png,mask-3.png,h,1,0.8925927998498082,s,1,0.09756729984655976,0.04852770012803376,0.047259199898689985,0.1011274999473244,0.09976959996856749,0.7514572001527995
RSVPLG03,JM,20260326-095609,1.0.2,20251105-084826,811,Practice,Both,1,Automatic,main,14,20260326-095740,local,global,750,S,S,E,A,E-S.png,S-A.png,sS,sS,mask-3.png,mask-3.png,s,1,1.976990600116551,h,0,0.4576195999979973,0.047407700214535,0.04760320018976927,0.09975110017694533,0.09935130015946925,0.7500652000308037
RSVPLG03,JM,20260326-095609,1.0.2,20251105-084826,811,Practice,Both,1,Automatic,main,15,20260326-095747,local,global,300,S,S,A,E,A-S.png,S-E.png,sS,sS,mask-1.png,mask-2.png,s,1,4.269251700025052,h,0,0.34620809997431934,0.047548900125548244,0.04829560010693967,0.10090279998257756,0.10171710001304746,0.29947680002078414
RSVPLG03,JM,20260326-095609,1.0.2,20251105-084826,811,Practice,Both,1,Automatic,main,16,20260326-095755,local,global,750,S,H,E,A,E-S.png,H-A.png,sS,hH,mask-1.png,mask-3.png,s,1,1.1816520998254418,h,1,0.2975608999840915,0.04722220008261502,0.04750459990464151,0.09966089995577931,0.09967479994520545,0.7497877001296729
RSVPLG03,JM,20260326-095827,1.0.2,20251105-084826,811,Practice,Both,1,Automatic,main,1,20260326-095844,global,local,750,S,S,E,A,S-E.png,A-S.png,sS,sS,mask-3.png,mask-1.png,s,1,0.7755854998249561,s,1,0.16304339980706573,0.040062400046736,0.04698810004629195,0.09334510006010532,0.10024660010822117,0.7430632000323385
RSVPLG03,JM,20260326-095827,1.0.2,20251105-084826,811,Practice,Both,1,Automatic,main,2,20260326-095849,local,global,750,S,S,A,E,A-S.png,S-E.png,sS,sS,mask-3.png,mask-2.png,s,1,1.8100908999331295,s,1,0.2999558998271823,0.04752829996868968,0.04750899993814528,0.10154309985227883,0.10149889998137951,0.7504588000010699
RSVPLG03,JM,20260326-095827,1.0.2,20251105-084826,811,Practice,Both,1,Automatic,main,3,20260326-095856,local,global,750,H,S,A,E,A-H.png,S-E.png,hH,sS,mask-2.png,mask-1.png,s,0,0.7209493999835104,h,0,0.011395900044590235,0.047323100036010146,0.04753440013155341,0.10024429997429252,0.10055009997449815,0.7502679000608623
RSVPLG03,JM,20260326-095827,1.0.2,20251105-084826,811,Practice,Both,1,Automatic,main,4,20260326-095900,local,global,300,S,H,A,E,A-S.png,H-E.png,sS,hH,mask-3.png,mask-4.png,s,1,1.3469030999112874,s,0,0.5672569000162184,0.04879670008085668,0.04757140018045902,0.10098179988563061,0.10081290011294186,0.3006549999117851
RSVPLG03,JM,20260326-095827,1.0.2,20251105-084826,811,Practice,Both,1,Automatic,main,5,20260326-095906,global,global,750,S,S,A,A,S-A.png,S-A.png,sS,sS,mask-3.png,mask-4.png,s,1,3.748521899804473,s,1,1.0467183999717236,0.04761989996768534,0.045885999919846654,0.09886529995128512,0.09849719982594252,0.7498874000739306
RSVPLG03,JM,20260326-095827,1.0.2,20251105-084826,811,Practice,Both,1,Automatic,main,6,20260326-095915,global,global,300,S,H,A,E,S-A.png,H-E.png,sS,hH,mask-4.png,mask-2.png,s,1,1.4154691000003368,h,1,0.39863860001787543,0.04655619990080595,0.047656199894845486,0.09858389990404248,0.09973619994707406,0.3002013999503106
RSVPLG03,JM,20260326-095827,1.0.2,20251105-084826,811,Practice,Both,1,Automatic,main,7,20260326-095920,local,local,300,S,S,A,E,A-S.png,E-S.png,sS,sS,mask-1.png,mask-3.png,s,1,0.4625283998902887,s,1,0.9204445001669228,0.04662199993617833,0.048962200060486794,0.09990799985826015,0.10117450007237494,0.2979482999071479
RSVPLG03,JM,20260326-095827,1.0.2,20251105-084826,811,Practice,Both,1,Automatic,main,8,20260326-095925,global,global,750,H,S,A,E,H-A.png,S-E.png,hH,sS,mask-2.png,mask-3.png,h,1,0.7510790000669658,s,1,0.29111640015617013,0.04815289983525872,0.047534599900245667,0.09959829994477332,0.09958329983055592,0.7506033000536263
RSVPLG03,JM,20260326-095827,1.0.2,20251105-084826,811,Practice,Both,1,Automatic,main,9,20260326-095931,global,local,300,S,H,A,E,S-A.png,E-H.png,sS,hH,mask-4.png,mask-1.png,s,1,0.7311027999967337,s,0,0.3708765001501888,0.047549699898809195,0.04623589990660548,0.09956399980001152,0.09912889986298978,0.29891539993695915
RSVPLG03,JM,20260326-095827,1.0.2,20251105-084826,811,Practice,Both,1,Automatic,main,10,20260326-095936,local,local,750,S,H,E,A,E-S.png,A-H.png,sS,hH,mask-3.png,mask-4.png,s,1,0.9654351999051869,h,1,0.4388432998675853,0.04742030007764697,0.04769170004874468,0.10131970001384616,0.09987530019134283,0.7516258999239653
RSVPLG03,JM,20260326-095827,1.0.2,20251105-084826,811,Practice,Both,1,Automatic,main,11,20260326-095941,local,local,750,S,H,A,E,A-S.png,E-H.png,sS,hH,mask-1.png,mask-4.png,s,1,0.5498772000428289,h,1,0.21283339988440275,0.04785700002685189,0.04767279978841543,0.10012990003451705,0.10087580000981688,0.7501566000282764
RSVPLG03,JM,20260326-095827,1.0.2,20251105-084826,811,Practice,Both,1,Automatic,main,12,20260326-095946,global,local,750,S,S,A,E,S-A.png,E-S.png,sS,sS,mask-2.png,mask-3.png,s,1,0.4523702000733465,s,1,0.2632800000719726,0.0479419999755919,0.04860479990020394,0.09927849983796477,0.10068890010006726,0.7498544999398291
RSVPLG03,JM,20260326-095827,1.0.2,20251105-084826,811,Practice,Both,1,Automatic,main,13,20260326-095951,global,global,300,H,S,E,E,H-E.png,S-E.png,hH,sS,mask-2.png,mask-2.png,h,1,0.6553273000754416,h,0,0.2843243000097573,0.04752880008891225,0.04721810016781092,0.09884480014443398,0.09991340013220906,0.29985249997116625
RSVPLG03,JM,20260326-095827,1.0.2,20251105-084826,811,Practice,Both,1,Automatic,main,14,20260326-095956,global,local,300,H,H,E,E,H-E.png,E-H.png,hH,hH,mask-3.png,mask-2.png,h,1,1.247909100027755,s,0,0.33214750001206994,0.04593199980445206,0.04735260014422238,0.09896679990924895,0.1003898000344634,0.299641199875623
RSVPLG03,JM,20260326-095827,1.0.2,20251105-084826,811,Practice,Both,1,Automatic,main,15,20260326-100001,local,local,300,S,H,E,A,E-S.png,A-H.png,sS,hH,mask-4.png,mask-2.png,s,1,0.9837348000146449,h,1,0.3254484999924898,0.048511500004678965,0.04750259988941252,0.1005615999456495,0.09933590004220605,0.3007680999580771
RSVPLG03,JM,20260326-095827,1.0.2,20251105-084826,811,Practice,Both,1,Automatic,main,16,20260326-100006,local,global,300,S,H,A,A,A-S.png,H-A.png,sS,hH,mask-2.png,mask-1.png,h,0,2.64797559985891,s,0,0.04119230015203357,0.04869710002094507,0.04770500003360212,0.10026019997894764,0.09931730013340712,0.300976499915123
RSVPLG03,JM,20260326-100039,1.0.2,20251105-084826,811,Practice,Both,1,Automatic,main,1,20260326-100103,local,local,750,H,S,A,E,A-H.png,E-S.png,hH,sS,mask-1.png,mask-1.png,h,1,0.7465973999351263,s,1,0.10472689988091588,0.04100859980098903,0.047669999999925494,0.09270389983430505,0.09986419999040663,0.7442952999845147
RSVPLG03,JM,20260326-100039,1.0.2,20251105-084826,811,Practice,Both,1,Automatic,main,2,20260326-100108,local,global,300,S,S,E,E,E-S.png,S-E.png,sS,sS,mask-4.png,mask-4.png,s,1,0.7582229999825358,s,1,0.36255760001949966,0.048696399899199605,0.04609659989364445,0.0999157999176532,0.0983901999425143,0.301558000035584
RSVPLG03,JM,20260326-100039,1.0.2,20251105-084826,811,Practice,Both,1,Automatic,main,3,20260326-100113,global,global,300,H,H,E,A,H-E.png,H-A.png,hH,hH,mask-1.png,mask-3.png,h,1,0.7277830999810249,h,1,0.28786959988065064,0.047505399910733104,0.04750300012528896,0.10067539988085628,0.09991870005615056,0.29994479985907674
RSVPLG03,JM,20260326-100039,1.0.2,20251105-084826,811,Practice,Both,1,Automatic,main,4,20260326-100118,local,local,750,H,H,A,A,A-H.png,A-H.png,hH,hH,mask-2.png,mask-3.png,h,1,0.5065967000555247,h,1,0.2514843000099063,0.04676329996436834,0.04569289996288717,0.1000206999015063,0.09879989991895854,0.7508755000308156
RSVPLG03,JM,20260326-100039,1.0.2,20251105-084826,811,Practice,Both,1,Automatic,main,5,20260326-100123,local,global,750,H,S,E,A,E-H.png,S-A.png,hH,sS,mask-1.png,mask-2.png,h,1,0.6465018000453711,s,1,0.2431640001013875,0.046857100212946534,0.046564900083467364,0.09994189999997616,0.09964899998158216,0.752038300037384
RSVPLG03,JM,20260326-100039,1.0.2,20251105-084826,811,Practice,Both,1,Automatic,main,6,20260326-100128,local,local,300,S,S,E,A,E-S.png,A-S.png,sS,sS,mask-4.png,mask-2.png,s,1,0.5548803999554366,s,1,0.2528293998911977,0.047524900175631046,0.047396899899467826,0.09855540003627539,0.1003097000066191,0.29949730006046593
RSVPLG03,JM,20260326-100039,1.0.2,20251105-084826,811,Practice,Both,1,Automatic,main,7,20260326-100132,local,local,300,H,H,E,A,E-H.png,A-H.png,hH,hH,mask-3.png,mask-3.png,h,1,0.6020506999921054,h,1,0.32872909982688725,0.04843019996769726,0.04730549990199506,0.10028799995779991,0.10031499993056059,0.3001952001359314
RSVPLG03,JM,20260326-100039,1.0.2,20251105-084826,811,Practice,Both,1,Automatic,main,8,20260326-100137,global,global,750,H,H,E,E,H-E.png,H-E.png,hH,hH,mask-4.png,mask-3.png,h,1,0.46305779996328056,h,1,0.24531689984723926,0.0474978000856936,0.04856389993801713,0.10049330000765622,0.1005573000293225,0.7498960001394153
RSVPLG03,JM,20260326-100039,1.0.2,20251105-084826,811,Practice,Both,1,Automatic,main,9,20260326-100142,global,local,300,S,H,A,E,S-A.png,E-H.png,sS,hH,mask-3.png,mask-1.png,s,1,1.097421000013128,s,0,0.35777160013094544,0.04768389998935163,0.04768359987065196,0.09989820001646876,0.099940599873662,0.30038280016742647
RSVPLG03,JM,20260326-100039,1.0.2,20251105-084826,811,Practice,Both,1,Automatic,main,10,20260326-100147,local,global,750,S,S,A,E,A-S.png,S-E.png,sS,sS,mask-3.png,mask-1.png,s,1,0.6292331998702139,s,1,0.24668390001170337,0.046725699910894036,0.04749160003848374,0.09982239990495145,0.10058610001578927,0.7515846998430789
RSVPLG03,JM,20260326-100039,1.0.2,20251105-084826,811,Practice,Both,1,Automatic,main,11,20260326-100152,global,local,750,S,S,E,E,S-E.png,E-S.png,sS,sS,mask-4.png,mask-1.png,s,1,0.4943676998373121,s,1,0.5229378999210894,0.04809709987603128,0.0477354999165982,0.10045699984766543,0.09996620006859303,0.7514172999653965
RSVPLG03,JM,20260326-100039,1.0.2,20251105-084826,811,Practice,Both,1,Automatic,main,12,20260326-100157,local,global,300,S,S,A,E,A-S.png,S-E.png,sS,sS,mask-4.png,mask-1.png,s,1,1.0898646998684853,h,0,0.5501461999956518,0.047507100040093064,0.047817799961194396,0.09890149999409914,0.09947809996083379,0.29899729997850955
RSVPLG03,JM,20260326-100039,1.0.2,20251105-084826,811,Practice,Both,1,Automatic,main,13,20260326-100203,global,local,750,S,S,E,A,S-E.png,A-S.png,sS,sS,mask-4.png,mask-2.png,s,1,0.5264966001268476,h,0,0.27614789991639555,0.04768399987369776,0.04722449998371303,0.09988629980944097,0.09945439989678562,0.7521704998798668
RSVPLG03,JM,20260326-100039,1.0.2,20251105-084826,811,Practice,Both,1,Automatic,main,14,20260326-100208,global,global,750,S,S,A,E,S-A.png,S-E.png,sS,sS,mask-1.png,mask-1.png,s,1,0.5157331998925656,s,1,0.28405370004475117,0.04761140001937747,0.04752689995802939,0.0996193999890238,0.09954750002361834,0.7507768000941724
RSVPLG03,JM,20260326-100039,1.0.2,20251105-084826,811,Practice,Both,1,Automatic,main,15,20260326-100213,global,local,300,H,H,A,E,H-A.png,E-H.png,hH,hH,mask-2.png,mask-1.png,h,1,1.7335298999678344,s,0,0.3926520000677556,0.047557099955156446,0.04855669988319278,0.1015633000060916,0.1015816000290215,0.30046920012682676
RSVPLG03,JM,20260326-100039,1.0.2,20251105-084826,811,Practice,Both,1,Automatic,main,16,20260326-100219,global,global,300,S,S,E,A,S-E.png,S-A.png,sS,sS,mask-3.png,mask-1.png,s,1,0.4216054000426084,s,1,0.23718250007368624,0.04839639994315803,0.04724560002796352,0.10043569980189204,0.1002466999925673,0.30018909997306764
RSVPLG03,JM,20260326-100250,1.0.2,20251105-084826,811,Experiment,T1,1,Automatic,warmup,1,20260326-100311,global,global,300,S,S,E,A,S-E.png,S-A.png,sS,sS,mask-2.png,mask-4.png,s,1,1.533407700015232,none,-5,0,0.03956579999066889,0.047284800093621016,0.09250219981186092,0.09846949996426702,0.29498999984934926
RSVPLG03,JM,20260326-100250,1.0.2,20251105-084826,811,Experiment,T1,1,Automatic,warmup,2,20260326-100316,local,global,300,S,H,A,A,A-S.png,H-A.png,sS,hH,mask-4.png,mask-4.png,s,1,0.33155439980328083,none,-5,0,0.048499600030481815,0.047061100136488676,0.10072660003788769,0.1003235001116991,0.3013108999002725
RSVPLG03,JM,20260326-100250,1.0.2,20251105-084826,811,Experiment,T1,1,Automatic,warmup,3,20260326-100320,global,global,750,H,H,A,E,H-A.png,H-E.png,hH,hH,mask-3.png,mask-1.png,h,1,0.40318739996291697,none,-5,0,0.04752740007825196,0.04873999999836087,0.09953780006617308,0.10079380008392036,0.7525321999564767
RSVPLG03,JM,20260326-100250,1.0.2,20251105-084826,811,Experiment,T1,1,Automatic,warmup,4,20260326-100325,global,local,750,H,H,A,A,H-A.png,A-H.png,hH,hH,mask-3.png,mask-1.png,h,1,0.4530839999206364,none,-5,0,0.0485103998798877,0.047505700029432774,0.10055319988168776,0.10152340005151927,0.7525950998533517
RSVPLG03,JM,20260326-100250,1.0.2,20251105-084826,811,Experiment,T1,1,Automatic,main,5,20260326-100329,global,local,300,S,S,E,A,S-E.png,A-S.png,sS,sS,mask-2.png,mask-2.png,s,1,0.43393689999356866,none,-5,0,0.046703000087291,0.04771540011279285,0.09889040002599359,0.10183349996805191,0.2993648999836296
RSVPLG03,JM,20260326-100250,1.0.2,20251105-084826,811,Experiment,T1,1,Automatic,main,6,20260326-100333,local,local,300,S,S,E,E,E-S.png,E-S.png,sS,sS,mask-4.png,mask-1.png,s,1,0.5471712001599371,none,-5,0,0.047516100108623505,0.04753330000676215,0.10053610010072589,0.10052949981763959,0.3019030001014471
RSVPLG03,JM,20260326-100250,1.0.2,20251105-084826,811,Experiment,T1,1,Automatic,main,7,20260326-100337,local,global,300,S,S,A,A,A-S.png,S-A.png,sS,sS,mask-2.png,mask-3.png,s,1,0.4114491001237184,none,-5,0,0.04750330001115799,0.04749909997917712,0.09956900007091463,0.09988700016401708,0.2998228999786079
RSVPLG03,JM,20260326-100250,1.0.2,20251105-084826,811,Experiment,T1,1,Automatic,main,8,20260326-100341,local,global,300,S,H,A,A,A-S.png,H-A.png,sS,hH,mask-1.png,mask-4.png,s,1,0.4362287998665124,none,-5,0,0.04864010005258024,0.04764869995415211,0.10167470015585423,0.10065319994464517,0.3021959001198411
RSVPLG03,JM,20260326-100250,1.0.2,20251105-084826,811,Experiment,T1,1,Automatic,main,9,20260326-100345,global,local,750,H,S,A,E,H-A.png,E-S.png,hH,sS,mask-2.png,mask-3.png,h,1,0.3334455001167953,none,-5,0,0.04752949997782707,0.048351400066167116,0.10057919984683394,0.10118089988827705,0.7527602999471128
RSVPLG03,JM,20260326-100250,1.0.2,20251105-084826,811,Experiment,T1,1,Automatic,main,10,20260326-100350,local,local,300,H,S,A,A,A-H.png,A-S.png,hH,sS,mask-4.png,mask-3.png,h,1,0.783401699969545,none,-5,0,0.047666999977082014,0.04766700020991266,0.09958150004968047,0.10086200013756752,0.30006129993125796
RSVPLG03,JM,20260326-100250,1.0.2,20251105-084826,811,Experiment,T1,1,Automatic,main,11,20260326-100354,global,global,750,S,S,E,A,S-E.png,S-A.png,sS,sS,mask-4.png,mask-3.png,s,1,0.44242039998061955,none,-5,0,0.049509899923577905,0.04850680008530617,0.1015399000607431,0.10052320011891425,0.7532538999803364
RSVPLG03,JM,20260326-100250,1.0.2,20251105-084826,811,Experiment,T1,1,Automatic,main,12,20260326-100359,local,local,750,S,H,A,A,A-S.png,A-H.png,sS,hH,mask-4.png,mask-1.png,s,1,0.9033556000795215,none,-5,0,0.04708339995704591,0.04868849995546043,0.10029099998064339,0.10089070000685751,0.7527437000535429
RSVPLG03,JM,20260326-100250,1.0.2,20251105-084826,811,Experiment,T1,1,Automatic,main,13,20260326-100403,global,global,300,S,S,A,E,S-A.png,S-E.png,sS,sS,mask-2.png,mask-4.png,s,1,0.45606340002268553,none,-5,0,0.0465164000634104,0.04751570010557771,0.09854730009101331,0.10151359997689724,0.29995919996872544
RSVPLG03,JM,20260326-100250,1.0.2,20251105-084826,811,Experiment,T1,1,Automatic,main,14,20260326-100408,local,local,300,S,H,E,A,E-S.png,A-H.png,sS,hH,mask-3.png,mask-3.png,s,1,0.3387287000659853,none,-5,0,0.04754380020312965,0.049532500095665455,0.10089680016972125,0.1015767001081258,0.30030480003915727
RSVPLG03,JM,20260326-100250,1.0.2,20251105-084826,811,Experiment,T1,1,Automatic,main,15,20260326-100411,local,global,300,S,H,E,A,E-S.png,H-A.png,sS,hH,mask-1.png,mask-3.png,s,1,0.35000510001555085,none,-5,0,0.04853869997896254,0.046539200004190207,0.09955190005712211,0.0995622999034822,0.3018253000918776
RSVPLG03,JM,20260326-100250,1.0.2,20251105-084826,811,Experiment,T1,1,Automatic,main,16,20260326-100415,global,local,750,H,S,E,E,H-E.png,E-S.png,hH,sS,mask-4.png,mask-4.png,h,1,1.2665256999898702,none,-5,0,0.04873369983397424,0.0459992999676615,0.10011859983205795,0.10033990000374615,0.7534743000287563
RSVPLG03,JM,20260326-100250,1.0.2,20251105-084826,811,Experiment,T1,1,Automatic,main,17,20260326-100421,global,global,300,H,H,E,E,H-E.png,H-E.png,hH,hH,mask-2.png,mask-1.png,h,1,0.5246578000951558,none,-5,0,0.047701200004667044,0.04698490002192557,0.10204129992052913,0.10114429984241724,0.3017611000686884
RSVPLG03,JM,20260326-100250,1.0.2,20251105-084826,811,Experiment,T1,1,Automatic,main,18,20260326-100425,local,global,300,H,S,E,E,E-H.png,S-E.png,hH,sS,mask-1.png,mask-2.png,h,1,0.3138867998495698,none,-5,0,0.04692890006117523,0.04673770000226796,0.10021760012023151,0.10017860005609691,0.30189330014400184
RSVPLG03,JM,20260326-100250,1.0.2,20251105-084826,811,Experiment,T1,1,Automatic,main,19,20260326-100429,global,local,750,H,H,A,E,H-A.png,E-H.png,hH,hH,mask-1.png,mask-4.png,h,1,2.7912055000197142,none,-5,0,0.047664100071415305,0.04774159984663129,0.10185410012491047,0.09994129999540746,0.7540244001429528
RSVPLG03,JM,20260326-100250,1.0.2,20251105-084826,811,Experiment,T1,1,Automatic,main,20,20260326-100435,global,local,300,S,S,E,E,S-E.png,E-S.png,sS,sS,mask-1.png,mask-2.png,h,0,0.7221199001651257,none,-5,0,0.04601969989016652,0.04869169997982681,0.09913539979606867,0.1017582998611033,0.29975469992496073
RSVPLG03,JM,20260326-100250,1.0.2,20251105-084826,811,Experiment,T1,1,Automatic,main,21,20260326-100440,local,local,750,S,H,E,A,E-S.png,A-H.png,sS,hH,mask-1.png,mask-4.png,s,1,0.4205230998340994,none,-5,0,0.04748099995777011,0.047726199962198734,0.10050390008836985,0.10134799988009036,0.7525558001361787
RSVPLG03,JM,20260326-100250,1.0.2,20251105-084826,811,Experiment,T1,1,Automatic,main,22,20260326-100444,local,local,750,H,S,E,A,E-H.png,A-S.png,hH,sS,mask-4.png,mask-4.png,s,0,0.635875599924475,none,-5,0,0.047521400032565,0.045678900089114904,0.0987633999902755,0.0998891000635922,0.7530439000111073
RSVPLG03,JM,20260326-100250,1.0.2,20251105-084826,811,Experiment,T1,1,Automatic,main,23,20260326-100449,local,local,300,H,H,E,E,E-H.png,E-H.png,hH,hH,mask-2.png,mask-3.png,h,1,0.4135600000154227,none,-5,0,0.04649590002372861,0.04756240011192858,0.10031730006448925,0.09958210005424917,0.3009313999209553
RSVPLG03,JM,20260326-100250,1.0.2,20251105-084826,811,Experiment,T1,1,Automatic,main,24,20260326-100453,local,local,750,S,S,A,A,A-S.png,A-S.png,sS,sS,mask-3.png,mask-2.png,s,1,0.3942728000693023,none,-5,0,0.04752109991386533,0.04954729997552931,0.09961409983225167,0.10220069997012615,0.7516629998572171
RSVPLG03,JM,20260326-100250,1.0.2,20251105-084826,811,Experiment,T1,1,Automatic,main,25,20260326-100457,local,global,300,H,H,A,A,A-H.png,H-A.png,hH,hH,mask-1.png,mask-4.png,h,1,0.5068544999230653,none,-5,0,0.047525699948892,0.04759339988231659,0.10144939995370805,0.10002749995328486,0.3012182000093162
RSVPLG03,JM,20260326-100250,1.0.2,20251105-084826,811,Experiment,T1,1,Automatic,main,26,20260326-100513,local,global,300,S,S,A,E,A-S.png,S-E.png,sS,sS,mask-3.png,mask-3.png,s,1,0.6992408002261072,none,-5,0,0.04767960007302463,0.04609099985100329,0.10176710016094148,0.10035329987294972,0.30247430014424026
RSVPLG03,JM,20260326-100250,1.0.2,20251105-084826,811,Experiment,T1,1,Automatic,main,27,20260326-100518,local,global,300,S,S,A,A,A-S.png,S-A.png,sS,sS,mask-3.png,mask-2.png,s,1,0.29655980016104877,none,-5,0,0.04715889994986355,0.04745650012046099,0.10034869983792305,0.10161429992876947,0.30002549989148974
RSVPLG03,JM,20260326-100250,1.0.2,20251105-084826,811,Experiment,T1,1,Automatic,main,28,20260326-100522,local,local,750,S,H,E,A,E-S.png,A-H.png,sS,hH,mask-2.png,mask-2.png,s,1,0.5240603000856936,none,-5,0,0.04586869990453124,0.046580599853768945,0.09961379994638264,0.09879800002090633,0.7530598000157624
RSVPLG03,JM,20260326-100250,1.0.2,20251105-084826,811,Experiment,T1,1,Automatic,main,29,20260326-100526,global,local,750,H,S,A,A,H-A.png,A-S.png,hH,sS,mask-1.png,mask-4.png,h,1,0.5321607000660151,none,-5,0,0.04847360006533563,0.04688520007766783,0.0997438000049442,0.10007910011336207,0.7520254999399185
RSVPLG03,JM,20260326-100250,1.0.2,20251105-084826,811,Experiment,T1,1,Automatic,main,30,20260326-100531,local,global,750,H,S,A,E,A-H.png,S-E.png,hH,sS,mask-1.png,mask-4.png,h,1,0.37518819980323315,none,-5,0,0.046696600038558245,0.04772730008699,0.09989910013973713,0.099927700124681,0.7516246000304818
RSVPLG03,JM,20260326-100250,1.0.2,20251105-084826,811,Experiment,T1,1,Automatic,main,31,20260326-100535,local,global,750,S,S,A,A,A-S.png,S-A.png,sS,sS,mask-2.png,mask-3.png,s,1,0.4026337000541389,none,-5,0,0.0476651000790298,0.04768300009891391,0.09986330009996891,0.09988270001485944,0.7540837000124156
RSVPLG03,JM,20260326-100250,1.0.2,20251105-084826,811,Experiment,T1,1,Automatic,main,32,20260326-100539,global,local,750,S,H,E,A,S-E.png,A-H.png,sS,hH,mask-1.png,mask-2.png,h,0,0.7983703000936657,none,-5,0,0.047570299822837114,0.04671850008890033,0.10033629997633398,0.10002260003238916,0.7535623998846859
RSVPLG03,JM,20260326-100250,1.0.2,20251105-084826,811,Experiment,T1,1,Automatic,main,33,20260326-100544,global,global,300,S,H,E,E,S-E.png,H-E.png,sS,hH,mask-1.png,mask-1.png,s,1,0.36280570016242564,none,-5,0,0.047687700018286705,0.048785299994051456,0.09989450010471046,0.10101450001820922,0.30080770002678037
RSVPLG03,JM,20260326-100250,1.0.2,20251105-084826,811,Experiment,T1,1,Automatic,main,34,20260326-100548,global,global,300,S,H,A,E,S-A.png,H-E.png,sS,hH,mask-2.png,mask-1.png,s,1,0.2936180999968201,none,-5,0,0.04758020001463592,0.04707380011677742,0.09964119992218912,0.10010410007089376,0.3019534999039024
RSVPLG03,JM,20260326-100250,1.0.2,20251105-084826,811,Experiment,T1,1,Automatic,main,35,20260326-100552,global,global,300,H,H,A,E,H-A.png,H-E.png,hH,hH,mask-1.png,mask-3.png,h,1,0.2962962999008596,none,-5,0,0.04768990003503859,0.04769150004722178,0.09915470005944371,0.0999169999267906,0.3019644001033157
RSVPLG03,JM,20260326-100250,1.0.2,20251105-084826,811,Experiment,T1,1,Automatic,main,36,20260326-100556,global,local,300,S,S,E,E,S-E.png,E-S.png,sS,sS,mask-4.png,mask-1.png,s,1,0.4071814001072198,none,-5,0,0.046941799810156226,0.04596349992789328,0.1011116998270154,0.10005669994279742,0.30161549989134073
RSVPLG03,JM,20260326-100250,1.0.2,20251105-084826,811,Experiment,T1,1,Automatic,main,37,20260326-100600,local,global,750,S,H,A,A,A-S.png,H-A.png,sS,hH,mask-4.png,mask-2.png,h,0,2.0396551999729127,none,-5,0,0.048443099949508905,0.046871099853888154,0.10107710002921522,0.09918669983744621,0.7533166001085192
RSVPLG03,JM,20260326-100250,1.0.2,20251105-084826,811,Experiment,T1,1,Automatic,main,38,20260326-100606,local,global,750,S,H,A,A,A-S.png,H-A.png,sS,hH,mask-3.png,mask-3.png,s,1,0.9347268000710756,none,-5,0,0.04676310019567609,0.04770680004730821,0.09817480016499758,0.10173390014097095,0.7511140999849886
RSVPLG03,JM,20260326-100250,1.0.2,20251105-084826,811,Experiment,T1,1,Automatic,main,39,20260326-100611,global,global,750,H,S,A,A,H-A.png,S-A.png,hH,sS,mask-1.png,mask-4.png,h,1,0.4989966000430286,none,-5,0,0.04850920010358095,0.04702559998258948,0.09973839996382594,0.10032460000365973,0.7536134000401944
RSVPLG03,JM,20260326-100250,1.0.2,20251105-084826,811,Experiment,T1,1,Automatic,main,40,20260326-100616,local,local,750,S,H,E,E,E-S.png,E-H.png,sS,hH,mask-4.png,mask-1.png,s,1,0.43380880006588995,none,-5,0,0.04676260007545352,0.0466454999987036,0.09997790004126728,0.09893439989537,0.7533593000844121
RSVPLG03,JM,20260326-100250,1.0.2,20251105-084826,811,Experiment,T1,1,Automatic,main,41,20260326-100620,global,global,750,S,S,E,A,S-E.png,S-A.png,sS,sS,mask-1.png,mask-4.png,s,1,0.6099204001948237,none,-5,0,0.04706050013191998,0.04863800015300512,0.10108270007185638,0.10170790017582476,0.7522281999699771
RSVPLG03,JM,20260326-100250,1.0.2,20251105-084826,811,Experiment,T1,1,Automatic,main,42,20260326-100625,global,local,300,H,S,E,E,H-E.png,E-S.png,hH,sS,mask-4.png,mask-4.png,h,1,0.7657904999796301,none,-5,0,0.047853800002485514,0.04743800009600818,0.10108799999579787,0.10065250005573034,0.3017851000186056
RSVPLG03,JM,20260326-100250,1.0.2,20251105-084826,811,Experiment,T1,1,Automatic,main,43,20260326-100629,local,local,300,S,S,A,E,A-S.png,E-S.png,sS,sS,mask-2.png,mask-4.png,s,1,0.8216462000273168,none,-5,0,0.04752349993214011,0.046518499962985516,0.10038290009833872,0.10054600005969405,0.30135409999638796
RSVPLG03,JM,20260326-100250,1.0.2,20251105-084826,811,Experiment,T1,1,Automatic,main,44,20260326-100633,global,local,750,S,H,A,A,S-A.png,A-H.png,sS,hH,mask-1.png,mask-3.png,s,1,0.532623799983412,none,-5,0,0.04755090014077723,0.04950780002400279,0.10075530014000833,0.10084749991074204,0.7520040001254529
RSVPLG03,JM,20260326-100250,1.0.2,20251105-084826,811,Experiment,T1,1,Automatic,main,45,20260326-100638,global,global,300,S,H,A,A,S-A.png,H-A.png,sS,hH,mask-1.png,mask-4.png,s,1,0.46079349983483553,none,-5,0,0.04770889994688332,0.047511199954897165,0.09942109999246895,0.10054709995165467,0.30180780007503927
RSVPLG03,JM,20260326-100250,1.0.2,20251105-084826,811,Experiment,T1,1,Automatic,main,46,20260326-100642,global,global,750,S,S,E,A,S-E.png,S-A.png,sS,sS,mask-2.png,mask-4.png,s,1,3.4957648999989033,none,-5,0,0.04766230005770922,0.04727560002356768,0.10186240007169545,0.09840180003084242,0.7542685000225902
RSVPLG03,JM,20260326-100250,1.0.2,20251105-084826,811,Experiment,T1,1,Automatic,main,47,20260326-100650,global,local,300,H,S,E,E,H-E.png,E-S.png,hH,sS,mask-1.png,mask-3.png,s,0,0.8414982999674976,none,-5,0,0.04763350007124245,0.047438599867746234,0.09989519999362528,0.09989599999971688,0.3013369000982493
RSVPLG03,JM,20260326-100250,1.0.2,20251105-084826,811,Experiment,T1,1,Automatic,main,48,20260326-100654,local,global,750,H,H,E,E,E-H.png,H-E.png,hH,hH,mask-2.png,mask-4.png,h,1,0.45787060004658997,none,-5,0,0.04769429983571172,0.049578600097447634,0.09972910000942647,0.10260300012305379,0.751677299849689
RSVPLG03,JM,20260326-100250,1.0.2,20251105-084826,811,Experiment,T1,1,Automatic,main,49,20260326-100659,global,global,300,H,S,A,A,H-A.png,S-A.png,hH,sS,mask-1.png,mask-3.png,h,1,0.9554779999889433,none,-5,0,0.04865589994005859,0.047674400033429265,0.10089439991861582,0.10186930000782013,0.301368499873206
RSVPLG03,JM,20260326-100250,1.0.2,20251105-084826,811,Experiment,T1,1,Automatic,main,50,20260326-100703,local,local,300,S,H,A,E,A-S.png,E-H.png,sS,hH,mask-1.png,mask-1.png,s,1,0.4363069001119584,none,-5,0,0.046816699905321,0.047723000170663,0.0989965999033302,0.10194690013304353,0.2996472998056561
RSVPLG03,JM,20260326-100250,1.0.2,20251105-084826,811,Experiment,T1,1,Automatic,main,51,20260326-100722,local,global,750,S,H,E,A,E-S.png,H-A.png,sS,hH,mask-4.png,mask-4.png,s,1,0.75822430010885,none,-5,0,0.047774099977687,0.04768539988435805,0.09972129995003343,0.09973479993641376,0.7528758000116795
RSVPLG03,JM,20260326-100250,1.0.2,20251105-084826,811,Experiment,T1,1,Automatic,main,52,20260326-100727,global,local,300,S,H,A,A,S-A.png,A-H.png,sS,hH,mask-1.png,mask-1.png,s,1,0.3822919998783618,none,-5,0,0.047727299854159355,0.047120200004428625,0.09956369991414249,0.09865860012359917,0.3013368998654187
RSVPLG03,JM,20260326-100250,1.0.2,20251105-084826,811,Experiment,T1,1,Automatic,main,53,20260326-100731,global,local,750,S,H,A,E,S-A.png,E-H.png,sS,hH,mask-2.png,mask-2.png,s,1,0.43521779985167086,none,-5,0,0.048490599961951375,0.04751990013755858,0.10054240003228188,0.10154659999534488,0.7528615999035537
RSVPLG03,JM,20260326-100250,1.0.2,20251105-084826,811,Experiment,T1,1,Automatic,main,54,20260326-100735,local,global,300,H,S,A,A,A-H.png,S-A.png,hH,sS,mask-2.png,mask-2.png,h,1,0.3851960999891162,none,-5,0,0.047509499825537205,0.046497900038957596,0.09951519989408553,0.09953160001896322,0.30202899989672005
RSVPLG03,JM,20260326-100250,1.0.2,20251105-084826,811,Experiment,T1,1,Automatic,main,55,20260326-100739,global,local,300,S,S,E,A,S-E.png,A-S.png,sS,sS,mask-4.png,mask-4.png,s,1,0.42060750001110137,none,-5,0,0.04751209984533489,0.047720400150865316,0.10154149984009564,0.09991959994658828,0.3014588998630643
RSVPLG03,JM,20260326-100250,1.0.2,20251105-084826,811,Experiment,T1,1,Automatic,main,56,20260326-100743,local,local,750,S,S,E,A,E-S.png,A-S.png,sS,sS,mask-4.png,mask-1.png,s,1,0.8176988000050187,none,-5,0,0.047668199986219406,0.0477120999712497,0.09987469995394349,0.10193239990621805,0.7520234999246895
RSVPLG03,JM,20260326-100250,1.0.2,20251105-084826,811,Experiment,T1,1,Automatic,main,57,20260326-100748,local,local,750,H,H,E,E,E-H.png,E-H.png,hH,hH,mask-3.png,mask-4.png,h,1,0.42606110009364784,none,-5,0,0.04797750012949109,0.04854459990747273,0.10009860014542937,0.10204000002704561,0.7516491001006216
RSVPLG03,JM,20260326-100250,1.0.2,20251105-084826,811,Experiment,T1,1,Automatic,main,58,20260326-100752,local,local,300,S,H,E,E,E-S.png,E-H.png,sS,hH,mask-2.png,mask-1.png,s,1,0.4125131999608129,none,-5,0,0.04651080002076924,0.04752809996716678,0.09890230000019073,0.09956840006634593,0.30024909996427596
RSVPLG03,JM,20260326-100250,1.0.2,20251105-084826,811,Experiment,T1,1,Automatic,main,59,20260326-100756,local,local,300,H,H,A,E,A-H.png,E-H.png,hH,hH,mask-2.png,mask-4.png,h,1,0.6379147998522967,none,-5,0,0.04871149989776313,0.04625150002539158,0.10092719993554056,0.10033320006914437,0.3027854999527335
RSVPLG03,JM,20260326-100250,1.0.2,20251105-084826,811,Experiment,T1,1,Automatic,main,60,20260326-100801,local,global,750,S,S,A,E,A-S.png,S-E.png,sS,sS,mask-1.png,mask-2.png,s,1,1.2407339001074433,none,-5,0,0.04753290000371635,0.04952669981867075,0.09955570008605719,0.10155599983409047,0.7520008001010865
RSVPLG03,JM,20260326-100250,1.0.2,20251105-084826,811,Experiment,T1,1,Automatic,main,61,20260326-100806,global,global,750,S,S,E,A,S-E.png,S-A.png,sS,sS,mask-3.png,mask-2.png,s,1,0.39469119999557734,none,-5,0,0.047123099910095334,0.047727599972859025,0.10033889999613166,0.10177970002405345,0.7515791999176145
RSVPLG03,JM,20260326-100250,1.0.2,20251105-084826,811,Experiment,T1,1,Automatic,main,62,20260326-100810,global,local,300,H,H,E,E,H-E.png,E-H.png,hH,hH,mask-3.png,mask-2.png,h,1,0.5724613999482244,none,-5,0,0.04775239992886782,0.046767699997872114,0.10000019986182451,0.09971310012042522,0.3007256998680532
RSVPLG03,JM,20260326-100250,1.0.2,20251105-084826,811,Experiment,T1,1,Automatic,main,63,20260326-100814,global,local,750,S,S,A,A,S-A.png,A-S.png,sS,sS,mask-2.png,mask-4.png,s,1,0.5425255999434739,none,-5,0,0.04686919995583594,0.04669939982704818,0.10105449985712767,0.09990539983846247,0.7532110000029206
RSVPLG03,JM,20260326-100250,1.0.2,20251105-084826,811,Experiment,T1,1,Automatic,main,64,20260326-100819,local,global,300,S,H,A,E,A-S.png,H-E.png,sS,hH,mask-1.png,mask-1.png,s,1,0.3948220999445766,none,-5,0,0.048571000108495355,0.046866599936038256,0.10107950004749,0.1013338000047952,0.30193870002403855
RSVPLG03,JM,20260326-100250,1.0.2,20251105-084826,811,Experiment,T1,1,Automatic,main,65,20260326-100823,global,local,300,S,H,A,E,S-A.png,E-H.png,sS,hH,mask-3.png,mask-4.png,s,1,0.32121640001423657,none,-5,0,0.046712799929082394,0.04752000002190471,0.0998259000480175,0.10058739990927279,0.3015851001255214
RSVPLG03,JM,20260326-100250,1.0.2,20251105-084826,811,Experiment,T1,1,Automatic,main,66,20260326-100827,global,local,300,H,S,A,E,H-A.png,E-S.png,hH,sS,mask-3.png,mask-1.png,h,1,0.22526510013267398,none,-5,0,0.04668539995327592,0.046947999857366085,0.0988678999710828,0.10020069987513125,0.29949100012890995
RSVPLG03,JM,20260326-100250,1.0.2,20251105-084826,811,Experiment,T1,1,Automatic,main,67,20260326-100831,global,global,750,H,H,A,E,H-A.png,H-E.png,hH,hH,mask-3.png,mask-1.png,h,1,0.2745843001175672,none,-5,0,0.04869599989615381,0.045692200073972344,0.09977880003862083,0.10000260011292994,0.7538693998940289
RSVPLG03,JM,20260326-100250,1.0.2,20251105-084826,811,Experiment,T1,1,Automatic,main,68,20260326-100835,global,global,750,H,H,E,A,H-E.png,H-A.png,hH,hH,mask-4.png,mask-3.png,h,1,0.06709140003658831,none,-5,0,0.04866760014556348,0.047069899970665574,0.10092900018207729,0.0999635998159647,0.7523796001914889
RSVPLG03,JM,20260326-100250,1.0.2,20251105-084826,811,Experiment,T1,1,Automatic,main,69,20260326-100839,global,global,750,H,H,E,E,H-E.png,H-E.png,hH,hH,mask-1.png,mask-2.png,h,1,0.7410787001717836,none,-5,0,0.048391099786385894,0.047773800091817975,0.1006044999230653,0.10199630004353821,0.7527683998923749
RSVPLG03,JM,20260326-100250,1.0.2,20251105-084826,811,Experiment,T1,1,Automatic,main,70,20260326-100844,global,local,300,H,S,E,A,H-E.png,A-S.png,hH,sS,mask-1.png,mask-4.png,h,1,0.4264763998799026,none,-5,0,0.04688240005634725,0.047511199954897165,0.10015309997834265,0.10066409991122782,0.3017178000882268
RSVPLG03,JM,20260326-100250,1.0.2,20251105-084826,811,Experiment,T1,1,Automatic,main,71,20260326-100848,global,local,750,H,H,E,A,H-E.png,A-H.png,hH,hH,mask-4.png,mask-2.png,h,1,0.4078599000349641,none,-5,0,0.04787690006196499,0.04705689987167716,0.10115769994445145,0.10040959995239973,0.7536546001210809
RSVPLG03,JM,20260326-100250,1.0.2,20251105-084826,811,Experiment,T1,1,Automatic,main,72,20260326-100852,local,global,750,S,H,E,E,E-S.png,H-E.png,sS,hH,mask-3.png,mask-3.png,s,1,0.3833186000119895,none,-5,0,0.04767609992995858,0.04768359987065196,0.09986629988998175,0.09889829996973276,0.7539721999783069
RSVPLG03,JM,20260326-100250,1.0.2,20251105-084826,811,Experiment,T1,1,Automatic,main,73,20260326-100856,global,local,750,S,S,A,E,S-A.png,E-S.png,sS,sS,mask-4.png,mask-2.png,s,1,0.9648618998471648,none,-5,0,0.047768000047653913,0.045887399930506945,0.10075059998780489,0.10009220009669662,0.7531948999967426
RSVPLG03,JM,20260326-100250,1.0.2,20251105-084826,811,Experiment,T1,1,Automatic,main,74,20260326-100901,global,global,750,S,H,A,A,S-A.png,H-A.png,sS,hH,mask-1.png,mask-1.png,h,0,0.46430970006622374,none,-5,0,0.04752300004474819,0.04820999992080033,0.09895829996094108,0.0992280999198556,0.7530773000326008
RSVPLG03,JM,20260326-100250,1.0.2,20251105-084826,811,Experiment,T1,1,Automatic,main,75,20260326-100906,local,global,300,H,S,E,E,E-H.png,S-E.png,hH,sS,mask-4.png,mask-2.png,h,1,0.43863960006274283,none,-5,0,0.045974900014698505,0.04770759982056916,0.10025949985720217,0.10188709991052747,0.2998577000107616
RSVPLG03,JM,20260326-100250,1.0.2,20251105-084826,811,Experiment,T1,1,Automatic,main,76,20260326-100934,local,local,750,S,S,A,A,A-S.png,A-S.png,sS,sS,mask-2.png,mask-1.png,s,1,0.26651400001719594,none,-5,0,0.0475212000310421,0.046969000017270446,0.100538200000301,0.0999986999668181,0.7524886000901461
RSVPLG03,JM,20260326-100250,1.0.2,20251105-084826,811,Experiment,T1,1,Automatic,main,77,20260326-100939,global,local,750,H,S,A,A,H-A.png,A-S.png,hH,sS,mask-3.png,mask-4.png,h,1,0.5243377999868244,none,-5,0,0.04751239996403456,0.04655450000427663,0.09953310014680028,0.09803920006379485,0.7536398000083864
RSVPLG03,JM,20260326-100250,1.0.2,20251105-084826,811,Experiment,T1,1,Automatic,main,78,20260326-100943,local,local,750,H,H,A,A,A-H.png,A-H.png,hH,hH,mask-2.png,mask-4.png,h,1,0.4964191000908613,none,-5,0,0.0475250999443233,0.0475206000264734,0.10053759999573231,0.10052680014632642,0.753544099861756
RSVPLG03,JM,20260326-100250,1.0.2,20251105-084826,811,Experiment,T1,1,Automatic,main,79,20260326-100948,global,global,300,H,H,A,A,H-A.png,H-A.png,hH,hH,mask-4.png,mask-3.png,h,1,0.3490804999601096,none,-5,0,0.047628700034692883,0.047502199886366725,0.09909130004234612,0.10092430002987385,0.3004423000384122
RSVPLG03,JM,20260326-100250,1.0.2,20251105-084826,811,Experiment,T1,1,Automatic,main,80,20260326-100952,global,global,750,H,H,E,A,H-E.png,H-A.png,hH,hH,mask-2.png,mask-2.png,h,1,0.8442655000835657,none,-5,0,0.04830260016024113,0.046231199987232685,0.10013940022327006,0.10032219998538494,0.7543535002041608
RSVPLG03,JM,20260326-100250,1.0.2,20251105-084826,811,Experiment,T1,1,Automatic,main,81,20260326-100957,local,local,300,H,H,E,E,E-H.png,E-H.png,hH,hH,mask-4.png,mask-3.png,h,1,0.4228350000921637,none,-5,0,0.04637239989824593,0.04753839992918074,0.09947249991819263,0.0985621998552233,0.3020101999863982
RSVPLG03,JM,20260326-100250,1.0.2,20251105-084826,811,Experiment,T1,1,Automatic,main,82,20260326-101001,local,local,750,H,S,A,A,A-H.png,A-S.png,hH,sS,mask-2.png,mask-2.png,h,1,0.4066807001363486,none,-5,0,0.047688000136986375,0.04681310011073947,0.09989820001646876,0.10098810005001724,0.7531500000040978
RSVPLG03,JM,20260326-100250,1.0.2,20251105-084826,811,Experiment,T1,1,Automatic,main,83,20260326-101005,global,global,300,H,S,E,E,H-E.png,S-E.png,hH,sS,mask-2.png,mask-3.png,h,1,1.1080852998420596,none,-5,0,0.047315699979662895,0.04674510005861521,0.10052870004437864,0.09961670008488,0.30243939999490976
RSVPLG03,JM,20260326-100250,1.0.2,20251105-084826,811,Experiment,T1,1,Automatic,main,84,20260326-101010,local,local,300,S,S,E,A,E-S.png,A-S.png,sS,sS,mask-2.png,mask-2.png,s,1,0.461094600148499,none,-5,0,0.04773019999265671,0.04669560003094375,0.10015000007115304,0.10073509998619556,0.30185439996421337
RSVPLG03,JM,20260326-100250,1.0.2,20251105-084826,811,Experiment,T1,1,Automatic,main,85,20260326-101014,local,global,750,H,S,E,E,E-H.png,S-E.png,hH,sS,mask-1.png,mask-3.png,h,1,0.4274919999297708,none,-5,0,0.047421100083738565,0.046998800011351705,0.10075909993611276,0.0994616998359561,0.7529746000654995
RSVPLG03,JM,20260326-100250,1.0.2,20251105-084826,811,Experiment,T1,1,Automatic,main,86,20260326-101018,local,global,300,H,S,E,A,E-H.png,S-A.png,hH,sS,mask-2.png,mask-1.png,h,1,0.34914950001984835,none,-5,0,0.047710300190374255,0.04868680005893111,0.09990989998914301,0.10088959988206625,0.2995049001183361
RSVPLG03,JM,20260326-100250,1.0.2,20251105-084826,811,Experiment,T1,1,Automatic,main,87,20260326-101022,global,global,300,H,S,A,A,H-A.png,S-A.png,hH,sS,mask-4.png,mask-1.png,s,0,0.6098824997898191,none,-5,0,0.047680099960416555,0.0476838001050055,0.09985170001164079,0.10190899996086955,0.30043770000338554
RSVPLG03,JM,20260326-100250,1.0.2,20251105-084826,811,Experiment,T1,1,Automatic,main,88,20260326-101026,local,local,750,S,H,A,E,A-S.png,E-H.png,sS,hH,mask-2.png,mask-1.png,h,0,0.49523000000044703,none,-5,0,0.047674900153651834,0.047679799841716886,0.09987740009091794,0.0997681999579072,0.7538408001419157
RSVPLG03,JM,20260326-100250,1.0.2,20251105-084826,811,Experiment,T1,1,Automatic,main,89,20260326-101031,local,global,750,H,S,E,E,E-H.png,S-E.png,hH,sS,mask-2.png,mask-1.png,h,1,0.308467400027439,none,-5,0,0.04767689993605018,0.04865800007246435,0.0997342998161912,0.10286230011843145,0.7513980998191983
RSVPLG03,JM,20260326-100250,1.0.2,20251105-084826,811,Experiment,T1,1,Automatic,main,90,20260326-101035,local,global,300,S,H,E,E,E-S.png,H-E.png,sS,hH,mask-4.png,mask-3.png,s,1,0.45817260001786053,none,-5,0,0.047665399964898825,0.04768399987369776,0.10186180006712675,0.09987929998897016,0.30183280003257096
RSVPLG03,JM,20260326-100250,1.0.2,20251105-084826,811,Experiment,T1,1,Automatic,main,91,20260326-101039,local,local,300,S,H,A,E,A-S.png,E-H.png,sS,hH,mask-4.png,mask-1.png,s,1,0.37778900004923344,none,-5,0,0.04766849987208843,0.047419500071555376,0.09986769990064204,0.09981779986992478,0.30150209995917976
RSVPLG03,JM,20260326-100250,1.0.2,20251105-084826,811,Experiment,T1,1,Automatic,main,92,20260326-101043,local,local,300,H,H,E,E,E-H.png,E-H.png,hH,hH,mask-3.png,mask-4.png,h,1,0.3697219998575747,none,-5,0,0.04681880003772676,0.04771360009908676,0.1005818999838084,0.10193210002034903,0.30030740005895495
RSVPLG03,JM,20260326-100250,1.0.2,20251105-084826,811,Experiment,T1,1,Automatic,main,93,20260326-101047,local,global,750,H,H,E,A,E-H.png,H-A.png,hH,hH,mask-1.png,mask-3.png,h,1,0.726890099933371,none,-5,0,0.047687099780887365,0.048685100162401795,0.0998923999723047,0.10188640002161264,0.7522510997951031
RSVPLG03,JM,20260326-100250,1.0.2,20251105-084826,811,Experiment,T1,1,Automatic,main,94,20260326-101052,global,global,300,S,S,A,E,S-A.png,S-E.png,sS,sS,mask-4.png,mask-4.png,s,1,0.6326840999536216,none,-5,0,0.047845999943092465,0.04759810003452003,0.09992700000293553,0.09855059999972582,0.30185909988358617
RSVPLG03,JM,20260326-100250,1.0.2,20251105-084826,811,Experiment,T1,1,Automatic,main,95,20260326-101056,global,global,300,S,S,E,A,S-E.png,S-A.png,sS,sS,mask-2.png,mask-3.png,s,1,0.765402500052005,none,-5,0,0.047701200004667044,0.04772110003978014,0.10055329999886453,0.09836269984953105,0.30208669998683035
RSVPLG03,JM,20260326-100250,1.0.2,20251105-084826,811,Experiment,T1,1,Automatic,main,96,20260326-101100,global,local,750,H,H,E,E,H-E.png,E-H.png,hH,hH,mask-4.png,mask-2.png,h,1,0.814366300124675,none,-5,0,0.04671010002493858,0.048541400115936995,0.10094129992648959,0.09975060005672276,0.7520188000053167
RSVPLG03,JM,20260326-100250,1.0.2,20251105-084826,811,Experiment,T1,1,Automatic,main,97,20260326-101105,global,global,750,H,S,E,E,H-E.png,S-E.png,hH,sS,mask-4.png,mask-1.png,h,1,0.6374292001128197,none,-5,0,0.04767100000753999,0.04673160007223487,0.09986640000715852,0.0999322000425309,0.7529329000972211
RSVPLG03,JM,20260326-100250,1.0.2,20251105-084826,811,Experiment,T1,1,Automatic,main,98,20260326-101110,global,local,300,S,S,A,A,S-A.png,A-S.png,sS,sS,mask-2.png,mask-3.png,h,0,0.5201413000468165,none,-5,0,0.04767200001515448,0.04775270004756749,0.09989900002256036,0.09998610010370612,0.3015737000387162
RSVPLG03,JM,20260326-100250,1.0.2,20251105-084826,811,Experiment,T1,1,Automatic,main,99,20260326-101114,local,global,750,H,H,E,E,E-H.png,H-E.png,hH,hH,mask-2.png,mask-3.png,h,1,0.42658390011638403,none,-5,0,0.04674700018949807,0.04790919995866716,0.09892370016314089,0.10008639981970191,0.7520442001987249
RSVPLG03,JM,20260326-100250,1.0.2,20251105-084826,811,Experiment,T1,1,Automatic,main,100,20260326-101118,global,global,750,S,S,A,E,S-A.png,S-E.png,sS,sS,mask-1.png,mask-4.png,h,0,0.48271130002103746,none,-5,0,0.04697589995339513,0.047589399851858616,0.10033009992912412,0.09963419986888766,0.7539796000346541
RSVPLG03,JM,20260326-101145,1.0.2,20251105-084826,811,Experiment,Both,1,Automatic,warmup,1,20260326-101217,global,local,300,S,H,A,E,S-A.png,E-H.png,sS,hH,mask-2.png,mask-1.png,s,1,1.3814338000956923,s,0,0.1363868999760598,0.04065220011398196,0.04768069996498525,0.09315180010162294,0.09988150000572205,0.29510410013608634
RSVPLG03,JM,20260326-101145,1.0.2,20251105-084826,811,Experiment,Both,1,Automatic,warmup,2,20260326-101222,local,local,300,S,H,A,E,A-S.png,E-H.png,sS,hH,mask-1.png,mask-3.png,s,1,0.43130300007760525,h,1,0.14265360007993877,0.048935099970549345,0.04607869987376034,0.10026429989375174,0.10014049988240004,0.3024734000209719
RSVPLG03,JM,20260326-101145,1.0.2,20251105-084826,811,Experiment,Both,1,Automatic,warmup,3,20260326-101226,local,global,750,H,S,E,A,E-H.png,S-A.png,hH,sS,mask-2.png,mask-1.png,h,1,0.6945172999985516,h,0,0.149441699963063,0.047714499989524484,0.0476923999376595,0.10200720001012087,0.09989829990081489,0.7539195001590997
RSVPLG03,JM,20260326-101145,1.0.2,20251105-084826,811,Experiment,Both,1,Automatic,warmup,4,20260326-101231,local,local,750,S,S,E,A,E-S.png,A-S.png,sS,sS,mask-4.png,mask-4.png,s,1,0.4550549001432955,s,1,0.24824280012398958,0.04755390016362071,0.047524499939754605,0.10050250007770956,0.10056339995935559,0.7531147000845522
RSVPLG03,JM,20260326-101145,1.0.2,20251105-084826,811,Experiment,Both,1,Automatic,main,5,20260326-101236,local,global,300,H,S,A,E,A-H.png,S-E.png,hH,sS,mask-1.png,mask-4.png,h,1,0.5484078999143094,s,1,0.1326200000476092,0.04802049999125302,0.04795549996197224,0.1000179999973625,0.10199839994311333,0.3001945000141859
RSVPLG03,JM,20260326-101145,1.0.2,20251105-084826,811,Experiment,Both,1,Automatic,main,6,20260326-101240,local,global,300,H,S,A,A,A-H.png,S-A.png,hH,sS,mask-1.png,mask-4.png,h,1,0.4767316000070423,s,1,0.1656263000331819,0.04819800006225705,0.047382199903950095,0.10110710002481937,0.10026699979789555,0.30111940018832684
RSVPLG03,JM,20260326-101145,1.0.2,20251105-084826,811,Experiment,Both,1,Automatic,main,7,20260326-101245,global,local,300,H,S,E,A,H-E.png,A-S.png,hH,sS,mask-4.png,mask-1.png,h,1,0.8618530998937786,h,0,0.20047049992717803,0.047744099982082844,0.04768110020086169,0.10028699995018542,0.09987310017459095,0.302014899905771
RSVPLG03,JM,20260326-101145,1.0.2,20251105-084826,811,Experiment,Both,1,Automatic,main,8,20260326-101250,global,global,750,S,S,A,E,S-A.png,S-E.png,sS,sS,mask-2.png,mask-2.png,s,1,0.4416996000800282,s,1,0.23109299992211163,0.04669389990158379,0.047976600006222725,0.09894219995476305,0.10147790005430579,0.7516940999776125
RSVPLG03,JM,20260326-101145,1.0.2,20251105-084826,811,Experiment,Both,1,Automatic,main,9,20260326-101254,global,global,750,S,H,E,E,S-E.png,H-E.png,sS,hH,mask-3.png,mask-1.png,s,1,0.5140684000216424,h,1,0.17966199992224574,0.04773540003225207,0.047671600012108684,0.09998270007781684,0.09986090008169413,0.7526465998962522
RSVPLG03,JM,20260326-101145,1.0.2,20251105-084826,811,Experiment,Both,1,Automatic,main,10,20260326-101259,global,local,300,S,S,A,A,S-A.png,A-S.png,sS,sS,mask-1.png,mask-1.png,s,1,0.5074475998990238,h,0,0.14966049999929965,0.04761529993265867,0.047481399960815907,0.09980309987440705,0.10078099998645484,0.30129639990627766
RSVPLG03,JM,20260326-101145,1.0.2,20251105-084826,811,Experiment,Both,1,Automatic,main,11,20260326-101303,global,local,750,S,S,A,A,S-A.png,A-S.png,sS,sS,mask-3.png,mask-1.png,s,1,0.5205138002056628,h,0,0.18357710004784167,0.047653499990701675,0.04769110004417598,0.09921919996850193,0.10177750000730157,0.751882900018245
RSVPLG03,JM,20260326-101145,1.0.2,20251105-084826,811,Experiment,Both,1,Automatic,main,12,20260326-101308,global,global,300,H,H,E,E,H-E.png,H-E.png,hH,hH,mask-4.png,mask-2.png,h,1,0.38933610008098185,h,1,0.17153369984589517,0.047711299965158105,0.04585430002771318,0.09998900000937283,0.09890510002151132,0.30234219995327294
RSVPLG03,JM,20260326-101145,1.0.2,20251105-084826,811,Experiment,Both,1,Automatic,main,13,20260326-101313,local,local,300,S,S,E,E,E-S.png,E-S.png,sS,sS,mask-4.png,mask-3.png,s,1,0.47651239996775985,s,1,0.17392989993095398,0.04818450007587671,0.04805360012687743,0.10077079990878701,0.09951500012539327,0.30196819989942014
RSVPLG03,JM,20260326-101145,1.0.2,20251105-084826,811,Experiment,Both,1,Automatic,main,14,20260326-101317,global,local,300,S,H,E,A,S-E.png,A-H.png,sS,hH,mask-2.png,mask-2.png,s,1,0.5116903998423368,s,0,0.15430389996618032,0.047901400132104754,0.048730599926784635,0.09938280005007982,0.10180810000747442,0.30078420019708574
RSVPLG03,JM,20260326-101145,1.0.2,20251105-084826,811,Experiment,Both,1,Automatic,main,15,20260326-101321,local,global,300,S,H,E,A,E-S.png,H-A.png,sS,hH,mask-1.png,mask-1.png,s,1,1.364795200061053,h,1,0.08646199991926551,0.047681699972599745,0.04768290021456778,0.099849299993366,0.09987750020809472,0.30179889989085495
RSVPLG03,JM,20260326-101145,1.0.2,20251105-084826,811,Experiment,Both,1,Automatic,main,16,20260326-101327,local,local,300,H,S,A,A,A-H.png,A-S.png,hH,sS,mask-1.png,mask-2.png,h,1,0.487211000174284,s,1,0.1688595002051443,0.04768839990720153,0.046956200152635574,0.09988370002247393,0.10067189997062087,0.30050889984704554
RSVPLG03,JM,20260326-101145,1.0.2,20251105-084826,811,Experiment,Both,1,Automatic,main,17,20260326-101331,global,global,750,S,H,A,A,S-A.png,H-A.png,sS,hH,mask-2.png,mask-1.png,s,1,0.5376005000434816,h,1,0.42495170002803206,0.047586699947714806,0.04639670019969344,0.10076560010202229,0.09983180020935833,0.7528687999583781
RSVPLG03,JM,20260326-101145,1.0.2,20251105-084826,811,Experiment,Both,1,Automatic,main,18,20260326-101336,global,local,300,S,S,A,A,S-A.png,A-S.png,sS,sS,mask-1.png,mask-1.png,s,1,0.47673929994925857,h,0,0.175998899852857,0.048670300049707294,0.0457569002173841,0.09967819997109473,0.09995660022832453,0.30171069991774857
RSVPLG03,JM,20260326-101145,1.0.2,20251105-084826,811,Experiment,Both,1,Automatic,main,19,20260326-101340,global,global,300,H,S,A,A,H-A.png,S-A.png,hH,sS,mask-4.png,mask-3.png,h,1,0.3858851999975741,s,1,0.1988409000914544,0.047767299925908446,0.047953000059351325,0.1002668000292033,0.10027970001101494,0.30031759990379214
RSVPLG03,JM,20260326-101145,1.0.2,20251105-084826,811,Experiment,Both,1,Automatic,main,20,20260326-101345,global,local,750,S,S,E,A,S-E.png,A-S.png,sS,sS,mask-2.png,mask-4.png,s,1,0.4170409000944346,h,0,0.2629921000916511,0.0487313000485301,0.0485878000035882,0.10005800006911159,0.10142580000683665,0.7517506999429315
RSVPLG03,JM,20260326-101145,1.0.2,20251105-084826,811,Experiment,Both,1,Automatic,main,21,20260326-101350,local,global,750,S,H,E,E,E-S.png,H-E.png,sS,hH,mask-4.png,mask-2.png,s,1,0.7321185001637787,h,1,0.2810878998134285,0.04751289985142648,0.04756179987452924,0.0988487999420613,0.10085119982250035,0.7518037999980152
RSVPLG03,JM,20260326-101145,1.0.2,20251105-084826,811,Experiment,Both,1,Automatic,main,22,20260326-101355,local,global,750,S,H,A,A,A-S.png,H-A.png,sS,hH,mask-3.png,mask-2.png,s,1,1.7233269000425935,h,1,0.14445550017990172,0.048578100046142936,0.0482249001506716,0.100659100105986,0.10071940021589398,0.7529307999648154
RSVPLG03,JM,20260326-101145,1.0.2,20251105-084826,811,Experiment,Both,1,Automatic,main,23,20260326-101401,local,local,750,S,H,A,E,A-S.png,E-H.png,sS,hH,mask-1.png,mask-2.png,s,1,0.43078919989056885,h,1,0.26293840003199875,0.047492200043052435,0.0495102999266237,0.10085089993663132,0.10072250012308359,0.7519143000245094
RSVPLG03,JM,20260326-101145,1.0.2,20251105-084826,811,Experiment,Both,1,Automatic,main,24,20260326-101406,local,global,750,H,H,E,A,E-H.png,H-A.png,hH,hH,mask-1.png,mask-2.png,h,1,0.6039385998155922,h,1,0.17286489997059107,0.04684570012614131,0.04949279990978539,0.10192600009031594,0.10084560001268983,0.7524373000487685
RSVPLG03,JM,20260326-101145,1.0.2,20251105-084826,811,Experiment,Both,1,Automatic,main,25,20260326-101410,local,global,300,H,S,E,E,E-H.png,S-E.png,hH,sS,mask-2.png,mask-2.png,h,1,0.6215616001281887,s,1,0.07616940001025796,0.047537799924612045,0.04739030008204281,0.09963159984908998,0.10127179999835789,0.30033819982782006
RSVPLG03,JM,20260326-101145,1.0.2,20251105-084826,811,Experiment,Both,1,Automatic,main,26,20260326-101424,global,global,300,H,S,A,A,H-A.png,S-A.png,hH,sS,mask-2.png,mask-3.png,h,1,1.2025661999359727,s,1,0.645661799935624,0.04769550007767975,0.047681800089776516,0.09995810012333095,0.09987109992653131,0.301768200006336
RSVPLG03,JM,20260326-101145,1.0.2,20251105-084826,811,Experiment,Both,1,Automatic,main,27,20260326-101430,global,local,750,S,S,A,E,S-A.png,E-S.png,sS,sS,mask-3.png,mask-1.png,s,1,0.3547438997775316,s,1,0.12136890017427504,0.047528599854558706,0.04691609996370971,0.09954129997640848,0.0990782999433577,0.7529384000226855
RSVPLG03,JM,20260326-101145,1.0.2,20251105-084826,811,Experiment,Both,1,Automatic,main,28,20260326-101434,global,global,750,H,H,A,E,H-A.png,H-E.png,hH,hH,mask-3.png,mask-4.png,h,1,0.41218760004267097,h,1,0.20238100015558302,0.047673899913206697,0.04769899998791516,0.10075089987367392,0.09991839993745089,0.7521396998781711
RSVPLG03,JM,20260326-101145,1.0.2,20251105-084826,811,Experiment,Both,1,Automatic,main,29,20260326-101439,global,local,300,S,S,A,A,S-A.png,A-S.png,sS,sS,mask-4.png,mask-4.png,s,1,0.7305582999251783,s,1,0.14885639981366694,0.047587300185114145,0.04971499997191131,0.099739900091663,0.10206599999219179,0.30017360020428896
RSVPLG03,JM,20260326-101145,1.0.2,20251105-084826,811,Experiment,Both,1,Automatic,main,30,20260326-101444,global,local,300,S,H,A,E,S-A.png,E-H.png,sS,hH,mask-1.png,mask-4.png,s,1,0.86521300021559,s,0,0.19809600012376904,0.047666999977082014,0.047677900176495314,0.09984240005724132,0.10106989997439086,0.3004499999806285
RSVPLG03,JM,20260326-101145,1.0.2,20251105-084826,811,Experiment,Both,1,Automatic,main,31,20260326-101448,local,local,300,S,S,A,E,A-S.png,E-S.png,sS,sS,mask-3.png,mask-4.png,h,0,0.4239181000739336,s,1,0.13725030003115535,0.0466408000793308,0.04753689980134368,0.09972220007330179,0.09984529996290803,0.3011329001747072
RSVPLG03,JM,20260326-101145,1.0.2,20251105-084826,811,Experiment,Both,1,Automatic,main,32,20260326-101453,global,global,300,S,S,A,E,S-A.png,S-E.png,sS,sS,mask-1.png,mask-1.png,s,1,0.6048967000097036,s,1,0.11947169993072748,0.0475445999763906,0.04680750006809831,0.09957109997048974,0.10088240006007254,0.29982750001363456
RSVPLG03,JM,20260326-101145,1.0.2,20251105-084826,811,Experiment,Both,1,Automatic,main,33,20260326-101457,local,local,300,S,S,A,A,A-S.png,A-S.png,sS,sS,mask-1.png,mask-1.png,s,1,0.42443519993685186,s,1,0.12252569990232587,0.047489200020208955,0.04669420002028346,0.09952570009045303,0.09973419993184507,0.3018110999837518
RSVPLG03,JM,20260326-101145,1.0.2,20251105-084826,811,Experiment,Both,1,Automatic,main,34,20260326-101501,global,local,750,H,H,A,E,H-A.png,E-H.png,hH,hH,mask-2.png,mask-3.png,h,1,0.5190240000374615,s,0,0.10544129996560514,0.04808860016055405,0.04768539988435805,0.1002895999699831,0.10195269994437695,0.7522212001495063
RSVPLG03,JM,20260326-101145,1.0.2,20251105-084826,811,Experiment,Both,1,Automatic,main,35,20260326-101506,global,local,750,H,S,A,E,H-A.png,E-S.png,hH,sS,mask-2.png,mask-3.png,h,1,1.3086339998990297,s,1,0.427555900067091,0.047723600175231695,0.049561999971047044,0.09987720008939505,0.10051220003515482,0.7516570000443608
RSVPLG03,JM,20260326-101145,1.0.2,20251105-084826,811,Experiment,Both,1,Automatic,main,36,20260326-101512,global,global,750,H,S,A,A,H-A.png,S-A.png,hH,sS,mask-2.png,mask-4.png,h,1,0.5200271001085639,s,1,0.23669299995526671,0.04751619999296963,0.046543800039216876,0.09958300017751753,0.10054920008406043,0.7531262000557035
RSVPLG03,JM,20260326-101145,1.0.2,20251105-084826,811,Experiment,Both,1,Automatic,main,37,20260326-101517,global,global,300,S,S,A,E,S-A.png,S-E.png,sS,sS,mask-2.png,mask-3.png,s,1,0.3834113001357764,s,1,0.13144020014442503,0.048523399978876114,0.04958210000768304,0.10053670010529459,0.10156140010803938,0.3003610000014305
RSVPLG03,JM,20260326-101145,1.0.2,20251105-084826,811,Experiment,Both,1,Automatic,main,38,20260326-101521,local,local,300,S,H,A,A,A-S.png,A-H.png,sS,hH,mask-1.png,mask-1.png,s,1,1.9663491998799145,h,1,0.18350470019504428,0.04599220003001392,0.04793110000900924,0.09927220013923943,0.10087900003418326,0.3003547000698745
RSVPLG03,JM,20260326-101145,1.0.2,20251105-084826,811,Experiment,Both,1,Automatic,main,39,20260326-101527,local,global,750,S,S,A,A,A-S.png,S-A.png,sS,sS,mask-3.png,mask-2.png,s,1,1.1763605000451207,s,1,0.14057240006513894,0.046849500155076385,0.04757980001159012,0.09987600008025765,0.10064910002984107,0.7512900000438094
RSVPLG03,JM,20260326-101145,1.0.2,20251105-084826,811,Experiment,Both,1,Automatic,main,40,20260326-101533,local,global,300,H,S,E,E,E-H.png,S-E.png,hH,sS,mask-3.png,mask-3.png,s,0,0.6753765000030398,h,0,0.054690999910235405,0.048702700063586235,0.04919079993851483,0.10082370019517839,0.10023569990880787,0.3012155001051724
RSVPLG03,JM,20260326-101145,1.0.2,20251105-084826,811,Experiment,Both,1,Automatic,main,41,20260326-101537,global,local,750,H,H,A,E,H-A.png,E-H.png,hH,hH,mask-1.png,mask-2.png,h,1,0.5676166000775993,h,1,0.18437619996257126,0.04749559983611107,0.04749009991064668,0.09955299994908273,0.09986589988693595,0.751838400028646
RSVPLG03,JM,20260326-101145,1.0.2,20251105-084826,811,Experiment,Both,1,Automatic,main,42,20260326-101542,local,local,750,H,S,E,A,E-H.png,A-S.png,hH,sS,mask-2.png,mask-1.png,h,1,0.37045340007171035,s,1,0.16945250006392598,0.04767230013385415,0.04669019998982549,0.09909970010630786,0.10022879997268319,0.7526543000712991
RSVPLG03,JM,20260326-101145,1.0.2,20251105-084826,811,Experiment,Both,1,Automatic,main,43,20260326-101547,global,global,750,H,H,A,E,H-A.png,H-E.png,hH,hH,mask-4.png,mask-1.png,h,1,0.4628495001234114,h,1,0.16963729984126985,0.04866009997203946,0.04774189996533096,0.10178379993885756,0.10004350007511675,0.7535214000381529
RSVPLG03,JM,20260326-101145,1.0.2,20251105-084826,811,Experiment,Both,1,Automatic,main,44,20260326-101551,global,local,750,H,H,E,A,H-E.png,A-H.png,hH,hH,mask-3.png,mask-3.png,h,1,0.4009316998999566,h,1,0.21220319997519255,0.04776720004156232,0.04768269998021424,0.10084150009788573,0.10189049993641675,0.7524956001434475
RSVPLG03,JM,20260326-101145,1.0.2,20251105-084826,811,Experiment,Both,1,Automatic,main,45,20260326-101556,global,global,300,S,H,E,A,S-E.png,H-A.png,sS,hH,mask-4.png,mask-1.png,s,1,1.2881625997833908,h,1,0.14745329995639622,0.04767230013385415,0.04636560007929802,0.10086530004628003,0.09943059994839132,0.30235720006749034
RSVPLG03,JM,20260326-101145,1.0.2,20251105-084826,811,Experiment,Both,1,Automatic,main,46,20260326-101601,local,global,300,S,S,A,E,A-S.png,S-E.png,sS,sS,mask-1.png,mask-1.png,h,0,0.8762703998945653,s,1,1.1897958000190556,0.04771770001389086,0.047681399853900075,0.10093330009840429,0.10191699978895485,0.30055570020340383
RSVPLG03,JM,20260326-101145,1.0.2,20251105-084826,811,Experiment,Both,1,Automatic,main,47,20260326-101607,local,local,750,H,S,E,E,E-H.png,E-S.png,hH,sS,mask-2.png,mask-1.png,h,1,0.3469024000223726,s,1,0.16404389985837042,0.04662199993617833,0.0476691999938339,0.09969340008683503,0.09984599985182285,0.7516545001417398
RSVPLG03,JM,20260326-101145,1.0.2,20251105-084826,811,Experiment,Both,1,Automatic,main,48,20260326-101612,global,local,300,H,S,A,E,H-A.png,E-S.png,hH,sS,mask-4.png,mask-3.png,h,1,0.47458959999494255,s,1,0.06882799998857081,0.04759080009534955,0.04639529995620251,0.0997917999047786,0.10061169997788966,0.30131589993834496
RSVPLG03,JM,20260326-101145,1.0.2,20251105-084826,811,Experiment,Both,1,Automatic,main,49,20260326-101616,global,global,750,S,H,E,E,S-E.png,H-E.png,sS,hH,mask-1.png,mask-4.png,s,1,0.5093648000620306,h,1,0.054374700179323554,0.04767700005322695,0.04769759997725487,0.10068890010006726,0.10194210009649396,0.7521492999512702
RSVPLG03,JM,20260326-101145,1.0.2,20251105-084826,811,Experiment,Both,1,Automatic,main,50,20260326-101621,global,local,750,H,S,A,A,H-A.png,A-S.png,hH,sS,mask-3.png,mask-3.png,h,1,0.6225717000197619,s,1,0.054872999899089336,0.047495400067418814,0.04951389995403588,0.10061029996722937,0.10073329997248948,0.7518386000301689
RSVPLG03,JM,20260326-101145,1.0.2,20251105-084826,811,Experiment,Both,1,Automatic,main,51,20260326-101642,local,global,750,H,H,E,A,E-H.png,H-A.png,hH,hH,mask-4.png,mask-2.png,s,0,1.6965562999248505,s,0,0.12148600001819432,0.04851499991491437,0.04760550009086728,0.10151169984601438,0.10065899998880923,0.7528289998881519
RSVPLG03,JM,20260326-101145,1.0.2,20251105-084826,811,Experiment,Both,1,Automatic,main,52,20260326-101648,local,local,750,H,H,A,E,A-H.png,E-H.png,hH,hH,mask-1.png,mask-1.png,h,1,0.38032369990833104,h,1,0.16068570013158023,0.04754390008747578,0.0483383999671787,0.10156890004873276,0.10131180007010698,0.7526265999767929
RSVPLG03,JM,20260326-101145,1.0.2,20251105-084826,811,Experiment,Both,1,Automatic,main,53,20260326-101652,global,global,300,S,H,E,A,S-E.png,H-A.png,sS,hH,mask-1.png,mask-4.png,s,1,0.40949949994683266,h,1,0.024589900160208344,0.04719309997744858,0.04745559999719262,0.100877899909392,0.09973730007186532,0.3012079999316484
RSVPLG03,JM,20260326-101145,1.0.2,20251105-084826,811,Experiment,Both,1,Automatic,main,54,20260326-101656,global,global,750,S,H,E,E,S-E.png,H-E.png,sS,hH,mask-4.png,mask-2.png,s,1,0.4915741002187133,h,1,0.33228680002503097,0.047575100092217326,0.047480199951678514,0.09969020006246865,0.1003521999809891,0.7521673000883311
RSVPLG03,JM,20260326-101145,1.0.2,20251105-084826,811,Experiment,Both,1,Automatic,main,55,20260326-101701,local,global,750,H,S,E,A,E-H.png,S-A.png,hH,sS,mask-1.png,mask-3.png,h,1,0.7600914998911321,h,0,0.09170640003867447,0.047527499962598085,0.04962299996986985,0.101465999847278,0.10166139993816614,0.7517764999065548
RSVPLG03,JM,20260326-101145,1.0.2,20251105-084826,811,Experiment,Both,1,Automatic,main,56,20260326-101706,local,local,750,S,H,A,E,A-S.png,E-H.png,sS,hH,mask-2.png,mask-4.png,s,1,0.41194839985109866,h,1,0.007964400108903646,0.048583200201392174,0.04751649987883866,0.10258220019750297,0.10083239991217852,0.7530059001874179
RSVPLG03,JM,20260326-101145,1.0.2,20251105-084826,811,Experiment,Both,1,Automatic,main,57,20260326-101711,local,local,750,H,S,A,A,A-H.png,A-S.png,hH,sS,mask-4.png,mask-1.png,h,1,0.32543560001067817,s,1,0.05260490020737052,0.0465749001596123,0.04760390007868409,0.0995734001044184,0.09861420001834631,0.7532095999922603
RSVPLG03,JM,20260326-101145,1.0.2,20251105-084826,811,Experiment,Both,1,Automatic,main,58,20260326-101716,local,global,300,S,H,E,E,E-S.png,H-E.png,sS,hH,mask-1.png,mask-3.png,s,1,0.796240400057286,h,1,0.394027000060305,0.04684960003942251,0.04955260013230145,0.09976690006442368,0.10154890012927353,0.3000431000255048
RSVPLG03,JM,20260326-101145,1.0.2,20251105-084826,811,Experiment,Both,1,Automatic,main,59,20260326-101720,local,local,300,H,S,A,E,A-H.png,E-S.png,hH,sS,mask-3.png,mask-1.png,h,1,0.7846202999353409,s,1,0.11745479982346296,0.04885879997164011,0.04855469986796379,0.1011226000264287,0.10174349998123944,0.3017310001887381
RSVPLG03,JM,20260326-101145,1.0.2,20251105-084826,811,Experiment,Both,1,Automatic,main,60,20260326-101725,global,local,300,S,H,E,A,S-E.png,A-H.png,sS,hH,mask-4.png,mask-2.png,s,1,0.8867898001335561,s,0,0.15550310001708567,0.04752300004474819,0.04764369991607964,0.09957590000703931,0.10065250005573034,0.30177909997291863
RSVPLG03,JM,20260326-101145,1.0.2,20251105-084826,811,Experiment,Both,1,Automatic,main,61,20260326-101730,global,local,750,H,H,A,E,H-A.png,E-H.png,hH,hH,mask-2.png,mask-3.png,h,1,0.40624549984931946,h,1,0.29121870012022555,0.04749709996394813,0.04751039994880557,0.09946310007944703,0.09972990001551807,0.7520938999950886
RSVPLG03,JM,20260326-101145,1.0.2,20251105-084826,811,Experiment,Both,1,Automatic,main,62,20260326-101735,local,global,300,S,H,A,E,A-S.png,H-E.png,sS,hH,mask-4.png,mask-2.png,s,1,0.7426545999478549,h,1,0.035567899933084846,0.04769150004722178,0.04770050011575222,0.09991029999218881,0.09891190007328987,0.30164479999803007
RSVPLG03,JM,20260326-101145,1.0.2,20251105-084826,811,Experiment,Both,1,Automatic,main,63,20260326-101739,local,local,750,S,S,E,A,E-S.png,A-S.png,sS,sS,mask-4.png,mask-2.png,s,1,0.8548673999030143,h,0,0.06058760010637343,0.047515900107100606,0.04768999991938472,0.10018380009569228,0.09987939987331629,0.7524567001964897
RSVPLG03,JM,20260326-101145,1.0.2,20251105-084826,811,Experiment,Both,1,Automatic,main,64,20260326-101744,global,local,300,S,H,E,A,S-E.png,A-H.png,sS,hH,mask-2.png,mask-3.png,s,1,0.7800789999309927,h,1,0.6955633000470698,0.04755350016057491,0.047515999991446733,0.0995539000723511,0.09952879999764264,0.3018836001865566
RSVPLG03,JM,20260326-101145,1.0.2,20251105-084826,811,Experiment,Both,1,Automatic,main,65,20260326-101749,global,local,750,S,H,E,A,S-E.png,A-H.png,sS,hH,mask-4.png,mask-1.png,s,1,0.4270303000230342,h,1,0.18118120008148253,0.04774419986642897,0.04754629987291992,0.09980349987745285,0.1013557999394834,0.7520421999506652
RSVPLG03,JM,20260326-101145,1.0.2,20251105-084826,811,Experiment,Both,1,Automatic,main,66,20260326-101754,local,local,300,H,H,E,A,E-H.png,A-H.png,hH,hH,mask-2.png,mask-2.png,h,1,0.4704180001281202,h,1,0.16704789991490543,0.04673439986072481,0.047555399825796485,0.09981319983489811,0.09862469998188317,0.30110829998739064
RSVPLG03,JM,20260326-101145,1.0.2,20251105-084826,811,Experiment,Both,1,Automatic,main,67,20260326-101758,local,global,300,H,S,A,E,A-H.png,S-E.png,hH,sS,mask-2.png,mask-2.png,s,0,3.112978999968618,h,0,0.02624349994584918,0.04646220011636615,0.04709829995408654,0.10015029995702207,0.1013130999635905,0.3005907000042498
RSVPLG03,JM,20260326-101145,1.0.2,20251105-084826,811,Experiment,Both,1,Automatic,main,68,20260326-101805,local,global,750,S,S,E,E,E-S.png,S-E.png,sS,sS,mask-3.png,mask-1.png,h,0,1.5396819999441504,s,1,0.10680830013006926,0.047576099867001176,0.04854719992727041,0.09942530002444983,0.0995618999004364,0.7521865000016987
RSVPLG03,JM,20260326-101145,1.0.2,20251105-084826,811,Experiment,Both,1,Automatic,main,69,20260326-101811,local,global,300,H,H,E,A,E-H.png,H-A.png,hH,hH,mask-2.png,mask-2.png,h,1,1.0261160000227392,s,0,0.06946779997088015,0.046847700141370296,0.045584999956190586,0.09925700002349913,0.09865959989838302,0.30189270013943315
RSVPLG03,JM,20260326-101145,1.0.2,20251105-084826,811,Experiment,Both,1,Automatic,main,70,20260326-101816,local,local,750,S,H,E,E,E-S.png,E-H.png,sS,hH,mask-4.png,mask-3.png,s,1,0.7390632999595255,h,1,0.28347739996388555,0.047559799859300256,0.04682889999821782,0.10062779998406768,0.1009087001439184,0.7519071998540312
RSVPLG03,JM,20260326-101145,1.0.2,20251105-084826,811,Experiment,Both,1,Automatic,main,71,20260326-101821,global,global,300,S,S,E,E,S-E.png,S-E.png,sS,sS,mask-2.png,mask-3.png,s,1,1.8168770000338554,s,1,0.3009864001069218,0.04853830020874739,0.04749389993958175,0.10052220011129975,0.10156809980981052,0.3017286001704633
RSVPLG03,JM,20260326-101145,1.0.2,20251105-084826,811,Experiment,Both,1,Automatic,main,72,20260326-101827,local,global,750,H,H,A,A,A-H.png,H-A.png,hH,hH,mask-1.png,mask-4.png,h,1,0.5611153000500053,s,0,0.15130529995076358,0.047501099994406104,0.04753029998391867,0.09949869988486171,0.10054409992881119,0.7518054000101984
RSVPLG03,JM,20260326-101145,1.0.2,20251105-084826,811,Experiment,Both,1,Automatic,main,73,20260326-101832,local,local,300,S,S,A,A,A-S.png,A-S.png,sS,sS,mask-2.png,mask-4.png,s,1,0.7375218998640776,s,1,0.14054440008476377,0.04750750004313886,0.0475014999974519,0.09950720006600022,0.10052180010825396,0.3018562998622656
RSVPLG03,JM,20260326-101145,1.0.2,20251105-084826,811,Experiment,Both,1,Automatic,main,74,20260326-101836,global,global,300,S,H,A,A,S-A.png,H-A.png,sS,hH,mask-3.png,mask-1.png,s,1,0.45060810004360974,h,1,0.02779810014180839,0.047585400054231286,0.04691710020415485,0.09969050018116832,0.10084890015423298,0.30060279997996986
RSVPLG03,JM,20260326-101145,1.0.2,20251105-084826,811,Experiment,Both,1,Automatic,main,75,20260326-101841,local,global,300,H,S,A,A,A-H.png,S-A.png,hH,sS,mask-1.png,mask-2.png,h,1,0.756776100024581,h,0,0.17118840012699366,0.046586700016632676,0.04781590006314218,0.09959329990670085,0.1017543999478221,0.29985249997116625
RSVPLG03,JM,20260326-101145,1.0.2,20251105-084826,811,Experiment,Both,1,Automatic,main,76,20260326-101901,global,global,300,H,S,E,A,H-E.png,S-A.png,hH,sS,mask-3.png,mask-3.png,h,1,0.36420840001665056,s,1,0.003075700020417571,0.047588600078597665,0.04761260002851486,0.10060929995961487,0.09864380001090467,0.30189560004509985
RSVPLG03,JM,20260326-101145,1.0.2,20251105-084826,811,Experiment,Both,1,Automatic,main,77,20260326-101905,local,local,300,S,S,E,A,E-S.png,A-S.png,sS,sS,mask-1.png,mask-2.png,s,1,0.3546591999474913,s,1,0.10881099989637733,0.04751589987426996,0.04753149999305606,0.09954910003580153,0.10154090006835759,0.29981749993748963
RSVPLG03,JM,20260326-101145,1.0.2,20251105-084826,811,Experiment,Both,1,Automatic,main,78,20260326-101909,local,global,750,H,H,A,A,A-H.png,H-A.png,hH,hH,mask-1.png,mask-4.png,h,1,0.4205787000246346,s,0,0.07063219998963177,0.047062600031495094,0.04858960001729429,0.09898560005240142,0.10061349999159575,0.7507597000803798
RSVPLG03,JM,20260326-101145,1.0.2,20251105-084826,811,Experiment,Both,1,Automatic,main,79,20260326-101913,global,local,300,H,H,A,E,H-A.png,E-H.png,hH,hH,mask-4.png,mask-2.png,h,1,1.0602891999296844,s,0,0.006033699959516525,0.04769099992699921,0.04752220003865659,0.09908610000275075,0.09945820015855134,0.30179829988628626
RSVPLG03,JM,20260326-101145,1.0.2,20251105-084826,811,Experiment,Both,1,Automatic,main,80,20260326-101918,global,global,750,H,S,E,A,H-E.png,S-A.png,hH,sS,mask-1.png,mask-3.png,h,1,0.49954230012372136,s,1,0.010028300108388066,0.04668810009025037,0.04768620012328029,0.09988170000724494,0.1018769999500364,0.7515636999160051
RSVPLG03,JM,20260326-101145,1.0.2,20251105-084826,811,Experiment,Both,1,Automatic,main,81,20260326-101923,local,local,750,H,S,E,A,E-H.png,A-S.png,hH,sS,mask-2.png,mask-2.png,s,0,0.9126765998080373,h,0,0.41074430011212826,0.048089300049468875,0.047705600038170815,0.10004229983314872,0.09939770004712045,0.7534747999161482
RSVPLG03,JM,20260326-101145,1.0.2,20251105-084826,811,Experiment,Both,1,Automatic,main,82,20260326-101928,local,local,300,S,S,E,A,E-S.png,A-S.png,sS,sS,mask-2.png,mask-3.png,s,1,0.6909008000511676,s,1,0.09580060001462698,0.0476691999938339,0.04690439999103546,0.09985140012577176,0.09990969998762012,0.30184600013308227
RSVPLG03,JM,20260326-101145,1.0.2,20251105-084826,811,Experiment,Both,1,Automatic,main,83,20260326-101933,global,global,300,S,S,A,E,S-A.png,S-E.png,sS,sS,mask-4.png,mask-1.png,s,1,0.8391377998050302,s,1,0.1653648999053985,0.04749369993805885,0.047517200000584126,0.100433100014925,0.10189580009318888,0.3003262998536229
RSVPLG03,JM,20260326-101145,1.0.2,20251105-084826,811,Experiment,Both,1,Automatic,main,84,20260326-101937,global,global,750,S,S,E,A,S-E.png,S-A.png,sS,sS,mask-4.png,mask-3.png,s,1,0.5222674999386072,s,1,0.3899562999140471,0.04716380010358989,0.047694799955934286,0.10054240003228188,0.09901869995519519,0.753413800150156
RSVPLG03,JM,20260326-101145,1.0.2,20251105-084826,811,Experiment,Both,1,Automatic,main,85,20260326-101942,local,global,300,H,S,E,A,E-H.png,S-A.png,hH,sS,mask-1.png,mask-3.png,h,1,0.772879800060764,h,0,0.5802983997855335,0.04718280001543462,0.04672730015590787,0.10019010002724826,0.10085829999297857,0.30135530000552535
RSVPLG03,JM,20260326-101145,1.0.2,20251105-084826,811,Experiment,Both,1,Automatic,main,86,20260326-101947,local,local,300,S,H,E,A,E-S.png,A-H.png,sS,hH,mask-1.png,mask-2.png,s,1,0.40700350003317,s,0,0.12234280002303421,0.046741100028157234,0.045835600001737475,0.09899140009656549,0.0988215000834316,0.300901300041005
RSVPLG03,JM,20260326-101145,1.0.2,20251105-084826,811,Experiment,Both,1,Automatic,main,87,20260326-101952,global,local,300,S,H,A,A,S-A.png,A-H.png,sS,hH,mask-3.png,mask-4.png,s,1,0.7273965000640601,s,0,0.152593299979344,0.048856700072064996,0.04774859989993274,0.10113020008429885,0.09986680001020432,0.3027902999892831
RSVPLG03,JM,20260326-101145,1.0.2,20251105-084826,811,Experiment,Both,1,Automatic,main,88,20260326-101956,global,global,750,H,H,A,E,H-A.png,H-E.png,hH,hH,mask-4.png,mask-4.png,h,1,1.0406410000286996,h,1,0.06954549998044968,0.047505300026386976,0.04763120017014444,0.09947920008562505,0.10000610002316535,0.7526571999769658
RSVPLG03,JM,20260326-101145,1.0.2,20251105-084826,811,Experiment,Both,1,Automatic,main,89,20260326-102001,local,global,750,H,H,E,A,E-H.png,H-A.png,hH,hH,mask-4.png,mask-2.png,h,1,1.9666138000320643,s,0,0.05959329986944795,0.046961599960923195,0.048605000134557486,0.10122559987939894,0.10022650007158518,0.7533920998685062
RSVPLG03,JM,20260326-101145,1.0.2,20251105-084826,811,Experiment,Both,1,Automatic,main,90,20260326-102008,global,global,750,H,S,A,A,H-A.png,S-A.png,hH,sS,mask-4.png,mask-1.png,h,1,0.6286985001061112,s,1,0.733401799807325,0.04661389999091625,0.04894770006649196,0.09980099997483194,0.10000759991817176,0.7518219000194222
RSVPLG03,JM,20260326-101145,1.0.2,20251105-084826,811,Experiment,Both,1,Automatic,main,91,20260326-102013,local,global,750,S,S,E,E,E-S.png,S-E.png,sS,sS,mask-2.png,mask-4.png,s,1,1.715014399960637,h,0,0.14718379988335073,0.0466536998283118,0.0485101998783648,0.09975149994716048,0.1016873000189662,0.7516576999332756
RSVPLG03,JM,20260326-101145,1.0.2,20251105-084826,811,Experiment,Both,1,Automatic,main,92,20260326-102019,global,local,750,S,S,E,A,S-E.png,A-S.png,sS,sS,mask-1.png,mask-3.png,h,0,1.6737728000152856,h,0,0.3496598000638187,0.047130699967965484,0.04572789999656379,0.09941380005329847,0.0989882000721991,0.7535049999132752
RSVPLG03,JM,20260326-101145,1.0.2,20251105-084826,811,Experiment,Both,1,Automatic,main,93,20260326-102025,global,local,300,H,H,A,A,H-A.png,A-H.png,hH,hH,mask-1.png,mask-2.png,h,1,0.471703999908641,s,0,0.0727576999925077,0.047667899867519736,0.04853190016001463,0.10003790003247559,0.10146090015769005,0.30050099990330637
RSVPLG03,JM,20260326-101145,1.0.2,20251105-084826,811,Experiment,Both,1,Automatic,main,94,20260326-102030,local,local,300,H,H,E,A,E-H.png,A-H.png,hH,hH,mask-1.png,mask-3.png,h,1,0.7031809000764042,h,1,0.15054489998146892,0.04770039999857545,0.047804699977859855,0.0995671998243779,0.10100550018250942,0.3008309998549521
RSVPLG03,JM,20260326-101145,1.0.2,20251105-084826,811,Experiment,Both,1,Automatic,main,95,20260326-102034,local,local,750,S,S,E,A,E-S.png,A-S.png,sS,sS,mask-2.png,mask-2.png,s,1,0.5563491999637336,h,0,0.03783149993978441,0.04768590000458062,0.04773869994096458,0.09989570011384785,0.09977500000968575,0.7537398000713438
RSVPLG03,JM,20260326-101145,1.0.2,20251105-084826,811,Experiment,Both,1,Automatic,main,96,20260326-102039,local,local,750,H,S,E,E,E-H.png,E-S.png,hH,sS,mask-3.png,mask-1.png,h,1,0.4591143000870943,s,1,0.1352863998617977,0.04750590003095567,0.04752900009043515,0.1004257001914084,0.0985536000225693,0.7543365000747144
RSVPLG03,JM,20260326-101145,1.0.2,20251105-084826,811,Experiment,Both,1,Automatic,main,97,20260326-102044,local,local,750,H,H,A,E,A-H.png,E-H.png,hH,hH,mask-2.png,mask-4.png,h,1,0.5277519000228494,s,0,0.1340079999063164,0.047504999907687306,0.04749689996242523,0.09881599992513657,0.09883649996481836,0.7521567000076175
RSVPLG03,JM,20260326-101145,1.0.2,20251105-084826,811,Experiment,Both,1,Automatic,main,98,20260326-102049,local,global,750,H,H,E,E,E-H.png,H-E.png,hH,hH,mask-4.png,mask-1.png,h,1,0.6507863998413086,h,1,0.12495679990388453,0.04754639999009669,0.04753379989415407,0.0995773000176996,0.10066540003754199,0.7524139999877661
RSVPLG03,JM,20260326-101145,1.0.2,20251105-084826,811,Experiment,Both,1,Automatic,main,99,20260326-102054,global,global,300,H,S,A,A,H-A.png,S-A.png,hH,sS,mask-2.png,mask-1.png,h,1,0.35918359993956983,s,1,0.10235990001820028,0.04767260001972318,0.0476838001050055,0.09989410010166466,0.09891659999266267,0.30152239999733865
RSVPLG03,JM,20260326-101145,1.0.2,20251105-084826,811,Experiment,Both,1,Automatic,main,100,20260326-102058,global,local,750,H,H,A,A,H-A.png,A-H.png,hH,hH,mask-2.png,mask-3.png,h,1,0.3605980998836458,h,1,0.15597219998016953,0.04812809987924993,0.047699099872261286,0.1002501999028027,0.10135139990597963,0.7523413000162691
