exp,exp_initials,runtime,ver,modtime,sub,blocktype,targets,cuetype,mode,trialtype,trial,trialtime,t1_level,t2_level,t2_lag,t1,t2,distractor1,distractor2,stimfile1,stimfile2,t1_corr,t2_corr,maskfile1,maskfile2,t1_resp,t1_acc,t1_rt,t2_resp,t2_acc,t2_rt,t1_dur,t2_dur,t1mask_soa,t2mask_soa,t1t2_soa
RSVPLG03,si,20260318-081637,1.0.2,20260219-152011,805,Introduction,T1,1,Automatic,main,1,20260318-081800,global,global,750,S,S,E,A,S-E.png,S-A.png,sS,sS,mask-2.png,mask-4.png,s,1,0.46459609999874374,none,-5,0,0.09882199999992736,0.10045940000054543,0.1991541999996116,0.20038869999916642,0.7474677999998676
RSVPLG03,si,20260318-081637,1.0.2,20260219-152011,805,Introduction,T1,1,Automatic,main,2,20260318-081805,local,global,750,S,S,E,A,E-S.png,S-A.png,sS,sS,mask-4.png,mask-4.png,s,1,0.6848215000027267,none,-5,0,0.09850450000158162,0.10126510000191047,0.19927020000250195,0.2007480000029318,0.7474572999999509
RSVPLG03,si,20260318-081637,1.0.2,20260219-152011,805,Introduction,T1,1,Automatic,main,3,20260318-081810,local,global,750,S,S,E,A,E-S.png,S-A.png,sS,sS,mask-3.png,mask-2.png,s,1,1.433228699999745,none,-5,0,0.09938570000304026,0.09854690000065602,0.19837159999951837,0.19785889999911888,0.7487895000012941
RSVPLG03,si,20260318-081637,1.0.2,20260219-152011,805,Introduction,T1,1,Automatic,main,4,20260318-081815,local,local,750,H,S,E,A,E-H.png,A-S.png,hH,sS,mask-2.png,mask-1.png,s,0,0.382482599998184,none,-5,0,0.09993620000022929,0.09900349999952596,0.2013775000013993,0.20072609999988344,0.7506396999997378
RSVPLG03,si,20260318-081637,1.0.2,20260219-152011,805,Introduction,T1,1,Automatic,main,5,20260318-081820,global,global,750,S,H,A,A,S-A.png,H-A.png,sS,hH,mask-3.png,mask-3.png,h,0,0.24504679999881773,none,-5,0,0.098147800003062,0.0995796999995946,0.1986630999999761,0.199092799997743,0.7479635000017879
RSVPLG03,si,20260318-081637,1.0.2,20260219-152011,805,Introduction,T1,1,Automatic,main,6,20260318-081824,local,local,750,H,S,E,A,E-H.png,A-S.png,hH,sS,mask-1.png,mask-1.png,s,0,0.4553169999999227,none,-5,0,0.09934140000041225,0.09863150000091991,0.19961229999898933,0.19898549999925308,0.7508825000004435
RSVPLG03,si,20260318-081637,1.0.2,20260219-152011,805,Introduction,T1,1,Automatic,main,7,20260318-081829,local,local,750,H,S,A,A,A-H.png,A-S.png,hH,sS,mask-2.png,mask-3.png,h,1,2.586575299999822,none,-5,0,0.09973320000062813,0.10042600000087987,0.19980190000205766,0.19996660000106203,0.7494684000012057
RSVPLG03,si,20260318-081637,1.0.2,20260219-152011,805,Introduction,T1,1,Automatic,main,8,20260318-081835,local,global,750,S,H,E,E,E-S.png,H-E.png,sS,hH,mask-3.png,mask-1.png,s,1,0.5952150999983132,none,-5,0,0.09955340000306023,0.10019730000203708,0.19990669999970123,0.2012694000004558,0.7480816999996023
RSVPLG03,si,20260318-081637,1.0.2,20260219-152011,805,Introduction,T1,1,Automatic,main,9,20260318-081840,global,local,750,S,H,A,E,S-A.png,E-H.png,sS,hH,mask-3.png,mask-2.png,s,1,0.7794637999977567,none,-5,0,0.10098990000187769,0.10021280000000843,0.20087880000210134,0.2006515000030049,0.7483968999986246
RSVPLG03,si,20260318-081637,1.0.2,20260219-152011,805,Introduction,T1,1,Automatic,main,10,20260318-081845,global,local,750,H,H,A,A,H-A.png,A-H.png,hH,hH,mask-3.png,mask-2.png,h,1,0.25679590000072494,none,-5,0,0.10123539999767672,0.10059470000123838,0.19946290000007139,0.20043230000010226,0.749654899998859
RSVPLG03,si,20260318-081637,1.0.2,20260219-152011,805,Introduction,T1,1,Automatic,main,11,20260318-081850,local,local,750,H,S,A,A,A-H.png,A-S.png,hH,sS,mask-3.png,mask-1.png,h,1,0.29221049999978277,none,-5,0,0.09985890000098152,0.09923219999836874,0.20092050000312156,0.20003770000039367,0.749559700001555
RSVPLG03,si,20260318-081637,1.0.2,20260219-152011,805,Introduction,T1,1,Automatic,main,12,20260318-081854,local,global,750,H,S,A,A,A-H.png,S-A.png,hH,sS,mask-4.png,mask-1.png,h,1,0.30508210000334657,none,-5,0,0.09862010000142618,0.10032030000002123,0.20052270000087447,0.19956149999779882,0.7485291000011784
RSVPLG03,si,20260318-081637,1.0.2,20260219-152011,805,Introduction,T1,1,Automatic,main,13,20260318-081859,global,local,750,H,S,E,A,H-E.png,A-S.png,hH,sS,mask-1.png,mask-4.png,h,1,0.3036541000001307,none,-5,0,0.09950550000212388,0.0999035000022559,0.19893810000212397,0.20184359999984736,0.7486946999997599
RSVPLG03,si,20260318-081637,1.0.2,20260219-152011,805,Introduction,T1,1,Automatic,main,14,20260318-081903,global,global,750,S,H,A,A,S-A.png,H-A.png,sS,hH,mask-3.png,mask-4.png,s,1,0.2881789999992179,none,-5,0,0.10031650000018999,0.09984980000081123,0.19943880000209901,0.1982958000007784,0.7502330999996047
RSVPLG03,si,20260318-081637,1.0.2,20260219-152011,805,Introduction,T1,1,Automatic,main,15,20260318-081908,global,local,750,H,H,A,E,H-A.png,E-H.png,hH,hH,mask-2.png,mask-4.png,h,1,0.13105979999818373,none,-5,0,0.09913139999844134,0.09838459999809857,0.1994273999989673,0.198116099996696,0.7492649000014353
RSVPLG03,si,20260318-081637,1.0.2,20260219-152011,805,Introduction,T1,1,Automatic,main,16,20260318-081912,global,global,750,H,H,A,E,H-A.png,H-E.png,hH,hH,mask-2.png,mask-4.png,h,1,0.129988400000002,none,-5,0,0.10083519999898272,0.09868579999965732,0.1998007999973197,0.19866820000243024,0.7500273999976343
RSVPLG03,si,20260318-081933,1.0.2,20260219-152011,805,Practice,T1,1,Automatic,main,1,20260318-081953,local,local,750,S,H,E,A,E-S.png,A-H.png,sS,hH,mask-3.png,mask-2.png,s,1,0.5356571000011172,none,-5,0,0.04650490000130958,0.0497949000018707,0.0944262000011804,0.09967039999901317,0.7462261000000581
RSVPLG03,si,20260318-081933,1.0.2,20260219-152011,805,Practice,T1,1,Automatic,main,2,20260318-081957,local,local,300,H,H,E,E,E-H.png,E-H.png,hH,hH,mask-2.png,mask-4.png,h,1,0.3772812999995949,none,-5,0,0.04949800000031246,0.049934300001041265,0.09962600000289967,0.10053759999937029,0.299629900000582
RSVPLG03,si,20260318-081933,1.0.2,20260219-152011,805,Practice,T1,1,Automatic,main,3,20260318-082001,global,global,300,S,H,E,A,S-E.png,H-A.png,sS,hH,mask-4.png,mask-2.png,s,1,0.22873609999805922,none,-5,0,0.049530600001162384,0.0495310000005702,0.10176190000129282,0.10017660000085016,0.298945200000162
RSVPLG03,si,20260318-081933,1.0.2,20260219-152011,805,Practice,T1,1,Automatic,main,4,20260318-082005,global,local,300,H,S,E,E,H-E.png,E-S.png,hH,sS,mask-2.png,mask-2.png,h,1,0.23068200000125216,none,-5,0,0.05126949999976205,0.05117919999975129,0.10018320000017411,0.1009128999976383,0.30066160000205855
RSVPLG03,si,20260318-081933,1.0.2,20260219-152011,805,Practice,T1,1,Automatic,main,5,20260318-082009,global,local,300,H,H,E,A,H-E.png,A-H.png,hH,hH,mask-3.png,mask-3.png,h,1,0.26279300000169314,none,-5,0,0.050771700000041164,0.05031869999947958,0.10089940000034403,0.10156320000169217,0.2999832999994396
RSVPLG03,si,20260318-081933,1.0.2,20260219-152011,805,Practice,T1,1,Automatic,main,6,20260318-082013,local,local,300,H,H,E,E,E-H.png,E-H.png,hH,hH,mask-2.png,mask-1.png,h,1,0.23096200000145473,none,-5,0,0.04910559999916586,0.04895500000202446,0.09931049999795505,0.10024730000077398,0.3008501999975124
RSVPLG03,si,20260318-081933,1.0.2,20260219-152011,805,Practice,T1,1,Automatic,main,7,20260318-082016,local,global,750,H,H,E,E,E-H.png,H-E.png,hH,hH,mask-1.png,mask-4.png,none,-6,0,none,-5,0,0.05064889999994193,0.050062300000718096,0.10152670000024955,0.10096759999942151,0.7503441999979259
RSVPLG03,si,20260318-082035,1.0.2,20260219-152011,805,Introduction,Both,1,Automatic,main,1,20260318-082053,local,global,750,H,H,E,A,E-H.png,H-A.png,hH,hH,mask-3.png,mask-3.png,h,1,0.27910220000194386,h,1,0.2566110999978264,0.0923387000002549,0.10082279999915045,0.1922262000007322,0.20048320000205422,0.7425841000003857
RSVPLG03,si,20260318-082035,1.0.2,20260219-152011,805,Introduction,Both,1,Automatic,main,2,20260318-082058,global,local,750,H,H,E,E,H-E.png,E-H.png,hH,hH,mask-2.png,mask-2.png,s,0,0.8804471999974339,h,1,1.4855683999994653,0.1016989999989164,0.1001648000019486,0.20032429999992019,0.20187480000095093,0.751049200000125
RSVPLG03,si,20260318-082035,1.0.2,20260219-152011,805,Introduction,Both,1,Automatic,main,3,20260318-082104,global,local,750,S,S,E,A,S-E.png,A-S.png,sS,sS,mask-3.png,mask-4.png,s,1,0.33672410000144737,s,1,0.44614720000026864,0.09972769999876618,0.1000674999995681,0.20033419999890612,0.2005152999990969,0.7508239999988291
RSVPLG03,si,20260318-082035,1.0.2,20260219-152011,805,Introduction,Both,1,Automatic,main,4,20260318-082109,local,global,750,S,S,E,A,E-S.png,S-A.png,sS,sS,mask-1.png,mask-1.png,s,1,0.5282256999998935,h,0,0.3375710000000254,0.09975399999893853,0.10082039999906556,0.2023726000006718,0.20013580000158981,0.7511752999998862
RSVPLG03,si,20260318-082035,1.0.2,20260219-152011,805,Introduction,Both,1,Automatic,main,5,20260318-082115,local,global,750,S,S,A,E,A-S.png,S-E.png,sS,sS,mask-3.png,mask-4.png,s,1,0.4944051999991643,s,1,0.36148010000033537,0.10044299999935902,0.09996110000065528,0.20187969999824418,0.2006669000002148,0.7508441999998468
RSVPLG03,si,20260318-082035,1.0.2,20260219-152011,805,Introduction,Both,1,Automatic,main,6,20260318-082120,local,global,750,S,H,A,E,A-S.png,H-E.png,sS,hH,mask-2.png,mask-3.png,s,1,0.33677979999993113,h,1,0.32876080000278307,0.09994240000014543,0.09861559999990277,0.199958000001061,0.19901640000171028,0.7511311999987811
RSVPLG03,si,20260318-082035,1.0.2,20260219-152011,805,Introduction,Both,1,Automatic,main,7,20260318-082125,local,local,750,S,S,E,A,E-S.png,A-S.png,sS,sS,mask-1.png,mask-2.png,s,1,1.0018912000014097,h,0,0.2894882000000507,0.10061560000031022,0.09910210000089137,0.1989657999984047,0.19978700000137906,0.7509600999983377
RSVPLG03,si,20260318-082035,1.0.2,20260219-152011,805,Introduction,Both,1,Automatic,main,8,20260318-082131,local,local,750,H,H,E,E,E-H.png,E-H.png,hH,hH,mask-1.png,mask-3.png,s,0,0.5008578000015405,s,0,1.1855504999984987,0.09926740000082646,0.10039359999791486,0.200005599999713,0.1999558999996225,0.751051400002325
RSVPLG03,si,20260318-082035,1.0.2,20260219-152011,805,Introduction,Both,1,Automatic,main,9,20260318-082137,local,local,750,S,S,A,A,A-S.png,A-S.png,sS,sS,mask-3.png,mask-1.png,s,1,1.7436582000009366,s,1,0.24712920000092709,0.09914490000301157,0.09888019999925746,0.20005270000183373,0.19956309999906807,0.7515161000010266
RSVPLG03,si,20260318-082035,1.0.2,20260219-152011,805,Introduction,Both,1,Automatic,main,10,20260318-082143,global,local,750,H,H,E,E,H-E.png,E-H.png,hH,hH,mask-4.png,mask-2.png,h,1,0.7848130000020319,h,1,0.23372399999789195,0.10015959999873303,0.10049889999936568,0.20046999999976833,0.2008228999984567,0.7496162999996159
RSVPLG03,si,20260318-082035,1.0.2,20260219-152011,805,Introduction,Both,1,Automatic,main,11,20260318-082148,global,global,750,S,H,E,A,S-E.png,H-A.png,sS,hH,mask-1.png,mask-2.png,s,1,1.4881429999986722,h,1,1.0987739999982296,0.10079050000058487,0.10062789999938104,0.19984240000121645,0.20043119999900227,0.7505003000005672
RSVPLG03,si,20260318-082035,1.0.2,20260219-152011,805,Introduction,Both,1,Automatic,main,12,20260318-082155,global,global,750,S,S,A,A,S-A.png,S-A.png,sS,sS,mask-2.png,mask-4.png,s,1,1.1913429999985965,h,0,0.234482100000605,0.09949389999746927,0.10024439999688184,0.19936179999785963,0.20116569999663625,0.7495060000001104
RSVPLG03,si,20260318-082035,1.0.2,20260219-152011,805,Introduction,Both,1,Automatic,main,13,20260318-082201,global,global,750,H,H,E,A,H-E.png,H-A.png,hH,hH,mask-2.png,mask-3.png,s,0,1.1840931000006094,h,1,0.7143653000021004,0.0993064999966009,0.09897270000146818,0.1992391999992833,0.20020819999990636,0.7500632999981462
RSVPLG03,si,20260318-082035,1.0.2,20260219-152011,805,Introduction,Both,1,Automatic,main,14,20260318-082207,global,global,750,S,H,A,A,S-A.png,H-A.png,sS,hH,mask-4.png,mask-2.png,s,1,0.579511599997204,h,1,0.5621064999977534,0.09992469999997411,0.09958299999925657,0.1991831999985152,0.20060880000164616,0.7500858999992488
RSVPLG03,si,20260318-082035,1.0.2,20260219-152011,805,Introduction,Both,1,Automatic,main,15,20260318-082213,local,local,750,H,S,A,E,A-H.png,E-S.png,hH,sS,mask-2.png,mask-4.png,h,1,0.6564706999997725,s,1,0.1378130000011879,0.10101799999756622,0.09479279999868595,0.19997229999717092,0.19559369999842602,0.7558626999998523
RSVPLG03,si,20260318-082035,1.0.2,20260219-152011,805,Introduction,Both,1,Automatic,main,16,20260318-082218,global,local,750,S,S,E,A,S-E.png,A-S.png,sS,sS,mask-4.png,mask-2.png,s,1,0.3768510999980208,h,0,0.15287869999883696,0.10223580000092625,0.09985729999971227,0.2012125000001106,0.2015319999991334,0.7512309000012465
RSVPLG03,si,20260318-082309,1.0.2,20260219-152011,805,Practice,Both,1,Automatic,main,1,20260318-082338,local,local,300,S,H,E,E,E-S.png,E-H.png,sS,hH,mask-3.png,mask-3.png,s,1,0.7281481999998505,h,1,0.09505279999939376,0.04795849999936763,0.05085580000013579,0.09942809999847668,0.09885550000035437,0.2990092999971239
RSVPLG03,si,20260318-082309,1.0.2,20260219-152011,805,Practice,Both,1,Automatic,main,2,20260318-082342,global,global,750,S,S,E,E,S-E.png,S-E.png,sS,sS,mask-3.png,mask-4.png,s,1,0.40445120000003953,s,1,0.1520115999992413,0.05025279999972554,0.048593999999866355,0.09849639999811188,0.10024440000051982,0.7480514999988372
RSVPLG03,si,20260318-082309,1.0.2,20260219-152011,805,Practice,Both,1,Automatic,main,3,20260318-082347,local,local,750,H,H,A,A,A-H.png,A-H.png,hH,hH,mask-4.png,mask-4.png,h,1,0.2515451999970537,h,1,0.17612999999983003,0.04895050000050105,0.04917899999782094,0.09947719999763649,0.09890829999858397,0.7481571999996959
RSVPLG03,si,20260318-082309,1.0.2,20260219-152011,805,Practice,Both,1,Automatic,main,4,20260318-082352,global,local,300,H,H,E,A,H-E.png,A-H.png,hH,hH,mask-3.png,mask-4.png,h,1,0.40599270000166143,s,0,0.16880950000268058,0.04848080000010668,0.04979050000110874,0.09941239999898244,0.10022640000170213,0.2973960999988776
RSVPLG03,si,20260318-082309,1.0.2,20260219-152011,805,Practice,Both,1,Automatic,main,5,20260318-082356,local,local,750,S,H,E,E,E-S.png,E-H.png,sS,hH,mask-3.png,mask-3.png,s,1,0.5237023999980011,h,1,0.1557597999999416,0.04725909999979194,0.04866359999869019,0.09761499999876833,0.09960109999883571,0.7465295000001788
RSVPLG03,si,20260318-082309,1.0.2,20260219-152011,805,Practice,Both,1,Automatic,main,6,20260318-082401,global,local,750,H,H,E,A,H-E.png,A-H.png,hH,hH,mask-4.png,mask-2.png,h,1,0.4004370000002382,h,1,0.2264534999994794,0.04958989999795449,0.05060999999841442,0.09877299999789102,0.09961329999714508,0.7470748000014282
RSVPLG03,si,20260318-082309,1.0.2,20260219-152011,805,Practice,Both,1,Automatic,main,7,20260318-082406,local,global,300,H,H,A,A,A-H.png,H-A.png,hH,hH,mask-2.png,mask-2.png,h,1,0.46398929999850225,h,1,0.5184549999976298,0.050118300001486205,0.050808099997084355,0.09996809999938705,0.1015077999982168,0.2979148000013083
RSVPLG03,si,20260318-082309,1.0.2,20260219-152011,805,Practice,Both,1,Automatic,main,8,20260318-082410,local,global,750,H,S,A,A,A-H.png,S-A.png,hH,sS,mask-3.png,mask-2.png,h,1,0.3631193000001076,h,0,0.13555509999787319,0.0493480000004638,0.050462199997127755,0.0997047000018938,0.10037369999918155,0.7479344000021229
RSVPLG03,si,20260318-082309,1.0.2,20260219-152011,805,Practice,Both,1,Automatic,main,9,20260318-082415,global,global,300,S,H,E,E,S-E.png,H-E.png,sS,hH,mask-4.png,mask-1.png,h,0,0.3058517999998003,h,1,1.62889290000021,0.04964020000261371,0.04912829999739188,0.09969050000290736,0.09977729999809526,0.29939800000283867
RSVPLG03,si,20260318-082309,1.0.2,20260219-152011,805,Practice,Both,1,Automatic,main,10,20260318-082420,global,local,750,S,S,A,A,S-A.png,A-S.png,sS,sS,mask-3.png,mask-1.png,s,1,0.3487451000000874,h,0,0.13766120000218507,0.04920040000070003,0.051168400001188274,0.09873729999890202,0.09998869999981252,0.7464474000007613
RSVPLG03,si,20260318-082309,1.0.2,20260219-152011,805,Practice,Both,1,Automatic,main,11,20260318-082425,local,global,300,S,H,A,A,A-S.png,H-A.png,sS,hH,mask-4.png,mask-3.png,s,1,0.7647374000007403,h,1,0.11332409999886295,0.05143089999910444,0.04874930000005406,0.100680999999895,0.09975430000122287,0.30109900000024936
RSVPLG03,si,20260318-082309,1.0.2,20260219-152011,805,Practice,Both,1,Automatic,main,12,20260318-082430,global,local,300,H,H,E,E,H-E.png,E-H.png,hH,hH,mask-2.png,mask-1.png,h,1,0.5694898000001558,s,0,0.2500452000022051,0.04990700000053039,0.0499400999979116,0.0996223000001919,0.10036629999740398,0.2992958000031649
RSVPLG03,si,20260318-082309,1.0.2,20260219-152011,805,Practice,Both,1,Automatic,main,13,20260318-082434,global,global,750,S,S,A,E,S-A.png,S-E.png,sS,sS,mask-2.png,mask-3.png,s,1,0.3847203000004811,s,1,0.18470220000017434,0.051139100000000326,0.051206799998908537,0.09943360000033863,0.1004030000003695,0.7477203000016743
RSVPLG03,si,20260318-082309,1.0.2,20260219-152011,805,Practice,Both,1,Automatic,main,14,20260318-082439,local,global,750,H,H,A,A,A-H.png,H-A.png,hH,hH,mask-2.png,mask-2.png,h,1,0.3844816999990144,s,0,0.13786260000051698,0.04885970000032103,0.04904719999831286,0.09795630000007804,0.09969139999884646,0.7474047000032442
RSVPLG03,si,20260318-082309,1.0.2,20260219-152011,805,Practice,Both,1,Automatic,main,15,20260318-082444,local,local,300,S,H,E,E,E-S.png,E-H.png,sS,hH,mask-3.png,mask-3.png,s,1,0.918352299999242,h,1,0.1767431000007491,0.05087509999793838,0.0498239000007743,0.10134230000039679,0.10012369999822113,0.30099999999947613
RSVPLG03,si,20260318-082309,1.0.2,20260219-152011,805,Practice,Both,1,Automatic,main,16,20260318-082448,global,global,300,S,H,A,A,S-A.png,H-A.png,sS,hH,mask-3.png,mask-4.png,s,1,1.1058972999999241,h,1,0.16964229999939562,0.04828379999889876,0.04918349999934435,0.09761219999927562,0.10021970000161673,0.29799999999886495
RSVPLG03,si,20260318-082539,1.0.2,20260219-152011,805,Experiment,Both,1,Automatic,warmup,1,20260318-082602,local,local,300,H,S,A,A,A-H.png,A-S.png,hH,sS,mask-3.png,mask-4.png,h,1,0.6375557999999728,s,1,0.15670590000081575,0.04976220000025933,0.05031009999947855,0.10072299999956158,0.09998099999938859,0.3020228999994288
RSVPLG03,si,20260318-082539,1.0.2,20260219-152011,805,Experiment,Both,1,Automatic,warmup,2,20260318-082607,local,local,750,H,S,E,E,E-H.png,E-S.png,hH,sS,mask-2.png,mask-2.png,h,1,0.4430299000014202,s,1,0.1300560999989102,0.0503272999994806,0.04905329999746755,0.10105479999765521,0.1006785999998101,0.753673200000776
RSVPLG03,si,20260318-082539,1.0.2,20260219-152011,805,Experiment,Both,1,Automatic,warmup,3,20260318-082611,local,global,300,S,S,A,E,A-S.png,S-E.png,sS,sS,mask-1.png,mask-3.png,s,1,1.4657384000020102,h,0,0.20171380000101635,0.051226600000518374,0.04972500000076252,0.10063639999862062,0.1003999999993539,0.30158490000030724
RSVPLG03,si,20260318-082539,1.0.2,20260219-152011,805,Experiment,Both,1,Automatic,warmup,4,20260318-082617,global,local,750,S,S,E,A,S-E.png,A-S.png,sS,sS,mask-4.png,mask-1.png,s,1,0.6672790000011446,h,0,0.16186870000092313,0.05159710000225459,0.04966730000160169,0.10122640000190586,0.09951730000102543,0.7534422999997332
RSVPLG03,si,20260318-082539,1.0.2,20260219-152011,805,Experiment,Both,1,Automatic,main,5,20260318-082622,global,global,300,H,H,A,E,H-A.png,H-E.png,hH,hH,mask-2.png,mask-4.png,h,1,0.9757989999998244,s,0,0.17739559999972698,0.04894559999956982,0.04908159999831696,0.09985099999903468,0.10058519999802229,0.30168760000015027
RSVPLG03,si,20260318-082539,1.0.2,20260219-152011,805,Experiment,Both,1,Automatic,main,6,20260318-082627,global,local,300,H,H,A,A,H-A.png,A-H.png,hH,hH,mask-3.png,mask-4.png,h,1,1.8494577999990724,s,0,0.8020886000012979,0.05083029999877908,0.05158870000013849,0.10065140000006068,0.1015625,0.3015668999978516
RSVPLG03,si,20260318-082539,1.0.2,20260219-152011,805,Experiment,Both,1,Automatic,main,7,20260318-082633,global,global,300,S,S,A,E,S-A.png,S-E.png,sS,sS,mask-2.png,mask-1.png,s,1,0.7564973999978974,h,0,0.1289256000018213,0.0492091000014625,0.04726120000123046,0.09810149999975692,0.09720190000007278,0.3013633000009577
RSVPLG03,si,20260318-082539,1.0.2,20260219-152011,805,Experiment,Both,1,Automatic,main,8,20260318-082638,global,local,300,H,S,E,E,H-E.png,E-S.png,hH,sS,mask-2.png,mask-2.png,h,1,1.1437105000004522,s,1,0.3029311999998754,0.04995450000205892,0.050464600000850623,0.10004029999981867,0.10143260000040755,0.2997523000012734
RSVPLG03,si,20260318-082539,1.0.2,20260219-152011,805,Experiment,Both,1,Automatic,main,9,20260318-082643,global,global,750,H,H,E,E,H-E.png,H-E.png,hH,hH,mask-4.png,mask-3.png,h,1,0.47245529999781866,h,1,0.16644910000104574,0.049162399998749606,0.0498102999990806,0.10068759999921895,0.10116399999969872,0.7530498000014632
RSVPLG03,si,20260318-082539,1.0.2,20260219-152011,805,Experiment,Both,1,Automatic,main,10,20260318-082648,global,global,300,H,S,E,A,H-E.png,S-A.png,hH,sS,mask-3.png,mask-1.png,h,1,0.3875144999983604,s,1,0.15532209999946645,0.04988969999976689,0.049198799999430776,0.09900019999986398,0.10093989999950281,0.2985322999993514
RSVPLG03,si,20260318-082539,1.0.2,20260219-152011,805,Experiment,Both,1,Automatic,main,11,20260318-082652,local,global,300,S,S,E,E,E-S.png,S-E.png,sS,sS,mask-4.png,mask-2.png,s,1,1.6437079999996058,s,1,0.8403246000016225,0.051139399998646695,0.05142129999876488,0.10074140000142506,0.10126559999844176,0.3019385000006878
RSVPLG03,si,20260318-082539,1.0.2,20260219-152011,805,Experiment,Both,1,Automatic,main,12,20260318-082658,local,local,750,H,H,A,E,A-H.png,E-H.png,hH,hH,mask-1.png,mask-4.png,h,1,0.34000709999963874,s,0,0.157382499997766,0.04888149999896996,0.04885880000074394,0.09903929999927641,0.09892720000061672,0.7537018000002718
RSVPLG03,si,20260318-082539,1.0.2,20260219-152011,805,Experiment,Both,1,Automatic,main,13,20260318-082703,global,global,300,H,S,A,A,H-A.png,S-A.png,hH,sS,mask-1.png,mask-3.png,h,1,2.835644399998273,s,1,0.17748159999973723,0.050794799997675,0.05117640000025858,0.10079109999787761,0.10028299999976298,0.3005653000000166
RSVPLG03,si,20260318-082539,1.0.2,20260219-152011,805,Experiment,Both,1,Automatic,main,14,20260318-082710,global,global,750,H,S,E,E,H-E.png,S-E.png,hH,sS,mask-4.png,mask-3.png,h,1,0.9817466999993485,s,1,0.1690472000009322,0.05143519999910495,0.04921900000044843,0.10013229999822215,0.0979951000008441,0.7539720999993733
RSVPLG03,si,20260318-082539,1.0.2,20260219-152011,805,Experiment,Both,1,Automatic,main,15,20260318-082715,local,local,750,H,S,A,A,A-H.png,A-S.png,hH,sS,mask-3.png,mask-3.png,h,1,0.7889562999989721,s,1,0.163237200002186,0.047546399997372646,0.05405629999950179,0.10048829999868758,0.10285839999778545,0.7504298999992898
RSVPLG03,si,20260318-082539,1.0.2,20260219-152011,805,Experiment,Both,1,Automatic,main,16,20260318-082720,local,local,300,H,H,A,E,A-H.png,E-H.png,hH,hH,mask-1.png,mask-4.png,h,1,1.221984200001316,s,0,0.12912239999786834,0.051483200000802753,0.04968659999940428,0.10138880000158679,0.09989989999667159,0.3022621000018262
RSVPLG03,si,20260318-082539,1.0.2,20260219-152011,805,Experiment,Both,1,Automatic,main,17,20260318-082725,local,global,300,S,H,A,A,A-S.png,H-A.png,sS,hH,mask-1.png,mask-1.png,h,0,0.3954379999995581,h,1,0.3063765000006242,0.049549700001080055,0.047872700000880286,0.10050480000063544,0.09817580000162707,0.3026986000004399
RSVPLG03,si,20260318-082539,1.0.2,20260219-152011,805,Experiment,Both,1,Automatic,main,18,20260318-082729,local,global,750,S,H,E,E,E-S.png,H-E.png,sS,hH,mask-4.png,mask-1.png,s,1,0.388110299998516,s,0,0.3127862000001187,0.04882510000243201,0.0489625000009255,0.09891960000095423,0.09862520000024233,0.7530501000001095
RSVPLG03,si,20260318-082539,1.0.2,20260219-152011,805,Experiment,Both,1,Automatic,main,19,20260318-082734,local,local,300,S,S,A,E,A-S.png,E-S.png,sS,sS,mask-1.png,mask-4.png,s,1,1.094598899999255,s,1,0.27135700000144425,0.05221559999699821,0.05111100000067381,0.10009379999974044,0.10067840000192518,0.3009427999968466
RSVPLG03,si,20260318-082539,1.0.2,20260219-152011,805,Experiment,Both,1,Automatic,main,20,20260318-082739,global,global,300,S,S,A,E,S-A.png,S-E.png,sS,sS,mask-4.png,mask-2.png,s,1,1.831854399999429,h,0,0.865490399999544,0.0489320000015141,0.052092699999775505,0.09959539999908884,0.10295810000025085,0.2985838999993575
RSVPLG03,si,20260318-082539,1.0.2,20260219-152011,805,Experiment,Both,1,Automatic,main,21,20260318-082746,local,global,750,S,S,A,E,A-S.png,S-E.png,sS,sS,mask-4.png,mask-2.png,s,1,0.5035711999989871,s,1,0.35309810000035213,0.04939179999928456,0.04971479999949224,0.10055189999911818,0.09999169999719015,0.7524765000016487
RSVPLG03,si,20260318-082539,1.0.2,20260219-152011,805,Experiment,Both,1,Automatic,main,22,20260318-082751,global,local,300,H,S,A,A,H-A.png,A-S.png,hH,sS,mask-4.png,mask-2.png,h,1,0.41695719999916037,s,1,0.4623227999982191,0.051550600001064595,0.05289180000181659,0.10185220000130357,0.10171870000340277,0.2996984999990673
RSVPLG03,si,20260318-082539,1.0.2,20260219-152011,805,Experiment,Both,1,Automatic,main,23,20260318-082756,local,local,750,H,H,A,E,A-H.png,E-H.png,hH,hH,mask-3.png,mask-1.png,h,1,0.779591900001833,h,1,0.7671568000005209,0.051337700002477504,0.04934040000080131,0.10272670000267681,0.10015529999873252,0.7539744000023347
RSVPLG03,si,20260318-082539,1.0.2,20260219-152011,805,Experiment,Both,1,Automatic,main,24,20260318-082801,global,local,750,S,H,A,E,S-A.png,E-H.png,sS,hH,mask-4.png,mask-4.png,s,1,0.3261089000006905,h,1,0.13533219999953872,0.05118909999873722,0.05000890000155778,0.10090839999975287,0.09981279999919934,0.7534919999998237
RSVPLG03,si,20260318-082539,1.0.2,20260219-152011,805,Experiment,Both,1,Automatic,main,25,20260318-082806,global,global,750,S,H,E,E,S-E.png,H-E.png,sS,hH,mask-2.png,mask-4.png,s,1,1.318071499998041,h,1,0.2804394999984652,0.050541599997814046,0.05233529999895836,0.09890029999951366,0.10008729999753996,0.7509279000005336
RSVPLG03,si,20260318-082539,1.0.2,20260219-152011,805,Experiment,Both,1,Automatic,main,26,20260318-082821,global,global,750,S,H,A,A,S-A.png,H-A.png,sS,hH,mask-2.png,mask-1.png,s,1,0.7081412000006821,h,1,0.0861172999975679,0.05027709999922081,0.04988000000230386,0.09947689999899012,0.10099059999993187,0.7519786999982898
RSVPLG03,si,20260318-082539,1.0.2,20260219-152011,805,Experiment,Both,1,Automatic,main,27,20260318-082826,global,global,750,H,H,A,A,H-A.png,H-A.png,hH,hH,mask-2.png,mask-3.png,h,1,0.24087369999688235,h,1,0.14430670000001555,0.050510699998994824,0.05177149999872199,0.10068569999930332,0.10072539999964647,0.7526710999991337
RSVPLG03,si,20260318-082539,1.0.2,20260219-152011,805,Experiment,Both,1,Automatic,main,28,20260318-082831,global,local,750,S,S,E,A,S-E.png,A-S.png,sS,sS,mask-1.png,mask-2.png,s,1,0.3643859000003431,h,0,0.1428212999999232,0.048087499999383,0.049760199999582255,0.09980910000012955,0.10036209999816492,0.7525771000000532
RSVPLG03,si,20260318-082539,1.0.2,20260219-152011,805,Experiment,Both,1,Automatic,main,29,20260318-082835,local,local,300,S,H,E,E,E-S.png,E-H.png,sS,hH,mask-3.png,mask-4.png,s,1,0.3754232999999658,s,0,0.1343615999976464,0.05192929999975604,0.05046969999966677,0.10521349999908125,0.10106140000061714,0.30182849999982864
RSVPLG03,si,20260318-082539,1.0.2,20260219-152011,805,Experiment,Both,1,Automatic,main,30,20260318-082840,local,global,750,H,S,A,A,A-H.png,S-A.png,hH,sS,mask-4.png,mask-2.png,h,1,0.27511499999673106,s,1,0.1477180000001681,0.049547599999641534,0.05069619999994757,0.09997599999769591,0.10176389999833191,0.7526696999993874
RSVPLG03,si,20260318-082539,1.0.2,20260219-152011,805,Experiment,Both,1,Automatic,main,31,20260318-082844,local,global,300,H,S,A,A,A-H.png,S-A.png,hH,sS,mask-1.png,mask-3.png,h,1,0.24590159999934258,s,1,0.1113815999997314,0.050018900001305155,0.05055189999984577,0.10020620000068448,0.10037750000265078,0.30077959999835
RSVPLG03,si,20260318-082539,1.0.2,20260219-152011,805,Experiment,Both,1,Automatic,main,32,20260318-082848,local,global,300,H,H,A,E,A-H.png,H-E.png,hH,hH,mask-2.png,mask-4.png,h,1,0.28984119999950053,s,0,0.1044393999982276,0.04579110000122455,0.048085999998875195,0.09560380000039004,0.09809320000204025,0.29777670000112266
RSVPLG03,si,20260318-082539,1.0.2,20260219-152011,805,Experiment,Both,1,Automatic,main,33,20260318-082852,global,local,750,S,H,A,A,S-A.png,A-H.png,sS,hH,mask-3.png,mask-2.png,s,1,0.38989679999940563,h,1,0.1284787000004144,0.049697400001605274,0.049760499998228624,0.09968540000045323,0.09869989999788231,0.7536561000015354
RSVPLG03,si,20260318-082539,1.0.2,20260219-152011,805,Experiment,Both,1,Automatic,main,34,20260318-082857,global,local,750,S,H,E,A,S-E.png,A-H.png,sS,hH,mask-1.png,mask-1.png,s,1,0.25118230000225594,h,1,0.13493929999822285,0.050824599999032216,0.051175700002204394,0.09930629999871599,0.10144120000040857,0.7515740999988338
RSVPLG03,si,20260318-082539,1.0.2,20260219-152011,805,Experiment,Both,1,Automatic,main,35,20260318-082901,local,global,300,S,S,E,E,E-S.png,S-E.png,sS,sS,mask-2.png,mask-4.png,s,1,0.5034489999998186,s,1,0.12025370000264957,0.049620099998719525,0.05128370000238647,0.10046589999910793,0.10123470000326051,0.3001063999981852
RSVPLG03,si,20260318-082539,1.0.2,20260219-152011,805,Experiment,Both,1,Automatic,main,36,20260318-082906,local,local,300,H,H,E,E,E-H.png,E-H.png,hH,hH,mask-1.png,mask-3.png,h,1,0.24842889999854378,h,1,0.155284100001154,0.049879099999088794,0.05008779999843682,0.10045929999978398,0.09967310000138241,0.30078259999936563
RSVPLG03,si,20260318-082539,1.0.2,20260219-152011,805,Experiment,Both,1,Automatic,main,37,20260318-082910,local,global,750,H,H,E,E,E-H.png,H-E.png,hH,hH,mask-3.png,mask-2.png,h,1,0.5132463000009011,s,0,0.1288347999980033,0.04990189999807626,0.051187900000513764,0.10016179999729502,0.10216090000176337,0.7519636999968498
RSVPLG03,si,20260318-082539,1.0.2,20260219-152011,805,Experiment,Both,1,Automatic,main,38,20260318-082915,local,global,300,H,H,E,E,E-H.png,H-E.png,hH,hH,mask-3.png,mask-3.png,h,1,0.3716624000007869,s,0,0.16732870000123512,0.04934529999809456,0.049114400000689784,0.1005866999985301,0.09897910000290722,0.3016613999971014
RSVPLG03,si,20260318-082539,1.0.2,20260219-152011,805,Experiment,Both,1,Automatic,main,39,20260318-082919,global,global,300,S,S,A,E,S-A.png,S-E.png,sS,sS,mask-4.png,mask-3.png,s,1,0.5296560999995563,s,1,0.13550190000023576,0.049019599999155616,0.04827120000118157,0.09976669999741716,0.10153319999881205,0.30160289999912493
RSVPLG03,si,20260318-082539,1.0.2,20260219-152011,805,Experiment,Both,1,Automatic,main,40,20260318-082923,local,local,750,S,H,A,E,A-S.png,E-H.png,sS,hH,mask-1.png,mask-1.png,h,0,0.3596251000017219,s,0,0.13942949999909615,0.050866000001406064,0.049982799999270355,0.10086910000245553,0.1002437999995891,0.7539556000010634
RSVPLG03,si,20260318-082539,1.0.2,20260219-152011,805,Experiment,Both,1,Automatic,main,41,20260318-082928,global,local,300,H,S,A,E,H-A.png,E-S.png,hH,sS,mask-1.png,mask-1.png,h,1,1.1100307000015164,s,1,0.17609449999872595,0.048932500001683366,0.04950079999980517,0.09953980000136653,0.09838249999666004,0.30117870000322
RSVPLG03,si,20260318-082539,1.0.2,20260219-152011,805,Experiment,Both,1,Automatic,main,42,20260318-082933,global,local,300,H,S,A,A,H-A.png,A-S.png,hH,sS,mask-4.png,mask-1.png,h,1,1.033615299998928,s,1,0.17753410000295844,0.053116399998543784,0.050747200002660975,0.10028049999891664,0.10149440000168397,0.3005755999984103
RSVPLG03,si,20260318-082539,1.0.2,20260219-152011,805,Experiment,Both,1,Automatic,main,43,20260318-082938,local,local,300,S,H,A,A,A-S.png,A-H.png,sS,hH,mask-2.png,mask-1.png,s,1,0.719071300001815,h,1,0.15270459999737795,0.04947520000132499,0.049852699998155,0.10095410000212723,0.10028160000001662,0.3014798000003793
RSVPLG03,si,20260318-082539,1.0.2,20260219-152011,805,Experiment,Both,1,Automatic,main,44,20260318-082942,local,global,750,H,H,A,E,A-H.png,H-E.png,hH,hH,mask-4.png,mask-4.png,h,1,0.4906812000008358,h,1,0.1373925000007148,0.04947170000014012,0.05028089999905205,0.10006640000210609,0.10110559999884572,0.7521110000016051
RSVPLG03,si,20260318-082539,1.0.2,20260219-152011,805,Experiment,Both,1,Automatic,main,45,20260318-082947,local,local,300,H,H,E,E,E-H.png,E-H.png,hH,hH,mask-1.png,mask-1.png,h,1,0.30494460000045365,s,0,0.12617300000056275,0.05066319999968982,0.05011469999953988,0.0995705999994243,0.10073120000015479,0.3009691000006569
RSVPLG03,si,20260318-082539,1.0.2,20260219-152011,805,Experiment,Both,1,Automatic,main,46,20260318-082951,global,global,750,H,H,A,E,H-A.png,H-E.png,hH,hH,mask-1.png,mask-3.png,h,1,0.5839230999990832,h,1,0.14242509999894537,0.05075109999961569,0.04875999999785563,0.1011648999992758,0.09859439999854658,0.7544376000005286
RSVPLG03,si,20260318-082539,1.0.2,20260219-152011,805,Experiment,Both,1,Automatic,main,47,20260318-082956,global,local,300,S,H,E,A,S-E.png,A-H.png,sS,hH,mask-2.png,mask-3.png,s,1,0.7592973999999231,h,1,0.161663499999122,0.05114020000110031,0.0523070999988704,0.10150240000075428,0.10221100000126171,0.301428599999781
RSVPLG03,si,20260318-082539,1.0.2,20260219-152011,805,Experiment,Both,1,Automatic,main,48,20260318-083001,global,global,300,H,S,A,A,H-A.png,S-A.png,hH,sS,mask-1.png,mask-3.png,h,1,0.7599288000019442,s,1,0.17523369999980787,0.05003760000181501,0.04871819999971194,0.09918180000022403,0.09954270000162069,0.3011789000011049
RSVPLG03,si,20260318-082539,1.0.2,20260219-152011,805,Experiment,Both,1,Automatic,main,49,20260318-083005,local,local,300,H,S,E,A,E-H.png,A-S.png,hH,sS,mask-2.png,mask-4.png,h,1,0.7633187999999791,s,1,0.19812950000050478,0.051420299998426344,0.050307199999224395,0.10109689999808325,0.10187859999859938,0.300790400000551
RSVPLG03,si,20260318-082539,1.0.2,20260219-152011,805,Experiment,Both,1,Automatic,main,50,20260318-083010,local,local,750,S,H,E,A,E-S.png,A-H.png,sS,hH,mask-4.png,mask-3.png,s,1,0.8689815999969142,h,1,0.17737530000158586,0.051042499999311985,0.052695499998662854,0.10208160000183852,0.10044199999902048,0.754150100001425
RSVPLG03,si,20260318-082539,1.0.2,20260219-152011,805,Experiment,Both,1,Automatic,main,51,20260318-083022,global,global,300,H,S,A,E,H-A.png,S-E.png,hH,sS,mask-1.png,mask-2.png,h,1,0.39081240000086837,s,1,0.14618599999812432,0.0489865000017744,0.05095950000031735,0.10001069999998435,0.10049079999953392,0.29990380000162986
RSVPLG03,si,20260318-082539,1.0.2,20260219-152011,805,Experiment,Both,1,Automatic,main,52,20260318-083026,local,global,300,H,H,E,E,E-H.png,H-E.png,hH,hH,mask-3.png,mask-1.png,h,1,0.7572534999999334,s,0,0.16049159999965923,0.05386960000032559,0.05039810000016587,0.10048820000156411,0.0994455999971251,0.30163380000158213
RSVPLG03,si,20260318-082539,1.0.2,20260219-152011,805,Experiment,Both,1,Automatic,main,53,20260318-083031,global,local,750,S,H,E,A,S-E.png,A-H.png,sS,hH,mask-4.png,mask-1.png,s,1,0.9071588000006159,h,1,0.16105210000023362,0.049895600001036655,0.0490910000007716,0.09987700000056066,0.09844100000191247,0.7538867000002938
RSVPLG03,si,20260318-082539,1.0.2,20260219-152011,805,Experiment,Both,1,Automatic,main,54,20260318-083036,local,local,300,S,S,E,A,E-S.png,A-S.png,sS,sS,mask-2.png,mask-3.png,s,1,1.15705369999705,h,0,0.1670460000023013,0.04879820000132895,0.05215029999817489,0.0978888999998162,0.100646399998368,0.29849620000095456
RSVPLG03,si,20260318-082539,1.0.2,20260219-152011,805,Experiment,Both,1,Automatic,main,55,20260318-083041,global,local,750,S,S,E,A,S-E.png,A-S.png,sS,sS,mask-4.png,mask-2.png,s,1,0.49311429999943357,h,0,0.13167049999901792,0.052341700000397395,0.050422899999830406,0.10198790000140434,0.10062939999988885,0.7537202000021352
RSVPLG03,si,20260318-082539,1.0.2,20260219-152011,805,Experiment,Both,1,Automatic,main,56,20260318-083046,local,global,750,S,H,E,E,E-S.png,H-E.png,sS,hH,mask-2.png,mask-2.png,s,1,0.7337692999972205,h,1,0.12970040000072913,0.049225300001126016,0.050822699999116594,0.09972960000231978,0.10018649999983609,0.7522835000017949
RSVPLG03,si,20260318-082539,1.0.2,20260219-152011,805,Experiment,Both,1,Automatic,main,57,20260318-083051,global,global,300,H,H,E,A,H-E.png,H-A.png,hH,hH,mask-2.png,mask-4.png,h,1,0.36753179999868735,s,0,0.16208180000103312,0.04938700000275276,0.04930729999978212,0.09969750000163913,0.10003090000100201,0.3001019000002998
RSVPLG03,si,20260318-082539,1.0.2,20260219-152011,805,Experiment,Both,1,Automatic,main,58,20260318-083055,global,global,750,S,S,A,A,S-A.png,S-A.png,sS,sS,mask-2.png,mask-4.png,s,1,0.8376683999995294,s,1,0.12814979999893694,0.05038550000244868,0.05062980000002426,0.09920220000276458,0.10014800000135438,0.7534841000015149
RSVPLG03,si,20260318-082539,1.0.2,20260219-152011,805,Experiment,Both,1,Automatic,main,59,20260318-083100,local,global,300,H,S,A,E,A-H.png,S-E.png,hH,sS,mask-4.png,mask-1.png,h,1,0.598289499997918,s,1,0.1452227000008861,0.049830400002974784,0.050246599999809405,0.10088980000000447,0.10021939999933238,0.30216660000223783
RSVPLG03,si,20260318-082539,1.0.2,20260219-152011,805,Experiment,Both,1,Automatic,main,60,20260318-083105,global,global,750,H,S,E,A,H-E.png,S-A.png,hH,sS,mask-1.png,mask-4.png,h,1,0.9803541000001132,s,1,0.17849890000070445,0.04937629999767523,0.04884749999837368,0.09999959999913699,0.09928059999947436,0.7549432999985584
RSVPLG03,si,20260318-082539,1.0.2,20260219-152011,805,Experiment,Both,1,Automatic,main,61,20260318-083110,global,local,750,H,H,E,A,H-E.png,A-H.png,hH,hH,mask-3.png,mask-3.png,h,1,0.7291907999970135,h,1,0.13615349999963655,0.04940340000030119,0.049065700000937795,0.09991040000022622,0.09942159999991418,0.7520610999999917
RSVPLG03,si,20260318-082539,1.0.2,20260219-152011,805,Experiment,Both,1,Automatic,main,62,20260318-083115,global,local,750,H,H,A,E,H-A.png,E-H.png,hH,hH,mask-1.png,mask-3.png,h,1,0.6744194999992033,s,0,0.16513750000012806,0.051170699996873736,0.05137029999968945,0.10045099999842932,0.10184450000087963,0.7528811999982281
RSVPLG03,si,20260318-082539,1.0.2,20260219-152011,805,Experiment,Both,1,Automatic,main,63,20260318-083120,global,local,300,S,S,A,E,S-A.png,E-S.png,sS,sS,mask-2.png,mask-1.png,h,0,0.38983619999999064,h,0,0.10577570000168635,0.05109930000253371,0.048402799999166746,0.1011529999996128,0.09952349999730359,0.302505800002109
RSVPLG03,si,20260318-082539,1.0.2,20260219-152011,805,Experiment,Both,1,Automatic,main,64,20260318-083124,global,local,300,H,S,E,E,H-E.png,E-S.png,hH,sS,mask-2.png,mask-1.png,h,1,0.4589652000031492,s,1,0.14499050000085845,0.05164810000133002,0.05098379999981262,0.10200030000123661,0.10167600000204402,0.30122080000001006
RSVPLG03,si,20260318-082539,1.0.2,20260219-152011,805,Experiment,Both,1,Automatic,main,65,20260318-083129,global,local,300,H,S,A,A,H-A.png,A-S.png,hH,sS,mask-3.png,mask-3.png,h,1,0.6703019999986282,s,1,0.12467499999911524,0.05098759999964386,0.05202080000162823,0.10197560000233352,0.10093989999950281,0.30221610000080545
RSVPLG03,si,20260318-082539,1.0.2,20260219-152011,805,Experiment,Both,1,Automatic,main,66,20260318-083133,local,global,750,H,H,E,E,E-H.png,H-E.png,hH,hH,mask-1.png,mask-3.png,h,1,1.055023799999617,s,0,0.12374429999908898,0.04909860000043409,0.048569999999017455,0.10201050000250689,0.10057860000233632,0.7541992000005848
RSVPLG03,si,20260318-082539,1.0.2,20260219-152011,805,Experiment,Both,1,Automatic,main,67,20260318-083138,local,local,750,H,S,E,A,E-H.png,A-S.png,hH,sS,mask-4.png,mask-2.png,h,1,0.6018141999993531,s,1,0.13751849999971455,0.04893579999770736,0.048107900001923554,0.0985590999989654,0.09869760000219685,0.7525678999991214
RSVPLG03,si,20260318-082539,1.0.2,20260219-152011,805,Experiment,Both,1,Automatic,main,68,20260318-083143,local,global,750,S,H,A,A,A-S.png,H-A.png,sS,hH,mask-1.png,mask-4.png,s,1,1.630677500001184,h,1,0.15279609999925015,0.049489400000311434,0.051245700000436045,0.10020020000229124,0.10153079999872716,0.7525571000005584
RSVPLG03,si,20260318-082539,1.0.2,20260219-152011,805,Experiment,Both,1,Automatic,main,69,20260318-083149,local,local,300,H,H,E,A,E-H.png,A-H.png,hH,hH,mask-3.png,mask-4.png,h,1,0.7537315000008675,h,1,0.11491569999998319,0.04960610000125598,0.04697120000128052,0.10194849999970756,0.09681150000324124,0.30410099999789963
RSVPLG03,si,20260318-082539,1.0.2,20260219-152011,805,Experiment,Both,1,Automatic,main,70,20260318-083154,global,local,750,H,S,E,A,H-E.png,A-S.png,hH,sS,mask-2.png,mask-2.png,h,1,0.6328044999972917,s,1,0.12129139999888139,0.05121110000254703,0.049953900001128204,0.10219409999990603,0.09991830000217305,0.752938699999504
RSVPLG03,si,20260318-082539,1.0.2,20260219-152011,805,Experiment,Both,1,Automatic,main,71,20260318-083159,local,local,750,S,S,A,A,A-S.png,A-S.png,sS,sS,mask-1.png,mask-4.png,s,1,0.7091078000012203,s,1,0.11848989999998594,0.04978359999950044,0.04956509999828995,0.09961209999892162,0.10055649999776506,0.7522777000012866
RSVPLG03,si,20260318-082539,1.0.2,20260219-152011,805,Experiment,Both,1,Automatic,main,72,20260318-083204,global,local,750,H,H,E,A,H-E.png,A-H.png,hH,hH,mask-2.png,mask-1.png,h,1,0.5252276999999594,h,1,0.12355839999872842,0.04891390000193496,0.05130730000018957,0.0983754000008048,0.09972259999995003,0.752195600001869
RSVPLG03,si,20260318-082539,1.0.2,20260219-152011,805,Experiment,Both,1,Automatic,main,73,20260318-083209,local,local,750,S,S,E,E,E-S.png,E-S.png,sS,sS,mask-2.png,mask-3.png,s,1,0.8371569999981148,s,1,0.15388610000081826,0.05083070000182488,0.04966990000320948,0.10113400000045658,0.10143660000176169,0.7527348000003258
RSVPLG03,si,20260318-082539,1.0.2,20260219-152011,805,Experiment,Both,1,Automatic,main,74,20260318-083214,local,global,300,H,S,A,E,A-H.png,S-E.png,hH,sS,mask-2.png,mask-2.png,h,1,1.7403287000015553,h,0,0.6630593000008957,0.05104419999770471,0.04905810000127531,0.1011274999982561,0.1014919999979611,0.3013840999992681
RSVPLG03,si,20260318-082539,1.0.2,20260219-152011,805,Experiment,Both,1,Automatic,main,75,20260318-083220,global,global,750,S,S,E,E,S-E.png,S-E.png,sS,sS,mask-4.png,mask-4.png,s,1,0.6214585999987321,s,1,0.12209570000050007,0.05116050000287942,0.052019999999174615,0.10189140000147745,0.09932100000150967,0.7542093000010937
RSVPLG03,si,20260318-082539,1.0.2,20260219-152011,805,Experiment,Both,1,Automatic,main,76,20260318-083236,global,global,750,S,S,E,E,S-E.png,S-E.png,sS,sS,mask-4.png,mask-4.png,s,1,0.5067235999995319,s,1,0.11337649999768473,0.050041200000123354,0.05076089999784017,0.0999219000004814,0.10071889999744599,0.7514572000000044
RSVPLG03,si,20260318-082539,1.0.2,20260219-152011,805,Experiment,Both,1,Automatic,main,77,20260318-083241,local,global,300,S,S,E,E,E-S.png,S-E.png,sS,sS,mask-2.png,mask-4.png,s,1,0.8015039000019897,s,1,0.09755349999977625,0.04980440000144881,0.050410899999405956,0.10137740000209305,0.1008707000000868,0.30065010000180337
RSVPLG03,si,20260318-082539,1.0.2,20260219-152011,805,Experiment,Both,1,Automatic,main,78,20260318-083246,local,local,300,H,H,A,E,A-H.png,E-H.png,hH,hH,mask-3.png,mask-1.png,h,1,0.3055835000013758,s,0,0.1284466999968572,0.049929200002225116,0.0508890999990399,0.0991390000017418,0.0996938999996928,0.3002407000021776
RSVPLG03,si,20260318-082539,1.0.2,20260219-152011,805,Experiment,Both,1,Automatic,main,79,20260318-083250,global,local,300,S,S,A,A,S-A.png,A-S.png,sS,sS,mask-2.png,mask-3.png,s,1,0.5923273999978846,s,1,0.10216240000227117,0.04926540000087698,0.04944500000055996,0.09930739999981597,0.09896529999969061,0.3005107999997563
RSVPLG03,si,20260318-082539,1.0.2,20260219-152011,805,Experiment,Both,1,Automatic,main,80,20260318-083254,local,local,750,H,H,E,A,E-H.png,A-H.png,hH,hH,mask-4.png,mask-2.png,h,1,0.31699570000273525,h,1,0.11231860000043525,0.04765370000313851,0.04860520000147517,0.09920860000056564,0.10024950000297395,0.7531925000002957
RSVPLG03,si,20260318-082539,1.0.2,20260219-152011,805,Experiment,Both,1,Automatic,main,81,20260318-083259,local,global,750,S,H,A,E,A-S.png,H-E.png,sS,hH,mask-1.png,mask-2.png,s,1,0.6950585999984469,s,0,0.40060210000228835,0.0495532999993884,0.050241900000401074,0.10025229999882868,0.1013416000023426,0.7516852999979164
RSVPLG03,si,20260318-082539,1.0.2,20260219-152011,805,Experiment,Both,1,Automatic,main,82,20260318-083304,global,global,300,H,S,A,A,H-A.png,S-A.png,hH,sS,mask-4.png,mask-2.png,h,1,0.6364111000002595,s,1,0.1399373000022024,0.05142629999681958,0.05093050000141375,0.10119479999775649,0.10078000000066822,0.30060929999672226
RSVPLG03,si,20260318-082539,1.0.2,20260219-152011,805,Experiment,Both,1,Automatic,main,83,20260318-083308,local,local,300,S,H,A,A,A-S.png,A-H.png,sS,hH,mask-2.png,mask-2.png,s,1,0.6921068000010564,h,1,0.07404370000222116,0.05071189999944181,0.04925050000019837,0.10035090000019409,0.1014322999981232,0.3019544000017049
RSVPLG03,si,20260318-082539,1.0.2,20260219-152011,805,Experiment,Both,1,Automatic,main,84,20260318-083313,local,local,750,S,S,A,A,A-S.png,A-S.png,sS,sS,mask-3.png,mask-1.png,s,1,0.7164618999995582,s,1,0.08857379999972181,0.05206639999960316,0.049690200001350604,0.09908839999843622,0.09807889999865438,0.7545750999997836
RSVPLG03,si,20260318-082539,1.0.2,20260219-152011,805,Experiment,Both,1,Automatic,main,85,20260318-083318,local,global,750,H,H,A,A,A-H.png,H-A.png,hH,hH,mask-2.png,mask-1.png,s,0,0.5850377999995544,s,0,0.15273859999797423,0.05080010000165203,0.04951400000209105,0.10031130000061239,0.10044150000248919,0.7529460000005201
RSVPLG03,si,20260318-082539,1.0.2,20260219-152011,805,Experiment,Both,1,Automatic,main,86,20260318-083323,local,local,750,S,H,A,E,A-S.png,E-H.png,sS,hH,mask-4.png,mask-2.png,s,1,0.36238009999942733,h,1,0.057338200000231154,0.05188750000161235,0.04791110000223853,0.10211440000057337,0.09955650000119931,0.7553632999988622
RSVPLG03,si,20260318-082539,1.0.2,20260219-152011,805,Experiment,Both,1,Automatic,main,87,20260318-083327,global,local,750,S,H,E,E,S-E.png,E-H.png,sS,hH,mask-4.png,mask-4.png,s,1,0.48049639999953797,s,0,0.10162599999966915,0.04703410000001895,0.05062769999858574,0.09792139999990468,0.10057890000098269,0.7497961000008218
RSVPLG03,si,20260318-082539,1.0.2,20260219-152011,805,Experiment,Both,1,Automatic,main,88,20260318-083332,local,global,750,H,S,E,A,E-H.png,S-A.png,hH,sS,mask-4.png,mask-2.png,h,1,0.9825762000000395,h,0,0.12925149999864516,0.047788199997739866,0.047077199997147545,0.09841939999751048,0.09750419999909354,0.7531041000002006
RSVPLG03,si,20260318-082539,1.0.2,20260219-152011,805,Experiment,Both,1,Automatic,main,89,20260318-083337,global,local,300,H,H,A,A,H-A.png,A-H.png,hH,hH,mask-2.png,mask-2.png,h,1,0.9396764999983134,s,0,0.13043370000013965,0.05130310000095051,0.04893860000083805,0.10084389999974519,0.09877679999772226,0.303307300000597
RSVPLG03,si,20260318-082539,1.0.2,20260219-152011,805,Experiment,Both,1,Automatic,main,90,20260318-083342,local,global,300,H,S,E,E,E-H.png,S-E.png,hH,sS,mask-4.png,mask-1.png,h,1,1.6787894999979471,s,1,0.1610962999984622,0.05123710000043502,0.051870200000848854,0.09956200000306126,0.10081590000118013,0.3007355000008829
RSVPLG03,si,20260318-082539,1.0.2,20260219-152011,805,Experiment,Both,1,Automatic,main,91,20260318-083348,global,global,300,S,S,A,E,S-A.png,S-E.png,sS,sS,mask-3.png,mask-2.png,s,1,0.5429137999999512,s,1,0.10351009999794769,0.05269090000001597,0.05159639999692445,0.10167469999942114,0.09872039999754634,0.30302170000140904
RSVPLG03,si,20260318-082539,1.0.2,20260219-152011,805,Experiment,Both,1,Automatic,main,92,20260318-083352,global,local,750,H,S,E,A,H-E.png,A-S.png,hH,sS,mask-3.png,mask-3.png,h,1,0.7459377999985009,h,0,0.10404650000054971,0.050142100000812206,0.05008989999987534,0.09929350000311388,0.10004089999711141,0.7531245000027411
RSVPLG03,si,20260318-082539,1.0.2,20260219-152011,805,Experiment,Both,1,Automatic,main,93,20260318-083357,global,global,750,H,S,A,E,H-A.png,S-E.png,hH,sS,mask-1.png,mask-4.png,h,1,0.6173329999983252,s,1,0.11918019999939133,0.05060369999773684,0.04954449999786448,0.10185300000011921,0.09918420000030892,0.7529316000000108
RSVPLG03,si,20260318-082539,1.0.2,20260219-152011,805,Experiment,Both,1,Automatic,main,94,20260318-083402,local,global,300,H,S,E,E,E-H.png,S-E.png,hH,sS,mask-3.png,mask-2.png,h,1,1.1574641000006523,s,1,0.2316346000006888,0.049313199997413903,0.052237799998692935,0.10014419999788515,0.1026408999969135,0.29962370000066585
RSVPLG03,si,20260318-082539,1.0.2,20260219-152011,805,Experiment,Both,1,Automatic,main,95,20260318-083407,local,local,750,H,H,E,E,E-H.png,E-H.png,hH,hH,mask-4.png,mask-3.png,h,1,0.43722949999937555,s,0,0.17017459999988205,0.05128359999798704,0.04995720000079018,0.09971450000011828,0.10014159999991534,0.7533328999998048
RSVPLG03,si,20260318-082539,1.0.2,20260219-152011,805,Experiment,Both,1,Automatic,main,96,20260318-083412,local,local,300,H,S,A,A,A-H.png,A-S.png,hH,sS,mask-2.png,mask-3.png,h,1,0.7592163999979675,s,1,0.16807210000115447,0.04995789999884437,0.04890460000024177,0.09996209999735584,0.09832230000029085,0.3020741000000271
RSVPLG03,si,20260318-082539,1.0.2,20260219-152011,805,Experiment,Both,1,Automatic,main,97,20260318-083417,global,local,300,H,H,E,E,H-E.png,E-H.png,hH,hH,mask-2.png,mask-1.png,h,1,0.2985986999992747,s,0,0.13093429999935324,0.04858559999775025,0.05068500000197673,0.10038819999681436,0.10122970000156783,0.30019909999828087
RSVPLG03,si,20260318-082539,1.0.2,20260219-152011,805,Experiment,Both,1,Automatic,main,98,20260318-083421,local,global,750,H,H,E,E,E-H.png,H-E.png,hH,hH,mask-1.png,mask-2.png,h,1,0.5180118999996921,h,1,0.22890059999917867,0.04984040000272216,0.04967150000084075,0.09902770000189776,0.0993717999990622,0.7515000000021246
RSVPLG03,si,20260318-082539,1.0.2,20260219-152011,805,Experiment,Both,1,Automatic,main,99,20260318-083426,global,global,300,H,H,E,A,H-E.png,H-A.png,hH,hH,mask-4.png,mask-2.png,h,1,0.4016375999999582,s,0,0.0897990999983449,0.05047770000237506,0.04847940000036033,0.10016800000084913,0.09924980000141659,0.30048900000110734
RSVPLG03,si,20260318-082539,1.0.2,20260219-152011,805,Experiment,Both,1,Automatic,main,100,20260318-083430,global,global,750,H,S,A,A,H-A.png,S-A.png,hH,sS,mask-4.png,mask-4.png,h,1,0.39503289999993285,s,1,0.17587790000106907,0.049772599999414524,0.049818100000265986,0.09884989999773097,0.09986650000064401,0.7526822999971046
RSVPLG03,si,20260318-083458,1.0.2,20260219-152011,805,Experiment,Both,1,Automatic,warmup,1,20260318-083514,global,global,750,H,S,A,A,H-A.png,S-A.png,hH,sS,mask-1.png,mask-4.png,h,1,0.27586370000062743,s,1,0.15451319999920088,0.04947879999963334,0.04961330000151065,0.09927569999854313,0.09960259999934351,0.7502516999993531
RSVPLG03,si,20260318-083458,1.0.2,20260219-152011,805,Experiment,Both,1,Automatic,warmup,2,20260318-083519,local,global,300,S,H,E,E,E-S.png,H-E.png,sS,hH,mask-3.png,mask-4.png,h,0,0.6265529999982391,s,0,1.7145677000007709,0.049155699998664204,0.05009309999877587,0.09871719999864581,0.09988989999692421,0.29897429999982705
RSVPLG03,si,20260318-083458,1.0.2,20260219-152011,805,Experiment,Both,1,Automatic,warmup,3,20260318-083525,global,global,300,S,H,E,A,S-E.png,H-A.png,sS,hH,mask-4.png,mask-1.png,s,1,0.37510199999815086,h,1,0.11667470000247704,0.04980330000034883,0.04929980000088108,0.09998329999871203,0.10153409999838914,0.3000401999997848
RSVPLG03,si,20260318-083458,1.0.2,20260219-152011,805,Experiment,Both,1,Automatic,warmup,4,20260318-083529,local,local,300,H,H,A,A,A-H.png,A-H.png,hH,hH,mask-1.png,mask-3.png,h,1,0.7828513000022213,s,0,0.12636589999965508,0.050904700001410674,0.051296800000272924,0.10012040000219713,0.100552299998526,0.2999669000018912
RSVPLG03,si,20260318-083458,1.0.2,20260219-152011,805,Experiment,Both,1,Automatic,main,5,20260318-083534,global,global,750,H,S,A,A,H-A.png,S-A.png,hH,sS,mask-1.png,mask-2.png,h,1,0.2886810999989393,s,1,0.1521509000012884,0.05136069999934989,0.050021399998513516,0.0994658999989042,0.09958319999714149,0.7515789999997651
RSVPLG03,si,20260318-083458,1.0.2,20260219-152011,805,Experiment,Both,1,Automatic,main,6,20260318-083538,local,local,750,S,H,E,A,E-S.png,A-H.png,sS,hH,mask-4.png,mask-2.png,s,1,0.7529299999987416,h,1,0.14574590000120224,0.0485631999981706,0.050616399999853456,0.09965549999833456,0.10030469999765046,0.74790270000085
RSVPLG03,si,20260318-083458,1.0.2,20260219-152011,805,Experiment,Both,1,Automatic,main,7,20260318-083543,local,global,750,S,S,E,A,E-S.png,S-A.png,sS,sS,mask-1.png,mask-2.png,s,1,0.7897497999983898,s,1,0.12742810000054305,0.049314799998683156,0.049878400001034606,0.09874760000093374,0.10021129999950062,0.7499891000006755
RSVPLG03,si,20260318-083458,1.0.2,20260219-152011,805,Experiment,Both,1,Automatic,main,8,20260318-083548,local,global,750,S,H,A,A,A-S.png,H-A.png,sS,hH,mask-3.png,mask-4.png,s,1,0.7943626000014774,h,1,0.12000670000270475,0.04959709999820916,0.05021670000132872,0.09936620000007679,0.10171229999832576,0.749629099998856
RSVPLG03,si,20260318-083458,1.0.2,20260219-152011,805,Experiment,Both,1,Automatic,main,9,20260318-083554,local,local,300,S,S,A,E,A-S.png,E-S.png,sS,sS,mask-3.png,mask-4.png,s,1,0.5020927000005031,s,1,0.11324260000037611,0.049191900001460453,0.05022390000158339,0.10054390000004787,0.10093150000102469,0.29991270000027725
RSVPLG03,si,20260318-083458,1.0.2,20260219-152011,805,Experiment,Both,1,Automatic,main,10,20260318-083558,global,local,750,S,S,A,E,S-A.png,E-S.png,sS,sS,mask-3.png,mask-3.png,s,1,0.29323980000117444,s,1,0.11376979999840842,0.04859600000054343,0.051291700001456775,0.10024139999950421,0.10174750000078348,0.7488225999986753
RSVPLG03,si,20260318-083458,1.0.2,20260219-152011,805,Experiment,Both,1,Automatic,main,11,20260318-083602,local,local,300,S,H,E,A,E-S.png,A-H.png,sS,hH,mask-4.png,mask-2.png,s,1,0.7112244999989343,h,1,0.11519459999908577,0.05161510000107228,0.04933639999944717,0.10124660000292351,0.09926719999930356,0.3020481000021391
RSVPLG03,si,20260318-083458,1.0.2,20260219-152011,805,Experiment,Both,1,Automatic,main,12,20260318-083607,global,global,750,S,H,E,E,S-E.png,H-E.png,sS,hH,mask-2.png,mask-2.png,s,1,0.7216214000000036,h,1,0.07688899999993737,0.04957420000209822,0.048782900001242524,0.1013243000015791,0.09929430000192951,0.7519169000006514
RSVPLG03,si,20260318-083458,1.0.2,20260219-152011,805,Experiment,Both,1,Automatic,main,13,20260318-083612,local,local,750,S,S,A,A,A-S.png,A-S.png,sS,sS,mask-1.png,mask-2.png,s,1,0.5505596999973932,s,1,0.11325659999783966,0.04971540000042296,0.051076200001261896,0.10004420000041137,0.10145679999914137,0.7501005999984045
RSVPLG03,si,20260318-083458,1.0.2,20260219-152011,805,Experiment,Both,1,Automatic,main,14,20260318-083617,local,global,300,H,S,A,A,A-H.png,S-A.png,hH,sS,mask-1.png,mask-1.png,h,1,1.0646405999978015,s,1,0.1195372000001953,0.049000499999237945,0.05104150000261143,0.10005749999982072,0.10000910000235308,0.29869119999784743
RSVPLG03,si,20260318-083458,1.0.2,20260219-152011,805,Experiment,Both,1,Automatic,main,15,20260318-083621,global,global,750,H,H,E,A,H-E.png,H-A.png,hH,hH,mask-4.png,mask-2.png,h,1,0.7938932000033674,h,1,0.11990099999820814,0.05043899999873247,0.04988719999892055,0.10016629999881843,0.10096709999925224,0.7500742000011087
RSVPLG03,si,20260318-083458,1.0.2,20260219-152011,805,Experiment,Both,1,Automatic,main,16,20260318-083626,global,global,300,H,S,A,E,H-A.png,S-E.png,hH,sS,mask-2.png,mask-3.png,h,1,0.7964280000014696,s,1,0.12363430000186781,0.04990399999951478,0.050965099999302765,0.10108409999884316,0.10048480000114068,0.2989702999984729
RSVPLG03,si,20260318-083458,1.0.2,20260219-152011,805,Experiment,Both,1,Automatic,main,17,20260318-083631,global,global,300,H,S,E,A,H-E.png,S-A.png,hH,sS,mask-2.png,mask-2.png,h,1,0.5412797999997565,s,1,0.12144800000169198,0.050023899999359855,0.0498598000012862,0.09970569999859435,0.0996357000003627,0.3000145000005432
RSVPLG03,si,20260318-083458,1.0.2,20260219-152011,805,Experiment,Both,1,Automatic,main,18,20260318-083635,global,local,300,H,S,A,A,H-A.png,A-S.png,hH,sS,mask-1.png,mask-3.png,h,1,0.6193577000012738,s,1,0.13020110000070417,0.04887389999930747,0.050166599998192396,0.09838909999962198,0.09849249999751919,0.29981360000238055
RSVPLG03,si,20260318-083458,1.0.2,20260219-152011,805,Experiment,Both,1,Automatic,main,19,20260318-083640,global,local,750,S,H,A,E,S-A.png,E-H.png,sS,hH,mask-1.png,mask-2.png,s,1,1.3036793999999645,h,1,0.1377117999982147,0.050986800000828225,0.05156609999903594,0.10074959999838029,0.10037190000002738,0.7503034000001207
RSVPLG03,si,20260318-083458,1.0.2,20260219-152011,805,Experiment,Both,1,Automatic,main,20,20260318-083645,global,local,750,H,H,E,E,H-E.png,E-H.png,hH,hH,mask-3.png,mask-1.png,h,1,0.6369266999972751,s,0,0.10848769999938668,0.04941099999996368,0.05044300000008661,0.09827399999994668,0.10122960000080639,0.7496625000021595
RSVPLG03,si,20260318-083458,1.0.2,20260219-152011,805,Experiment,Both,1,Automatic,main,21,20260318-083650,global,global,300,S,S,A,E,S-A.png,S-E.png,sS,sS,mask-4.png,mask-2.png,s,1,0.43848560000333237,s,1,0.09840170000097714,0.04870469999877969,0.04983920000086073,0.09886219999680179,0.09938770000007935,0.30076609999741777
RSVPLG03,si,20260318-083458,1.0.2,20260219-152011,805,Experiment,Both,1,Automatic,main,22,20260318-083654,local,global,750,H,H,E,E,E-H.png,H-E.png,hH,hH,mask-3.png,mask-1.png,h,1,1.7992553999974916,s,0,0.21781629999895813,0.04981039999984205,0.04740180000226246,0.09970569999859435,0.09704169999895385,0.7519174999979441
RSVPLG03,si,20260318-083458,1.0.2,20260219-152011,805,Experiment,Both,1,Automatic,main,23,20260318-083701,global,global,300,S,S,E,E,S-E.png,S-E.png,sS,sS,mask-1.png,mask-4.png,s,1,0.4169852999984869,s,1,0.10558239999954822,0.05104389999905834,0.04975930000000517,0.10134819999802858,0.09935050000058254,0.3010919999978796
RSVPLG03,si,20260318-083458,1.0.2,20260219-152011,805,Experiment,Both,1,Automatic,main,24,20260318-083705,local,local,300,S,H,E,E,E-S.png,E-H.png,sS,hH,mask-3.png,mask-4.png,s,1,2.593220700000529,h,1,0.14643600000272272,0.049876499997481005,0.05070540000087931,0.10024290000001201,0.10141940000175964,0.2992158999986714
RSVPLG03,si,20260318-083458,1.0.2,20260219-152011,805,Experiment,Both,1,Automatic,main,25,20260318-083711,local,global,300,S,H,E,A,E-S.png,H-A.png,sS,hH,mask-3.png,mask-4.png,s,1,1.3534431000007316,h,1,0.10897009999825968,0.04907250000178465,0.050991300002351636,0.10002979999990202,0.10193100000105915,0.29805599999963306
RSVPLG03,si,20260318-083458,1.0.2,20260219-152011,805,Experiment,Both,1,Automatic,main,26,20260318-083728,local,global,750,S,H,E,E,E-S.png,H-E.png,sS,hH,mask-1.png,mask-4.png,s,1,0.6472733000009612,h,1,0.09982690000106231,0.05253150000135065,0.0497875999972166,0.10107520000019576,0.10065989999930025,0.7518718000028457
RSVPLG03,si,20260318-083458,1.0.2,20260219-152011,805,Experiment,Both,1,Automatic,main,27,20260318-083733,local,global,750,S,H,A,A,A-S.png,H-A.png,sS,hH,mask-4.png,mask-3.png,s,1,0.4043067999991763,h,1,0.09821390000070096,0.050205200001073536,0.05008579999775975,0.10360630000286619,0.10002539999914006,0.7505731000019296
RSVPLG03,si,20260318-083458,1.0.2,20260219-152011,805,Experiment,Both,1,Automatic,main,28,20260318-083738,local,local,300,H,S,E,A,E-H.png,A-S.png,hH,sS,mask-3.png,mask-3.png,h,1,0.6382666999998037,s,1,0.12926440000228467,0.0506788000020606,0.05164670000158367,0.10111800000231597,0.10205300000234274,0.2997703000000911
RSVPLG03,si,20260318-083458,1.0.2,20260219-152011,805,Experiment,Both,1,Automatic,main,29,20260318-083742,local,global,750,H,H,E,E,E-H.png,H-E.png,hH,hH,mask-2.png,mask-4.png,h,1,0.4443351999980223,h,1,0.10598530000061146,0.049429099999542814,0.049765299998398405,0.10098460000153864,0.09902910000164411,0.7507120000009309
RSVPLG03,si,20260318-083458,1.0.2,20260219-152011,805,Experiment,Both,1,Automatic,main,30,20260318-083747,global,global,300,S,S,E,E,S-E.png,S-E.png,sS,sS,mask-1.png,mask-4.png,s,1,0.38265970000065863,s,1,0.10112630000003264,0.04965770000126213,0.05112340000050608,0.09849810000014259,0.10061639999912586,0.29856520000248565
RSVPLG03,si,20260318-083458,1.0.2,20260219-152011,805,Experiment,Both,1,Automatic,main,31,20260318-083751,global,global,300,H,S,E,E,H-E.png,S-E.png,hH,sS,mask-4.png,mask-3.png,h,1,0.32998159999988275,s,1,0.08747450000009849,0.05100909999964642,0.050445299999410054,0.10072270000091521,0.09977389999767183,0.3007489000010537
RSVPLG03,si,20260318-083458,1.0.2,20260219-152011,805,Experiment,Both,1,Automatic,main,32,20260318-083755,global,local,300,S,S,A,A,S-A.png,A-S.png,sS,sS,mask-2.png,mask-2.png,h,0,0.4156135000012,h,0,1.2819327999968664,0.048044499999377877,0.0472723999992013,0.0991874999999709,0.09696640000038315,0.3012982000000193
RSVPLG03,si,20260318-083458,1.0.2,20260219-152011,805,Experiment,Both,1,Automatic,main,33,20260318-083800,local,local,300,S,S,A,E,A-S.png,E-S.png,sS,sS,mask-4.png,mask-3.png,s,1,1.0194341000023996,h,0,0.09093829999983427,0.048872599996684585,0.051236200000857934,0.10016840000025695,0.0997421000029135,0.3003340999966895
RSVPLG03,si,20260318-083458,1.0.2,20260219-152011,805,Experiment,Both,1,Automatic,main,34,20260318-083805,global,local,750,S,S,E,A,S-E.png,A-S.png,sS,sS,mask-4.png,mask-1.png,s,1,2.5398471000007703,h,0,0.1514296999994258,0.04974880000008852,0.04802449999988312,0.09996220000175526,0.09826350000003004,0.7530249000010372
RSVPLG03,si,20260318-083458,1.0.2,20260219-152011,805,Experiment,Both,1,Automatic,main,35,20260318-083812,global,local,750,H,S,A,A,H-A.png,A-S.png,hH,sS,mask-3.png,mask-3.png,h,1,0.7191878000012366,s,1,0.08676529999866034,0.04948290000174893,0.04905929999949876,0.10046420000071521,0.09983789999751025,0.7509362000018882
RSVPLG03,si,20260318-083458,1.0.2,20260219-152011,805,Experiment,Both,1,Automatic,main,36,20260318-083817,local,local,750,S,H,A,A,A-S.png,A-H.png,sS,hH,mask-3.png,mask-3.png,s,1,1.2983647000000929,h,1,0.07209460000012768,0.048494999999093125,0.049520800002937904,0.09904409999944619,0.10042130000147154,0.7501640999980737
RSVPLG03,si,20260318-083458,1.0.2,20260219-152011,805,Experiment,Both,1,Automatic,main,37,20260318-083823,global,local,300,H,H,A,E,H-A.png,E-H.png,hH,hH,mask-3.png,mask-4.png,h,1,0.7354894999989483,s,0,0.0773561999994854,0.05005220000020927,0.05144019999715965,0.0992593000009947,0.10018819999822881,0.300696300000709
RSVPLG03,si,20260318-083458,1.0.2,20260219-152011,805,Experiment,Both,1,Automatic,main,38,20260318-083827,global,global,300,H,S,A,A,H-A.png,S-A.png,hH,sS,mask-4.png,mask-2.png,h,1,0.5480241000004753,s,1,0.11174279999977443,0.051719899998715846,0.04792029999953229,0.09986610000123619,0.09552690000055009,0.30412019999857876
RSVPLG03,si,20260318-083458,1.0.2,20260219-152011,805,Experiment,Both,1,Automatic,main,39,20260318-083832,global,local,750,H,H,A,E,H-A.png,E-H.png,hH,hH,mask-4.png,mask-3.png,h,1,0.4875746999969124,h,1,0.11395120000088355,0.04972800000177813,0.04881709999972372,0.10092440000153147,0.09949580000102287,0.750951800000621
RSVPLG03,si,20260318-083458,1.0.2,20260219-152011,805,Experiment,Both,1,Automatic,main,40,20260318-083836,global,global,750,H,H,E,E,H-E.png,H-E.png,hH,hH,mask-2.png,mask-2.png,h,1,0.5024658000002091,h,1,0.10336699999970733,0.049946499999350635,0.049985000001470326,0.10045779999927618,0.10086660000160919,0.7503480999985186
RSVPLG03,si,20260318-083458,1.0.2,20260219-152011,805,Experiment,Both,1,Automatic,main,41,20260318-083841,local,local,750,S,S,E,E,E-S.png,E-S.png,sS,sS,mask-3.png,mask-1.png,h,0,0.5682244999989052,h,0,0.09577859999990324,0.04972060000000056,0.04973480000262498,0.10159480000220356,0.10095370000271942,0.750799299999926
RSVPLG03,si,20260318-083458,1.0.2,20260219-152011,805,Experiment,Both,1,Automatic,main,42,20260318-083846,local,global,300,H,H,A,E,A-H.png,H-E.png,hH,hH,mask-4.png,mask-1.png,h,1,0.6618011999998998,s,0,0.10553609999988112,0.04952630000116187,0.05002190000232076,0.09974890000012238,0.1019071000009717,0.2996619000005012
RSVPLG03,si,20260318-083458,1.0.2,20260219-152011,805,Experiment,Both,1,Automatic,main,43,20260318-083850,local,global,300,S,H,E,E,E-S.png,H-E.png,sS,hH,mask-2.png,mask-2.png,s,1,0.7762059000015142,h,1,0.09486019999894779,0.047759199998836266,0.04938689999835333,0.10011799999847426,0.10013350000008359,0.29959539999981644
RSVPLG03,si,20260318-083458,1.0.2,20260219-152011,805,Experiment,Both,1,Automatic,main,44,20260318-083855,local,local,750,S,H,A,E,A-S.png,E-H.png,sS,hH,mask-3.png,mask-1.png,s,1,0.3834120999999868,h,1,0.06548540000221692,0.05002949999834527,0.04878340000141179,0.09966549999808194,0.09911280000233091,0.7524878999975044
RSVPLG03,si,20260318-083458,1.0.2,20260219-152011,805,Experiment,Both,1,Automatic,main,45,20260318-083859,global,local,300,S,H,E,E,S-E.png,E-H.png,sS,hH,mask-4.png,mask-3.png,s,1,0.6758393999989494,h,1,0.42620000000169966,0.049842100001114886,0.04897449999771197,0.09996330000285525,0.099833000000217,0.3003009000021848
RSVPLG03,si,20260318-083458,1.0.2,20260219-152011,805,Experiment,Both,1,Automatic,main,46,20260318-083904,global,local,300,S,S,A,A,S-A.png,A-S.png,sS,sS,mask-4.png,mask-1.png,s,1,0.41765400000076625,h,0,0.05750299999999697,0.05161980000048061,0.049799099997471785,0.09998959999938961,0.10017269999661949,0.3009769000018423
RSVPLG03,si,20260318-083458,1.0.2,20260219-152011,805,Experiment,Both,1,Automatic,main,47,20260318-083909,local,local,750,H,H,A,E,A-H.png,E-H.png,hH,hH,mask-4.png,mask-4.png,h,1,0.4063409000009415,h,1,0.10045929999978398,0.04882839999845601,0.05113869999695453,0.09872940000059316,0.10012889999779873,0.7495272000014666
RSVPLG03,si,20260318-083458,1.0.2,20260219-152011,805,Experiment,Both,1,Automatic,main,48,20260318-083913,global,local,750,H,H,A,A,H-A.png,A-H.png,hH,hH,mask-4.png,mask-2.png,h,1,0.30201660000238917,h,1,0.11299590000271564,0.05021200000192039,0.04975150000245776,0.09920170000259532,0.0991055000013148,0.7514520000004268
RSVPLG03,si,20260318-083458,1.0.2,20260219-152011,805,Experiment,Both,1,Automatic,main,49,20260318-083918,global,local,750,H,S,A,E,H-A.png,E-S.png,hH,sS,mask-1.png,mask-4.png,h,1,0.43269490000238875,s,1,0.08214650000081747,0.04978370000026189,0.04950640000242856,0.10087360000034096,0.10060560000056284,0.7510206999977527
RSVPLG03,si,20260318-083458,1.0.2,20260219-152011,805,Experiment,Both,1,Automatic,main,50,20260318-083922,local,global,750,H,H,E,E,E-H.png,H-E.png,hH,hH,mask-3.png,mask-1.png,h,1,0.39472830000158865,s,0,0.12109720000080415,0.04890979999981937,0.05166079999980866,0.09892749999926309,0.10133189999760361,0.7499201999999059
RSVPLG03,si,20260318-083458,1.0.2,20260219-152011,805,Experiment,Both,1,Automatic,main,51,20260318-083941,global,global,750,H,H,A,A,H-A.png,H-A.png,hH,hH,mask-2.png,mask-3.png,h,1,0.2911805000003369,h,1,0.11221259999729227,0.048390799998742295,0.04899459999796818,0.09923149999667658,0.10045869999885326,0.7496457999986887
RSVPLG03,si,20260318-083458,1.0.2,20260219-152011,805,Experiment,Both,1,Automatic,main,52,20260318-083945,local,local,300,S,S,A,E,A-S.png,E-S.png,sS,sS,mask-4.png,mask-3.png,s,1,0.5245902999995451,s,1,0.09777820000090287,0.04887310000049183,0.04975390000254265,0.09959059999891906,0.09942100000262144,0.3001702999972622
RSVPLG03,si,20260318-083458,1.0.2,20260219-152011,805,Experiment,Both,1,Automatic,main,53,20260318-083950,global,global,300,H,H,E,A,H-E.png,H-A.png,hH,hH,mask-3.png,mask-1.png,h,1,1.023446100000001,h,1,0.13765819999753148,0.04989140000179759,0.049586000000999775,0.10123380000004545,0.0997391000018979,0.30095219999930123
RSVPLG03,si,20260318-083458,1.0.2,20260219-152011,805,Experiment,Both,1,Automatic,main,54,20260318-083955,global,local,300,H,H,E,A,H-E.png,A-H.png,hH,hH,mask-3.png,mask-2.png,h,1,0.5410198999998101,s,0,0.13714400000026217,0.048843000000488246,0.05134189999807859,0.09951809999984107,0.10018879999915953,0.29768980000153533
RSVPLG03,si,20260318-083458,1.0.2,20260219-152011,805,Experiment,Both,1,Automatic,main,55,20260318-083959,global,local,750,H,H,E,A,H-E.png,A-H.png,hH,hH,mask-1.png,mask-1.png,h,1,0.48706049999964307,h,1,0.13184739999996964,0.05008309999902849,0.05000890000155778,0.10138719999667956,0.10027540000010049,0.7514491999972961
RSVPLG03,si,20260318-083458,1.0.2,20260219-152011,805,Experiment,Both,1,Automatic,main,56,20260318-084004,global,global,300,S,H,A,A,S-A.png,H-A.png,sS,hH,mask-4.png,mask-1.png,s,1,1.037148999999772,h,1,0.13589499999943655,0.050125800000387244,0.05058669999925769,0.10116999999809195,0.10035459999926388,0.30203220000112196
RSVPLG03,si,20260318-083458,1.0.2,20260219-152011,805,Experiment,Both,1,Automatic,main,57,20260318-084009,global,local,300,H,H,E,E,H-E.png,E-H.png,hH,hH,mask-2.png,mask-2.png,h,1,1.095115199997963,h,1,0.15444830000342336,0.050297400000999914,0.05091859999811277,0.10100189999866416,0.10183239999969373,0.29939960000046995
RSVPLG03,si,20260318-083458,1.0.2,20260219-152011,805,Experiment,Both,1,Automatic,main,58,20260318-084014,local,global,300,S,H,E,A,E-S.png,H-A.png,sS,hH,mask-2.png,mask-3.png,s,1,0.827405699998053,h,1,0.13354400000025635,0.04893169999922975,0.04899039999872912,0.09832989999995334,0.09905629999775556,0.29919950000112294
RSVPLG03,si,20260318-083458,1.0.2,20260219-152011,805,Experiment,Both,1,Automatic,main,59,20260318-084018,local,local,300,H,S,E,E,E-H.png,E-S.png,hH,sS,mask-2.png,mask-4.png,h,1,1.0592634999993606,s,1,0.2015099000018381,0.05021699999997509,0.04960660000142525,0.10012559999813675,0.09875629999805824,0.3008340999986103
RSVPLG03,si,20260318-083458,1.0.2,20260219-152011,805,Experiment,Both,1,Automatic,main,60,20260318-084023,local,local,300,S,S,E,E,E-S.png,E-S.png,sS,sS,mask-4.png,mask-2.png,s,1,0.6023728000000119,s,1,0.13384969999970053,0.04935430000114138,0.04992069999934756,0.09994770000048447,0.10078019999855314,0.299237200000789
RSVPLG03,si,20260318-083458,1.0.2,20260219-152011,805,Experiment,Both,1,Automatic,main,61,20260318-084028,global,local,300,H,S,E,E,H-E.png,E-S.png,hH,sS,mask-4.png,mask-1.png,h,1,0.4153642999990552,h,0,0.19252529999721446,0.050779000001057284,0.04999160000079428,0.10026870000001509,0.09912619999886374,0.30089980000047944
RSVPLG03,si,20260318-083458,1.0.2,20260219-152011,805,Experiment,Both,1,Automatic,main,62,20260318-084032,global,global,750,H,S,A,A,H-A.png,S-A.png,hH,sS,mask-3.png,mask-3.png,h,1,0.46777450000081444,s,1,0.24074170000312733,0.04983940000238363,0.05051180000009481,0.09980870000072173,0.10067609999896376,0.7513939000018581
RSVPLG03,si,20260318-083458,1.0.2,20260219-152011,805,Experiment,Both,1,Automatic,main,63,20260318-084037,local,global,750,H,S,E,A,E-H.png,S-A.png,hH,sS,mask-1.png,mask-3.png,h,1,0.7160372999969695,s,1,0.17452590000175405,0.04983910000009928,0.04931889999716077,0.09965850000298815,0.10002069999973173,0.7526300000026822
RSVPLG03,si,20260318-083458,1.0.2,20260219-152011,805,Experiment,Both,1,Automatic,main,64,20260318-084042,local,local,750,H,H,A,A,A-H.png,A-H.png,hH,hH,mask-4.png,mask-3.png,h,1,0.4967891000014788,h,1,0.11286239999753889,0.04996919999757665,0.05027870000049006,0.09891549999883864,0.10062629999811179,0.7496066999992763
RSVPLG03,si,20260318-083458,1.0.2,20260219-152011,805,Experiment,Both,1,Automatic,main,65,20260318-084047,local,local,300,H,H,E,A,E-H.png,A-H.png,hH,hH,mask-1.png,mask-4.png,h,1,0.4157212999998592,h,1,0.12889029999860213,0.04958890000125393,0.04951539999819943,0.09888460000001942,0.09838479999962146,0.3004355000011856
RSVPLG03,si,20260318-083458,1.0.2,20260219-152011,805,Experiment,Both,1,Automatic,main,66,20260318-084051,global,local,750,H,H,E,A,H-E.png,A-H.png,hH,hH,mask-3.png,mask-3.png,h,1,0.3330167000021902,h,1,0.11225550000017392,0.05073430000265944,0.051378699998167576,0.10108920000129729,0.1000910999973712,0.7512745000021823
RSVPLG03,si,20260318-083458,1.0.2,20260219-152011,805,Experiment,Both,1,Automatic,main,67,20260318-084056,local,global,300,H,S,A,A,A-H.png,S-A.png,hH,sS,mask-1.png,mask-3.png,h,1,0.3709654000012961,s,1,0.09725569999864092,0.04949549999946612,0.04937100000097416,0.09879050000017742,0.09993720000056783,0.30038109999804874
RSVPLG03,si,20260318-083458,1.0.2,20260219-152011,805,Experiment,Both,1,Automatic,main,68,20260318-084100,local,global,300,H,H,A,E,A-H.png,H-E.png,hH,hH,mask-4.png,mask-3.png,h,1,0.7638249000010546,s,0,0.11798060000000987,0.04953360000217799,0.0495176000003994,0.10120269999970333,0.1004943000007188,0.29909849999967264
RSVPLG03,si,20260318-083458,1.0.2,20260219-152011,805,Experiment,Both,1,Automatic,main,69,20260318-084105,global,local,300,S,H,E,A,S-E.png,A-H.png,sS,hH,mask-2.png,mask-2.png,s,1,1.2541153999991366,h,1,0.14506339999934426,0.05003180000130669,0.05176559999745223,0.0991719000012381,0.10143160000006901,0.30009400000199093
RSVPLG03,si,20260318-083458,1.0.2,20260219-152011,805,Experiment,Both,1,Automatic,main,70,20260318-084110,local,global,300,S,S,E,A,E-S.png,S-A.png,sS,sS,mask-1.png,mask-3.png,s,1,0.9536616000004869,s,1,0.11823110000113957,0.04986540000027162,0.05029439999998431,0.10029759999815724,0.10053089999928488,0.30003969999961555
RSVPLG03,si,20260318-083458,1.0.2,20260219-152011,805,Experiment,Both,1,Automatic,main,71,20260318-084115,global,global,300,S,H,E,A,S-E.png,H-A.png,sS,hH,mask-3.png,mask-1.png,s,1,0.6417691000024206,h,1,0.16648780000105035,0.04977529999814578,0.05060149999917485,0.10033629999816185,0.0991926999995485,0.30048919999899226
RSVPLG03,si,20260318-083458,1.0.2,20260219-152011,805,Experiment,Both,1,Automatic,main,72,20260318-084119,local,global,750,H,S,A,E,A-H.png,S-E.png,hH,sS,mask-1.png,mask-1.png,h,1,1.0988308000014513,s,1,0.17747960000269813,0.05013489999691956,0.04999780000071041,0.09830629999851226,0.09972760000164271,0.7501669999983278
RSVPLG03,si,20260318-083458,1.0.2,20260219-152011,805,Experiment,Both,1,Automatic,main,73,20260318-084125,local,global,750,S,S,E,A,E-S.png,S-A.png,sS,sS,mask-4.png,mask-2.png,s,1,0.7375642000006337,s,1,0.13450169999850914,0.04880780000166851,0.050295399996684864,0.09915920000275946,0.09917379999751574,0.7495967000031669
RSVPLG03,si,20260318-083458,1.0.2,20260219-152011,805,Experiment,Both,1,Automatic,main,74,20260318-084130,local,global,300,H,S,E,E,E-H.png,S-E.png,hH,sS,mask-1.png,mask-4.png,h,1,1.0933122999995248,s,1,0.16828170000007958,0.04973070000050939,0.05006949999733479,0.10066039999946952,0.10122559999945224,0.29946900000140886
RSVPLG03,si,20260318-083458,1.0.2,20260219-152011,805,Experiment,Both,1,Automatic,main,75,20260318-084135,global,local,300,H,H,E,A,H-E.png,A-H.png,hH,hH,mask-2.png,mask-4.png,h,1,0.4659785000003467,s,0,0.18613750000076834,0.050089000000298256,0.049784499999077525,0.09926270000141812,0.09873679999873275,0.3005975000014587
RSVPLG03,si,20260318-083458,1.0.2,20260219-152011,805,Experiment,Both,1,Automatic,main,76,20260318-084152,global,global,750,H,S,E,A,H-E.png,S-A.png,hH,sS,mask-1.png,mask-2.png,h,1,0.5748815000006289,s,1,0.12965559999793186,0.05030310000074678,0.05170100000032107,0.10014670000236947,0.10077150000142865,0.7495621000016399
RSVPLG03,si,20260318-083458,1.0.2,20260219-152011,805,Experiment,Both,1,Automatic,main,77,20260318-084157,global,global,750,H,S,E,E,H-E.png,S-E.png,hH,sS,mask-4.png,mask-2.png,h,1,0.4420032000016363,s,1,0.13870849999875645,0.050779000001057284,0.050611599999683676,0.10088180000093416,0.0999110999982804,0.7515167000019574
RSVPLG03,si,20260318-083458,1.0.2,20260219-152011,805,Experiment,Both,1,Automatic,main,78,20260318-084202,global,global,750,H,S,A,A,H-A.png,S-A.png,hH,sS,mask-4.png,mask-2.png,h,1,0.5917531000013696,s,1,0.14151709999714512,0.04990000000179862,0.04795419999936712,0.10062520000064978,0.09787169999981415,0.7531521000018984
RSVPLG03,si,20260318-083458,1.0.2,20260219-152011,805,Experiment,Both,1,Automatic,main,79,20260318-084207,global,local,300,S,S,E,A,S-E.png,A-S.png,sS,sS,mask-1.png,mask-4.png,s,1,1.1247092000012344,h,0,0.14476740000100108,0.04794380000021192,0.05022370000006049,0.09724769999957061,0.10173600000052829,0.2972057000006316
RSVPLG03,si,20260318-083458,1.0.2,20260219-152011,805,Experiment,Both,1,Automatic,main,80,20260318-084212,global,global,750,S,H,A,A,S-A.png,H-A.png,sS,hH,mask-3.png,mask-4.png,s,1,0.8557119999968563,h,1,0.1078680999999051,0.048876900000323076,0.048985800000082236,0.09891499999866937,0.0996644999977434,0.7486796000011964
RSVPLG03,si,20260318-083458,1.0.2,20260219-152011,805,Experiment,Both,1,Automatic,main,81,20260318-084217,local,global,300,H,H,A,E,A-H.png,H-E.png,hH,hH,mask-2.png,mask-1.png,h,1,0.9561278000001039,h,1,0.12928450000254088,0.05147190000207047,0.04676149999795598,0.0999904999989667,0.09684939999715425,0.30295960000148625
RSVPLG03,si,20260318-083458,1.0.2,20260219-152011,805,Experiment,Both,1,Automatic,main,82,20260318-084222,local,local,750,S,H,E,A,E-S.png,A-H.png,sS,hH,mask-2.png,mask-2.png,s,1,0.6475128999991284,h,1,0.11188689999835333,0.05324230000042007,0.050118000002839835,0.10130099999878439,0.09760740000274382,0.7535847999970429
RSVPLG03,si,20260318-083458,1.0.2,20260219-152011,805,Experiment,Both,1,Automatic,main,83,20260318-084226,local,local,750,S,S,E,A,E-S.png,A-S.png,sS,sS,mask-1.png,mask-3.png,s,1,0.364550499998586,s,1,0.10940349999873433,0.05007140000088839,0.04892340000151307,0.0999563000004855,0.09872630000245408,0.7524637999995321
RSVPLG03,si,20260318-083458,1.0.2,20260219-152011,805,Experiment,Both,1,Automatic,main,84,20260318-084231,local,local,300,S,S,E,E,E-S.png,E-S.png,sS,sS,mask-1.png,mask-4.png,s,1,0.21672920000128215,s,1,0.13517240000146558,0.050529300002381206,0.0507383000003756,0.10145890000057989,0.09994630000073812,0.29912770000009914
RSVPLG03,si,20260318-083458,1.0.2,20260219-152011,805,Experiment,Both,1,Automatic,main,85,20260318-084235,global,global,750,S,H,E,A,S-E.png,H-A.png,sS,hH,mask-2.png,mask-4.png,s,1,0.32943710000108695,h,1,0.1104044999992766,0.05037620000075549,0.04958780000015395,0.10057530000267434,0.1009368999984872,0.7505025000027672
RSVPLG03,si,20260318-083458,1.0.2,20260219-152011,805,Experiment,Both,1,Automatic,main,86,20260318-084240,global,local,300,H,H,A,A,H-A.png,A-H.png,hH,hH,mask-4.png,mask-2.png,h,1,0.9042622000015399,h,1,0.11800819999916712,0.05004019999978482,0.048591799997666385,0.10147110000252724,0.099067200000718,0.30107870000210823
RSVPLG03,si,20260318-083458,1.0.2,20260219-152011,805,Experiment,Both,1,Automatic,main,87,20260318-084245,local,global,750,S,S,A,A,A-S.png,S-A.png,sS,sS,mask-4.png,mask-2.png,s,1,0.46741390000170213,s,1,0.12544539999726112,0.049857199999678414,0.04968899999948917,0.09931539999888628,0.09962090000044554,0.750598099999479
RSVPLG03,si,20260318-083458,1.0.2,20260219-152011,805,Experiment,Both,1,Automatic,main,88,20260318-084249,local,local,750,H,S,E,A,E-H.png,A-S.png,hH,sS,mask-2.png,mask-1.png,h,1,0.3875975999981165,s,1,0.12215239999932237,0.051422199998341966,0.05003510000096867,0.1020230999965861,0.10145589999956428,0.7511654999980237
RSVPLG03,si,20260318-083458,1.0.2,20260219-152011,805,Experiment,Both,1,Automatic,main,89,20260318-084254,global,global,300,H,S,E,A,H-E.png,S-A.png,hH,sS,mask-3.png,mask-3.png,h,1,0.5722628000003169,s,1,0.15860410000095726,0.049822900000435766,0.048818500003108056,0.09861889999956475,0.10061810000115656,0.3005121999995026
RSVPLG03,si,20260318-083458,1.0.2,20260219-152011,805,Experiment,Both,1,Automatic,main,90,20260318-084258,global,local,750,H,H,E,A,H-E.png,A-H.png,hH,hH,mask-4.png,mask-3.png,h,1,1.071017700000084,s,0,0.15433630000188714,0.05073229999834439,0.05030030000125407,0.1011646999977529,0.10027700000136974,0.7501713999990898
RSVPLG03,si,20260318-083458,1.0.2,20260219-152011,805,Experiment,Both,1,Automatic,main,91,20260318-084304,global,global,300,S,H,E,E,S-E.png,H-E.png,sS,hH,mask-1.png,mask-3.png,s,1,0.6152693999974872,h,1,0.1113772999997309,0.0474090999996406,0.04939809999996214,0.0970465000027616,0.10065190000022994,0.2986653000007209
RSVPLG03,si,20260318-083458,1.0.2,20260219-152011,805,Experiment,Both,1,Automatic,main,92,20260318-084308,local,local,750,S,H,E,E,E-S.png,E-H.png,sS,hH,mask-3.png,mask-3.png,s,1,0.7672161999980744,h,1,0.060514900000271155,0.04956139999922016,0.04891919999863603,0.09954669999933685,0.10002259999964735,0.750875099998666
RSVPLG03,si,20260318-083458,1.0.2,20260219-152011,805,Experiment,Both,1,Automatic,main,93,20260318-084313,local,local,750,S,S,E,E,E-S.png,E-S.png,sS,sS,mask-2.png,mask-4.png,s,1,0.42755830000169226,s,1,0.11123020000013639,0.048725000000558794,0.04792710000037914,0.09954450000077486,0.09789589999854797,0.7508109000009426
RSVPLG03,si,20260318-083458,1.0.2,20260219-152011,805,Experiment,Both,1,Automatic,main,94,20260318-084318,local,global,300,H,H,E,A,E-H.png,H-A.png,hH,hH,mask-2.png,mask-3.png,h,1,0.5483702999990783,s,0,0.12054669999997714,0.050846999998611864,0.05045339999924181,0.10111699999833945,0.10257499999715947,0.2987573999998858
RSVPLG03,si,20260318-083458,1.0.2,20260219-152011,805,Experiment,Both,1,Automatic,main,95,20260318-084322,local,local,300,H,S,E,A,E-H.png,A-S.png,hH,sS,mask-4.png,mask-2.png,h,1,0.6903291999988141,s,1,0.09043279999968945,0.050938500000484055,0.04978530000153114,0.10082400000101188,0.09981690000131493,0.30030360000091605
RSVPLG03,si,20260318-083458,1.0.2,20260219-152011,805,Experiment,Both,1,Automatic,main,96,20260318-084327,global,global,750,H,S,A,E,H-A.png,S-E.png,hH,sS,mask-4.png,mask-2.png,h,1,0.8195279999999912,s,1,0.09017609999864362,0.048850699997274205,0.048611199999868404,0.09893770000053337,0.09916940000039176,0.7497356999992917
RSVPLG03,si,20260318-083458,1.0.2,20260219-152011,805,Experiment,Both,1,Automatic,main,97,20260318-084332,local,local,300,S,S,E,A,E-S.png,A-S.png,sS,sS,mask-3.png,mask-3.png,s,1,0.5340715999991517,s,1,0.11315229999672738,0.05082439999750932,0.04983469999933732,0.1018755000004603,0.10126880000098026,0.30044229999839445
RSVPLG03,si,20260318-083458,1.0.2,20260219-152011,805,Experiment,Both,1,Automatic,main,98,20260318-084336,local,global,300,H,S,A,E,A-H.png,S-E.png,hH,sS,mask-4.png,mask-2.png,h,1,1.0101891000012984,s,1,0.09673640000255546,0.04895029999897815,0.04876210000293213,0.09897389999969164,0.09961240000120597,0.3000257999992755
RSVPLG03,si,20260318-083458,1.0.2,20260219-152011,805,Experiment,Both,1,Automatic,main,99,20260318-084341,local,global,750,H,H,A,A,A-H.png,H-A.png,hH,hH,mask-3.png,mask-2.png,h,1,1.9241450000008626,s,0,0.06369139999878826,0.0504436999981408,0.049341500001901295,0.10003149999829475,0.0983462000003783,0.7511257999976806
RSVPLG03,si,20260318-083458,1.0.2,20260219-152011,805,Experiment,Both,1,Automatic,main,100,20260318-084347,global,local,750,S,H,A,E,S-A.png,E-H.png,sS,hH,mask-3.png,mask-1.png,s,1,1.1595615000005637,h,1,0.08188779999909457,0.049806199996965006,0.049675599999318365,0.10053169999810052,0.1003668999983347,0.7498771999999008
