exp,exp_initials,runtime,ver,modtime,sub,blocktype,targets,cuetype,mode,trialtype,trial,trialtime,t1_level,t2_level,t2_lag,t1,t2,distractor1,distractor2,stimfile1,stimfile2,t1_corr,t2_corr,maskfile1,maskfile2,t1_resp,t1_acc,t1_rt,t2_resp,t2_acc,t2_rt,t1_dur,t2_dur,t1mask_soa,t2mask_soa,t1t2_soa
RSVPLG03,si,20260219-160903,1.0.2,20260219-152011,771,Introduction,T1,1,Automatic,main,1,20260219-160959,local,global,750,H,H,A,E,A-H.png,H-E.png,hH,hH,mask-3.png,mask-4.png,h,1,1.744614600087516,none,-5,0,0.09285470005124807,0.0992581999162212,0.1888034000294283,0.20010589994490147,0.7368584000505507
RSVPLG03,si,20260219-160903,1.0.2,20260219-152011,771,Introduction,T1,1,Automatic,main,2,20260219-161005,global,local,750,S,S,A,A,S-A.png,A-S.png,sS,sS,mask-4.png,mask-3.png,s,1,1.2572664999170229,none,-5,0,0.10128729999996722,0.10005719994660467,0.20117240003310144,0.19943729997612536,0.7453732000431046
RSVPLG03,si,20260219-160903,1.0.2,20260219-152011,771,Introduction,T1,1,Automatic,main,3,20260219-161010,global,global,750,S,S,A,A,S-A.png,S-A.png,sS,sS,mask-2.png,mask-3.png,s,1,0.9674683000193909,none,-5,0,0.10168059996794909,0.09880829998292029,0.19825250003486872,0.19711239996831864,0.7467592000029981
RSVPLG03,si,20260219-160903,1.0.2,20260219-152011,771,Introduction,T1,1,Automatic,main,4,20260219-161016,global,local,750,S,H,A,A,S-A.png,A-H.png,sS,hH,mask-1.png,mask-2.png,s,1,1.1955805999459699,none,-5,0,0.09940449998248369,0.0990050999680534,0.19812069996260107,0.19909130001906306,0.7444348999997601
RSVPLG03,si,20260219-160903,1.0.2,20260219-152011,771,Introduction,T1,1,Automatic,main,5,20260219-161021,global,global,750,S,H,E,E,S-E.png,H-E.png,sS,hH,mask-4.png,mask-3.png,s,1,0.6920192000688985,none,-5,0,0.09831789997406304,0.09775630000513047,0.19750740006566048,0.19807369995396584,0.7463991000549868
RSVPLG03,si,20260219-160903,1.0.2,20260219-152011,771,Introduction,T1,1,Automatic,main,6,20260219-161026,local,local,750,H,H,A,A,A-H.png,A-H.png,hH,hH,mask-4.png,mask-1.png,h,1,0.4493412000592798,none,-5,0,0.10059299995191395,0.09765040001366287,0.1985305999405682,0.19904540001880378,0.7474630000069737
RSVPLG03,si,20260219-160903,1.0.2,20260219-152011,771,Introduction,T1,1,Automatic,main,7,20260219-161030,local,local,750,S,H,E,E,E-S.png,E-H.png,sS,hH,mask-1.png,mask-1.png,s,1,0.39175209996756166,none,-5,0,0.09796739998273551,0.09858480002731085,0.19856529997196048,0.19565180002246052,0.7475227999966592
RSVPLG03,si,20260219-160903,1.0.2,20260219-152011,771,Introduction,T1,1,Automatic,main,8,20260219-161035,local,local,750,H,S,E,E,E-H.png,E-S.png,hH,sS,mask-3.png,mask-1.png,h,1,0.10652279993519187,none,-5,0,0.10188169998582453,0.10003839991986752,0.19872320001013577,0.19809879991225898,0.7465784000232816
RSVPLG03,si,20260219-160903,1.0.2,20260219-152011,771,Introduction,T1,1,Automatic,main,9,20260219-161039,local,global,750,H,H,A,E,A-H.png,H-E.png,hH,hH,mask-2.png,mask-1.png,h,1,0.7216796999564394,none,-5,0,0.09976130002178252,0.09968540002591908,0.1995394000550732,0.19801799999549985,0.7465181000297889
RSVPLG03,si,20260219-160903,1.0.2,20260219-152011,771,Introduction,T1,1,Automatic,main,10,20260219-161044,global,global,750,S,S,A,E,S-A.png,S-E.png,sS,sS,mask-3.png,mask-4.png,s,1,0.22453330003190786,none,-5,0,0.10036099993158132,0.09956419991794974,0.1979682999663055,0.1985299999359995,0.7448777999961749
RSVPLG03,si,20260219-160903,1.0.2,20260219-152011,771,Introduction,T1,1,Automatic,main,11,20260219-161048,global,local,750,S,S,E,A,S-E.png,A-S.png,sS,sS,mask-3.png,mask-1.png,none,-6,0,none,-5,0,0.10020190000068396,0.09904560004360974,0.20119559997692704,0.19758629996795207,0.7478121999884024
RSVPLG03,si,20260219-161141,1.0.2,20260219-152011,771,Practice,T1,1,Automatic,main,1,20260219-161214,global,global,750,S,S,A,A,S-A.png,S-A.png,sS,sS,mask-1.png,mask-3.png,s,1,0.20773969998117536,none,-5,0,0.03813470003660768,0.049139500013552606,0.08764809998683631,0.09890570002608001,0.7419623000314459
RSVPLG03,si,20260219-161141,1.0.2,20260219-152011,771,Practice,T1,1,Automatic,main,2,20260219-161219,local,local,300,H,H,A,E,A-H.png,E-H.png,hH,hH,mask-2.png,mask-4.png,h,1,0.28551239997614175,none,-5,0,0.05035869998391718,0.051277900114655495,0.09915829997044057,0.10111860011238605,0.2994317999109626
RSVPLG03,si,20260219-161141,1.0.2,20260219-152011,771,Practice,T1,1,Automatic,main,3,20260219-161222,local,global,300,S,H,E,A,E-S.png,H-A.png,sS,hH,mask-4.png,mask-2.png,s,1,0.2875362999038771,none,-5,0,0.050010900013148785,0.05079769995063543,0.0991731999674812,0.0995882999850437,0.30023180006537586
RSVPLG03,si,20260219-161141,1.0.2,20260219-152011,771,Practice,T1,1,Automatic,main,4,20260219-161226,global,local,750,H,S,E,A,H-E.png,A-S.png,hH,sS,mask-2.png,mask-4.png,h,1,0.04768519999925047,none,-5,0,0.0501020000083372,0.050156200071796775,0.10095380002167076,0.10013620008248836,0.7532577000092715
RSVPLG03,si,20260219-161141,1.0.2,20260219-152011,771,Practice,T1,1,Automatic,main,5,20260219-161230,local,local,300,S,H,E,A,E-S.png,A-H.png,sS,hH,mask-1.png,mask-2.png,s,1,0.39126639999449253,none,-5,0,0.051027199951931834,0.05024859996046871,0.10154949990101159,0.10244379995856434,0.30105629994068295
RSVPLG03,si,20260219-161141,1.0.2,20260219-152011,771,Practice,T1,1,Automatic,main,6,20260219-161234,global,global,750,S,H,E,A,S-E.png,H-A.png,sS,hH,mask-2.png,mask-4.png,s,1,0.2102051000110805,none,-5,0,0.04981750005390495,0.04934310005046427,0.09960339998360723,0.1015822000335902,0.7515451000072062
RSVPLG03,si,20260219-161141,1.0.2,20260219-152011,771,Practice,T1,1,Automatic,main,7,20260219-161239,local,global,750,S,S,E,E,E-S.png,S-E.png,sS,sS,mask-2.png,mask-4.png,s,1,0.263634099974297,none,-5,0,0.05029310006648302,0.051505599985830486,0.09937010006979108,0.10072220000438392,0.7516244000289589
RSVPLG03,si,20260219-161141,1.0.2,20260219-152011,771,Practice,T1,1,Automatic,main,8,20260219-161243,global,local,300,H,H,A,E,H-A.png,E-H.png,hH,hH,mask-3.png,mask-3.png,h,1,0.28528329997789115,none,-5,0,0.050062900059856474,0.05115219997242093,0.10009940003510565,0.0998610999668017,0.30172630003653467
RSVPLG03,si,20260219-161141,1.0.2,20260219-152011,771,Practice,T1,1,Automatic,main,9,20260219-161247,local,local,750,S,S,A,A,A-S.png,A-S.png,sS,sS,mask-2.png,mask-2.png,s,1,0.2131282000336796,none,-5,0,0.04777279996778816,0.05038069991860539,0.09789830003865063,0.10043869994115084,0.7496556000551209
RSVPLG03,si,20260219-161141,1.0.2,20260219-152011,771,Practice,T1,1,Automatic,main,10,20260219-161251,global,local,300,H,H,A,A,H-A.png,A-H.png,hH,hH,mask-4.png,mask-4.png,h,1,0.29083309997804463,none,-5,0,0.052211600006558,0.05078159994445741,0.10116299998480827,0.10189169994555414,0.30082430003676564
RSVPLG03,si,20260219-161141,1.0.2,20260219-152011,771,Practice,T1,1,Automatic,main,11,20260219-161255,global,local,750,H,S,E,E,H-E.png,E-S.png,hH,sS,mask-1.png,mask-1.png,h,1,0.020236399956047535,none,-5,0,0.05060829990543425,0.04950179997831583,0.1008103999774903,0.09923749999143183,0.752536499989219
RSVPLG03,si,20260219-161141,1.0.2,20260219-152011,771,Practice,T1,1,Automatic,main,12,20260219-161259,global,global,300,S,S,A,A,S-A.png,S-A.png,sS,sS,mask-2.png,mask-3.png,s,1,0.2389216999290511,none,-5,0,0.04970390000380576,0.0487859999993816,0.1002727000741288,0.09962159988936037,0.3021605000831187
RSVPLG03,si,20260219-161141,1.0.2,20260219-152011,771,Practice,T1,1,Automatic,main,13,20260219-161303,local,global,300,H,S,A,E,A-H.png,S-E.png,hH,sS,mask-3.png,mask-1.png,h,1,0.1831444000126794,none,-5,0,0.05010049999691546,0.049742600065656006,0.10094729997217655,0.10064099996816367,0.3018861999735236
RSVPLG03,si,20260219-161141,1.0.2,20260219-152011,771,Practice,T1,1,Automatic,main,14,20260219-161307,local,local,750,H,H,A,A,A-H.png,A-H.png,hH,hH,mask-4.png,mask-3.png,h,1,1.5939091000473127,none,-5,0,0.050433200085535645,0.05069470009766519,0.09854340006131679,0.1014765000436455,0.7511937000090256
RSVPLG03,si,20260219-161141,1.0.2,20260219-152011,771,Practice,T1,1,Automatic,main,15,20260219-161312,global,global,300,H,S,A,E,H-A.png,S-E.png,hH,sS,mask-4.png,mask-4.png,h,1,0.22081720002461225,none,-5,0,0.05168579996097833,0.05038100003730506,0.10006929992232472,0.10087880003266037,0.3014576999703422
RSVPLG03,si,20260219-161141,1.0.2,20260219-152011,771,Practice,T1,1,Automatic,main,16,20260219-161316,local,global,750,S,S,E,E,E-S.png,S-E.png,sS,sS,mask-2.png,mask-4.png,s,1,0.2470919000916183,none,-5,0,0.05010049999691546,0.051203099894337356,0.1014891000231728,0.10002349992282689,0.7531092000426725
RSVPLG03,si,20260219-161419,1.0.2,20260219-152011,771,Introduction,Both,1,Automatic,main,1,20260219-161501,global,local,750,S,S,A,E,S-A.png,E-S.png,sS,sS,mask-3.png,mask-3.png,s,1,1.158385399961844,s,1,0.3709879999514669,0.09915139991790056,0.09979470004327595,0.20013369992375374,0.20037289999891073,0.74907479993999
RSVPLG03,si,20260219-161419,1.0.2,20260219-152011,771,Introduction,Both,1,Automatic,main,2,20260219-161507,local,local,750,H,H,A,A,A-H.png,A-H.png,hH,hH,mask-1.png,mask-2.png,s,0,4.528712100000121,s,0,4.033046700060368,0.09992439998313785,0.09796640009153634,0.20152979996055365,0.19923220004420727,0.7526018999051303
RSVPLG03,si,20260219-161419,1.0.2,20260219-152011,771,Introduction,Both,1,Automatic,main,3,20260219-161520,local,global,750,H,H,E,A,E-H.png,H-A.png,hH,hH,mask-3.png,mask-2.png,s,0,1.2090681999688968,h,1,15.03670559998136,0.09844380000140518,0.09952499996870756,0.19980689999647439,0.19983299996238202,0.7500390999484807
RSVPLG03,si,20260219-161419,1.0.2,20260219-152011,771,Introduction,Both,1,Automatic,main,4,20260219-161541,local,global,750,H,S,E,A,E-H.png,S-A.png,hH,sS,mask-1.png,mask-1.png,h,1,1.2370718999300152,h,0,0.15340099995955825,0.09666869998909533,0.10194089997094125,0.19746220007073134,0.20021499996073544,0.7469326000427827
RSVPLG03,si,20260219-161419,1.0.2,20260219-152011,771,Introduction,Both,1,Automatic,main,5,20260219-161547,global,local,750,S,H,A,A,S-A.png,A-H.png,sS,hH,mask-4.png,mask-2.png,s,1,1.1383201000280678,h,1,1.3024575000163168,0.09935190004762262,0.1003174000652507,0.20022610004525632,0.1997004000004381,0.7492327999789268
RSVPLG03,si,20260219-161419,1.0.2,20260219-152011,771,Introduction,Both,1,Automatic,main,6,20260219-161553,local,local,750,S,S,E,E,E-S.png,E-S.png,sS,sS,mask-2.png,mask-4.png,s,1,0.45971960003953427,s,1,0.2137766000814736,0.10039349994622171,0.09982660005334765,0.19939119997434318,0.19992030004505068,0.7502212999388576
RSVPLG03,si,20260219-161419,1.0.2,20260219-152011,771,Introduction,Both,1,Automatic,main,7,20260219-161559,global,global,750,S,S,A,A,S-A.png,S-A.png,sS,sS,mask-2.png,mask-1.png,s,1,0.42834599991329014,s,1,0.18867619999218732,0.10084379999898374,0.10273469996172935,0.20033000002149493,0.20008169999346137,0.7483439000789076
RSVPLG03,si,20260219-161419,1.0.2,20260219-152011,771,Introduction,Both,1,Automatic,main,8,20260219-161604,local,global,750,H,S,A,E,A-H.png,S-E.png,hH,sS,mask-4.png,mask-3.png,h,1,1.8325602000113577,s,1,0.35178639995865524,0.10000129998661578,0.09997610002756119,0.19989769998937845,0.20148950000293553,0.749604000011459
RSVPLG03,si,20260219-161419,1.0.2,20260219-152011,771,Introduction,Both,1,Automatic,main,9,20260219-161610,global,global,750,S,S,A,A,S-A.png,S-A.png,sS,sS,mask-4.png,mask-2.png,s,1,0.3909641000209376,s,1,0.12025999999605119,0.1011222000233829,0.10101119999308139,0.19992370007093996,0.19986449996940792,0.7501073000021279
RSVPLG03,si,20260219-161419,1.0.2,20260219-152011,771,Introduction,Both,1,Automatic,main,10,20260219-161615,local,global,750,S,S,E,E,E-S.png,S-E.png,sS,sS,mask-1.png,mask-2.png,s,1,0.6213401999557391,s,1,0.0968093000119552,0.10059440007898957,0.0996474000858143,0.20163250004407018,0.20055860001593828,0.7507490999996662
RSVPLG03,si,20260219-161419,1.0.2,20260219-152011,771,Introduction,Both,1,Automatic,main,11,20260219-161621,local,local,750,H,S,E,E,E-H.png,E-S.png,hH,sS,mask-2.png,mask-2.png,h,1,0.681133099948056,s,1,0.4948967000236735,0.09816749999299645,0.10083240002859384,0.2007799999555573,0.19959760003257543,0.748950699926354
RSVPLG03,si,20260219-161419,1.0.2,20260219-152011,771,Introduction,Both,1,Automatic,main,12,20260219-161626,global,local,750,H,S,A,E,H-A.png,E-S.png,hH,sS,mask-4.png,mask-2.png,h,1,0.45843729993794113,s,1,0.23348459997214377,0.10041509999427944,0.10163420008029789,0.19932530005462468,0.20008630002848804,0.7494612999726087
RSVPLG03,si,20260219-161419,1.0.2,20260219-152011,771,Introduction,Both,1,Automatic,main,13,20260219-161631,local,local,750,S,S,E,A,E-S.png,A-S.png,sS,sS,mask-1.png,mask-1.png,s,1,0.38416079990565777,s,1,0.2256211000494659,0.0989127999637276,0.09948249999433756,0.1996636000694707,0.19916409999132156,0.7495239999843761
RSVPLG03,si,20260219-161419,1.0.2,20260219-152011,771,Introduction,Both,1,Automatic,main,14,20260219-161637,global,global,750,S,H,A,E,S-A.png,H-E.png,sS,hH,mask-2.png,mask-4.png,h,0,1.2100628999760374,h,1,0.08004949998576194,0.10019580007065088,0.10002310003619641,0.2009908000472933,0.20018630009144545,0.7498932000016794
RSVPLG03,si,20260219-161419,1.0.2,20260219-152011,771,Introduction,Both,1,Automatic,main,15,20260219-161642,global,global,750,H,S,E,A,H-E.png,S-A.png,hH,sS,mask-2.png,mask-1.png,none,-6,0,none,-6,0,0.10053499997593462,0.10057999996934086,0.20147430000361055,0.20111639995593578,0.7504193000495434
RSVPLG03,si,20260219-161729,1.0.2,20260219-152011,771,Practice,Both,1,Automatic,main,1,20260219-161751,local,local,750,H,H,A,A,A-H.png,A-H.png,hH,hH,mask-2.png,mask-4.png,h,1,0.33736760006286204,h,1,0.08576290006749332,0.038938699988648295,0.0498533999780193,0.08901350002270192,0.1010289000114426,0.7387910999823362
RSVPLG03,si,20260219-161729,1.0.2,20260219-152011,771,Practice,Both,1,Automatic,main,2,20260219-161755,local,local,750,H,S,A,E,A-H.png,E-S.png,hH,sS,mask-2.png,mask-2.png,h,1,0.34171880001667887,s,1,0.08190690004266798,0.04876450006850064,0.050734100048430264,0.09970200003590435,0.1002544000511989,0.7489311000099406
RSVPLG03,si,20260219-161729,1.0.2,20260219-152011,771,Practice,Both,1,Automatic,main,3,20260219-161800,global,local,300,H,H,E,E,H-E.png,E-H.png,hH,hH,mask-2.png,mask-1.png,h,1,0.8282541000517085,h,1,0.17297160008456558,0.05015799996908754,0.0495371000142768,0.10107450000941753,0.09949980000965297,0.3003393999533728
RSVPLG03,si,20260219-161729,1.0.2,20260219-152011,771,Practice,Both,1,Automatic,main,4,20260219-161805,global,local,750,H,S,A,A,H-A.png,A-S.png,hH,sS,mask-2.png,mask-4.png,h,1,0.6592014000052586,h,0,0.09814999997615814,0.04902589996345341,0.04940250003710389,0.09861789993010461,0.09935709997080266,0.7482409999938682
RSVPLG03,si,20260219-161729,1.0.2,20260219-152011,771,Practice,Both,1,Automatic,main,5,20260219-161810,local,global,300,H,H,A,E,A-H.png,H-E.png,hH,hH,mask-1.png,mask-4.png,h,1,1.0904139999765903,s,0,0.09356850001495332,0.050516000017523766,0.04962519998662174,0.10041150008328259,0.09960329998284578,0.3010054000187665
RSVPLG03,si,20260219-161729,1.0.2,20260219-152011,771,Practice,Both,1,Automatic,main,6,20260219-161815,global,local,750,S,S,E,E,S-E.png,E-S.png,sS,sS,mask-1.png,mask-2.png,s,1,0.3756514999549836,s,1,0.26237210002727807,0.04836210003122687,0.04835669999010861,0.09932669997215271,0.09986560000106692,0.7486734000267461
RSVPLG03,si,20260219-161729,1.0.2,20260219-152011,771,Practice,Both,1,Automatic,main,7,20260219-161820,local,global,300,S,H,E,E,E-S.png,H-E.png,sS,hH,mask-1.png,mask-2.png,s,1,0.8114250000799075,h,1,0.12401849997695535,0.049146799952723086,0.04888400004711002,0.10042449994944036,0.09983880002982914,0.2996358999516815
RSVPLG03,si,20260219-161729,1.0.2,20260219-152011,771,Practice,Both,1,Automatic,main,8,20260219-161825,local,global,750,H,H,A,A,A-H.png,H-A.png,hH,hH,mask-1.png,mask-1.png,h,1,0.8977680000243708,s,0,0.15846629999578,0.05160250002518296,0.0508957999991253,0.09938479994889349,0.10053519997745752,0.7498912999872118
RSVPLG03,si,20260219-161729,1.0.2,20260219-152011,771,Practice,Both,1,Automatic,main,9,20260219-161831,local,local,300,S,S,A,A,A-S.png,A-S.png,sS,sS,mask-3.png,mask-1.png,h,0,0.9556186000118032,s,1,0.007816399913281202,0.04879490006715059,0.05078400007914752,0.10035369999241084,0.09968870005104691,0.2991516999900341
RSVPLG03,si,20260219-161729,1.0.2,20260219-152011,771,Practice,Both,1,Automatic,main,10,20260219-161835,local,local,300,S,S,A,E,A-S.png,E-S.png,sS,sS,mask-1.png,mask-1.png,h,0,0.8832439000252634,s,1,0.21644250000827014,0.0519085000269115,0.04997629998251796,0.10106560005806386,0.10066770005505532,0.3001524000428617
RSVPLG03,si,20260219-161729,1.0.2,20260219-152011,771,Practice,Both,1,Automatic,main,11,20260219-161840,global,local,300,S,S,E,E,S-E.png,E-S.png,sS,sS,mask-3.png,mask-2.png,s,1,0.5276284000137821,s,1,0.17371090000960976,0.05030700005590916,0.049807699979282916,0.09940180007833987,0.09971959993708879,0.2999926001066342
RSVPLG03,si,20260219-161729,1.0.2,20260219-152011,771,Practice,Both,1,Automatic,main,12,20260219-161845,global,global,300,H,H,E,E,H-E.png,H-E.png,hH,hH,mask-4.png,mask-4.png,h,1,0.2429719000356272,h,1,0.10957590001635253,0.05096260004211217,0.05166929995175451,0.0998255000449717,0.10010499996133149,0.29938640003092587
RSVPLG03,si,20260219-161729,1.0.2,20260219-152011,771,Practice,Both,1,Automatic,main,13,20260219-161849,global,global,750,S,H,E,E,S-E.png,H-E.png,sS,hH,mask-2.png,mask-4.png,s,1,0.5808227000525221,h,1,0.1426004000240937,0.04856150003615767,0.05119789997115731,0.0992421000264585,0.10136239998973906,0.7485054000280797
RSVPLG03,si,20260219-161729,1.0.2,20260219-152011,771,Practice,Both,1,Automatic,main,14,20260219-161854,local,global,750,H,H,E,E,E-H.png,H-E.png,hH,hH,mask-3.png,mask-3.png,h,1,0.6630288000451401,s,0,1.4301862000720575,0.05057050008326769,0.05011110007762909,0.09994109999388456,0.0990624000551179,0.7505982000147924
RSVPLG03,si,20260219-161729,1.0.2,20260219-152011,771,Practice,Both,1,Automatic,main,15,20260219-161900,global,global,300,H,S,A,A,H-A.png,S-A.png,hH,sS,mask-1.png,mask-3.png,h,1,0.5516233000671491,s,1,0.014481100020930171,0.04779799992684275,0.05030630005057901,0.0992227999959141,0.10069840005598962,0.29786529997363687
RSVPLG03,si,20260219-161729,1.0.2,20260219-152011,771,Practice,Both,1,Automatic,main,16,20260219-161905,global,global,750,H,S,A,E,H-A.png,S-E.png,hH,sS,mask-2.png,mask-4.png,h,1,0.5507215999532491,s,1,0.11430270003620535,0.050906899967230856,0.0510248999344185,0.09955659997649491,0.09972189995460212,0.7484212999697775
RSVPLG03,si,20260219-162148,1.0.2,20260219-152011,771,Experiment,Both,1,Automatic,warmup,1,20260219-162225,global,local,750,H,H,E,E,H-E.png,E-H.png,hH,hH,mask-3.png,mask-3.png,h,1,0.4462499999208376,s,0,0.16922929999418557,0.04007119999732822,0.05097929993644357,0.09030619997065514,0.09988379990682006,0.738787200069055
RSVPLG03,si,20260219-162148,1.0.2,20260219-152011,771,Experiment,Both,1,Automatic,warmup,2,20260219-162229,global,global,300,H,H,E,A,H-E.png,H-A.png,hH,hH,mask-3.png,mask-2.png,h,1,0.4301390000618994,h,1,0.08142549998592585,0.04914170003030449,0.049637700081802905,0.09925069997552782,0.09899490000680089,0.2985826999647543
RSVPLG03,si,20260219-162148,1.0.2,20260219-152011,771,Experiment,Both,1,Automatic,warmup,3,20260219-162234,local,global,750,H,S,E,E,E-H.png,S-E.png,hH,sS,mask-2.png,mask-1.png,h,1,2.7124241999117658,s,1,0.006478599971160293,0.05006350006442517,0.04838519997429103,0.09887670003809035,0.09930369991343468,0.749030000064522
RSVPLG03,si,20260219-162148,1.0.2,20260219-152011,771,Experiment,Both,1,Automatic,warmup,4,20260219-162241,local,local,750,H,H,E,A,E-H.png,A-H.png,hH,hH,mask-2.png,mask-3.png,h,1,0.2786004999652505,h,1,0.06494730000849813,0.04883220000192523,0.04804059991147369,0.09904400003142655,0.09756019990891218,0.7488935000728816
RSVPLG03,si,20260219-162148,1.0.2,20260219-152011,771,Experiment,Both,1,Automatic,main,5,20260219-162245,global,global,300,S,H,A,E,S-A.png,H-E.png,sS,hH,mask-2.png,mask-4.png,s,1,0.8332285000942647,h,1,0.2540162999648601,0.050302499905228615,0.05066820001229644,0.10094039991963655,0.1004640000173822,0.29959409998264164
RSVPLG03,si,20260219-162148,1.0.2,20260219-152011,771,Experiment,Both,1,Automatic,main,6,20260219-162250,global,local,300,H,S,E,A,H-E.png,A-S.png,hH,sS,mask-2.png,mask-2.png,h,1,0.5790981999598444,s,1,0.9432262999471277,0.04771030007395893,0.048567499965429306,0.0987833000253886,0.09929259994532913,0.2988392000552267
RSVPLG03,si,20260219-162148,1.0.2,20260219-152011,771,Experiment,Both,1,Automatic,main,7,20260219-162255,global,global,300,S,S,E,E,S-E.png,S-E.png,sS,sS,mask-2.png,mask-2.png,s,1,0.43491950002498925,s,1,0.05337970005348325,0.05156859999988228,0.049591500079259276,0.10128669999539852,0.09831410006154329,0.3014986999332905
RSVPLG03,si,20260219-162148,1.0.2,20260219-152011,771,Experiment,Both,1,Automatic,main,8,20260219-162300,local,local,750,S,S,A,E,A-S.png,E-S.png,sS,sS,mask-2.png,mask-1.png,s,1,1.4973709000041708,s,1,0.05351979995612055,0.049509900039993227,0.05008429998997599,0.100048299995251,0.09933899994939566,0.7485309999901801
RSVPLG03,si,20260219-162148,1.0.2,20260219-152011,771,Experiment,Both,1,Automatic,main,9,20260219-162305,local,global,750,H,H,E,A,E-H.png,H-A.png,hH,hH,mask-4.png,mask-1.png,s,0,0.7234797000419348,s,0,0.054462900036014616,0.050074199913069606,0.049666999955661595,0.10018559999298304,0.0993589999852702,0.7490803999826312
RSVPLG03,si,20260219-162148,1.0.2,20260219-152011,771,Experiment,Both,1,Automatic,main,10,20260219-162310,global,global,300,H,H,A,E,H-A.png,H-E.png,hH,hH,mask-4.png,mask-1.png,h,1,0.30081379995681345,h,1,0.062385200057178736,0.04879949998576194,0.05007779994048178,0.09857479995116591,0.09956449992023408,0.29952400003094226
RSVPLG03,si,20260219-162148,1.0.2,20260219-152011,771,Experiment,Both,1,Automatic,main,11,20260219-162314,local,global,300,S,H,E,A,E-S.png,H-A.png,sS,hH,mask-2.png,mask-1.png,s,1,1.7023214999353513,s,0,0.004597900086082518,0.04891250003129244,0.0488219999242574,0.09807209996506572,0.10047409997787327,0.29857730004005134
RSVPLG03,si,20260219-162148,1.0.2,20260219-152011,771,Experiment,Both,1,Automatic,main,12,20260219-162320,global,local,750,S,H,E,E,S-E.png,E-H.png,sS,hH,mask-4.png,mask-1.png,s,1,0.3673523999750614,s,0,0.08607649989426136,0.049815199919976294,0.048592900042422116,0.09976609994191676,0.09805939998477697,0.7494611999718472
RSVPLG03,si,20260219-162148,1.0.2,20260219-152011,771,Experiment,Both,1,Automatic,main,13,20260219-162324,local,global,750,S,S,A,E,A-S.png,S-E.png,sS,sS,mask-1.png,mask-2.png,s,1,0.5760931000113487,s,1,0.07137730007525533,0.049729600083082914,0.04890050005633384,0.09959530003834516,0.10040270001627505,0.7482285000151023
RSVPLG03,si,20260219-162148,1.0.2,20260219-152011,771,Experiment,Both,1,Automatic,main,14,20260219-162329,local,global,300,H,S,E,E,E-H.png,S-E.png,hH,sS,mask-3.png,mask-1.png,h,1,1.086252300068736,s,1,0.2702612999128178,0.05025769991334528,0.05008700001053512,0.09838189999572933,0.09845629998017102,0.29906009999103844
RSVPLG03,si,20260219-162148,1.0.2,20260219-152011,771,Experiment,Both,1,Automatic,main,15,20260219-162334,local,local,750,S,H,A,A,A-S.png,A-H.png,sS,hH,mask-3.png,mask-3.png,s,1,0.6883734000148252,h,1,0.022041600081138313,0.04889450001064688,0.05041880009230226,0.09805349993985146,0.09927550004795194,0.7472065999172628
RSVPLG03,si,20260219-162148,1.0.2,20260219-152011,771,Experiment,Both,1,Automatic,main,16,20260219-162339,global,local,300,S,S,A,A,S-A.png,A-S.png,sS,sS,mask-4.png,mask-1.png,h,0,0.7046876000240445,s,1,0.001455599907785654,0.048560200026258826,0.04909420001786202,0.09945000009611249,0.09842150006443262,0.2991385000059381
RSVPLG03,si,20260219-162148,1.0.2,20260219-152011,771,Experiment,Both,1,Automatic,main,17,20260219-162344,global,local,750,H,S,E,A,H-E.png,A-S.png,hH,sS,mask-3.png,mask-3.png,h,1,0.7758822999894619,h,0,0.20517660002224147,0.04877190000843257,0.049769200035370886,0.09946499997749925,0.09966509998776019,0.7483597999671474
RSVPLG03,si,20260219-162148,1.0.2,20260219-152011,771,Experiment,Both,1,Automatic,main,18,20260219-162349,local,local,750,H,H,E,E,E-H.png,E-H.png,hH,hH,mask-1.png,mask-3.png,h,1,1.3490941999480128,s,0,0.03882000001613051,0.04948819999117404,0.05061330005992204,0.10046599991619587,0.09839880000799894,0.7484460999257863
RSVPLG03,si,20260219-162148,1.0.2,20260219-152011,771,Experiment,Both,1,Automatic,main,19,20260219-162354,local,global,300,H,H,A,A,A-H.png,H-A.png,hH,hH,mask-2.png,mask-1.png,h,1,1.132363299955614,h,1,0.06196970003657043,0.048052199999801815,0.050597800058312714,0.09838109998963773,0.10113840003032237,0.29806349996943027
RSVPLG03,si,20260219-162148,1.0.2,20260219-152011,771,Experiment,Both,1,Automatic,main,20,20260219-162359,global,local,750,H,S,E,E,H-E.png,E-S.png,hH,sS,mask-3.png,mask-4.png,h,1,0.496446399949491,s,1,0.14348440000321716,0.04992450005374849,0.048926200019195676,0.09981710009742528,0.09954780002590269,0.7487395000644028
RSVPLG03,si,20260219-162148,1.0.2,20260219-152011,771,Experiment,Both,1,Automatic,main,21,20260219-162404,global,global,750,H,S,E,E,H-E.png,S-E.png,hH,sS,mask-1.png,mask-3.png,h,1,1.2173027999233454,s,1,0.12222880008630455,0.04870179994031787,0.04855229996610433,0.09886459994595498,0.09950879996176809,0.7487180000171065
RSVPLG03,si,20260219-162148,1.0.2,20260219-152011,771,Experiment,Both,1,Automatic,main,22,20260219-162410,local,local,750,S,S,A,E,A-S.png,E-S.png,sS,sS,mask-1.png,mask-3.png,s,1,0.4684706999687478,s,1,0.048519999952986836,0.050532199908047915,0.04982790001668036,0.09938309993594885,0.10037329990882427,0.7490357999922708
RSVPLG03,si,20260219-162148,1.0.2,20260219-152011,771,Experiment,Both,1,Automatic,main,23,20260219-162414,local,global,750,S,S,A,E,A-S.png,S-E.png,sS,sS,mask-3.png,mask-2.png,s,1,0.759872900089249,s,1,0.06255629996303469,0.04938329989090562,0.051038799923844635,0.09997109998948872,0.10079509997740388,0.748099899967201
RSVPLG03,si,20260219-162148,1.0.2,20260219-152011,771,Experiment,Both,1,Automatic,main,24,20260219-162419,local,global,750,H,H,E,E,E-H.png,H-E.png,hH,hH,mask-1.png,mask-2.png,h,1,0.5758413000730798,s,0,0.0951714999973774,0.0508104000473395,0.05009370006155223,0.10076130006927997,0.09980950003955513,0.7498304999899119
RSVPLG03,si,20260219-162148,1.0.2,20260219-152011,771,Experiment,Both,1,Automatic,main,25,20260219-162424,global,local,750,H,S,A,A,H-A.png,A-S.png,hH,sS,mask-4.png,mask-4.png,h,1,0.6669212999986485,s,1,0.14177929994184524,0.05000209994614124,0.05081620009150356,0.09950289991684258,0.10038469999562949,0.7483665999025106
RSVPLG03,si,20260219-162148,1.0.2,20260219-152011,771,Experiment,Both,1,Automatic,main,26,20260219-162441,global,global,300,S,H,A,E,S-A.png,H-E.png,sS,hH,mask-2.png,mask-3.png,s,1,0.6250971000408754,h,1,0.2705597000895068,0.04890050005633384,0.04905160004273057,0.10049860004801303,0.10146300005726516,0.2993805999867618
RSVPLG03,si,20260219-162148,1.0.2,20260219-152011,771,Experiment,Both,1,Automatic,main,27,20260219-162445,global,local,300,H,S,A,A,H-A.png,A-S.png,hH,sS,mask-1.png,mask-4.png,h,1,0.5850333999842405,h,0,0.05597470002248883,0.049476000014692545,0.05102319992147386,0.10171389998868108,0.100446299999021,0.2986733000725508
RSVPLG03,si,20260219-162148,1.0.2,20260219-152011,771,Experiment,Both,1,Automatic,main,28,20260219-162449,global,local,300,H,S,E,E,H-E.png,E-S.png,hH,sS,mask-4.png,mask-4.png,s,0,2.652145699947141,h,0,0.02247289998922497,0.0493704000255093,0.04992140003014356,0.10005779995117337,0.09985999995842576,0.30028079997282475
RSVPLG03,si,20260219-162148,1.0.2,20260219-152011,771,Experiment,Both,1,Automatic,main,29,20260219-162456,local,local,750,H,S,A,A,A-H.png,A-S.png,hH,sS,mask-2.png,mask-4.png,h,1,0.8623198999557644,s,1,0.05065480002667755,0.04934210004284978,0.051687999977730215,0.10064419999253005,0.10175059991888702,0.7485359000274912
RSVPLG03,si,20260219-162148,1.0.2,20260219-152011,771,Experiment,Both,1,Automatic,main,30,20260219-162501,local,global,300,H,S,E,A,E-H.png,S-A.png,hH,sS,mask-4.png,mask-3.png,h,1,0.6869370000204071,s,1,0.07783339999150485,0.05135229998268187,0.049295300035737455,0.09993240004405379,0.1006979999365285,0.30024110001977533
RSVPLG03,si,20260219-162148,1.0.2,20260219-152011,771,Experiment,Both,1,Automatic,main,31,20260219-162505,local,global,300,H,H,A,E,A-H.png,H-E.png,hH,hH,mask-2.png,mask-1.png,h,1,0.9019048999762163,h,1,0.0656845000339672,0.04830959998071194,0.049486399977467954,0.09953550004865974,0.09960019995924085,0.2985630000475794
RSVPLG03,si,20260219-162148,1.0.2,20260219-152011,771,Experiment,Both,1,Automatic,main,32,20260219-162510,global,global,750,S,S,A,A,S-A.png,S-A.png,sS,sS,mask-3.png,mask-1.png,s,1,0.5067664999514818,s,1,0.05720579996705055,0.05010530003346503,0.0503162998938933,0.10052330000326037,0.09971109998878092,0.7479958001058549
RSVPLG03,si,20260219-162148,1.0.2,20260219-152011,771,Experiment,Both,1,Automatic,main,33,20260219-162515,local,global,300,S,H,A,E,A-S.png,H-E.png,sS,hH,mask-3.png,mask-2.png,s,1,0.6485348000423983,h,1,0.04052219993900508,0.049437299952842295,0.04846199997700751,0.09961679996922612,0.09971049998421222,0.3005215999437496
RSVPLG03,si,20260219-162148,1.0.2,20260219-152011,771,Experiment,Both,1,Automatic,main,34,20260219-162519,local,local,300,S,S,A,A,A-S.png,A-S.png,sS,sS,mask-4.png,mask-1.png,s,1,0.5970205999910831,s,1,0.07242469990160316,0.04910790000576526,0.048557300004176795,0.09872179990634322,0.09811659995466471,0.29970550001598895
RSVPLG03,si,20260219-162148,1.0.2,20260219-152011,771,Experiment,Both,1,Automatic,main,35,20260219-162523,local,local,300,S,S,A,E,A-S.png,E-S.png,sS,sS,mask-3.png,mask-3.png,s,1,0.8535264000529423,h,0,0.009260699967853725,0.04934669996146113,0.04960150003898889,0.09983840002678335,0.09932109992951155,0.30068470002152026
RSVPLG03,si,20260219-162148,1.0.2,20260219-152011,771,Experiment,Both,1,Automatic,main,36,20260219-162528,global,local,300,H,H,E,E,H-E.png,E-H.png,hH,hH,mask-4.png,mask-1.png,h,1,0.5600417000241578,s,0,0.6857966999523342,0.04897439992055297,0.05032529996242374,0.09979799995198846,0.10011260001920164,0.29922639997676015
RSVPLG03,si,20260219-162148,1.0.2,20260219-152011,771,Experiment,Both,1,Automatic,main,37,20260219-162533,global,local,750,H,H,A,E,H-A.png,E-H.png,hH,hH,mask-2.png,mask-2.png,h,1,0.7151533999713138,s,0,0.08772159996442497,0.05081569997128099,0.049401800031773746,0.10086119989864528,0.09945740003604442,0.74874969990924
RSVPLG03,si,20260219-162148,1.0.2,20260219-152011,771,Experiment,Both,1,Automatic,main,38,20260219-162538,local,local,300,H,H,E,A,E-H.png,A-H.png,hH,hH,mask-3.png,mask-3.png,s,0,0.9221989000216126,s,0,0.05470820004120469,0.048967599985189736,0.04884519998449832,0.09906100004445761,0.10055450000800192,0.2986526000313461
RSVPLG03,si,20260219-162148,1.0.2,20260219-152011,771,Experiment,Both,1,Automatic,main,39,20260219-162543,global,global,750,S,S,E,A,S-E.png,S-A.png,sS,sS,mask-2.png,mask-2.png,s,1,0.3074971999740228,s,1,0.06605819996912032,0.05039640003815293,0.05072369996923953,0.10018920002039522,0.09991640003863722,0.7480454000178725
RSVPLG03,si,20260219-162148,1.0.2,20260219-152011,771,Experiment,Both,1,Automatic,main,40,20260219-162547,local,local,300,H,H,A,E,A-H.png,E-H.png,hH,hH,mask-3.png,mask-2.png,h,1,1.1596863999729976,s,0,0.05441340000834316,0.04982800001744181,0.05012600007466972,0.10038139997050166,0.10182040010113269,0.29841189994476736
RSVPLG03,si,20260219-162148,1.0.2,20260219-152011,771,Experiment,Both,1,Automatic,main,41,20260219-162552,local,local,750,S,H,E,A,E-S.png,A-H.png,sS,hH,mask-4.png,mask-1.png,s,1,0.4538254999788478,h,1,0.03713760001119226,0.050594500033184886,0.04769539996050298,0.10021960001904517,0.09763490001205355,0.7502208000514656
RSVPLG03,si,20260219-162148,1.0.2,20260219-152011,771,Experiment,Both,1,Automatic,main,42,20260219-162557,global,local,750,H,S,E,A,H-E.png,A-S.png,hH,sS,mask-2.png,mask-2.png,h,1,0.4882976000662893,h,0,0.045469500008039176,0.04945769999176264,0.04709459992591292,0.09878329990897328,0.09803699993062764,0.7487617000006139
RSVPLG03,si,20260219-162148,1.0.2,20260219-152011,771,Experiment,Both,1,Automatic,main,43,20260219-162601,global,local,750,H,H,A,A,H-A.png,A-H.png,hH,hH,mask-4.png,mask-3.png,h,1,0.9290294999955222,h,1,0.333282700041309,0.04901139996945858,0.04834300000220537,0.09956409991718829,0.09903759998269379,0.7501709000207484
RSVPLG03,si,20260219-162148,1.0.2,20260219-152011,771,Experiment,Both,1,Automatic,main,44,20260219-162606,local,global,750,H,S,E,A,E-H.png,S-A.png,hH,sS,mask-3.png,mask-3.png,h,1,0.4510735999792814,s,1,0.002487399964593351,0.050169299938715994,0.05059560004156083,0.09973879996687174,0.10029219998978078,0.748279899940826
RSVPLG03,si,20260219-162148,1.0.2,20260219-152011,771,Experiment,Both,1,Automatic,main,45,20260219-162611,global,local,300,H,H,E,E,H-E.png,E-H.png,hH,hH,mask-2.png,mask-1.png,h,1,0.6249285000376403,s,0,0.007160900044254959,0.04884599999058992,0.04909289989154786,0.0984800000442192,0.09872029989492148,0.2992350000422448
RSVPLG03,si,20260219-162148,1.0.2,20260219-152011,771,Experiment,Both,1,Automatic,main,46,20260219-162615,local,local,750,S,H,E,E,E-S.png,E-H.png,sS,hH,mask-3.png,mask-2.png,s,1,0.8937062000622973,s,0,0.05475709994789213,0.050474900053814054,0.04899350006598979,0.10010240005794913,0.10033050004858524,0.7505160999717191
RSVPLG03,si,20260219-162148,1.0.2,20260219-152011,771,Experiment,Both,1,Automatic,main,47,20260219-162620,local,global,750,H,S,A,A,A-H.png,S-A.png,hH,sS,mask-3.png,mask-2.png,h,1,0.564343599951826,s,1,0.024265300016850233,0.05022630002349615,0.05123189999721944,0.0985613000812009,0.09948209999129176,0.7486477000638843
RSVPLG03,si,20260219-162148,1.0.2,20260219-152011,771,Experiment,Both,1,Automatic,main,48,20260219-162625,local,global,750,H,S,E,E,E-H.png,S-E.png,hH,sS,mask-4.png,mask-1.png,s,0,0.9306727999355644,s,1,0.07094919995870441,0.0488368000369519,0.05095629999414086,0.09885469998698682,0.09877929999493062,0.7477144000586122
RSVPLG03,si,20260219-162148,1.0.2,20260219-152011,771,Experiment,Both,1,Automatic,main,49,20260219-162630,local,global,300,H,H,E,A,E-H.png,H-A.png,hH,hH,mask-2.png,mask-1.png,s,0,1.1804283999372274,h,1,0.01284829992800951,0.05069559998810291,0.04955830005928874,0.10075639991555363,0.10091989999637008,0.2989575999090448
RSVPLG03,si,20260219-162148,1.0.2,20260219-152011,771,Experiment,Both,1,Automatic,main,50,20260219-162635,global,global,300,H,S,E,A,H-E.png,S-A.png,hH,sS,mask-3.png,mask-4.png,h,1,0.5100153000093997,s,1,8.759996853768826e-05,0.04927770001813769,0.04940570006147027,0.0995813999325037,0.09928790002595633,0.2989736999152228
RSVPLG03,si,20260219-162148,1.0.2,20260219-152011,771,Experiment,Both,1,Automatic,main,51,20260219-162706,global,global,300,S,S,E,E,S-E.png,S-E.png,sS,sS,mask-2.png,mask-4.png,s,1,0.4404468999709934,s,1,0.031170699978247285,0.05049319996032864,0.05081789998803288,0.10031909996178001,0.1006711000809446,0.30070989998057485
RSVPLG03,si,20260219-162148,1.0.2,20260219-152011,771,Experiment,Both,1,Automatic,main,52,20260219-162710,global,local,300,S,H,E,A,S-E.png,A-H.png,sS,hH,mask-3.png,mask-1.png,s,1,0.6117544000735506,s,0,0.0860511000500992,0.050899900030344725,0.04953439999371767,0.09976749995257705,0.099167300038971,0.3003540999488905
RSVPLG03,si,20260219-162148,1.0.2,20260219-152011,771,Experiment,Both,1,Automatic,main,53,20260219-162714,local,local,300,H,S,A,A,A-H.png,A-S.png,hH,sS,mask-1.png,mask-1.png,h,1,0.7354655000381172,h,0,0.06338419998064637,0.04991349996998906,0.051301400060765445,0.10031129990238696,0.10003219998907298,0.2984391999198124
RSVPLG03,si,20260219-162148,1.0.2,20260219-152011,771,Experiment,Both,1,Automatic,main,54,20260219-162719,global,global,750,H,S,E,E,H-E.png,S-E.png,hH,sS,mask-1.png,mask-1.png,h,1,0.5162357999943197,s,1,0.02331590000540018,0.04999939992558211,0.05060590000357479,0.09885049995500594,0.10075490002054721,0.7480514999479055
RSVPLG03,si,20260219-162148,1.0.2,20260219-152011,771,Experiment,Both,1,Automatic,main,55,20260219-162723,global,global,750,S,H,E,E,S-E.png,H-E.png,sS,hH,mask-3.png,mask-1.png,s,1,0.6352382999612018,h,1,0.053676500101573765,0.048886400065384805,0.04971409996505827,0.09881880006287247,0.10057839995715767,0.7486516000935808
RSVPLG03,si,20260219-162148,1.0.2,20260219-152011,771,Experiment,Both,1,Automatic,main,56,20260219-162728,global,global,750,H,H,E,A,H-E.png,H-A.png,hH,hH,mask-1.png,mask-4.png,h,1,0.43651240004692227,h,1,0.05616280005779117,0.05008449999149889,0.050843600067310035,0.10098409990314394,0.10057460004463792,0.7486765999346972
RSVPLG03,si,20260219-162148,1.0.2,20260219-152011,771,Experiment,Both,1,Automatic,main,57,20260219-162733,local,global,750,S,S,E,E,E-S.png,S-E.png,sS,sS,mask-3.png,mask-3.png,s,1,0.6678600000450388,s,1,0.04533100000116974,0.048397199949249625,0.05011360009666532,0.09996939997654408,0.10070150007959455,0.7480913999024779
RSVPLG03,si,20260219-162148,1.0.2,20260219-152011,771,Experiment,Both,1,Automatic,main,58,20260219-162737,global,local,300,H,S,A,A,H-A.png,A-S.png,hH,sS,mask-2.png,mask-2.png,h,1,0.5451224999269471,h,0,0.05707470001652837,0.05078839999623597,0.0500393999973312,0.10006170009728521,0.09975479997228831,0.2998335000593215
RSVPLG03,si,20260219-162148,1.0.2,20260219-152011,771,Experiment,Both,1,Automatic,main,59,20260219-162742,global,local,750,S,S,A,E,S-A.png,E-S.png,sS,sS,mask-2.png,mask-1.png,s,1,1.1758173999842256,s,1,0.04051459999755025,0.05142199993133545,0.05076739995274693,0.10006129997782409,0.10024549998342991,0.7493747000116855
RSVPLG03,si,20260219-162148,1.0.2,20260219-152011,771,Experiment,Both,1,Automatic,main,60,20260219-162747,global,global,300,S,H,A,A,S-A.png,H-A.png,sS,hH,mask-1.png,mask-4.png,s,1,0.4652029999997467,h,1,0.057328299968503416,0.05095990002155304,0.04898210009559989,0.09957199997734278,0.09991340001579374,0.3005530999507755
RSVPLG03,si,20260219-162148,1.0.2,20260219-152011,771,Experiment,Both,1,Automatic,main,61,20260219-162751,local,local,750,S,H,A,E,A-S.png,E-H.png,sS,hH,mask-4.png,mask-1.png,s,1,0.6545878999168053,h,1,0.6952502999920398,0.049841700005345047,0.049281699932180345,0.10090110008604825,0.10024219995830208,0.7484635000582784
RSVPLG03,si,20260219-162148,1.0.2,20260219-152011,771,Experiment,Both,1,Automatic,main,62,20260219-162757,local,global,300,S,H,A,E,A-S.png,H-E.png,sS,hH,mask-1.png,mask-2.png,h,0,1.1816632999107242,h,1,0.05372399999760091,0.05059649993199855,0.05060119996778667,0.09933759993873537,0.09988310001790524,0.2993919999571517
RSVPLG03,si,20260219-162148,1.0.2,20260219-152011,771,Experiment,Both,1,Automatic,main,63,20260219-162802,global,global,750,S,S,E,E,S-E.png,S-E.png,sS,sS,mask-1.png,mask-4.png,s,1,0.5256715998984873,s,1,0.0336947999894619,0.0490785000147298,0.04990310000721365,0.09934509999584407,0.1006276000989601,0.7484331999439746
RSVPLG03,si,20260219-162148,1.0.2,20260219-152011,771,Experiment,Both,1,Automatic,main,64,20260219-162806,global,global,750,S,H,E,E,S-E.png,H-E.png,sS,hH,mask-1.png,mask-3.png,h,0,0.48511580005288124,h,1,1.5843862000619993,0.05007229989860207,0.05055719998199493,0.10026420000940561,0.09989700000733137,0.7475136999273673
RSVPLG03,si,20260219-162148,1.0.2,20260219-152011,771,Experiment,Both,1,Automatic,main,65,20260219-162812,local,global,750,S,S,E,A,E-S.png,S-A.png,sS,sS,mask-3.png,mask-4.png,s,1,0.8281908000353724,s,1,0.039252599934116006,0.049972099950537086,0.05044659995473921,0.10101069998927414,0.10010159993544221,0.7487741999793798
RSVPLG03,si,20260219-162148,1.0.2,20260219-152011,771,Experiment,Both,1,Automatic,main,66,20260219-162817,local,local,750,S,S,A,A,A-S.png,A-S.png,sS,sS,mask-1.png,mask-4.png,h,0,1.0425017999950796,s,1,0.015719000017270446,0.0496352999471128,0.04960829997435212,0.09940089995507151,0.09934459999203682,0.7477707000216469
RSVPLG03,si,20260219-162148,1.0.2,20260219-152011,771,Experiment,Both,1,Automatic,main,67,20260219-162823,local,local,750,S,S,E,E,E-S.png,E-S.png,sS,sS,mask-3.png,mask-2.png,s,1,0.5531811999389902,s,1,0.03857640002388507,0.04974519996903837,0.050572500098496675,0.09885900001972914,0.10006010008510202,0.7476113999728113
RSVPLG03,si,20260219-162148,1.0.2,20260219-152011,771,Experiment,Both,1,Automatic,main,68,20260219-162827,local,local,300,S,S,E,E,E-S.png,E-S.png,sS,sS,mask-4.png,mask-2.png,s,1,0.5386762999696657,s,1,0.06285440002102405,0.05012320005334914,0.04953279998153448,0.0993474000133574,0.09901640005409718,0.2987999999895692
RSVPLG03,si,20260219-162148,1.0.2,20260219-152011,771,Experiment,Both,1,Automatic,main,69,20260219-162831,local,local,300,S,S,A,A,A-S.png,A-S.png,sS,sS,mask-4.png,mask-1.png,s,1,1.072461000061594,h,0,0.0072055000346153975,0.04865420004352927,0.04877829994075,0.0988074999768287,0.09875809994991869,0.30037670000456274
RSVPLG03,si,20260219-162148,1.0.2,20260219-152011,771,Experiment,Both,1,Automatic,main,70,20260219-162836,global,local,300,S,S,E,A,S-E.png,A-S.png,sS,sS,mask-4.png,mask-4.png,s,1,0.4421283000847325,s,1,0.04742309998255223,0.0493120999308303,0.049932199995964766,0.09974919992964715,0.10038259997963905,0.29858689999673516
RSVPLG03,si,20260219-162148,1.0.2,20260219-152011,771,Experiment,Both,1,Automatic,main,71,20260219-162840,local,local,300,S,S,E,A,E-S.png,A-S.png,sS,sS,mask-2.png,mask-4.png,s,1,0.6425377000123262,s,1,0.15138199995271862,0.04937160003464669,0.04908699996303767,0.10095100000035018,0.09987070003990084,0.2995208000065759
RSVPLG03,si,20260219-162148,1.0.2,20260219-152011,771,Experiment,Both,1,Automatic,main,72,20260219-162845,local,global,300,H,H,A,E,A-H.png,H-E.png,hH,hH,mask-2.png,mask-3.png,h,1,0.7773325999733061,s,0,0.028613099944777787,0.04864839999936521,0.050804800004698336,0.09911800001282245,0.0991837999317795,0.29931260005105287
RSVPLG03,si,20260219-162148,1.0.2,20260219-152011,771,Experiment,Both,1,Automatic,main,73,20260219-162849,global,local,750,H,S,A,E,H-A.png,E-S.png,hH,sS,mask-3.png,mask-2.png,h,1,1.0418095000786707,h,0,0.40108469990082085,0.049099700059741735,0.04963050002697855,0.09899160009808838,0.09990679996553808,0.749092600075528
RSVPLG03,si,20260219-162148,1.0.2,20260219-152011,771,Experiment,Both,1,Automatic,main,74,20260219-162855,local,global,300,S,S,A,A,A-S.png,S-A.png,sS,sS,mask-4.png,mask-3.png,h,0,0.9018301999894902,s,1,0.11494739993941039,0.05061370006296784,0.05094949994236231,0.10126000002492219,0.10097989998757839,0.29980690008960664
RSVPLG03,si,20260219-162148,1.0.2,20260219-152011,771,Experiment,Both,1,Automatic,main,75,20260219-162900,global,local,300,H,S,A,A,H-A.png,A-S.png,hH,sS,mask-1.png,mask-2.png,h,1,0.6718562999740243,h,0,0.0627640999155119,0.04884529998525977,0.05051290011033416,0.09973439993336797,0.09975430008489639,0.2995511998888105
RSVPLG03,si,20260219-162148,1.0.2,20260219-152011,771,Experiment,Both,1,Automatic,main,76,20260219-162912,global,global,750,S,S,A,A,S-A.png,S-A.png,sS,sS,mask-4.png,mask-3.png,s,1,0.3339411000488326,s,1,0.04866359999869019,0.04889179999008775,0.050667200004681945,0.10087890003342181,0.10040580003987998,0.7484790999442339
RSVPLG03,si,20260219-162148,1.0.2,20260219-152011,771,Experiment,Both,1,Automatic,main,77,20260219-162917,local,local,750,S,S,A,A,A-S.png,A-S.png,sS,sS,mask-4.png,mask-2.png,h,0,0.7347713999915868,h,0,0.04655790003016591,0.05069289996754378,0.051004599896259606,0.10000119998585433,0.10013059992343187,0.749349300051108
RSVPLG03,si,20260219-162148,1.0.2,20260219-152011,771,Experiment,Both,1,Automatic,main,78,20260219-162921,global,local,750,H,H,A,A,H-A.png,A-H.png,hH,hH,mask-2.png,mask-1.png,h,1,1.2947594999568537,s,0,0.7728725000051782,0.04998190002515912,0.0509582000086084,0.1000676000257954,0.09932030003983527,0.7479475999716669
RSVPLG03,si,20260219-162148,1.0.2,20260219-152011,771,Experiment,Both,1,Automatic,main,79,20260219-162928,global,local,750,S,H,A,A,S-A.png,A-H.png,sS,hH,mask-1.png,mask-4.png,s,1,0.5546336999395862,h,1,0.09711660002358258,0.0503317000111565,0.04929800005629659,0.09991310001350939,0.09914720000233501,0.7495255999965593
RSVPLG03,si,20260219-162148,1.0.2,20260219-152011,771,Experiment,Both,1,Automatic,main,80,20260219-162933,local,global,300,S,S,E,A,E-S.png,S-A.png,sS,sS,mask-4.png,mask-1.png,s,1,0.6908519000280648,h,0,0.01902240002527833,0.05065620003733784,0.04917750007007271,0.10000099998433143,0.09947999997530133,0.3002369999885559
RSVPLG03,si,20260219-162148,1.0.2,20260219-152011,771,Experiment,Both,1,Automatic,main,81,20260219-162937,global,global,750,S,H,A,A,S-A.png,H-A.png,sS,hH,mask-1.png,mask-4.png,s,1,0.5208784000715241,h,1,0.19030200003180653,0.05084209993947297,0.04766310006380081,0.10067720001097769,0.0980633000144735,0.7498513999162242
RSVPLG03,si,20260219-162148,1.0.2,20260219-152011,771,Experiment,Both,1,Automatic,main,82,20260219-162942,local,local,300,S,S,E,E,E-S.png,E-S.png,sS,sS,mask-3.png,mask-3.png,s,1,0.573990699951537,s,1,0.05325210001319647,0.05040249996818602,0.05057930003385991,0.10018589999526739,0.0992494000820443,0.29970719991251826
RSVPLG03,si,20260219-162148,1.0.2,20260219-152011,771,Experiment,Both,1,Automatic,main,83,20260219-162947,global,local,300,S,S,A,A,S-A.png,A-S.png,sS,sS,mask-1.png,mask-4.png,s,1,0.8590453000506386,h,0,0.1335388000588864,0.04947950004134327,0.04946469992864877,0.10026129998732358,0.10021980002056807,0.2998719000024721
RSVPLG03,si,20260219-162148,1.0.2,20260219-152011,771,Experiment,Both,1,Automatic,main,84,20260219-162951,local,global,750,H,H,A,A,A-H.png,H-A.png,hH,hH,mask-4.png,mask-2.png,h,1,0.35036389995366335,h,1,0.0897597000002861,0.050314699998125434,0.049871700000949204,0.09890310000628233,0.09993449994362891,0.7498441999778152
RSVPLG03,si,20260219-162148,1.0.2,20260219-152011,771,Experiment,Both,1,Automatic,main,85,20260219-162956,local,global,750,S,S,A,E,A-S.png,S-E.png,sS,sS,mask-4.png,mask-1.png,s,1,1.267150399973616,h,0,0.08851640007924289,0.049289199989289045,0.05122929997742176,0.09900990000460297,0.10192679997999221,0.7476769000058994
RSVPLG03,si,20260219-162148,1.0.2,20260219-152011,771,Experiment,Both,1,Automatic,main,86,20260219-163002,global,global,750,H,S,A,A,H-A.png,S-A.png,hH,sS,mask-2.png,mask-3.png,h,1,0.6809768999228254,s,1,0.1661731000058353,0.050421099993400276,0.048478599986992776,0.10022470005787909,0.09828229993581772,0.7516931000864133
RSVPLG03,si,20260219-162148,1.0.2,20260219-152011,771,Experiment,Both,1,Automatic,main,87,20260219-163007,local,local,750,H,S,E,E,E-H.png,E-S.png,hH,sS,mask-2.png,mask-4.png,h,1,0.4442056999541819,s,1,0.09574189991690218,0.050581400049850345,0.04877550003584474,0.10040850006043911,0.09976250003091991,0.7508088999893516
RSVPLG03,si,20260219-162148,1.0.2,20260219-152011,771,Experiment,Both,1,Automatic,main,88,20260219-163011,global,global,300,S,H,A,E,S-A.png,H-E.png,sS,hH,mask-2.png,mask-1.png,s,1,0.6317406999878585,h,1,0.12675279995892197,0.05011329997796565,0.050521799945272505,0.10122219996992499,0.10048449994064867,0.3005735999904573
RSVPLG03,si,20260219-162148,1.0.2,20260219-152011,771,Experiment,Both,1,Automatic,main,89,20260219-163016,global,local,750,S,S,E,A,S-E.png,A-S.png,sS,sS,mask-1.png,mask-2.png,s,1,1.8282901999773458,s,1,0.09518179995939136,0.04938800004310906,0.048926200019195676,0.10093120008241385,0.09988280001562089,0.750164300086908
RSVPLG03,si,20260219-162148,1.0.2,20260219-152011,771,Experiment,Both,1,Automatic,main,90,20260219-163022,local,local,300,S,H,A,E,A-S.png,E-H.png,sS,hH,mask-4.png,mask-1.png,s,1,0.8811600999906659,h,1,0.09757750004064292,0.048707400099374354,0.049751399899832904,0.09963810001499951,0.09955769998487085,0.2993659001076594
RSVPLG03,si,20260219-162148,1.0.2,20260219-152011,771,Experiment,Both,1,Automatic,main,91,20260219-163027,global,global,300,S,H,E,A,S-E.png,H-A.png,sS,hH,mask-3.png,mask-3.png,s,1,0.5885242000222206,h,1,0.14284670003689826,0.04849640000611544,0.04950349999126047,0.09914509998634458,0.09975930000655353,0.2993993000127375
RSVPLG03,si,20260219-162148,1.0.2,20260219-152011,771,Experiment,Both,1,Automatic,main,92,20260219-163031,global,local,300,H,H,E,E,H-E.png,E-H.png,hH,hH,mask-1.png,mask-1.png,h,1,0.5881250998936594,s,0,0.2628484999295324,0.05148889997508377,0.04766649997327477,0.10208790004253387,0.09764040005393326,0.3021352000068873
RSVPLG03,si,20260219-162148,1.0.2,20260219-152011,771,Experiment,Both,1,Automatic,main,93,20260219-163036,global,global,750,S,S,A,E,S-A.png,S-E.png,sS,sS,mask-2.png,mask-3.png,s,1,0.40745080006308854,s,1,0.057257400010712445,0.05270100000780076,0.051192999933846295,0.10136279999278486,0.10083109990227968,0.7491792000364512
RSVPLG03,si,20260219-162148,1.0.2,20260219-152011,771,Experiment,Both,1,Automatic,main,94,20260219-163040,global,global,300,S,S,E,E,S-E.png,S-E.png,sS,sS,mask-1.png,mask-3.png,s,1,0.42681209999136627,s,1,0.0570619999198243,0.0501444999827072,0.05036910006310791,0.0993512999266386,0.1006760000018403,0.29902029992081225
RSVPLG03,si,20260219-162148,1.0.2,20260219-152011,771,Experiment,Both,1,Automatic,main,95,20260219-163045,local,local,300,H,H,A,A,A-H.png,A-H.png,hH,hH,mask-2.png,mask-2.png,h,1,0.3778736999956891,h,1,0.07379699999000877,0.05046619998756796,0.04943789995741099,0.10062529996503145,0.09956350002903491,0.29947660001926124
RSVPLG03,si,20260219-162148,1.0.2,20260219-152011,771,Experiment,Both,1,Automatic,main,96,20260219-163049,global,global,300,S,H,A,A,S-A.png,H-A.png,sS,hH,mask-4.png,mask-1.png,s,1,0.47558050008956343,h,1,0.06112670002039522,0.049499399960041046,0.04946000000927597,0.09878000000026077,0.09969100006856024,0.29877659992780536
RSVPLG03,si,20260219-162148,1.0.2,20260219-152011,771,Experiment,Both,1,Automatic,main,97,20260219-163053,local,global,300,S,S,E,A,E-S.png,S-A.png,sS,sS,mask-1.png,mask-1.png,s,1,1.523619299987331,h,0,0.12661399994976819,0.04871400003321469,0.05043200007639825,0.09858089999761432,0.09940449998248369,0.2981914000120014
RSVPLG03,si,20260219-162148,1.0.2,20260219-152011,771,Experiment,Both,1,Automatic,main,98,20260219-163058,local,local,300,S,H,E,E,E-S.png,E-H.png,sS,hH,mask-3.png,mask-1.png,s,1,0.4789762001018971,h,1,0.07826689991634339,0.04994279996026307,0.0501209000358358,0.10089380003046244,0.09842349996324629,0.3005735999904573
RSVPLG03,si,20260219-162148,1.0.2,20260219-152011,771,Experiment,Both,1,Automatic,main,99,20260219-163103,local,global,750,S,H,E,E,E-S.png,H-E.png,sS,hH,mask-3.png,mask-3.png,s,1,0.5089136000024155,s,0,0.07047069992404431,0.04997460008598864,0.04884139995556325,0.10020090010948479,0.09931830002460629,0.7486508000874892
RSVPLG03,si,20260219-162148,1.0.2,20260219-152011,771,Experiment,Both,1,Automatic,main,100,20260219-163108,global,global,300,S,S,A,A,S-A.png,S-A.png,sS,sS,mask-1.png,mask-2.png,s,1,0.3355150999268517,s,1,0.04357390000950545,0.05164310010150075,0.05034509999677539,0.10022780008148402,0.09979719994589686,0.29989450005814433
RSVPLG03,si,20260219-163153,1.0.2,20260219-152011,771,Experiment,Both,1,Automatic,warmup,1,20260219-163223,local,global,750,S,H,E,E,E-S.png,H-E.png,sS,hH,mask-1.png,mask-1.png,s,1,0.45827529998496175,s,0,0.04750630003400147,0.040494399960152805,0.04910160007420927,0.0912555999821052,0.0997517000650987,0.7420765999704599
RSVPLG03,si,20260219-163153,1.0.2,20260219-152011,771,Experiment,Both,1,Automatic,warmup,2,20260219-163227,global,local,300,S,S,E,E,S-E.png,E-S.png,sS,sS,mask-3.png,mask-1.png,s,1,0.2626689999597147,s,1,0.009690399980172515,0.049800700042396784,0.04874460003338754,0.09968470002058893,0.09860330005176365,0.3015486999647692
RSVPLG03,si,20260219-163153,1.0.2,20260219-152011,771,Experiment,Both,1,Automatic,warmup,3,20260219-163231,global,local,750,H,H,A,E,H-A.png,E-H.png,hH,hH,mask-3.png,mask-1.png,h,1,0.5457986000692472,s,0,0.5025396000128239,0.05084100004751235,0.05077149998396635,0.10082320007495582,0.09857839997857809,0.7499687999952585
RSVPLG03,si,20260219-163153,1.0.2,20260219-152011,771,Experiment,Both,1,Automatic,warmup,4,20260219-163236,local,local,750,S,S,E,A,E-S.png,A-S.png,sS,sS,mask-4.png,mask-2.png,s,1,0.28728169994428754,s,1,0.05231990001630038,0.05169330001808703,0.050047499942593277,0.10222889995202422,0.10114829998929054,0.7500316000077873
RSVPLG03,si,20260219-163153,1.0.2,20260219-152011,771,Experiment,Both,1,Automatic,main,5,20260219-163241,global,global,300,H,H,A,E,H-A.png,H-E.png,hH,hH,mask-3.png,mask-1.png,h,1,0.29274309996981174,h,1,0.056271899957209826,0.0509153000311926,0.04775390005670488,0.10062969999853522,0.09992700000293553,0.30032649997156113
RSVPLG03,si,20260219-163153,1.0.2,20260219-152011,771,Experiment,Both,1,Automatic,main,6,20260219-163245,global,local,750,H,H,E,E,H-E.png,E-H.png,hH,hH,mask-4.png,mask-2.png,h,1,1.0443354999879375,s,0,0.14614620001520962,0.04892890003975481,0.05103839992079884,0.10019050003029406,0.10085659998003393,0.7490793000906706
RSVPLG03,si,20260219-163153,1.0.2,20260219-152011,771,Experiment,Both,1,Automatic,main,7,20260219-163250,global,global,750,S,S,E,A,S-E.png,S-A.png,sS,sS,mask-2.png,mask-2.png,s,1,0.24930469994433224,s,1,0.06382249994203448,0.05059489991981536,0.04905190004501492,0.10130449989810586,0.09939190000295639,0.7504827999509871
RSVPLG03,si,20260219-163153,1.0.2,20260219-152011,771,Experiment,Both,1,Automatic,main,8,20260219-163255,local,local,300,S,S,E,A,E-S.png,A-S.png,sS,sS,mask-3.png,mask-2.png,s,1,0.6016526999883354,s,1,0.05547280004248023,0.04818809998687357,0.048918699962086976,0.09963359998073429,0.09906509995926172,0.30002650001551956
RSVPLG03,si,20260219-163153,1.0.2,20260219-152011,771,Experiment,Both,1,Automatic,main,9,20260219-163259,local,global,750,H,S,A,E,A-H.png,S-E.png,hH,sS,mask-2.png,mask-2.png,h,1,0.6011695000343025,h,0,0.04402839997783303,0.04992999997921288,0.04902499995660037,0.09948549990076572,0.10027709999121726,0.7496782999951392
RSVPLG03,si,20260219-163153,1.0.2,20260219-152011,771,Experiment,Both,1,Automatic,main,10,20260219-163304,local,global,300,S,S,E,E,E-S.png,S-E.png,sS,sS,mask-3.png,mask-4.png,s,1,0.6721388000296429,s,1,0.04567979997955263,0.04880220000632107,0.04957140004262328,0.09932569996453822,0.10082300007343292,0.29934189992491156
RSVPLG03,si,20260219-163153,1.0.2,20260219-152011,771,Experiment,Both,1,Automatic,main,11,20260219-163308,local,local,750,H,S,A,E,A-H.png,E-S.png,hH,sS,mask-1.png,mask-2.png,h,1,0.41699139995034784,s,1,0.023955199983902276,0.0511875000083819,0.05089740001130849,0.09952719998545945,0.09982729994226247,0.7489982000552118
RSVPLG03,si,20260219-163153,1.0.2,20260219-152011,771,Experiment,Both,1,Automatic,main,12,20260219-163313,global,local,750,S,S,E,E,S-E.png,E-S.png,sS,sS,mask-3.png,mask-3.png,s,1,0.27025140007026494,s,1,0.06348399992566556,0.04876250005327165,0.04953269998077303,0.09868890000507236,0.09863200003746897,0.7501985999988392
RSVPLG03,si,20260219-163153,1.0.2,20260219-152011,771,Experiment,Both,1,Automatic,main,13,20260219-163317,global,global,750,S,H,A,E,S-A.png,H-E.png,sS,hH,mask-1.png,mask-1.png,s,1,0.8167068000184372,h,1,0.1444728000788018,0.0498527999734506,0.049982600030489266,0.09995049994904548,0.1004717000760138,0.7503107999218628
RSVPLG03,si,20260219-163153,1.0.2,20260219-152011,771,Experiment,Both,1,Automatic,main,14,20260219-163322,global,local,300,H,S,A,E,H-A.png,E-S.png,hH,sS,mask-2.png,mask-2.png,h,1,0.46040560002438724,s,1,0.04694049991667271,0.05159519996959716,0.04967109998688102,0.10132049990352243,0.09955990000162274,0.30137769994325936
RSVPLG03,si,20260219-163153,1.0.2,20260219-152011,771,Experiment,Both,1,Automatic,main,15,20260219-163327,global,local,750,S,H,E,A,S-E.png,A-H.png,sS,hH,mask-3.png,mask-2.png,s,1,0.4782008999027312,h,1,0.0332593999337405,0.04934050003066659,0.049398800008930266,0.09883149992674589,0.09868809999898076,0.7503810999915004
RSVPLG03,si,20260219-163153,1.0.2,20260219-152011,771,Experiment,Both,1,Automatic,main,16,20260219-163331,local,local,750,S,H,E,A,E-S.png,A-H.png,sS,hH,mask-3.png,mask-2.png,s,1,0.5466996999457479,h,1,0.013928000000305474,0.05080999992787838,0.0509081999771297,0.10145539999939501,0.10078620002605021,0.7512462999438867
RSVPLG03,si,20260219-163153,1.0.2,20260219-152011,771,Experiment,Both,1,Automatic,main,17,20260219-163336,local,global,750,S,H,E,A,E-S.png,H-A.png,sS,hH,mask-4.png,mask-3.png,s,1,0.482993199955672,s,0,0.058230199967511,0.04871710005681962,0.05135239998344332,0.0992315000621602,0.1017920000012964,0.7493923000292853
RSVPLG03,si,20260219-163153,1.0.2,20260219-152011,771,Experiment,Both,1,Automatic,main,18,20260219-163341,local,local,750,S,H,A,E,A-S.png,E-H.png,sS,hH,mask-3.png,mask-1.png,s,1,0.5029884000541642,h,1,0.04651380004361272,0.047478700056672096,0.051202000002376735,0.09849480004049838,0.10065289994236082,0.7483842000365257
RSVPLG03,si,20260219-163153,1.0.2,20260219-152011,771,Experiment,Both,1,Automatic,main,19,20260219-163345,global,global,300,S,H,E,A,S-E.png,H-A.png,sS,hH,mask-1.png,mask-4.png,s,1,0.5727498000487685,h,1,0.07031540002208203,0.05152720003388822,0.051710300031118095,0.10029279999434948,0.10122479998972267,0.29965040006209165
RSVPLG03,si,20260219-163153,1.0.2,20260219-152011,771,Experiment,Both,1,Automatic,main,20,20260219-163350,global,local,300,H,S,E,E,H-E.png,E-S.png,hH,sS,mask-3.png,mask-4.png,h,1,0.47242779994849116,s,1,0.10437610000371933,0.05083680001553148,0.049815500038675964,0.10073139995802194,0.09876580000855029,0.301779399975203
RSVPLG03,si,20260219-163153,1.0.2,20260219-152011,771,Experiment,Both,1,Automatic,main,21,20260219-163354,global,global,300,H,S,E,E,H-E.png,S-E.png,hH,sS,mask-3.png,mask-1.png,h,1,0.4592742999084294,s,1,0.11810279998462647,0.05083700001705438,0.04956750001292676,0.10086959996260703,0.09973849996458739,0.3005008000181988
RSVPLG03,si,20260219-163153,1.0.2,20260219-152011,771,Experiment,Both,1,Automatic,main,22,20260219-163359,global,global,750,H,H,A,E,H-A.png,H-E.png,hH,hH,mask-3.png,mask-4.png,h,1,0.33467889996245503,h,1,0.055193700012750924,0.04953180009033531,0.049945599981583655,0.0996708000311628,0.09978359995875508,0.7498523000394925
RSVPLG03,si,20260219-163153,1.0.2,20260219-152011,771,Experiment,Both,1,Automatic,main,23,20260219-163403,global,local,750,S,S,E,A,S-E.png,A-S.png,sS,sS,mask-3.png,mask-1.png,s,1,0.745697999955155,h,0,0.05553260003216565,0.04907739988993853,0.048384100082330406,0.0990481999469921,0.09854790009558201,0.7503536998992786
RSVPLG03,si,20260219-163153,1.0.2,20260219-152011,771,Experiment,Both,1,Automatic,main,24,20260219-163408,global,local,300,H,H,A,A,H-A.png,A-H.png,hH,hH,mask-3.png,mask-2.png,h,1,0.40303180005867034,h,1,0.04760239995084703,0.051843699999153614,0.04802220000419766,0.10062230005860329,0.09850069996900856,0.3023045000154525
RSVPLG03,si,20260219-163153,1.0.2,20260219-152011,771,Experiment,Both,1,Automatic,main,25,20260219-163412,local,local,750,H,H,A,A,A-H.png,A-H.png,hH,hH,mask-1.png,mask-2.png,h,1,0.3179295000154525,h,1,0.06550519994925708,0.05093050003051758,0.05045480001717806,0.09985960007179528,0.10055259999353439,0.7497408000053838
RSVPLG03,si,20260219-163153,1.0.2,20260219-152011,771,Experiment,Both,1,Automatic,main,26,20260219-163426,global,global,750,H,S,E,A,H-E.png,S-A.png,hH,sS,mask-4.png,mask-1.png,h,1,0.38558450003620237,s,1,0.020375199965201318,0.050920599955134094,0.05066489998716861,0.10079769999720156,0.10048699995968491,0.7507742999587208
RSVPLG03,si,20260219-163153,1.0.2,20260219-152011,771,Experiment,Both,1,Automatic,main,27,20260219-163431,global,local,750,S,H,A,A,S-A.png,A-H.png,sS,hH,mask-2.png,mask-1.png,s,1,0.330187400104478,h,1,0.00654430000577122,0.04891090001910925,0.050688200048170984,0.09947889996692538,0.10039300005882978,0.7496895999647677
RSVPLG03,si,20260219-163153,1.0.2,20260219-152011,771,Experiment,Both,1,Automatic,main,28,20260219-163435,local,local,300,S,S,A,E,A-S.png,E-S.png,sS,sS,mask-1.png,mask-2.png,s,1,1.048338400083594,s,1,0.054836199968121946,0.04994940001051873,0.04951769998297095,0.09956140001304448,0.0993900999892503,0.30016819993034005
RSVPLG03,si,20260219-163153,1.0.2,20260219-152011,771,Experiment,Both,1,Automatic,main,29,20260219-163440,global,global,300,S,H,A,E,S-A.png,H-E.png,sS,hH,mask-3.png,mask-4.png,s,1,0.3627929000649601,h,1,0.05494140007067472,0.05050500005017966,0.05122359993401915,0.10045370005536824,0.09977129998151213,0.30073750007431954
RSVPLG03,si,20260219-163153,1.0.2,20260219-152011,771,Experiment,Both,1,Automatic,main,30,20260219-163444,local,local,750,H,S,E,E,E-H.png,E-S.png,hH,sS,mask-4.png,mask-3.png,h,1,0.34534320002421737,s,1,0.015522200032137334,0.04924980003852397,0.04861449997406453,0.10014740005135536,0.09936210000887513,0.7511977000394836
RSVPLG03,si,20260219-163153,1.0.2,20260219-152011,771,Experiment,Both,1,Automatic,main,31,20260219-163449,local,global,300,S,S,A,E,A-S.png,S-E.png,sS,sS,mask-1.png,mask-4.png,s,1,0.4789727000752464,h,0,0.040593699901364744,0.04960080003365874,0.05011810001451522,0.09864680003374815,0.09984340006485581,0.30024110001977533
RSVPLG03,si,20260219-163153,1.0.2,20260219-152011,771,Experiment,Both,1,Automatic,main,32,20260219-163453,global,local,750,H,H,A,E,H-A.png,E-H.png,hH,hH,mask-3.png,mask-4.png,h,1,0.3698227999266237,h,1,0.06678560003638268,0.04909790004603565,0.050533599918708205,0.10044199996627867,0.0997049999423325,0.7494853000389412
RSVPLG03,si,20260219-163153,1.0.2,20260219-152011,771,Experiment,Both,1,Automatic,main,33,20260219-163458,local,global,750,S,H,A,A,A-S.png,H-A.png,sS,hH,mask-4.png,mask-1.png,s,1,0.47338440001476556,s,0,0.05595559999346733,0.04865460004657507,0.04975280002690852,0.0987164000980556,0.09960360010154545,0.7492348999949172
RSVPLG03,si,20260219-163153,1.0.2,20260219-152011,771,Experiment,Both,1,Automatic,main,34,20260219-163502,local,local,300,S,S,E,A,E-S.png,A-S.png,sS,sS,mask-4.png,mask-3.png,s,1,0.384049600106664,s,1,0.055166800040751696,0.049033200019039214,0.049520500004291534,0.09953600005246699,0.10014639992732555,0.29968170006759465
RSVPLG03,si,20260219-163153,1.0.2,20260219-152011,771,Experiment,Both,1,Automatic,main,35,20260219-163506,local,local,750,S,H,E,A,E-S.png,A-H.png,sS,hH,mask-3.png,mask-2.png,s,1,0.3733847999246791,h,1,0.03311499999836087,0.051095300004817545,0.04968820000067353,0.09981990000233054,0.1013996999245137,0.7493270999984816
RSVPLG03,si,20260219-163153,1.0.2,20260219-152011,771,Experiment,Both,1,Automatic,main,36,20260219-163511,global,global,300,S,H,A,A,S-A.png,H-A.png,sS,hH,mask-4.png,mask-3.png,s,1,0.6713453999254853,s,0,0.0578088000183925,0.04803459998220205,0.04847989999689162,0.09946519997902215,0.09937249997165054,0.3003099999623373
RSVPLG03,si,20260219-163153,1.0.2,20260219-152011,771,Experiment,Both,1,Automatic,main,37,20260219-163515,global,local,750,H,S,A,E,H-A.png,E-S.png,hH,sS,mask-3.png,mask-2.png,s,0,0.8954952000640333,s,1,0.03952800005208701,0.049287699977867305,0.05064100003801286,0.10037899995222688,0.09994700003881007,0.7490155999548733
RSVPLG03,si,20260219-163153,1.0.2,20260219-152011,771,Experiment,Both,1,Automatic,main,38,20260219-163520,local,global,300,S,S,E,E,E-S.png,S-E.png,sS,sS,mask-4.png,mask-1.png,s,1,0.5275319999782369,h,0,0.00969570002052933,0.0491291000507772,0.04959529999177903,0.09901190001983196,0.09868030005600303,0.29951689997687936
RSVPLG03,si,20260219-163153,1.0.2,20260219-152011,771,Experiment,Both,1,Automatic,main,39,20260219-163525,local,local,750,H,S,A,A,A-H.png,A-S.png,hH,sS,mask-3.png,mask-2.png,h,1,0.5949492000509053,s,1,0.6989170000888407,0.04900489991996437,0.04917929996736348,0.09777839994058013,0.09791899996344,0.7499622999457642
RSVPLG03,si,20260219-163153,1.0.2,20260219-152011,771,Experiment,Both,1,Automatic,main,40,20260219-163529,global,local,750,H,S,A,E,H-A.png,E-S.png,hH,sS,mask-1.png,mask-2.png,h,1,1.0738838999532163,h,0,0.07792439998593181,0.0504636000841856,0.0497867000522092,0.09896460000891238,0.10057749995030463,0.7483380000339821
RSVPLG03,si,20260219-163153,1.0.2,20260219-152011,771,Experiment,Both,1,Automatic,main,41,20260219-163534,local,global,750,S,S,A,E,A-S.png,S-E.png,sS,sS,mask-1.png,mask-4.png,s,1,0.5173274000408128,s,1,0.06060829991474748,0.049794599995948374,0.048459800076670945,0.10130620002746582,0.09911379998084158,0.7508692999836057
RSVPLG03,si,20260219-163153,1.0.2,20260219-152011,771,Experiment,Both,1,Automatic,main,42,20260219-163539,local,local,750,S,H,E,A,E-S.png,A-H.png,sS,hH,mask-3.png,mask-1.png,s,1,0.6068633999675512,h,1,0.022351899999193847,0.04960659996140748,0.04977130005136132,0.10048809996806085,0.10070039995480329,0.7493280000053346
RSVPLG03,si,20260219-163153,1.0.2,20260219-152011,771,Experiment,Both,1,Automatic,main,43,20260219-163544,global,global,300,S,H,E,E,S-E.png,H-E.png,sS,hH,mask-2.png,mask-1.png,s,1,0.4633743999293074,h,1,0.5907548000104725,0.050093699945136905,0.05081820010673255,0.10028609994333237,0.099932000041008,0.2989733999129385
RSVPLG03,si,20260219-163153,1.0.2,20260219-152011,771,Experiment,Both,1,Automatic,main,44,20260219-163549,local,local,300,H,H,A,A,A-H.png,A-H.png,hH,hH,mask-1.png,mask-1.png,h,1,0.44743520009797066,h,1,0.0553524000570178,0.04971819999627769,0.050028700032271445,0.09860609995666891,0.09968830004800111,0.2981895999982953
RSVPLG03,si,20260219-163153,1.0.2,20260219-152011,771,Experiment,Both,1,Automatic,main,45,20260219-163553,local,local,300,S,H,A,E,A-S.png,E-H.png,sS,hH,mask-1.png,mask-1.png,h,0,0.8212426999816671,h,1,0.07216590002644807,0.04893699998501688,0.050540000083856285,0.10020190000068396,0.10054240003228188,0.299610499991104
RSVPLG03,si,20260219-163153,1.0.2,20260219-152011,771,Experiment,Both,1,Automatic,main,46,20260219-163557,local,local,300,S,H,A,A,A-S.png,A-H.png,sS,hH,mask-4.png,mask-1.png,s,1,1.3324807999888435,h,1,0.05879189993720502,0.04858649999368936,0.04867849999573082,0.09761189995333552,0.10025369992945343,0.2969703000271693
RSVPLG03,si,20260219-163153,1.0.2,20260219-152011,771,Experiment,Both,1,Automatic,main,47,20260219-163603,local,global,750,H,S,E,E,E-H.png,S-E.png,hH,sS,mask-3.png,mask-3.png,h,1,0.5829739000182599,s,1,0.04578320006839931,0.05012589995749295,0.048643400077708066,0.10056659998372197,0.09925870003644377,0.7498831999255344
RSVPLG03,si,20260219-163153,1.0.2,20260219-152011,771,Experiment,Both,1,Automatic,main,48,20260219-163607,global,global,750,H,H,A,E,H-A.png,H-E.png,hH,hH,mask-1.png,mask-3.png,h,1,0.32167519989889115,h,1,0.053559400024823844,0.048318699933588505,0.048912599915638566,0.09866030002012849,0.10062329994980246,0.7498341000173241
RSVPLG03,si,20260219-163153,1.0.2,20260219-152011,771,Experiment,Both,1,Automatic,main,49,20260219-163612,global,global,750,S,H,A,A,S-A.png,H-A.png,sS,hH,mask-4.png,mask-3.png,s,1,0.5977638000622392,h,1,0.2300076000392437,0.04966589994728565,0.0489415000192821,0.09907370002474636,0.09927030000835657,0.7499346999684349
RSVPLG03,si,20260219-163153,1.0.2,20260219-152011,771,Experiment,Both,1,Automatic,main,50,20260219-163617,local,global,300,S,H,A,E,A-S.png,H-E.png,sS,hH,mask-2.png,mask-3.png,s,1,0.7419465999118984,s,0,0.05245640000794083,0.049868299975059927,0.04972560005262494,0.09844239999074489,0.10064499999862164,0.29904810001607984
RSVPLG03,si,20260219-163153,1.0.2,20260219-152011,771,Experiment,Both,1,Automatic,main,51,20260219-163629,global,local,750,H,S,E,A,H-E.png,A-S.png,hH,sS,mask-2.png,mask-4.png,h,1,1.049020600039512,h,0,0.0757105000084266,0.05212669994216412,0.04805979994125664,0.09895179991144687,0.10014749993570149,0.7509940000018105
RSVPLG03,si,20260219-163153,1.0.2,20260219-152011,771,Experiment,Both,1,Automatic,main,52,20260219-163635,local,local,300,H,H,E,E,E-H.png,E-H.png,hH,hH,mask-2.png,mask-1.png,h,1,0.5716280000051484,h,1,0.05491589999292046,0.048105399939231575,0.048794600064866245,0.09913879993837327,0.09964929998386651,0.29859419993590564
RSVPLG03,si,20260219-163153,1.0.2,20260219-152011,771,Experiment,Both,1,Automatic,main,53,20260219-163639,local,global,300,H,S,E,E,E-H.png,S-E.png,hH,sS,mask-4.png,mask-2.png,h,1,2.0883005999494344,h,0,0.04747619992122054,0.0498918000375852,0.05095489998348057,0.09984249994158745,0.10015760001260787,0.2989369999850169
RSVPLG03,si,20260219-163153,1.0.2,20260219-152011,771,Experiment,Both,1,Automatic,main,54,20260219-163645,local,global,300,H,S,E,E,E-H.png,S-E.png,hH,sS,mask-4.png,mask-4.png,s,0,1.3786170999519527,h,0,1.4990166999632493,0.048104200046509504,0.049826699891127646,0.09927410003729165,0.09957540000323206,0.2986711000557989
RSVPLG03,si,20260219-163153,1.0.2,20260219-152011,771,Experiment,Both,1,Automatic,main,55,20260219-163650,global,local,750,H,S,E,E,H-E.png,E-S.png,hH,sS,mask-4.png,mask-1.png,h,1,0.9629031999502331,s,1,0.35043640004005283,0.05004889995325357,0.0519623999716714,0.10015950002707541,0.10216469992883503,0.7476617000065744
RSVPLG03,si,20260219-163153,1.0.2,20260219-152011,771,Experiment,Both,1,Automatic,main,56,20260219-163655,local,global,750,H,S,E,E,E-H.png,S-E.png,hH,sS,mask-2.png,mask-1.png,h,1,0.6587271000025794,s,1,0.04909280000720173,0.05096030002459884,0.05072120006661862,0.09971660003066063,0.10060980007983744,0.7502741999924183
RSVPLG03,si,20260219-163153,1.0.2,20260219-152011,771,Experiment,Both,1,Automatic,main,57,20260219-163700,local,local,750,H,S,A,A,A-H.png,A-S.png,hH,sS,mask-1.png,mask-3.png,h,1,0.4776761999819428,s,1,0.5976408999413252,0.049834199948236346,0.04981989995576441,0.10002030001487583,0.1006975999334827,0.751196900033392
RSVPLG03,si,20260219-163153,1.0.2,20260219-152011,771,Experiment,Both,1,Automatic,main,58,20260219-163705,local,local,300,S,S,A,E,A-S.png,E-S.png,sS,sS,mask-2.png,mask-4.png,s,1,0.5169058999745175,s,1,0.5520605000201613,0.04886320000514388,0.05001779994927347,0.0981757000554353,0.09959150000941008,0.29805900005158037
RSVPLG03,si,20260219-163153,1.0.2,20260219-152011,771,Experiment,Both,1,Automatic,main,59,20260219-163709,local,local,300,S,S,A,A,A-S.png,A-S.png,sS,sS,mask-2.png,mask-1.png,s,1,1.446285199956037,s,1,0.06255839997902513,0.048458099947310984,0.050331000005826354,0.09746570000424981,0.10071060003247112,0.2985900999046862
RSVPLG03,si,20260219-163153,1.0.2,20260219-152011,771,Experiment,Both,1,Automatic,main,60,20260219-163715,global,local,300,S,H,E,A,S-E.png,A-H.png,sS,hH,mask-2.png,mask-3.png,s,1,0.6225582000333816,s,0,0.05761089990846813,0.04874650004785508,0.05086110008414835,0.09904020000249147,0.10074140003416687,0.29852790001314133
RSVPLG03,si,20260219-163153,1.0.2,20260219-152011,771,Experiment,Both,1,Automatic,main,61,20260219-163719,global,local,300,S,S,E,E,S-E.png,E-S.png,sS,sS,mask-3.png,mask-4.png,s,1,0.5596516999648884,s,1,0.0555981999495998,0.04846049996558577,0.04899409995414317,0.09831549995578825,0.09906699997372925,0.29978210001718253
RSVPLG03,si,20260219-163153,1.0.2,20260219-152011,771,Experiment,Both,1,Automatic,main,62,20260219-163723,local,local,750,S,S,E,E,E-S.png,E-S.png,sS,sS,mask-3.png,mask-1.png,s,1,0.5621506000170484,s,1,0.04864850000012666,0.05086030007805675,0.04953339998610318,0.10186870000325143,0.10041169996839017,0.7514041000977159
RSVPLG03,si,20260219-163153,1.0.2,20260219-152011,771,Experiment,Both,1,Automatic,main,63,20260219-163728,local,global,750,S,S,E,A,E-S.png,S-A.png,sS,sS,mask-4.png,mask-3.png,s,1,0.8227685999590904,s,1,0.05502420000266284,0.04925510007888079,0.04999689990654588,0.09831370005849749,0.1028626998886466,0.7497084001079202
RSVPLG03,si,20260219-163153,1.0.2,20260219-152011,771,Experiment,Both,1,Automatic,main,64,20260219-163733,global,local,300,H,S,E,A,H-E.png,A-S.png,hH,sS,mask-3.png,mask-1.png,h,1,0.8209234999958426,h,0,0.06106869992800057,0.050106999929994345,0.05054120009299368,0.09975549997761846,0.09910640004090965,0.2998800999484956
RSVPLG03,si,20260219-163153,1.0.2,20260219-152011,771,Experiment,Both,1,Automatic,main,65,20260219-163737,global,global,750,H,S,A,A,H-A.png,S-A.png,hH,sS,mask-2.png,mask-2.png,h,1,0.4761124999495223,s,1,0.14976970001589507,0.050406299997121096,0.05190359998960048,0.10020590003114194,0.10068989999126643,0.7490186000941321
RSVPLG03,si,20260219-163153,1.0.2,20260219-152011,771,Experiment,Both,1,Automatic,main,66,20260219-163742,local,global,750,H,H,A,E,A-H.png,H-E.png,hH,hH,mask-2.png,mask-4.png,s,0,0.6761334999464452,s,0,0.04528930003289133,0.049333499977365136,0.04932310001458973,0.09930909995455295,0.09908870002254844,0.7495813999557868
RSVPLG03,si,20260219-163153,1.0.2,20260219-152011,771,Experiment,Both,1,Automatic,main,67,20260219-163747,global,global,750,S,S,E,A,S-E.png,S-A.png,sS,sS,mask-3.png,mask-4.png,s,1,0.36636210000142455,s,1,0.060839599929749966,0.04879420006182045,0.049884999985806644,0.09871960000600666,0.09715440007857978,0.7505671000108123
RSVPLG03,si,20260219-163153,1.0.2,20260219-152011,771,Experiment,Both,1,Automatic,main,68,20260219-163751,global,local,300,H,S,A,A,H-A.png,A-S.png,hH,sS,mask-3.png,mask-3.png,h,1,0.7048924000700936,h,0,0.7096164999529719,0.05117120000068098,0.05092089995741844,0.10016310005448759,0.10024970001541078,0.3003971000434831
RSVPLG03,si,20260219-163153,1.0.2,20260219-152011,771,Experiment,Both,1,Automatic,main,69,20260219-163757,local,local,300,S,H,A,A,A-S.png,A-H.png,sS,hH,mask-3.png,mask-1.png,s,1,0.7024402999086305,h,1,0.029839099966920912,0.050490800058469176,0.05048520001582801,0.09999040002003312,0.10027830000035465,0.2990169000113383
RSVPLG03,si,20260219-163153,1.0.2,20260219-152011,771,Experiment,Both,1,Automatic,main,70,20260219-163801,local,global,300,H,H,A,A,A-H.png,H-A.png,hH,hH,mask-2.png,mask-1.png,h,1,0.782647299929522,h,1,0.30294209998100996,0.0501640000147745,0.04863529989961535,0.09898050001356751,0.09854659996926785,0.30170210008509457
RSVPLG03,si,20260219-163153,1.0.2,20260219-152011,771,Experiment,Both,1,Automatic,main,71,20260219-163806,global,local,750,S,H,E,E,S-E.png,E-H.png,sS,hH,mask-2.png,mask-1.png,s,1,0.6515190999489278,s,0,0.053356299991719425,0.04919950000476092,0.05029019992798567,0.09953169990330935,0.09883939998690039,0.7501803999766707
RSVPLG03,si,20260219-163153,1.0.2,20260219-152011,771,Experiment,Both,1,Automatic,main,72,20260219-163811,global,global,750,H,S,A,A,H-A.png,S-A.png,hH,sS,mask-1.png,mask-1.png,h,1,0.3498263000510633,s,1,0.13455289998091757,0.050222799996845424,0.04994359996635467,0.1007481999695301,0.10081820003688335,0.7497601000359282
RSVPLG03,si,20260219-163153,1.0.2,20260219-152011,771,Experiment,Both,1,Automatic,main,73,20260219-163816,local,local,750,H,H,A,A,A-H.png,A-H.png,hH,hH,mask-2.png,mask-2.png,h,1,0.3768725000554696,h,1,0.05192450003232807,0.04983210004866123,0.050355799961835146,0.09904010000173002,0.1002351000206545,0.7502986000617966
RSVPLG03,si,20260219-163153,1.0.2,20260219-152011,771,Experiment,Both,1,Automatic,main,74,20260219-163820,local,global,300,S,H,E,E,E-S.png,H-E.png,sS,hH,mask-3.png,mask-1.png,s,1,0.6180699999677017,h,1,0.08033070003148168,0.045912500005215406,0.049129199935123324,0.0968398000113666,0.09917659999337047,0.2963361000875011
RSVPLG03,si,20260219-163153,1.0.2,20260219-152011,771,Experiment,Both,1,Automatic,main,75,20260219-163824,local,global,300,H,H,A,E,A-H.png,H-E.png,hH,hH,mask-3.png,mask-3.png,h,1,0.5138375000096858,s,0,0.10257220000494272,0.05058369995094836,0.0489685001084581,0.1002283999696374,0.09983290010131896,0.3005022999132052
RSVPLG03,si,20260219-163153,1.0.2,20260219-152011,771,Experiment,Both,1,Automatic,main,76,20260219-163831,local,global,750,H,S,E,A,E-H.png,S-A.png,hH,sS,mask-1.png,mask-1.png,h,1,0.7400735999690369,h,0,0.3370744000421837,0.04865460004657507,0.04983929998707026,0.10081189998891205,0.09979489992838353,0.7510436000302434
RSVPLG03,si,20260219-163153,1.0.2,20260219-152011,771,Experiment,Both,1,Automatic,main,77,20260219-163836,global,local,300,S,H,A,A,S-A.png,A-H.png,sS,hH,mask-1.png,mask-3.png,s,1,0.6815426000393927,s,0,0.0534029999980703,0.04860410001128912,0.05062210001051426,0.10044009995181113,0.10056689998600632,0.2987010999349877
RSVPLG03,si,20260219-163153,1.0.2,20260219-152011,771,Experiment,Both,1,Automatic,main,78,20260219-163841,local,global,750,H,H,A,E,A-H.png,H-E.png,hH,hH,mask-4.png,mask-4.png,h,1,0.8098816000856459,s,0,0.0411531999707222,0.049828700022771955,0.049772300058975816,0.10015990003012121,0.09881800005678087,0.7514626999618486
RSVPLG03,si,20260219-163153,1.0.2,20260219-152011,771,Experiment,Both,1,Automatic,main,79,20260219-163846,local,global,300,H,S,E,E,E-H.png,S-E.png,hH,sS,mask-3.png,mask-3.png,s,0,0.442922200076282,s,1,0.046286400058306754,0.05075970001053065,0.04941279999911785,0.09975950000807643,0.10098099999595433,0.3001988000469282
RSVPLG03,si,20260219-163153,1.0.2,20260219-152011,771,Experiment,Both,1,Automatic,main,80,20260219-163850,local,global,300,H,H,E,A,E-H.png,H-A.png,hH,hH,mask-1.png,mask-4.png,s,0,0.8833187000127509,h,1,0.05815389996860176,0.05130650009959936,0.04909900005441159,0.10054130002390593,0.09901010000612587,0.30146530002821237
RSVPLG03,si,20260219-163153,1.0.2,20260219-152011,771,Experiment,Both,1,Automatic,main,81,20260219-163854,local,local,300,S,S,A,E,A-S.png,E-S.png,sS,sS,mask-2.png,mask-2.png,h,0,0.8829020999837667,s,1,0.09467200003564358,0.049184300005435944,0.050874599954113364,0.09850520000327379,0.10126000002492219,0.2984029999934137
RSVPLG03,si,20260219-163153,1.0.2,20260219-152011,771,Experiment,Both,1,Automatic,main,82,20260219-163859,global,global,750,H,H,E,A,H-E.png,H-A.png,hH,hH,mask-2.png,mask-1.png,h,1,0.25445209990721196,h,1,0.0635115000186488,0.04949439992196858,0.04988139995839447,0.10008819994982332,0.10106439993251115,0.7494935999857262
RSVPLG03,si,20260219-163153,1.0.2,20260219-152011,771,Experiment,Both,1,Automatic,main,83,20260219-163904,local,local,300,H,S,A,A,A-H.png,A-S.png,hH,sS,mask-2.png,mask-3.png,h,1,0.64166110008955,h,0,0.05786850000731647,0.05063379998318851,0.049667199957184494,0.10090219997800887,0.0996319999685511,0.30158660002052784
RSVPLG03,si,20260219-163153,1.0.2,20260219-152011,771,Experiment,Both,1,Automatic,main,84,20260219-163908,local,local,750,S,H,E,E,E-S.png,E-H.png,sS,hH,mask-1.png,mask-3.png,s,1,0.521078999969177,h,1,0.5737648999784142,0.050126099959015846,0.04892069997731596,0.10162179998587817,0.10076780000235885,0.7507278999546543
RSVPLG03,si,20260219-163153,1.0.2,20260219-152011,771,Experiment,Both,1,Automatic,main,85,20260219-163913,global,local,300,S,S,A,A,S-A.png,A-S.png,sS,sS,mask-1.png,mask-1.png,s,1,0.4494700999930501,s,1,0.047300699981860816,0.051070500048808753,0.050609300029464066,0.10388700000476092,0.10177299997303635,0.3008098000427708
RSVPLG03,si,20260219-163153,1.0.2,20260219-152011,771,Experiment,Both,1,Automatic,main,86,20260219-163917,global,global,300,S,H,A,E,S-A.png,H-E.png,sS,hH,mask-3.png,mask-1.png,s,1,0.38291449996177107,h,1,0.13547169999219477,0.0503434999845922,0.049809700110927224,0.10057610005605966,0.10083250002935529,0.30031289998441935
RSVPLG03,si,20260219-163153,1.0.2,20260219-152011,771,Experiment,Both,1,Automatic,main,87,20260219-163922,global,global,300,H,S,E,A,H-E.png,S-A.png,hH,sS,mask-3.png,mask-3.png,h,1,0.4213442000327632,s,1,0.09503670001868159,0.04843690001871437,0.04935599991586059,0.09917900001164526,0.09946539998054504,0.29940890008583665
RSVPLG03,si,20260219-163153,1.0.2,20260219-152011,771,Experiment,Both,1,Automatic,main,88,20260219-163926,global,local,300,S,H,A,A,S-A.png,A-H.png,sS,hH,mask-3.png,mask-2.png,s,1,0.4366866999771446,h,1,0.0392850999487564,0.0492645000340417,0.051701700082048774,0.09792050009127706,0.10052330000326037,0.29793310002423823
RSVPLG03,si,20260219-163153,1.0.2,20260219-152011,771,Experiment,Both,1,Automatic,main,89,20260219-163930,local,global,750,S,S,A,A,A-S.png,S-A.png,sS,sS,mask-2.png,mask-4.png,s,1,0.36489530000835657,s,1,0.05392279999796301,0.04909149999730289,0.05173499998636544,0.10068379994481802,0.10184889996889979,0.7483937999932095
RSVPLG03,si,20260219-163153,1.0.2,20260219-152011,771,Experiment,Both,1,Automatic,main,90,20260219-163935,global,global,300,S,S,E,A,S-E.png,S-A.png,sS,sS,mask-4.png,mask-2.png,s,1,0.43335100007243454,s,1,0.03830719995312393,0.049989799968898296,0.05065740004647523,0.10073599999304861,0.10102790000382811,0.2987046999623999
RSVPLG03,si,20260219-163153,1.0.2,20260219-152011,771,Experiment,Both,1,Automatic,main,91,20260219-163939,global,local,300,H,H,A,A,H-A.png,A-H.png,hH,hH,mask-2.png,mask-1.png,h,1,0.44252409995533526,h,1,0.06192790006753057,0.048618100001476705,0.04942639998625964,0.09988980006892234,0.1000600999686867,0.29946660005953163
RSVPLG03,si,20260219-163153,1.0.2,20260219-152011,771,Experiment,Both,1,Automatic,main,92,20260219-163943,global,local,300,H,H,A,E,H-A.png,E-H.png,hH,hH,mask-4.png,mask-3.png,h,1,0.491534800035879,s,0,0.11701569997239858,0.050573599990457296,0.050775400013662875,0.10063799994532019,0.10066019999794662,0.29933249996975064
RSVPLG03,si,20260219-163153,1.0.2,20260219-152011,771,Experiment,Both,1,Automatic,main,93,20260219-163948,global,local,750,S,S,A,A,S-A.png,A-S.png,sS,sS,mask-4.png,mask-2.png,s,1,0.314795000012964,s,1,0.0642008000286296,0.050478799967095256,0.049684999976307154,0.10104199999477714,0.09994949994143099,0.7513621000107378
RSVPLG03,si,20260219-163153,1.0.2,20260219-152011,771,Experiment,Both,1,Automatic,main,94,20260219-163952,global,global,300,S,S,A,E,S-A.png,S-E.png,sS,sS,mask-3.png,mask-1.png,s,1,0.3262395999627188,s,1,0.054562099976465106,0.05020180006977171,0.0498414000030607,0.09930340002756566,0.0998120999429375,0.29979230009485036
RSVPLG03,si,20260219-163153,1.0.2,20260219-152011,771,Experiment,Both,1,Automatic,main,95,20260219-163956,global,global,300,S,H,A,E,S-A.png,H-E.png,sS,hH,mask-4.png,mask-3.png,s,1,0.3779428000561893,h,1,0.06267209991347045,0.050319000030867755,0.04933249996975064,0.09925069997552782,0.09877229994162917,0.2996150000253692
RSVPLG03,si,20260219-163153,1.0.2,20260219-152011,771,Experiment,Both,1,Automatic,main,96,20260219-164000,global,global,300,S,S,E,E,S-E.png,S-E.png,sS,sS,mask-2.png,mask-2.png,s,1,0.33333829999901354,s,1,0.053639500052668154,0.05018889997154474,0.049845100031234324,0.10075819992925972,0.1011545000365004,0.29877739993389696
RSVPLG03,si,20260219-163153,1.0.2,20260219-152011,771,Experiment,Both,1,Automatic,main,97,20260219-164004,local,global,300,S,S,E,E,E-S.png,S-E.png,sS,sS,mask-3.png,mask-3.png,s,1,0.4117919000564143,s,1,0.0670594999101013,0.04922309995163232,0.049496399937197566,0.09950399992521852,0.09899500000756234,0.29957989999093115
RSVPLG03,si,20260219-163153,1.0.2,20260219-152011,771,Experiment,Both,1,Automatic,main,98,20260219-164008,local,global,750,H,H,A,A,A-H.png,H-A.png,hH,hH,mask-3.png,mask-2.png,h,1,2.2864610999822617,s,0,0.5024473000084981,0.049646300030872226,0.048631399986334145,0.09987049992196262,0.09902129997499287,0.7489582999842241
RSVPLG03,si,20260219-163153,1.0.2,20260219-152011,771,Experiment,Both,1,Automatic,main,99,20260219-164015,global,global,750,H,S,E,A,H-E.png,S-A.png,hH,sS,mask-3.png,mask-1.png,h,1,0.5558644999982789,s,1,0.19085909996647388,0.051336899981833994,0.05150519998278469,0.10007579997181892,0.10163819999434054,0.7503978000022471
RSVPLG03,si,20260219-163153,1.0.2,20260219-152011,771,Experiment,Both,1,Automatic,main,100,20260219-164020,global,global,750,S,H,E,A,S-E.png,H-A.png,sS,hH,mask-1.png,mask-3.png,s,1,0.43079769995529205,h,1,0.18302709993440658,0.05072089994791895,0.05123670003376901,0.09848109993617982,0.09974940004758537,0.7495207999600098
