exp,exp_initials,runtime,ver,modtime,sub,blocktype,targets,cuetype,mode,trialtype,trial,trialtime,t1_level,t2_level,t2_lag,t1,t2,distractor1,distractor2,stimfile1,stimfile2,t1_corr,t2_corr,maskfile1,maskfile2,t1_resp,t1_acc,t1_rt,t2_resp,t2_acc,t2_rt,t1_dur,t2_dur,t1mask_soa,t2mask_soa,t1t2_soa
RSVPLG03,km,20260212-165901,1.0.2,20251113-095759,759,Introduction,T1,1,Automatic,main,1,20260212-165919,local,global,750,H,S,E,A,E-H.png,S-A.png,hH,sS,mask-2.png,mask-1.png,h,1,1.3239667000016198,none,-5,0,0.09039270001812838,0.10050050000427291,0.19002199999522418,0.20004679998965003,0.7404540000134148
RSVPLG03,km,20260212-165901,1.0.2,20251113-095759,759,Introduction,T1,1,Automatic,main,2,20260212-165925,local,local,750,S,H,A,E,A-S.png,E-H.png,sS,hH,mask-2.png,mask-1.png,s,1,1.8029913999780547,none,-5,0,0.10155049999593757,0.09882590000052005,0.20099919999483973,0.19999300001654774,0.7519046999805141
RSVPLG03,km,20260212-165901,1.0.2,20251113-095759,759,Introduction,T1,1,Automatic,main,3,20260212-165931,global,local,750,S,S,E,A,S-E.png,A-S.png,sS,sS,mask-1.png,mask-4.png,h,0,1.4364421000063885,none,-5,0,0.10065020000911318,0.10094390000449494,0.1989158999931533,0.19900210000923835,0.7498881999927107
RSVPLG03,km,20260212-165901,1.0.2,20251113-095759,759,Introduction,T1,1,Automatic,main,4,20260212-165936,local,local,750,H,H,A,E,A-H.png,E-H.png,hH,hH,mask-3.png,mask-4.png,h,1,0.9276131000078749,none,-5,0,0.09990149998338893,0.10007949999999255,0.19961959999636747,0.19927389998338185,0.7498536999919452
RSVPLG03,km,20260212-165901,1.0.2,20251113-095759,759,Introduction,T1,1,Automatic,main,5,20260212-165941,global,global,750,H,S,E,E,H-E.png,S-E.png,hH,sS,mask-2.png,mask-2.png,h,1,1.3604389000101946,none,-5,0,0.09808259998681024,0.09904430000460707,0.19967999999062158,0.20112390001304448,0.7483519999950659
RSVPLG03,km,20260212-165901,1.0.2,20251113-095759,759,Introduction,T1,1,Automatic,main,6,20260212-165947,global,global,750,H,H,A,E,H-A.png,H-E.png,hH,hH,mask-2.png,mask-1.png,h,1,1.1713184999825899,none,-5,0,0.10052130001713522,0.09863389999372885,0.19963069999357685,0.199375099997269,0.7508337000035681
RSVPLG03,km,20260212-165901,1.0.2,20251113-095759,759,Introduction,T1,1,Automatic,main,7,20260212-165952,local,global,750,S,H,E,A,E-S.png,H-A.png,sS,hH,mask-4.png,mask-2.png,s,1,0.5288453999964986,none,-5,0,0.09807330000330694,0.09909989999141544,0.1983215999789536,0.19908160000341013,0.7504208000027575
RSVPLG03,km,20260212-165901,1.0.2,20251113-095759,759,Introduction,T1,1,Automatic,main,8,20260212-165957,global,local,750,S,H,A,A,S-A.png,A-H.png,sS,hH,mask-1.png,mask-4.png,none,-6,0,none,-5,0,0.10039650002727285,0.10051519999979064,0.2003784000116866,0.20029159999103285,0.7501544000115246
RSVPLG03,km,20260212-170011,1.0.2,20251113-095759,759,Practice,T1,1,Automatic,main,1,20260212-170029,global,local,300,S,H,A,E,S-A.png,E-H.png,sS,hH,mask-2.png,mask-2.png,h,0,2.3698130999982823,none,-5,0,0.0464100000099279,0.050166200002422556,0.09661619999678805,0.09951229998841882,0.29707060000509955
RSVPLG03,km,20260212-170011,1.0.2,20251113-095759,759,Practice,T1,1,Automatic,main,2,20260212-170035,global,local,750,S,S,A,E,S-A.png,E-S.png,sS,sS,mask-2.png,mask-4.png,h,0,1.2033316000015475,none,-5,0,0.05098159998306073,0.05021940000005998,0.10077879999880679,0.10036359998048283,0.7502980999997817
RSVPLG03,km,20260212-170011,1.0.2,20251113-095759,759,Practice,T1,1,Automatic,main,3,20260212-170040,global,global,750,H,S,A,E,H-A.png,S-E.png,hH,sS,mask-4.png,mask-2.png,s,0,0.9970804000040516,none,-5,0,0.04881259999820031,0.05163870000978932,0.09949870000127703,0.10064109999802895,0.7477954999776557
RSVPLG03,km,20260212-170011,1.0.2,20251113-095759,759,Practice,T1,1,Automatic,main,4,20260212-170045,local,local,300,H,H,A,A,A-H.png,A-H.png,hH,hH,mask-1.png,mask-4.png,h,1,0.5764925999974366,none,-5,0,0.04799980000825599,0.049842100008390844,0.09858770002028905,0.09865030000219122,0.3000151000160258
RSVPLG03,km,20260212-170011,1.0.2,20251113-095759,759,Practice,T1,1,Automatic,main,5,20260212-170049,local,local,750,H,H,A,E,A-H.png,E-H.png,hH,hH,mask-1.png,mask-3.png,h,1,0.8021776999812573,none,-5,0,0.04871219999040477,0.050078799977200106,0.09935000000405125,0.1012062999943737,0.7491608000127599
RSVPLG03,km,20260212-170011,1.0.2,20251113-095759,759,Practice,T1,1,Automatic,main,6,20260212-170054,global,global,300,H,H,E,A,H-E.png,H-A.png,hH,hH,mask-2.png,mask-2.png,h,1,0.7185594000038691,none,-5,0,0.05002930000773631,0.05054689999087714,0.09967319999122992,0.09921109999413602,0.3006939000042621
RSVPLG03,km,20260212-170011,1.0.2,20251113-095759,759,Practice,T1,1,Automatic,main,7,20260212-170059,local,local,750,S,S,A,A,A-S.png,A-S.png,sS,sS,mask-3.png,mask-3.png,s,1,0.48486029999912716,none,-5,0,0.04924079999909736,0.04848140000831336,0.10092440000153147,0.0993466000072658,0.7497656999912579
RSVPLG03,km,20260212-170011,1.0.2,20251113-095759,759,Practice,T1,1,Automatic,main,8,20260212-170103,local,global,750,H,H,E,E,E-H.png,H-E.png,hH,hH,mask-1.png,mask-4.png,h,1,0.5199976000003517,none,-5,0,0.04887689999304712,0.05009029997745529,0.09972820000257343,0.09960779998800717,0.749820400000317
RSVPLG03,km,20260212-170011,1.0.2,20251113-095759,759,Practice,T1,1,Automatic,main,9,20260212-170108,global,local,750,S,S,E,E,S-E.png,E-S.png,sS,sS,mask-2.png,mask-2.png,s,1,0.5505585999926552,none,-5,0,0.051019600010477006,0.05069790000561625,0.10056320001604035,0.10072570000193082,0.7490208999952301
RSVPLG03,km,20260212-170011,1.0.2,20251113-095759,759,Practice,T1,1,Automatic,main,10,20260212-170112,local,global,300,S,S,A,A,A-S.png,S-A.png,sS,sS,mask-4.png,mask-1.png,s,1,0.6116536000045016,none,-5,0,0.04951559999608435,0.050352999998722225,0.1007629000232555,0.09805329999653623,0.30019190002349205
RSVPLG03,km,20260212-170011,1.0.2,20251113-095759,759,Practice,T1,1,Automatic,main,11,20260212-170116,global,global,300,S,S,A,A,S-A.png,S-A.png,sS,sS,mask-3.png,mask-2.png,h,0,1.242149400000926,none,-5,0,0.04941279999911785,0.04992309998488054,0.09942310000769794,0.09957619998021983,0.3000862000044435
RSVPLG03,km,20260212-170011,1.0.2,20251113-095759,759,Practice,T1,1,Automatic,main,12,20260212-170121,local,global,750,S,S,A,E,A-S.png,S-E.png,sS,sS,mask-4.png,mask-4.png,s,1,1.3671634999918751,none,-5,0,0.052022599993506446,0.04860869998810813,0.10147119997418486,0.09955029998673126,0.7511876999924425
RSVPLG03,km,20260212-170011,1.0.2,20251113-095759,759,Practice,T1,1,Automatic,main,13,20260212-170127,local,global,300,H,H,E,A,E-H.png,H-A.png,hH,hH,mask-1.png,mask-3.png,h,1,0.6211511000001337,none,-5,0,0.04974359998595901,0.0502691000001505,0.10078690000227652,0.10152659998857416,0.2994347999920137
RSVPLG03,km,20260212-170011,1.0.2,20251113-095759,759,Practice,T1,1,Automatic,main,14,20260212-170131,global,global,750,H,H,A,E,H-A.png,H-E.png,hH,hH,mask-2.png,mask-3.png,s,0,0.945460400020238,none,-5,0,0.05042739998316392,0.04980159999104217,0.09987809997983277,0.10081309999804944,0.748393899993971
RSVPLG03,km,20260212-170011,1.0.2,20251113-095759,759,Practice,T1,1,Automatic,main,15,20260212-170136,local,local,300,H,H,A,A,A-H.png,A-H.png,hH,hH,mask-1.png,mask-2.png,h,1,0.8998281999956816,none,-5,0,0.05053559999214485,0.05046660001971759,0.09913779998896644,0.09933090000413358,0.29969729998265393
RSVPLG03,km,20260212-170011,1.0.2,20251113-095759,759,Practice,T1,1,Automatic,main,16,20260212-170140,global,local,300,H,S,E,E,H-E.png,E-S.png,hH,sS,mask-1.png,mask-2.png,s,0,1.2149194999947213,none,-5,0,0.050234599999384955,0.04957309999736026,0.0993255999928806,0.10141919998568483,0.2995197999989614
RSVPLG03,km,20260212-170222,1.0.2,20251113-095759,759,Practice,T1,1,Automatic,main,1,20260212-170256,global,global,300,H,H,A,A,H-A.png,H-A.png,hH,hH,mask-3.png,mask-2.png,h,1,1.5679770999995526,none,-5,0,0.04331639999873005,0.04997150000417605,0.09239859998342581,0.09880350000457838,0.2932472999964375
RSVPLG03,km,20260212-170222,1.0.2,20251113-095759,759,Practice,T1,1,Automatic,main,2,20260212-170301,local,local,300,S,H,E,E,E-S.png,E-H.png,sS,hH,mask-3.png,mask-1.png,s,1,0.47122390000731684,none,-5,0,0.05099970000446774,0.048646400013240054,0.1011010000074748,0.10025119999772869,0.3020863000128884
RSVPLG03,km,20260212-170222,1.0.2,20251113-095759,759,Practice,T1,1,Automatic,main,3,20260212-170305,global,global,300,H,S,E,A,H-E.png,S-A.png,hH,sS,mask-2.png,mask-3.png,s,0,1.173774399998365,none,-5,0,0.05027500001597218,0.049087599996710196,0.09917540001333691,0.09980550000909716,0.3003401000169106
RSVPLG03,km,20260212-170222,1.0.2,20251113-095759,759,Practice,T1,1,Automatic,main,4,20260212-170310,local,local,300,S,S,E,E,E-S.png,E-S.png,sS,sS,mask-1.png,mask-4.png,s,1,0.3768532999965828,none,-5,0,0.048133700009202585,0.049753100000089034,0.09850630001164973,0.10068900001351722,0.29891899999347515
RSVPLG03,km,20260212-170222,1.0.2,20251113-095759,759,Practice,T1,1,Automatic,main,5,20260212-170314,global,local,750,S,S,A,A,S-A.png,A-S.png,sS,sS,mask-4.png,mask-2.png,s,1,0.450517299992498,none,-5,0,0.04887389999930747,0.04878320000716485,0.09936739999102429,0.09980199998244643,0.7506777000089642
RSVPLG03,km,20260212-170222,1.0.2,20251113-095759,759,Practice,T1,1,Automatic,main,6,20260212-170318,local,local,750,H,S,E,A,E-H.png,A-S.png,hH,sS,mask-2.png,mask-2.png,h,1,0.6971123999974225,none,-5,0,0.049861200008308515,0.05047970000305213,0.10174819998792373,0.10016329999780282,0.7512150999973528
RSVPLG03,km,20260212-170222,1.0.2,20251113-095759,759,Practice,T1,1,Automatic,main,7,20260212-170323,global,local,750,H,H,A,E,H-A.png,E-H.png,hH,hH,mask-3.png,mask-4.png,h,1,0.5868312999955378,none,-5,0,0.051443600008497015,0.05013630000757985,0.10185239999555051,0.09968490002211183,0.7517414999892935
RSVPLG03,km,20260212-170222,1.0.2,20251113-095759,759,Practice,T1,1,Automatic,main,8,20260212-170328,global,local,300,H,H,A,E,H-A.png,E-H.png,hH,hH,mask-1.png,mask-4.png,h,1,0.2791274999908637,none,-5,0,0.04980269999941811,0.049444800009950995,0.10090680001303554,0.10002010001335293,0.2997605999989901
RSVPLG03,km,20260212-170222,1.0.2,20251113-095759,759,Practice,T1,1,Automatic,main,9,20260212-170332,global,global,750,S,S,A,E,S-A.png,S-E.png,sS,sS,mask-3.png,mask-3.png,s,1,0.6436403999978211,none,-5,0,0.05093580001266673,0.04959650000091642,0.09956460000830702,0.0984951000136789,0.7509697999921627
RSVPLG03,km,20260212-170222,1.0.2,20251113-095759,759,Practice,T1,1,Automatic,main,10,20260212-170336,local,global,300,S,H,E,A,E-S.png,H-A.png,sS,hH,mask-2.png,mask-1.png,s,1,0.35799270001007244,none,-5,0,0.04886340000666678,0.04943660000571981,0.09833869998692535,0.1011986999947112,0.2987766999867745
RSVPLG03,km,20260212-170222,1.0.2,20251113-095759,759,Practice,T1,1,Automatic,main,11,20260212-170340,local,global,750,S,H,E,E,E-S.png,H-E.png,sS,hH,mask-4.png,mask-4.png,s,1,0.423246599995764,none,-5,0,0.05074449998210184,0.05084860001807101,0.09981230000266805,0.09962829999858513,0.7503801999846473
RSVPLG03,km,20260212-170222,1.0.2,20251113-095759,759,Practice,T1,1,Automatic,main,12,20260212-170345,local,local,750,H,S,E,E,E-H.png,E-S.png,hH,sS,mask-1.png,mask-3.png,h,1,0.4216170999861788,none,-5,0,0.05059410000103526,0.05164089999743737,0.10161110002081841,0.10139589998289011,0.7499142000160646
RSVPLG03,km,20260212-170222,1.0.2,20251113-095759,759,Practice,T1,1,Automatic,main,13,20260212-170349,local,global,300,H,S,E,A,E-H.png,S-A.png,hH,sS,mask-1.png,mask-3.png,h,1,0.41677559999516234,none,-5,0,0.048226999992039055,0.04902030000812374,0.0983645000087563,0.09896630002185702,0.2990986999939196
RSVPLG03,km,20260212-170222,1.0.2,20251113-095759,759,Practice,T1,1,Automatic,main,14,20260212-170353,global,local,300,H,S,A,A,H-A.png,A-S.png,hH,sS,mask-2.png,mask-3.png,h,1,0.48134620001656003,none,-5,0,0.05066479998640716,0.05089450001833029,0.10066210001241416,0.10107170001720078,0.29949209999176674
RSVPLG03,km,20260212-170222,1.0.2,20251113-095759,759,Practice,T1,1,Automatic,main,15,20260212-170357,global,global,750,H,H,A,E,H-A.png,H-E.png,hH,hH,mask-2.png,mask-2.png,h,1,0.21589769999263808,none,-5,0,0.0480012999905739,0.05096549997688271,0.09825879998970777,0.1015058999764733,0.7488765000016429
RSVPLG03,km,20260212-170222,1.0.2,20251113-095759,759,Practice,T1,1,Automatic,main,16,20260212-170401,local,global,750,H,S,E,A,E-H.png,S-A.png,hH,sS,mask-1.png,mask-1.png,h,1,0.3663996000250336,none,-5,0,0.04934170001070015,0.0485284999886062,0.10021160001633689,0.09860810000100173,0.7508044000132941
RSVPLG03,km,20260212-170452,1.0.2,20251113-095759,759,Introduction,Both,1,Automatic,main,1,20260212-170541,local,global,750,H,H,A,A,A-H.png,H-A.png,hH,hH,mask-2.png,mask-2.png,h,1,0.9877980000164825,s,0,1.7100438000052236,0.09977719999733381,0.1005074999993667,0.19974989999900572,0.19999920000554994,0.7498567999864463
RSVPLG03,km,20260212-170452,1.0.2,20251113-095759,759,Introduction,Both,1,Automatic,main,2,20260212-170548,local,local,750,H,S,E,E,E-H.png,E-S.png,hH,sS,mask-3.png,mask-4.png,h,1,0.7192606000171509,s,1,0.6852601999999024,0.09941639998578466,0.09971819998463616,0.19819129997631535,0.20104580000042915,0.7492887999978848
RSVPLG03,km,20260212-170452,1.0.2,20251113-095759,759,Introduction,Both,1,Automatic,main,3,20260212-170553,local,local,750,H,H,A,E,A-H.png,E-H.png,hH,hH,mask-2.png,mask-4.png,h,1,0.46825119998538867,h,1,0.5906001999974251,0.0998799999943003,0.09847460000310093,0.20014679999439977,0.20021529999212362,0.751023399992846
RSVPLG03,km,20260212-170452,1.0.2,20251113-095759,759,Introduction,Both,1,Automatic,main,4,20260212-170559,global,global,750,H,H,E,E,H-E.png,H-E.png,hH,hH,mask-2.png,mask-1.png,h,1,2.10009789999458,h,1,0.7223300999903586,0.09986399998888373,0.09904060000553727,0.1994935999973677,0.20054020002135076,0.750652299990179
RSVPLG03,km,20260212-170452,1.0.2,20251113-095759,759,Introduction,Both,1,Automatic,main,5,20260212-170606,global,local,750,H,H,E,A,H-E.png,A-H.png,hH,hH,mask-1.png,mask-1.png,s,0,0.7509601000056136,h,1,0.6736674999992829,0.1007376000052318,0.09927599999355152,0.20196669999859296,0.1991748999862466,0.751796500000637
RSVPLG03,km,20260212-170452,1.0.2,20251113-095759,759,Introduction,Both,1,Automatic,main,6,20260212-170612,global,global,750,H,S,A,E,H-A.png,S-E.png,hH,sS,mask-4.png,mask-1.png,h,1,1.1266978000057861,h,0,1.170230799994897,0.10124610000639223,0.10002439998788759,0.2007932999986224,0.20067719998769462,0.7521869000047445
RSVPLG03,km,20260212-170452,1.0.2,20251113-095759,759,Introduction,Both,1,Automatic,main,7,20260212-170618,global,global,750,H,H,E,E,H-E.png,H-E.png,hH,hH,mask-3.png,mask-3.png,s,0,0.9506247999961488,s,0,0.5270717999956105,0.10096430001431145,0.09839369999826886,0.20074359999853186,0.20020719998865388,0.7510429000249133
RSVPLG03,km,20260212-170452,1.0.2,20251113-095759,759,Introduction,Both,1,Automatic,main,8,20260212-170624,global,local,750,S,H,E,A,S-E.png,A-H.png,sS,hH,mask-4.png,mask-3.png,s,1,1.4822989999956917,h,1,0.7374654999875929,0.10082779999356717,0.09913599997526035,0.2003277000039816,0.19965369999408722,0.7501724000030663
RSVPLG03,km,20260212-170452,1.0.2,20251113-095759,759,Introduction,Both,1,Automatic,main,9,20260212-170630,local,local,750,S,H,E,E,E-S.png,E-H.png,sS,hH,mask-3.png,mask-1.png,s,1,1.1161312999902293,h,1,0.6415871999925002,0.10002819998771884,0.10020489999442361,0.2005461000080686,0.199093700008234,0.751199499994982
RSVPLG03,km,20260212-170452,1.0.2,20251113-095759,759,Introduction,Both,1,Automatic,main,10,20260212-170637,local,global,750,H,S,A,E,A-H.png,S-E.png,hH,sS,mask-3.png,mask-4.png,h,1,0.8166956000204664,s,1,0.477896199998213,0.09854100001393817,0.09969890001229942,0.2001598000060767,0.1980788000219036,0.7504403000057209
RSVPLG03,km,20260212-170452,1.0.2,20251113-095759,759,Introduction,Both,1,Automatic,main,11,20260212-170642,local,local,750,H,H,E,E,E-H.png,E-H.png,hH,hH,mask-4.png,mask-3.png,h,1,0.48869469997589476,h,1,0.5748422000033315,0.10111109999706969,0.10066719999304041,0.20076030000927858,0.20093540000380017,0.751329299993813
RSVPLG03,km,20260212-170452,1.0.2,20251113-095759,759,Introduction,Both,1,Automatic,main,12,20260212-170648,global,local,750,S,S,A,A,S-A.png,A-S.png,sS,sS,mask-2.png,mask-2.png,s,1,0.29541900000185706,s,1,0.6365405000105966,0.09985779999988154,0.0982864000252448,0.19926189997931942,0.197888900001999,0.7508564999734517
RSVPLG03,km,20260212-170452,1.0.2,20251113-095759,759,Introduction,Both,1,Automatic,main,13,20260212-170653,local,global,750,S,S,A,E,A-S.png,S-E.png,sS,sS,mask-4.png,mask-4.png,none,-6,0,none,-6,0,0.09761940001044422,0.10124240000732243,0.19827630001236685,0.20171620001201518,0.7480095000064466
RSVPLG03,km,20260212-170711,1.0.2,20251113-095759,759,Practice,Both,1,Automatic,main,1,20260212-170740,local,local,300,H,S,E,A,E-H.png,A-S.png,hH,sS,mask-1.png,mask-3.png,h,1,0.5577037000039127,s,1,0.4923656999890227,0.04197089999797754,0.04885490000015125,0.09203229998820461,0.09975650001433678,0.2939786999777425
RSVPLG03,km,20260212-170711,1.0.2,20251113-095759,759,Practice,Both,1,Automatic,main,2,20260212-170745,global,global,300,H,H,A,E,H-A.png,H-E.png,hH,hH,mask-1.png,mask-3.png,h,1,0.49875550001161173,s,0,0.6070299000130035,0.04969099999289028,0.04902000000583939,0.10064560000319034,0.0997192999930121,0.29896489999373443
RSVPLG03,km,20260212-170711,1.0.2,20251113-095759,759,Practice,Both,1,Automatic,main,3,20260212-170749,local,global,300,H,S,A,A,A-H.png,S-A.png,hH,sS,mask-3.png,mask-3.png,h,1,0.5169014999992214,s,1,0.4350807999726385,0.05175110002164729,0.04831179999746382,0.09991820002323948,0.09969619999174029,0.301006400026381
RSVPLG03,km,20260212-170711,1.0.2,20251113-095759,759,Practice,Both,1,Automatic,main,4,20260212-170754,global,local,300,H,H,E,E,H-E.png,E-H.png,hH,hH,mask-4.png,mask-3.png,h,1,1.0308598999981768,h,1,0.5114463999925647,0.051782599999569356,0.05075930000748485,0.10027199998148717,0.10074200000963174,0.29892519998247735
RSVPLG03,km,20260212-170711,1.0.2,20251113-095759,759,Practice,Both,1,Automatic,main,5,20260212-170759,local,global,750,H,S,A,A,A-H.png,S-A.png,hH,sS,mask-1.png,mask-2.png,h,1,0.7614985999825876,h,0,0.39892300000065006,0.05022309999912977,0.048496500006876886,0.09921659997780807,0.09908049998921342,0.751385699986713
RSVPLG03,km,20260212-170711,1.0.2,20251113-095759,759,Practice,Both,1,Automatic,main,6,20260212-170805,local,global,750,S,H,E,A,E-S.png,H-A.png,sS,hH,mask-4.png,mask-1.png,s,1,0.43982770000002347,h,1,0.4318708000064362,0.050533900008304045,0.0510861000220757,0.1011935000133235,0.09919989999616519,0.7505613999965135
RSVPLG03,km,20260212-170711,1.0.2,20251113-095759,759,Practice,Both,1,Automatic,main,7,20260212-170810,global,global,300,S,H,E,A,S-E.png,H-A.png,sS,hH,mask-1.png,mask-2.png,s,1,0.9480840000032913,h,1,0.4133659000217449,0.04916590001084842,0.049963400000706315,0.09966270002769306,0.09996379999211058,0.3007303000194952
RSVPLG03,km,20260212-170711,1.0.2,20251113-095759,759,Practice,Both,1,Automatic,main,8,20260212-170815,global,local,750,H,H,E,A,H-E.png,A-H.png,hH,hH,mask-3.png,mask-3.png,s,0,1.0653412999818102,h,1,0.4330045999959111,0.050801800010958686,0.05047049999120645,0.09936930000549182,0.10037279999232851,0.750771299994085
RSVPLG03,km,20260212-170711,1.0.2,20251113-095759,759,Practice,Both,1,Automatic,main,9,20260212-170820,local,global,300,S,S,E,E,E-S.png,S-E.png,sS,sS,mask-1.png,mask-2.png,s,1,1.170404199976474,h,0,0.5417198999784887,0.050317499990342185,0.050505699997302145,0.09967980001238175,0.0999860999872908,0.3008126000058837
RSVPLG03,km,20260212-170711,1.0.2,20251113-095759,759,Practice,Both,1,Automatic,main,10,20260212-170826,global,global,750,H,S,E,E,H-E.png,S-E.png,hH,sS,mask-1.png,mask-4.png,s,0,2.859275200025877,s,1,0.3668185000133235,0.05076470001949929,0.050218100019264966,0.10037490000831895,0.10048450002796017,0.7501906999968924
RSVPLG03,km,20260212-170711,1.0.2,20251113-095759,759,Practice,Both,1,Automatic,main,11,20260212-170833,global,global,750,S,S,A,A,S-A.png,S-A.png,sS,sS,mask-1.png,mask-4.png,s,1,1.0441634000162594,h,0,0.36697870001080446,0.050797600008081645,0.0509242000116501,0.10089619999052957,0.10186570000951178,0.7506959000020288
RSVPLG03,km,20260212-170711,1.0.2,20251113-095759,759,Practice,Both,1,Automatic,main,12,20260212-170839,local,local,300,H,H,E,A,E-H.png,A-H.png,hH,hH,mask-2.png,mask-1.png,h,1,0.9807304000132717,s,0,0.5292519000067841,0.04751360000227578,0.0490499000006821,0.09873030000017025,0.09983329998794943,0.2991328999924008
RSVPLG03,km,20260212-170711,1.0.2,20251113-095759,759,Practice,Both,1,Automatic,main,13,20260212-170844,global,local,300,S,S,E,A,S-E.png,A-S.png,sS,sS,mask-1.png,mask-2.png,h,0,1.1875398999836762,s,1,0.39900040000793524,0.049656899995170534,0.049169399979291484,0.09939790001953952,0.10037219998775981,0.2996525000198744
RSVPLG03,km,20260212-170711,1.0.2,20251113-095759,759,Practice,Both,1,Automatic,main,14,20260212-170849,local,local,750,S,S,A,E,A-S.png,E-S.png,sS,sS,mask-1.png,mask-3.png,h,0,1.3128723000118043,s,1,0.2383642999920994,0.04948560000048019,0.04869409999810159,0.10023199999704957,0.09954319999087602,0.750973599991994
RSVPLG03,km,20260212-170711,1.0.2,20251113-095759,759,Practice,Both,1,Automatic,main,15,20260212-170855,global,local,750,H,S,E,E,H-E.png,E-S.png,hH,sS,mask-3.png,mask-2.png,s,0,0.4274612999870442,s,1,0.4331190999946557,0.04893839999567717,0.05224490002728999,0.09952580000390299,0.1010971000068821,0.7485527999815531
RSVPLG03,km,20260212-170711,1.0.2,20251113-095759,759,Practice,Both,1,Automatic,main,16,20260212-170900,local,local,750,H,S,E,A,E-H.png,A-S.png,hH,sS,mask-4.png,mask-2.png,s,0,0.3668755999824498,s,1,0.5757741999987047,0.04985549999400973,0.04676080000353977,0.09980460000224411,0.09806750001735054,0.7509131999977399
RSVPLG03,km,20260212-170922,1.0.2,20251113-095759,759,Practice,Both,1,Automatic,main,1,20260212-170940,local,global,750,S,H,E,A,E-S.png,H-A.png,sS,hH,mask-1.png,mask-2.png,s,1,0.40004040001076646,h,1,0.39655150001635775,0.04492069999105297,0.05037609999999404,0.09431190000032075,0.10159790000761859,0.7457988999958616
RSVPLG03,km,20260212-170922,1.0.2,20251113-095759,759,Practice,Both,1,Automatic,main,2,20260212-170945,local,global,300,S,S,A,E,A-S.png,S-E.png,sS,sS,mask-1.png,mask-2.png,s,1,0.5021944000036456,h,0,0.30072450000443496,0.04890880000311881,0.050139800005126745,0.09864360000938177,0.10151010000845417,0.3000358999997843
RSVPLG03,km,20260212-170922,1.0.2,20251113-095759,759,Practice,Both,1,Automatic,main,3,20260212-170950,global,global,750,S,S,A,E,S-A.png,S-E.png,sS,sS,mask-3.png,mask-4.png,s,1,1.5250585000030696,s,1,0.41320330000598915,0.05081909999717027,0.05098010000074282,0.10162830000626855,0.10074789999634959,0.7521410000044852
RSVPLG03,km,20260212-170922,1.0.2,20251113-095759,759,Practice,Both,1,Automatic,main,4,20260212-170956,local,local,750,S,S,A,E,A-S.png,E-S.png,sS,sS,mask-2.png,mask-1.png,s,1,2.1840149000054225,h,0,0.2396998999756761,0.04970000000321306,0.04966889999923296,0.0986001999990549,0.10044049998396076,0.751086000003852
RSVPLG03,km,20260212-170922,1.0.2,20251113-095759,759,Practice,Both,1,Automatic,main,5,20260212-171002,local,local,300,S,H,A,A,A-S.png,A-H.png,sS,hH,mask-3.png,mask-1.png,s,1,0.6136501000146382,h,1,0.3675894000043627,0.050298400019528344,0.0507997999957297,0.10022620001109317,0.10021449998021126,0.2996333000191953
RSVPLG03,km,20260212-170922,1.0.2,20251113-095759,759,Practice,Both,1,Automatic,main,6,20260212-171007,global,global,750,H,S,E,E,H-E.png,S-E.png,hH,sS,mask-4.png,mask-1.png,h,1,0.7171466999861877,s,1,0.718302199995378,0.04860010000993498,0.049308499990729615,0.09984629999962635,0.09916630000225268,0.7519514000159688
RSVPLG03,km,20260212-170922,1.0.2,20251113-095759,759,Practice,Both,1,Automatic,main,7,20260212-171013,local,global,750,H,H,A,A,A-H.png,H-A.png,hH,hH,mask-4.png,mask-3.png,h,1,0.9218756000045687,h,1,0.33576519999769516,0.05004549998557195,0.05077510001137853,0.09969569998793304,0.10127300000749528,0.7495936999912374
RSVPLG03,km,20260212-170922,1.0.2,20251113-095759,759,Practice,Both,1,Automatic,main,8,20260212-171018,global,local,750,S,S,A,E,S-A.png,E-S.png,sS,sS,mask-4.png,mask-1.png,s,1,0.6173105000052601,s,1,0.3186392999778036,0.050985599984414876,0.05156120000174269,0.10105040000053123,0.10272010002518073,0.7513011999835726
RSVPLG03,km,20260212-170922,1.0.2,20251113-095759,759,Practice,Both,1,Automatic,main,9,20260212-171023,global,local,300,H,H,E,A,H-E.png,A-H.png,hH,hH,mask-4.png,mask-3.png,s,0,0.8840568000159692,h,1,0.23979389999294654,0.05127219998394139,0.047976400004699826,0.09855510000488721,0.09941779999644496,0.3012460999889299
RSVPLG03,km,20260212-170922,1.0.2,20251113-095759,759,Practice,Both,1,Automatic,main,10,20260212-171028,global,global,300,H,H,A,A,H-A.png,H-A.png,hH,hH,mask-4.png,mask-3.png,h,1,0.8036929000227246,h,1,0.3361356000241358,0.05071799998404458,0.05005890000029467,0.09961969999130815,0.099849299993366,0.2999534999835305
RSVPLG03,km,20260212-170922,1.0.2,20251113-095759,759,Practice,Both,1,Automatic,main,11,20260212-171033,local,local,300,S,H,E,E,E-S.png,E-H.png,sS,hH,mask-3.png,mask-1.png,s,1,1.112560100009432,h,1,0.25548439999693073,0.04931920001399703,0.05061790000763722,0.10132800001883879,0.10074840000015683,0.30066599999554455
RSVPLG03,km,20260212-170922,1.0.2,20251113-095759,759,Practice,Both,1,Automatic,main,12,20260212-171038,global,local,750,S,H,A,E,S-A.png,E-H.png,sS,hH,mask-3.png,mask-4.png,s,1,0.8603417999984231,h,1,0.36722400001599453,0.04928239999571815,0.049443399999290705,0.09884759999113157,0.09888750000391155,0.7519292999932077
RSVPLG03,km,20260212-170922,1.0.2,20251113-095759,759,Practice,Both,1,Automatic,main,13,20260212-171044,local,local,750,S,S,A,E,A-S.png,E-S.png,sS,sS,mask-4.png,mask-1.png,s,1,0.8385588999954052,s,1,0.3379658999911044,0.05162339998059906,0.04839340000762604,0.10140949999913573,0.10049320000689477,0.7523820999776945
RSVPLG03,km,20260212-170922,1.0.2,20251113-095759,759,Practice,Both,1,Automatic,main,14,20260212-171049,global,global,300,S,S,A,A,S-A.png,S-A.png,sS,sS,mask-2.png,mask-3.png,h,0,0.8160228000197094,s,1,0.25440720000187866,0.05125560000305995,0.049615399999311194,0.10220749999280088,0.09940030000871047,0.3019808999961242
RSVPLG03,km,20260212-170922,1.0.2,20251113-095759,759,Practice,Both,1,Automatic,main,15,20260212-171054,global,local,300,S,S,A,E,S-A.png,E-S.png,sS,sS,mask-2.png,mask-2.png,s,1,0.42749849997926503,s,1,0.2856510999845341,0.04760209997766651,0.04908230001456104,0.09882279997691512,0.09787340002367273,0.3010420999780763
RSVPLG03,km,20260212-170922,1.0.2,20251113-095759,759,Practice,Both,1,Automatic,main,16,20260212-171058,local,global,300,S,H,E,A,E-S.png,H-A.png,sS,hH,mask-2.png,mask-1.png,s,1,0.7918964000127744,h,1,0.1943336999975145,0.04953630000818521,0.04937480000080541,0.1013290999981109,0.09901619999436662,0.30156089999945834
RSVPLG03,km,20260212-171137,1.0.2,20251113-095759,759,Experiment,Both,1,Automatic,warmup,1,20260212-171211,local,global,300,H,H,A,A,A-H.png,H-A.png,hH,hH,mask-4.png,mask-3.png,h,1,0.6968570000026375,s,0,0.047376600006828085,0.04417129998910241,0.05031389999203384,0.09535439999308437,0.09929400001419708,0.29564709999249317
RSVPLG03,km,20260212-171137,1.0.2,20251113-095759,759,Experiment,Both,1,Automatic,warmup,2,20260212-171215,global,local,300,S,H,A,E,S-A.png,E-H.png,sS,hH,mask-4.png,mask-1.png,s,1,0.3519953000068199,h,1,0.2719420999928843,0.048714700009441,0.049052099988330156,0.09985490000690334,0.10079210001276806,0.30172180000226945
RSVPLG03,km,20260212-171137,1.0.2,20251113-095759,759,Experiment,Both,1,Automatic,warmup,3,20260212-171220,local,local,300,H,H,A,E,A-H.png,E-H.png,hH,hH,mask-2.png,mask-2.png,h,1,0.5168308999855071,s,0,0.20702880001044832,0.050265500001842156,0.04897109998273663,0.10016420000465587,0.09998060000361875,0.30223380000097677
RSVPLG03,km,20260212-171137,1.0.2,20251113-095759,759,Experiment,Both,1,Automatic,warmup,4,20260212-171224,local,local,750,S,H,A,A,A-S.png,A-H.png,sS,hH,mask-2.png,mask-4.png,s,1,0.4639579000067897,h,1,0.30453920000582,0.04822929998044856,0.05025880000903271,0.09849039997789077,0.10154299999703653,0.7508729999826755
RSVPLG03,km,20260212-171137,1.0.2,20251113-095759,759,Experiment,Both,1,Automatic,main,5,20260212-171229,local,global,750,S,S,A,E,A-S.png,S-E.png,sS,sS,mask-3.png,mask-3.png,s,1,0.49153490000753663,h,0,0.2565802999888547,0.05022909998660907,0.04931509998277761,0.1003807999950368,0.09960970000247471,0.7543306000006851
RSVPLG03,km,20260212-171137,1.0.2,20251113-095759,759,Experiment,Both,1,Automatic,main,6,20260212-171234,global,global,300,H,S,E,A,H-E.png,S-A.png,hH,sS,mask-1.png,mask-1.png,s,0,0.6521340000035707,s,1,0.25345129999914207,0.051243599998997524,0.050233099987963215,0.10180549998767674,0.10164870001608506,0.30138479999732226
RSVPLG03,km,20260212-171137,1.0.2,20251113-095759,759,Experiment,Both,1,Automatic,main,7,20260212-171239,global,global,750,S,S,E,E,S-E.png,S-E.png,sS,sS,mask-3.png,mask-3.png,h,0,1.3287818000244442,s,1,0.20690089999698102,0.04864550000638701,0.05034529999829829,0.09819449999486096,0.09992370000691153,0.7508018999942578
RSVPLG03,km,20260212-171137,1.0.2,20251113-095759,759,Experiment,Both,1,Automatic,main,8,20260212-171244,local,global,750,H,S,A,A,A-H.png,S-A.png,hH,sS,mask-2.png,mask-2.png,h,1,0.715583199984394,s,1,0.35342599998693913,0.049914600007468835,0.05032089998712763,0.09947149999788962,0.10147709999000654,0.7526014000177383
RSVPLG03,km,20260212-171137,1.0.2,20251113-095759,759,Experiment,Both,1,Automatic,main,9,20260212-171249,global,local,300,S,H,A,A,S-A.png,A-H.png,sS,hH,mask-3.png,mask-2.png,s,1,1.2545565000036731,h,1,0.31693000000086613,0.050929300021380186,0.051409300009254366,0.10115960001712665,0.0990894999995362,0.3019213000079617
RSVPLG03,km,20260212-171137,1.0.2,20251113-095759,759,Experiment,Both,1,Automatic,main,10,20260212-171255,global,global,300,S,S,E,A,S-E.png,S-A.png,sS,sS,mask-4.png,mask-3.png,s,1,0.6733342999941669,h,0,0.27042650000657886,0.05048249999526888,0.05067699999199249,0.10113269998691976,0.10085889999754727,0.30130479999934323
RSVPLG03,km,20260212-171137,1.0.2,20251113-095759,759,Experiment,Both,1,Automatic,main,11,20260212-171259,local,local,300,S,H,E,A,E-S.png,A-H.png,sS,hH,mask-2.png,mask-2.png,s,1,0.6964793999795802,s,0,0.34948510001413524,0.05038939998485148,0.050237599993124604,0.10068989999126643,0.09964459997718222,0.30218450000393204
RSVPLG03,km,20260212-171137,1.0.2,20251113-095759,759,Experiment,Both,1,Automatic,main,12,20260212-171304,global,local,750,H,H,E,A,H-E.png,A-H.png,hH,hH,mask-2.png,mask-4.png,h,1,1.013353799993638,s,0,0.2256723000027705,0.048265499994158745,0.05024720000801608,0.09956539998529479,0.10004640000988729,0.75205409998307
RSVPLG03,km,20260212-171137,1.0.2,20251113-095759,759,Experiment,Both,1,Automatic,main,13,20260212-171310,global,local,750,S,S,E,E,S-E.png,E-S.png,sS,sS,mask-3.png,mask-4.png,s,1,0.8396972000191454,s,1,0.2902108999842312,0.050409500021487474,0.04946650000056252,0.09938339999644086,0.09924490001867525,0.7517126000020653
RSVPLG03,km,20260212-171137,1.0.2,20251113-095759,759,Experiment,Both,1,Automatic,main,14,20260212-171315,global,global,750,H,S,A,E,H-A.png,S-E.png,hH,sS,mask-1.png,mask-3.png,h,1,0.6906867999932729,s,1,0.26915060001192614,0.050504000013461336,0.04900579998502508,0.09961080001085065,0.09937529999297112,0.752940700011095
RSVPLG03,km,20260212-171137,1.0.2,20251113-095759,759,Experiment,Both,1,Automatic,main,15,20260212-171320,global,local,750,S,S,E,A,S-E.png,A-S.png,sS,sS,mask-2.png,mask-3.png,s,1,0.620149099995615,h,0,0.24060159997316077,0.05021479999413714,0.04898970000795089,0.09822429998894222,0.09782259998610243,0.752511400001822
RSVPLG03,km,20260212-171137,1.0.2,20251113-095759,759,Experiment,Both,1,Automatic,main,16,20260212-171325,local,local,300,S,S,A,E,A-S.png,E-S.png,sS,sS,mask-4.png,mask-3.png,s,1,0.5739837000146508,s,1,0.254920499981381,0.04969569999957457,0.04968440000084229,0.10033469999325462,0.10049160002381541,0.30048569999053143
RSVPLG03,km,20260212-171137,1.0.2,20251113-095759,759,Experiment,Both,1,Automatic,main,17,20260212-171330,global,global,750,H,S,E,A,H-E.png,S-A.png,hH,sS,mask-3.png,mask-4.png,s,0,0.8477317999931984,s,1,0.25513239999418147,0.04986440000357106,0.04963220001081936,0.09946319999289699,0.10056089999852702,0.7527609999815468
RSVPLG03,km,20260212-171137,1.0.2,20251113-095759,759,Experiment,Both,1,Automatic,main,18,20260212-171335,local,global,300,S,S,A,A,A-S.png,S-A.png,sS,sS,mask-3.png,mask-2.png,h,0,1.0788037999882363,s,1,0.46397369998157956,0.05017130001215264,0.04873710000538267,0.09974919998785481,0.09951990001718514,0.3026411999890115
RSVPLG03,km,20260212-171137,1.0.2,20251113-095759,759,Experiment,Both,1,Automatic,main,19,20260212-171340,global,global,750,H,S,A,A,H-A.png,S-A.png,hH,sS,mask-2.png,mask-4.png,h,1,0.8936822999967262,s,1,0.20729260001098737,0.04927059999317862,0.05020289999083616,0.10054119999404065,0.10025700001278892,0.7528096000023652
RSVPLG03,km,20260212-171137,1.0.2,20251113-095759,759,Experiment,Both,1,Automatic,main,20,20260212-171345,global,local,300,H,S,E,E,H-E.png,E-S.png,hH,sS,mask-2.png,mask-4.png,h,1,0.6822183999756817,s,1,0.22530570000526495,0.04964290000498295,0.050712900003418326,0.0998931999783963,0.10139120000530966,0.30112359998747706
RSVPLG03,km,20260212-171137,1.0.2,20251113-095759,759,Experiment,Both,1,Automatic,main,21,20260212-171350,local,local,300,S,S,A,A,A-S.png,A-S.png,sS,sS,mask-3.png,mask-4.png,h,0,0.6221081999829039,s,1,0.5095739999960642,0.04797459999099374,0.05038830000557937,0.10051590000512078,0.10072819999186322,0.2997973999881651
RSVPLG03,km,20260212-171137,1.0.2,20251113-095759,759,Experiment,Both,1,Automatic,main,22,20260212-171355,local,global,300,H,H,E,A,E-H.png,H-A.png,hH,hH,mask-2.png,mask-4.png,h,1,2.005632600019453,s,0,0.12663230000180192,0.05072759999893606,0.04966069999500178,0.10080099999322556,0.09739709997666068,0.3026270999980625
RSVPLG03,km,20260212-171137,1.0.2,20251113-095759,759,Experiment,Both,1,Automatic,main,23,20260212-171401,local,local,750,S,H,A,A,A-S.png,A-H.png,sS,hH,mask-1.png,mask-1.png,s,1,0.7826812000130303,s,0,0.3067399999999907,0.04876369997509755,0.048646299983374774,0.10027579998131841,0.10055929998634383,0.7529035999905318
RSVPLG03,km,20260212-171137,1.0.2,20251113-095759,759,Experiment,Both,1,Automatic,main,24,20260212-171406,local,global,300,H,H,E,A,E-H.png,H-A.png,hH,hH,mask-4.png,mask-4.png,h,1,0.7257035999791697,s,0,0.16265839998959564,0.04951539999456145,0.050092299992684275,0.10011149998172186,0.09987959999125451,0.29973009999957867
RSVPLG03,km,20260212-171137,1.0.2,20251113-095759,759,Experiment,Both,1,Automatic,main,25,20260212-171411,local,local,750,S,H,A,A,A-S.png,A-H.png,sS,hH,mask-2.png,mask-2.png,s,1,0.8703652999829501,h,1,0.24028600001474842,0.049216799990972504,0.050465800013625994,0.09913759998744354,0.10063910001190379,0.7514780999918003
RSVPLG03,km,20260212-171137,1.0.2,20251113-095759,759,Experiment,Both,1,Automatic,main,26,20260212-171423,local,local,300,H,S,A,A,A-H.png,A-S.png,hH,sS,mask-1.png,mask-1.png,h,1,0.7087762999872211,s,1,0.22511140001006424,0.050874600012321025,0.049127900012535974,0.10175339999841526,0.09968720001052134,0.3015011000097729
RSVPLG03,km,20260212-171137,1.0.2,20251113-095759,759,Experiment,Both,1,Automatic,main,27,20260212-171428,global,global,300,H,H,E,E,H-E.png,H-E.png,hH,hH,mask-3.png,mask-2.png,h,1,0.649268100009067,h,1,0.23748420001356862,0.04850160001660697,0.05097429998568259,0.10016080000787042,0.10111479999613948,0.29923110001254827
RSVPLG03,km,20260212-171137,1.0.2,20251113-095759,759,Experiment,Both,1,Automatic,main,28,20260212-171433,local,global,750,H,S,A,E,A-H.png,S-E.png,hH,sS,mask-2.png,mask-1.png,h,1,0.901522300002398,h,0,0.301737800007686,0.050690899981418625,0.04900520000956021,0.09984079998685047,0.10152969998307526,0.7514972999924794
RSVPLG03,km,20260212-171137,1.0.2,20251113-095759,759,Experiment,Both,1,Automatic,main,29,20260212-171438,local,global,750,S,H,A,E,A-S.png,H-E.png,sS,hH,mask-4.png,mask-1.png,s,1,0.6548526000115089,s,0,0.2693847000191454,0.04964380001183599,0.05168679999769665,0.0998072000220418,0.10155870000016876,0.7511709000100382
RSVPLG03,km,20260212-171137,1.0.2,20251113-095759,759,Experiment,Both,1,Automatic,main,30,20260212-171443,local,global,300,S,H,A,A,A-S.png,H-A.png,sS,hH,mask-4.png,mask-3.png,h,0,0.7472596000006888,s,0,0.19131180000840686,0.0524440000008326,0.04951939999591559,0.10145689998171292,0.09884039999451488,0.30278070000349544
RSVPLG03,km,20260212-171137,1.0.2,20251113-095759,759,Experiment,Both,1,Automatic,main,31,20260212-171448,local,global,300,S,S,A,A,A-S.png,S-A.png,sS,sS,mask-3.png,mask-2.png,s,1,0.6602614000148606,h,0,0.19400620000669733,0.04866919998312369,0.0512680999818258,0.09941569998045452,0.10087769999518059,0.2985793999978341
RSVPLG03,km,20260212-171137,1.0.2,20251113-095759,759,Experiment,Both,1,Automatic,main,32,20260212-171452,global,local,300,H,S,E,A,H-E.png,A-S.png,hH,sS,mask-4.png,mask-4.png,h,1,1.019384400016861,s,1,0.4175935999955982,0.04961710001225583,0.05054830000153743,0.0987909999967087,0.10023680000449531,0.2989999999990687
RSVPLG03,km,20260212-171137,1.0.2,20251113-095759,759,Experiment,Both,1,Automatic,main,33,20260212-171457,local,local,750,H,H,A,A,A-H.png,A-H.png,hH,hH,mask-4.png,mask-4.png,h,1,0.5441053000104148,h,1,0.2743209000036586,0.050404999987222254,0.05113810001057573,0.10120289999758825,0.09948790000635199,0.7518292999884579
RSVPLG03,km,20260212-171137,1.0.2,20251113-095759,759,Experiment,Both,1,Automatic,main,34,20260212-171502,local,global,300,S,S,E,A,E-S.png,S-A.png,sS,sS,mask-3.png,mask-2.png,h,0,0.7389408999879379,s,1,0.6420641999866348,0.05019660000107251,0.050163499981863424,0.09998599998652935,0.10110319999512285,0.3006148000131361
RSVPLG03,km,20260212-171137,1.0.2,20251113-095759,759,Experiment,Both,1,Automatic,main,35,20260212-171508,global,global,300,S,S,E,A,S-E.png,S-A.png,sS,sS,mask-2.png,mask-4.png,s,1,1.1711790999979712,h,0,0.13105289998929948,0.04992719998699613,0.04897410000558011,0.10092619998613372,0.0990250000031665,0.3017676999734249
RSVPLG03,km,20260212-171137,1.0.2,20251113-095759,759,Experiment,Both,1,Automatic,main,36,20260212-171513,global,local,300,S,H,E,A,S-E.png,A-H.png,sS,hH,mask-4.png,mask-4.png,s,1,1.1069864000019152,s,0,0.17898359999526292,0.0489192999957595,0.049081800010753796,0.0992209000105504,0.09904739999910817,0.3007527999870945
RSVPLG03,km,20260212-171137,1.0.2,20251113-095759,759,Experiment,Both,1,Automatic,main,37,20260212-171518,local,local,300,H,H,A,E,A-H.png,E-H.png,hH,hH,mask-2.png,mask-1.png,h,1,0.9294036999926902,s,0,0.1619864999956917,0.04831109999213368,0.05123670000466518,0.09824980000848882,0.1005762999993749,0.2989901000109967
RSVPLG03,km,20260212-171137,1.0.2,20251113-095759,759,Experiment,Both,1,Automatic,main,38,20260212-171522,local,global,300,S,S,E,A,E-S.png,S-A.png,sS,sS,mask-3.png,mask-2.png,s,1,1.9279788999992888,h,0,0.23918139998568222,0.050403299974277616,0.05069000000366941,0.10089859997970052,0.10087019999627955,0.3006880999892019
RSVPLG03,km,20260212-171137,1.0.2,20251113-095759,759,Experiment,Both,1,Automatic,main,39,20260212-171528,local,global,750,H,S,A,A,A-H.png,S-A.png,hH,sS,mask-1.png,mask-1.png,h,1,0.9252522999886423,h,0,0.23832210002001375,0.05013710001367144,0.049278699996648356,0.09995540001546033,0.09861260000616312,0.7524772000033408
RSVPLG03,km,20260212-171137,1.0.2,20251113-095759,759,Experiment,Both,1,Automatic,main,40,20260212-171534,local,local,750,S,H,A,E,A-S.png,E-H.png,sS,hH,mask-4.png,mask-3.png,s,1,0.56584440000006,h,1,0.2735134999966249,0.046626900002593175,0.05084909999277443,0.09676300000865012,0.10060050000902265,0.7490375000052154
RSVPLG03,km,20260212-171137,1.0.2,20251113-095759,759,Experiment,Both,1,Automatic,main,41,20260212-171539,global,local,300,S,S,A,A,S-A.png,A-S.png,sS,sS,mask-1.png,mask-3.png,s,1,1.1053660000034142,h,0,0.23948839999502525,0.0496176999877207,0.049647899984847754,0.09982059997855686,0.10078979999525473,0.30082199999014847
RSVPLG03,km,20260212-171137,1.0.2,20251113-095759,759,Experiment,Both,1,Automatic,main,42,20260212-171544,local,global,750,S,H,E,E,E-S.png,H-E.png,sS,hH,mask-4.png,mask-1.png,s,1,0.8097156999865547,h,1,0.15971569999237545,0.04900679999263957,0.04986349999671802,0.09928160000708885,0.09987159998854622,0.752078799996525
RSVPLG03,km,20260212-171137,1.0.2,20251113-095759,759,Experiment,Both,1,Automatic,main,43,20260212-171549,local,local,750,H,H,A,E,A-H.png,E-H.png,hH,hH,mask-4.png,mask-4.png,h,1,0.4250152999884449,h,1,0.19331119998241775,0.04945709998719394,0.05055660000653006,0.09883639999316074,0.10120500001357868,0.7510491999855731
RSVPLG03,km,20260212-171137,1.0.2,20251113-095759,759,Experiment,Both,1,Automatic,main,44,20260212-171554,global,local,750,S,H,E,A,S-E.png,A-H.png,sS,hH,mask-3.png,mask-2.png,h,0,0.7443558999802917,s,0,0.16299129999242723,0.04925250000087544,0.049379700009012595,0.09919079998508096,0.09978489999775775,0.7518365999858361
RSVPLG03,km,20260212-171137,1.0.2,20251113-095759,759,Experiment,Both,1,Automatic,main,45,20260212-171559,global,global,300,S,S,A,A,S-A.png,S-A.png,sS,sS,mask-4.png,mask-3.png,s,1,0.632767100003548,h,0,0.1427620000031311,0.05016569999861531,0.049704300006851554,0.10049079998861998,0.1008649000141304,0.3017305999819655
RSVPLG03,km,20260212-171137,1.0.2,20251113-095759,759,Experiment,Both,1,Automatic,main,46,20260212-171603,global,global,750,S,S,A,A,S-A.png,S-A.png,sS,sS,mask-3.png,mask-2.png,s,1,1.2831925000064075,s,1,0.12659210001584142,0.05022689999896102,0.05123830001684837,0.10007240000413731,0.10121730001992546,0.7512423000007402
RSVPLG03,km,20260212-171137,1.0.2,20251113-095759,759,Experiment,Both,1,Automatic,main,47,20260212-171609,local,local,300,S,S,E,A,E-S.png,A-S.png,sS,sS,mask-3.png,mask-3.png,s,1,0.47998350000125356,h,0,0.22265879999031313,0.049750200007110834,0.047868499998003244,0.1001391000172589,0.10081019997596741,0.30155610002111644
RSVPLG03,km,20260212-171137,1.0.2,20251113-095759,759,Experiment,Both,1,Automatic,main,48,20260212-171613,local,global,750,H,S,A,A,A-H.png,S-A.png,hH,sS,mask-3.png,mask-3.png,h,1,2.5358452000073157,s,1,0.38622610000311397,0.04879050000454299,0.049661199998809025,0.09917140001198277,0.10042729999986477,0.7528184000111651
RSVPLG03,km,20260212-171137,1.0.2,20251113-095759,759,Experiment,Both,1,Automatic,main,49,20260212-171620,global,global,300,H,S,A,A,H-A.png,S-A.png,hH,sS,mask-1.png,mask-2.png,h,1,0.9047675000037998,s,1,0.19057380000595003,0.051222600013716146,0.051607900008093566,0.10150790002080612,0.10127790001570247,0.30076939999707974
RSVPLG03,km,20260212-171137,1.0.2,20251113-095759,759,Experiment,Both,1,Automatic,main,50,20260212-171625,local,global,300,S,H,E,E,E-S.png,H-E.png,sS,hH,mask-2.png,mask-1.png,s,1,0.9049537000246346,h,1,0.1607166000176221,0.04905990001861937,0.04952120000962168,0.09890610000002198,0.09931109999888577,0.30055539999739267
RSVPLG03,km,20260212-171137,1.0.2,20251113-095759,759,Experiment,Both,1,Automatic,main,51,20260212-171637,global,local,750,H,S,E,A,H-E.png,A-S.png,hH,sS,mask-1.png,mask-4.png,h,1,1.480243199999677,h,0,0.16061749999062158,0.0510601999994833,0.04982899999595247,0.10155699998722412,0.09917010000208393,0.7543191000004299
RSVPLG03,km,20260212-171137,1.0.2,20251113-095759,759,Experiment,Both,1,Automatic,main,52,20260212-171643,global,local,750,S,H,A,E,S-A.png,E-H.png,sS,hH,mask-2.png,mask-1.png,s,1,0.41520780001883395,s,0,0.1744627999723889,0.04994920000899583,0.04813589999685064,0.09999660000903532,0.09863409999525174,0.7532800000044517
RSVPLG03,km,20260212-171137,1.0.2,20251113-095759,759,Experiment,Both,1,Automatic,main,53,20260212-171648,global,global,750,H,H,E,A,H-E.png,H-A.png,hH,hH,mask-2.png,mask-1.png,h,1,0.7714591000112705,h,1,0.1437980999762658,0.05030840000836179,0.050639099994441494,0.10008800000650808,0.10082870000042021,0.7517847999988589
RSVPLG03,km,20260212-171137,1.0.2,20251113-095759,759,Experiment,Both,1,Automatic,main,54,20260212-171653,global,local,300,H,H,A,A,H-A.png,A-H.png,hH,hH,mask-2.png,mask-3.png,h,1,1.140951600013068,s,0,0.11072900000726804,0.050790200009942055,0.04968310002004728,0.1007382000098005,0.10099090001313016,0.301280499988934
RSVPLG03,km,20260212-171137,1.0.2,20251113-095759,759,Experiment,Both,1,Automatic,main,55,20260212-171658,global,global,750,S,H,E,A,S-E.png,H-A.png,sS,hH,mask-2.png,mask-3.png,s,1,0.8013852000003681,h,1,0.17423499998403713,0.04974300001049414,0.05029849999118596,0.10187790001509711,0.09906649999902584,0.7533219000033569
RSVPLG03,km,20260212-171137,1.0.2,20251113-095759,759,Experiment,Both,1,Automatic,main,56,20260212-171703,global,global,300,S,S,A,E,S-A.png,S-E.png,sS,sS,mask-4.png,mask-4.png,s,1,0.5661315000033937,s,1,0.12536820000968874,0.048770699999295175,0.05081619997508824,0.09853749998728745,0.10072099999524653,0.2994936000031885
RSVPLG03,km,20260212-171137,1.0.2,20251113-095759,759,Experiment,Both,1,Automatic,main,57,20260212-171708,global,global,300,H,H,A,A,H-A.png,H-A.png,hH,hH,mask-3.png,mask-1.png,h,1,0.7011849000118673,h,1,0.12867729997378774,0.05172889999812469,0.04947410000022501,0.10153549999813549,0.09953969999332912,0.30289449999690987
RSVPLG03,km,20260212-171137,1.0.2,20251113-095759,759,Experiment,Both,1,Automatic,main,58,20260212-171712,global,global,750,S,H,E,A,S-E.png,H-A.png,sS,hH,mask-3.png,mask-3.png,s,1,0.9084705999994185,h,1,0.14340859997901134,0.05141449999064207,0.049030000023776665,0.1000550999888219,0.10055280002416112,0.7525968999834731
RSVPLG03,km,20260212-171137,1.0.2,20251113-095759,759,Experiment,Both,1,Automatic,main,59,20260212-171717,local,local,750,S,S,A,A,A-S.png,A-S.png,sS,sS,mask-4.png,mask-2.png,s,1,0.5567152000148781,s,1,0.11103420000290498,0.05119859997648746,0.049865600012708455,0.10138320000260137,0.099684899993008,0.7526628999912646
RSVPLG03,km,20260212-171137,1.0.2,20251113-095759,759,Experiment,Both,1,Automatic,main,60,20260212-171722,global,global,300,S,S,A,A,S-A.png,S-A.png,sS,sS,mask-3.png,mask-2.png,s,1,0.537871400010772,s,1,0.11367289998452179,0.04971570000634529,0.05007510000723414,0.09978309998405166,0.1005083000054583,0.2990988999954425
RSVPLG03,km,20260212-171137,1.0.2,20251113-095759,759,Experiment,Both,1,Automatic,main,61,20260212-171727,local,local,750,H,H,E,E,E-H.png,E-H.png,hH,hH,mask-3.png,mask-3.png,h,1,0.6671934000041801,h,1,0.07922220000182278,0.05128389998571947,0.0519512000028044,0.10168229998089373,0.10040769999613985,0.7522266999876592
RSVPLG03,km,20260212-171137,1.0.2,20251113-095759,759,Experiment,Both,1,Automatic,main,62,20260212-171732,global,global,750,S,H,A,E,S-A.png,H-E.png,sS,hH,mask-2.png,mask-3.png,s,1,0.81065829997533,h,1,0.1752134999842383,0.05154640000546351,0.049113000015495345,0.10030120000010356,0.09917940001469105,0.7537294999929145
RSVPLG03,km,20260212-171137,1.0.2,20251113-095759,759,Experiment,Both,1,Automatic,main,63,20260212-171737,global,local,300,H,H,E,A,H-E.png,A-H.png,hH,hH,mask-1.png,mask-4.png,h,1,1.3743362000095658,s,0,0.12691600000835024,0.050439099984942004,0.05015560000902042,0.0998464000003878,0.09896559998742305,0.302319999987958
RSVPLG03,km,20260212-171137,1.0.2,20251113-095759,759,Experiment,Both,1,Automatic,main,64,20260212-171742,local,local,300,H,S,E,A,E-H.png,A-S.png,hH,sS,mask-2.png,mask-3.png,s,0,0.9679690000193659,h,0,0.1749009000195656,0.04823539999779314,0.05031369999051094,0.0988943999982439,0.10181409999495372,0.29885630001081154
RSVPLG03,km,20260212-171137,1.0.2,20251113-095759,759,Experiment,Both,1,Automatic,main,65,20260212-171747,local,local,750,S,H,E,A,E-S.png,A-H.png,sS,hH,mask-4.png,mask-4.png,h,0,1.0536946000065655,h,1,0.28597610001452267,0.050736900011543185,0.04975360000389628,0.09932440001284704,0.09955929999705404,0.7525606999988668
RSVPLG03,km,20260212-171137,1.0.2,20251113-095759,759,Experiment,Both,1,Automatic,main,66,20260212-171752,global,local,300,S,H,E,E,S-E.png,E-H.png,sS,hH,mask-1.png,mask-4.png,s,1,1.9516454999975394,s,0,0.12639690001378767,0.049732299987226725,0.04986179998377338,0.09768770000664517,0.09885129999020137,0.3001558000105433
RSVPLG03,km,20260212-171137,1.0.2,20251113-095759,759,Experiment,Both,1,Automatic,main,67,20260212-171758,local,local,300,H,S,E,A,E-H.png,A-S.png,hH,sS,mask-3.png,mask-3.png,h,1,2.0834838000009768,s,1,0.126754400000209,0.04958530000294559,0.05102359998272732,0.10142150000319816,0.10059839999303222,0.3014676000166219
RSVPLG03,km,20260212-171137,1.0.2,20251113-095759,759,Experiment,Both,1,Automatic,main,68,20260212-171804,global,local,750,H,H,E,A,H-E.png,A-H.png,hH,hH,mask-1.png,mask-1.png,h,1,1.2587175999942701,s,0,0.11246960001881234,0.049332099995808676,0.05132840000442229,0.09885910002049059,0.10080630000447854,0.7505382999952417
RSVPLG03,km,20260212-171137,1.0.2,20251113-095759,759,Experiment,Both,1,Automatic,main,69,20260212-171809,global,global,750,H,S,E,E,H-E.png,S-E.png,hH,sS,mask-4.png,mask-4.png,h,1,0.6709320000081789,s,1,0.1288273000100162,0.04945920000318438,0.0510824000230059,0.09931689998484217,0.10068790000514127,0.7510636999795679
RSVPLG03,km,20260212-171137,1.0.2,20251113-095759,759,Experiment,Both,1,Automatic,main,70,20260212-171814,local,local,750,S,H,E,A,E-S.png,A-H.png,sS,hH,mask-2.png,mask-4.png,s,1,0.64560389998951,s,0,0.12632370000937954,0.049352899979567155,0.04981020002742298,0.10050069997669198,0.09896220001974143,0.7543347999744583
RSVPLG03,km,20260212-171137,1.0.2,20251113-095759,759,Experiment,Both,1,Automatic,main,71,20260212-171819,local,global,750,H,S,A,E,A-H.png,S-E.png,hH,sS,mask-3.png,mask-3.png,s,0,3.130245400010608,s,1,0.12680119997821748,0.05043420000583865,0.052107199997408316,0.10009000002173707,0.10105309999198653,0.7511447000142653
RSVPLG03,km,20260212-171137,1.0.2,20251113-095759,759,Experiment,Both,1,Automatic,main,72,20260212-171827,local,local,300,H,H,E,E,E-H.png,E-H.png,hH,hH,mask-4.png,mask-4.png,h,1,1.902887699980056,s,0,0.16018499998608604,0.049003099993569776,0.047883199993520975,0.09913719998439774,0.09950549999484792,0.3007250000082422
RSVPLG03,km,20260212-171137,1.0.2,20251113-095759,759,Experiment,Both,1,Automatic,main,73,20260212-171832,local,local,300,S,H,E,A,E-S.png,A-H.png,sS,hH,mask-2.png,mask-4.png,s,1,0.6194033999927342,h,1,0.09489259999827482,0.05005439999513328,0.04912989999866113,0.1003363000054378,0.09967079997295514,0.3023078000114765
RSVPLG03,km,20260212-171137,1.0.2,20251113-095759,759,Experiment,Both,1,Automatic,main,74,20260212-171837,global,local,750,H,H,E,E,H-E.png,E-H.png,hH,hH,mask-3.png,mask-2.png,h,1,0.7533009999897331,h,1,0.11071399998036213,0.049625599989667535,0.05016579999937676,0.10019749999628402,0.10062620000098832,0.7516546999977436
RSVPLG03,km,20260212-171137,1.0.2,20251113-095759,759,Experiment,Both,1,Automatic,main,75,20260212-171842,global,local,750,S,S,A,A,S-A.png,A-S.png,sS,sS,mask-1.png,mask-2.png,s,1,0.6870847000100184,h,0,0.12640559999272227,0.050373699981719255,0.051390000007813796,0.10088659997563809,0.10105100000509992,0.7516374999831896
RSVPLG03,km,20260212-171137,1.0.2,20251113-095759,759,Experiment,Both,1,Automatic,main,76,20260212-171854,local,global,300,S,S,A,E,A-S.png,S-E.png,sS,sS,mask-2.png,mask-2.png,s,1,0.7125525000155903,h,0,0.11175609999918379,0.0496792999911122,0.04975769997690804,0.10040049999952316,0.09859129998949356,0.3005864000006113
RSVPLG03,km,20260212-171137,1.0.2,20251113-095759,759,Experiment,Both,1,Automatic,main,77,20260212-171859,global,local,300,H,H,A,E,H-A.png,E-H.png,hH,hH,mask-2.png,mask-4.png,h,1,2.401382799987914,s,0,0.06224790000123903,0.04920149999088608,0.04980589999468066,0.10114990000147372,0.10061100000166334,0.30017239999142475
RSVPLG03,km,20260212-171137,1.0.2,20251113-095759,759,Experiment,Both,1,Automatic,main,78,20260212-171905,global,global,750,S,H,E,A,S-E.png,H-A.png,sS,hH,mask-1.png,mask-1.png,s,1,0.5141846000042278,h,1,0.1435242000152357,0.05073919999995269,0.05064380000112578,0.09993570001097396,0.09947200000169687,0.7522279999975581
RSVPLG03,km,20260212-171137,1.0.2,20251113-095759,759,Experiment,Both,1,Automatic,main,79,20260212-171910,local,local,750,H,H,A,E,A-H.png,E-H.png,hH,hH,mask-2.png,mask-4.png,h,1,0.5937494000245351,h,1,0.1272783000022173,0.05040389997884631,0.05018389999167994,0.0998906999884639,0.09969800000544637,0.7524835999938659
RSVPLG03,km,20260212-171137,1.0.2,20251113-095759,759,Experiment,Both,1,Automatic,main,80,20260212-171915,local,global,300,S,H,E,A,E-S.png,H-A.png,sS,hH,mask-2.png,mask-1.png,s,1,0.9942102000059094,h,1,0.11151699998299591,0.04955260001588613,0.051794900005916134,0.10037590001593344,0.10214770000311546,0.2996970000094734
RSVPLG03,km,20260212-171137,1.0.2,20251113-095759,759,Experiment,Both,1,Automatic,main,81,20260212-171920,local,global,750,S,H,E,A,E-S.png,H-A.png,sS,hH,mask-4.png,mask-1.png,s,1,0.9686345999944024,h,1,0.12640219999593683,0.04829440001049079,0.049636200012173504,0.10037279999232851,0.10090770001988858,0.7521355999924708
RSVPLG03,km,20260212-171137,1.0.2,20251113-095759,759,Experiment,Both,1,Automatic,main,82,20260212-171925,local,global,300,H,H,E,E,E-H.png,H-E.png,hH,hH,mask-3.png,mask-2.png,h,1,0.4737109999987297,s,0,0.14608100001350977,0.048384000023361295,0.04927819999284111,0.10005570002249442,0.09971859998768196,0.30036660001496784
RSVPLG03,km,20260212-171137,1.0.2,20251113-095759,759,Experiment,Both,1,Automatic,main,83,20260212-171929,local,global,300,S,S,A,E,A-S.png,S-E.png,sS,sS,mask-1.png,mask-4.png,h,0,0.7035709999909159,h,0,0.14279520002310164,0.04967340000439435,0.04877439999836497,0.10239060001913458,0.09962890000315383,0.30273660001694225
RSVPLG03,km,20260212-171137,1.0.2,20251113-095759,759,Experiment,Both,1,Automatic,main,84,20260212-171934,global,global,300,H,S,E,A,H-E.png,S-A.png,hH,sS,mask-2.png,mask-1.png,s,0,2.225790800002869,h,0,0.09505340000032447,0.05207550001796335,0.04989290001685731,0.10107460001017898,0.10005919999093749,0.30219670000951737
RSVPLG03,km,20260212-171137,1.0.2,20251113-095759,759,Experiment,Both,1,Automatic,main,85,20260212-171940,local,global,750,H,S,E,E,E-H.png,S-E.png,hH,sS,mask-3.png,mask-3.png,s,0,1.522325500001898,s,1,0.12569060001987964,0.05205900000873953,0.05193869999493472,0.10103700001491234,0.09994079999160022,0.7520199000136927
RSVPLG03,km,20260212-171137,1.0.2,20251113-095759,759,Experiment,Both,1,Automatic,main,86,20260212-171946,global,local,300,S,S,E,E,S-E.png,E-S.png,sS,sS,mask-1.png,mask-1.png,h,0,1.7768044999975245,s,1,0.08091960000456311,0.05078620000858791,0.04891339997993782,0.10068609999143519,0.10050489997956902,0.3022615000081714
RSVPLG03,km,20260212-171137,1.0.2,20251113-095759,759,Experiment,Both,1,Automatic,main,87,20260212-171951,local,local,750,H,S,A,E,A-H.png,E-S.png,hH,sS,mask-1.png,mask-1.png,h,1,0.8112346000270918,s,1,0.1260725000174716,0.05031240000971593,0.05080100000486709,0.10081699999864213,0.100380399991991,0.7517885999986902
RSVPLG03,km,20260212-171137,1.0.2,20251113-095759,759,Experiment,Both,1,Automatic,main,88,20260212-171956,global,global,750,S,H,E,E,S-E.png,H-E.png,sS,hH,mask-1.png,mask-4.png,s,1,0.6801218999898992,h,1,0.15931909999926575,0.04987930000061169,0.049478999979328364,0.09858749998966232,0.10051879999809898,0.7517809999990277
RSVPLG03,km,20260212-171137,1.0.2,20251113-095759,759,Experiment,Both,1,Automatic,main,89,20260212-172001,global,local,750,S,H,A,A,S-A.png,A-H.png,sS,hH,mask-1.png,mask-3.png,s,1,0.5003761999832932,h,1,0.1593388000037521,0.0515597999910824,0.04849340001237579,0.10157899998011999,0.09923920000437647,0.7546292999759316
RSVPLG03,km,20260212-171137,1.0.2,20251113-095759,759,Experiment,Both,1,Automatic,main,90,20260212-172006,local,global,750,H,H,E,E,E-H.png,H-E.png,hH,hH,mask-1.png,mask-1.png,h,1,1.0221232999756467,s,0,0.17399720000685193,0.050151599978562444,0.05096409999532625,0.1001543999882415,0.10123630001908168,0.750479299982544
RSVPLG03,km,20260212-171137,1.0.2,20251113-095759,759,Experiment,Both,1,Automatic,main,91,20260212-172011,global,global,300,S,H,A,E,S-A.png,H-E.png,sS,hH,mask-2.png,mask-1.png,s,1,1.2766430000192486,h,1,0.12812060001306236,0.050945599999977276,0.049126099998829886,0.10077960000489838,0.09945969999535009,0.3024788000038825
RSVPLG03,km,20260212-171137,1.0.2,20251113-095759,759,Experiment,Both,1,Automatic,main,92,20260212-172017,global,local,300,S,S,E,E,S-E.png,E-S.png,sS,sS,mask-2.png,mask-4.png,s,1,0.5858784999873023,s,1,0.15824220000649802,0.051769600016996264,0.04959809998399578,0.10066029999870807,0.09979269999894314,0.30186060001142323
RSVPLG03,km,20260212-171137,1.0.2,20251113-095759,759,Experiment,Both,1,Automatic,main,93,20260212-172021,local,local,750,S,S,E,A,E-S.png,A-S.png,sS,sS,mask-4.png,mask-3.png,s,1,0.5964729999832343,s,1,0.11258299998007715,0.04906759998993948,0.05145730002550408,0.09948350000195205,0.10102590001770295,0.750684899976477
RSVPLG03,km,20260212-171137,1.0.2,20251113-095759,759,Experiment,Both,1,Automatic,main,94,20260212-172026,local,global,750,H,S,A,A,A-H.png,S-A.png,hH,sS,mask-1.png,mask-1.png,h,1,0.5243899000051897,h,0,0.09568560001207516,0.051116199989337474,0.05001710000215098,0.1005719999957364,0.10136090000742115,0.7523457999923266
RSVPLG03,km,20260212-171137,1.0.2,20251113-095759,759,Experiment,Both,1,Automatic,main,95,20260212-172031,local,local,300,S,H,E,E,E-S.png,E-H.png,sS,hH,mask-4.png,mask-4.png,s,1,1.3213882000127342,h,1,0.12606410001171753,0.04941129998769611,0.05004390000249259,0.1001115000108257,0.1008332000055816,0.30016660000546835
RSVPLG03,km,20260212-171137,1.0.2,20251113-095759,759,Experiment,Both,1,Automatic,main,96,20260212-172036,global,local,750,H,H,A,A,H-A.png,A-H.png,hH,hH,mask-3.png,mask-1.png,h,1,1.727431900013471,h,1,0.09604360000230372,0.04951790001359768,0.04960600001504645,0.0994862999941688,0.10075230000074953,0.7510161999962293
RSVPLG03,km,20260212-171137,1.0.2,20251113-095759,759,Experiment,Both,1,Automatic,main,97,20260212-172042,local,local,300,H,S,A,A,A-H.png,A-S.png,hH,sS,mask-3.png,mask-2.png,h,1,0.9963938999862876,s,1,0.17400209998595528,0.04996140001458116,0.04977770001278259,0.10052939999150112,0.10033950000070035,0.30055869999341667
RSVPLG03,km,20260212-171137,1.0.2,20251113-095759,759,Experiment,Both,1,Automatic,main,98,20260212-172047,global,local,300,H,S,A,A,H-A.png,A-S.png,hH,sS,mask-2.png,mask-1.png,h,1,2.0107659999921452,s,1,0.20595519998460077,0.04992370001855306,0.05096120000234805,0.10150170000270009,0.10062630000174977,0.30100279999896884
RSVPLG03,km,20260212-171137,1.0.2,20251113-095759,759,Experiment,Both,1,Automatic,main,99,20260212-172052,global,global,300,H,H,A,E,H-A.png,H-E.png,hH,hH,mask-3.png,mask-3.png,h,1,0.55902379998588,h,1,0.09364330000244081,0.05015990001265891,0.05207259999588132,0.09941840000101365,0.10103039999376051,0.30076130002271384
RSVPLG03,km,20260212-171137,1.0.2,20251113-095759,759,Experiment,Both,1,Automatic,main,100,20260212-172057,global,local,750,H,S,E,E,H-E.png,E-S.png,hH,sS,mask-2.png,mask-1.png,h,1,0.7472919000138063,s,1,0.09662130000651814,0.04953759998898022,0.04954199999338016,0.10000169998966157,0.10059950000140816,0.7517616999975871
RSVPLG03,km,20260212-172158,1.0.2,20251113-095759,759,Experiment,Both,1,Automatic,warmup,1,20260212-172241,local,local,750,H,H,E,E,E-H.png,E-H.png,hH,hH,mask-3.png,mask-1.png,h,1,0.40589059999911115,h,1,0.09768430000985973,0.050844999990658835,0.04864829999860376,0.10221459998865612,0.09847509997780435,0.7544738000142388
RSVPLG03,km,20260212-172158,1.0.2,20251113-095759,759,Experiment,Both,1,Automatic,warmup,2,20260212-172245,local,global,300,H,S,E,A,E-H.png,S-A.png,hH,sS,mask-2.png,mask-1.png,h,1,0.4673174000054132,s,1,0.0635230999905616,0.04842579999240115,0.04932389999157749,0.09933739999542013,0.10054079999099486,0.3011005999869667
RSVPLG03,km,20260212-172158,1.0.2,20251113-095759,759,Experiment,Both,1,Automatic,warmup,3,20260212-172250,global,local,300,S,H,A,A,S-A.png,A-H.png,sS,hH,mask-2.png,mask-4.png,s,1,1.5338364999915939,s,0,0.09719760000007227,0.050397400016663596,0.04866150001180358,0.10085439999238588,0.09944550000363961,0.30303619999904186
RSVPLG03,km,20260212-172158,1.0.2,20251113-095759,759,Experiment,Both,1,Automatic,warmup,4,20260212-172255,local,global,750,S,S,A,A,A-S.png,S-A.png,sS,sS,mask-2.png,mask-2.png,s,1,1.0175654999911785,h,0,0.06183479999890551,0.04853400000138208,0.05040539999026805,0.09920699999202043,0.10087329999078065,0.7519481999916025
RSVPLG03,km,20260212-172158,1.0.2,20251113-095759,759,Experiment,Both,1,Automatic,main,5,20260212-172300,local,global,300,H,H,A,A,A-H.png,H-A.png,hH,hH,mask-4.png,mask-4.png,h,1,1.6031839000061154,s,0,0.048719000013079494,0.04959629999939352,0.050299499998800457,0.0988223000022117,0.10202629998093471,0.2992227000067942
RSVPLG03,km,20260212-172158,1.0.2,20251113-095759,759,Experiment,Both,1,Automatic,main,6,20260212-172306,local,global,750,S,S,A,A,A-S.png,S-A.png,sS,sS,mask-4.png,mask-2.png,s,1,0.5890055999916513,s,1,0.09826030000112951,0.05060130002675578,0.04877910000504926,0.10061740002129227,0.10083430001395755,0.7534823000023607
RSVPLG03,km,20260212-172158,1.0.2,20251113-095759,759,Experiment,Both,1,Automatic,main,7,20260212-172310,global,local,750,H,S,E,E,H-E.png,E-S.png,hH,sS,mask-2.png,mask-2.png,h,1,1.0944439999875613,s,1,0.09567960002459586,0.049121899995952845,0.04988420000881888,0.09956480000982992,0.10061059999861754,0.7523262999893632
RSVPLG03,km,20260212-172158,1.0.2,20251113-095759,759,Experiment,Both,1,Automatic,main,8,20260212-172316,local,global,300,S,S,A,A,A-S.png,S-A.png,sS,sS,mask-1.png,mask-2.png,s,1,0.5507866000116337,s,1,0.08024619999923743,0.05083409999497235,0.048859399976208806,0.10008390000439249,0.10066239998559467,0.3007487000140827
RSVPLG03,km,20260212-172158,1.0.2,20251113-095759,759,Experiment,Both,1,Automatic,main,9,20260212-172320,local,global,750,H,S,E,E,E-H.png,S-E.png,hH,sS,mask-4.png,mask-4.png,s,0,0.5383497000148054,s,1,0.09842029999708757,0.050037500011967495,0.050512999994680285,0.0993126000103075,0.10049399998388253,0.7513968000130262
RSVPLG03,km,20260212-172158,1.0.2,20251113-095759,759,Experiment,Both,1,Automatic,main,10,20260212-172325,local,global,300,H,S,E,E,E-H.png,S-E.png,hH,sS,mask-4.png,mask-2.png,h,1,0.863564499974018,s,1,0.0637472000089474,0.05113130001700483,0.05028110000421293,0.0998875999939628,0.1006725000042934,0.3004949000023771
RSVPLG03,km,20260212-172158,1.0.2,20251113-095759,759,Experiment,Both,1,Automatic,main,11,20260212-172330,local,global,300,H,S,A,A,A-H.png,S-A.png,hH,sS,mask-1.png,mask-3.png,h,1,0.6271023000008427,s,1,0.04497449999325909,0.05067799999960698,0.04814160001114942,0.10174209999968298,0.09851499999058433,0.30211119999876246
RSVPLG03,km,20260212-172158,1.0.2,20251113-095759,759,Experiment,Both,1,Automatic,main,12,20260212-172334,global,local,300,H,H,A,E,H-A.png,E-H.png,hH,hH,mask-2.png,mask-4.png,h,1,0.5424270000075921,s,0,0.048497899988433346,0.050899800000479445,0.05135860000154935,0.10090910000144504,0.10032510000746697,0.30059539998183027
RSVPLG03,km,20260212-172158,1.0.2,20251113-095759,759,Experiment,Both,1,Automatic,main,13,20260212-172338,global,global,750,S,H,E,A,S-E.png,H-A.png,sS,hH,mask-1.png,mask-4.png,s,1,0.3577287000080105,h,1,0.15883190001477487,0.04886889999033883,0.050984400004381314,0.09842299998854287,0.09984229999827221,0.7515448999765795
RSVPLG03,km,20260212-172158,1.0.2,20251113-095759,759,Experiment,Both,1,Automatic,main,14,20260212-172343,global,local,750,H,H,A,E,H-A.png,E-H.png,hH,hH,mask-1.png,mask-3.png,h,1,1.1185451000055764,s,0,0.11475800001062453,0.04987619997700676,0.050403300003381446,0.10028079999028705,0.10106149999774061,0.7518568999948911
RSVPLG03,km,20260212-172158,1.0.2,20251113-095759,759,Experiment,Both,1,Automatic,main,15,20260212-172348,local,local,300,S,H,E,A,E-S.png,A-H.png,sS,hH,mask-3.png,mask-1.png,s,1,0.5652419000107329,h,1,0.1296001000155229,0.0490527999936603,0.049862500018207356,0.09997849998762831,0.1007318000192754,0.30132099997717887
RSVPLG03,km,20260212-172158,1.0.2,20251113-095759,759,Experiment,Both,1,Automatic,main,16,20260212-172353,local,global,750,H,H,E,A,E-H.png,H-A.png,hH,hH,mask-4.png,mask-4.png,h,1,0.7260907999880146,h,1,0.11226339999120682,0.051280299987411126,0.05061560001922771,0.10197210000478663,0.10059760001604445,0.7533872999774758
RSVPLG03,km,20260212-172158,1.0.2,20251113-095759,759,Experiment,Both,1,Automatic,main,17,20260212-172358,global,local,750,H,S,A,E,H-A.png,E-S.png,hH,sS,mask-2.png,mask-1.png,s,0,0.7250206999888178,s,1,0.08050859998911619,0.051627400011057034,0.05086610000580549,0.10033519999706186,0.10177010000916198,0.7525725000014063
RSVPLG03,km,20260212-172158,1.0.2,20251113-095759,759,Experiment,Both,1,Automatic,main,18,20260212-172403,global,global,300,H,H,E,E,H-E.png,H-E.png,hH,hH,mask-2.png,mask-4.png,h,1,0.8953333999961615,h,1,0.098068899998907,0.05021409998880699,0.05003270000452176,0.10094229999231175,0.10141080000903457,0.30124589998740703
RSVPLG03,km,20260212-172158,1.0.2,20251113-095759,759,Experiment,Both,1,Automatic,main,19,20260212-172407,local,global,300,S,S,E,E,E-S.png,S-E.png,sS,sS,mask-3.png,mask-3.png,s,1,0.4721399000263773,s,1,0.0787172999989707,0.050265600002603605,0.050732000003336,0.10165699999197386,0.10187719998066314,0.3003071999992244
RSVPLG03,km,20260212-172158,1.0.2,20251113-095759,759,Experiment,Both,1,Automatic,main,20,20260212-172411,global,local,750,S,S,A,E,S-A.png,E-S.png,sS,sS,mask-2.png,mask-2.png,s,1,0.47140229999786243,s,1,0.09643400000641122,0.05112849999568425,0.04959929999313317,0.10056220000842586,0.10032339999452233,0.7537162000080571
RSVPLG03,km,20260212-172158,1.0.2,20251113-095759,759,Experiment,Both,1,Automatic,main,21,20260212-172416,global,local,750,H,H,E,E,H-E.png,E-H.png,hH,hH,mask-1.png,mask-2.png,h,1,0.662455299985595,s,0,0.06397059999289922,0.049046200001612306,0.049990100000286475,0.09909800000605173,0.09880989999510348,0.7528339000127744
RSVPLG03,km,20260212-172158,1.0.2,20251113-095759,759,Experiment,Both,1,Automatic,main,22,20260212-172421,local,global,750,H,S,A,A,A-H.png,S-A.png,hH,sS,mask-1.png,mask-1.png,h,1,1.5271217999979854,s,1,0.09815879998495802,0.05180720001226291,0.05041710002114996,0.10154480001074262,0.0996084000216797,0.7537982999929227
RSVPLG03,km,20260212-172158,1.0.2,20251113-095759,759,Experiment,Both,1,Automatic,main,23,20260212-172427,global,global,750,S,H,E,E,S-E.png,H-E.png,sS,hH,mask-1.png,mask-2.png,s,1,0.3965180999948643,h,1,0.09755340000265278,0.04893299998366274,0.048225600010482594,0.1000882999796886,0.09838040001341142,0.7538176999951247
RSVPLG03,km,20260212-172158,1.0.2,20251113-095759,759,Experiment,Both,1,Automatic,main,24,20260212-172431,global,global,300,H,S,A,E,H-A.png,S-E.png,hH,sS,mask-4.png,mask-2.png,s,0,0.4387420999992173,h,0,0.9298782999976538,0.049513100006151944,0.049354599992511794,0.10172289999900386,0.0988945999997668,0.30148960000951774
RSVPLG03,km,20260212-172158,1.0.2,20251113-095759,759,Experiment,Both,1,Automatic,main,25,20260212-172437,local,local,300,H,H,E,E,E-H.png,E-H.png,hH,hH,mask-2.png,mask-4.png,h,1,2.2784983000019565,s,0,0.03308819999801926,0.04906379999010824,0.0499749000009615,0.09864229999948293,0.1008373000076972,0.299041499994928
RSVPLG03,km,20260212-172158,1.0.2,20251113-095759,759,Experiment,Both,1,Automatic,main,26,20260212-172447,local,local,750,S,H,A,A,A-S.png,A-H.png,sS,hH,mask-4.png,mask-3.png,s,1,1.4186466000101063,h,1,0.24198009999236092,0.048196000017924234,0.049023900006432086,0.0995110000076238,0.09998500000801869,0.7520580000127666
RSVPLG03,km,20260212-172158,1.0.2,20251113-095759,759,Experiment,Both,1,Automatic,main,27,20260212-172453,local,local,750,S,H,A,A,A-S.png,A-H.png,sS,hH,mask-1.png,mask-1.png,s,1,0.4580269000143744,h,1,0.15841430000727996,0.0503772999800276,0.049896699987584725,0.10015250000287779,0.10057789998245426,0.7523121999984141
RSVPLG03,km,20260212-172158,1.0.2,20251113-095759,759,Experiment,Both,1,Automatic,main,28,20260212-172458,local,local,300,H,S,A,A,A-H.png,A-S.png,hH,sS,mask-3.png,mask-4.png,h,1,1.3784756000095513,h,0,0.09534690002328716,0.04863510001450777,0.05077209998853505,0.09940750000532717,0.10144440000294708,0.2992611000081524
RSVPLG03,km,20260212-172158,1.0.2,20251113-095759,759,Experiment,Both,1,Automatic,main,29,20260212-172503,local,global,750,H,S,E,A,E-H.png,S-A.png,hH,sS,mask-3.png,mask-4.png,h,1,0.7214231000107247,h,0,0.11262570001417771,0.05049190000863746,0.05016729998169467,0.10061210001003928,0.1007804999826476,0.7529748000088148
RSVPLG03,km,20260212-172158,1.0.2,20251113-095759,759,Experiment,Both,1,Automatic,main,30,20260212-172508,global,local,750,S,H,A,A,S-A.png,A-H.png,sS,hH,mask-1.png,mask-2.png,s,1,0.7443423999939114,s,0,0.11153480000211857,0.05067140000755899,0.05147419997956604,0.10054899999522604,0.10035039999638684,0.7508236000139732
RSVPLG03,km,20260212-172158,1.0.2,20251113-095759,759,Experiment,Both,1,Automatic,main,31,20260212-172513,local,global,300,S,H,E,E,E-S.png,H-E.png,sS,hH,mask-1.png,mask-3.png,h,0,2.4855042999843135,s,0,0.07797199999913573,0.050013499974738806,0.049044599989429116,0.09977699999581091,0.09918930000276305,0.300672699988354
RSVPLG03,km,20260212-172158,1.0.2,20251113-095759,759,Experiment,Both,1,Automatic,main,32,20260212-172519,local,local,750,S,S,A,E,A-S.png,E-S.png,sS,sS,mask-1.png,mask-3.png,s,1,1.4596142999944277,h,0,0.07924959997762926,0.05008549999911338,0.05049890000373125,0.10095580000779592,0.10012700001243502,0.7522770999930799
RSVPLG03,km,20260212-172158,1.0.2,20251113-095759,759,Experiment,Both,1,Automatic,main,33,20260212-172525,local,local,300,H,H,E,A,E-H.png,A-H.png,hH,hH,mask-4.png,mask-3.png,s,0,0.714745099976426,s,0,1.1545468000113033,0.04790040000807494,0.05073630000697449,0.09815040000830777,0.09939410001970828,0.29854960000375286
RSVPLG03,km,20260212-172158,1.0.2,20251113-095759,759,Experiment,Both,1,Automatic,main,34,20260212-172531,global,local,750,H,S,E,A,H-E.png,A-S.png,hH,sS,mask-1.png,mask-1.png,h,1,0.8853026000142563,s,1,0.046631400007754564,0.04832810000516474,0.04868259999784641,0.09778619999997318,0.10022749999188818,0.7517289000097662
RSVPLG03,km,20260212-172158,1.0.2,20251113-095759,759,Experiment,Both,1,Automatic,main,35,20260212-172536,global,local,300,H,S,A,A,H-A.png,A-S.png,hH,sS,mask-2.png,mask-2.png,h,1,0.8644536000210792,h,0,0.11107340001035482,0.050468500005081296,0.05188450001878664,0.09987649999675341,0.10111509999842383,0.30060709998360835
RSVPLG03,km,20260212-172158,1.0.2,20251113-095759,759,Experiment,Both,1,Automatic,main,36,20260212-172540,local,local,750,H,S,E,E,E-H.png,E-S.png,hH,sS,mask-2.png,mask-3.png,h,1,0.920377299975371,h,0,0.11036049999529496,0.04963209998095408,0.049526399991009384,0.10117259999969974,0.0995511999935843,0.7534086999949068
RSVPLG03,km,20260212-172158,1.0.2,20251113-095759,759,Experiment,Both,1,Automatic,main,37,20260212-172546,global,local,300,S,S,E,E,S-E.png,E-S.png,sS,sS,mask-1.png,mask-1.png,h,0,1.1264260000025388,s,1,0.06606789998477325,0.04884529998525977,0.05093769999803044,0.09979439998278394,0.10183649999089539,0.2995189999928698
RSVPLG03,km,20260212-172158,1.0.2,20251113-095759,759,Experiment,Both,1,Automatic,main,38,20260212-172551,local,global,750,H,S,A,A,A-H.png,S-A.png,hH,sS,mask-2.png,mask-3.png,s,0,0.6462816999992356,s,1,0.11077860000659712,0.05078750001848675,0.04960560001200065,0.10168290001456626,0.10007680000853725,0.7533030000049621
RSVPLG03,km,20260212-172158,1.0.2,20251113-095759,759,Experiment,Both,1,Automatic,main,39,20260212-172555,global,local,750,S,H,A,A,S-A.png,A-H.png,sS,hH,mask-1.png,mask-3.png,h,0,0.9173119000042789,s,0,0.44729389998246916,0.05126840001321398,0.050255099980859086,0.10096330000669695,0.10015189999830909,0.7523251000093296
RSVPLG03,km,20260212-172158,1.0.2,20251113-095759,759,Experiment,Both,1,Automatic,main,40,20260212-172601,local,local,750,H,H,E,A,E-H.png,A-H.png,hH,hH,mask-4.png,mask-2.png,s,0,0.7901522000029217,s,0,0.06594410000252537,0.04748070001369342,0.04917280000518076,0.09943110001040623,0.10001029999693856,0.7510763000173029
RSVPLG03,km,20260212-172158,1.0.2,20251113-095759,759,Experiment,Both,1,Automatic,main,41,20260212-172606,global,local,300,S,S,E,A,S-E.png,A-S.png,sS,sS,mask-3.png,mask-3.png,s,1,0.954188100004103,h,0,0.12814990000333637,0.049649300024611875,0.04956070001935586,0.09938500000862405,0.0999069000245072,0.30006259999936447
RSVPLG03,km,20260212-172158,1.0.2,20251113-095759,759,Experiment,Both,1,Automatic,main,42,20260212-172611,local,global,300,S,S,A,E,A-S.png,S-E.png,sS,sS,mask-4.png,mask-1.png,h,0,1.0206862000050023,s,1,0.046980899991467595,0.05076269997516647,0.04965749999973923,0.10076569998636842,0.09970900000189431,0.3016924999828916
RSVPLG03,km,20260212-172158,1.0.2,20251113-095759,759,Experiment,Both,1,Automatic,main,43,20260212-172616,global,global,300,H,S,E,E,H-E.png,S-E.png,hH,sS,mask-1.png,mask-4.png,h,1,0.8177684000111185,s,1,0.06239360000472516,0.05051860000821762,0.04917440001736395,0.09931039999355562,0.09891410000273027,0.3011802999826614
RSVPLG03,km,20260212-172158,1.0.2,20251113-095759,759,Experiment,Both,1,Automatic,main,44,20260212-172620,local,global,300,H,H,E,E,E-H.png,H-E.png,hH,hH,mask-4.png,mask-2.png,h,1,0.7118870000122115,s,0,0.06360419999691658,0.050575100001879036,0.04884360000141896,0.10193689999869093,0.0992541000014171,0.3019124999991618
RSVPLG03,km,20260212-172158,1.0.2,20251113-095759,759,Experiment,Both,1,Automatic,main,45,20260212-172625,local,local,300,H,H,E,A,E-H.png,A-H.png,hH,hH,mask-4.png,mask-4.png,h,1,0.6169164000020828,h,1,0.0785135000187438,0.048911499994574115,0.05041409999830648,0.09866039999178611,0.10104889998910949,0.2991370999952778
RSVPLG03,km,20260212-172158,1.0.2,20251113-095759,759,Experiment,Both,1,Automatic,main,46,20260212-172629,local,local,300,S,S,E,E,E-S.png,E-S.png,sS,sS,mask-1.png,mask-1.png,s,1,0.3138637999945786,s,1,0.09442440001294017,0.049935100018046796,0.05042930002673529,0.09960750001482666,0.1012924000096973,0.30100589999346994
RSVPLG03,km,20260212-172158,1.0.2,20251113-095759,759,Experiment,Both,1,Automatic,main,47,20260212-172633,global,global,750,S,S,A,E,S-A.png,S-E.png,sS,sS,mask-4.png,mask-2.png,s,1,0.8791086999990512,s,1,0.10949639999307692,0.051178299996536225,0.04948279997915961,0.10171350001473911,0.09876249998342246,0.7538628000183962
RSVPLG03,km,20260212-172158,1.0.2,20251113-095759,759,Experiment,Both,1,Automatic,main,48,20260212-172638,global,local,300,S,H,A,A,S-A.png,A-H.png,sS,hH,mask-3.png,mask-4.png,h,0,1.0847158999822568,h,1,0.07757739999215119,0.0504679000005126,0.05053029998089187,0.10054650000529364,0.09952369998791255,0.3026483000139706
RSVPLG03,km,20260212-172158,1.0.2,20251113-095759,759,Experiment,Both,1,Automatic,main,49,20260212-172643,local,local,300,H,H,A,E,A-H.png,E-H.png,hH,hH,mask-1.png,mask-2.png,h,1,0.7522625000274274,h,1,0.08013649997883476,0.04685909999534488,0.048439000005600974,0.09728690001065843,0.09995810000691563,0.29924019999452867
RSVPLG03,km,20260212-172158,1.0.2,20251113-095759,759,Experiment,Both,1,Automatic,main,50,20260212-172648,local,global,750,S,H,E,E,E-S.png,H-E.png,sS,hH,mask-4.png,mask-1.png,s,1,0.5503128000127617,h,1,0.08164619997842237,0.04980130001786165,0.05066020000958815,0.10016600001836196,0.0998408000159543,0.7531712999916635
RSVPLG03,km,20260212-172158,1.0.2,20251113-095759,759,Experiment,Both,1,Automatic,main,51,20260212-172655,global,global,750,S,S,E,A,S-E.png,S-A.png,sS,sS,mask-4.png,mask-4.png,s,1,1.5357356000167783,s,1,0.0823573999805376,0.048382599983597174,0.048354400001699105,0.09789760000421666,0.09891520001110621,0.7524282999802381
RSVPLG03,km,20260212-172158,1.0.2,20251113-095759,759,Experiment,Both,1,Automatic,main,52,20260212-172701,global,local,750,H,S,A,E,H-A.png,E-S.png,hH,sS,mask-4.png,mask-1.png,h,1,0.48947500000940636,s,1,0.08239980001235381,0.04906230000779033,0.05003199999919161,0.09928379999473691,0.09948920001625083,0.7531267000013031
RSVPLG03,km,20260212-172158,1.0.2,20251113-095759,759,Experiment,Both,1,Automatic,main,53,20260212-172705,global,global,750,S,S,E,E,S-E.png,S-E.png,sS,sS,mask-1.png,mask-1.png,s,1,0.5016021000046749,s,1,0.0984906000085175,0.05045109998900443,0.050031699996907264,0.10048309998819605,0.10022769999341108,0.752287699986482
RSVPLG03,km,20260212-172158,1.0.2,20251113-095759,759,Experiment,Both,1,Automatic,main,54,20260212-172710,local,local,750,H,S,A,E,A-H.png,E-S.png,hH,sS,mask-2.png,mask-4.png,h,1,0.7284683000179939,s,1,0.11364009999670088,0.04872240000986494,0.04755749998730607,0.10022990001016296,0.09858099999837577,0.7540002000168897
RSVPLG03,km,20260212-172158,1.0.2,20251113-095759,759,Experiment,Both,1,Automatic,main,55,20260212-172715,global,global,750,H,H,E,E,H-E.png,H-E.png,hH,hH,mask-3.png,mask-2.png,s,0,0.5646446000027936,h,1,0.09835559999919496,0.05080560001078993,0.0493447000044398,0.10162840000703,0.10086449998198077,0.7534905000065919
RSVPLG03,km,20260212-172158,1.0.2,20251113-095759,759,Experiment,Both,1,Automatic,main,56,20260212-172720,global,global,300,H,S,E,A,H-E.png,S-A.png,hH,sS,mask-4.png,mask-4.png,h,1,0.5088549999927636,s,1,0.0964799000066705,0.050958899984834716,0.05279829999199137,0.1011088999803178,0.10268760001054034,0.3003201999817975
RSVPLG03,km,20260212-172158,1.0.2,20251113-095759,759,Experiment,Both,1,Automatic,main,57,20260212-172724,global,local,750,H,H,A,A,H-A.png,A-H.png,hH,hH,mask-2.png,mask-1.png,h,1,0.7905852000112645,h,1,0.109564100013813,0.04920840001432225,0.04957940001622774,0.10138230002485216,0.09993510000640526,0.7530005000007804
RSVPLG03,km,20260212-172158,1.0.2,20251113-095759,759,Experiment,Both,1,Automatic,main,58,20260212-172729,global,global,750,S,S,E,A,S-E.png,S-A.png,sS,sS,mask-3.png,mask-3.png,s,1,0.515242199995555,s,1,0.11407530002179556,0.05072750002727844,0.05013859999598935,0.10030180000467226,0.10033200000179932,0.7526973000203725
RSVPLG03,km,20260212-172158,1.0.2,20251113-095759,759,Experiment,Both,1,Automatic,main,59,20260212-172734,global,global,300,S,S,A,A,S-A.png,S-A.png,sS,sS,mask-3.png,mask-2.png,s,1,0.38522070000180975,s,1,0.08147800000733696,0.048889400000916794,0.049532400007592514,0.09861149999778718,0.10051150000072084,0.3000039999897126
RSVPLG03,km,20260212-172158,1.0.2,20251113-095759,759,Experiment,Both,1,Automatic,main,60,20260212-172738,local,local,300,S,S,A,A,A-S.png,A-S.png,sS,sS,mask-3.png,mask-3.png,s,1,0.359119999979157,s,1,0.09557500001392327,0.050861099996836856,0.050810899992939085,0.10007559999939986,0.10132489999523386,0.3001321000047028
RSVPLG03,km,20260212-172158,1.0.2,20251113-095759,759,Experiment,Both,1,Automatic,main,61,20260212-172742,global,local,750,H,H,E,E,H-E.png,E-H.png,hH,hH,mask-2.png,mask-2.png,h,1,0.6313163000158966,s,0,0.06227080000098795,0.04883820001850836,0.048585299984551966,0.09980779999750666,0.09987649999675341,0.7530369000160135
RSVPLG03,km,20260212-172158,1.0.2,20251113-095759,759,Experiment,Both,1,Automatic,main,62,20260212-172747,local,local,300,H,H,A,E,A-H.png,E-H.png,hH,hH,mask-2.png,mask-4.png,s,0,0.46417039999505505,h,1,0.12651900001219474,0.05003350001061335,0.0494497999898158,0.10035900000366382,0.10030879999976605,0.3014907000178937
RSVPLG03,km,20260212-172158,1.0.2,20251113-095759,759,Experiment,Both,1,Automatic,main,63,20260212-172751,local,local,750,S,H,A,A,A-S.png,A-H.png,sS,hH,mask-4.png,mask-4.png,h,0,0.931713400001172,h,1,0.0819564999837894,0.04905250002047978,0.05003390001365915,0.09962210000958294,0.10201230001985095,0.7511998999980278
RSVPLG03,km,20260212-172158,1.0.2,20251113-095759,759,Experiment,Both,1,Automatic,main,64,20260212-172756,global,local,300,H,H,A,E,H-A.png,E-H.png,hH,hH,mask-3.png,mask-4.png,h,1,0.7671000999980606,s,0,0.0831350999942515,0.05135940000764094,0.04981890000635758,0.10102030000416562,0.0987613000033889,0.3020472000062
RSVPLG03,km,20260212-172158,1.0.2,20251113-095759,759,Experiment,Both,1,Automatic,main,65,20260212-172801,local,global,750,S,H,E,E,E-S.png,H-E.png,sS,hH,mask-3.png,mask-1.png,s,1,1.361349999991944,s,0,0.1115929999796208,0.04863549998844974,0.04960970001411624,0.0995552999956999,0.10066180001012981,0.7522913999855518
RSVPLG03,km,20260212-172158,1.0.2,20251113-095759,759,Experiment,Both,1,Automatic,main,66,20260212-172807,global,global,300,S,H,A,E,S-A.png,H-E.png,sS,hH,mask-3.png,mask-2.png,s,1,0.8509937999770045,h,1,0.11196810001274571,0.0495830999861937,0.04961900002672337,0.10121739999158308,0.10134070002823137,0.3017837999796029
RSVPLG03,km,20260212-172158,1.0.2,20251113-095759,759,Experiment,Both,1,Automatic,main,67,20260212-172811,global,global,300,S,H,E,A,S-E.png,H-A.png,sS,hH,mask-2.png,mask-1.png,s,1,0.6746367000159808,h,1,0.06592940000700764,0.051974100002553314,0.04978970001684502,0.10087289998773485,0.10090210000635125,0.30090209998888895
RSVPLG03,km,20260212-172158,1.0.2,20251113-095759,759,Experiment,Both,1,Automatic,main,68,20260212-172816,global,global,750,H,S,E,A,H-E.png,S-A.png,hH,sS,mask-3.png,mask-2.png,h,1,0.6477760999987368,s,1,0.12647620000643656,0.05078309998498298,0.049462399998446926,0.10147709999000654,0.09891770000103861,0.7543265999993309
RSVPLG03,km,20260212-172158,1.0.2,20251113-095759,759,Experiment,Both,1,Automatic,main,69,20260212-172821,global,local,300,S,S,E,A,S-E.png,A-S.png,sS,sS,mask-2.png,mask-4.png,s,1,0.7484555999981239,h,0,0.12656460001016967,0.04851779999444261,0.052007899997988716,0.098757800005842,0.10155919997487217,0.2982717000122648
RSVPLG03,km,20260212-172158,1.0.2,20251113-095759,759,Experiment,Both,1,Automatic,main,70,20260212-172825,local,global,750,S,H,E,A,E-S.png,H-A.png,sS,hH,mask-3.png,mask-4.png,s,1,0.7254925999732222,s,0,0.0964185000048019,0.0507602000143379,0.04761439998401329,0.10010300000431016,0.10003849997883663,0.7539998000138439
RSVPLG03,km,20260212-172158,1.0.2,20251113-095759,759,Experiment,Both,1,Automatic,main,71,20260212-172830,local,local,750,S,S,A,A,A-S.png,A-S.png,sS,sS,mask-4.png,mask-1.png,s,1,0.5966083999956027,s,1,0.09761619998607785,0.04939770000055432,0.04975679999915883,0.10091179999290034,0.09975749999284744,0.7533164000196848
RSVPLG03,km,20260212-172158,1.0.2,20251113-095759,759,Experiment,Both,1,Automatic,main,72,20260212-172835,local,global,300,H,H,E,A,E-H.png,H-A.png,hH,hH,mask-3.png,mask-3.png,h,1,0.4852340999932494,s,0,0.09345379998558201,0.048483199992915615,0.050717600010102615,0.09989119999227114,0.10078839998459443,0.29926609998801723
RSVPLG03,km,20260212-172158,1.0.2,20251113-095759,759,Experiment,Both,1,Automatic,main,73,20260212-172839,global,global,300,S,S,A,E,S-A.png,S-E.png,sS,sS,mask-2.png,mask-3.png,h,0,1.5964932999922894,s,1,0.09402200000477023,0.0494100000069011,0.04937309998786077,0.10058560001198202,0.10021720000077039,0.3016735000128392
RSVPLG03,km,20260212-172158,1.0.2,20251113-095759,759,Experiment,Both,1,Automatic,main,74,20260212-172845,global,global,300,S,S,E,E,S-E.png,S-E.png,sS,sS,mask-2.png,mask-2.png,s,1,1.0576494000270031,s,1,0.07869209998170845,0.0496401000127662,0.05121289999806322,0.09856990000116639,0.10096000001067296,0.2991104999964591
RSVPLG03,km,20260212-172158,1.0.2,20251113-095759,759,Experiment,Both,1,Automatic,main,75,20260212-172849,global,local,300,S,S,E,E,S-E.png,E-S.png,sS,sS,mask-1.png,mask-2.png,s,1,1.3430534999934025,s,1,0.10901480002212338,0.05132600001525134,0.04897160001564771,0.10060269999667071,0.09918710001511499,0.30207289999816567
RSVPLG03,km,20260212-172158,1.0.2,20251113-095759,759,Experiment,Both,1,Automatic,main,76,20260212-172858,local,local,300,H,H,A,A,A-H.png,A-H.png,hH,hH,mask-3.png,mask-3.png,h,1,0.6500834999897052,h,1,0.0939168999902904,0.04923559998860583,0.049421300005633384,0.10072459999355488,0.10024080000584945,0.3014563999895472
RSVPLG03,km,20260212-172158,1.0.2,20251113-095759,759,Experiment,Both,1,Automatic,main,77,20260212-172902,local,global,300,H,S,E,A,E-H.png,S-A.png,hH,sS,mask-2.png,mask-2.png,h,1,1.9464875000121538,h,0,0.07790969999041408,0.04969459999119863,0.051239100022939965,0.09908659997745417,0.10071960001369007,0.2999639999761712
RSVPLG03,km,20260212-172158,1.0.2,20251113-095759,759,Experiment,Both,1,Automatic,main,78,20260212-172908,local,global,750,S,S,A,E,A-S.png,S-E.png,sS,sS,mask-1.png,mask-4.png,s,1,0.46417389999260195,s,1,0.44536699997843243,0.05005249998066574,0.04867019999073818,0.10047069998108782,0.1007435999927111,0.752907599991886
RSVPLG03,km,20260212-172158,1.0.2,20251113-095759,759,Experiment,Both,1,Automatic,main,79,20260212-172913,global,global,300,S,H,A,A,S-A.png,H-A.png,sS,hH,mask-2.png,mask-2.png,s,1,0.91560509998817,h,1,0.12537379999412224,0.049788800009991974,0.04784859999199398,0.0998496999964118,0.09857880001072772,0.3026110999926459
RSVPLG03,km,20260212-172158,1.0.2,20251113-095759,759,Experiment,Both,1,Automatic,main,80,20260212-172918,global,global,750,S,H,E,A,S-E.png,H-A.png,sS,hH,mask-1.png,mask-2.png,s,1,0.5480396999919321,h,1,0.09503269998822361,0.049916000018129125,0.051717499998630956,0.09997770001064055,0.10179270000662655,0.7502354000171181
RSVPLG03,km,20260212-172158,1.0.2,20251113-095759,759,Experiment,Both,1,Automatic,main,81,20260212-172923,local,global,750,H,S,A,E,A-H.png,S-E.png,hH,sS,mask-2.png,mask-4.png,h,1,0.9432931000192184,h,0,0.0985952999908477,0.0489567999902647,0.05027109998627566,0.09924989999854006,0.09961269999621436,0.7521606000082102
RSVPLG03,km,20260212-172158,1.0.2,20251113-095759,759,Experiment,Both,1,Automatic,main,82,20260212-172928,global,local,300,S,S,E,E,S-E.png,E-S.png,sS,sS,mask-3.png,mask-3.png,s,1,1.006088299996918,h,0,0.127965799998492,0.04989150000619702,0.05058449998614378,0.0986890000058338,0.10197489999700338,0.2993997000157833
RSVPLG03,km,20260212-172158,1.0.2,20251113-095759,759,Experiment,Both,1,Automatic,main,83,20260212-172933,local,global,300,H,H,A,A,A-H.png,H-A.png,hH,hH,mask-4.png,mask-2.png,h,1,1.6405171999940649,h,1,0.09253940000780858,0.050390199990943074,0.05010979998041876,0.10033609997481108,0.10120149998692796,0.3008004000002984
RSVPLG03,km,20260212-172158,1.0.2,20251113-095759,759,Experiment,Both,1,Automatic,main,84,20260212-172938,local,local,750,S,S,A,A,A-S.png,A-S.png,sS,sS,mask-2.png,mask-4.png,s,1,0.914169600000605,s,1,0.07998430001316592,0.05085139998118393,0.05116419997648336,0.10113619998446666,0.09990939998533577,0.753081500006374
RSVPLG03,km,20260212-172158,1.0.2,20251113-095759,759,Experiment,Both,1,Automatic,main,85,20260212-172943,local,global,750,S,S,E,A,E-S.png,S-A.png,sS,sS,mask-3.png,mask-3.png,s,1,0.9245651999954134,h,0,0.09317219999502413,0.04800410001189448,0.05149050001637079,0.09884690001490526,0.10160819999873638,0.7511167000047863
RSVPLG03,km,20260212-172158,1.0.2,20251113-095759,759,Experiment,Both,1,Automatic,main,86,20260212-172948,local,local,300,S,H,A,E,A-S.png,E-H.png,sS,hH,mask-3.png,mask-3.png,s,1,1.7166182000073604,s,0,0.19151699999929406,0.0511009999900125,0.04880360001698136,0.10052509998786263,0.0993505000078585,0.30157679997500964
RSVPLG03,km,20260212-172158,1.0.2,20251113-095759,759,Experiment,Both,1,Automatic,main,87,20260212-172954,global,global,750,S,H,E,E,S-E.png,H-E.png,sS,hH,mask-1.png,mask-2.png,s,1,0.6508109999995213,h,1,0.11424119997536764,0.049782499991124496,0.05064610001863912,0.10033590000239201,0.1013929000182543,0.7521897999977227
RSVPLG03,km,20260212-172158,1.0.2,20251113-095759,759,Experiment,Both,1,Automatic,main,88,20260212-172959,local,local,750,H,S,A,A,A-H.png,A-S.png,hH,sS,mask-3.png,mask-3.png,h,1,0.7241078000224661,s,1,0.14697739999974146,0.04844559999764897,0.050896400003694,0.09893039998132735,0.10156570002436638,0.7510942999797408
RSVPLG03,km,20260212-172158,1.0.2,20251113-095759,759,Experiment,Both,1,Automatic,main,89,20260212-173004,global,local,300,S,S,A,E,S-A.png,E-S.png,sS,sS,mask-2.png,mask-4.png,s,1,1.5691838999919128,s,1,0.09790110000176355,0.04949020000640303,0.05010749999200925,0.10149440000532195,0.09957929997472093,0.30158850000589155
RSVPLG03,km,20260212-172158,1.0.2,20251113-095759,759,Experiment,Both,1,Automatic,main,90,20260212-173009,local,local,750,H,H,A,E,A-H.png,E-H.png,hH,hH,mask-2.png,mask-2.png,s,0,1.4376440000196453,s,0,0.09751859999960288,0.049966300022788346,0.05089769998448901,0.10102610001922585,0.099513900000602,0.7533811000175774
RSVPLG03,km,20260212-172158,1.0.2,20251113-095759,759,Experiment,Both,1,Automatic,main,91,20260212-173015,local,local,750,S,H,E,E,E-S.png,E-H.png,sS,hH,mask-3.png,mask-2.png,h,0,0.6564790999982506,h,1,0.33805560000473633,0.05094819999067113,0.049889299989445135,0.1015750999795273,0.09893290000036359,0.753291300003184
RSVPLG03,km,20260212-172158,1.0.2,20251113-095759,759,Experiment,Both,1,Automatic,main,92,20260212-173020,global,local,300,H,S,E,E,H-E.png,E-S.png,hH,sS,mask-3.png,mask-4.png,h,1,1.7128833000024315,s,1,0.09876730001997203,0.04902289999881759,0.048973500001011416,0.10006330002215691,0.09967909997794777,0.30061960002058186
RSVPLG03,km,20260212-172158,1.0.2,20251113-095759,759,Experiment,Both,1,Automatic,main,93,20260212-173025,local,local,300,S,H,E,E,E-S.png,E-H.png,sS,hH,mask-2.png,mask-3.png,s,1,0.9467096999869682,h,1,0.1468686999869533,0.0507684999902267,0.048861099989153445,0.10080689997994341,0.10050040000351146,0.30144449998624623
RSVPLG03,km,20260212-172158,1.0.2,20251113-095759,759,Experiment,Both,1,Automatic,main,94,20260212-173030,global,global,750,H,S,A,E,H-A.png,S-E.png,hH,sS,mask-3.png,mask-4.png,h,1,0.7707349999982398,s,1,0.08172620000550523,0.05093870000564493,0.049252099997829646,0.09994929999811575,0.09905479999724776,0.7534019000013359
RSVPLG03,km,20260212-172158,1.0.2,20251113-095759,759,Experiment,Both,1,Automatic,main,95,20260212-173035,global,global,300,S,H,A,E,S-A.png,H-E.png,sS,hH,mask-2.png,mask-3.png,s,1,1.1078711999871302,h,1,0.1305685999977868,0.05074629999580793,0.0509703999850899,0.10164910001913086,0.10001399999600835,0.30142510001314804
RSVPLG03,km,20260212-172158,1.0.2,20251113-095759,759,Experiment,Both,1,Automatic,main,96,20260212-173040,global,global,300,H,S,E,E,H-E.png,S-E.png,hH,sS,mask-3.png,mask-1.png,h,1,0.7024986000033095,s,1,0.0812615999893751,0.05172580000362359,0.04913899998064153,0.10094180001760833,0.10190049998345785,0.3016903000243474
RSVPLG03,km,20260212-172158,1.0.2,20251113-095759,759,Experiment,Both,1,Automatic,main,97,20260212-173044,global,global,750,S,H,E,A,S-E.png,H-A.png,sS,hH,mask-3.png,mask-1.png,s,1,0.40163399997982197,h,1,0.12463009997736663,0.04935990000376478,0.05047339998418465,0.09930899998289533,0.10012129999813624,0.751437500002794
RSVPLG03,km,20260212-172158,1.0.2,20251113-095759,759,Experiment,Both,1,Automatic,main,98,20260212-173049,local,global,300,S,S,A,E,A-S.png,S-E.png,sS,sS,mask-4.png,mask-1.png,s,1,0.9307423999998719,s,1,0.09822820001863874,0.049046800006181,0.050045100011629984,0.09897250001085922,0.10078380000777543,0.2993365000002086
RSVPLG03,km,20260212-172158,1.0.2,20251113-095759,759,Experiment,Both,1,Automatic,main,99,20260212-173054,global,local,750,H,S,E,A,H-E.png,A-S.png,hH,sS,mask-4.png,mask-3.png,h,1,0.6874814000038896,h,0,0.09726130001945421,0.04877890000352636,0.051111900014802814,0.09926720001385547,0.1011626000108663,0.7520281999895815
RSVPLG03,km,20260212-172158,1.0.2,20251113-095759,759,Experiment,Both,1,Automatic,main,100,20260212-173059,global,local,300,H,S,E,A,H-E.png,A-S.png,hH,sS,mask-1.png,mask-3.png,s,0,1.3679788000008557,h,0,0.12779800000134856,0.049852500000270084,0.048979399987729266,0.09933290001936257,0.10058989998651668,0.30035160001716577
