exp,exp_initials,runtime,ver,modtime,sub,blocktype,targets,cuetype,mode,trialtype,trial,trialtime,t1_level,t2_level,t2_lag,t1,t2,distractor1,distractor2,stimfile1,stimfile2,t1_corr,t2_corr,maskfile1,maskfile2,t1_resp,t1_acc,t1_rt,t2_resp,t2_acc,t2_rt,t1_dur,t2_dur,t1mask_soa,t2mask_soa,t1t2_soa
RSVPLG03,am,20260225-085714,1.0.2,20251105-084359,774,Introduction,T1,1,Automatic,main,1,20260225-090855,global,local,750,H,H,E,E,H-E.png,E-H.png,hH,hH,mask-3.png,mask-1.png,h,1,0.11345669999991514,none,-5,0,0.09294469999997546,0.09987649999993664,0.19181289999994533,0.19983170000000428,0.7435828999999785
RSVPLG03,am,20260225-085714,1.0.2,20251105-084359,774,Introduction,T1,1,Automatic,main,2,20260225-090900,global,local,750,S,S,A,A,S-A.png,A-S.png,sS,sS,mask-1.png,mask-2.png,s,1,0.6868818000000374,none,-5,0,0.10083139999994728,0.10145889999989777,0.20147399999996196,0.20034469999995963,0.7503327000000581
RSVPLG03,am,20260225-085714,1.0.2,20251105-084359,774,Introduction,T1,1,Automatic,main,3,20260225-090905,global,global,750,H,S,E,A,H-E.png,S-A.png,hH,sS,mask-3.png,mask-4.png,h,1,0.8059013999999252,none,-5,0,0.09955220000006193,0.10098829999992631,0.19922440000004826,0.2008591000000024,0.749069600000098
RSVPLG03,am,20260225-085714,1.0.2,20251105-084359,774,Introduction,T1,1,Automatic,main,4,20260225-090909,global,global,750,S,S,A,E,S-A.png,S-E.png,sS,sS,mask-2.png,mask-4.png,s,1,0.4811882000000196,none,-5,0,0.09861980000005133,0.1010707000000366,0.19938710000008086,0.20015699999999015,0.7486178999999993
RSVPLG03,am,20260225-085714,1.0.2,20251105-084359,774,Introduction,T1,1,Automatic,main,5,20260225-090914,local,global,750,S,S,E,E,E-S.png,S-E.png,sS,sS,mask-1.png,mask-2.png,s,1,0.7670796999999538,none,-5,0,0.10077990000002046,0.09914379999997891,0.20069929999999658,0.19972739999991518,0.7509112000000187
RSVPLG03,am,20260225-085714,1.0.2,20251105-084359,774,Introduction,T1,1,Automatic,main,6,20260225-090919,local,global,750,S,S,E,E,E-S.png,S-E.png,sS,sS,mask-1.png,mask-2.png,h,0,1.5169346000000132,none,-5,0,0.09991209999998318,0.0999211999999261,0.19980080000004818,0.20009799999991174,0.7497752000000446
RSVPLG03,am,20260225-085714,1.0.2,20251105-084359,774,Introduction,T1,1,Automatic,main,7,20260225-090925,global,global,750,S,H,E,E,S-E.png,H-E.png,sS,hH,mask-2.png,mask-2.png,s,1,0.9890588000000662,none,-5,0,0.09987179999995988,0.09990820000007261,0.199742399999991,0.19884969999998248,0.7504775999999538
RSVPLG03,am,20260225-085714,1.0.2,20251105-084359,774,Introduction,T1,1,Automatic,main,8,20260225-090930,local,local,750,S,S,E,E,E-S.png,E-S.png,sS,sS,mask-4.png,mask-1.png,s,1,0.47127130000001216,none,-5,0,0.09890789999997196,0.09989359999997305,0.1993161999999984,0.20181990000003225,0.748484899999994
RSVPLG03,am,20260225-085714,1.0.2,20251105-084359,774,Introduction,T1,1,Automatic,main,9,20260225-090934,local,global,750,S,H,E,A,E-S.png,H-A.png,sS,hH,mask-2.png,mask-4.png,s,1,0.5089394999999968,none,-5,0,0.10018429999990985,0.09895789999995941,0.2010275999998612,0.19890409999993608,0.7515366000000085
RSVPLG03,am,20260225-085714,1.0.2,20251105-084359,774,Introduction,T1,1,Automatic,main,10,20260225-090939,local,local,750,H,H,A,A,A-H.png,A-H.png,hH,hH,mask-3.png,mask-2.png,h,1,0.5447527999999693,none,-5,0,0.09991679999984626,0.10006029999999555,0.1996311999998852,0.19996070000001964,0.7495367999999871
RSVPLG03,am,20260225-085714,1.0.2,20251105-084359,774,Introduction,T1,1,Automatic,main,11,20260225-090944,global,local,750,H,H,E,E,H-E.png,E-H.png,hH,hH,mask-2.png,mask-4.png,h,1,0.48571049999986826,none,-5,0,0.09882809999999154,0.10186930000008942,0.20058130000006713,0.20059059999994133,0.7488877000000684
RSVPLG03,am,20260225-085714,1.0.2,20251105-084359,774,Introduction,T1,1,Automatic,main,12,20260225-090948,local,local,750,H,S,A,A,A-H.png,A-S.png,hH,sS,mask-3.png,mask-3.png,h,1,0.7274247999998806,none,-5,0,0.09988029999999526,0.0997939999999744,0.1997750000000451,0.2007344999999532,0.7499858000001041
RSVPLG03,am,20260225-085714,1.0.2,20251105-084359,774,Introduction,T1,1,Automatic,main,13,20260225-090953,global,global,750,S,S,E,A,S-E.png,S-A.png,sS,sS,mask-3.png,mask-1.png,s,1,0.49479499999984,none,-5,0,0.0978015000000596,0.09988169999996899,0.1987543000000187,0.19977799999992385,0.7486689000002116
RSVPLG03,am,20260225-085714,1.0.2,20251105-084359,774,Introduction,T1,1,Automatic,main,14,20260225-090958,local,global,750,S,H,A,E,A-S.png,H-E.png,sS,hH,mask-3.png,mask-4.png,s,1,1.064418700000033,none,-5,0,0.09993749999989632,0.10192890000007537,0.1998439999999846,0.19982870000012554,0.7498465999999553
RSVPLG03,am,20260225-085714,1.0.2,20251105-084359,774,Introduction,T1,1,Automatic,main,15,20260225-091003,local,local,750,S,H,E,A,E-S.png,A-H.png,sS,hH,mask-2.png,mask-4.png,s,1,0.6901511999999457,none,-5,0,0.10007699999982833,0.09989810000001853,0.20001589999992575,0.1997851000000992,0.7495885999999246
RSVPLG03,am,20260225-085714,1.0.2,20251105-084359,774,Introduction,T1,1,Automatic,main,16,20260225-091008,global,local,750,S,H,A,E,S-A.png,E-H.png,sS,hH,mask-3.png,mask-4.png,s,1,0.4420294000001377,none,-5,0,0.09970220000013796,0.10046889999989617,0.20116910000001553,0.19971859999986918,0.7502704000000904
RSVPLG03,am,20260225-091056,1.0.2,20251105-084359,774,Practice,T1,1,Automatic,main,1,20260225-091114,global,local,750,H,S,E,A,H-E.png,A-S.png,hH,sS,mask-1.png,mask-2.png,h,1,0.6204368999999588,none,-5,0,0.04043610000007902,0.05000359999985449,0.09234740000010788,0.1010236999998142,0.741089600000123
RSVPLG03,am,20260225-091056,1.0.2,20251105-084359,774,Practice,T1,1,Automatic,main,2,20260225-091118,local,global,300,S,H,E,E,E-S.png,H-E.png,sS,hH,mask-2.png,mask-4.png,s,1,0.47574729999996634,none,-5,0,0.05002820000004249,0.048559399999930974,0.1000779999999395,0.09860059999982695,0.2998821000001044
RSVPLG03,am,20260225-091056,1.0.2,20251105-084359,774,Practice,T1,1,Automatic,main,3,20260225-091122,local,local,300,H,S,A,A,A-H.png,A-S.png,hH,sS,mask-3.png,mask-4.png,h,1,0.3606958999998824,none,-5,0,0.050036999999974796,0.049680999999964115,0.09982420000005732,0.09975660000009157,0.29985439999995833
RSVPLG03,am,20260225-091056,1.0.2,20251105-084359,774,Practice,T1,1,Automatic,main,4,20260225-091126,global,local,300,S,H,A,E,S-A.png,E-H.png,sS,hH,mask-2.png,mask-2.png,s,1,0.40935480000007374,none,-5,0,0.051280500000075335,0.05102519999991273,0.09962919999998121,0.09978730000011637,0.2999135000000024
RSVPLG03,am,20260225-091056,1.0.2,20251105-084359,774,Practice,T1,1,Automatic,main,5,20260225-091130,global,local,300,S,H,E,A,S-E.png,A-H.png,sS,hH,mask-2.png,mask-3.png,s,1,0.43539010000017697,none,-5,0,0.051076799999918876,0.049744599999939965,0.10112329999992653,0.09980999999993401,0.30097490000002836
RSVPLG03,am,20260225-091056,1.0.2,20251105-084359,774,Practice,T1,1,Automatic,main,6,20260225-091134,global,local,750,H,S,E,A,H-E.png,A-S.png,hH,sS,mask-4.png,mask-4.png,h,1,0.6089060000001609,none,-5,0,0.05106759999989663,0.05002590000003693,0.10008160000006683,0.10004170000001977,0.7494884999998703
RSVPLG03,am,20260225-091056,1.0.2,20251105-084359,774,Practice,T1,1,Automatic,main,7,20260225-091139,local,global,750,H,H,A,A,A-H.png,H-A.png,hH,hH,mask-4.png,mask-4.png,h,1,0.5797771000000012,none,-5,0,0.05005110000001878,0.05135059999997793,0.10112570000001142,0.10039320000009866,0.7493187000000034
RSVPLG03,am,20260225-091056,1.0.2,20251105-084359,774,Practice,T1,1,Automatic,main,8,20260225-091143,global,global,750,H,S,A,E,H-A.png,S-E.png,hH,sS,mask-1.png,mask-3.png,h,1,0.5124055999999655,none,-5,0,0.05208629999992809,0.05001399999991918,0.10086230000001706,0.10004779999985658,0.7528342000000521
RSVPLG03,am,20260225-091056,1.0.2,20251105-084359,774,Practice,T1,1,Automatic,main,9,20260225-091148,local,global,300,S,S,E,A,E-S.png,S-A.png,sS,sS,mask-2.png,mask-3.png,s,1,0.4024019999999382,none,-5,0,0.04999169999996411,0.04995860000008179,0.0996588000000429,0.10002630000008139,0.2993206999999529
RSVPLG03,am,20260225-091056,1.0.2,20251105-084359,774,Practice,T1,1,Automatic,main,10,20260225-091152,local,local,750,H,S,E,A,E-H.png,A-S.png,hH,sS,mask-4.png,mask-4.png,h,1,0.5409245000000737,none,-5,0,0.05102370000008705,0.050037500000144064,0.10170470000002751,0.10009639999998399,0.7516861999999946
RSVPLG03,am,20260225-091056,1.0.2,20251105-084359,774,Practice,T1,1,Automatic,main,11,20260225-091156,local,global,750,H,H,E,E,E-H.png,H-E.png,hH,hH,mask-3.png,mask-3.png,h,1,0.6010742000000846,none,-5,0,0.05101110000009612,0.05099070000005668,0.10101239999994505,0.10099730000001728,0.7498878999999761
RSVPLG03,am,20260225-091056,1.0.2,20251105-084359,774,Practice,T1,1,Automatic,main,12,20260225-091201,global,global,300,H,S,A,A,H-A.png,S-A.png,hH,sS,mask-2.png,mask-4.png,h,1,0.6737600999999813,none,-5,0,0.04893250000009175,0.04885089999993397,0.09995230000004085,0.09873339999990094,0.3006259000001137
RSVPLG03,am,20260225-091056,1.0.2,20251105-084359,774,Practice,T1,1,Automatic,main,13,20260225-091205,global,global,300,S,S,E,E,S-E.png,S-E.png,sS,sS,mask-2.png,mask-2.png,s,1,0.42708319999997,none,-5,0,0.049123100000088016,0.05002639999997882,0.09968810000009398,0.09913819999997031,0.2995375000000422
RSVPLG03,am,20260225-091056,1.0.2,20251105-084359,774,Practice,T1,1,Automatic,main,14,20260225-091209,global,global,750,H,H,A,A,H-A.png,H-A.png,hH,hH,mask-4.png,mask-2.png,h,1,0.43970370000010917,none,-5,0,0.04993259999992006,0.05004230000008647,0.10091369999986455,0.09827220000011039,0.7521528999998282
RSVPLG03,am,20260225-091056,1.0.2,20251105-084359,774,Practice,T1,1,Automatic,main,15,20260225-091214,local,local,750,H,H,E,E,E-H.png,E-H.png,hH,hH,mask-4.png,mask-1.png,h,1,0.7878567000000203,none,-5,0,0.05080810000004021,0.050123799999937546,0.09887479999997595,0.09995490000005702,0.7498289000000113
RSVPLG03,am,20260225-091056,1.0.2,20251105-084359,774,Practice,T1,1,Automatic,main,16,20260225-091218,local,local,300,H,S,A,A,A-H.png,A-S.png,hH,sS,mask-2.png,mask-1.png,h,1,0.4565609000001132,none,-5,0,0.05004210000015519,0.04987869999990835,0.10007289999998648,0.09990169999991849,0.29990840000004937
RSVPLG03,am,20260225-091312,1.0.2,20251105-084359,774,Introduction,Both,1,Automatic,main,1,20260225-091330,global,global,750,S,H,E,A,S-E.png,H-A.png,sS,hH,mask-2.png,mask-1.png,s,1,1.120657299999948,h,1,4.360288599999876,0.09186859999999797,0.09986170000001948,0.1916931000000659,0.20070970000006128,0.7414802000000691
RSVPLG03,am,20260225-091312,1.0.2,20251105-084359,774,Introduction,Both,1,Automatic,main,2,20260225-091339,local,local,750,H,H,E,E,E-H.png,E-H.png,hH,hH,mask-1.png,mask-1.png,h,1,3.6997513999999683,s,0,1.173941799999966,0.10008509999988746,0.10009280000008403,0.20010099999990416,0.19894829999998365,0.7504879999999048
RSVPLG03,am,20260225-091312,1.0.2,20251105-084359,774,Introduction,Both,1,Automatic,main,3,20260225-091348,local,local,750,H,H,A,E,A-H.png,E-H.png,hH,hH,mask-1.png,mask-2.png,h,1,0.9633470999999645,h,1,2.4000290000001314,0.09991279999985636,0.09978069999988293,0.1998555000000124,0.19956309999997757,0.7482049000000188
RSVPLG03,am,20260225-091312,1.0.2,20251105-084359,774,Introduction,Both,1,Automatic,main,4,20260225-091356,local,global,750,S,H,A,E,A-S.png,H-E.png,sS,hH,mask-1.png,mask-4.png,s,1,0.9653757000000951,h,1,3.509287799999811,0.09992280000005849,0.09986520000006749,0.19996130000004086,0.19978290000017296,0.7498309000000063
RSVPLG03,am,20260225-091312,1.0.2,20251105-084359,774,Introduction,Both,1,Automatic,main,5,20260225-091405,local,global,750,S,H,A,E,A-S.png,H-E.png,sS,hH,mask-4.png,mask-1.png,s,1,1.5168226999999206,h,1,1.5097774000000754,0.09992459999989478,0.09967500000016116,0.199833099999978,0.20004050000011375,0.7498011999998653
RSVPLG03,am,20260225-091312,1.0.2,20251105-084359,774,Introduction,Both,1,Automatic,main,6,20260225-091412,global,local,750,S,H,A,A,S-A.png,A-H.png,sS,hH,mask-2.png,mask-4.png,h,0,30.42951999999991,s,0,1.466999900000019,0.09991090000016811,0.09957499999995889,0.1978982000000542,0.19965109999998276,0.7482486000001245
RSVPLG03,am,20260225-091312,1.0.2,20251105-084359,774,Introduction,Both,1,Automatic,main,7,20260225-091448,local,global,750,S,S,A,A,A-S.png,S-A.png,sS,sS,mask-4.png,mask-2.png,s,1,1.0523123000000396,h,0,1.5323212000000694,0.09976759999995011,0.09990240000001904,0.20148020000010547,0.2000485999999455,0.7504053000000113
RSVPLG03,am,20260225-091312,1.0.2,20251105-084359,774,Introduction,Both,1,Automatic,main,8,20260225-091455,local,global,750,H,S,A,E,A-H.png,S-E.png,hH,sS,mask-1.png,mask-1.png,s,0,1.0850891000000047,s,1,1.2219599999998536,0.09973220000006222,0.09987320000004729,0.1996827000000394,0.19982439999989765,0.750281300000097
RSVPLG03,am,20260225-091312,1.0.2,20251105-084359,774,Introduction,Both,1,Automatic,main,9,20260225-091502,global,global,750,S,H,A,A,S-A.png,H-A.png,sS,hH,mask-2.png,mask-3.png,h,0,2.21206959999995,h,1,2.470993099999987,0.09992140000008476,0.09991070000000946,0.1998619000000872,0.1987739999999576,0.7498912000000928
RSVPLG03,am,20260225-091312,1.0.2,20251105-084359,774,Introduction,Both,1,Automatic,main,10,20260225-091511,global,local,750,S,H,A,A,S-A.png,A-H.png,sS,hH,mask-2.png,mask-3.png,h,0,1.301530400000047,h,1,60.91071800000009,0.0999084000000039,0.10087350000003426,0.19982120000008763,0.20046759999991082,0.7484690000001137
RSVPLG03,am,20260225-091312,1.0.2,20251105-084359,774,Introduction,Both,1,Automatic,main,11,20260225-091617,global,global,750,H,H,A,A,H-A.png,H-A.png,hH,hH,mask-2.png,mask-2.png,h,1,1.3060265999999956,h,1,1.3480153000000428,0.09988940000016555,0.10087890000022526,0.19980200000009063,0.20078110000008564,0.7491942999999992
RSVPLG03,am,20260225-091312,1.0.2,20251105-084359,774,Introduction,Both,1,Automatic,main,12,20260225-091624,global,local,750,S,S,A,A,S-A.png,A-S.png,sS,sS,mask-2.png,mask-4.png,s,1,1.4145669999998063,h,0,1.4300508999999693,0.09988959999986946,0.10100009999996473,0.1998111999998855,0.1992949000000408,0.7496888999999101
RSVPLG03,am,20260225-091312,1.0.2,20251105-084359,774,Introduction,Both,1,Automatic,main,13,20260225-091631,local,local,750,S,H,A,A,A-S.png,A-H.png,sS,hH,mask-2.png,mask-2.png,s,1,1.1570910000000367,h,1,0.9822999999998956,0.09987709999995786,0.09988270000008015,0.19962940000004892,0.19979220000004716,0.7496805999999197
RSVPLG03,am,20260225-091312,1.0.2,20251105-084359,774,Introduction,Both,1,Automatic,main,14,20260225-091637,global,global,750,H,H,A,A,H-A.png,H-A.png,hH,hH,mask-4.png,mask-2.png,h,1,1.4638761999999588,s,0,0.593793499999947,0.0996735000001081,0.09931649999998626,0.1995752000000266,0.20042699999999058,0.7493628000001991
RSVPLG03,am,20260225-091312,1.0.2,20251105-084359,774,Introduction,Both,1,Automatic,main,15,20260225-091644,local,local,750,H,S,E,A,E-H.png,A-S.png,hH,sS,mask-4.png,mask-4.png,none,-6,0,none,-6,0,0.09913619999997536,0.09977699999990364,0.1992540999999619,0.2003786999998738,0.7489820000000691
RSVPLG03,am,20260225-091723,1.0.2,20251105-084359,774,Practice,Both,1,Automatic,main,1,20260225-091742,global,local,300,S,S,A,A,S-A.png,A-S.png,sS,sS,mask-1.png,mask-3.png,s,1,0.7918557000000419,h,0,1.1950395000001208,0.04150529999992614,0.05010289999995621,0.09301030000005994,0.10015260000000126,0.2928291000000627
RSVPLG03,am,20260225-091723,1.0.2,20251105-084359,774,Practice,Both,1,Automatic,main,2,20260225-091748,local,global,750,H,H,A,E,A-H.png,H-E.png,hH,hH,mask-4.png,mask-2.png,h,1,1.4589343999998619,h,1,0.5089665000000423,0.04989120000004732,0.05003899999996975,0.09875990000000456,0.09852560000013,0.7496914999999262
RSVPLG03,am,20260225-091723,1.0.2,20251105-084359,774,Practice,Both,1,Automatic,main,3,20260225-091754,local,global,750,H,S,A,E,A-H.png,S-E.png,hH,sS,mask-4.png,mask-3.png,h,1,1.3041536000000633,h,0,0.6199419000001853,0.05000360000008186,0.04804210000020248,0.09982240000022102,0.09809930000005807,0.7495890000000145
RSVPLG03,am,20260225-091723,1.0.2,20251105-084359,774,Practice,Both,1,Automatic,main,4,20260225-091800,global,local,750,S,S,A,E,S-A.png,E-S.png,sS,sS,mask-1.png,mask-3.png,s,1,0.8307686999999078,s,1,0.7973983000001681,0.050065499999846,0.05107929999985572,0.10017579999998816,0.10010909999982687,0.7496879000000263
RSVPLG03,am,20260225-091723,1.0.2,20251105-084359,774,Practice,Both,1,Automatic,main,5,20260225-091806,local,local,750,H,H,A,E,A-H.png,E-H.png,hH,hH,mask-3.png,mask-3.png,h,1,1.651360699999941,h,1,0.8042771000000357,0.051105499999948734,0.05002749999994194,0.1011470000000827,0.09983080000006339,0.7512033000000429
RSVPLG03,am,20260225-091723,1.0.2,20251105-084359,774,Practice,Both,1,Automatic,main,6,20260225-091812,global,global,750,S,S,E,A,S-E.png,S-A.png,sS,sS,mask-3.png,mask-1.png,s,1,1.590983999999935,h,0,1.2380365999999867,0.05008250000014414,0.05000519999998687,0.10012449999999262,0.1000475999999253,0.7497063000000708
RSVPLG03,am,20260225-091723,1.0.2,20251105-084359,774,Practice,Both,1,Automatic,main,7,20260225-091819,global,global,300,S,S,E,A,S-E.png,S-A.png,sS,sS,mask-3.png,mask-3.png,s,1,0.6386979999999767,h,0,1.053506600000219,0.05010700000002544,0.05004220000000714,0.10011519999989105,0.0992478000000574,0.29990219999990586
RSVPLG03,am,20260225-091723,1.0.2,20251105-084359,774,Practice,Both,1,Automatic,main,8,20260225-091825,local,local,300,S,S,A,E,A-S.png,E-S.png,sS,sS,mask-3.png,mask-4.png,s,1,1.5345773999999892,h,0,1.4767891999999847,0.050041100000044025,0.050037400000064736,0.10008109999989756,0.09905810000009296,0.30069509999998445
RSVPLG03,am,20260225-091723,1.0.2,20251105-084359,774,Practice,Both,1,Automatic,main,9,20260225-091831,local,global,300,H,H,E,E,E-H.png,H-E.png,hH,hH,mask-4.png,mask-3.png,h,1,1.008688500000062,h,1,1.5949385000001257,0.050008500000103595,0.051049599999942075,0.10003230000006624,0.10008769999990363,0.2998199000001023
RSVPLG03,am,20260225-091723,1.0.2,20251105-084359,774,Practice,Both,1,Automatic,main,10,20260225-091838,global,local,750,S,S,A,A,S-A.png,A-S.png,sS,sS,mask-3.png,mask-3.png,s,1,1.2527293000000554,h,0,2.3884120000000166,0.05002169999988837,0.05156740000006721,0.10003249999999753,0.10140590000014527,0.7481363999997939
RSVPLG03,am,20260225-091723,1.0.2,20251105-084359,774,Practice,Both,1,Automatic,main,11,20260225-091845,local,local,750,H,H,A,A,A-H.png,A-H.png,hH,hH,mask-4.png,mask-1.png,h,1,1.759523100000024,h,1,1.6742131000000882,0.050037100000054124,0.05000489999997626,0.10011510000003909,0.09791760000007343,0.7500652999999602
RSVPLG03,am,20260225-091723,1.0.2,20251105-084359,774,Practice,Both,1,Automatic,main,12,20260225-091853,local,global,300,H,H,A,E,A-H.png,H-E.png,hH,hH,mask-1.png,mask-2.png,h,1,1.5361235999998826,h,1,0.4855403000001388,0.049883899999940695,0.0508122999999614,0.09994689999984985,0.10085840000010649,0.2997387999998864
RSVPLG03,am,20260225-091723,1.0.2,20251105-084359,774,Practice,Both,1,Automatic,main,13,20260225-091858,global,local,300,H,H,E,E,H-E.png,E-H.png,hH,hH,mask-1.png,mask-2.png,h,1,1.1950635000000602,s,0,0.3466425999999956,0.05004989999997633,0.049824999999827924,0.10091209999995954,0.09988709999993262,0.29976639999995314
RSVPLG03,am,20260225-091723,1.0.2,20251105-084359,774,Practice,Both,1,Automatic,main,14,20260225-091904,local,local,300,H,H,A,A,A-H.png,A-H.png,hH,hH,mask-3.png,mask-2.png,h,1,1.6664398000000347,h,1,0.3636142000000291,0.05004789999998138,0.0481360000001132,0.10005490000003192,0.09976340000002892,0.29983070000002954
RSVPLG03,am,20260225-091723,1.0.2,20251105-084359,774,Practice,Both,1,Automatic,main,15,20260225-091909,global,global,750,S,H,A,A,S-A.png,H-A.png,sS,hH,mask-1.png,mask-3.png,s,1,1.2245721000001595,h,1,1.133884500000022,0.05002750000016931,0.05008710000015526,0.10004060000005666,0.10009900000000016,0.7492009000000053
RSVPLG03,am,20260225-091723,1.0.2,20251105-084359,774,Practice,Both,1,Automatic,main,16,20260225-091916,global,global,300,H,S,A,E,H-A.png,S-E.png,hH,sS,mask-4.png,mask-4.png,h,1,0.8838489999998274,s,1,1.8779601000001094,0.05001299999980802,0.05002280000007886,0.1000159000000167,0.0989947000000484,0.30083539999986897
RSVPLG03,am,20260225-091958,1.0.2,20251105-084359,774,Experiment,Both,1,Automatic,warmup,1,20260225-092123,global,local,300,H,H,A,E,H-A.png,E-H.png,hH,hH,mask-4.png,mask-1.png,h,1,0.9988220000000183,s,0,0.4102215000000342,0.04151290000004337,0.04985209999995277,0.09146760000021459,0.09948420000000624,0.2919962000000851
RSVPLG03,am,20260225-091958,1.0.2,20251105-084359,774,Experiment,Both,1,Automatic,warmup,2,20260225-092129,local,global,750,H,S,E,A,E-H.png,S-A.png,hH,sS,mask-3.png,mask-3.png,h,1,1.4423198000001776,s,1,0.38768320000008316,0.049804399999857196,0.05008060000000114,0.09988109999994776,0.09908689999997478,0.7517559000000347
RSVPLG03,am,20260225-091958,1.0.2,20251105-084359,774,Experiment,Both,1,Automatic,warmup,3,20260225-092134,global,global,750,H,S,E,E,H-E.png,S-E.png,hH,sS,mask-2.png,mask-4.png,h,1,0.5406560999999783,s,1,0.347892100000081,0.049998400000049514,0.05008759999986978,0.10014760000012757,0.10019279999983155,0.7522565000001578
RSVPLG03,am,20260225-091958,1.0.2,20251105-084359,774,Experiment,Both,1,Automatic,warmup,4,20260225-092139,global,local,750,S,S,E,E,S-E.png,E-S.png,sS,sS,mask-3.png,mask-3.png,s,1,0.6565383999998176,s,1,0.4523039000000608,0.048246800000015355,0.051083000000062384,0.0997066000002178,0.10111280000000988,0.7491092000000208
RSVPLG03,am,20260225-091958,1.0.2,20251105-084359,774,Experiment,Both,1,Automatic,main,5,20260225-092145,local,global,750,H,S,E,E,E-H.png,S-E.png,hH,sS,mask-3.png,mask-4.png,h,1,1.4030397000001358,h,0,1.022095600000057,0.05084729999998672,0.049966200000199024,0.10221470000010413,0.10100200000010773,0.751256499999954
RSVPLG03,am,20260225-091958,1.0.2,20251105-084359,774,Experiment,Both,1,Automatic,main,6,20260225-092151,global,global,750,S,H,E,A,S-E.png,H-A.png,sS,hH,mask-1.png,mask-1.png,s,1,0.7332129999999779,h,1,0.3251287999999022,0.05007840000007491,0.0508310000000165,0.09912260000010065,0.10087540000017725,0.7500887999999577
RSVPLG03,am,20260225-091958,1.0.2,20251105-084359,774,Experiment,Both,1,Automatic,main,7,20260225-092156,local,local,750,S,S,A,A,A-S.png,A-S.png,sS,sS,mask-4.png,mask-2.png,s,1,0.8240906999999424,h,0,0.3666104000001269,0.050139700000045195,0.050057899999956135,0.10048010000014074,0.09819939999988492,0.7523712000001979
RSVPLG03,am,20260225-091958,1.0.2,20251105-084359,774,Experiment,Both,1,Automatic,main,8,20260225-092202,local,global,300,S,H,E,E,E-S.png,H-E.png,sS,hH,mask-4.png,mask-1.png,s,1,0.582915999999841,h,1,1.5315845000000081,0.04983600000014121,0.04984910000007403,0.09989480000012918,0.09909220000008645,0.29963500000008025
RSVPLG03,am,20260225-091958,1.0.2,20251105-084359,774,Experiment,Both,1,Automatic,main,9,20260225-092207,local,local,750,S,S,E,A,E-S.png,A-S.png,sS,sS,mask-1.png,mask-1.png,s,1,1.0808959999999388,h,0,0.4472468999999819,0.05005409999989752,0.049070199999960096,0.10029919999988124,0.09997669999984282,0.752304200000026
RSVPLG03,am,20260225-091958,1.0.2,20251105-084359,774,Experiment,Both,1,Automatic,main,10,20260225-092213,local,local,300,S,S,E,E,E-S.png,E-S.png,sS,sS,mask-1.png,mask-4.png,s,1,1.1913778000000548,h,0,0.3869380999999521,0.04901350000000093,0.049003599999878134,0.09958439999991242,0.10020389999999679,0.3003968000000441
RSVPLG03,am,20260225-091958,1.0.2,20251105-084359,774,Experiment,Both,1,Automatic,main,11,20260225-092218,local,local,750,H,S,A,A,A-H.png,A-S.png,hH,sS,mask-4.png,mask-2.png,h,1,1.0973230000001877,s,1,0.2589575999998033,0.05013869999993403,0.05056039999999484,0.10114529999987099,0.10057710000000952,0.7512022000000798
RSVPLG03,am,20260225-091958,1.0.2,20251105-084359,774,Experiment,Both,1,Automatic,main,12,20260225-092224,local,local,300,S,S,E,E,E-S.png,E-S.png,sS,sS,mask-2.png,mask-3.png,s,1,1.406984699999839,h,0,0.25233239999988655,0.05004559999997582,0.05071280000015577,0.10007500000006075,0.10077410000008058,0.2998777999998765
RSVPLG03,am,20260225-091958,1.0.2,20251105-084359,774,Experiment,Both,1,Automatic,main,13,20260225-092229,global,local,750,H,H,E,A,H-E.png,A-H.png,hH,hH,mask-4.png,mask-4.png,h,1,0.8522973000001457,h,1,0.346884799999998,0.050041100000044025,0.05002300000001014,0.10006870000006529,0.10004780000008395,0.7495506000000205
RSVPLG03,am,20260225-091958,1.0.2,20251105-084359,774,Experiment,Both,1,Automatic,main,14,20260225-092234,global,local,750,S,H,A,E,S-A.png,E-H.png,sS,hH,mask-2.png,mask-1.png,s,1,1.1736625000000913,h,1,0.8295074000000113,0.050007399999913105,0.0499542999998539,0.10004539999999906,0.10108390000004874,0.750464299999976
RSVPLG03,am,20260225-091958,1.0.2,20251105-084359,774,Experiment,Both,1,Automatic,main,15,20260225-092240,global,local,750,H,S,A,E,H-A.png,E-S.png,hH,sS,mask-2.png,mask-3.png,h,1,0.6448553000000175,s,1,0.3325836999999865,0.05009040000004461,0.05002020000006269,0.09985449999999219,0.10006210000005922,0.7500579999998536
RSVPLG03,am,20260225-091958,1.0.2,20251105-084359,774,Experiment,Both,1,Automatic,main,16,20260225-092246,local,local,300,S,H,A,A,A-S.png,A-H.png,sS,hH,mask-1.png,mask-1.png,s,1,1.4025466000000506,h,1,0.32409530000018094,0.048770800000056624,0.05166970000004767,0.09901160000003983,0.10163630000010926,0.2986511999999948
RSVPLG03,am,20260225-091958,1.0.2,20251105-084359,774,Experiment,Both,1,Automatic,main,17,20260225-092251,global,local,300,S,H,E,A,S-E.png,A-H.png,sS,hH,mask-1.png,mask-1.png,s,1,1.114325000000008,h,1,0.3288393999998789,0.05002280000007886,0.0500489999999445,0.1000298000001294,0.09984959999997045,0.3018197000001237
RSVPLG03,am,20260225-091958,1.0.2,20251105-084359,774,Experiment,Both,1,Automatic,main,18,20260225-092256,local,local,750,S,H,E,E,E-S.png,E-H.png,sS,hH,mask-3.png,mask-2.png,s,1,0.8004885000000286,h,1,0.4058933999999681,0.04948360000003049,0.05002120000017385,0.09996610000007422,0.10009660000014264,0.7506266000000323
RSVPLG03,am,20260225-091958,1.0.2,20251105-084359,774,Experiment,Both,1,Automatic,main,19,20260225-092301,global,local,300,H,H,A,A,H-A.png,A-H.png,hH,hH,mask-1.png,mask-3.png,h,1,1.2793326999999408,h,1,0.49174260000017966,0.05095809999988887,0.05129979999992429,0.10015269999985321,0.10134010000001581,0.3001687999999376
RSVPLG03,am,20260225-091958,1.0.2,20251105-084359,774,Experiment,Both,1,Automatic,main,20,20260225-092307,global,global,750,S,S,A,A,S-A.png,S-A.png,sS,sS,mask-3.png,mask-4.png,s,1,0.6638460000001487,s,1,0.3387153999999555,0.051038600000083534,0.04990710000015497,0.10019250000004831,0.09979280000015933,0.751080199999933
RSVPLG03,am,20260225-091958,1.0.2,20251105-084359,774,Experiment,Both,1,Automatic,main,21,20260225-092312,global,global,750,S,S,E,A,S-E.png,S-A.png,sS,sS,mask-4.png,mask-3.png,s,1,0.35548319999998057,s,1,0.34037560000001577,0.050054600000066785,0.05101290000015979,0.1000814999999875,0.10104969999997593,0.751399900000024
RSVPLG03,am,20260225-091958,1.0.2,20251105-084359,774,Experiment,Both,1,Automatic,main,22,20260225-092317,global,global,750,S,S,A,E,S-A.png,S-E.png,sS,sS,mask-3.png,mask-4.png,s,1,0.2981328000000758,s,1,0.3226030000000719,0.05002420000005259,0.05081259999997201,0.10033790000011322,0.0999127000000044,0.7497984999999971
RSVPLG03,am,20260225-091958,1.0.2,20251105-084359,774,Experiment,Both,1,Automatic,main,23,20260225-092321,local,global,300,S,H,E,E,E-S.png,H-E.png,sS,hH,mask-2.png,mask-1.png,s,1,1.2440025000000787,h,1,0.41059930000005807,0.050024599999915154,0.04915889999983847,0.10004899999989902,0.09925279999993109,0.30054119999999784
RSVPLG03,am,20260225-091958,1.0.2,20251105-084359,774,Experiment,Both,1,Automatic,main,24,20260225-092327,global,global,300,H,S,E,E,H-E.png,S-E.png,hH,sS,mask-1.png,mask-4.png,h,1,0.8425600000000486,s,1,0.27536129999998593,0.049064499999985856,0.04993060000015248,0.10014520000004268,0.0999994000001152,0.30020539999986795
RSVPLG03,am,20260225-091958,1.0.2,20251105-084359,774,Experiment,Both,1,Automatic,main,25,20260225-092332,global,global,300,S,H,E,A,S-E.png,H-A.png,sS,hH,mask-4.png,mask-3.png,s,1,0.7992315999999846,h,1,1.893164200000001,0.048663100000112536,0.04983480000009877,0.09845420000010563,0.10041550000005373,0.2988854000000174
RSVPLG03,am,20260225-091958,1.0.2,20251105-084359,774,Experiment,Both,1,Automatic,main,26,20260225-092344,global,local,750,S,S,E,E,S-E.png,E-S.png,sS,sS,mask-4.png,mask-3.png,s,1,0.69647840000016,s,1,0.3316231000001153,0.04996679999999287,0.05001680000009401,0.1001186000000871,0.09999530000004597,0.7498611999999412
RSVPLG03,am,20260225-091958,1.0.2,20251105-084359,774,Experiment,Both,1,Automatic,main,27,20260225-092349,global,global,750,S,S,A,A,S-A.png,S-A.png,sS,sS,mask-1.png,mask-4.png,s,1,0.3422774999999092,s,1,0.2605008000000453,0.05101469999999608,0.0498502999998891,0.09965459999989434,0.10107909999987896,0.7506372000000283
RSVPLG03,am,20260225-091958,1.0.2,20251105-084359,774,Experiment,Both,1,Automatic,main,28,20260225-092354,global,global,750,S,S,A,A,S-A.png,S-A.png,sS,sS,mask-4.png,mask-2.png,s,1,0.4079432999999426,s,1,0.2897041999999601,0.05001629999992474,0.049796799999967334,0.10007999999993444,0.09984829999984868,0.749960099999953
RSVPLG03,am,20260225-091958,1.0.2,20251105-084359,774,Experiment,Both,1,Automatic,main,29,20260225-092359,global,global,750,H,H,A,A,H-A.png,H-A.png,hH,hH,mask-3.png,mask-4.png,s,0,0.26937920000000304,h,1,0.9471608999999717,0.04910240000003796,0.050106400000004214,0.09912880000001678,0.09990720000018882,0.749718699999903
RSVPLG03,am,20260225-091958,1.0.2,20251105-084359,774,Experiment,Both,1,Automatic,main,30,20260225-092404,local,local,750,S,H,A,E,A-S.png,E-H.png,sS,hH,mask-1.png,mask-3.png,s,1,1.322851799999853,h,1,0.5302030999998806,0.050381700000116325,0.050260499999922104,0.10042100000009668,0.10234349999996084,0.7493867000000591
RSVPLG03,am,20260225-091958,1.0.2,20251105-084359,774,Experiment,Both,1,Automatic,main,31,20260225-092410,global,global,300,S,S,A,E,S-A.png,S-E.png,sS,sS,mask-3.png,mask-3.png,s,1,1.6848234999999931,h,0,1.0120283999999629,0.05078630000002704,0.05002639999997882,0.09986600000002,0.09989589999986492,0.300907000000052
RSVPLG03,am,20260225-091958,1.0.2,20251105-084359,774,Experiment,Both,1,Automatic,main,32,20260225-092416,global,global,300,H,S,E,E,H-E.png,S-E.png,hH,sS,mask-3.png,mask-2.png,h,1,1.0172534999999243,h,0,0.4680151999998543,0.05014930000015738,0.04888559999994868,0.1019315999999435,0.09969460000002073,0.3016556000000037
RSVPLG03,am,20260225-091958,1.0.2,20251105-084359,774,Experiment,Both,1,Automatic,main,33,20260225-092421,local,local,300,S,H,A,E,A-S.png,E-H.png,sS,hH,mask-1.png,mask-3.png,s,1,0.8993339000001015,h,1,0.4188219999998637,0.05004800000006071,0.05013839999992342,0.10010280000005878,0.10019169999986843,0.3018899000001056
RSVPLG03,am,20260225-091958,1.0.2,20251105-084359,774,Experiment,Both,1,Automatic,main,34,20260225-092426,global,global,300,S,H,E,A,S-E.png,H-A.png,sS,hH,mask-4.png,mask-1.png,s,1,1.2361693999998806,h,1,0.5631813999998485,0.050019099999872196,0.04980369999998402,0.10005139999998391,0.09935019999988981,0.2995353999999679
RSVPLG03,am,20260225-091958,1.0.2,20251105-084359,774,Experiment,Both,1,Automatic,main,35,20260225-092432,global,global,300,H,S,A,A,H-A.png,S-A.png,hH,sS,mask-2.png,mask-4.png,h,1,0.7567626000000018,s,1,0.21961269999997057,0.050023700000110694,0.04950069999995321,0.10006060000000616,0.10056220000001304,0.30128239999999096
RSVPLG03,am,20260225-091958,1.0.2,20251105-084359,774,Experiment,Both,1,Automatic,main,36,20260225-092437,local,local,750,H,H,E,A,E-H.png,A-H.png,hH,hH,mask-2.png,mask-1.png,h,1,0.6624546000000464,h,1,0.37931529999991653,0.0511140000000978,0.05083710000008068,0.0999403999999231,0.09970360000011169,0.7511316000000079
RSVPLG03,am,20260225-091958,1.0.2,20251105-084359,774,Experiment,Both,1,Automatic,main,37,20260225-092442,global,local,750,S,H,E,E,S-E.png,E-H.png,sS,hH,mask-2.png,mask-4.png,s,1,0.7107714000001124,h,1,0.34628360000010616,0.05007079999995767,0.05101409999997486,0.10016519999999218,0.10003499999993437,0.751698400000123
RSVPLG03,am,20260225-091958,1.0.2,20251105-084359,774,Experiment,Both,1,Automatic,main,38,20260225-092447,local,local,300,S,H,E,A,E-S.png,A-H.png,sS,hH,mask-3.png,mask-3.png,s,1,1.0822329000000082,h,1,0.35633519999987584,0.05101209999997991,0.05003069999997933,0.10181680000005144,0.10004350000008344,0.3014465999999629
RSVPLG03,am,20260225-091958,1.0.2,20251105-084359,774,Experiment,Both,1,Automatic,main,39,20260225-092452,local,local,300,H,H,E,A,E-H.png,A-H.png,hH,hH,mask-1.png,mask-3.png,h,1,0.8024435000002086,h,1,0.3583722000000762,0.050028599999905055,0.0520317000000432,0.10007249999989654,0.10107640000001084,0.29838949999998476
RSVPLG03,am,20260225-091958,1.0.2,20251105-084359,774,Experiment,Both,1,Automatic,main,40,20260225-092457,global,local,300,S,H,E,E,S-E.png,E-H.png,sS,hH,mask-2.png,mask-1.png,s,1,0.8919377000001987,h,1,0.24648450000017874,0.050025600000026316,0.05004030000009152,0.10105459999999766,0.10003099999994447,0.3005886000000828
RSVPLG03,am,20260225-091958,1.0.2,20251105-084359,774,Experiment,Both,1,Automatic,main,41,20260225-092502,global,global,750,H,S,E,E,H-E.png,S-E.png,hH,sS,mask-4.png,mask-2.png,h,1,0.6048541000000114,s,1,0.3325370000000021,0.05003390000001673,0.04977429999985361,0.10006280000015977,0.10071549999997842,0.7510263000001487
RSVPLG03,am,20260225-091958,1.0.2,20251105-084359,774,Experiment,Both,1,Automatic,main,42,20260225-092507,local,global,300,H,H,A,A,A-H.png,H-A.png,hH,hH,mask-2.png,mask-1.png,h,1,1.1383366000000024,h,1,0.34082340000009026,0.048961199999894234,0.05004359999998087,0.09919270000000324,0.1000635999998849,0.29956300000003466
RSVPLG03,am,20260225-091958,1.0.2,20251105-084359,774,Experiment,Both,1,Automatic,main,43,20260225-092512,global,global,300,S,H,A,A,S-A.png,H-A.png,sS,hH,mask-3.png,mask-2.png,s,1,1.107793299999912,h,1,0.30793519999997443,0.0500217999999677,0.04915759999994407,0.10007760000007693,0.09813359999998283,0.30191179999997075
RSVPLG03,am,20260225-091958,1.0.2,20251105-084359,774,Experiment,Both,1,Automatic,main,44,20260225-092517,local,global,750,H,S,A,E,A-H.png,S-E.png,hH,sS,mask-2.png,mask-2.png,h,1,1.130496600000015,h,0,0.42792420000000675,0.049868500000002314,0.05183949999991455,0.10017199999992954,0.10156529999994746,0.7504085000000487
RSVPLG03,am,20260225-091958,1.0.2,20251105-084359,774,Experiment,Both,1,Automatic,main,45,20260225-092522,local,global,750,H,S,A,E,A-H.png,S-E.png,hH,sS,mask-2.png,mask-3.png,h,1,0.8352614000000358,h,0,0.6602405999999519,0.05001979999997275,0.050047799999902054,0.10005210000008447,0.10108919999993304,0.7517482000000655
RSVPLG03,am,20260225-091958,1.0.2,20251105-084359,774,Experiment,Both,1,Automatic,main,46,20260225-092528,local,global,750,S,S,A,A,A-S.png,S-A.png,sS,sS,mask-3.png,mask-3.png,s,1,0.8922405000000708,s,1,0.1961049000001367,0.050032999999984895,0.04887319999988904,0.1000662999999804,0.09990459999994528,0.7506210999999894
RSVPLG03,am,20260225-091958,1.0.2,20251105-084359,774,Experiment,Both,1,Automatic,main,47,20260225-092533,local,global,750,H,H,A,A,A-H.png,H-A.png,hH,hH,mask-4.png,mask-1.png,h,1,1.0275742999999693,h,1,0.34641869999995833,0.05201549999992494,0.04928129999984776,0.10210819999997511,0.09929379999994126,0.7521775000000162
RSVPLG03,am,20260225-091958,1.0.2,20251105-084359,774,Experiment,Both,1,Automatic,main,48,20260225-092539,global,global,750,S,H,A,A,S-A.png,H-A.png,sS,hH,mask-1.png,mask-2.png,s,1,0.8186633000000256,h,1,0.30071029999999155,0.05000560000007681,0.05004810000014004,0.10099700000000666,0.09987930000011147,0.7515510999999151
RSVPLG03,am,20260225-091958,1.0.2,20251105-084359,774,Experiment,Both,1,Automatic,main,49,20260225-092544,local,local,750,H,H,E,A,E-H.png,A-H.png,hH,hH,mask-3.png,mask-1.png,h,1,0.5454004000000623,h,1,0.2583544999999958,0.04987550000009833,0.05004129999997531,0.09995170000001963,0.1000966999999946,0.7516345000001365
RSVPLG03,am,20260225-091958,1.0.2,20251105-084359,774,Experiment,Both,1,Automatic,main,50,20260225-092549,global,local,750,S,H,E,E,S-E.png,E-H.png,sS,hH,mask-2.png,mask-4.png,s,1,1.0123344999999517,s,0,0.21936429999982465,0.049054299999852446,0.04985469999996894,0.09915339999997741,0.09980780000000777,0.7507789999999659
RSVPLG03,am,20260225-091958,1.0.2,20251105-084359,774,Experiment,Both,1,Automatic,main,51,20260225-092631,local,global,750,H,S,A,E,A-H.png,S-E.png,hH,sS,mask-1.png,mask-3.png,h,1,0.9052452999999332,h,0,0.3884737999999288,0.050004500000113694,0.04930400000012014,0.10009060000015779,0.10160990000008496,0.7503756000000976
RSVPLG03,am,20260225-091958,1.0.2,20251105-084359,774,Experiment,Both,1,Automatic,main,52,20260225-092636,local,global,300,S,H,A,A,A-S.png,H-A.png,sS,hH,mask-1.png,mask-4.png,s,1,1.0299553999998352,h,1,0.3383437999996204,0.05002080000008391,0.05005940000000919,0.1000530000001163,0.10010899999997491,0.3018428000000313
RSVPLG03,am,20260225-091958,1.0.2,20251105-084359,774,Experiment,Both,1,Automatic,main,53,20260225-092641,global,local,300,S,H,E,A,S-E.png,A-H.png,sS,hH,mask-3.png,mask-4.png,s,1,0.8621101000003364,h,1,0.32449080000014874,0.049769799999921815,0.05010369999990871,0.09981809999999314,0.0998277000003327,0.29987439999968046
RSVPLG03,am,20260225-091958,1.0.2,20251105-084359,774,Experiment,Both,1,Automatic,main,54,20260225-092646,global,local,300,S,H,E,E,S-E.png,E-H.png,sS,hH,mask-4.png,mask-1.png,s,1,0.9519512000001669,h,1,0.418799399999898,0.050046500000007654,0.05002990000002683,0.09878979999984949,0.09978670000009515,0.3004990999997972
RSVPLG03,am,20260225-091958,1.0.2,20251105-084359,774,Experiment,Both,1,Automatic,main,55,20260225-092651,global,global,750,H,S,A,E,H-A.png,S-E.png,hH,sS,mask-2.png,mask-3.png,h,1,0.8183834000001298,s,1,0.30656760000010763,0.05014089999986027,0.05012779999970007,0.1002992999997332,0.10027579999996306,0.750485099999878
RSVPLG03,am,20260225-091958,1.0.2,20251105-084359,774,Experiment,Both,1,Automatic,main,56,20260225-092657,local,global,750,S,H,E,A,E-S.png,H-A.png,sS,hH,mask-2.png,mask-1.png,s,1,0.7850234999996246,h,1,0.17100510000000213,0.05000220000010813,0.04991590000008728,0.10000940000008995,0.09994939999978669,0.7515135000003283
RSVPLG03,am,20260225-091958,1.0.2,20251105-084359,774,Experiment,Both,1,Automatic,main,57,20260225-092702,local,global,300,H,S,A,E,A-H.png,S-E.png,hH,sS,mask-3.png,mask-2.png,h,1,1.0811407000001054,h,0,0.28262519999998403,0.05003080000005866,0.05067770000005112,0.10103750000007494,0.1008056000000579,0.30082909999964613
RSVPLG03,am,20260225-091958,1.0.2,20251105-084359,774,Experiment,Both,1,Automatic,main,58,20260225-092707,local,local,300,S,H,A,E,A-S.png,E-H.png,sS,hH,mask-1.png,mask-4.png,s,1,1.0511726999998245,s,0,0.9475528000002669,0.050086000000192143,0.0491068000001178,0.09996510000019043,0.10001400000010108,0.30164560000002894
RSVPLG03,am,20260225-091958,1.0.2,20251105-084359,774,Experiment,Both,1,Automatic,main,59,20260225-092712,global,global,300,H,S,A,E,H-A.png,S-E.png,hH,sS,mask-4.png,mask-4.png,h,1,1.061981199999991,h,0,0.8749235000000226,0.04906460000029256,0.049060300000292045,0.09913890000007086,0.09915330000012545,0.30005449999998746
RSVPLG03,am,20260225-091958,1.0.2,20251105-084359,774,Experiment,Both,1,Automatic,main,60,20260225-092718,global,local,750,H,H,A,A,H-A.png,A-H.png,hH,hH,mask-2.png,mask-1.png,h,1,0.3057578999996622,h,1,0.2521910000000389,0.050052099999902566,0.05102630000010322,0.1000144999998156,0.10109110000030341,0.7511959999997089
RSVPLG03,am,20260225-091958,1.0.2,20251105-084359,774,Experiment,Both,1,Automatic,main,61,20260225-092723,global,local,300,S,S,A,E,S-A.png,E-S.png,sS,sS,mask-4.png,mask-2.png,s,1,0.9486144000002241,s,1,2.171623400000044,0.0510098999998263,0.04935750000004191,0.09982399999989866,0.09897289999980785,0.30166589999998905
RSVPLG03,am,20260225-091958,1.0.2,20251105-084359,774,Experiment,Both,1,Automatic,main,62,20260225-092730,local,global,750,H,H,E,A,E-H.png,H-A.png,hH,hH,mask-2.png,mask-3.png,h,1,1.8058544000000438,h,1,0.9720216000000619,0.050010200000087934,0.051143799999863404,0.10003520000009303,0.10015619999967385,0.7505334000002222
RSVPLG03,am,20260225-091958,1.0.2,20251105-084359,774,Experiment,Both,1,Automatic,main,63,20260225-092736,global,global,300,S,S,A,A,S-A.png,S-A.png,sS,sS,mask-2.png,mask-1.png,s,1,0.7203429999999571,s,1,0.1008174999997209,0.050011300000278425,0.05002939999985756,0.1000346000000718,0.10006879999991725,0.2998016000001371
RSVPLG03,am,20260225-091958,1.0.2,20251105-084359,774,Experiment,Both,1,Automatic,main,64,20260225-092741,global,local,750,S,H,E,E,S-E.png,E-H.png,sS,hH,mask-2.png,mask-2.png,s,1,0.7314899999996669,h,1,0.23488689999976486,0.05101990000002843,0.04998909999994794,0.1010246000000734,0.10000510000008944,0.7510870999999497
RSVPLG03,am,20260225-091958,1.0.2,20251105-084359,774,Experiment,Both,1,Automatic,main,65,20260225-092746,local,global,300,H,H,A,A,A-H.png,H-A.png,hH,hH,mask-4.png,mask-3.png,h,1,2.4790729000001193,s,0,0.3152984000003016,0.05005510000000868,0.04874840000002223,0.10009130000025834,0.099789200000032,0.2998787999999877
RSVPLG03,am,20260225-091958,1.0.2,20251105-084359,774,Experiment,Both,1,Automatic,main,66,20260225-092753,local,global,300,H,H,A,A,A-H.png,H-A.png,hH,hH,mask-2.png,mask-2.png,h,1,1.9870915000001332,s,0,0.2699782999998206,0.051028800000040064,0.051087400000142225,0.10094840000010663,0.10054249999984677,0.30079139999998006
RSVPLG03,am,20260225-091958,1.0.2,20251105-084359,774,Experiment,Both,1,Automatic,main,67,20260225-092758,local,local,300,H,S,E,A,E-H.png,A-S.png,hH,sS,mask-4.png,mask-4.png,h,1,2.212547799999811,s,1,0.458433000000241,0.05004830000007132,0.04993999999987864,0.10016670000004524,0.10096650000014051,0.3007468999999219
RSVPLG03,am,20260225-091958,1.0.2,20251105-084359,774,Experiment,Both,1,Automatic,main,68,20260225-092805,local,global,750,H,S,E,E,E-H.png,S-E.png,hH,sS,mask-4.png,mask-3.png,h,1,0.7936270999998669,h,0,0.46736220000002504,0.050091600000087055,0.0507791999998517,0.10110579999991387,0.10095200000023397,0.7514495000000352
RSVPLG03,am,20260225-091958,1.0.2,20251105-084359,774,Experiment,Both,1,Automatic,main,69,20260225-092810,local,global,750,H,S,E,A,E-H.png,S-A.png,hH,sS,mask-1.png,mask-1.png,s,0,0.7518200999998044,h,0,0.9403213000000505,0.050020799999856536,0.05020590000003722,0.1000451999998404,0.1002914000000601,0.7506429999998545
RSVPLG03,am,20260225-091958,1.0.2,20251105-084359,774,Experiment,Both,1,Automatic,main,70,20260225-092816,local,local,300,H,H,E,A,E-H.png,A-H.png,hH,hH,mask-4.png,mask-2.png,h,1,0.7198098000003483,h,1,0.31486709999990126,0.050106400000004214,0.050014200000077835,0.10141429999976026,0.1001336999997875,0.3022464000000582
RSVPLG03,am,20260225-091958,1.0.2,20251105-084359,774,Experiment,Both,1,Automatic,main,71,20260225-092821,local,global,300,H,S,A,E,A-H.png,S-E.png,hH,sS,mask-1.png,mask-3.png,h,1,0.9323010999996768,h,0,0.33901639999976396,0.0509609000000637,0.05092560000002777,0.10059679999994842,0.10173299999996743,0.29946220000010726
RSVPLG03,am,20260225-091958,1.0.2,20251105-084359,774,Experiment,Both,1,Automatic,main,72,20260225-092826,local,global,300,S,S,E,A,E-S.png,S-A.png,sS,sS,mask-3.png,mask-1.png,s,1,1.280909199999769,h,0,0.37890820000029635,0.05000900000004549,0.05002050000030067,0.10007139999970605,0.0988961000002746,0.3002060999997411
RSVPLG03,am,20260225-091958,1.0.2,20251105-084359,774,Experiment,Both,1,Automatic,main,73,20260225-092831,local,local,750,S,H,E,E,E-S.png,E-H.png,sS,hH,mask-2.png,mask-1.png,s,1,0.5509854000001724,h,1,0.3177736999996341,0.049803200000042125,0.04913650000025882,0.09896590000016658,0.10073750000037762,0.7494388999998591
RSVPLG03,am,20260225-091958,1.0.2,20251105-084359,774,Experiment,Both,1,Automatic,main,74,20260225-092836,global,global,750,S,H,A,A,S-A.png,H-A.png,sS,hH,mask-1.png,mask-2.png,s,1,0.9289678999998614,h,1,0.33883270000023913,0.05002439999998387,0.050012799999876734,0.09916179999981978,0.10006990000010774,0.7498501999998552
RSVPLG03,am,20260225-091958,1.0.2,20251105-084359,774,Experiment,Both,1,Automatic,main,75,20260225-092841,local,local,300,S,H,E,E,E-S.png,E-H.png,sS,hH,mask-2.png,mask-4.png,s,1,1.1156104000001505,h,1,0.2915362999997342,0.05013180000014472,0.04902149999998073,0.10023320000027525,0.10004909999997835,0.30010390000006737
RSVPLG03,am,20260225-091958,1.0.2,20251105-084359,774,Experiment,Both,1,Automatic,main,76,20260225-092913,local,local,750,S,S,A,E,A-S.png,E-S.png,sS,sS,mask-1.png,mask-2.png,s,1,0.5488123000000087,s,1,0.26910399999997026,0.050025300000015704,0.050688499999978376,0.09912339999982578,0.09977780000008352,0.7499010000001363
RSVPLG03,am,20260225-091958,1.0.2,20251105-084359,774,Experiment,Both,1,Automatic,main,77,20260225-092918,global,global,750,S,S,E,A,S-E.png,S-A.png,sS,sS,mask-1.png,mask-3.png,s,1,0.880309600000146,h,0,0.39476920000015525,0.05000449999988632,0.050017900000057125,0.09984110000004875,0.10003990000041085,0.75034179999966
RSVPLG03,am,20260225-091958,1.0.2,20251105-084359,774,Experiment,Both,1,Automatic,main,78,20260225-092923,global,local,750,S,S,A,E,S-A.png,E-S.png,sS,sS,mask-4.png,mask-3.png,s,1,0.3462050999996791,s,1,0.2521814000001541,0.050085000000308355,0.05013069999995423,0.10013860000026398,0.09994789999973364,0.7498794000002817
RSVPLG03,am,20260225-091958,1.0.2,20251105-084359,774,Experiment,Both,1,Automatic,main,79,20260225-092928,local,local,750,S,S,A,E,A-S.png,E-S.png,sS,sS,mask-3.png,mask-1.png,s,1,0.29860740000003716,s,1,0.21211380000022473,0.05083460000014384,0.05046340000035343,0.10086390000014944,0.1005128000001605,0.750591699999859
RSVPLG03,am,20260225-091958,1.0.2,20251105-084359,774,Experiment,Both,1,Automatic,main,80,20260225-092932,global,local,300,S,S,E,E,S-E.png,E-S.png,sS,sS,mask-3.png,mask-2.png,s,1,0.6919570000000022,h,0,0.9388122999998814,0.05002009999998336,0.05047100000001592,0.09987460000002102,0.10050700000010693,0.30132469999989553
RSVPLG03,am,20260225-091958,1.0.2,20251105-084359,774,Experiment,Both,1,Automatic,main,81,20260225-092938,global,local,300,H,S,A,A,H-A.png,A-S.png,hH,sS,mask-4.png,mask-2.png,h,1,0.8359949999999117,s,1,0.25124040000036985,0.04987639999990279,0.04993450000029043,0.09991739999986748,0.09921299999996336,0.3016131999997924
RSVPLG03,am,20260225-091958,1.0.2,20251105-084359,774,Experiment,Both,1,Automatic,main,82,20260225-092942,global,local,750,S,S,A,E,S-A.png,E-S.png,sS,sS,mask-1.png,mask-3.png,s,1,0.8352970000000823,h,0,0.5636627999997472,0.050367199999982404,0.049692099999901984,0.10039409999990312,0.09974069999998392,0.750673900000038
RSVPLG03,am,20260225-091958,1.0.2,20251105-084359,774,Experiment,Both,1,Automatic,main,83,20260225-092948,local,global,750,H,S,A,A,A-H.png,S-A.png,hH,sS,mask-1.png,mask-1.png,h,1,1.0577499999999418,h,0,0.7816622999998799,0.05006080000021029,0.04996630000005098,0.10009189999982482,0.09998459999997067,0.7524207000001297
RSVPLG03,am,20260225-091958,1.0.2,20251105-084359,774,Experiment,Both,1,Automatic,main,84,20260225-092954,global,local,750,S,H,E,E,S-E.png,E-H.png,sS,hH,mask-1.png,mask-3.png,s,1,0.657054700000117,h,1,0.3233848999998372,0.05164500000000771,0.051041799999893556,0.10155769999983022,0.09983409999995274,0.7516605000000709
RSVPLG03,am,20260225-091958,1.0.2,20251105-084359,774,Experiment,Both,1,Automatic,main,85,20260225-092959,global,local,300,S,S,A,E,S-A.png,E-S.png,sS,sS,mask-4.png,mask-2.png,s,1,0.7168633000001137,h,0,0.6061324999996032,0.05007999999997992,0.04916300000013507,0.09909770000012941,0.10006969999994908,0.3008264000000054
RSVPLG03,am,20260225-091958,1.0.2,20251105-084359,774,Experiment,Both,1,Automatic,main,86,20260225-093004,global,local,750,H,H,E,E,H-E.png,E-H.png,hH,hH,mask-4.png,mask-3.png,h,1,0.5747581000000537,h,1,0.22302110000009634,0.050039100000049075,0.05003729999998541,0.09905600000001868,0.10106699999960256,0.7501272000004064
RSVPLG03,am,20260225-091958,1.0.2,20251105-084359,774,Experiment,Both,1,Automatic,main,87,20260225-093009,global,local,300,S,H,E,E,S-E.png,E-H.png,sS,hH,mask-3.png,mask-1.png,s,1,0.8813577000000805,h,1,0.27491090000012264,0.0500888000001396,0.05005989999972371,0.1001618000000235,0.1000451999998404,0.2998064000003069
RSVPLG03,am,20260225-091958,1.0.2,20251105-084359,774,Experiment,Both,1,Automatic,main,88,20260225-093014,local,global,750,H,S,A,A,A-H.png,S-A.png,hH,sS,mask-1.png,mask-2.png,h,1,1.4533338999999614,h,0,0.22688719999996465,0.0499536000002081,0.05001140000013038,0.10099960000025021,0.10100650000003952,0.7510025999999925
RSVPLG03,am,20260225-091958,1.0.2,20251105-084359,774,Experiment,Both,1,Automatic,main,89,20260225-093019,global,local,300,S,H,E,E,S-E.png,E-H.png,sS,hH,mask-4.png,mask-3.png,s,1,0.9210981000001084,h,1,0.2663155000000188,0.04983480000009877,0.05180350000000544,0.09987090000004173,0.10175370000024486,0.29867379999996047
RSVPLG03,am,20260225-091958,1.0.2,20251105-084359,774,Experiment,Both,1,Automatic,main,90,20260225-093024,local,global,300,H,S,E,E,E-H.png,S-E.png,hH,sS,mask-1.png,mask-4.png,h,1,1.042195200000151,s,1,0.6276766000000862,0.050044399999933376,0.0499085000001287,0.10009070000023712,0.09996769999997923,0.2998935000000529
RSVPLG03,am,20260225-091958,1.0.2,20251105-084359,774,Experiment,Both,1,Automatic,main,91,20260225-093029,local,local,750,S,H,A,E,A-S.png,E-H.png,sS,hH,mask-2.png,mask-2.png,s,1,0.33821519999992233,h,1,0.31519639999987703,0.05146230000036667,0.05004389999976411,0.10054160000026968,0.0996234999997796,0.7529419000002235
RSVPLG03,am,20260225-091958,1.0.2,20251105-084359,774,Experiment,Both,1,Automatic,main,92,20260225-093034,local,global,300,S,S,A,E,A-S.png,S-E.png,sS,sS,mask-1.png,mask-2.png,s,1,0.5880605999996078,h,0,0.2272984000001088,0.05009620000009818,0.04904660000011063,0.10016469999982291,0.10080820000030144,0.30090759999984584
RSVPLG03,am,20260225-091958,1.0.2,20251105-084359,774,Experiment,Both,1,Automatic,main,93,20260225-093039,local,local,750,S,H,E,E,E-S.png,E-H.png,sS,hH,mask-4.png,mask-1.png,s,1,0.3192272999999659,h,1,0.23500220000005356,0.05001750000019456,0.050028000000111206,0.10003289999986009,0.10006400000020221,0.7516946999999163
RSVPLG03,am,20260225-091958,1.0.2,20251105-084359,774,Experiment,Both,1,Automatic,main,94,20260225-093043,local,local,300,H,S,A,A,A-H.png,A-S.png,hH,sS,mask-2.png,mask-4.png,s,0,0.5501196000000164,h,0,1.2838639999999941,0.050092599999970844,0.049063399999795365,0.1001789000001736,0.09913189999997485,0.3009882999999718
RSVPLG03,am,20260225-091958,1.0.2,20251105-084359,774,Experiment,Both,1,Automatic,main,95,20260225-093049,global,global,300,H,H,A,A,H-A.png,H-A.png,hH,hH,mask-2.png,mask-2.png,h,1,1.8546583000002101,h,1,0.31045289999974557,0.04903340000009848,0.05002830000012182,0.10006360000033965,0.0999138000001949,0.30000569999992877
RSVPLG03,am,20260225-091958,1.0.2,20251105-084359,774,Experiment,Both,1,Automatic,main,96,20260225-093055,global,global,300,H,H,E,E,H-E.png,H-E.png,hH,hH,mask-2.png,mask-3.png,h,1,0.7137047999999595,h,1,0.3456148000000212,0.04990159999988464,0.05103480000025229,0.09992790000023888,0.09998210000003382,0.29871989999992365
RSVPLG03,am,20260225-091958,1.0.2,20251105-084359,774,Experiment,Both,1,Automatic,main,97,20260225-093059,local,local,300,S,S,A,A,A-S.png,A-S.png,sS,sS,mask-3.png,mask-3.png,s,1,0.758530200000223,s,1,0.25963259999980437,0.050039100000049075,0.05002999999987878,0.10007709999990766,0.10007020000011835,0.3020560999998452
RSVPLG03,am,20260225-091958,1.0.2,20251105-084359,774,Experiment,Both,1,Automatic,main,98,20260225-093104,local,global,300,S,H,A,E,A-S.png,H-E.png,sS,hH,mask-2.png,mask-3.png,s,1,0.5113271000000168,h,1,0.4193832000000839,0.05207330000030197,0.0498437000001104,0.10027990000025966,0.09985690000030445,0.30184379999991506
RSVPLG03,am,20260225-091958,1.0.2,20251105-084359,774,Experiment,Both,1,Automatic,main,99,20260225-093109,global,local,300,H,S,A,A,H-A.png,A-S.png,hH,sS,mask-4.png,mask-4.png,h,1,0.7911051999999472,h,0,0.37883959999999206,0.050036399999953574,0.0491543999996793,0.1001672000002145,0.09909249999964231,0.30107470000029934
RSVPLG03,am,20260225-091958,1.0.2,20251105-084359,774,Experiment,Both,1,Automatic,main,100,20260225-093113,global,global,300,H,S,A,A,H-A.png,S-A.png,hH,sS,mask-4.png,mask-3.png,h,1,0.9139963000002354,s,1,0.2757556999999906,0.05001929999980348,0.05103010000038921,0.10003039999992325,0.10231700000031196,0.3001694999998108
RSVPLG03,am,20260225-093216,1.0.2,20251105-084359,774,Experiment,Both,1,Automatic,warmup,1,20260225-093235,global,local,750,S,S,E,A,S-E.png,A-S.png,sS,sS,mask-3.png,mask-4.png,s,1,0.7119305999999597,h,0,0.33943169999975,0.03945159999966563,0.05111400000032518,0.09057149999989633,0.1010775000004287,0.7388982999996188
RSVPLG03,am,20260225-093216,1.0.2,20251105-084359,774,Experiment,Both,1,Automatic,warmup,2,20260225-093240,global,global,750,H,H,E,A,H-E.png,H-A.png,hH,hH,mask-3.png,mask-2.png,h,1,0.550973200000044,h,1,0.33361210000020947,0.050789899999927,0.048055400000066584,0.10009369999988849,0.0991755000000012,0.7514845000000605
RSVPLG03,am,20260225-093216,1.0.2,20251105-084359,774,Experiment,Both,1,Automatic,warmup,3,20260225-093245,local,local,750,S,H,E,A,E-S.png,A-H.png,sS,hH,mask-4.png,mask-4.png,s,1,0.5619420999996692,h,1,0.33265419999997903,0.05006129999992481,0.05003790000000663,0.10017540000035297,0.10011130000020785,0.7502595000000838
RSVPLG03,am,20260225-093216,1.0.2,20251105-084359,774,Experiment,Both,1,Automatic,warmup,4,20260225-093250,local,global,300,H,S,A,A,A-H.png,S-A.png,hH,sS,mask-3.png,mask-1.png,h,1,1.0249871999999414,h,0,0.665890500000387,0.050045500000123866,0.05002759999979389,0.10008640000023661,0.10006829999974798,0.2999793000003592
RSVPLG03,am,20260225-093216,1.0.2,20251105-084359,774,Experiment,Both,1,Automatic,main,5,20260225-093256,local,global,750,S,S,A,A,A-S.png,S-A.png,sS,sS,mask-4.png,mask-4.png,s,1,1.0833961000003,h,0,0.24134540000022753,0.05006460000004154,0.050257800000053976,0.10107259999995222,0.10126499999978478,0.7497800000001007
RSVPLG03,am,20260225-093216,1.0.2,20251105-084359,774,Experiment,Both,1,Automatic,main,6,20260225-093301,local,global,750,H,S,E,A,E-H.png,S-A.png,hH,sS,mask-1.png,mask-4.png,h,1,0.7075469000001249,s,1,0.19806259999995746,0.05004339999959484,0.05001109999966502,0.10008040000002438,0.10003949999963879,0.750046999999995
RSVPLG03,am,20260225-093216,1.0.2,20251105-084359,774,Experiment,Both,1,Automatic,main,7,20260225-093306,global,local,750,H,H,A,A,H-A.png,A-H.png,hH,hH,mask-2.png,mask-3.png,h,1,0.5532329000002392,h,1,0.28526919999967504,0.050140100000135135,0.04855239999960759,0.10026870000001509,0.1004544999996142,0.7511327000001984
RSVPLG03,am,20260225-093216,1.0.2,20251105-084359,774,Experiment,Both,1,Automatic,main,8,20260225-093311,local,local,750,S,S,A,E,A-S.png,E-S.png,sS,sS,mask-1.png,mask-4.png,s,1,0.7558045999999194,s,1,0.22147789999962697,0.05004509999980655,0.04915800000026138,0.10010439999996379,0.09921310000027006,0.7510500999997021
RSVPLG03,am,20260225-093216,1.0.2,20251105-084359,774,Experiment,Both,1,Automatic,main,9,20260225-093316,local,local,750,H,S,E,A,E-H.png,A-S.png,hH,sS,mask-1.png,mask-3.png,h,1,0.5256779000001188,s,1,0.22663939999983995,0.049138200000015786,0.05004449999978533,0.09914610000032553,0.09929079999983514,0.7490024000003359
RSVPLG03,am,20260225-093216,1.0.2,20251105-084359,774,Experiment,Both,1,Automatic,main,10,20260225-093321,global,global,300,H,S,A,A,H-A.png,S-A.png,hH,sS,mask-4.png,mask-3.png,h,1,1.0071130000001176,h,0,0.4848735000000488,0.04983670000001439,0.049820099999578815,0.09983260000035443,0.09998429999996006,0.2994826000003741
RSVPLG03,am,20260225-093216,1.0.2,20251105-084359,774,Experiment,Both,1,Automatic,main,11,20260225-093326,global,local,750,S,S,A,E,S-A.png,E-S.png,sS,sS,mask-2.png,mask-1.png,s,1,0.49948570000015025,s,1,0.3465118999997685,0.05008110000017041,0.04905210000015359,0.10009189999982482,0.09937669999999343,0.7504979000000276
RSVPLG03,am,20260225-093216,1.0.2,20251105-084359,774,Experiment,Both,1,Automatic,main,12,20260225-093331,global,local,300,S,H,E,A,S-E.png,A-H.png,sS,hH,mask-3.png,mask-3.png,s,1,0.6879220999999234,h,1,0.34681819999968866,0.04805099999975937,0.048306700000011915,0.0983234000000266,0.09834970000019894,0.2997224999999162
RSVPLG03,am,20260225-093216,1.0.2,20251105-084359,774,Experiment,Both,1,Automatic,main,13,20260225-093336,local,local,300,H,H,E,E,E-H.png,E-H.png,hH,hH,mask-2.png,mask-1.png,h,1,0.8423940000002403,s,0,0.5951286000004075,0.050029300000005605,0.05103030000009312,0.10008530000004612,0.09906870000031631,0.3008089999998447
RSVPLG03,am,20260225-093216,1.0.2,20251105-084359,774,Experiment,Both,1,Automatic,main,14,20260225-093341,local,global,300,H,H,A,E,A-H.png,H-E.png,hH,hH,mask-1.png,mask-2.png,h,1,0.912261099999796,s,0,1.0589823000000251,0.049969599999712955,0.05094580000013593,0.10043819999964398,0.0999696000003496,0.30022429999962696
RSVPLG03,am,20260225-093216,1.0.2,20251105-084359,774,Experiment,Both,1,Automatic,main,15,20260225-093347,global,local,300,H,H,A,A,H-A.png,A-H.png,hH,hH,mask-3.png,mask-1.png,h,1,0.8777458999998089,h,1,0.9150887999999213,0.0500160000001415,0.05102200000010271,0.10005360000013752,0.09922049999977389,0.3000123000001622
RSVPLG03,am,20260225-093216,1.0.2,20251105-084359,774,Experiment,Both,1,Automatic,main,16,20260225-093352,local,global,750,H,H,E,A,E-H.png,H-A.png,hH,hH,mask-2.png,mask-4.png,h,1,1.2445016000001488,s,0,0.465708000000177,0.04904830000032234,0.050010699999802455,0.09891349999998056,0.09996869999986302,0.748820600000272
RSVPLG03,am,20260225-093216,1.0.2,20251105-084359,774,Experiment,Both,1,Automatic,main,17,20260225-093358,global,local,300,H,S,A,A,H-A.png,A-S.png,hH,sS,mask-1.png,mask-3.png,h,1,0.8804036000001361,h,0,0.9954495000001771,0.04914809999991121,0.0506041999997251,0.09965169999986756,0.09934750000002168,0.3007661999999982
RSVPLG03,am,20260225-093216,1.0.2,20251105-084359,774,Experiment,Both,1,Automatic,main,18,20260225-093403,local,global,750,H,S,A,A,A-H.png,S-A.png,hH,sS,mask-4.png,mask-2.png,h,1,1.4648174000003564,h,0,0.6854694000003292,0.04900069999985135,0.0500451000002613,0.10018309999986741,0.10010270000020682,0.7497423999998318
RSVPLG03,am,20260225-093216,1.0.2,20251105-084359,774,Experiment,Both,1,Automatic,main,19,20260225-093409,global,global,300,H,H,E,E,H-E.png,H-E.png,hH,hH,mask-3.png,mask-4.png,h,1,0.6975825999998051,h,1,0.3554586999998719,0.05001590000028955,0.05021889999989071,0.09974860000011176,0.10037340000008044,0.2998811000002206
RSVPLG03,am,20260225-093216,1.0.2,20251105-084359,774,Experiment,Both,1,Automatic,main,20,20260225-093414,global,local,750,S,H,E,A,S-E.png,A-H.png,sS,hH,mask-2.png,mask-1.png,s,1,1.3702659000000494,h,1,0.3018296000000191,0.05008799999995972,0.050051799999891955,0.09992409999995289,0.10014469999987341,0.749368300000242
RSVPLG03,am,20260225-093216,1.0.2,20251105-084359,774,Experiment,Both,1,Automatic,main,21,20260225-093420,global,global,750,H,S,E,E,H-E.png,S-E.png,hH,sS,mask-3.png,mask-4.png,h,1,0.6244904999998653,s,1,0.21110719999978755,0.05001159999983429,0.05005759999994552,0.10013789999993605,0.1007062999997288,0.7500991000001704
RSVPLG03,am,20260225-093216,1.0.2,20251105-084359,774,Experiment,Both,1,Automatic,main,22,20260225-093425,global,global,750,H,S,E,E,H-E.png,S-E.png,hH,sS,mask-3.png,mask-1.png,h,1,0.6811342000000877,s,1,0.18806020000010903,0.05004690000032497,0.050024800000301184,0.09980010000026596,0.10003870000036841,0.7499493000000257
RSVPLG03,am,20260225-093216,1.0.2,20251105-084359,774,Experiment,Both,1,Automatic,main,23,20260225-093430,global,global,750,H,S,A,A,H-A.png,S-A.png,hH,sS,mask-2.png,mask-3.png,h,1,0.591796499999873,s,1,0.17405599999983679,0.049987899999905494,0.05003659999965748,0.09985939999978655,0.10006279999970502,0.7500401000002057
RSVPLG03,am,20260225-093216,1.0.2,20251105-084359,774,Experiment,Both,1,Automatic,main,24,20260225-093435,global,global,300,H,S,A,A,H-A.png,S-A.png,hH,sS,mask-3.png,mask-3.png,h,1,0.7920048999999381,s,1,0.20225749999963227,0.050010200000087934,0.04999069999985295,0.1000767000000451,0.0991334000000279,0.2999088000001393
RSVPLG03,am,20260225-093216,1.0.2,20251105-084359,774,Experiment,Both,1,Automatic,main,25,20260225-093439,local,global,750,S,H,A,A,A-S.png,H-A.png,sS,hH,mask-4.png,mask-4.png,s,1,1.246788899999956,h,1,0.8210197999997035,0.05003430000033404,0.050041500000133965,0.10106000000041604,0.09921580000036556,0.7504162000000179
RSVPLG03,am,20260225-093216,1.0.2,20251105-084359,774,Experiment,Both,1,Automatic,main,26,20260225-093455,global,local,300,H,H,A,E,H-A.png,E-H.png,hH,hH,mask-1.png,mask-2.png,h,1,0.8568233000000873,s,0,0.38051919999998063,0.05002379999996265,0.05002229999990959,0.10022030000027371,0.09832640000013271,0.300151200000073
RSVPLG03,am,20260225-093216,1.0.2,20251105-084359,774,Experiment,Both,1,Automatic,main,27,20260225-093500,local,local,300,S,H,A,A,A-S.png,A-H.png,sS,hH,mask-2.png,mask-1.png,s,1,1.0663543999999092,h,1,0.3953340999996726,0.049970200000188925,0.05002599999988888,0.10093460000007326,0.1000810000000456,0.2997368999999708
RSVPLG03,am,20260225-093216,1.0.2,20251105-084359,774,Experiment,Both,1,Automatic,main,28,20260225-093505,local,local,300,S,S,E,E,E-S.png,E-S.png,sS,sS,mask-2.png,mask-3.png,s,1,0.9921324000001732,h,0,0.25163900000006834,0.050063199999840435,0.05009460000019317,0.10011480000002848,0.10010030000012193,0.30146179999974265
RSVPLG03,am,20260225-093216,1.0.2,20251105-084359,774,Experiment,Both,1,Automatic,main,29,20260225-093510,local,local,300,H,H,A,E,A-H.png,E-H.png,hH,hH,mask-1.png,mask-4.png,h,1,0.803570099999888,s,0,0.22020759999986694,0.04977510000026086,0.050145100000008824,0.09980560000030891,0.10016029999997045,0.2996024000003672
RSVPLG03,am,20260225-093216,1.0.2,20251105-084359,774,Experiment,Both,1,Automatic,main,30,20260225-093515,global,global,300,S,S,A,E,S-A.png,S-E.png,sS,sS,mask-2.png,mask-4.png,s,1,0.8707868999999846,h,0,0.29916069999990214,0.05002740000008998,0.05003050000004805,0.10117130000026009,0.10007589999986521,0.30184030000009443
RSVPLG03,am,20260225-093216,1.0.2,20251105-084359,774,Experiment,Both,1,Automatic,main,31,20260225-093519,global,local,300,H,H,A,A,H-A.png,A-H.png,hH,hH,mask-2.png,mask-2.png,h,1,0.8862832999998318,h,1,0.306616600000325,0.04904560000022684,0.05005489999985002,0.09891289999995934,0.1001179999998385,0.29977370000005976
RSVPLG03,am,20260225-093216,1.0.2,20251105-084359,774,Experiment,Both,1,Automatic,main,32,20260225-093524,global,local,750,H,H,E,A,H-E.png,A-H.png,hH,hH,mask-2.png,mask-2.png,h,1,0.4945130999999492,h,1,0.29018600000017614,0.051042900000084046,0.05003759999999602,0.10007809999979145,0.1000927000000047,0.7505671999997503
RSVPLG03,am,20260225-093216,1.0.2,20251105-084359,774,Experiment,Both,1,Automatic,main,33,20260225-093529,global,local,300,H,H,E,A,H-E.png,A-H.png,hH,hH,mask-4.png,mask-2.png,h,1,0.6568595999997342,h,1,0.2186967000002369,0.050020300000142015,0.050055300000167335,0.10004380000009405,0.10005739999996877,0.29979580000008355
RSVPLG03,am,20260225-093216,1.0.2,20251105-084359,774,Experiment,Both,1,Automatic,main,34,20260225-093534,local,local,300,S,S,E,E,E-S.png,E-S.png,sS,sS,mask-2.png,mask-1.png,s,1,0.9800865999995949,s,1,0.13949079999974856,0.05007930000010674,0.04904889999988882,0.10017299999981333,0.09905459999981758,0.3000882000001184
RSVPLG03,am,20260225-093216,1.0.2,20251105-084359,774,Experiment,Both,1,Automatic,main,35,20260225-093538,global,local,300,S,S,E,A,S-E.png,A-S.png,sS,sS,mask-1.png,mask-4.png,s,1,0.7874162000002798,s,1,0.16313970000010158,0.05106900000009773,0.05008259999976872,0.10107650000009016,0.10011069999973188,0.3008675000000949
RSVPLG03,am,20260225-093216,1.0.2,20251105-084359,774,Experiment,Both,1,Automatic,main,36,20260225-093543,global,global,750,S,H,A,A,S-A.png,H-A.png,sS,hH,mask-1.png,mask-3.png,s,1,0.47231719999990673,h,1,0.2917799999995623,0.04979510000021037,0.0500502999998389,0.09981180000022505,0.10009059999993042,0.7498183000002427
RSVPLG03,am,20260225-093216,1.0.2,20251105-084359,774,Experiment,Both,1,Automatic,main,37,20260225-093548,local,local,750,S,S,A,A,A-S.png,A-S.png,sS,sS,mask-1.png,mask-1.png,s,1,0.843313599999874,s,1,0.12333489999991798,0.05014389999996638,0.04998220000015863,0.10014809999984209,0.09992630000033387,0.7503130999998575
RSVPLG03,am,20260225-093216,1.0.2,20251105-084359,774,Experiment,Both,1,Automatic,main,38,20260225-093553,local,global,300,H,S,A,A,A-H.png,S-A.png,hH,sS,mask-4.png,mask-3.png,s,0,0.778781799999706,s,1,2.435907699999916,0.05005239999991318,0.0490684000001238,0.10007320000022446,0.09910209999998187,0.30096800000001167
RSVPLG03,am,20260225-093216,1.0.2,20251105-084359,774,Experiment,Both,1,Automatic,main,39,20260225-093600,global,local,750,S,S,A,E,S-A.png,E-S.png,sS,sS,mask-2.png,mask-1.png,s,1,0.7608534000000873,s,1,0.1631293000000369,0.04979090000006181,0.05003209999995306,0.09983829999964655,0.10004879999996774,0.7501017999998112
RSVPLG03,am,20260225-093216,1.0.2,20251105-084359,774,Experiment,Both,1,Automatic,main,40,20260225-093605,local,global,300,S,H,E,A,E-S.png,H-A.png,sS,hH,mask-1.png,mask-3.png,s,1,1.1189989999998033,s,0,1.587038399999983,0.048072399999909976,0.0494208999998591,0.09983909999982643,0.09937139999965439,0.2995685999999296
RSVPLG03,am,20260225-093216,1.0.2,20251105-084359,774,Experiment,Both,1,Automatic,main,41,20260225-093611,global,global,300,S,S,E,E,S-E.png,S-E.png,sS,sS,mask-2.png,mask-2.png,s,1,1.3099756999999954,s,1,0.5256004000002577,0.050003299999843875,0.0498330000000351,0.10005339999997886,0.09989240000004429,0.30005679999976564
RSVPLG03,am,20260225-093216,1.0.2,20251105-084359,774,Experiment,Both,1,Automatic,main,42,20260225-093616,local,global,750,S,S,A,A,A-S.png,S-A.png,sS,sS,mask-2.png,mask-2.png,s,1,1.3582877000003464,s,1,0.3092393000001721,0.050985100000161765,0.050028000000111206,0.10080410000000484,0.10007089999999152,0.7508440999999948
RSVPLG03,am,20260225-093216,1.0.2,20251105-084359,774,Experiment,Both,1,Automatic,main,43,20260225-093622,local,local,300,S,H,A,A,A-S.png,A-H.png,sS,hH,mask-4.png,mask-3.png,s,1,0.8253026999996109,h,1,0.24844149999989895,0.050067699999999604,0.05007399999976769,0.10017910000033226,0.10035429999970802,0.29999380000026576
RSVPLG03,am,20260225-093216,1.0.2,20251105-084359,774,Experiment,Both,1,Automatic,main,44,20260225-093627,global,global,750,H,S,A,A,H-A.png,S-A.png,hH,sS,mask-1.png,mask-1.png,h,1,0.7277767999999014,s,1,0.22755830000005517,0.04906219999975292,0.05127050000010058,0.1001046999999744,0.10127069999998639,0.7487468999997873
RSVPLG03,am,20260225-093216,1.0.2,20251105-084359,774,Experiment,Both,1,Automatic,main,45,20260225-093632,global,global,300,H,S,E,E,H-E.png,S-E.png,hH,sS,mask-2.png,mask-1.png,h,1,0.6781439000001228,s,1,0.19718509999984235,0.05062069999985397,0.0500488999996378,0.09965169999986756,0.1000675999998748,0.3014490000000478
RSVPLG03,am,20260225-093216,1.0.2,20251105-084359,774,Experiment,Both,1,Automatic,main,46,20260225-093637,local,global,300,S,S,E,E,E-S.png,S-E.png,sS,sS,mask-4.png,mask-3.png,s,1,1.3230183999999099,h,0,0.23543149999977686,0.04933160000018688,0.05106440000008661,0.10039189999997689,0.10004859999980908,0.2994421000003058
RSVPLG03,am,20260225-093216,1.0.2,20251105-084359,774,Experiment,Both,1,Automatic,main,47,20260225-093642,global,global,300,H,S,E,E,H-E.png,S-E.png,hH,sS,mask-2.png,mask-3.png,h,1,0.8300036000000546,s,1,0.2276176000000305,0.04881100000011429,0.05075119999992239,0.09881429999995817,0.10081259999969916,0.2985897000003206
RSVPLG03,am,20260225-093216,1.0.2,20251105-084359,774,Experiment,Both,1,Automatic,main,48,20260225-093646,local,local,750,S,S,A,E,A-S.png,E-S.png,sS,sS,mask-2.png,mask-1.png,s,1,0.5402653999999529,s,1,0.13356789999988905,0.050038800000038464,0.05010240000001431,0.10010079999983645,0.10017000000016196,0.7505186999997022
RSVPLG03,am,20260225-093216,1.0.2,20251105-084359,774,Experiment,Both,1,Automatic,main,49,20260225-093651,local,local,750,S,H,E,E,E-S.png,E-H.png,sS,hH,mask-1.png,mask-2.png,s,1,0.6805584000003364,h,1,0.2296024000002035,0.04802410000002055,0.049114299999928335,0.09803689999989729,0.10085209999988365,0.7490949000002729
RSVPLG03,am,20260225-093216,1.0.2,20251105-084359,774,Experiment,Both,1,Automatic,main,50,20260225-093656,global,global,750,H,H,A,E,H-A.png,H-E.png,hH,hH,mask-2.png,mask-1.png,h,1,0.484547499999735,h,1,0.21746129999974073,0.05002740000008998,0.04977149999967878,0.1000691000003826,0.09982899999977235,0.7499331000003622
RSVPLG03,am,20260225-093216,1.0.2,20251105-084359,774,Experiment,Both,1,Automatic,main,51,20260225-093708,global,global,750,S,S,A,E,S-A.png,S-E.png,sS,sS,mask-1.png,mask-4.png,s,1,0.5393097000001035,s,1,0.14191940000000614,0.05007220000015877,0.04909189999989394,0.10021310000001904,0.1002848999996786,0.7511594000002333
RSVPLG03,am,20260225-093216,1.0.2,20251105-084359,774,Experiment,Both,1,Automatic,main,52,20260225-093713,local,global,300,S,S,E,A,E-S.png,S-A.png,sS,sS,mask-3.png,mask-2.png,s,1,1.1304369999998016,h,0,0.8670677999998588,0.0500013000000763,0.04909649999990506,0.0996170000003076,0.09895989999995436,0.29934880000018893
RSVPLG03,am,20260225-093216,1.0.2,20251105-084359,774,Experiment,Both,1,Automatic,main,53,20260225-093718,global,local,300,S,S,E,A,S-E.png,A-S.png,sS,sS,mask-4.png,mask-1.png,s,1,1.1265560000001642,h,0,0.1947070999999596,0.0490975000002436,0.05006500000035885,0.09918460000017149,0.1003445000001193,0.2990378999998029
RSVPLG03,am,20260225-093216,1.0.2,20251105-084359,774,Experiment,Both,1,Automatic,main,54,20260225-093723,local,global,300,H,S,A,A,A-H.png,S-A.png,hH,sS,mask-3.png,mask-4.png,h,1,0.8007388999999421,s,1,0.8504974000002221,0.04908720000003086,0.04807489999984682,0.10000880000006873,0.0983249999999316,0.3008607000001575
RSVPLG03,am,20260225-093216,1.0.2,20251105-084359,774,Experiment,Both,1,Automatic,main,55,20260225-093729,local,local,300,S,H,A,A,A-S.png,A-H.png,sS,hH,mask-2.png,mask-2.png,s,1,0.9129724999997961,h,1,0.2834579999998823,0.05111639999995532,0.04858790000025692,0.10127319999992324,0.09895379999989018,0.3013947999997981
RSVPLG03,am,20260225-093216,1.0.2,20251105-084359,774,Experiment,Both,1,Automatic,main,56,20260225-093733,local,global,300,H,H,E,A,E-H.png,H-A.png,hH,hH,mask-4.png,mask-2.png,h,1,0.8401037999997243,s,0,0.4186752000000524,0.05003290000013294,0.05001710000033199,0.10010300000021743,0.1000264000003881,0.29994619999979477
RSVPLG03,am,20260225-093216,1.0.2,20251105-084359,774,Experiment,Both,1,Automatic,main,57,20260225-093738,global,global,300,H,H,A,A,H-A.png,H-A.png,hH,hH,mask-2.png,mask-2.png,h,1,1.0538776999997026,h,1,0.13216499999998632,0.05001990000027945,0.050033999999868684,0.10006200000043464,0.10010169999986829,0.3001342000002296
RSVPLG03,am,20260225-093216,1.0.2,20251105-084359,774,Experiment,Both,1,Automatic,main,58,20260225-093743,local,global,750,S,H,E,E,E-S.png,H-E.png,sS,hH,mask-1.png,mask-1.png,s,1,1.6101290999999947,s,0,0.17014900000003763,0.04994109999961438,0.05005089999986012,0.09997769999972661,0.10010909999982687,0.750076799999988
RSVPLG03,am,20260225-093216,1.0.2,20251105-084359,774,Experiment,Both,1,Automatic,main,59,20260225-093749,global,local,750,H,H,A,A,H-A.png,A-H.png,hH,hH,mask-3.png,mask-3.png,h,1,0.5914941000000908,h,1,0.14289860000008048,0.049844799999846146,0.04991259999997055,0.09988380000004327,0.10095339999998032,0.7489885999998478
RSVPLG03,am,20260225-093216,1.0.2,20251105-084359,774,Experiment,Both,1,Automatic,main,60,20260225-093754,local,local,300,H,S,A,E,A-H.png,E-S.png,hH,sS,mask-2.png,mask-3.png,h,1,0.668881699999929,s,1,0.13178870000001552,0.04991590000008728,0.048846900000171445,0.10007020000011835,0.10108459999992192,0.3000391000000491
RSVPLG03,am,20260225-093216,1.0.2,20251105-084359,774,Experiment,Both,1,Automatic,main,61,20260225-093758,local,global,750,S,H,A,A,A-S.png,H-A.png,sS,hH,mask-1.png,mask-1.png,s,1,1.485131000000365,h,1,0.24349859999983892,0.04892370000015944,0.050042800000028365,0.09910130000025674,0.10107749999997395,0.7491294999999809
RSVPLG03,am,20260225-093216,1.0.2,20251105-084359,774,Experiment,Both,1,Automatic,main,62,20260225-093804,local,local,300,S,H,E,A,E-S.png,A-H.png,sS,hH,mask-1.png,mask-2.png,s,1,0.6649468000000525,h,1,0.2114965000000666,0.050040500000250177,0.05003790000000663,0.10008830000015223,0.10005899999987378,0.2998742000004313
RSVPLG03,am,20260225-093216,1.0.2,20251105-084359,774,Experiment,Both,1,Automatic,main,63,20260225-093809,global,local,750,S,H,A,A,S-A.png,A-H.png,sS,hH,mask-1.png,mask-4.png,s,1,0.44647000000031767,h,1,0.195170799999687,0.050091600000087055,0.05105329999969399,0.0991426999999021,0.10113179999962085,0.7483909000002313
RSVPLG03,am,20260225-093216,1.0.2,20251105-084359,774,Experiment,Both,1,Automatic,main,64,20260225-093813,global,global,300,H,H,A,E,H-A.png,H-E.png,hH,hH,mask-2.png,mask-4.png,h,1,0.7705740000001242,h,1,0.13931649999994988,0.05005849999997736,0.05004959999996572,0.10011100000019724,0.10011320000012347,0.2999171000001297
RSVPLG03,am,20260225-093216,1.0.2,20251105-084359,774,Experiment,Both,1,Automatic,main,65,20260225-093818,global,local,300,H,H,A,A,H-A.png,A-H.png,hH,hH,mask-4.png,mask-4.png,h,1,0.8312956999998278,s,0,0.3077691000003142,0.05102069999975356,0.05104359999995722,0.09960199999977704,0.10011230000009164,0.2994254999998702
RSVPLG03,am,20260225-093216,1.0.2,20251105-084359,774,Experiment,Both,1,Automatic,main,66,20260225-093823,global,local,300,H,S,E,A,H-E.png,A-S.png,hH,sS,mask-3.png,mask-2.png,h,1,0.6341087999999218,s,1,0.09184159999995245,0.048053100000288396,0.04914569999982632,0.09810010000001057,0.09921369999983654,0.2993338000001131
RSVPLG03,am,20260225-093216,1.0.2,20251105-084359,774,Experiment,Both,1,Automatic,main,67,20260225-093827,global,global,750,H,S,A,A,H-A.png,S-A.png,hH,sS,mask-1.png,mask-3.png,h,1,0.5039026999997986,s,1,0.0999735000000328,0.050858399999924586,0.04985750000014377,0.10072909999962576,0.09807020000016564,0.7507090999997672
RSVPLG03,am,20260225-093216,1.0.2,20251105-084359,774,Experiment,Both,1,Automatic,main,68,20260225-093832,local,global,750,S,H,A,E,A-S.png,H-E.png,sS,hH,mask-1.png,mask-1.png,s,1,0.7988491000000977,h,1,0.1307440000000497,0.05003870000018651,0.04979959999991479,0.10006180000027598,0.09958759999972244,0.7499319000003197
RSVPLG03,am,20260225-093216,1.0.2,20251105-084359,774,Experiment,Both,1,Automatic,main,69,20260225-093837,global,local,300,H,H,A,E,H-A.png,E-H.png,hH,hH,mask-1.png,mask-3.png,h,1,0.7346968000001652,s,0,0.06825019999996584,0.04998890000024403,0.05019029999994018,0.09982270000000426,0.10126569999965795,0.29873170000018945
RSVPLG03,am,20260225-093216,1.0.2,20251105-084359,774,Experiment,Both,1,Automatic,main,70,20260225-093841,local,global,750,H,S,A,A,A-H.png,S-A.png,hH,sS,mask-4.png,mask-3.png,h,1,1.004907600000024,s,1,0.21246900000005553,0.05004610000014509,0.049945600000228296,0.1000622999999905,0.0997999000001073,0.7494504999999663
RSVPLG03,am,20260225-093216,1.0.2,20251105-084359,774,Experiment,Both,1,Automatic,main,71,20260225-093846,local,local,750,H,H,A,E,A-H.png,E-H.png,hH,hH,mask-1.png,mask-3.png,h,1,0.5903442999997424,h,1,0.13037740000027043,0.0490629999999328,0.04818359999990207,0.10008669999979247,0.09897239999963858,0.7493635000000722
RSVPLG03,am,20260225-093216,1.0.2,20251105-084359,774,Experiment,Both,1,Automatic,main,72,20260225-093851,global,local,750,H,S,A,A,H-A.png,A-S.png,hH,sS,mask-4.png,mask-4.png,h,1,0.6080891999999949,h,0,0.14787299999989045,0.05102569999962725,0.04975000000013097,0.10103389999994761,0.09977989999970305,0.7505578999998761
RSVPLG03,am,20260225-093216,1.0.2,20251105-084359,774,Experiment,Both,1,Automatic,main,73,20260225-093856,local,local,750,S,H,E,A,E-S.png,A-H.png,sS,hH,mask-4.png,mask-4.png,s,1,0.3807514000000083,h,1,0.12493429999994987,0.04908789999990404,0.05090860000018438,0.09889410000005228,0.10083530000019891,0.7492600999999013
RSVPLG03,am,20260225-093216,1.0.2,20251105-084359,774,Experiment,Both,1,Automatic,main,74,20260225-093901,local,local,750,S,H,A,A,A-S.png,A-H.png,sS,hH,mask-4.png,mask-3.png,s,1,0.3824976999999308,h,1,0.12410319999980857,0.050004299999727664,0.050015000000257714,0.10002359999998589,0.10002520000034565,0.7494334999996681
RSVPLG03,am,20260225-093216,1.0.2,20251105-084359,774,Experiment,Both,1,Automatic,main,75,20260225-093905,local,local,750,S,S,E,A,E-S.png,A-S.png,sS,sS,mask-3.png,mask-3.png,s,1,0.3255208999999013,s,1,0.09125519999997778,0.05001720000018395,0.05005960000016785,0.10091460000012376,0.09979690000000119,0.7503888999999617
RSVPLG03,am,20260225-093216,1.0.2,20251105-084359,774,Experiment,Both,1,Automatic,main,76,20260225-093917,local,local,300,H,H,E,A,E-H.png,A-H.png,hH,hH,mask-2.png,mask-1.png,h,1,0.7015710000000581,h,1,0.14053659999990487,0.04903359999980239,0.0500291999996989,0.10009549999995215,0.10008059999972829,0.2997767000001659
RSVPLG03,am,20260225-093216,1.0.2,20251105-084359,774,Experiment,Both,1,Automatic,main,77,20260225-093921,local,global,300,S,H,E,E,E-S.png,H-E.png,sS,hH,mask-4.png,mask-4.png,s,1,0.7198373000001084,s,0,0.08528019999994285,0.049619500000062544,0.050935499999923195,0.09949170000027152,0.10001770000008037,0.29839010000023336
RSVPLG03,am,20260225-093216,1.0.2,20251105-084359,774,Experiment,Both,1,Automatic,main,78,20260225-093926,global,global,750,H,S,A,E,H-A.png,S-E.png,hH,sS,mask-1.png,mask-3.png,h,1,0.6678154000001086,s,1,0.09110929999997097,0.04999039999984234,0.050028999999994994,0.10000259999969785,0.10008130000005622,0.7497458999996525
RSVPLG03,am,20260225-093216,1.0.2,20251105-084359,774,Experiment,Both,1,Automatic,main,79,20260225-093930,local,global,750,H,H,E,A,E-H.png,H-A.png,hH,hH,mask-1.png,mask-4.png,h,1,0.6424226000003728,s,0,0.10011489999988044,0.04892419999987396,0.05006409999987227,0.0989598000001024,0.10112320000007458,0.7493205999999191
RSVPLG03,am,20260225-093216,1.0.2,20251105-084359,774,Experiment,Both,1,Automatic,main,80,20260225-093935,global,local,750,H,S,A,E,H-A.png,E-S.png,hH,sS,mask-2.png,mask-3.png,h,1,0.49490979999973206,s,1,0.0685419000001275,0.049850100000185193,0.04887109999981476,0.10088840000025812,0.09872869999981049,0.7511042000000998
RSVPLG03,am,20260225-093216,1.0.2,20251105-084359,774,Experiment,Both,1,Automatic,main,81,20260225-093940,local,global,300,H,S,E,A,E-H.png,S-A.png,hH,sS,mask-2.png,mask-4.png,h,1,0.76459530000011,s,1,0.06707679999999527,0.050763199999892095,0.04900930000030712,0.10086559999990641,0.09989130000030855,0.3010125999999218
RSVPLG03,am,20260225-093216,1.0.2,20251105-084359,774,Experiment,Both,1,Automatic,main,82,20260225-093944,global,local,750,S,H,E,E,S-E.png,E-H.png,sS,hH,mask-3.png,mask-1.png,s,1,0.6741007999999056,h,1,0.14047379999965415,0.04913269999997283,0.05102280000028259,0.09923849999995582,0.10108390000004874,0.7488991999998689
RSVPLG03,am,20260225-093216,1.0.2,20251105-084359,774,Experiment,Both,1,Automatic,main,83,20260225-093949,global,local,300,S,S,A,E,S-A.png,E-S.png,sS,sS,mask-3.png,mask-2.png,s,1,1.0691713999999592,s,1,0.07609950000005483,0.05093189999979586,0.05099100000006729,0.0999587999999676,0.10099600000012288,0.299761799999942
RSVPLG03,am,20260225-093216,1.0.2,20251105-084359,774,Experiment,Both,1,Automatic,main,84,20260225-093954,global,global,300,S,S,E,E,S-E.png,S-E.png,sS,sS,mask-3.png,mask-3.png,s,1,1.0805678000001535,s,1,0.07639100000005783,0.05002039999999397,0.05000629999994999,0.10007519999999204,0.10106859999996232,0.29949329999999463
RSVPLG03,am,20260225-093216,1.0.2,20251105-084359,774,Experiment,Both,1,Automatic,main,85,20260225-093959,local,local,750,S,H,A,A,A-S.png,A-H.png,sS,hH,mask-3.png,mask-4.png,s,1,0.6718635000001996,h,1,0.11481510000021444,0.05165609999994558,0.04995370000006005,0.10142089999999371,0.09972100000004502,0.7511249999997744
RSVPLG03,am,20260225-093216,1.0.2,20251105-084359,774,Experiment,Both,1,Automatic,main,86,20260225-094004,local,global,300,S,S,E,E,E-S.png,S-E.png,sS,sS,mask-3.png,mask-2.png,s,1,0.746154899999965,h,0,0.10036889999992127,0.04906329999994341,0.050063000000136526,0.10061929999983477,0.10009020000006785,0.2989583999997194
RSVPLG03,am,20260225-093216,1.0.2,20251105-084359,774,Experiment,Both,1,Automatic,main,87,20260225-094008,global,global,750,H,H,A,E,H-A.png,H-E.png,hH,hH,mask-2.png,mask-4.png,h,1,0.4877145999998902,h,1,0.1148431999999957,0.049006700000063574,0.050004900000203634,0.10002750000012384,0.10007059999998091,0.7483557999998993
RSVPLG03,am,20260225-093216,1.0.2,20251105-084359,774,Experiment,Both,1,Automatic,main,88,20260225-094013,local,local,300,H,H,E,E,E-H.png,E-H.png,hH,hH,mask-2.png,mask-2.png,h,1,0.8523806000002878,h,1,0.08268029999999271,0.04909980000002179,0.049999299999853974,0.09999400000015157,0.09979919999977938,0.3008972000002359
RSVPLG03,am,20260225-093216,1.0.2,20251105-084359,774,Experiment,Both,1,Automatic,main,89,20260225-094017,global,global,300,S,S,E,A,S-E.png,S-A.png,sS,sS,mask-2.png,mask-3.png,s,1,0.5227350999998635,s,1,0.05134809999981371,0.05007979999982126,0.04945599999973638,0.10106759999962378,0.0995703999997204,0.30001240000001417
RSVPLG03,am,20260225-093216,1.0.2,20251105-084359,774,Experiment,Both,1,Automatic,main,90,20260225-094022,global,local,750,S,H,A,A,S-A.png,A-H.png,sS,hH,mask-2.png,mask-4.png,s,1,0.4997763000001214,h,1,0.11547390000032465,0.05009300000028816,0.04907970000022033,0.10184410000010757,0.1000384000003578,0.751003800000035
RSVPLG03,am,20260225-093216,1.0.2,20251105-084359,774,Experiment,Both,1,Automatic,main,91,20260225-094026,local,global,750,H,S,A,A,A-H.png,S-A.png,hH,sS,mask-1.png,mask-2.png,h,1,1.1730422999999064,s,1,0.5798313999998754,0.05004830000007132,0.05066110000007029,0.10000820000004751,0.1007832000000235,0.7485542999997961
RSVPLG03,am,20260225-093216,1.0.2,20251105-084359,774,Experiment,Both,1,Automatic,main,92,20260225-094032,local,local,750,S,H,A,A,A-S.png,A-H.png,sS,hH,mask-3.png,mask-1.png,s,1,0.5304901999998037,h,1,0.09945309999966412,0.05007180000029621,0.050004899999748886,0.10108100000024933,0.10002200000008088,0.7514178000001266
RSVPLG03,am,20260225-093216,1.0.2,20251105-084359,774,Experiment,Both,1,Automatic,main,93,20260225-094037,global,global,750,H,H,E,E,H-E.png,H-E.png,hH,hH,mask-3.png,mask-1.png,h,1,0.4875529999999344,h,1,0.0922802000000047,0.050088400000277034,0.050050699999701465,0.10013690000005226,0.10007779999978084,0.7506618000002163
RSVPLG03,am,20260225-093216,1.0.2,20251105-084359,774,Experiment,Both,1,Automatic,main,94,20260225-094041,local,global,300,S,H,A,A,A-S.png,H-A.png,sS,hH,mask-4.png,mask-1.png,s,1,0.8807420999996793,s,0,0.08444879999979094,0.05008450000013909,0.05113710000023275,0.10013210000033723,0.10093870000036986,0.2990509999999631
RSVPLG03,am,20260225-093216,1.0.2,20251105-084359,774,Experiment,Both,1,Automatic,main,95,20260225-094046,global,global,300,S,H,E,E,S-E.png,H-E.png,sS,hH,mask-2.png,mask-1.png,s,1,0.6740311000003203,s,0,0.075410699999793,0.051060100000086095,0.050313700000060635,0.10009910000007949,0.10130620000018098,0.2998907999999574
RSVPLG03,am,20260225-093216,1.0.2,20251105-084359,774,Experiment,Both,1,Automatic,main,96,20260225-094050,local,local,300,H,H,A,E,A-H.png,E-H.png,hH,hH,mask-2.png,mask-2.png,h,1,0.8794262999999773,h,1,0.08230270000012752,0.05102149999993344,0.04917219999970257,0.09997070000008534,0.10001669999974183,0.29965960000026826
RSVPLG03,am,20260225-093216,1.0.2,20251105-084359,774,Experiment,Both,1,Automatic,main,97,20260225-094055,local,local,750,H,S,E,A,E-H.png,A-S.png,hH,sS,mask-2.png,mask-4.png,h,1,0.8284549000004517,s,1,0.11452929999995831,0.050030299999889394,0.05003260000012233,0.10011029999986931,0.10007760000007693,0.7496679999999287
RSVPLG03,am,20260225-093216,1.0.2,20251105-084359,774,Experiment,Both,1,Automatic,main,98,20260225-094100,local,global,300,H,S,A,E,A-H.png,S-E.png,hH,sS,mask-2.png,mask-1.png,h,1,0.8241747999995823,h,0,0.13125599999966653,0.04835570000022926,0.04824330000019472,0.09845810000024358,0.10000250000030064,0.30017929999985427
RSVPLG03,am,20260225-093216,1.0.2,20251105-084359,774,Experiment,Both,1,Automatic,main,99,20260225-094104,global,local,750,S,S,E,A,S-E.png,A-S.png,sS,sS,mask-2.png,mask-3.png,s,1,0.9329907000001185,h,0,0.1615692999998828,0.05012929999975313,0.051794499999687105,0.10012879999976576,0.10079529999984516,0.7496986999999535
RSVPLG03,am,20260225-093216,1.0.2,20251105-084359,774,Experiment,Both,1,Automatic,main,100,20260225-094110,global,global,750,H,H,A,A,H-A.png,H-A.png,hH,hH,mask-4.png,mask-1.png,h,1,0.5141668000001118,h,1,0.10812750000013693,0.04999820000011823,0.05039250000027096,0.10003670000014608,0.10047269999995478,0.7495868999999402
