exp,exp_initials,runtime,ver,modtime,sub,blocktype,targets,cuetype,mode,trialtype,trial,trialtime,t1_level,t2_level,t2_lag,t1,t2,distractor1,distractor2,stimfile1,stimfile2,t1_corr,t2_corr,maskfile1,maskfile2,t1_resp,t1_acc,t1_rt,t2_resp,t2_acc,t2_rt,t1_dur,t2_dur,t1mask_soa,t2mask_soa,t1t2_soa
RSVPLG03,km,20260212-161408,1.0.2,20251113-095759,758,Introduction,T1,1,Automatic,main,1,20260212-161429,local,global,750,H,H,A,A,A-H.png,H-A.png,hH,hH,mask-1.png,mask-3.png,h,1,0.14437129997531883,none,-5,0,0.09961890001432039,0.09989059998770244,0.20003450001240708,0.20179369999095798,0.7486618000257295
RSVPLG03,km,20260212-161408,1.0.2,20251113-095759,758,Introduction,T1,1,Automatic,main,2,20260212-161433,global,local,750,S,S,A,A,S-A.png,A-S.png,sS,sS,mask-1.png,mask-2.png,s,1,0.9086787000123877,none,-5,0,0.09769279998727143,0.10121960000833496,0.198012100008782,0.19993510001222603,0.7488713999919128
RSVPLG03,km,20260212-161408,1.0.2,20251113-095759,758,Introduction,T1,1,Automatic,main,3,20260212-161438,global,global,750,S,H,A,E,S-A.png,H-E.png,sS,hH,mask-4.png,mask-3.png,s,1,0.3540686999913305,none,-5,0,0.0985524000134319,0.09953189999214374,0.19992889999412,0.1994150999817066,0.7510987000132445
RSVPLG03,km,20260212-161408,1.0.2,20251113-095759,758,Introduction,T1,1,Automatic,main,4,20260212-161443,global,global,750,S,H,A,E,S-A.png,H-E.png,sS,hH,mask-1.png,mask-1.png,s,1,1.0834473999857437,none,-5,0,0.10068299999693409,0.09951910001109354,0.19957319999230094,0.1982725000125356,0.7512173999857623
RSVPLG03,km,20260212-161408,1.0.2,20251113-095759,758,Introduction,T1,1,Automatic,main,5,20260212-161448,global,local,750,H,H,A,E,H-A.png,E-H.png,hH,hH,mask-2.png,mask-4.png,s,0,0.46849979998660274,none,-5,0,0.09875010000541806,0.09967199998209253,0.19965409999713302,0.20153359998948872,0.7500703000114299
RSVPLG03,km,20260212-161408,1.0.2,20251113-095759,758,Introduction,T1,1,Automatic,main,6,20260212-161453,global,local,750,S,S,E,E,S-E.png,E-S.png,sS,sS,mask-3.png,mask-3.png,s,1,0.4666002999874763,none,-5,0,0.09970120000070892,0.10028929999680258,0.20177529999637045,0.20150339999236166,0.7497723000124097
RSVPLG03,km,20260212-161408,1.0.2,20251113-095759,758,Introduction,T1,1,Automatic,main,7,20260212-161457,local,local,750,H,S,E,E,E-H.png,E-S.png,hH,sS,mask-2.png,mask-1.png,h,1,0.6325465000118129,none,-5,0,0.10059340001316741,0.09830650000367314,0.20173739999881946,0.19833670000662096,0.7517213000101037
RSVPLG03,km,20260212-161408,1.0.2,20251113-095759,758,Introduction,T1,1,Automatic,main,8,20260212-161502,local,global,750,H,S,A,A,A-H.png,S-A.png,hH,sS,mask-3.png,mask-2.png,h,1,0.34195920001366176,none,-5,0,0.09933090000413358,0.10125529998913407,0.2008034000173211,0.20074119998025708,0.7494820000138134
RSVPLG03,km,20260212-161408,1.0.2,20251113-095759,758,Introduction,T1,1,Automatic,main,9,20260212-161506,local,local,750,S,S,A,E,A-S.png,E-S.png,sS,sS,mask-2.png,mask-3.png,s,1,0.839927599998191,none,-5,0,0.10076820000540465,0.10099170001922175,0.2010143999941647,0.19944570001098327,0.7507623999845237
RSVPLG03,km,20260212-161408,1.0.2,20251113-095759,758,Introduction,T1,1,Automatic,main,10,20260212-161511,local,local,750,H,H,E,E,E-H.png,E-H.png,hH,hH,mask-2.png,mask-4.png,h,1,0.430215300002601,none,-5,0,0.10137580000446178,0.10224899998866022,0.20077759999549016,0.20209609999437816,0.7502786999975797
RSVPLG03,km,20260212-161408,1.0.2,20251113-095759,758,Introduction,T1,1,Automatic,main,11,20260212-161516,local,global,750,S,H,E,E,E-S.png,H-E.png,sS,hH,mask-1.png,mask-3.png,s,1,0.3762732000031974,none,-5,0,0.09934570000041276,0.10050259999115951,0.2002273999969475,0.20070389998727478,0.7503141000051983
RSVPLG03,km,20260212-161408,1.0.2,20251113-095759,758,Introduction,T1,1,Automatic,main,12,20260212-161521,local,local,750,S,S,E,E,E-S.png,E-S.png,sS,sS,mask-2.png,mask-2.png,s,1,0.4524488000024576,none,-5,0,0.09914079998270608,0.09906530001899227,0.1993392999866046,0.20077759999549016,0.7501127999857999
RSVPLG03,km,20260212-161408,1.0.2,20251113-095759,758,Introduction,T1,1,Automatic,main,13,20260212-161525,global,global,750,H,H,E,E,H-E.png,H-E.png,hH,hH,mask-2.png,mask-1.png,h,1,0.3271231999970041,none,-5,0,0.10055860001011752,0.09887210000306368,0.19954060000600293,0.1989707000029739,0.7515150000108406
RSVPLG03,km,20260212-161408,1.0.2,20251113-095759,758,Introduction,T1,1,Automatic,main,14,20260212-161530,local,global,750,S,H,A,E,A-S.png,H-E.png,sS,hH,mask-4.png,mask-1.png,s,1,1.9397063000069465,none,-5,0,0.1006690000067465,0.09858640001039021,0.20059590000892058,0.20041079999646172,0.7504555000050459
RSVPLG03,km,20260212-161408,1.0.2,20251113-095759,758,Introduction,T1,1,Automatic,main,15,20260212-161536,global,local,750,H,S,E,E,H-E.png,E-S.png,hH,sS,mask-4.png,mask-3.png,h,1,0.6676854999968782,none,-5,0,0.09994419998838566,0.0998867999878712,0.20048959998530336,0.20036889999755658,0.7498839999898337
RSVPLG03,km,20260212-161408,1.0.2,20251113-095759,758,Introduction,T1,1,Automatic,main,16,20260212-161541,global,global,750,S,S,E,E,S-E.png,S-E.png,sS,sS,mask-1.png,mask-4.png,s,1,0.7353768000029959,none,-5,0,0.09991920000175014,0.09974439998040907,0.2004126000101678,0.19913189997896552,0.7520344000076875
RSVPLG03,km,20260212-161625,1.0.2,20251113-095759,758,Practice,T1,1,Automatic,main,1,20260212-161643,local,global,300,S,H,A,A,A-S.png,H-A.png,sS,hH,mask-1.png,mask-1.png,h,0,0.5472932000120636,none,-5,0,0.043031000008340925,0.04902579999179579,0.09313409999595024,0.10077230000752024,0.29333700001006946
RSVPLG03,km,20260212-161625,1.0.2,20251113-095759,758,Practice,T1,1,Automatic,main,2,20260212-161647,local,local,300,S,H,A,A,A-S.png,A-H.png,sS,hH,mask-4.png,mask-1.png,s,1,0.7430898000020534,none,-5,0,0.04911120000178926,0.05203590000746772,0.09958679997362196,0.10201540001435205,0.2979277999838814
RSVPLG03,km,20260212-161625,1.0.2,20251113-095759,758,Practice,T1,1,Automatic,main,3,20260212-161652,local,local,750,S,S,E,E,E-S.png,E-S.png,sS,sS,mask-2.png,mask-4.png,s,1,1.0511923999874853,none,-5,0,0.04862760001560673,0.0489481000113301,0.09888770000543445,0.09875190001912415,0.7485867000068538
RSVPLG03,km,20260212-161625,1.0.2,20251113-095759,758,Practice,T1,1,Automatic,main,4,20260212-161657,local,global,300,S,S,A,A,A-S.png,S-A.png,sS,sS,mask-2.png,mask-1.png,h,0,0.328606299997773,none,-5,0,0.04875539999920875,0.04875060002086684,0.09902120000333525,0.09948560001794249,0.29947669999091886
RSVPLG03,km,20260212-161625,1.0.2,20251113-095759,758,Practice,T1,1,Automatic,main,5,20260212-161700,global,global,750,H,H,A,A,H-A.png,H-A.png,hH,hH,mask-4.png,mask-4.png,s,0,0.5902066999988165,none,-5,0,0.04872980000800453,0.04872549997526221,0.10087240001303144,0.09963229999993928,0.7498682000150438
RSVPLG03,km,20260212-161625,1.0.2,20251113-095759,758,Practice,T1,1,Automatic,main,6,20260212-161705,local,local,300,H,H,A,A,A-H.png,A-H.png,hH,hH,mask-3.png,mask-3.png,h,1,0.5392258000210859,none,-5,0,0.049893799994606525,0.049554600002011284,0.09995709999930114,0.0986026999889873,0.3000641000107862
RSVPLG03,km,20260212-161625,1.0.2,20251113-095759,758,Practice,T1,1,Automatic,main,7,20260212-161709,global,local,300,H,S,E,E,H-E.png,E-S.png,hH,sS,mask-2.png,mask-2.png,h,1,0.4090109999815468,none,-5,0,0.0493451000074856,0.04928149998886511,0.09822630000417121,0.10020369998528622,0.29869049999979325
RSVPLG03,km,20260212-161625,1.0.2,20251113-095759,758,Practice,T1,1,Automatic,main,8,20260212-161713,global,global,300,H,S,E,E,H-E.png,S-E.png,hH,sS,mask-3.png,mask-1.png,h,1,0.6192549999977928,none,-5,0,0.04946189999463968,0.0486279999895487,0.09724350000033155,0.09922720000031404,0.2986399999936111
RSVPLG03,km,20260212-161625,1.0.2,20251113-095759,758,Practice,T1,1,Automatic,main,9,20260212-161717,local,global,750,S,S,A,E,A-S.png,S-E.png,sS,sS,mask-1.png,mask-1.png,s,1,0.6641488999885041,none,-5,0,0.0505581000179518,0.048708399990573525,0.09934620000422001,0.10011800000211224,0.7481391000037547
RSVPLG03,km,20260212-161625,1.0.2,20251113-095759,758,Practice,T1,1,Automatic,main,10,20260212-161722,global,global,750,S,H,A,A,S-A.png,H-A.png,sS,hH,mask-2.png,mask-2.png,s,1,1.0908660999848507,none,-5,0,0.05158110000775196,0.05026049999287352,0.10009570000693202,0.10047149998717941,0.7482171000156086
RSVPLG03,km,20260212-161625,1.0.2,20251113-095759,758,Practice,T1,1,Automatic,main,11,20260212-161727,local,local,750,S,H,A,A,A-S.png,A-H.png,sS,hH,mask-3.png,mask-1.png,s,1,0.9522903999895789,none,-5,0,0.04967490001581609,0.04987180000171065,0.09912520000943914,0.09963739998056553,0.7483693000103813
RSVPLG03,km,20260212-161625,1.0.2,20251113-095759,758,Practice,T1,1,Automatic,main,12,20260212-161732,local,global,750,H,S,A,E,A-H.png,S-E.png,hH,sS,mask-2.png,mask-1.png,h,1,0.4044024999893736,none,-5,0,0.05093589998432435,0.05147119998582639,0.1005789999908302,0.10127949999878183,0.7473773999954574
RSVPLG03,km,20260212-161625,1.0.2,20251113-095759,758,Practice,T1,1,Automatic,main,13,20260212-161736,global,global,300,S,H,E,A,S-E.png,H-A.png,sS,hH,mask-2.png,mask-4.png,s,1,0.40354430000297725,none,-5,0,0.05058950002421625,0.04923679999774322,0.10002979999990202,0.09840220000478439,0.30025770000065677
RSVPLG03,km,20260212-161625,1.0.2,20251113-095759,758,Practice,T1,1,Automatic,main,14,20260212-161740,global,local,750,S,S,A,A,S-A.png,A-S.png,sS,sS,mask-1.png,mask-3.png,s,1,0.5344293999951333,none,-5,0,0.04962020000675693,0.04905640002107248,0.09871920000296086,0.0985532000195235,0.7490779999934603
RSVPLG03,km,20260212-161625,1.0.2,20251113-095759,758,Practice,T1,1,Automatic,main,15,20260212-161745,global,local,750,H,H,A,A,H-A.png,A-H.png,hH,hH,mask-2.png,mask-3.png,h,1,0.5330992999952286,none,-5,0,0.05071400001179427,0.04968530000769533,0.10121819999767467,0.09889880000264384,0.7489793999993708
RSVPLG03,km,20260212-161625,1.0.2,20251113-095759,758,Practice,T1,1,Automatic,main,16,20260212-161749,global,local,300,S,S,A,A,S-A.png,A-S.png,sS,sS,mask-4.png,mask-2.png,s,1,0.4251265000202693,none,-5,0,0.04986050000297837,0.04832530001294799,0.0996292999770958,0.09886430000187829,0.3001718999876175
RSVPLG03,km,20260212-161821,1.0.2,20251113-095759,758,Introduction,Both,1,Automatic,main,1,20260212-161902,local,local,750,H,H,E,E,E-H.png,E-H.png,hH,hH,mask-2.png,mask-3.png,h,1,0.43133810002473183,s,0,2.3333988999947906,0.09782220001216047,0.10005689997342415,0.19862100001773797,0.20042799998191185,0.7489212000218686
RSVPLG03,km,20260212-161821,1.0.2,20251113-095759,758,Introduction,Both,1,Automatic,main,2,20260212-161909,global,local,750,H,H,A,A,H-A.png,A-H.png,hH,hH,mask-1.png,mask-1.png,h,1,0.9428731999942102,s,0,0.30119030000059865,0.10128440000698902,0.09836010000435635,0.20095510000828654,0.19803529998171143,0.7530661000055261
RSVPLG03,km,20260212-161821,1.0.2,20251113-095759,758,Introduction,Both,1,Automatic,main,3,20260212-161915,global,global,750,H,S,E,A,H-E.png,S-A.png,hH,sS,mask-1.png,mask-1.png,h,1,2.0087954999762587,s,1,0.28931439999723807,0.09959950001211837,0.10056220000842586,0.1992335999966599,0.20003740000538528,0.7511161000002176
RSVPLG03,km,20260212-161821,1.0.2,20251113-095759,758,Introduction,Both,1,Automatic,main,4,20260212-161921,local,local,750,S,S,E,A,E-S.png,A-S.png,sS,sS,mask-3.png,mask-3.png,s,1,1.9900587000011,h,0,0.5571428000112064,0.10137920000124723,0.1007030000037048,0.1999311999825295,0.19939520000480115,0.7512178999895696
RSVPLG03,km,20260212-161821,1.0.2,20251113-095759,758,Introduction,Both,1,Automatic,main,5,20260212-161928,local,global,750,S,S,E,A,E-S.png,S-A.png,sS,sS,mask-4.png,mask-2.png,s,1,1.9204782000160776,h,0,0.34929109999211505,0.10135549999540672,0.10040270001627505,0.2007838000135962,0.20127380001940764,0.7511807999981102
RSVPLG03,km,20260212-161821,1.0.2,20251113-095759,758,Introduction,Both,1,Automatic,main,6,20260212-161934,global,local,750,H,H,A,E,H-A.png,E-H.png,hH,hH,mask-1.png,mask-2.png,h,1,1.5395633000007365,s,0,0.5255008000240196,0.10279659999650903,0.10007659997791052,0.20244600001024082,0.19902399997226894,0.7531900000176392
RSVPLG03,km,20260212-161821,1.0.2,20251113-095759,758,Introduction,Both,1,Automatic,main,7,20260212-161941,local,local,750,S,H,E,E,E-S.png,E-H.png,sS,hH,mask-3.png,mask-4.png,s,1,1.0565170999907423,h,1,0.39693289998103864,0.1019594999961555,0.10073270002612844,0.20048129998031072,0.20190770001499914,0.7512661999789998
RSVPLG03,km,20260212-161821,1.0.2,20251113-095759,758,Introduction,Both,1,Automatic,main,8,20260212-161947,global,global,750,S,H,A,A,S-A.png,H-A.png,sS,hH,mask-4.png,mask-2.png,s,1,0.7859693999926094,h,1,0.5268381999921985,0.09972520000883378,0.1010777999763377,0.20052080001914874,0.20124460000079125,0.7504274000239093
RSVPLG03,km,20260212-161821,1.0.2,20251113-095759,758,Introduction,Both,1,Automatic,main,9,20260212-161952,global,global,750,S,S,E,A,S-E.png,S-A.png,sS,sS,mask-4.png,mask-1.png,h,0,0.6503267000080086,s,1,0.31711179998819716,0.10082229998079129,0.09981350001180544,0.20063109998591244,0.20006639999337494,0.7519400999881327
RSVPLG03,km,20260212-161821,1.0.2,20251113-095759,758,Introduction,Both,1,Automatic,main,10,20260212-161957,local,global,750,S,S,E,E,E-S.png,S-E.png,sS,sS,mask-2.png,mask-1.png,s,1,1.2362610999844037,s,1,0.14370519999647513,0.0998400000098627,0.10079799999948591,0.20055820001289248,0.2029896000167355,0.7506979999889154
RSVPLG03,km,20260212-161821,1.0.2,20251113-095759,758,Introduction,Both,1,Automatic,main,11,20260212-162003,global,local,750,H,S,A,E,H-A.png,E-S.png,hH,sS,mask-3.png,mask-4.png,s,0,0.6205270999926142,s,1,0.4820239999971818,0.10061290001613088,0.1003150999895297,0.20225450000725687,0.200678399996832,0.752013600023929
RSVPLG03,km,20260212-161821,1.0.2,20251113-095759,758,Introduction,Both,1,Automatic,main,12,20260212-162009,global,global,750,S,H,E,A,S-E.png,H-A.png,sS,hH,mask-1.png,mask-2.png,s,1,0.8128754000063054,h,1,0.38361179997446015,0.1009757999854628,0.10060150001663715,0.19995189999463037,0.19990930001949891,0.7507690999773331
RSVPLG03,km,20260212-161821,1.0.2,20251113-095759,758,Introduction,Both,1,Automatic,main,13,20260212-162014,global,local,750,S,H,A,E,S-A.png,E-H.png,sS,hH,mask-4.png,mask-1.png,s,1,1.142293199984124,h,1,0.4601756999909412,0.10057989999768324,0.09963740000966936,0.19987219999893568,0.19939850000082515,0.7520900999952573
RSVPLG03,km,20260212-161821,1.0.2,20251113-095759,758,Introduction,Both,1,Automatic,main,14,20260212-162020,local,global,750,S,H,E,A,E-S.png,H-A.png,sS,hH,mask-2.png,mask-4.png,s,1,0.9803858999803197,h,1,0.3506612000055611,0.10039269999833778,0.0988968999881763,0.20103219998418353,0.20112690000678413,0.7517873999895528
RSVPLG03,km,20260212-161821,1.0.2,20251113-095759,758,Introduction,Both,1,Automatic,main,15,20260212-162025,local,local,750,H,S,A,E,A-H.png,E-S.png,hH,sS,mask-3.png,mask-1.png,h,1,1.269201899995096,s,1,0.38508829998318106,0.10015690000727773,0.0985313999990467,0.20044399998732843,0.19873140001436695,0.7522888999956194
RSVPLG03,km,20260212-161821,1.0.2,20251113-095759,758,Introduction,Both,1,Automatic,main,16,20260212-162031,local,global,750,S,S,E,A,E-S.png,S-A.png,sS,sS,mask-3.png,mask-1.png,s,1,0.9156085000140592,s,1,0.20658759999787435,0.10053500000503846,0.10085849999450147,0.20139030000427738,0.20025389999500476,0.7508267000084743
RSVPLG03,km,20260212-162051,1.0.2,20251113-095759,758,Practice,Both,1,Automatic,main,1,20260212-162119,global,local,300,H,S,A,E,H-A.png,E-S.png,hH,sS,mask-4.png,mask-2.png,h,1,0.5799543000175618,s,1,0.06009360001189634,0.04693579999729991,0.051022900006501004,0.09600600000703707,0.10141500001191162,0.2957756999821868
RSVPLG03,km,20260212-162051,1.0.2,20251113-095759,758,Practice,Both,1,Automatic,main,2,20260212-162123,local,local,750,H,S,E,E,E-H.png,E-S.png,hH,sS,mask-4.png,mask-2.png,h,1,0.9967768999922555,s,1,0.06227910000598058,0.05176740000024438,0.04936400000588037,0.10051789999124594,0.0977732999890577,0.7525224999990314
RSVPLG03,km,20260212-162051,1.0.2,20251113-095759,758,Practice,Both,1,Automatic,main,3,20260212-162128,local,global,750,H,S,E,E,E-H.png,S-E.png,hH,sS,mask-2.png,mask-1.png,h,1,0.7942961999797262,s,1,0.11146429998916574,0.04986530001042411,0.04921029999968596,0.10053429999970831,0.10052350000478327,0.7507243999862112
RSVPLG03,km,20260212-162051,1.0.2,20251113-095759,758,Practice,Both,1,Automatic,main,4,20260212-162133,global,global,750,H,H,E,A,H-E.png,H-A.png,hH,hH,mask-2.png,mask-2.png,h,1,0.4067935000057332,h,1,0.8489644999790471,0.0500395999988541,0.04992020002100617,0.09947309998096898,0.09909780000452884,0.7511204999755137
RSVPLG03,km,20260212-162051,1.0.2,20251113-095759,758,Practice,Both,1,Automatic,main,5,20260212-162138,local,global,300,S,H,E,E,E-S.png,H-E.png,sS,hH,mask-2.png,mask-1.png,s,1,1.191302099992754,h,1,0.06134889999520965,0.049751600017771125,0.050473300012527034,0.09992150001926348,0.1012983999971766,0.2996010000060778
RSVPLG03,km,20260212-162051,1.0.2,20251113-095759,758,Practice,Both,1,Automatic,main,6,20260212-162143,global,global,750,H,H,A,E,H-A.png,H-E.png,hH,hH,mask-3.png,mask-2.png,h,1,0.7511121999996249,h,1,0.17445990000851452,0.05014330000267364,0.04843329999130219,0.09965699998429045,0.09978930000215769,0.7511515000078361
RSVPLG03,km,20260212-162051,1.0.2,20251113-095759,758,Practice,Both,1,Automatic,main,7,20260212-162148,local,global,300,H,H,A,A,A-H.png,H-A.png,hH,hH,mask-4.png,mask-1.png,h,1,0.5013580999802798,h,1,0.2728328999946825,0.048721300001489,0.0503776999830734,0.10029420000500977,0.10111399999004789,0.3003642999974545
RSVPLG03,km,20260212-162051,1.0.2,20251113-095759,758,Practice,Both,1,Automatic,main,8,20260212-162153,global,global,300,S,S,E,E,S-E.png,S-E.png,sS,sS,mask-4.png,mask-4.png,s,1,0.4260935999918729,s,1,0.47728839999763295,0.050529600004665554,0.05059229998732917,0.10137399999075569,0.10072059999220073,0.30002319999039173
RSVPLG03,km,20260212-162051,1.0.2,20251113-095759,758,Practice,Both,1,Automatic,main,9,20260212-162157,local,local,300,H,H,E,E,E-H.png,E-H.png,hH,hH,mask-1.png,mask-4.png,h,1,1.3733235000108834,h,1,0.07740589999593794,0.0504732999834232,0.05002210001111962,0.10181189997820184,0.10077210000599734,0.30189489998156205
RSVPLG03,km,20260212-162051,1.0.2,20251113-095759,758,Practice,Both,1,Automatic,main,10,20260212-162202,local,global,750,S,H,A,E,A-S.png,H-E.png,sS,hH,mask-2.png,mask-2.png,h,0,0.2982981000095606,h,1,1.099547200021334,0.05018920000293292,0.050013600004604086,0.10199620001367293,0.10082930000498891,0.7514019999944139
RSVPLG03,km,20260212-162051,1.0.2,20251113-095759,758,Practice,Both,1,Automatic,main,11,20260212-162208,global,local,750,H,S,A,E,H-A.png,E-S.png,hH,sS,mask-4.png,mask-3.png,h,1,0.6615519999759272,s,1,0.07970589998876676,0.04881340000429191,0.05027720000362024,0.09871910000219941,0.10008659999584779,0.7510602999827825
RSVPLG03,km,20260212-162051,1.0.2,20251113-095759,758,Practice,Both,1,Automatic,main,12,20260212-162213,local,local,300,S,H,E,E,E-S.png,E-H.png,sS,hH,mask-1.png,mask-1.png,h,0,1.2256771000102162,s,0,0.032336899981601164,0.04957430000649765,0.04971490000025369,0.10087829999974929,0.09967779999715276,0.29996040000696667
RSVPLG03,km,20260212-162051,1.0.2,20251113-095759,758,Practice,Both,1,Automatic,main,13,20260212-162218,global,local,750,S,H,E,E,S-E.png,E-H.png,sS,hH,mask-2.png,mask-4.png,s,1,1.136876199976541,s,0,0.2889814999944065,0.048618100001476705,0.05173070001183078,0.09935949998907745,0.10042319999774918,0.7486300999880768
RSVPLG03,km,20260212-162051,1.0.2,20251113-095759,758,Practice,Both,1,Automatic,main,14,20260212-162223,global,local,300,S,S,A,A,S-A.png,A-S.png,sS,sS,mask-4.png,mask-4.png,s,1,0.9605701000255067,s,1,0.09525969999958761,0.049861200008308515,0.049789999990025535,0.10112169999047183,0.09992489998694509,0.3002617000020109
RSVPLG03,km,20260212-162051,1.0.2,20251113-095759,758,Practice,Both,1,Automatic,main,15,20260212-162228,global,global,300,H,H,E,A,H-E.png,H-A.png,hH,hH,mask-2.png,mask-3.png,h,1,0.6253817999968305,h,1,0.28653660000418313,0.04910469998139888,0.04970679999678396,0.09953529998892918,0.10071990001597442,0.2995364999806043
RSVPLG03,km,20260212-162051,1.0.2,20251113-095759,758,Practice,Both,1,Automatic,main,16,20260212-162232,local,local,750,H,H,A,A,A-H.png,A-H.png,hH,hH,mask-4.png,mask-3.png,h,1,0.5080535000015516,h,1,0.25380390000646,0.04867540000122972,0.05093319999286905,0.1004774000030011,0.09988249998423271,0.7492651000211481
RSVPLG03,km,20260212-162333,1.0.2,20251113-095759,758,Experiment,Both,1,Automatic,warmup,1,20260212-162349,local,local,300,S,H,A,E,A-S.png,E-H.png,sS,hH,mask-1.png,mask-4.png,h,0,0.6171692999778315,s,0,0.03234679999877699,0.046208999992813915,0.050873300002422184,0.09721239999635145,0.10100510000484064,0.2961698000144679
RSVPLG03,km,20260212-162333,1.0.2,20251113-095759,758,Experiment,Both,1,Automatic,warmup,2,20260212-162354,global,local,750,S,S,A,E,S-A.png,E-S.png,sS,sS,mask-2.png,mask-1.png,s,1,0.6808977999899071,s,1,0.08030450000660494,0.050591499981237575,0.05110340000828728,0.10099849998368882,0.09952980000525713,0.7528927999956068
RSVPLG03,km,20260212-162333,1.0.2,20251113-095759,758,Experiment,Both,1,Automatic,warmup,3,20260212-162359,global,global,750,S,S,A,E,S-A.png,S-E.png,sS,sS,mask-2.png,mask-1.png,s,1,0.7298688000009861,s,1,0.08120889999554493,0.05099429999245331,0.050405000016326085,0.10116039999411441,0.09954740002285689,0.7522330999781843
RSVPLG03,km,20260212-162333,1.0.2,20251113-095759,758,Experiment,Both,1,Automatic,warmup,4,20260212-162403,local,global,750,S,S,A,A,A-S.png,S-A.png,sS,sS,mask-2.png,mask-2.png,s,1,0.6195707000151742,s,1,0.06163349997950718,0.0491405000211671,0.04780500000924803,0.10038930000155233,0.09818160001304932,0.7531010000093374
RSVPLG03,km,20260212-162333,1.0.2,20251113-095759,758,Experiment,Both,1,Automatic,main,5,20260212-162408,global,global,750,H,H,E,E,H-E.png,H-E.png,hH,hH,mask-2.png,mask-2.png,h,1,0.5105924000090454,h,1,0.07978919998276979,0.04861340002389625,0.04921019999892451,0.10141480001038872,0.10094580001896247,0.752072400006
RSVPLG03,km,20260212-162333,1.0.2,20251113-095759,758,Experiment,Both,1,Automatic,main,6,20260212-162413,global,global,300,H,H,A,A,H-A.png,H-A.png,hH,hH,mask-3.png,mask-1.png,h,1,0.653713500010781,s,0,0.014671299984911457,0.04976530000567436,0.049109899991890416,0.0997380000189878,0.09920759999658912,0.300538300012704
RSVPLG03,km,20260212-162333,1.0.2,20251113-095759,758,Experiment,Both,1,Automatic,main,7,20260212-162417,global,global,750,S,H,E,A,S-E.png,H-A.png,sS,hH,mask-3.png,mask-2.png,s,1,0.536317499994766,h,1,0.032516200008103624,0.04972370000905357,0.049994600005447865,0.10117530002025887,0.10092080000322312,0.7528614000184461
RSVPLG03,km,20260212-162333,1.0.2,20251113-095759,758,Experiment,Both,1,Automatic,main,8,20260212-162422,local,global,300,H,H,E,A,E-H.png,H-A.png,hH,hH,mask-4.png,mask-4.png,h,1,0.6237394000054337,h,1,0.06628870000713505,0.049779799999669194,0.04867620000732131,0.09924370000953786,0.09904460000689141,0.3019835000159219
RSVPLG03,km,20260212-162333,1.0.2,20251113-095759,758,Experiment,Both,1,Automatic,main,9,20260212-162426,global,global,750,S,H,E,E,S-E.png,H-E.png,sS,hH,mask-2.png,mask-1.png,s,1,0.6996358000033069,h,1,0.046559999987948686,0.04823990000295453,0.049722000025212765,0.0986624000070151,0.09782570000970736,0.7517546000017319
RSVPLG03,km,20260212-162333,1.0.2,20251113-095759,758,Experiment,Both,1,Automatic,main,10,20260212-162431,global,global,300,S,H,A,A,S-A.png,H-A.png,sS,hH,mask-3.png,mask-2.png,h,0,0.8344649999926332,h,1,0.06375429997569881,0.05012430000351742,0.04855259999749251,0.10038260000874288,0.09952220000559464,0.30164780002087355
RSVPLG03,km,20260212-162333,1.0.2,20251113-095759,758,Experiment,Both,1,Automatic,main,11,20260212-162436,local,global,300,H,S,E,E,E-H.png,S-E.png,hH,sS,mask-2.png,mask-1.png,h,1,0.654884099989431,h,0,0.06343999999808148,0.04975330000161193,0.04968430000008084,0.09917169998516329,0.09984759998042136,0.30037650000303984
RSVPLG03,km,20260212-162333,1.0.2,20251113-095759,758,Experiment,Both,1,Automatic,main,12,20260212-162440,global,global,300,S,S,A,A,S-A.png,S-A.png,sS,sS,mask-4.png,mask-2.png,h,0,1.0599241000018083,s,1,0.03093430001172237,0.048088400013512,0.050435799988918006,0.09878319999552332,0.10172159998910502,0.29926630001864396
RSVPLG03,km,20260212-162333,1.0.2,20251113-095759,758,Experiment,Both,1,Automatic,main,13,20260212-162445,local,global,750,S,S,A,A,A-S.png,S-A.png,sS,sS,mask-1.png,mask-4.png,s,1,0.17679740002495237,s,1,0.07848219998413697,0.04986530001042411,0.04976870000245981,0.09906370000680909,0.09955579999950714,0.7503888999926858
RSVPLG03,km,20260212-162333,1.0.2,20251113-095759,758,Experiment,Both,1,Automatic,main,14,20260212-162449,local,local,750,H,H,A,A,A-H.png,A-H.png,hH,hH,mask-1.png,mask-4.png,h,1,0.18627470001229085,h,1,0.09592519997386262,0.05018530000234023,0.04881889998796396,0.09987489998457022,0.10131579998414963,0.7526216999976896
RSVPLG03,km,20260212-162333,1.0.2,20251113-095759,758,Experiment,Both,1,Automatic,main,15,20260212-162454,global,local,750,H,S,E,A,H-E.png,A-S.png,hH,sS,mask-2.png,mask-1.png,h,1,0.9694059000175912,h,0,0.06369549999362789,0.051031800016062334,0.04902640002546832,0.0999735000077635,0.10094080000999384,0.751569499989273
RSVPLG03,km,20260212-162333,1.0.2,20251113-095759,758,Experiment,Both,1,Automatic,main,16,20260212-162459,global,local,750,H,H,E,E,H-E.png,E-H.png,hH,hH,mask-1.png,mask-2.png,h,1,0.16230959998210892,h,1,0.06498310001916252,0.049933700007386506,0.04935939999995753,0.10025210000458173,0.1002446000056807,0.7524468000046909
RSVPLG03,km,20260212-162333,1.0.2,20251113-095759,758,Experiment,Both,1,Automatic,main,17,20260212-162503,global,local,750,H,S,E,E,H-E.png,E-S.png,hH,sS,mask-4.png,mask-3.png,h,1,0.28210340000805445,s,1,0.01570640000863932,0.05200999998487532,0.05063710000831634,0.10085610000533052,0.1011587000102736,0.75251289998414
RSVPLG03,km,20260212-162333,1.0.2,20251113-095759,758,Experiment,Both,1,Automatic,main,18,20260212-162507,local,global,750,H,H,A,A,A-H.png,H-A.png,hH,hH,mask-3.png,mask-4.png,h,1,0.31929340001079254,h,1,0.07877030002418905,0.04805330000817776,0.04809840000234544,0.09985779999988154,0.0987703999853693,0.7513047000102233
RSVPLG03,km,20260212-162333,1.0.2,20251113-095759,758,Experiment,Both,1,Automatic,main,19,20260212-162512,global,local,300,S,S,A,A,S-A.png,A-S.png,sS,sS,mask-2.png,mask-3.png,s,1,0.36958990001585335,h,0,1.887602800008608,0.04945130000123754,0.05094829999143258,0.09823199998936616,0.10017699998570606,0.29885530000319704
RSVPLG03,km,20260212-162333,1.0.2,20251113-095759,758,Experiment,Both,1,Automatic,main,20,20260212-162518,global,global,300,H,H,E,A,H-E.png,H-A.png,hH,hH,mask-3.png,mask-4.png,h,1,0.30647479998879135,h,1,0.24213890000828542,0.05014020000817254,0.05033589998492971,0.09907029999885708,0.10081499998341314,0.2997519000200555
RSVPLG03,km,20260212-162333,1.0.2,20251113-095759,758,Experiment,Both,1,Automatic,main,21,20260212-162522,global,local,750,H,S,A,A,H-A.png,A-S.png,hH,sS,mask-3.png,mask-4.png,s,0,0.8644794999854639,s,1,0.08086300001014024,0.05113740000524558,0.05128459999104962,0.10183729999698699,0.10190989999682643,0.7508325999951921
RSVPLG03,km,20260212-162333,1.0.2,20251113-095759,758,Experiment,Both,1,Automatic,main,22,20260212-162527,local,global,300,S,S,E,E,E-S.png,S-E.png,sS,sS,mask-3.png,mask-1.png,s,1,0.3547094000095967,h,0,0.07823189999908209,0.049527800001669675,0.0510638999985531,0.09969259999343194,0.10194619998219423,0.2996966000064276
RSVPLG03,km,20260212-162333,1.0.2,20251113-095759,758,Experiment,Both,1,Automatic,main,23,20260212-162531,local,local,300,S,H,E,E,E-S.png,E-H.png,sS,hH,mask-2.png,mask-3.png,s,1,0.88526899999124,h,1,0.04739500000141561,0.05056600001989864,0.04841089999536052,0.10027890000492334,0.09961410000687465,0.30138700001407415
RSVPLG03,km,20260212-162333,1.0.2,20251113-095759,758,Experiment,Both,1,Automatic,main,24,20260212-162536,global,global,750,S,S,A,E,S-A.png,S-E.png,sS,sS,mask-1.png,mask-2.png,s,1,0.3957774000009522,s,1,0.0828077000041958,0.048897999979089946,0.04929619998438284,0.09924099998897873,0.10032789999968372,0.7522315999958664
RSVPLG03,km,20260212-162333,1.0.2,20251113-095759,758,Experiment,Both,1,Automatic,main,25,20260212-162540,global,global,750,S,H,E,A,S-E.png,H-A.png,sS,hH,mask-3.png,mask-4.png,s,1,0.40709350001998246,h,1,0.051305700006196275,0.05087949999142438,0.05177909997291863,0.1005476999853272,0.10161879999213852,0.7499085000017658
RSVPLG03,km,20260212-162333,1.0.2,20251113-095759,758,Experiment,Both,1,Automatic,main,26,20260212-162554,global,local,750,H,S,E,A,H-E.png,A-S.png,hH,sS,mask-2.png,mask-1.png,h,1,0.7282613999850582,h,0,0.0798190999776125,0.04923929998767562,0.04970359997241758,0.1001445000001695,0.10007729998324066,0.7518926000047941
RSVPLG03,km,20260212-162333,1.0.2,20251113-095759,758,Experiment,Both,1,Automatic,main,27,20260212-162559,local,global,750,S,S,E,E,E-S.png,S-E.png,sS,sS,mask-3.png,mask-3.png,h,0,0.7856894999858923,s,1,0.08298639999702573,0.050351699988823384,0.04965620001894422,0.09944089999771677,0.1014539000170771,0.7510716999822762
RSVPLG03,km,20260212-162333,1.0.2,20251113-095759,758,Experiment,Both,1,Automatic,main,28,20260212-162604,local,global,300,S,H,A,E,A-S.png,H-E.png,sS,hH,mask-2.png,mask-4.png,h,0,1.4632038999989163,s,0,0.046908399992389604,0.05043570001726039,0.04981880000559613,0.10041250000358559,0.10245740000391379,0.29939510000986047
RSVPLG03,km,20260212-162333,1.0.2,20251113-095759,758,Experiment,Both,1,Automatic,main,29,20260212-162609,local,global,750,S,H,A,A,A-S.png,H-A.png,sS,hH,mask-4.png,mask-3.png,s,1,0.3926752000115812,h,1,0.06470010001794435,0.050618400011444464,0.04999050000333227,0.10030840002582408,0.09997000001021661,0.7522684000141453
RSVPLG03,km,20260212-162333,1.0.2,20251113-095759,758,Experiment,Both,1,Automatic,main,30,20260212-162614,global,local,750,H,S,A,A,H-A.png,A-S.png,hH,sS,mask-3.png,mask-4.png,h,1,0.7865108999831136,h,0,0.07708879999700002,0.04940519999945536,0.0495117999962531,0.09858000001986511,0.0994250999938231,0.7515331000031438
RSVPLG03,km,20260212-162333,1.0.2,20251113-095759,758,Experiment,Both,1,Automatic,main,31,20260212-162619,global,global,300,H,S,E,A,H-E.png,S-A.png,hH,sS,mask-1.png,mask-3.png,h,1,0.6348831999930553,s,1,0.03242209999007173,0.050256600021384656,0.050083600013749674,0.10089679999509826,0.09891359999892302,0.30177950000506826
RSVPLG03,km,20260212-162333,1.0.2,20251113-095759,758,Experiment,Both,1,Automatic,main,32,20260212-162623,local,global,300,S,H,E,E,E-S.png,H-E.png,sS,hH,mask-3.png,mask-1.png,h,0,1.3116603000089526,s,0,0.017080399993574247,0.05203200000687502,0.050857000023825094,0.09992540001985617,0.10067090002121404,0.3009143999952357
RSVPLG03,km,20260212-162333,1.0.2,20251113-095759,758,Experiment,Both,1,Automatic,main,33,20260212-162628,local,local,750,S,H,E,E,E-S.png,E-H.png,sS,hH,mask-4.png,mask-3.png,s,1,0.40577359998133034,h,1,0.5658373999758624,0.04969019998679869,0.049929300002986565,0.10026949999155477,0.10059149999869987,0.7531413999968208
RSVPLG03,km,20260212-162333,1.0.2,20251113-095759,758,Experiment,Both,1,Automatic,main,34,20260212-162633,local,local,750,H,H,A,A,A-H.png,A-H.png,hH,hH,mask-4.png,mask-2.png,h,1,0.6368150000052992,h,1,0.07911680001416244,0.051391799992416054,0.049470099998870865,0.1012965000118129,0.0989343999826815,0.75332350001554
RSVPLG03,km,20260212-162333,1.0.2,20251113-095759,758,Experiment,Both,1,Automatic,main,35,20260212-162637,global,local,750,H,S,E,E,H-E.png,E-S.png,hH,sS,mask-1.png,mask-2.png,h,1,0.5820526000170503,s,1,0.14342349997605197,0.049988699989626184,0.0484606999962125,0.09966750000603497,0.09956649999367073,0.7534722000127658
RSVPLG03,km,20260212-162333,1.0.2,20251113-095759,758,Experiment,Both,1,Automatic,main,36,20260212-162642,global,local,300,S,H,E,E,S-E.png,E-H.png,sS,hH,mask-3.png,mask-2.png,s,1,0.3835219999891706,s,0,0.07949390000430867,0.04886049998458475,0.048304099997039884,0.09989079998922534,0.0991646999900695,0.3002512000093702
RSVPLG03,km,20260212-162333,1.0.2,20251113-095759,758,Experiment,Both,1,Automatic,main,37,20260212-162646,local,local,300,S,H,E,E,E-S.png,E-H.png,sS,hH,mask-3.png,mask-1.png,h,0,0.8527385999914259,s,0,0.048623899987433106,0.05169220000971109,0.04983469998114742,0.10163389999070205,0.09987269999692217,0.30185260000871494
RSVPLG03,km,20260212-162333,1.0.2,20251113-095759,758,Experiment,Both,1,Automatic,main,38,20260212-162651,local,global,300,S,H,A,A,A-S.png,H-A.png,sS,hH,mask-3.png,mask-2.png,h,0,1.1565009000187274,s,0,0.0459843999997247,0.047832599986577407,0.05015490000369027,0.09898569999495521,0.10085859999526292,0.2988519000064116
RSVPLG03,km,20260212-162333,1.0.2,20251113-095759,758,Experiment,Both,1,Automatic,main,39,20260212-162656,global,global,750,S,H,A,E,S-A.png,H-E.png,sS,hH,mask-2.png,mask-4.png,h,0,0.7937513000215404,h,1,0.08005649998085573,0.049447800003690645,0.04860399998142384,0.10044730000663549,0.09990989998914301,0.75247040000977
RSVPLG03,km,20260212-162333,1.0.2,20251113-095759,758,Experiment,Both,1,Automatic,main,40,20260212-162701,local,local,750,H,S,A,E,A-H.png,E-S.png,hH,sS,mask-1.png,mask-2.png,h,1,0.5817552999942563,s,1,0.06583460001274943,0.04892449997714721,0.05005779999191873,0.09972979998565279,0.10173070000018924,0.7506512999825645
RSVPLG03,km,20260212-162333,1.0.2,20251113-095759,758,Experiment,Both,1,Automatic,main,41,20260212-162705,local,local,750,S,H,E,E,E-S.png,E-H.png,sS,hH,mask-3.png,mask-4.png,h,0,0.2416615000111051,h,1,0.061242700001457706,0.049977999995462596,0.050733800017042086,0.10098459999426268,0.10001310001825914,0.7527383999840822
RSVPLG03,km,20260212-162333,1.0.2,20251113-095759,758,Experiment,Both,1,Automatic,main,42,20260212-162710,global,global,300,S,S,E,E,S-E.png,S-E.png,sS,sS,mask-2.png,mask-1.png,s,1,0.3471727999858558,s,1,0.17488029997912236,0.04901139999856241,0.04872809999505989,0.09907520000706427,0.09885069998563267,0.3003457000013441
RSVPLG03,km,20260212-162333,1.0.2,20251113-095759,758,Experiment,Both,1,Automatic,main,43,20260212-162714,local,global,750,S,S,E,A,E-S.png,S-A.png,sS,sS,mask-4.png,mask-2.png,s,1,0.12960889999521896,s,1,0.04566309999790974,0.05139440001221374,0.05104709998704493,0.09998480000649579,0.10095389999332838,0.7514584000164177
RSVPLG03,km,20260212-162333,1.0.2,20251113-095759,758,Experiment,Both,1,Automatic,main,44,20260212-162718,local,local,300,H,H,A,A,A-H.png,A-H.png,hH,hH,mask-3.png,mask-2.png,h,1,0.28365909997955896,h,1,0.08259139998699538,0.04898010002216324,0.048931000026641414,0.09873759999754839,0.0999121000058949,0.3003869999956805
RSVPLG03,km,20260212-162333,1.0.2,20251113-095759,758,Experiment,Both,1,Automatic,main,45,20260212-162722,global,local,750,H,S,A,A,H-A.png,A-S.png,hH,sS,mask-2.png,mask-4.png,h,1,0.6030318000121042,h,0,0.0662906999932602,0.051694099995074794,0.049699800001690164,0.09949769999366254,0.09969030000502244,0.7520727999799419
RSVPLG03,km,20260212-162333,1.0.2,20251113-095759,758,Experiment,Both,1,Automatic,main,46,20260212-162727,global,global,300,S,S,E,A,S-E.png,S-A.png,sS,sS,mask-4.png,mask-4.png,s,1,0.43297910000546835,s,1,0.059653200005413964,0.04867489999742247,0.04858959998819046,0.10096680000424385,0.09836070000892505,0.30208829999901354
RSVPLG03,km,20260212-162333,1.0.2,20251113-095759,758,Experiment,Both,1,Automatic,main,47,20260212-162731,global,local,750,S,S,A,E,S-A.png,E-S.png,sS,sS,mask-2.png,mask-2.png,s,1,0.324815599975409,s,1,0.08141119999345392,0.04967559999204241,0.05009040000732057,0.10043550000409596,0.10073520001606084,0.7518028999911621
RSVPLG03,km,20260212-162333,1.0.2,20251113-095759,758,Experiment,Both,1,Automatic,main,48,20260212-162736,global,local,300,S,H,E,E,S-E.png,E-H.png,sS,hH,mask-2.png,mask-4.png,s,1,0.2921282000024803,s,0,0.08027460001176223,0.04876010000589304,0.050850700004957616,0.09935790000599809,0.10023929999442771,0.29898630001116544
RSVPLG03,km,20260212-162333,1.0.2,20251113-095759,758,Experiment,Both,1,Automatic,main,49,20260212-162740,local,local,300,S,S,E,A,E-S.png,A-S.png,sS,sS,mask-4.png,mask-1.png,s,1,0.8799411999934819,h,0,0.9761542000051122,0.05170850001741201,0.04969790001632646,0.1006416000018362,0.10047550001763739,0.3020953999948688
RSVPLG03,km,20260212-162333,1.0.2,20251113-095759,758,Experiment,Both,1,Automatic,main,50,20260212-162744,global,local,300,H,S,E,A,H-E.png,A-S.png,hH,sS,mask-3.png,mask-1.png,h,1,0.6393009999883361,s,1,0.015122299984795973,0.05043860001023859,0.0487239999929443,0.10037560001364909,0.09968640000442974,0.3012557000038214
RSVPLG03,km,20260212-162333,1.0.2,20251113-095759,758,Experiment,Both,1,Automatic,main,51,20260212-162811,local,global,750,S,H,A,E,A-S.png,H-E.png,sS,hH,mask-4.png,mask-1.png,h,0,23.151067600003444,h,1,0.39859500000602566,0.04973319999407977,0.049959000025410205,0.10123229998862371,0.09933040000032634,0.7525004999770317
RSVPLG03,km,20260212-162333,1.0.2,20251113-095759,758,Experiment,Both,1,Automatic,main,52,20260212-162815,local,global,750,S,S,A,A,A-S.png,S-A.png,sS,sS,mask-3.png,mask-1.png,h,0,0.06319849999272265,h,0,0.17947529998491518,0.05108109998400323,0.04836660000728443,0.10227069997927174,0.09892450002371334,0.7539954999811016
RSVPLG03,km,20260212-162333,1.0.2,20251113-095759,758,Experiment,Both,1,Automatic,main,53,20260212-162819,local,global,300,H,H,E,A,E-H.png,H-A.png,hH,hH,mask-3.png,mask-2.png,h,1,0.06274290001601912,h,1,0.5113331000029575,0.049969300016527995,0.05081139999674633,0.10042170001543127,0.09994139999616891,0.30066080001415685
RSVPLG03,km,20260212-162333,1.0.2,20251113-095759,758,Experiment,Both,1,Automatic,main,54,20260212-162824,global,local,300,H,H,A,E,H-A.png,E-H.png,hH,hH,mask-2.png,mask-4.png,s,0,0.2776976999884937,h,1,0.06406119998428039,0.04920820001279935,0.05030380000243895,0.09899470000527799,0.10150369998882525,0.29886790001182817
RSVPLG03,km,20260212-162333,1.0.2,20251113-095759,758,Experiment,Both,1,Automatic,main,55,20260212-162827,local,global,750,H,H,A,E,A-H.png,H-E.png,hH,hH,mask-4.png,mask-1.png,h,1,0.3898834999999963,s,0,0.3171532000123989,0.049514399986946955,0.04966779999085702,0.09848679997958243,0.09994290000759065,0.7516036999877542
RSVPLG03,km,20260212-162333,1.0.2,20251113-095759,758,Experiment,Both,1,Automatic,main,56,20260212-162832,local,local,300,S,H,E,A,E-S.png,A-H.png,sS,hH,mask-4.png,mask-1.png,s,1,0.739847099990584,h,1,0.18883300002198666,0.04988720000255853,0.04840400000102818,0.10014460000093095,0.1010311999998521,0.3008886000025086
RSVPLG03,km,20260212-162333,1.0.2,20251113-095759,758,Experiment,Both,1,Automatic,main,57,20260212-162836,global,global,750,H,S,A,A,H-A.png,S-A.png,hH,sS,mask-2.png,mask-1.png,h,1,0.8838179999729618,h,0,0.6611040999996476,0.0506407999782823,0.05177349998848513,0.10090789999230765,0.09957299998495728,0.7521052999945823
RSVPLG03,km,20260212-162333,1.0.2,20251113-095759,758,Experiment,Both,1,Automatic,main,58,20260212-162841,local,local,750,S,S,A,E,A-S.png,E-S.png,sS,sS,mask-1.png,mask-4.png,h,0,0.07846270001027733,s,1,0.015064500010339543,0.049336900003254414,0.05014149998896755,0.09823750000214204,0.09874730001320131,0.7517546000017319
RSVPLG03,km,20260212-162333,1.0.2,20251113-095759,758,Experiment,Both,1,Automatic,main,59,20260212-162846,local,global,750,H,H,E,E,E-H.png,H-E.png,hH,hH,mask-4.png,mask-4.png,h,1,0.8201203000207897,h,1,0.27681250000023283,0.049364799982868135,0.04766219999874011,0.09918239997932687,0.0988634999957867,0.7531306000018958
RSVPLG03,km,20260212-162333,1.0.2,20251113-095759,758,Experiment,Both,1,Automatic,main,60,20260212-162850,local,global,300,H,S,E,E,E-H.png,S-E.png,hH,sS,mask-2.png,mask-2.png,h,1,0.08151030002045445,h,0,0.99628799999482,0.049735200009308755,0.04843319999054074,0.10057929999311455,0.10098160000052303,0.3011324999970384
RSVPLG03,km,20260212-162333,1.0.2,20251113-095759,758,Experiment,Both,1,Automatic,main,61,20260212-162855,local,global,750,S,S,E,E,E-S.png,S-E.png,sS,sS,mask-2.png,mask-4.png,s,1,0.3391610999824479,s,1,0.06380889998399653,0.049204699986148626,0.05014750000555068,0.10067429998889565,0.09967339999275282,0.7517072999908123
RSVPLG03,km,20260212-162333,1.0.2,20251113-095759,758,Experiment,Both,1,Automatic,main,62,20260212-162900,global,local,750,H,S,E,A,H-E.png,A-S.png,hH,sS,mask-3.png,mask-1.png,h,1,0.08188660000450909,h,0,0.9506516999972519,0.049831699987407774,0.050093700003344566,0.1003175999794621,0.10027340002125129,0.7518007999751717
RSVPLG03,km,20260212-162333,1.0.2,20251113-095759,758,Experiment,Both,1,Automatic,main,63,20260212-162905,local,local,750,S,S,E,E,E-S.png,E-S.png,sS,sS,mask-2.png,mask-3.png,s,1,0.46035330000449903,s,1,0.07836169999791309,0.05048149998765439,0.050444699998479337,0.09967749999486841,0.09927430000971071,0.75121049999143
RSVPLG03,km,20260212-162333,1.0.2,20251113-095759,758,Experiment,Both,1,Automatic,main,64,20260212-162909,global,global,750,S,H,E,E,S-E.png,H-E.png,sS,hH,mask-2.png,mask-2.png,s,1,0.3016834000009112,h,1,0.09628379999776371,0.05090810000547208,0.05075719999149442,0.10018310000305064,0.10078899998916313,0.7522346000187099
RSVPLG03,km,20260212-162333,1.0.2,20251113-095759,758,Experiment,Both,1,Automatic,main,65,20260212-162914,global,global,750,S,H,E,E,S-E.png,H-E.png,sS,hH,mask-4.png,mask-4.png,s,1,0.2812485000176821,h,1,0.07864900000276975,0.049085000006016344,0.04669609997654334,0.10022770002251491,0.09892119999858551,0.7542912000208162
RSVPLG03,km,20260212-162333,1.0.2,20251113-095759,758,Experiment,Both,1,Automatic,main,66,20260212-162918,local,local,300,H,H,E,A,E-H.png,A-H.png,hH,hH,mask-3.png,mask-4.png,h,1,0.0774950000050012,h,1,0.4045893000147771,0.05175710000912659,0.04939209998701699,0.10138999999617226,0.10000469998340122,0.30058480001753196
RSVPLG03,km,20260212-162333,1.0.2,20251113-095759,758,Experiment,Both,1,Automatic,main,67,20260212-162922,global,global,300,H,H,A,E,H-A.png,H-E.png,hH,hH,mask-2.png,mask-2.png,h,1,0.07820569997420534,h,1,0.36665159999392927,0.051003500004298985,0.05031079999753274,0.10169320000568405,0.09922000000369735,0.30096590000903234
RSVPLG03,km,20260212-162333,1.0.2,20251113-095759,758,Experiment,Both,1,Automatic,main,68,20260212-162927,local,local,750,H,S,E,A,E-H.png,A-S.png,hH,sS,mask-3.png,mask-1.png,h,1,0.07610900001600385,s,1,0.01481750002130866,0.05004690002533607,0.05030480001005344,0.10119539999868721,0.1014570000115782,0.7515333000046667
RSVPLG03,km,20260212-162333,1.0.2,20251113-095759,758,Experiment,Both,1,Automatic,main,69,20260212-162933,global,local,750,H,H,A,E,H-A.png,E-H.png,hH,hH,mask-2.png,mask-3.png,h,1,2.0254927999922074,h,1,0.4738857999909669,0.0498444999975618,0.04955779999727383,0.09866419999161735,0.09852630001842044,0.7525092999858316
RSVPLG03,km,20260212-162333,1.0.2,20251113-095759,758,Experiment,Both,1,Automatic,main,70,20260212-162937,local,global,300,H,H,A,E,A-H.png,H-E.png,hH,hH,mask-1.png,mask-2.png,h,1,0.08054599998285994,h,1,0.45444010000210255,0.0497019000176806,0.0522738000145182,0.10152419999940321,0.10202280001249164,0.30013859999598935
RSVPLG03,km,20260212-162333,1.0.2,20251113-095759,758,Experiment,Both,1,Automatic,main,71,20260212-162941,global,local,300,S,S,A,A,S-A.png,A-S.png,sS,sS,mask-4.png,mask-1.png,s,1,1.2590893000015058,s,1,0.07955840000067838,0.05121780000627041,0.049966299993684515,0.09995299999718554,0.10088969999924302,0.30037199999787845
RSVPLG03,km,20260212-162333,1.0.2,20251113-095759,758,Experiment,Both,1,Automatic,main,72,20260212-162946,local,global,750,H,H,A,E,A-H.png,H-E.png,hH,hH,mask-2.png,mask-4.png,h,1,0.07992639997974038,h,1,0.7645956999913324,0.05100279999896884,0.04866150001180358,0.10103150000213645,0.10114290000637993,0.7524429000040982
RSVPLG03,km,20260212-162333,1.0.2,20251113-095759,758,Experiment,Both,1,Automatic,main,73,20260212-162951,global,global,750,S,S,A,A,S-A.png,S-A.png,sS,sS,mask-4.png,mask-2.png,s,1,0.4180372999981046,s,1,0.06334589998004958,0.05036749999271706,0.04791510000359267,0.10171280000940897,0.0989904000016395,0.7541676000109874
RSVPLG03,km,20260212-162333,1.0.2,20251113-095759,758,Experiment,Both,1,Automatic,main,74,20260212-162956,global,local,300,S,S,E,A,S-E.png,A-S.png,sS,sS,mask-4.png,mask-2.png,s,1,0.6645846999890637,h,0,0.06661699997493997,0.0495459999947343,0.049938199983444065,0.09956409997539595,0.09896040000603534,0.30041769999661483
RSVPLG03,km,20260212-162333,1.0.2,20251113-095759,758,Experiment,Both,1,Automatic,main,75,20260212-163000,global,global,300,S,S,E,A,S-E.png,S-A.png,sS,sS,mask-2.png,mask-1.png,s,1,0.2669049999967683,s,1,0.07932599997729994,0.051444900018395856,0.05030919998534955,0.10031140001956373,0.09996719998889603,0.3009792000229936
RSVPLG03,km,20260212-162333,1.0.2,20251113-095759,758,Experiment,Both,1,Automatic,main,76,20260212-163007,global,local,300,H,H,E,E,H-E.png,E-H.png,hH,hH,mask-3.png,mask-2.png,h,1,0.23749239998869598,h,1,0.06409919998259284,0.04894189999322407,0.0491150000016205,0.10004240000853315,0.09941920000710525,0.3017998000141233
RSVPLG03,km,20260212-162333,1.0.2,20251113-095759,758,Experiment,Both,1,Automatic,main,77,20260212-163011,global,local,300,S,H,E,A,S-E.png,A-H.png,sS,hH,mask-4.png,mask-4.png,s,1,0.31740490000811405,h,1,0.4295939999865368,0.04974600000423379,0.051479100016877055,0.09984959999565035,0.1018954000028316,0.2997756999975536
RSVPLG03,km,20260212-162333,1.0.2,20251113-095759,758,Experiment,Both,1,Automatic,main,78,20260212-163015,local,local,300,S,H,A,E,A-S.png,E-H.png,sS,hH,mask-4.png,mask-3.png,h,0,0.7201495000044815,h,1,0.061257599998498335,0.050676300015766174,0.05165159999160096,0.10072050002054311,0.1009728999924846,0.30068160002701916
RSVPLG03,km,20260212-162333,1.0.2,20251113-095759,758,Experiment,Both,1,Automatic,main,79,20260212-163020,global,global,750,H,S,A,E,H-A.png,S-E.png,hH,sS,mask-1.png,mask-4.png,h,1,0.6725566999812145,h,0,0.14724699998623691,0.051167800003895536,0.05035210002097301,0.09967490000417456,0.10100790002616122,0.7516425999929197
RSVPLG03,km,20260212-162333,1.0.2,20251113-095759,758,Experiment,Both,1,Automatic,main,80,20260212-163025,global,local,750,S,H,A,E,S-A.png,E-H.png,sS,hH,mask-1.png,mask-3.png,h,0,0.3862125000159722,h,1,0.07814860000507906,0.049681700009386986,0.049837499973364174,0.09904390000156127,0.10020570000051521,0.7512563000200316
RSVPLG03,km,20260212-162333,1.0.2,20251113-095759,758,Experiment,Both,1,Automatic,main,81,20260212-163029,local,global,300,H,H,E,E,E-H.png,H-E.png,hH,hH,mask-1.png,mask-1.png,h,1,0.2569434999895748,h,1,0.09706500000902452,0.050163500010967255,0.04854440002236515,0.10014570000930689,0.0989531000086572,0.300812000001315
RSVPLG03,km,20260212-162333,1.0.2,20251113-095759,758,Experiment,Both,1,Automatic,main,82,20260212-163033,local,global,750,H,S,A,E,A-H.png,S-E.png,hH,sS,mask-2.png,mask-2.png,h,1,0.5176033999887295,s,1,0.06440709999878891,0.04945200000656769,0.05154759998549707,0.09901810000883415,0.10135669997544028,0.7502121000143234
RSVPLG03,km,20260212-162333,1.0.2,20251113-095759,758,Experiment,Both,1,Automatic,main,83,20260212-163038,local,local,300,S,S,A,A,A-S.png,A-S.png,sS,sS,mask-2.png,mask-3.png,h,0,0.2951591000019107,h,0,0.14451919999555685,0.050705500005278736,0.05052419999265112,0.09950470001786016,0.10102440000628121,0.29978500001016073
RSVPLG03,km,20260212-162333,1.0.2,20251113-095759,758,Experiment,Both,1,Automatic,main,84,20260212-163042,global,global,300,H,H,A,A,H-A.png,H-A.png,hH,hH,mask-3.png,mask-4.png,h,1,0.34899210001458414,h,1,0.06328309999662451,0.05044030002318323,0.05063819998758845,0.10070450001512654,0.10110299999359995,0.3015330000198446
RSVPLG03,km,20260212-162333,1.0.2,20251113-095759,758,Experiment,Both,1,Automatic,main,85,20260212-163046,local,local,750,H,S,A,E,A-H.png,E-S.png,hH,sS,mask-2.png,mask-3.png,h,1,0.15406649999204092,s,1,0.03152720001526177,0.049400399992009625,0.050580999988596886,0.09906390000833198,0.09979219999513589,0.7511878999939654
RSVPLG03,km,20260212-162333,1.0.2,20251113-095759,758,Experiment,Both,1,Automatic,main,86,20260212-163050,global,global,300,S,H,E,A,S-E.png,H-A.png,sS,hH,mask-4.png,mask-3.png,h,0,0.4718993999995291,s,0,0.0325005000049714,0.04977620000136085,0.04876059998059645,0.09954799999832176,0.10019499997724779,0.30113480001455173
RSVPLG03,km,20260212-162333,1.0.2,20251113-095759,758,Experiment,Both,1,Automatic,main,87,20260212-163054,global,local,300,H,S,A,A,H-A.png,A-S.png,hH,sS,mask-4.png,mask-4.png,h,1,0.195534200000111,h,0,0.08018310001352802,0.04944890001206659,0.048671299999114126,0.0996179000067059,0.09982299999683164,0.3017454000073485
RSVPLG03,km,20260212-162333,1.0.2,20251113-095759,758,Experiment,Both,1,Automatic,main,88,20260212-163058,local,local,300,H,S,E,A,E-H.png,A-S.png,hH,sS,mask-2.png,mask-3.png,h,1,0.35613679999369197,h,0,0.07892670002183877,0.050932600017404184,0.049874699994688854,0.09885920002125204,0.09868679998908192,0.30099430002155714
RSVPLG03,km,20260212-162333,1.0.2,20251113-095759,758,Experiment,Both,1,Automatic,main,89,20260212-163102,local,global,300,H,H,E,E,E-H.png,H-E.png,hH,hH,mask-2.png,mask-3.png,h,1,0.42986949998885393,h,1,0.049190200021257624,0.0497482999926433,0.0505391999904532,0.10119509999640286,0.0999825999897439,0.30052340001566336
RSVPLG03,km,20260212-162333,1.0.2,20251113-095759,758,Experiment,Both,1,Automatic,main,90,20260212-163106,local,local,300,S,H,A,E,A-S.png,E-H.png,sS,hH,mask-3.png,mask-1.png,h,0,0.33908010000595823,h,1,0.6244798999978229,0.049684700003126636,0.04874440000276081,0.0984660999965854,0.09930359999998473,0.3004232000093907
RSVPLG03,km,20260212-162333,1.0.2,20251113-095759,758,Experiment,Both,1,Automatic,main,91,20260212-163111,global,local,300,H,S,E,E,H-E.png,E-S.png,hH,sS,mask-2.png,mask-4.png,h,1,0.24527009998564608,s,1,0.3572553000121843,0.0507371999847237,0.0521125000086613,0.10054640000453219,0.10259950000909157,0.300080999993952
RSVPLG03,km,20260212-162333,1.0.2,20251113-095759,758,Experiment,Both,1,Automatic,main,92,20260212-163115,local,local,750,H,H,E,E,E-H.png,E-H.png,hH,hH,mask-3.png,mask-2.png,h,1,0.16189440002199262,h,1,0.08142900001257658,0.04985790001228452,0.0516813000140246,0.10039710000273772,0.10057229999802075,0.7511742000060622
RSVPLG03,km,20260212-162333,1.0.2,20251113-095759,758,Experiment,Both,1,Automatic,main,93,20260212-163119,local,local,300,S,S,A,A,A-S.png,A-S.png,sS,sS,mask-3.png,mask-2.png,h,0,0.297314199997345,h,0,0.08114799999748357,0.05153799999970943,0.04969179999898188,0.1001199999882374,0.09900439999182709,0.3018463999906089
RSVPLG03,km,20260212-162333,1.0.2,20251113-095759,758,Experiment,Both,1,Automatic,main,94,20260212-163123,global,global,300,H,H,A,E,H-A.png,H-E.png,hH,hH,mask-2.png,mask-4.png,h,1,0.3484525000094436,h,1,0.06322139999247156,0.051923499995609745,0.048954300000332296,0.09950969999772497,0.09933670001919381,0.30148989998269826
RSVPLG03,km,20260212-162333,1.0.2,20251113-095759,758,Experiment,Both,1,Automatic,main,95,20260212-163127,local,local,750,H,H,E,E,E-H.png,E-H.png,hH,hH,mask-4.png,mask-4.png,h,1,0.5688231000094675,s,0,0.060481200023787096,0.05120019998867065,0.04774460001499392,0.10111829999368638,0.09967769999639131,0.7532549999887124
RSVPLG03,km,20260212-162333,1.0.2,20251113-095759,758,Experiment,Both,1,Automatic,main,96,20260212-163132,local,local,750,S,S,A,E,A-S.png,E-S.png,sS,sS,mask-3.png,mask-1.png,h,0,0.4800931999925524,s,1,0.22152720001759008,0.04925790001288988,0.050347100012004375,0.09999009998864494,0.10219850001158193,0.7501625999866519
RSVPLG03,km,20260212-162333,1.0.2,20251113-095759,758,Experiment,Both,1,Automatic,main,97,20260212-163137,local,global,300,S,S,A,E,A-S.png,S-E.png,sS,sS,mask-2.png,mask-2.png,h,0,0.396964499988826,h,0,0.08096300001488999,0.05100449998280965,0.05029849999118596,0.10127469999133609,0.10109219999867491,0.3013685999903828
RSVPLG03,km,20260212-162333,1.0.2,20251113-095759,758,Experiment,Both,1,Automatic,main,98,20260212-163141,local,local,300,H,S,A,E,A-H.png,E-S.png,hH,sS,mask-3.png,mask-1.png,h,1,0.4157143000047654,h,0,0.06458929998916574,0.049665400001686066,0.05179969998425804,0.1000177999958396,0.10031579999485984,0.2996692000015173
RSVPLG03,km,20260212-162333,1.0.2,20251113-095759,758,Experiment,Both,1,Automatic,main,99,20260212-163145,global,local,300,S,S,A,E,S-A.png,E-S.png,sS,sS,mask-3.png,mask-2.png,h,0,0.31964619999052957,h,0,0.06529199998476543,0.05018330001621507,0.049903999984962866,0.10147510000388138,0.10089909998350777,0.30106290002004243
RSVPLG03,km,20260212-162333,1.0.2,20251113-095759,758,Experiment,Both,1,Automatic,main,100,20260212-163149,global,global,750,S,H,A,A,S-A.png,H-A.png,sS,hH,mask-1.png,mask-2.png,h,0,1.2774814000003971,s,0,1.3898164000129327,0.0518891999963671,0.04883499999414198,0.09963390001212247,0.09979800001019612,0.7527448000037111
RSVPLG03,km,20260212-163227,1.0.2,20251113-095759,758,Experiment,Both,1,Automatic,warmup,1,20260212-163242,global,local,300,H,H,E,A,H-E.png,A-H.png,hH,hH,mask-1.png,mask-2.png,h,1,0.3390528000018094,h,1,0.06434179999632761,0.04313860001275316,0.05044550000457093,0.0940454000083264,0.10035400002379902,0.29346869999426417
RSVPLG03,km,20260212-163227,1.0.2,20251113-095759,758,Experiment,Both,1,Automatic,warmup,2,20260212-163246,local,global,300,H,S,E,E,E-H.png,S-E.png,hH,sS,mask-3.png,mask-1.png,h,1,0.19702459999825805,s,1,0.12621700001182035,0.04986679999274202,0.047800300002563745,0.10012909999932162,0.09816230001160875,0.30157579999649897
RSVPLG03,km,20260212-163227,1.0.2,20251113-095759,758,Experiment,Both,1,Automatic,warmup,3,20260212-163250,local,local,300,H,S,E,E,E-H.png,E-S.png,hH,sS,mask-2.png,mask-1.png,h,1,0.31179680000059307,s,1,0.01289300000644289,0.04837899998528883,0.04863520001526922,0.0993599999928847,0.09846740000648424,0.3005587999941781
RSVPLG03,km,20260212-163227,1.0.2,20251113-095759,758,Experiment,Both,1,Automatic,warmup,4,20260212-163254,global,global,300,S,H,A,A,S-A.png,H-A.png,sS,hH,mask-4.png,mask-1.png,s,1,0.6447065999964252,h,1,0.09756530000595376,0.04978639999171719,0.04938929999480024,0.09884749999037012,0.10083910002140328,0.29954139998881146
RSVPLG03,km,20260212-163227,1.0.2,20251113-095759,758,Experiment,Both,1,Automatic,main,5,20260212-163258,global,global,750,H,S,A,E,H-A.png,S-E.png,hH,sS,mask-4.png,mask-4.png,h,1,0.556271800014656,s,1,0.22434349998366088,0.05002160000731237,0.04940979997627437,0.10120269999606535,0.098272499977611,0.7515949000080582
RSVPLG03,km,20260212-163227,1.0.2,20251113-095759,758,Experiment,Both,1,Automatic,main,6,20260212-163303,global,local,300,S,H,A,E,S-A.png,E-H.png,sS,hH,mask-2.png,mask-4.png,s,1,0.3739006999821868,h,1,0.5931770000024699,0.048253799992380664,0.05021029998897575,0.0981708999897819,0.09996900000260212,0.29803929998888634
RSVPLG03,km,20260212-163227,1.0.2,20251113-095759,758,Experiment,Both,1,Automatic,main,7,20260212-163308,local,global,300,S,H,A,E,A-S.png,H-E.png,sS,hH,mask-1.png,mask-4.png,h,0,0.41933789997710846,h,1,0.06136990000959486,0.05005590000655502,0.04917859999113716,0.10066560000996105,0.09955600000103004,0.3012450000096578
RSVPLG03,km,20260212-163227,1.0.2,20251113-095759,758,Experiment,Both,1,Automatic,main,8,20260212-163312,global,local,300,H,H,E,A,H-E.png,A-H.png,hH,hH,mask-1.png,mask-2.png,h,1,0.556760800012853,h,1,0.43362389999674633,0.05154980000224896,0.05031630001030862,0.0999121000058949,0.1008653000171762,0.3005855999945197
RSVPLG03,km,20260212-163227,1.0.2,20251113-095759,758,Experiment,Both,1,Automatic,main,9,20260212-163316,global,local,750,H,H,E,A,H-E.png,A-H.png,hH,hH,mask-4.png,mask-2.png,h,1,2.2998849999858066,h,1,0.06277369998861104,0.04811960001825355,0.048348399985115975,0.09890280000399798,0.09856339998077601,0.7495858000183944
RSVPLG03,km,20260212-163227,1.0.2,20251113-095759,758,Experiment,Both,1,Automatic,main,10,20260212-163323,local,local,300,H,H,E,E,E-H.png,E-H.png,hH,hH,mask-2.png,mask-1.png,h,1,0.6486785000015516,h,1,0.05128609997336753,0.049167899996973574,0.05118459998629987,0.09958859998732805,0.1005066999932751,0.2987098000012338
RSVPLG03,km,20260212-163227,1.0.2,20251113-095759,758,Experiment,Both,1,Automatic,main,11,20260212-163327,global,global,300,H,H,A,A,H-A.png,H-A.png,hH,hH,mask-2.png,mask-1.png,h,1,0.28349380000145175,h,1,0.07912670000223443,0.04965110000921413,0.05020019999938086,0.09983469999860972,0.09952530000009574,0.30062069999985397
RSVPLG03,km,20260212-163227,1.0.2,20251113-095759,758,Experiment,Both,1,Automatic,main,12,20260212-163331,local,global,300,S,H,A,A,A-S.png,H-A.png,sS,hH,mask-2.png,mask-3.png,h,0,0.28878820000682026,h,1,0.06351030000951141,0.05065730001660995,0.050047700002323836,0.09920090000377968,0.09940350000397302,0.2997478000179399
RSVPLG03,km,20260212-163227,1.0.2,20251113-095759,758,Experiment,Both,1,Automatic,main,13,20260212-163335,local,local,750,S,H,E,A,E-S.png,A-H.png,sS,hH,mask-3.png,mask-2.png,h,0,0.6799669000029098,s,0,0.25716570002259687,0.05019479998736642,0.05211940000299364,0.10076659999322146,0.10079470000346191,0.7494458999717608
RSVPLG03,km,20260212-163227,1.0.2,20251113-095759,758,Experiment,Both,1,Automatic,main,14,20260212-163340,global,global,750,H,S,A,A,H-A.png,S-A.png,hH,sS,mask-1.png,mask-4.png,h,1,0.41261240001767874,s,1,0.30235360001097433,0.04956220000167377,0.04996090001077391,0.09933430000091903,0.1021469000261277,0.7488331999920774
RSVPLG03,km,20260212-163227,1.0.2,20251113-095759,758,Experiment,Both,1,Automatic,main,15,20260212-163345,local,local,300,H,S,E,E,E-H.png,E-S.png,hH,sS,mask-2.png,mask-2.png,h,1,0.30439979999209754,s,1,0.2589862000022549,0.05134219999308698,0.04991410000366159,0.10042810000595637,0.09944459999678656,0.3009424000047147
RSVPLG03,km,20260212-163227,1.0.2,20251113-095759,758,Experiment,Both,1,Automatic,main,16,20260212-163349,local,local,750,S,S,E,E,E-S.png,E-S.png,sS,sS,mask-2.png,mask-4.png,s,1,0.49295040001743473,s,1,0.1787921999930404,0.04878899999312125,0.04847059998428449,0.10135949999676086,0.09891410000273027,0.7508656000136398
RSVPLG03,km,20260212-163227,1.0.2,20251113-095759,758,Experiment,Both,1,Automatic,main,17,20260212-163354,global,global,300,S,H,A,A,S-A.png,H-A.png,sS,hH,mask-1.png,mask-4.png,s,1,0.37760080001316965,h,1,0.23629720002645627,0.05143410002347082,0.04941279999911785,0.10141010000370443,0.0981964000093285,0.3019311999960337
RSVPLG03,km,20260212-163227,1.0.2,20251113-095759,758,Experiment,Both,1,Automatic,main,18,20260212-163358,global,local,750,S,S,E,A,S-E.png,A-S.png,sS,sS,mask-3.png,mask-4.png,s,1,0.4369880000012927,s,1,0.14680499999667518,0.049281699990388006,0.051163399999495596,0.09953629999654368,0.10055629999260418,0.7489573000057135
RSVPLG03,km,20260212-163227,1.0.2,20251113-095759,758,Experiment,Both,1,Automatic,main,19,20260212-163403,global,global,750,H,S,A,E,H-A.png,S-E.png,hH,sS,mask-4.png,mask-2.png,s,0,0.8672636000264902,s,1,0.1945789000019431,0.05005699998582713,0.05228400000487454,0.1000859999912791,0.10090889999992214,0.7506103999912739
RSVPLG03,km,20260212-163227,1.0.2,20251113-095759,758,Experiment,Both,1,Automatic,main,20,20260212-163408,local,global,300,H,S,E,E,E-H.png,S-E.png,hH,sS,mask-2.png,mask-3.png,h,1,0.2981883999891579,h,0,0.08274189999792725,0.04998759998125024,0.05017910001333803,0.09955949999857694,0.09914720000233501,0.3005311999877449
RSVPLG03,km,20260212-163227,1.0.2,20251113-095759,758,Experiment,Both,1,Automatic,main,21,20260212-163412,global,global,300,S,S,A,A,S-A.png,S-A.png,sS,sS,mask-3.png,mask-4.png,s,1,0.543953300017165,s,1,0.2103429999842774,0.0503937000175938,0.05050029998528771,0.10048419999657199,0.1000237999833189,0.3002105000196025
RSVPLG03,km,20260212-163227,1.0.2,20251113-095759,758,Experiment,Both,1,Automatic,main,22,20260212-163416,global,local,300,S,H,E,E,S-E.png,E-H.png,sS,hH,mask-2.png,mask-2.png,s,1,0.4457913000078406,h,1,0.2582875000080094,0.049915999989025295,0.05180439999094233,0.09996639998280443,0.10076099997968413,0.2996839999977965
RSVPLG03,km,20260212-163227,1.0.2,20251113-095759,758,Experiment,Both,1,Automatic,main,23,20260212-163421,global,local,750,H,S,E,E,H-E.png,E-S.png,hH,sS,mask-3.png,mask-2.png,h,1,0.32877120000193827,s,1,0.19445079998695292,0.048882000002777204,0.049994500004686415,0.09835310000926256,0.10064150000107475,0.7485509999969508
RSVPLG03,km,20260212-163227,1.0.2,20251113-095759,758,Experiment,Both,1,Automatic,main,24,20260212-163425,global,global,300,S,H,A,E,S-A.png,H-E.png,sS,hH,mask-1.png,mask-2.png,s,1,0.35284649999812245,h,1,0.44989350001560524,0.050062900001648813,0.0500111999863293,0.09957089999807067,0.10114330000942573,0.2993750000023283
RSVPLG03,km,20260212-163227,1.0.2,20251113-095759,758,Experiment,Both,1,Automatic,main,25,20260212-163430,local,global,750,S,H,E,E,E-S.png,H-E.png,sS,hH,mask-3.png,mask-3.png,s,1,0.4150708999950439,h,1,0.17831269997986965,0.050363199989078566,0.04995559999952093,0.09934459999203682,0.10094930001650937,0.7494413999957033
RSVPLG03,km,20260212-163227,1.0.2,20251113-095759,758,Experiment,Both,1,Automatic,main,26,20260212-163436,global,global,750,H,H,E,A,H-E.png,H-A.png,hH,hH,mask-4.png,mask-4.png,h,1,0.3406591999810189,h,1,0.14626680000219494,0.04984990000957623,0.05003430001670495,0.09976610000012442,0.099971200019354,0.7492874999879859
RSVPLG03,km,20260212-163227,1.0.2,20251113-095759,758,Experiment,Both,1,Automatic,main,27,20260212-163441,local,local,750,S,H,A,A,A-S.png,A-H.png,sS,hH,mask-3.png,mask-1.png,h,0,0.30144820001441985,h,1,0.1769563999841921,0.051061399979516864,0.05022899998584762,0.10004969997680746,0.09891050000442192,0.7513211999903433
RSVPLG03,km,20260212-163227,1.0.2,20251113-095759,758,Experiment,Both,1,Automatic,main,28,20260212-163445,global,global,300,H,H,E,A,H-E.png,H-A.png,hH,hH,mask-4.png,mask-4.png,h,1,0.28259129999787547,h,1,0.22434499999508262,0.05012309999438003,0.05016519999480806,0.10061880000284873,0.10045699999318458,0.30009350000182167
RSVPLG03,km,20260212-163227,1.0.2,20251113-095759,758,Experiment,Both,1,Automatic,main,29,20260212-163450,local,global,750,S,H,E,A,E-S.png,H-A.png,sS,hH,mask-3.png,mask-4.png,s,1,0.3792443999846,h,1,0.19488510000519454,0.0510513000190258,0.0505550000234507,0.10103700001491234,0.10097120000864379,0.7499661000038031
RSVPLG03,km,20260212-163227,1.0.2,20251113-095759,758,Experiment,Both,1,Automatic,main,30,20260212-163454,global,global,750,H,H,A,E,H-A.png,H-E.png,hH,hH,mask-3.png,mask-3.png,h,1,0.7329743000154849,h,1,0.14644690000568517,0.04998459998751059,0.0505704999959562,0.10053460000199266,0.09979999999632128,0.7506677999917883
RSVPLG03,km,20260212-163227,1.0.2,20251113-095759,758,Experiment,Both,1,Automatic,main,31,20260212-163459,global,local,750,H,S,E,A,H-E.png,A-S.png,hH,sS,mask-2.png,mask-4.png,h,1,0.29782649999833666,h,0,0.21065680001629516,0.049905599997146055,0.050133599987020716,0.10019649998866953,0.09995929998694919,0.7500270000018645
RSVPLG03,km,20260212-163227,1.0.2,20251113-095759,758,Experiment,Both,1,Automatic,main,32,20260212-163504,local,global,750,S,S,A,E,A-S.png,S-E.png,sS,sS,mask-2.png,mask-1.png,h,0,0.8753639000060502,h,0,0.11492480000015348,0.05139380000764504,0.04978359999950044,0.10053019999759272,0.09947869999450631,0.7505610999942292
RSVPLG03,km,20260212-163227,1.0.2,20251113-095759,758,Experiment,Both,1,Automatic,main,33,20260212-163509,local,local,750,H,S,A,A,A-H.png,A-S.png,hH,sS,mask-4.png,mask-4.png,h,1,0.31571830000029877,h,0,0.1609623999975156,0.0501706000068225,0.04994940001051873,0.10096000001067296,0.09999580000294372,0.7499380999943241
RSVPLG03,km,20260212-163227,1.0.2,20251113-095759,758,Experiment,Both,1,Automatic,main,34,20260212-163513,global,local,750,H,S,A,A,H-A.png,A-S.png,hH,sS,mask-3.png,mask-3.png,h,1,0.21962220000568777,h,0,0.512355100014247,0.05085880000842735,0.049739900015993044,0.09987070001079701,0.09976159999496303,0.75054189999355
RSVPLG03,km,20260212-163227,1.0.2,20251113-095759,758,Experiment,Both,1,Automatic,main,35,20260212-163518,local,local,750,H,S,E,E,E-H.png,E-S.png,hH,sS,mask-1.png,mask-4.png,h,1,0.28384630000800826,s,1,0.08277850001468323,0.04949120001401752,0.050412499986123294,0.09880790000897832,0.09963139999308623,0.7501996000064537
RSVPLG03,km,20260212-163227,1.0.2,20251113-095759,758,Experiment,Both,1,Automatic,main,36,20260212-163523,local,local,300,H,S,E,E,E-H.png,E-S.png,hH,sS,mask-3.png,mask-4.png,h,1,0.378391099977307,h,0,0.09602799999993294,0.04993890001787804,0.04892230001860298,0.1000108000007458,0.09988560000783764,0.3015564999950584
RSVPLG03,km,20260212-163227,1.0.2,20251113-095759,758,Experiment,Both,1,Automatic,main,37,20260212-163527,local,local,750,S,H,A,A,A-S.png,A-H.png,sS,hH,mask-2.png,mask-4.png,h,0,0.10546550000435673,h,1,0.12943420000374317,0.050169499998446554,0.049710200022673234,0.10112789997947402,0.0997106000140775,0.7501192999770865
RSVPLG03,km,20260212-163227,1.0.2,20251113-095759,758,Experiment,Both,1,Automatic,main,38,20260212-163531,local,global,300,S,S,E,E,E-S.png,S-E.png,sS,sS,mask-2.png,mask-4.png,s,1,0.6042152000009082,s,1,0.08157209999626502,0.04953399999067187,0.05048289999831468,0.09968539999681525,0.10043769999174401,0.2987977000011597
RSVPLG03,km,20260212-163227,1.0.2,20251113-095759,758,Experiment,Both,1,Automatic,main,39,20260212-163535,local,local,300,S,H,E,A,E-S.png,A-H.png,sS,hH,mask-3.png,mask-2.png,s,1,0.33227540002553724,s,0,0.09849569998914376,0.049936700001126155,0.050524699996458367,0.1007054999936372,0.1006502999807708,0.299617800017586
RSVPLG03,km,20260212-163227,1.0.2,20251113-095759,758,Experiment,Both,1,Automatic,main,40,20260212-163539,global,local,750,S,H,A,E,S-A.png,E-H.png,sS,hH,mask-3.png,mask-1.png,s,1,0.572168699989561,s,0,0.06604669999796897,0.04968359999475069,0.05092879998846911,0.09976199999800883,0.10083489998942241,0.7491294000064954
RSVPLG03,km,20260212-163227,1.0.2,20251113-095759,758,Experiment,Both,1,Automatic,main,41,20260212-163544,global,local,750,S,S,A,E,S-A.png,E-S.png,sS,sS,mask-3.png,mask-2.png,s,1,0.3430815000028815,s,1,0.0667855000065174,0.051071699999738485,0.05017420000513084,0.10063919998356141,0.09988419999717735,0.7510734999959823
RSVPLG03,km,20260212-163227,1.0.2,20251113-095759,758,Experiment,Both,1,Automatic,main,42,20260212-163549,global,local,300,S,H,E,E,S-E.png,E-H.png,sS,hH,mask-1.png,mask-3.png,s,1,1.0353904000076,s,0,0.06722950001130812,0.04996820000815205,0.050399200001265854,0.09954579998156987,0.09975670001585968,0.2998549999902025
RSVPLG03,km,20260212-163227,1.0.2,20251113-095759,758,Experiment,Both,1,Automatic,main,43,20260212-163553,global,local,300,H,H,E,A,H-E.png,A-H.png,hH,hH,mask-1.png,mask-2.png,h,1,0.2048114000062924,h,1,0.08272099998430349,0.04974180000135675,0.04998320000595413,0.0998503000009805,0.09854659999837168,0.3013904999825172
RSVPLG03,km,20260212-163227,1.0.2,20251113-095759,758,Experiment,Both,1,Automatic,main,44,20260212-163557,local,global,300,S,H,E,E,E-S.png,H-E.png,sS,hH,mask-2.png,mask-2.png,h,0,0.43238539999583736,h,1,0.04951270000310615,0.04986309999367222,0.05025800000294112,0.10052919998997822,0.10026400000788271,0.30081489999429323
RSVPLG03,km,20260212-163227,1.0.2,20251113-095759,758,Experiment,Both,1,Automatic,main,45,20260212-163601,global,global,300,S,S,A,E,S-A.png,S-E.png,sS,sS,mask-2.png,mask-1.png,s,1,0.4453815000015311,h,0,0.05013469999539666,0.05088140000589192,0.048949999996693805,0.10147920000599697,0.09997179999481887,0.30108319999999367
RSVPLG03,km,20260212-163227,1.0.2,20251113-095759,758,Experiment,Both,1,Automatic,main,46,20260212-163605,local,local,750,H,S,A,A,A-H.png,A-S.png,hH,sS,mask-1.png,mask-3.png,h,1,0.13960409999708645,h,0,0.11332540001603775,0.050113200006308034,0.05105949999415316,0.10012779998942278,0.10118379999767058,0.7496151000086684
RSVPLG03,km,20260212-163227,1.0.2,20251113-095759,758,Experiment,Both,1,Automatic,main,47,20260212-163610,local,global,750,H,H,A,E,A-H.png,H-E.png,hH,hH,mask-3.png,mask-3.png,h,1,0.926392900000792,h,1,0.098571999988053,0.048926299990853295,0.04894629999762401,0.09954819999984466,0.09854079998331144,0.7502865999995265
RSVPLG03,km,20260212-163227,1.0.2,20251113-095759,758,Experiment,Both,1,Automatic,main,48,20260212-163615,local,global,300,S,S,A,E,A-S.png,S-E.png,sS,sS,mask-2.png,mask-3.png,h,0,0.2210880999919027,h,0,0.0645758000027854,0.05060129999765195,0.050010799983283505,0.09962930000619963,0.10095200000796467,0.30027269999845885
RSVPLG03,km,20260212-163227,1.0.2,20251113-095759,758,Experiment,Both,1,Automatic,main,49,20260212-163619,global,local,750,S,H,E,E,S-E.png,E-H.png,sS,hH,mask-1.png,mask-1.png,s,1,0.17007650001323782,s,0,0.06649470000411384,0.04974049999145791,0.04996749997371808,0.0997849999985192,0.10019169998122379,0.7496605000051204
RSVPLG03,km,20260212-163227,1.0.2,20251113-095759,758,Experiment,Both,1,Automatic,main,50,20260212-163623,local,local,300,S,H,A,A,A-S.png,A-H.png,sS,hH,mask-3.png,mask-3.png,h,0,0.3789059999980964,h,1,0.05039389999001287,0.05004120001103729,0.049990200001047924,0.10100180000881664,0.09963779998361133,0.3006296000094153
RSVPLG03,km,20260212-163227,1.0.2,20251113-095759,758,Experiment,Both,1,Automatic,main,51,20260212-163628,local,global,300,S,S,A,A,A-S.png,S-A.png,sS,sS,mask-3.png,mask-4.png,h,0,0.16757260001031682,h,0,0.06636409999919124,0.04993339997599833,0.04848220001440495,0.10055689999717288,0.09851300000445917,0.30160339997382835
RSVPLG03,km,20260212-163227,1.0.2,20251113-095759,758,Experiment,Both,1,Automatic,main,52,20260212-163632,local,global,750,S,H,A,E,A-S.png,H-E.png,sS,hH,mask-1.png,mask-1.png,s,1,0.4111765999987256,h,1,0.01758650000556372,0.05091970000648871,0.05092290000175126,0.09992979999515228,0.09985590001451783,0.7497991999844089
RSVPLG03,km,20260212-163227,1.0.2,20251113-095759,758,Experiment,Both,1,Automatic,main,53,20260212-163637,local,local,750,S,S,E,A,E-S.png,A-S.png,sS,sS,mask-3.png,mask-4.png,s,1,0.2524263999948744,s,1,0.06697449999046512,0.049713099986547604,0.04706039998563938,0.10078609999618493,0.09801719998358749,0.7529815000016242
RSVPLG03,km,20260212-163227,1.0.2,20251113-095759,758,Experiment,Both,1,Automatic,main,54,20260212-163641,local,global,300,S,S,A,E,A-S.png,S-E.png,sS,sS,mask-1.png,mask-3.png,s,1,0.3504947000183165,h,0,0.46252240001922473,0.05130639998242259,0.04948610000428744,0.10057759998016991,0.09870609999052249,0.30162419998669066
RSVPLG03,km,20260212-163227,1.0.2,20251113-095759,758,Experiment,Both,1,Automatic,main,55,20260212-163645,local,local,300,S,S,A,E,A-S.png,E-S.png,sS,sS,mask-1.png,mask-2.png,s,1,0.6711509000160731,h,0,0.018626400007633492,0.05118809998384677,0.05001300000003539,0.10019140000804327,0.09958189999451861,0.30165649999980815
RSVPLG03,km,20260212-163227,1.0.2,20251113-095759,758,Experiment,Both,1,Automatic,main,56,20260212-163649,global,local,300,H,H,E,E,H-E.png,E-H.png,hH,hH,mask-1.png,mask-3.png,s,0,0.7336240999866277,s,0,0.06686180000542663,0.05187280001700856,0.05047630000626668,0.1017586000089068,0.1011069999949541,0.3001513000053819
RSVPLG03,km,20260212-163227,1.0.2,20251113-095759,758,Experiment,Both,1,Automatic,main,57,20260212-163654,local,local,300,H,S,E,A,E-H.png,A-S.png,hH,sS,mask-3.png,mask-2.png,h,1,0.41446880000876263,h,0,0.08176040000398643,0.04996299999766052,0.04983060000813566,0.10001419999753125,0.10029450000729412,0.29973339999560267
RSVPLG03,km,20260212-163227,1.0.2,20251113-095759,758,Experiment,Both,1,Automatic,main,58,20260212-163658,global,global,300,S,H,E,E,S-E.png,H-E.png,sS,hH,mask-2.png,mask-4.png,s,1,0.8138063000224065,h,1,0.9418947999947704,0.04989940000814386,0.04804699998931028,0.10009670001454651,0.09818599998834543,0.30156210000859573
RSVPLG03,km,20260212-163227,1.0.2,20251113-095759,758,Experiment,Both,1,Automatic,main,59,20260212-163702,local,local,300,S,H,E,E,E-S.png,E-H.png,sS,hH,mask-3.png,mask-3.png,s,1,0.5264660999819171,h,1,0.16305150001426227,0.049886199994944036,0.049960400006966665,0.09991489999811165,0.10066830000141636,0.2986825999978464
RSVPLG03,km,20260212-163227,1.0.2,20251113-095759,758,Experiment,Both,1,Automatic,main,60,20260212-163706,global,global,750,H,H,E,E,H-E.png,H-E.png,hH,hH,mask-3.png,mask-2.png,h,1,0.20138179999776185,h,1,0.08258469999418594,0.04847989999689162,0.05125180000322871,0.09857089997967705,0.10097190001397394,0.748616899974877
RSVPLG03,km,20260212-163227,1.0.2,20251113-095759,758,Experiment,Both,1,Automatic,main,61,20260212-163711,local,global,750,S,S,E,E,E-S.png,S-E.png,sS,sS,mask-3.png,mask-1.png,s,1,0.36441690000356175,h,0,0.0334644999820739,0.04966029999195598,0.05003099999157712,0.10076030000345781,0.10002189999795519,0.7492968000005931
RSVPLG03,km,20260212-163227,1.0.2,20251113-095759,758,Experiment,Both,1,Automatic,main,62,20260212-163715,local,local,750,H,S,A,A,A-H.png,A-S.png,hH,sS,mask-3.png,mask-4.png,h,1,0.12273459997959435,h,0,0.08338090000324883,0.04922349998378195,0.0499038000125438,0.09905230000731535,0.099981100007426,0.7491041999892332
RSVPLG03,km,20260212-163227,1.0.2,20251113-095759,758,Experiment,Both,1,Automatic,main,63,20260212-163720,global,local,750,S,S,E,A,S-E.png,A-S.png,sS,sS,mask-3.png,mask-4.png,s,1,0.17320910000125878,s,1,0.08298680000007153,0.05019520001951605,0.04898950000642799,0.10007700001006015,0.09926789999008179,0.7506699000077788
RSVPLG03,km,20260212-163227,1.0.2,20251113-095759,758,Experiment,Both,1,Automatic,main,64,20260212-163724,local,global,750,H,S,A,A,A-H.png,S-A.png,hH,sS,mask-1.png,mask-3.png,h,1,0.634616700001061,h,0,0.08315130000119098,0.047791300021344796,0.05095430000801571,0.09866720001446083,0.100865700020222,0.7474115999939386
RSVPLG03,km,20260212-163227,1.0.2,20251113-095759,758,Experiment,Both,1,Automatic,main,65,20260212-163729,local,global,750,H,S,E,E,E-H.png,S-E.png,hH,sS,mask-4.png,mask-1.png,s,0,0.1030427000077907,s,1,0.09761110000545159,0.04884250002214685,0.05007110000588,0.09903230000054464,0.10013289999915287,0.7487460999982432
RSVPLG03,km,20260212-163227,1.0.2,20251113-095759,758,Experiment,Both,1,Automatic,main,66,20260212-163733,global,global,750,S,S,E,E,S-E.png,S-E.png,sS,sS,mask-3.png,mask-3.png,s,1,0.05917260001297109,s,1,0.8346960000053514,0.04991530001279898,0.04886969999643043,0.09992320000310428,0.09880970002268441,0.7515773999912199
RSVPLG03,km,20260212-163227,1.0.2,20251113-095759,758,Experiment,Both,1,Automatic,main,67,20260212-163738,local,global,300,H,S,A,A,A-H.png,S-A.png,hH,sS,mask-1.png,mask-4.png,h,1,0.28168149999692105,h,0,0.06662459997460246,0.05090599998948164,0.050028400000883266,0.10174020001431927,0.10106939999968745,0.2996276000048965
RSVPLG03,km,20260212-163227,1.0.2,20251113-095759,758,Experiment,Both,1,Automatic,main,68,20260212-163742,global,global,750,S,H,E,E,S-E.png,H-E.png,sS,hH,mask-4.png,mask-2.png,s,1,0.02412059999187477,h,1,0.36958420000155456,0.0491582999820821,0.05034169999998994,0.0990647999860812,0.100831100018695,0.7492298999859486
RSVPLG03,km,20260212-163227,1.0.2,20251113-095759,758,Experiment,Both,1,Automatic,main,69,20260212-163746,global,local,300,S,H,A,A,S-A.png,A-H.png,sS,hH,mask-1.png,mask-2.png,s,1,0.8573508999834303,h,1,0.9694004999764729,0.04999359999783337,0.049106999998912215,0.1000536999781616,0.0994586999877356,0.30068409998784773
RSVPLG03,km,20260212-163227,1.0.2,20251113-095759,758,Experiment,Both,1,Automatic,main,70,20260212-163751,global,local,750,S,H,E,E,S-E.png,E-H.png,sS,hH,mask-1.png,mask-4.png,s,1,0.37535469999420457,s,0,0.08166820000042208,0.05015490000369027,0.04899690000456758,0.10018660000059754,0.10007490002317354,0.7515056999982335
RSVPLG03,km,20260212-163227,1.0.2,20251113-095759,758,Experiment,Both,1,Automatic,main,71,20260212-163755,global,local,750,S,S,E,E,S-E.png,E-S.png,sS,sS,mask-3.png,mask-2.png,s,1,0.3498978999850806,s,1,0.09824749999097548,0.049854999990202487,0.048942499997792765,0.09994159999769181,0.099573200015584,0.7505922999989707
RSVPLG03,km,20260212-163227,1.0.2,20251113-095759,758,Experiment,Both,1,Automatic,main,72,20260212-163800,local,local,300,S,S,E,A,E-S.png,A-S.png,sS,sS,mask-3.png,mask-1.png,s,1,0.3816770999983419,h,0,0.05050449998816475,0.050228800013428554,0.0500709000043571,0.1000369000248611,0.10061940000741743,0.29944160001468845
RSVPLG03,km,20260212-163227,1.0.2,20251113-095759,758,Experiment,Both,1,Automatic,main,73,20260212-163804,local,global,750,S,H,A,A,A-S.png,H-A.png,sS,hH,mask-2.png,mask-4.png,s,1,0.21763330002431758,s,0,0.08265939998091199,0.04953740001656115,0.05152259999886155,0.0999061000184156,0.10066669998923317,0.7496427000151016
RSVPLG03,km,20260212-163227,1.0.2,20251113-095759,758,Experiment,Both,1,Automatic,main,74,20260212-163808,local,local,750,S,H,A,E,A-S.png,E-H.png,sS,hH,mask-4.png,mask-2.png,s,1,0.3468595999875106,s,0,0.0669054000172764,0.04981590001261793,0.05020219998550601,0.09985420000157319,0.10024909998173825,0.7507165000133682
RSVPLG03,km,20260212-163227,1.0.2,20251113-095759,758,Experiment,Both,1,Automatic,main,75,20260212-163813,global,global,300,S,H,E,A,S-E.png,H-A.png,sS,hH,mask-3.png,mask-3.png,s,1,0.7035145999980159,h,1,0.01764440000988543,0.05016879999311641,0.05065060002380051,0.09996539997518994,0.09936890000244603,0.30078959997626953
RSVPLG03,km,20260212-163227,1.0.2,20251113-095759,758,Experiment,Both,1,Automatic,main,76,20260212-163818,global,global,300,H,S,E,A,H-E.png,S-A.png,hH,sS,mask-1.png,mask-4.png,h,1,0.10429370001656935,h,0,0.06556700001237914,0.04927349998615682,0.05024829998728819,0.09935579999000765,0.09983819999615662,0.29980750000686385
RSVPLG03,km,20260212-163227,1.0.2,20251113-095759,758,Experiment,Both,1,Automatic,main,77,20260212-163822,local,global,750,H,H,E,E,E-H.png,H-E.png,hH,hH,mask-1.png,mask-4.png,h,1,0.780208300013328,h,1,0.08283670002128929,0.05021570000099018,0.05005260001053102,0.10100329999113455,0.0998847000009846,0.750830999983009
RSVPLG03,km,20260212-163227,1.0.2,20251113-095759,758,Experiment,Both,1,Automatic,main,78,20260212-163827,global,local,300,H,S,E,E,H-E.png,E-S.png,hH,sS,mask-4.png,mask-2.png,h,1,0.35286980000091717,h,0,0.2106125999998767,0.04982300000847317,0.049840299994684756,0.10044989999732934,0.10000370000489056,0.30047539999941364
RSVPLG03,km,20260212-163227,1.0.2,20251113-095759,758,Experiment,Both,1,Automatic,main,79,20260212-163831,local,local,750,H,H,E,A,E-H.png,A-H.png,hH,hH,mask-4.png,mask-3.png,h,1,0.2689587000058964,h,1,0.1467127000214532,0.048815100017236546,0.04886199999600649,0.09895300000789575,0.09897009999258444,0.7500851000077091
RSVPLG03,km,20260212-163227,1.0.2,20251113-095759,758,Experiment,Both,1,Automatic,main,80,20260212-163836,global,local,300,S,H,E,E,S-E.png,E-H.png,sS,hH,mask-2.png,mask-2.png,s,1,0.5096599000098649,s,0,0.08170260000042617,0.05118629999924451,0.04938060001586564,0.1001442999986466,0.09939570000278763,0.30034439999144524
RSVPLG03,km,20260212-163227,1.0.2,20251113-095759,758,Experiment,Both,1,Automatic,main,81,20260212-163840,local,global,300,S,H,A,E,A-S.png,H-E.png,sS,hH,mask-4.png,mask-2.png,h,0,0.18857480000588112,h,1,0.08257760002743453,0.04996840000967495,0.049603299994487315,0.09865309999440797,0.09979830001248047,0.298582899995381
RSVPLG03,km,20260212-163227,1.0.2,20251113-095759,758,Experiment,Both,1,Automatic,main,82,20260212-163844,local,local,300,H,H,A,A,A-H.png,A-H.png,hH,hH,mask-1.png,mask-2.png,h,1,0.12348820001352578,h,1,0.06585779998567887,0.04998750000959262,0.051104500016663224,0.10009980000904761,0.10013320000143722,0.2997114000027068
RSVPLG03,km,20260212-163227,1.0.2,20251113-095759,758,Experiment,Both,1,Automatic,main,83,20260212-163847,global,local,300,S,H,E,E,S-E.png,E-H.png,sS,hH,mask-4.png,mask-2.png,s,1,0.09592529997462407,s,0,0.08298499998636544,0.05035870001302101,0.050161899998784065,0.0994217999977991,0.10095329998875968,0.29903310001827776
RSVPLG03,km,20260212-163227,1.0.2,20251113-095759,758,Experiment,Both,1,Automatic,main,84,20260212-163851,local,global,750,H,H,E,E,E-H.png,H-E.png,hH,hH,mask-1.png,mask-4.png,h,1,0.5098586000094656,h,1,0.769802199996775,0.04931480000959709,0.050458199984859675,0.1002100000041537,0.1013260000036098,0.7487358000071254
RSVPLG03,km,20260212-163227,1.0.2,20251113-095759,758,Experiment,Both,1,Automatic,main,85,20260212-163857,local,global,300,S,S,A,E,A-S.png,S-E.png,sS,sS,mask-4.png,mask-3.png,s,1,0.42989729999681003,s,1,0.08163559998502024,0.05114090000279248,0.05112600000575185,0.10053409999818541,0.10001970001030713,0.300169599999208
RSVPLG03,km,20260212-163227,1.0.2,20251113-095759,758,Experiment,Both,1,Automatic,main,86,20260212-163901,global,local,750,S,S,A,A,S-A.png,A-S.png,sS,sS,mask-1.png,mask-2.png,s,1,0.3293349000159651,h,0,0.47337720001814887,0.048822399985510856,0.049982600001385435,0.09990919998381287,0.10006569998222403,0.7491743999999017
RSVPLG03,km,20260212-163227,1.0.2,20251113-095759,758,Experiment,Both,1,Automatic,main,87,20260212-163905,local,global,750,H,S,E,E,E-H.png,S-E.png,hH,sS,mask-1.png,mask-2.png,s,0,0.4917526000062935,s,1,0.06606290000490844,0.05058949999511242,0.04956829998991452,0.1007495999801904,0.09973640000680462,0.7505763999943156
RSVPLG03,km,20260212-163227,1.0.2,20251113-095759,758,Experiment,Both,1,Automatic,main,88,20260212-163910,global,global,750,H,S,E,E,H-E.png,S-E.png,hH,sS,mask-3.png,mask-3.png,h,1,0.7282687000115402,s,1,0.033446499990532175,0.04996259999461472,0.05094950000056997,0.09997189999558032,0.0999770000053104,0.7494288999878336
RSVPLG03,km,20260212-163227,1.0.2,20251113-095759,758,Experiment,Both,1,Automatic,main,89,20260212-163915,global,global,300,H,H,A,E,H-A.png,H-E.png,hH,hH,mask-1.png,mask-1.png,h,1,0.523634100012714,h,1,0.06669080001302063,0.04958610000903718,0.04896270000608638,0.10019160000956617,0.09917770000174642,0.3005247999972198
RSVPLG03,km,20260212-163227,1.0.2,20251113-095759,758,Experiment,Both,1,Automatic,main,90,20260212-163919,global,global,750,H,H,A,E,H-A.png,H-E.png,hH,hH,mask-4.png,mask-2.png,h,1,0.1335347999993246,h,1,0.13057009998010471,0.0510202000150457,0.051040800026385114,0.10148060001665726,0.10056460002670065,0.749983899993822
RSVPLG03,km,20260212-163227,1.0.2,20251113-095759,758,Experiment,Both,1,Automatic,main,91,20260212-163923,global,local,300,H,S,A,E,H-A.png,E-S.png,hH,sS,mask-3.png,mask-3.png,h,1,0.42896489999839105,s,1,0.2903241000021808,0.048752600006992,0.04967690000194125,0.10045930001069792,0.09968129999469966,0.29945089999819174
RSVPLG03,km,20260212-163227,1.0.2,20251113-095759,758,Experiment,Both,1,Automatic,main,92,20260212-163928,local,local,300,H,H,A,E,A-H.png,E-H.png,hH,hH,mask-3.png,mask-2.png,h,1,0.4310299000062514,s,0,0.19465669998317026,0.05091210000682622,0.048920400004135445,0.0999174999888055,0.09890040001482703,0.30162399998516776
RSVPLG03,km,20260212-163227,1.0.2,20251113-095759,758,Experiment,Both,1,Automatic,main,93,20260212-163932,local,global,300,H,S,A,A,A-H.png,S-A.png,hH,sS,mask-1.png,mask-1.png,h,1,0.31445249999524094,s,1,0.1606387000065297,0.050035799999022856,0.05099419999169186,0.1003187999885995,0.10064459999557585,0.2998954000067897
RSVPLG03,km,20260212-163227,1.0.2,20251113-095759,758,Experiment,Both,1,Automatic,main,94,20260212-163936,global,global,750,S,H,E,E,S-E.png,H-E.png,sS,hH,mask-3.png,mask-3.png,s,1,0.3808228000125382,h,1,0.13055150001309812,0.049548500013770536,0.050882099982118234,0.09917609998956323,0.10047669999767095,0.7490236000157893
RSVPLG03,km,20260212-163227,1.0.2,20251113-095759,758,Experiment,Both,1,Automatic,main,95,20260212-163941,local,local,750,H,S,E,E,E-H.png,E-S.png,hH,sS,mask-3.png,mask-1.png,s,0,0.45955299999332055,s,1,0.83422759998939,0.051103999983752146,0.049889199988683686,0.10003829997731373,0.10092409999924712,0.7503502999898046
RSVPLG03,km,20260212-163227,1.0.2,20251113-095759,758,Experiment,Both,1,Automatic,main,96,20260212-163946,global,global,750,S,S,E,A,S-E.png,S-A.png,sS,sS,mask-4.png,mask-2.png,s,1,0.31458600002224557,s,1,0.08280630002263933,0.048959100007778034,0.049920299992663786,0.09915930000715889,0.09991859999718145,0.7504111000162084
RSVPLG03,km,20260212-163227,1.0.2,20251113-095759,758,Experiment,Both,1,Automatic,main,97,20260212-163951,global,local,300,H,S,A,A,H-A.png,A-S.png,hH,sS,mask-2.png,mask-2.png,h,1,0.5567204999970272,h,0,0.0659313999931328,0.051347200002055615,0.04994540000916459,0.09917969998787157,0.10004590000608005,0.29928279999876395
RSVPLG03,km,20260212-163227,1.0.2,20251113-095759,758,Experiment,Both,1,Automatic,main,98,20260212-163955,global,global,300,S,H,E,A,S-E.png,H-A.png,sS,hH,mask-3.png,mask-3.png,h,0,0.4146442999772262,h,1,0.04946740000741556,0.0507285000057891,0.04998360000899993,0.10059220000403002,0.09996220000903122,0.30019239999819547
RSVPLG03,km,20260212-163227,1.0.2,20251113-095759,758,Experiment,Both,1,Automatic,main,99,20260212-163959,local,local,300,S,H,A,A,A-S.png,A-H.png,sS,hH,mask-2.png,mask-3.png,h,0,0.1728286999859847,h,1,0.08156150000286289,0.049261100008152425,0.049844900000607595,0.09938580001471564,0.09964110000873916,0.29908440000144765
RSVPLG03,km,20260212-163227,1.0.2,20251113-095759,758,Experiment,Both,1,Automatic,main,100,20260212-164003,global,global,300,S,S,E,A,S-E.png,S-A.png,sS,sS,mask-2.png,mask-1.png,s,1,0.22222380002494901,s,1,0.08257179998327047,0.04889250002452172,0.04972840001573786,0.09966659999918193,0.09951230001752265,0.3001131000055466
