exp,exp_initials,runtime,ver,modtime,sub,blocktype,targets,cuetype,mode,trialtype,trial,trialtime,t1_level,t2_level,t2_lag,t1,t2,distractor1,distractor2,stimfile1,stimfile2,t1_corr,t2_corr,maskfile1,maskfile2,t1_resp,t1_acc,t1_rt,t2_resp,t2_acc,t2_rt,t1_dur,t2_dur,t1mask_soa,t2mask_soa,t1t2_soa
RSVPLG03,km,20251030-111512,1.0.1,20251023-100704,725,Introduction,T1,1,Automatic,main,1,20251030-111535,local,local,750,H,S,E,A,E-H.png,A-S.png,hH,sS,mask-2.png,mask-3.png,s,0,14.233679600059986,none,-5,0,0.092168900067918,0.10071100003551692,0.19182720000389963,0.20183779997751117,0.7417970000533387
RSVPLG03,km,20251030-111512,1.0.1,20251023-100704,725,Introduction,T1,1,Automatic,main,2,20251030-111554,local,local,750,S,S,A,E,A-S.png,E-S.png,sS,sS,mask-2.png,mask-1.png,s,1,1.158981699962169,none,-5,0,0.10074469994287938,0.09979940007906407,0.2011629999615252,0.20180600008461624,0.751240799902007
RSVPLG03,km,20251030-111512,1.0.1,20251023-100704,725,Introduction,T1,1,Automatic,main,3,20251030-111559,global,local,750,S,H,E,A,S-E.png,A-H.png,sS,hH,mask-4.png,mask-3.png,s,1,0.6790268000913784,none,-5,0,0.10084490000735968,0.10053519997745752,0.19815169996581972,0.2002876999322325,0.7495129000162706
RSVPLG03,km,20251030-111512,1.0.1,20251023-100704,725,Introduction,T1,1,Automatic,main,4,20251030-111604,global,global,750,S,S,A,A,S-A.png,S-A.png,sS,sS,mask-1.png,mask-2.png,s,1,0.46964710007887334,none,-5,0,0.09982680005487055,0.099936299957335,0.20001470006536692,0.1994397999951616,0.7497870000079274
RSVPLG03,km,20251030-111512,1.0.1,20251023-100704,725,Introduction,T1,1,Automatic,main,5,20251030-111609,global,local,750,H,S,E,E,H-E.png,E-S.png,hH,sS,mask-2.png,mask-2.png,h,1,0.9153112999629229,none,-5,0,0.09972329996526241,0.1009053000016138,0.2003575999988243,0.19962840003427118,0.7497802999569103
RSVPLG03,km,20251030-111512,1.0.1,20251023-100704,725,Introduction,T1,1,Automatic,main,6,20251030-111614,global,global,750,H,S,E,E,H-E.png,S-E.png,hH,sS,mask-4.png,mask-4.png,h,1,0.744730900041759,none,-5,0,0.09872040001209825,0.09874379995744675,0.19966479996219277,0.19785210001282394,0.7503767999587581
RSVPLG03,km,20251030-111512,1.0.1,20251023-100704,725,Introduction,T1,1,Automatic,main,7,20251030-111619,global,global,750,H,H,A,E,H-A.png,H-E.png,hH,hH,mask-3.png,mask-2.png,h,1,0.9889788000145927,none,-5,0,0.10013659996911883,0.09893530001863837,0.20045889995526522,0.19936169998254627,0.7506257999921218
RSVPLG03,km,20251030-111512,1.0.1,20251023-100704,725,Introduction,T1,1,Automatic,main,8,20251030-111624,global,local,750,H,S,E,E,H-E.png,E-S.png,hH,sS,mask-4.png,mask-3.png,h,1,0.4393188999965787,none,-5,0,0.09903070004656911,0.09874299995135516,0.1996447000419721,0.19857299991417676,0.7497142000356689
RSVPLG03,km,20251030-111512,1.0.1,20251023-100704,725,Introduction,T1,1,Automatic,main,9,20251030-111628,local,local,750,S,S,E,E,E-S.png,E-S.png,sS,sS,mask-4.png,mask-4.png,s,1,1.0226042000576854,none,-5,0,0.10018780000973493,0.09989459998905659,0.20014189998619258,0.2003127000061795,0.7504110999871045
RSVPLG03,km,20251030-111512,1.0.1,20251023-100704,725,Introduction,T1,1,Automatic,main,10,20251030-111634,local,global,750,S,H,A,A,A-S.png,H-A.png,sS,hH,mask-2.png,mask-2.png,s,1,0.46187939995434135,none,-5,0,0.10086030000820756,0.10145139996893704,0.20138959994073957,0.2005021000513807,0.7503285999409854
RSVPLG03,km,20251030-111512,1.0.1,20251023-100704,725,Introduction,T1,1,Automatic,main,11,20251030-111638,global,global,750,H,S,A,A,H-A.png,S-A.png,hH,sS,mask-4.png,mask-1.png,h,1,0.45668349997140467,none,-5,0,0.09945510001853108,0.09971709991805255,0.2013034000992775,0.2015675000147894,0.750070600071922
RSVPLG03,km,20251030-111512,1.0.1,20251023-100704,725,Introduction,T1,1,Automatic,main,12,20251030-111643,local,global,750,S,H,A,A,A-S.png,H-A.png,sS,hH,mask-1.png,mask-3.png,s,1,1.4811572000617161,none,-5,0,0.10112130001652986,0.10178889997769147,0.2019252999452874,0.20168289996217936,0.7506543999770656
RSVPLG03,km,20251030-111512,1.0.1,20251023-100704,725,Introduction,T1,1,Automatic,main,13,20251030-111649,local,global,750,H,S,A,A,A-H.png,S-A.png,hH,sS,mask-3.png,mask-3.png,h,1,0.6401899999473244,none,-5,0,0.09875030000694096,0.10035670001525432,0.19869140000082552,0.19994259998202324,0.7489955000346527
RSVPLG03,km,20251030-111512,1.0.1,20251023-100704,725,Introduction,T1,1,Automatic,main,14,20251030-111653,local,local,750,S,S,E,A,E-S.png,A-S.png,sS,sS,mask-3.png,mask-3.png,s,1,0.4198906999081373,none,-5,0,0.09884069999679923,0.09932549996301532,0.20067719998769462,0.20035689999349415,0.749391800025478
RSVPLG03,km,20251030-111512,1.0.1,20251023-100704,725,Introduction,T1,1,Automatic,main,15,20251030-111658,local,global,750,H,H,A,E,A-H.png,H-E.png,hH,hH,mask-3.png,mask-1.png,h,1,0.4770229000132531,none,-5,0,0.10027769999578595,0.09982889995444566,0.19988089997787029,0.20093519997317344,0.7498956000199541
RSVPLG03,km,20251030-111512,1.0.1,20251023-100704,725,Introduction,T1,1,Automatic,main,16,20251030-111703,global,local,750,H,S,E,A,H-E.png,A-S.png,hH,sS,mask-4.png,mask-4.png,h,1,0.411516800057143,none,-5,0,0.10037450003437698,0.09962379990611225,0.20002270000986755,0.2002504999982193,0.7484492000658065
RSVPLG03,km,20251030-111732,1.0.1,20251023-100704,725,Practice,T1,1,Automatic,main,1,20251030-111758,global,local,750,S,H,A,E,S-A.png,E-H.png,sS,hH,mask-2.png,mask-4.png,s,1,0.5296074999496341,none,-5,0,0.04006440006196499,0.049939700053073466,0.0899788000388071,0.10063809994608164,0.7391303000040352
RSVPLG03,km,20251030-111732,1.0.1,20251023-100704,725,Practice,T1,1,Automatic,main,2,20251030-111802,global,global,300,S,H,E,E,S-E.png,H-E.png,sS,hH,mask-3.png,mask-1.png,s,1,0.6098748999647796,none,-5,0,0.04975260002538562,0.04970780003350228,0.0995529000647366,0.09872799995355308,0.3001085000578314
RSVPLG03,km,20251030-111732,1.0.1,20251023-100704,725,Practice,T1,1,Automatic,main,3,20251030-111807,global,local,750,S,H,E,E,S-E.png,E-H.png,sS,hH,mask-2.png,mask-2.png,s,1,0.651588200009428,none,-5,0,0.04798650008160621,0.047720500035211444,0.09843850007746369,0.0984790000366047,0.7489131999900565
RSVPLG03,km,20251030-111732,1.0.1,20251023-100704,725,Practice,T1,1,Automatic,main,4,20251030-111811,local,local,750,H,S,A,A,A-H.png,A-S.png,hH,sS,mask-2.png,mask-1.png,s,0,0.7458235999802127,none,-5,0,0.04873429995495826,0.04974199994467199,0.09855059999972582,0.0995504999300465,0.7484616000438109
RSVPLG03,km,20251030-111732,1.0.1,20251023-100704,725,Practice,T1,1,Automatic,main,5,20251030-111816,local,global,750,S,S,E,A,E-S.png,S-A.png,sS,sS,mask-4.png,mask-4.png,s,1,0.776896100025624,none,-5,0,0.04975809995085001,0.04965300008188933,0.09960770001634955,0.09985830006189644,0.7492015999741852
RSVPLG03,km,20251030-111732,1.0.1,20251023-100704,725,Practice,T1,1,Automatic,main,6,20251030-111821,local,global,300,H,S,E,E,E-H.png,S-E.png,hH,sS,mask-4.png,mask-4.png,h,1,0.7112747000064701,none,-5,0,0.04782630002591759,0.05146950006019324,0.09755700000096112,0.09995890001300722,0.2975746999727562
RSVPLG03,km,20251030-111732,1.0.1,20251023-100704,725,Practice,T1,1,Automatic,main,7,20251030-111825,global,local,300,H,S,A,A,H-A.png,A-S.png,hH,sS,mask-3.png,mask-3.png,h,1,0.613879100070335,none,-5,0,0.04975100001320243,0.05014169996138662,0.10038790001999587,0.10000789992045611,0.29987480002455413
RSVPLG03,km,20251030-111732,1.0.1,20251023-100704,725,Practice,T1,1,Automatic,main,8,20251030-111829,global,global,750,S,H,E,E,S-E.png,H-E.png,sS,hH,mask-2.png,mask-4.png,s,1,1.6002711999462917,none,-5,0,0.04962980002164841,0.04995210003107786,0.10054720006883144,0.09986419999040663,0.7480863999808207
RSVPLG03,km,20251030-111732,1.0.1,20251023-100704,725,Practice,T1,1,Automatic,main,9,20251030-111835,global,global,750,S,S,A,A,S-A.png,S-A.png,sS,sS,mask-3.png,mask-3.png,s,1,0.4371215000282973,none,-5,0,0.051289499970152974,0.049856900004670024,0.10047289996873587,0.09959459991659969,0.7492358000017703
RSVPLG03,km,20251030-111732,1.0.1,20251023-100704,725,Practice,T1,1,Automatic,main,10,20251030-111840,global,global,300,S,S,A,E,S-A.png,S-E.png,sS,sS,mask-2.png,mask-4.png,h,0,2.576487999991514,none,-5,0,0.04855539998970926,0.04938440001569688,0.0995779000222683,0.09990769997239113,0.2995651999954134
RSVPLG03,km,20251030-111732,1.0.1,20251023-100704,725,Practice,T1,1,Automatic,main,11,20251030-111846,local,global,750,H,S,A,E,A-H.png,S-E.png,hH,sS,mask-4.png,mask-3.png,s,0,0.8706035000504926,none,-5,0,0.05038830009289086,0.049715799978002906,0.0999743000138551,0.09956599993165582,0.7491538000758737
RSVPLG03,km,20251030-111732,1.0.1,20251023-100704,725,Practice,T1,1,Automatic,main,12,20251030-111851,local,global,300,H,H,A,A,A-H.png,H-A.png,hH,hH,mask-1.png,mask-1.png,s,0,0.723766400013119,none,-5,0,0.049977999995462596,0.04992529994342476,0.09972739999648184,0.09945809992495924,0.29973720002453774
RSVPLG03,km,20251030-111732,1.0.1,20251023-100704,725,Practice,T1,1,Automatic,main,13,20251030-111855,local,local,300,S,S,A,E,A-S.png,E-S.png,sS,sS,mask-1.png,mask-1.png,h,0,1.010483100079,none,-5,0,0.0489496000809595,0.05007669993210584,0.09956320002675056,0.10030529997311532,0.2992671000538394
RSVPLG03,km,20251030-111732,1.0.1,20251023-100704,725,Practice,T1,1,Automatic,main,14,20251030-111859,global,local,300,S,H,E,A,S-E.png,A-H.png,sS,hH,mask-1.png,mask-2.png,s,1,0.9327235999517143,none,-5,0,0.05007410002872348,0.04953900002874434,0.10037650004960597,0.10120299994014204,0.2996759000234306
RSVPLG03,km,20251030-111732,1.0.1,20251023-100704,725,Practice,T1,1,Automatic,main,15,20251030-111904,local,local,300,S,S,A,A,A-S.png,A-S.png,sS,sS,mask-1.png,mask-3.png,s,1,0.681720900000073,none,-5,0,0.05092109995894134,0.05099789996165782,0.10067449999041855,0.10182530002202839,0.29927419999148697
RSVPLG03,km,20251030-111732,1.0.1,20251023-100704,725,Practice,T1,1,Automatic,main,16,20251030-111908,local,local,750,H,S,A,E,A-H.png,E-S.png,hH,sS,mask-4.png,mask-3.png,h,1,0.5044773999834433,none,-5,0,0.04946579993702471,0.04878880002070218,0.09880279994104058,0.0986828999593854,0.7498324000043795
RSVPLG03,km,20251030-111941,1.0.1,20251023-100704,725,Practice,T1,1,Automatic,main,1,20251030-111957,global,local,300,S,H,E,E,S-E.png,E-H.png,sS,hH,mask-2.png,mask-1.png,h,0,1.2403995000058785,none,-5,0,0.03877520002424717,0.049615200026892126,0.0897170000243932,0.1013639000011608,0.28898780001327395
RSVPLG03,km,20251030-111941,1.0.1,20251023-100704,725,Practice,T1,1,Automatic,main,2,20251030-112002,global,global,300,S,S,A,E,S-A.png,S-E.png,sS,sS,mask-2.png,mask-1.png,s,1,1.0299550000345334,none,-5,0,0.050650899996981025,0.049526299932040274,0.10128469998016953,0.10015610000118613,0.3011430000187829
RSVPLG03,km,20251030-111941,1.0.1,20251023-100704,725,Practice,T1,1,Automatic,main,3,20251030-112007,local,global,750,S,S,E,A,E-S.png,S-A.png,sS,sS,mask-1.png,mask-2.png,s,1,0.8105983000714332,none,-5,0,0.05025910004042089,0.04884980001952499,0.09818009997252375,0.09985160001087934,0.749705099966377
RSVPLG03,km,20251030-111941,1.0.1,20251023-100704,725,Practice,T1,1,Automatic,main,4,20251030-112011,local,global,750,H,S,A,E,A-H.png,S-E.png,hH,sS,mask-4.png,mask-2.png,s,0,2.3548665000125766,none,-5,0,0.05039919994305819,0.049898099969141185,0.10136359999887645,0.09956320002675056,0.7507750999648124
RSVPLG03,km,20251030-111941,1.0.1,20251023-100704,725,Practice,T1,1,Automatic,main,5,20251030-112018,global,global,750,H,S,E,A,H-E.png,S-A.png,hH,sS,mask-4.png,mask-2.png,s,0,2.933859199983999,none,-5,0,0.05129930004477501,0.050787099986337125,0.09997260000091046,0.10123589995782822,0.7499951000791043
RSVPLG03,km,20251030-111941,1.0.1,20251023-100704,725,Practice,T1,1,Automatic,main,6,20251030-112025,local,local,300,S,S,E,E,E-S.png,E-S.png,sS,sS,mask-3.png,mask-2.png,s,1,0.8768608999671414,none,-5,0,0.048615299980156124,0.0500395999988541,0.09898959996644408,0.10037879995070398,0.299518599989824
RSVPLG03,km,20251030-111941,1.0.1,20251023-100704,725,Practice,T1,1,Automatic,main,7,20251030-112029,global,global,300,S,H,E,A,S-E.png,H-A.png,sS,hH,mask-3.png,mask-2.png,h,0,0.8039998000022024,none,-5,0,0.04976439999882132,0.049324900028295815,0.10051190003287047,0.09875869995448738,0.3003428999800235
RSVPLG03,km,20251030-111941,1.0.1,20251023-100704,725,Practice,T1,1,Automatic,main,8,20251030-112034,local,global,300,S,H,A,E,A-S.png,H-E.png,sS,hH,mask-1.png,mask-1.png,s,1,2.5306464000605047,none,-5,0,0.04968749999534339,0.05042530002538115,0.1011148999677971,0.09952140005771071,0.30056719994172454
RSVPLG03,km,20251030-111941,1.0.1,20251023-100704,725,Practice,T1,1,Automatic,main,9,20251030-112040,local,local,300,S,S,A,A,A-S.png,A-S.png,sS,sS,mask-4.png,mask-4.png,s,1,0.9358304999768734,none,-5,0,0.05152590002398938,0.05150679999496788,0.10017400002107024,0.10014700004830956,0.29992000001948327
RSVPLG03,km,20251030-111941,1.0.1,20251023-100704,725,Practice,T1,1,Automatic,main,10,20251030-112044,local,global,300,H,H,A,E,A-H.png,H-E.png,hH,hH,mask-2.png,mask-2.png,h,1,1.3636710999999195,none,-5,0,0.049686099984683096,0.04833020002115518,0.10048130003269762,0.0998503000009805,0.30082699994090945
RSVPLG03,km,20251030-111941,1.0.1,20251023-100704,725,Practice,T1,1,Automatic,main,11,20251030-112049,global,local,750,S,S,E,E,S-E.png,E-S.png,sS,sS,mask-4.png,mask-3.png,s,1,0.6283219000324607,none,-5,0,0.04884249996393919,0.050619699992239475,0.09903779998421669,0.09994899993762374,0.7489686000626534
RSVPLG03,km,20251030-111941,1.0.1,20251023-100704,725,Practice,T1,1,Automatic,main,12,20251030-112054,local,local,750,H,H,A,A,A-H.png,A-H.png,hH,hH,mask-2.png,mask-3.png,s,0,1.9259866999927908,none,-5,0,0.049421099945902824,0.050280500086955726,0.09952259995043278,0.10039340006187558,0.7488003999460489
RSVPLG03,km,20251030-111941,1.0.1,20251023-100704,725,Practice,T1,1,Automatic,main,13,20251030-112100,local,local,750,H,S,A,E,A-H.png,E-S.png,hH,sS,mask-4.png,mask-1.png,h,1,0.3850850999588147,none,-5,0,0.048557300004176795,0.05002359999343753,0.09859289997257292,0.09953359991777688,0.7490275000454858
RSVPLG03,km,20251030-111941,1.0.1,20251023-100704,725,Practice,T1,1,Automatic,main,14,20251030-112104,global,global,750,S,H,E,E,S-E.png,H-E.png,sS,hH,mask-2.png,mask-3.png,s,1,0.6445501000853255,none,-5,0,0.050796100054867566,0.05040020006708801,0.10050670010969043,0.10031360003631562,0.7505350999999791
RSVPLG03,km,20251030-111941,1.0.1,20251023-100704,725,Practice,T1,1,Automatic,main,15,20251030-112109,global,local,750,H,S,A,A,H-A.png,A-S.png,hH,sS,mask-2.png,mask-1.png,h,1,1.9185997999738902,none,-5,0,0.04992879997007549,0.047532199998386204,0.0999545999802649,0.09990099992137402,0.7503976000007242
RSVPLG03,km,20251030-111941,1.0.1,20251023-100704,725,Practice,T1,1,Automatic,main,16,20251030-112115,global,local,300,H,H,E,A,H-E.png,A-H.png,hH,hH,mask-1.png,mask-4.png,h,1,0.697290200041607,none,-5,0,0.049601800041273236,0.05060649989172816,0.10036369995214045,0.1003511999733746,0.29969490005169064
RSVPLG03,km,20251030-112147,1.0.1,20251023-100704,725,Practice,T1,1,Automatic,main,1,20251030-112208,global,local,750,H,H,A,A,H-A.png,A-H.png,hH,hH,mask-3.png,mask-2.png,h,1,0.5530921000754461,none,-5,0,0.03970149997621775,0.049736600019969046,0.08965639991220087,0.100520099978894,0.7391890999861062
RSVPLG03,km,20251030-112147,1.0.1,20251023-100704,725,Practice,T1,1,Automatic,main,2,20251030-112213,local,global,750,H,H,A,E,A-H.png,H-E.png,hH,hH,mask-3.png,mask-1.png,h,1,0.9429844999685884,none,-5,0,0.049672900000587106,0.04993179999291897,0.09952499996870756,0.1006739999866113,0.7475403000134975
RSVPLG03,km,20251030-112147,1.0.1,20251023-100704,725,Practice,T1,1,Automatic,main,3,20251030-112217,global,local,750,S,S,E,A,S-E.png,A-S.png,sS,sS,mask-2.png,mask-3.png,s,1,0.7318774999585003,none,-5,0,0.048783000092953444,0.049711499945260584,0.0986534000840038,0.09843839996028692,0.748207800090313
RSVPLG03,km,20251030-112147,1.0.1,20251023-100704,725,Practice,T1,1,Automatic,main,4,20251030-112222,global,global,300,H,S,A,A,H-A.png,S-A.png,hH,sS,mask-3.png,mask-4.png,h,1,0.6676288999151438,none,-5,0,0.049345499952323735,0.049707300029695034,0.10006259998772293,0.09890240000095218,0.29973009997047484
RSVPLG03,km,20251030-112147,1.0.1,20251023-100704,725,Practice,T1,1,Automatic,main,5,20251030-112226,global,global,750,S,S,E,A,S-E.png,S-A.png,sS,sS,mask-2.png,mask-4.png,s,1,0.5384963999968022,none,-5,0,0.04994469997473061,0.04942339996341616,0.09972089994698763,0.10029470000881702,0.7474296999862418
RSVPLG03,km,20251030-112147,1.0.1,20251023-100704,725,Practice,T1,1,Automatic,main,6,20251030-112231,local,global,300,S,H,A,A,A-S.png,H-A.png,sS,hH,mask-3.png,mask-1.png,s,1,0.44415760005358607,none,-5,0,0.04968110006302595,0.049714399967342615,0.0994596000527963,0.09949149994645268,0.3003585000988096
RSVPLG03,km,20251030-112147,1.0.1,20251023-100704,725,Practice,T1,1,Automatic,main,7,20251030-112235,local,local,750,H,S,E,E,E-H.png,E-S.png,hH,sS,mask-3.png,mask-4.png,h,1,1.1348123999778181,none,-5,0,0.04850949998944998,0.04950909991748631,0.09930709993932396,0.10018169996328652,0.7487014000071213
RSVPLG03,km,20251030-112147,1.0.1,20251023-100704,725,Practice,T1,1,Automatic,main,8,20251030-112240,local,global,750,S,H,A,E,A-S.png,H-E.png,sS,hH,mask-4.png,mask-4.png,s,1,0.6177678999956697,none,-5,0,0.04990089999046177,0.05126130010467023,0.10035379999317229,0.10096040007192641,0.7481915999669582
RSVPLG03,km,20251030-112147,1.0.1,20251023-100704,725,Practice,T1,1,Automatic,main,9,20251030-112245,global,global,300,H,S,E,E,H-E.png,S-E.png,hH,sS,mask-4.png,mask-1.png,s,0,2.2153500999556854,none,-5,0,0.04912570002488792,0.048382599954493344,0.09944910008925945,0.09806800005026162,0.29993950005155057
RSVPLG03,km,20251030-112147,1.0.1,20251023-100704,725,Practice,T1,1,Automatic,main,10,20251030-112251,local,local,300,H,H,E,E,E-H.png,E-H.png,hH,hH,mask-4.png,mask-1.png,h,1,0.836927100084722,none,-5,0,0.04972549993544817,0.05156289995647967,0.09954510000534356,0.10027439997065812,0.29890870000235736
RSVPLG03,km,20251030-112147,1.0.1,20251023-100704,725,Practice,T1,1,Automatic,main,11,20251030-112255,global,local,300,S,S,A,A,S-A.png,A-S.png,sS,sS,mask-4.png,mask-2.png,h,0,1.2016511000692844,none,-5,0,0.049364699982106686,0.04835520009510219,0.09989519999362528,0.09984020004048944,0.29923329991288483
RSVPLG03,km,20251030-112147,1.0.1,20251023-100704,725,Practice,T1,1,Automatic,main,12,20251030-112300,local,global,300,S,H,A,A,A-S.png,H-A.png,sS,hH,mask-4.png,mask-3.png,s,1,1.4463493999792263,none,-5,0,0.050811100052669644,0.05070679995696992,0.099880599998869,0.09972209995612502,0.2995753000723198
RSVPLG03,km,20251030-112147,1.0.1,20251023-100704,725,Practice,T1,1,Automatic,main,13,20251030-112305,local,local,750,H,S,A,A,A-H.png,A-S.png,hH,sS,mask-3.png,mask-4.png,h,1,0.8266748000169173,none,-5,0,0.04846449999604374,0.05132900003809482,0.10042899998370558,0.10068640008103102,0.7464778999565169
RSVPLG03,km,20251030-112147,1.0.1,20251023-100704,725,Practice,T1,1,Automatic,main,14,20251030-112310,global,global,750,H,H,E,A,H-E.png,H-A.png,hH,hH,mask-2.png,mask-2.png,h,1,3.9367597999516875,none,-5,0,0.04931649996433407,0.048435800010338426,0.09951029997318983,0.09870710002724081,0.7497661999659613
RSVPLG03,km,20251030-112147,1.0.1,20251023-100704,725,Practice,T1,1,Automatic,main,15,20251030-112318,local,local,300,S,H,A,E,A-S.png,E-H.png,sS,hH,mask-2.png,mask-1.png,s,1,2.322120300028473,none,-5,0,0.05012879997957498,0.049807899980805814,0.10069710004609078,0.09850429999642074,0.3006468000821769
RSVPLG03,km,20251030-112147,1.0.1,20251023-100704,725,Practice,T1,1,Automatic,main,16,20251030-112323,global,local,300,S,S,A,A,S-A.png,A-S.png,sS,sS,mask-1.png,mask-4.png,s,1,0.6419832999818027,none,-5,0,0.04978380003012717,0.05028670001775026,0.09856950002722442,0.09970469994004816,0.2974486000603065
RSVPLG03,km,20251030-112502,1.0.1,20251023-100704,725,Introduction,Both,1,Automatic,main,1,20251030-112533,global,local,750,S,S,E,E,S-E.png,E-S.png,sS,sS,mask-4.png,mask-3.png,h,0,3.4415784999728203,h,0,1.5012227999977767,0.09063870005775243,0.09925159998238087,0.19032569997943938,0.20057169999927282,0.7401170000666752
RSVPLG03,km,20251030-112502,1.0.1,20251023-100704,725,Introduction,Both,1,Automatic,main,2,20251030-112542,global,global,750,S,S,E,A,S-E.png,S-A.png,sS,sS,mask-4.png,mask-4.png,h,0,3.5013193000340834,h,0,2.383553500054404,0.10153869993519038,0.09959649993106723,0.2018939999397844,0.20027089992072433,0.7500187000259757
RSVPLG03,km,20251030-112502,1.0.1,20251023-100704,725,Introduction,Both,1,Automatic,main,3,20251030-112553,global,local,750,H,S,A,E,H-A.png,E-S.png,hH,sS,mask-3.png,mask-3.png,s,0,1.1504074999829754,h,0,0.604911100002937,0.09945569990668446,0.10044299997389317,0.20000089996028692,0.20093829999677837,0.7485140999779105
RSVPLG03,km,20251030-112502,1.0.1,20251023-100704,725,Introduction,Both,1,Automatic,main,4,20251030-112559,local,global,750,S,H,A,A,A-S.png,H-A.png,sS,hH,mask-4.png,mask-2.png,s,1,2.256071800016798,s,0,0.35181229992304,0.1002820999128744,0.09937899990472943,0.20001739996951073,0.2001201999373734,0.7501835000002757
RSVPLG03,km,20251030-112502,1.0.1,20251023-100704,725,Introduction,Both,1,Automatic,main,5,20251030-112606,global,local,750,H,S,A,E,H-A.png,E-S.png,hH,sS,mask-4.png,mask-3.png,h,1,1.3396612999495119,s,1,3.0407461000140756,0.09934559999965131,0.09989209997002035,0.20075800002086908,0.19861800002399832,0.750069500063546
RSVPLG03,km,20251030-112502,1.0.1,20251023-100704,725,Introduction,Both,1,Automatic,main,6,20251030-112614,global,global,750,S,S,E,E,S-E.png,S-E.png,sS,sS,mask-2.png,mask-3.png,s,1,2.632997200009413,h,0,1.3133894000202417,0.10003920004237443,0.09919829992577434,0.1998337999684736,0.19925349997356534,0.7487051000352949
RSVPLG03,km,20251030-112502,1.0.1,20251023-100704,725,Introduction,Both,1,Automatic,main,7,20251030-112622,local,local,750,S,S,E,A,E-S.png,A-S.png,sS,sS,mask-2.png,mask-1.png,s,1,5.363109799916856,h,0,0.9742507999762893,0.10050889989361167,0.0996752999490127,0.19955279992427677,0.19864899991080165,0.750137299997732
RSVPLG03,km,20251030-112502,1.0.1,20251023-100704,725,Introduction,Both,1,Automatic,main,8,20251030-112633,local,global,750,S,H,A,A,A-S.png,H-A.png,sS,hH,mask-2.png,mask-3.png,s,1,1.0897763000102714,h,1,1.7905955000314862,0.09968560002744198,0.09936550003476441,0.19948239997029305,0.2000736000481993,0.7491101999767125
RSVPLG03,km,20251030-112502,1.0.1,20251023-100704,725,Introduction,Both,1,Automatic,main,9,20251030-112640,global,global,750,H,H,A,E,H-A.png,H-E.png,hH,hH,mask-1.png,mask-3.png,h,1,1.3496625000843778,s,0,1.1036335000535473,0.09967359993606806,0.10103080002591014,0.1984047000296414,0.1997697000624612,0.747804099926725
RSVPLG03,km,20251030-112502,1.0.1,20251023-100704,725,Introduction,Both,1,Automatic,main,10,20251030-112647,global,global,750,S,H,A,A,S-A.png,H-A.png,sS,hH,mask-2.png,mask-4.png,s,1,0.8027162000071257,s,0,1.3604266999755055,0.0988766000373289,0.10135660006199032,0.1988574001006782,0.19972759997472167,0.746609800029546
RSVPLG03,km,20251030-112502,1.0.1,20251023-100704,725,Introduction,Both,1,Automatic,main,11,20251030-112654,local,local,750,H,S,E,A,E-H.png,A-S.png,hH,sS,mask-3.png,mask-1.png,h,1,1.2590068998979405,s,1,1.6985509999794886,0.10067180008627474,0.09885930002201349,0.19938170001842082,0.1998925000661984,0.749787800014019
RSVPLG03,km,20251030-112502,1.0.1,20251023-100704,725,Introduction,Both,1,Automatic,main,12,20251030-112701,local,global,750,S,S,E,E,E-S.png,S-E.png,sS,sS,mask-3.png,mask-2.png,s,1,1.6977330000372604,s,1,1.4739919999847189,0.09951809991616756,0.09985140000935644,0.20014859992079437,0.200568399974145,0.7482027999358252
RSVPLG03,km,20251030-112502,1.0.1,20251023-100704,725,Introduction,Both,1,Automatic,main,13,20251030-112709,global,local,750,S,S,E,A,S-E.png,A-S.png,sS,sS,mask-1.png,mask-1.png,s,1,0.905754099949263,s,1,0.9431392999831587,0.10070310009177774,0.09892579994630069,0.20043650001753122,0.19893209997098893,0.749871400068514
RSVPLG03,km,20251030-112502,1.0.1,20251023-100704,725,Introduction,Both,1,Automatic,main,14,20251030-112715,local,global,750,H,S,E,A,E-H.png,S-A.png,hH,sS,mask-2.png,mask-4.png,s,0,4.350882799946703,h,0,1.3095891000702977,0.10170160001143813,0.09952509996946901,0.2005466999253258,0.19924899993930012,0.7501031999709085
RSVPLG03,km,20251030-112502,1.0.1,20251023-100704,725,Introduction,Both,1,Automatic,main,15,20251030-112725,local,local,750,H,S,E,E,E-H.png,E-S.png,hH,sS,mask-2.png,mask-3.png,h,1,0.9401062000542879,s,1,0.19217729999218136,0.09895110002253205,0.09766460000537336,0.19796010002028197,0.19815339997876436,0.7479245000286028
RSVPLG03,km,20251030-112502,1.0.1,20251023-100704,725,Introduction,Both,1,Automatic,main,16,20251030-112730,local,local,750,S,S,E,E,E-S.png,E-S.png,sS,sS,mask-4.png,mask-4.png,s,1,1.2163896999554709,s,1,0.143398700049147,0.0996716000372544,0.09911980002652854,0.19837670004926622,0.19938280002679676,0.7478831000626087
RSVPLG03,km,20251030-112817,1.0.1,20251023-100704,725,Introduction,Both,1,Automatic,main,1,20251030-112837,local,local,750,H,S,A,A,A-H.png,A-S.png,hH,sS,mask-4.png,mask-1.png,h,1,2.003730700002052,s,1,0.508804599987343,0.08908960002008826,0.1007806999841705,0.18784769997000694,0.19998549995943904,0.7379868000280112
RSVPLG03,km,20251030-112817,1.0.1,20251023-100704,725,Introduction,Both,1,Automatic,main,2,20251030-112844,global,global,750,S,S,A,E,S-A.png,S-E.png,sS,sS,mask-1.png,mask-4.png,s,1,2.6080409000860527,h,0,0.14208489994052798,0.10036849998869002,0.09859040006995201,0.20012319996021688,0.20014440000522882,0.7504387999651954
RSVPLG03,km,20251030-112817,1.0.1,20251023-100704,725,Introduction,Both,1,Automatic,main,3,20251030-112851,global,global,750,H,H,A,E,H-A.png,H-E.png,hH,hH,mask-3.png,mask-1.png,s,0,2.5970668999943882,h,1,1.1826257000211626,0.09856269997544587,0.10150249989237636,0.1992267998866737,0.20031499990727752,0.7476449999958277
RSVPLG03,km,20251030-112817,1.0.1,20251023-100704,725,Introduction,Both,1,Automatic,main,4,20251030-112859,global,global,750,S,H,A,A,S-A.png,H-A.png,sS,hH,mask-4.png,mask-4.png,s,1,1.6476315999170765,h,1,0.1433509000344202,0.09826909995172173,0.1006442999932915,0.19962049997411668,0.2008602999849245,0.7483445999678224
RSVPLG03,km,20251030-112817,1.0.1,20251023-100704,725,Introduction,Both,1,Automatic,main,5,20251030-112905,global,local,750,H,S,A,A,H-A.png,A-S.png,hH,sS,mask-4.png,mask-2.png,h,1,1.7994474999140948,h,0,0.14263669995125383,0.09880000003613532,0.09997579990886152,0.1988411999773234,0.20070859999395907,0.7485259000677615
RSVPLG03,km,20251030-112817,1.0.1,20251023-100704,725,Introduction,Both,1,Automatic,main,6,20251030-112911,local,global,750,S,H,A,E,A-S.png,H-E.png,sS,hH,mask-2.png,mask-3.png,s,1,4.4222234999760985,h,1,0.27098059991840273,0.09975860000122339,0.09987749997526407,0.2012223000638187,0.1997556999558583,0.7515357000520453
RSVPLG03,km,20251030-112817,1.0.1,20251023-100704,725,Introduction,Both,1,Automatic,main,7,20251030-112920,global,local,750,H,H,E,E,H-E.png,E-H.png,hH,hH,mask-4.png,mask-4.png,h,1,2.623660600045696,s,0,0.1586712000425905,0.09869030001573265,0.09985989995766431,0.19848719995934516,0.19962819991633296,0.7490717000328004
RSVPLG03,km,20251030-112817,1.0.1,20251023-100704,725,Introduction,Both,1,Automatic,main,8,20251030-112927,local,local,750,H,S,A,E,A-H.png,E-S.png,hH,sS,mask-2.png,mask-3.png,h,1,1.0374098001047969,s,1,0.1439822999527678,0.09966810001060367,0.09968460001982749,0.20042899996042252,0.2005647000623867,0.7501905999379233
RSVPLG03,km,20251030-112817,1.0.1,20251023-100704,725,Introduction,Both,1,Automatic,main,9,20251030-112933,local,global,750,S,H,A,E,A-S.png,H-E.png,sS,hH,mask-1.png,mask-4.png,s,1,1.4604175999993458,s,0,0.1462102000368759,0.09934329998213798,0.09948590002022684,0.1982262999517843,0.19998690008651465,0.748098099953495
RSVPLG03,km,20251030-112817,1.0.1,20251023-100704,725,Introduction,Both,1,Automatic,main,10,20251030-112939,local,local,750,S,H,E,A,E-S.png,A-H.png,sS,hH,mask-1.png,mask-4.png,s,1,1.3930527999764308,h,1,0.09712540009059012,0.10155260004103184,0.09960890002548695,0.20136230008210987,0.2005816000746563,0.7503554000286385
RSVPLG03,km,20251030-112817,1.0.1,20251023-100704,725,Introduction,Both,1,Automatic,main,11,20251030-112944,global,local,750,S,S,E,A,S-E.png,A-S.png,sS,sS,mask-3.png,mask-4.png,h,0,2.0999489999376237,s,1,0.3035666999639943,0.09955709998030216,0.09851600008551031,0.20005220000166446,0.20030969998333603,0.7496554999379441
RSVPLG03,km,20251030-112817,1.0.1,20251023-100704,725,Introduction,Both,1,Automatic,main,12,20251030-112951,local,local,750,S,H,A,A,A-S.png,A-H.png,sS,hH,mask-1.png,mask-2.png,s,1,2.280523599940352,h,1,0.23621409991756082,0.09897169994655997,0.09970100002828985,0.1994678999762982,0.19914929999504238,0.7504723999882117
RSVPLG03,km,20251030-112817,1.0.1,20251023-100704,725,Introduction,Both,1,Automatic,main,13,20251030-112958,local,global,750,S,H,E,E,E-S.png,H-E.png,sS,hH,mask-2.png,mask-2.png,s,1,1.4015870000002906,s,0,0.3198924999451265,0.09938000002875924,0.09871599997859448,0.19923220004420727,0.19941350002773106,0.7500274999765679
RSVPLG03,km,20251030-112817,1.0.1,20251023-100704,725,Introduction,Both,1,Automatic,main,14,20251030-113004,global,global,750,S,S,A,E,S-A.png,S-E.png,sS,sS,mask-4.png,mask-2.png,s,1,0.8647913000313565,s,1,0.337974900030531,0.09989820001646876,0.09979330003261566,0.19854020001366735,0.20098950003739446,0.7483568000607193
RSVPLG03,km,20251030-112817,1.0.1,20251023-100704,725,Introduction,Both,1,Automatic,main,15,20251030-113010,global,local,750,H,H,E,E,H-E.png,E-H.png,hH,hH,mask-1.png,mask-3.png,h,1,1.5117311000358313,s,0,0.10926529997959733,0.0996939999749884,0.09975789999589324,0.19951879989821464,0.20056610007304698,0.7493613999104127
RSVPLG03,km,20251030-112817,1.0.1,20251023-100704,725,Introduction,Both,1,Automatic,main,16,20251030-113016,local,global,750,S,S,E,A,E-S.png,S-A.png,sS,sS,mask-1.png,mask-1.png,s,1,1.5759576000273228,h,0,0.44590980000793934,0.09979710006155074,0.10060470004100353,0.19976009998936206,0.20032359997276217,0.7489290999947116
RSVPLG03,km,20251030-113043,1.0.1,20251023-100704,725,Practice,Both,1,Automatic,main,1,20251030-113111,global,global,750,H,H,A,E,H-A.png,H-E.png,hH,hH,mask-3.png,mask-3.png,h,1,2.5367564000189304,h,1,0.3194900999078527,0.03987440001219511,0.05071360000874847,0.09098969993647188,0.10057609993964434,0.7385526000289246
RSVPLG03,km,20251030-113043,1.0.1,20251023-100704,725,Practice,Both,1,Automatic,main,2,20251030-113118,global,global,750,S,S,E,A,S-E.png,S-A.png,sS,sS,mask-1.png,mask-2.png,s,1,0.8103540999582037,s,1,0.1744009000249207,0.048662699991837144,0.04970639990642667,0.10018459998536855,0.0994945999700576,0.748676500050351
RSVPLG03,km,20251030-113043,1.0.1,20251023-100704,725,Practice,Both,1,Automatic,main,3,20251030-113123,local,local,750,S,S,E,E,E-S.png,E-S.png,sS,sS,mask-1.png,mask-2.png,s,1,1.0970472000772133,s,1,0.30156349996104836,0.05045490001793951,0.051172500010579824,0.10094919998664409,0.10152500006370246,0.7471695999847725
RSVPLG03,km,20251030-113043,1.0.1,20251023-100704,725,Practice,Both,1,Automatic,main,4,20251030-113129,local,global,300,S,H,A,E,A-S.png,H-E.png,sS,hH,mask-2.png,mask-3.png,s,1,0.8876457000151277,h,1,0.22062160004861653,0.05181770003400743,0.04938590002711862,0.09967290004715323,0.09858340001665056,0.3000260000117123
RSVPLG03,km,20251030-113043,1.0.1,20251023-100704,725,Practice,Both,1,Automatic,main,5,20251030-113134,local,global,300,H,H,E,A,E-H.png,H-A.png,hH,hH,mask-3.png,mask-2.png,h,1,1.219007599982433,s,0,0.2224719999358058,0.0497554000467062,0.04809159995056689,0.10061409999616444,0.09996999998111278,0.30012850009370595
RSVPLG03,km,20251030-113043,1.0.1,20251023-100704,725,Practice,Both,1,Automatic,main,6,20251030-113139,global,local,750,H,H,A,A,H-A.png,A-H.png,hH,hH,mask-4.png,mask-4.png,h,1,0.817802399978973,h,1,0.1763877000194043,0.04844259994570166,0.049704100005328655,0.09845169994514436,0.09858910006005317,0.7478695999598131
RSVPLG03,km,20251030-113043,1.0.1,20251023-100704,725,Practice,Both,1,Automatic,main,7,20251030-113144,global,local,300,H,H,A,A,H-A.png,A-H.png,hH,hH,mask-4.png,mask-4.png,h,1,0.8944680000422522,h,1,0.12646389997098595,0.04902090004179627,0.048964900081045926,0.0989512000232935,0.09911930002272129,0.2978490999666974
RSVPLG03,km,20251030-113043,1.0.1,20251023-100704,725,Practice,Both,1,Automatic,main,8,20251030-113149,local,local,300,H,S,A,A,A-H.png,A-S.png,hH,sS,mask-4.png,mask-3.png,h,1,2.5422048000618815,s,1,0.6227809999836609,0.0498336999444291,0.049514399957843125,0.09982819994911551,0.10013289994094521,0.2993037999840453
RSVPLG03,km,20251030-113043,1.0.1,20251023-100704,725,Practice,Both,1,Automatic,main,9,20251030-113156,global,local,750,S,S,E,A,S-E.png,A-S.png,sS,sS,mask-1.png,mask-2.png,s,1,1.1133705000393093,h,0,0.23902059998363256,0.04748300008941442,0.04979979991912842,0.09924530005082488,0.09847450000233948,0.7474115000804886
RSVPLG03,km,20251030-113043,1.0.1,20251023-100704,725,Practice,Both,1,Automatic,main,10,20251030-113201,global,global,300,S,S,A,E,S-A.png,S-E.png,sS,sS,mask-1.png,mask-3.png,s,1,0.9522574000293389,h,0,0.11107479990459979,0.049379800097085536,0.04971249995287508,0.09991850005462766,0.10025320004206151,0.30004680005367845
RSVPLG03,km,20251030-113043,1.0.1,20251023-100704,725,Practice,Both,1,Automatic,main,11,20251030-113206,local,global,750,S,S,A,E,A-S.png,S-E.png,sS,sS,mask-1.png,mask-3.png,h,0,1.1135533000342548,s,1,0.9883137000724673,0.049816700047813356,0.049582600011490285,0.09887380001600832,0.10065779997967184,0.7472509000217542
RSVPLG03,km,20251030-113043,1.0.1,20251023-100704,725,Practice,Both,1,Automatic,main,12,20251030-113212,local,global,750,S,H,A,A,A-S.png,H-A.png,sS,hH,mask-1.png,mask-1.png,s,1,2.8774129999801517,h,1,1.11771989997942,0.049772099941037595,0.04939209995791316,0.09957540000323206,0.10092660004738718,0.7477819999912754
RSVPLG03,km,20251030-113043,1.0.1,20251023-100704,725,Practice,Both,1,Automatic,main,13,20251030-113221,global,global,300,S,H,A,A,S-A.png,H-A.png,sS,hH,mask-1.png,mask-2.png,s,1,1.4024220999563113,s,0,0.3684759000316262,0.04977709997911006,0.04968020005617291,0.10067089996300638,0.09917080006562173,0.30019729991909117
RSVPLG03,km,20251030-113043,1.0.1,20251023-100704,725,Practice,Both,1,Automatic,main,14,20251030-113226,local,local,750,H,S,E,A,E-H.png,A-S.png,hH,sS,mask-1.png,mask-2.png,h,1,4.804606399964541,s,1,0.7345092999748886,0.049812200013548136,0.049366099992766976,0.09914589999243617,0.09908509999513626,0.7481260999338701
RSVPLG03,km,20251030-113043,1.0.1,20251023-100704,725,Practice,Both,1,Automatic,main,15,20251030-113236,local,local,300,S,H,A,E,A-S.png,E-H.png,sS,hH,mask-3.png,mask-3.png,s,1,1.2991038999753073,s,0,0.3982759000500664,0.050703000044450164,0.04998909996356815,0.10056040005292743,0.09919939993415028,0.30070200003683567
RSVPLG03,km,20251030-113043,1.0.1,20251023-100704,725,Practice,Both,1,Automatic,main,16,20251030-113241,global,local,300,H,H,A,E,H-A.png,E-H.png,hH,hH,mask-2.png,mask-3.png,h,1,0.9956708999816328,h,1,0.3488740000175312,0.050081999972462654,0.05096410005353391,0.1009234000230208,0.09941490006167442,0.29840149998199195
RSVPLG03,km,20251030-113416,1.0.1,20251023-100704,725,Experiment,Both,1,Automatic,warmup,1,20251030-113447,global,local,750,S,H,E,A,S-E.png,A-H.png,sS,hH,mask-2.png,mask-4.png,s,1,0.8836300000548363,h,1,0.41390180005691946,0.04109689989127219,0.05054309999104589,0.09043199999723583,0.09976699994876981,0.7412534999893978
RSVPLG03,km,20251030-113416,1.0.1,20251023-100704,725,Experiment,Both,1,Automatic,warmup,2,20251030-113452,global,global,750,H,S,A,E,H-A.png,S-E.png,hH,sS,mask-3.png,mask-3.png,h,1,0.8709002999821678,s,1,0.22053220006637275,0.049699699971824884,0.04934920009691268,0.10053449997212738,0.09918950009159744,0.750179799972102
RSVPLG03,km,20251030-113416,1.0.1,20251023-100704,725,Experiment,Both,1,Automatic,warmup,3,20251030-113457,local,local,750,H,S,A,E,A-H.png,E-S.png,hH,sS,mask-3.png,mask-1.png,s,0,5.792401500046253,h,0,0.04733249999117106,0.049371000030077994,0.04999969992786646,0.09889160003513098,0.09974029997829348,0.7496738000772893
RSVPLG03,km,20251030-113416,1.0.1,20251023-100704,725,Experiment,Both,1,Automatic,warmup,4,20251030-113507,local,global,750,H,H,A,A,A-H.png,H-A.png,hH,hH,mask-2.png,mask-1.png,h,1,1.6148747000843287,h,1,0.17624589998740703,0.04924180009402335,0.05099559994414449,0.099460200057365,0.10049809992779046,0.7503344001015648
RSVPLG03,km,20251030-113416,1.0.1,20251023-100704,725,Experiment,Both,1,Automatic,warmup,5,20251030-113513,local,global,300,H,H,A,E,A-H.png,H-E.png,hH,hH,mask-2.png,mask-3.png,s,0,2.345199199975468,s,0,0.5595074000302702,0.048978400067426264,0.049530799966305494,0.09907710005063564,0.09988599992357194,0.2995413000462577
RSVPLG03,km,20251030-113416,1.0.1,20251023-100704,725,Experiment,Both,1,Automatic,main,6,20251030-113520,global,local,750,H,S,A,A,H-A.png,A-S.png,hH,sS,mask-2.png,mask-4.png,h,1,1.549424899974838,h,0,0.04624970001168549,0.05055080004967749,0.04935480002313852,0.10061409999616444,0.10077510005794466,0.749848400009796
RSVPLG03,km,20251030-113416,1.0.1,20251023-100704,725,Experiment,Both,1,Automatic,main,7,20251030-113525,local,global,750,S,H,E,E,E-S.png,H-E.png,sS,hH,mask-1.png,mask-1.png,s,1,1.6284231999889016,s,0,0.1257742999587208,0.050496599986217916,0.048726100008934736,0.10101569991093129,0.09856279997620732,0.7527959999861196
RSVPLG03,km,20251030-113416,1.0.1,20251023-100704,725,Experiment,Both,1,Automatic,main,8,20251030-113531,global,local,300,S,H,A,A,S-A.png,A-H.png,sS,hH,mask-1.png,mask-1.png,s,1,1.3422532000113279,s,0,0.14335309993475676,0.04855159996077418,0.04875259997788817,0.098768699914217,0.10003879992291331,0.3003436999861151
RSVPLG03,km,20251030-113416,1.0.1,20251023-100704,725,Experiment,Both,1,Automatic,main,9,20251030-113537,local,global,750,H,S,E,A,E-H.png,S-A.png,hH,sS,mask-4.png,mask-1.png,h,1,1.3331016000593081,s,1,0.3824966000393033,0.050499800010584295,0.049732299987226725,0.10056420008186251,0.09839929989539087,0.7521854001097381
RSVPLG03,km,20251030-113416,1.0.1,20251023-100704,725,Experiment,Both,1,Automatic,main,10,20251030-113542,local,local,750,S,S,A,A,A-S.png,A-S.png,sS,sS,mask-1.png,mask-1.png,s,1,0.8725539000006393,s,1,0.0937372000189498,0.050140999956056476,0.050329399993643165,0.09911299997474998,0.09984860010445118,0.7501453999429941
RSVPLG03,km,20251030-113416,1.0.1,20251023-100704,725,Experiment,Both,1,Automatic,main,11,20251030-113548,local,global,750,H,H,A,A,A-H.png,H-A.png,hH,hH,mask-1.png,mask-3.png,h,1,1.3926540999673307,h,1,0.30256049998570234,0.04824999999254942,0.0497743000742048,0.09868709999136627,0.09758860000874847,0.7512821999844164
RSVPLG03,km,20251030-113416,1.0.1,20251023-100704,725,Experiment,Both,1,Automatic,main,12,20251030-113553,local,global,300,H,S,E,A,E-H.png,S-A.png,hH,sS,mask-1.png,mask-4.png,h,1,1.244915800052695,s,1,0.2852217999752611,0.05070219992194325,0.050704200053587556,0.10050929989665747,0.10053699999116361,0.299598699901253
RSVPLG03,km,20251030-113416,1.0.1,20251023-100704,725,Experiment,Both,1,Automatic,main,13,20251030-113559,global,global,750,H,H,A,A,H-A.png,H-A.png,hH,hH,mask-4.png,mask-4.png,h,1,0.8962105999235064,h,1,0.09354149992577732,0.05079699994530529,0.04951130005065352,0.10007159993983805,0.09996390005107969,0.750996199902147
RSVPLG03,km,20251030-113416,1.0.1,20251023-100704,725,Experiment,Both,1,Automatic,main,14,20251030-113604,global,global,750,S,S,E,E,S-E.png,S-E.png,sS,sS,mask-3.png,mask-3.png,s,1,0.520586600061506,s,1,0.13997240003664047,0.04775389994028956,0.04945459996815771,0.0982429999858141,0.09941599995363504,0.7501207999885082
RSVPLG03,km,20251030-113416,1.0.1,20251023-100704,725,Experiment,Both,1,Automatic,main,15,20251030-113609,global,global,750,S,S,A,A,S-A.png,S-A.png,sS,sS,mask-1.png,mask-1.png,s,1,0.6283240000484511,s,1,0.1256775000365451,0.050843499950133264,0.048819700023159385,0.10062159993685782,0.09970460005570203,0.7507294999668375
RSVPLG03,km,20251030-113416,1.0.1,20251023-100704,725,Experiment,Both,1,Automatic,main,16,20251030-113614,global,local,300,S,S,A,A,S-A.png,A-S.png,sS,sS,mask-3.png,mask-3.png,s,1,0.8445446999976411,h,0,0.12758920004125684,0.05185150005854666,0.051598999998532236,0.10168399999383837,0.10143349994905293,0.3002006000606343
RSVPLG03,km,20251030-113416,1.0.1,20251023-100704,725,Experiment,Both,1,Automatic,main,17,20251030-113618,global,local,300,S,S,E,A,S-E.png,A-S.png,sS,sS,mask-4.png,mask-1.png,s,1,1.4701945999404415,h,0,0.04552070004865527,0.05154800007585436,0.05053300003055483,0.1002040000166744,0.09919520001858473,0.30085580004379153
RSVPLG03,km,20251030-113416,1.0.1,20251023-100704,725,Experiment,Both,1,Automatic,main,18,20251030-113624,local,global,300,S,H,A,E,A-S.png,H-E.png,sS,hH,mask-1.png,mask-3.png,s,1,4.540859000058845,h,1,0.11151209997478873,0.051132300053723156,0.050144500099122524,0.1013714000582695,0.10163730010390282,0.30028099997434765
RSVPLG03,km,20251030-113416,1.0.1,20251023-100704,725,Experiment,Both,1,Automatic,main,19,20251030-113632,local,global,750,H,S,E,A,E-H.png,S-A.png,hH,sS,mask-4.png,mask-4.png,h,1,3.9108560000313446,s,1,0.8608282000059262,0.05065770004875958,0.04959720000624657,0.10153620003256947,0.10055400000419468,0.7507875000592321
RSVPLG03,km,20251030-113416,1.0.1,20251023-100704,725,Experiment,Both,1,Automatic,main,20,20251030-113641,local,local,300,S,H,E,E,E-S.png,E-H.png,sS,hH,mask-3.png,mask-4.png,s,1,1.6082195000490174,h,1,0.30249609996099025,0.0510323999915272,0.04966909997165203,0.10085049993358552,0.09983960003592074,0.3010033000027761
RSVPLG03,km,20251030-113416,1.0.1,20251023-100704,725,Experiment,Both,1,Automatic,main,21,20251030-113647,local,global,300,S,S,A,E,A-S.png,S-E.png,sS,sS,mask-1.png,mask-4.png,s,1,2.4366658999351785,h,0,2.564866299973801,0.05072259996086359,0.049721799907274544,0.10066090000327677,0.09955209994222969,0.3006449000677094
RSVPLG03,km,20251030-113416,1.0.1,20251023-100704,725,Experiment,Both,1,Automatic,main,22,20251030-113653,local,local,300,H,H,E,A,E-H.png,A-H.png,hH,hH,mask-1.png,mask-1.png,h,1,1.9956429000012577,s,0,0.014892000006511807,0.04827510006725788,0.05107560008764267,0.09963860001880676,0.10127540002577007,0.2982803999911994
RSVPLG03,km,20251030-113416,1.0.1,20251023-100704,725,Experiment,Both,1,Automatic,main,23,20251030-113658,local,local,750,S,S,A,E,A-S.png,E-S.png,sS,sS,mask-2.png,mask-4.png,s,1,3.356388899963349,h,0,0.2375389999942854,0.04873589996714145,0.04975240002386272,0.09849110001232475,0.10019130003638566,0.7498263999586925
RSVPLG03,km,20251030-113416,1.0.1,20251023-100704,725,Experiment,Both,1,Automatic,main,24,20251030-113706,global,global,300,S,H,A,E,S-A.png,H-E.png,sS,hH,mask-1.png,mask-2.png,s,1,1.4956587000051513,h,1,0.8629679000005126,0.05099689995404333,0.049493800033815205,0.10091759997885674,0.10035109997261316,0.30015189992263913
RSVPLG03,km,20251030-113416,1.0.1,20251023-100704,725,Experiment,Both,1,Automatic,main,25,20251030-113712,global,global,300,S,H,A,A,S-A.png,H-A.png,sS,hH,mask-4.png,mask-1.png,s,1,1.3090699999593198,s,0,0.4617715999484062,0.04970530001446605,0.04969130002427846,0.10185430001001805,0.09954319999087602,0.3015023999614641
RSVPLG03,km,20251030-113416,1.0.1,20251023-100704,725,Experiment,Both,1,Automatic,main,26,20251030-113724,global,local,750,H,H,E,A,H-E.png,A-H.png,hH,hH,mask-4.png,mask-1.png,h,1,1.1446644000243396,h,1,0.07739660004153848,0.04968399996869266,0.04934550006873906,0.09922520001418889,0.10017360001802444,0.7497673999750987
RSVPLG03,km,20251030-113416,1.0.1,20251023-100704,725,Experiment,Both,1,Automatic,main,27,20251030-113730,global,global,300,S,S,A,E,S-A.png,S-E.png,sS,sS,mask-4.png,mask-1.png,s,1,0.8572153999703005,h,0,0.030518999905325472,0.0507169000338763,0.04972100001759827,0.10055540001485497,0.099527099984698,0.301514400052838
RSVPLG03,km,20251030-113416,1.0.1,20251023-100704,725,Experiment,Both,1,Automatic,main,28,20251030-113734,global,local,750,H,S,A,A,H-A.png,A-S.png,hH,sS,mask-3.png,mask-4.png,h,1,1.5694962999550626,h,0,0.06149510003160685,0.04864569997880608,0.04887039994355291,0.10016509995330125,0.10071239992976189,0.7500106999650598
RSVPLG03,km,20251030-113416,1.0.1,20251023-100704,725,Experiment,Both,1,Automatic,main,29,20251030-113740,global,global,750,H,S,A,A,H-A.png,S-A.png,hH,sS,mask-1.png,mask-2.png,h,1,0.7673246000194922,h,0,0.0781010000500828,0.048918999964371324,0.05011940002441406,0.09895909996703267,0.10198889998719096,0.7485158999916166
RSVPLG03,km,20251030-113416,1.0.1,20251023-100704,725,Experiment,Both,1,Automatic,main,30,20251030-113745,global,local,300,H,S,A,E,H-A.png,E-S.png,hH,sS,mask-4.png,mask-1.png,h,1,0.9163399999961257,s,1,4.366860099951737,0.04962639999575913,0.048382299952208996,0.10052269999869168,0.09832200000528246,0.3008527000201866
RSVPLG03,km,20251030-113416,1.0.1,20251023-100704,725,Experiment,Both,1,Automatic,main,31,20251030-113754,global,local,750,H,S,E,E,H-E.png,E-S.png,hH,sS,mask-4.png,mask-2.png,h,1,1.1361445999937132,s,1,1.2639955999329686,0.04962459998205304,0.04984310001600534,0.10026340000331402,0.09954299998935312,0.7496313999872655
RSVPLG03,km,20251030-113416,1.0.1,20251023-100704,725,Experiment,Both,1,Automatic,main,32,20251030-113759,local,local,300,S,S,A,E,A-S.png,E-S.png,sS,sS,mask-2.png,mask-3.png,s,1,2.93332339997869,h,0,3.077129799989052,0.04980829998385161,0.04952949995640665,0.10103769996203482,0.10029199998825788,0.30054870003368706
RSVPLG03,km,20251030-113416,1.0.1,20251023-100704,725,Experiment,Both,1,Automatic,main,33,20251030-113806,local,global,300,S,S,A,E,A-S.png,S-E.png,sS,sS,mask-4.png,mask-3.png,s,1,1.2884476999752223,h,0,0.35018539999146014,0.04981420002877712,0.050802099984139204,0.09997669991571456,0.10109770006965846,0.30067559995222837
RSVPLG03,km,20251030-113416,1.0.1,20251023-100704,725,Experiment,Both,1,Automatic,main,34,20251030-113811,local,local,300,H,H,E,E,E-H.png,E-H.png,hH,hH,mask-3.png,mask-4.png,h,1,0.5700384000083432,h,1,0.1932006999850273,0.05000559997279197,0.049884699983522296,0.0987562999362126,0.09986919991206378,0.29947620001621544
RSVPLG03,km,20251030-113416,1.0.1,20251023-100704,725,Experiment,Both,1,Automatic,main,35,20251030-113816,local,global,750,S,H,A,A,A-S.png,H-A.png,sS,hH,mask-1.png,mask-3.png,s,1,0.5379250999540091,s,0,0.11049330001696944,0.050541199976578355,0.04971669998485595,0.10021850001066923,0.09964609995950013,0.7510840999893844
RSVPLG03,km,20251030-113416,1.0.1,20251023-100704,725,Experiment,Both,1,Automatic,main,36,20251030-113821,local,global,750,H,S,A,A,A-H.png,S-A.png,hH,sS,mask-3.png,mask-2.png,h,1,0.997880999930203,s,1,0.623817199957557,0.04965559998527169,0.049185800016857684,0.10269760002847761,0.09944220003671944,0.7508415000047535
RSVPLG03,km,20251030-113416,1.0.1,20251023-100704,725,Experiment,Both,1,Automatic,main,37,20251030-113827,global,local,300,S,H,A,A,S-A.png,A-H.png,sS,hH,mask-2.png,mask-1.png,s,1,0.9824916999787092,s,0,0.15755670005455613,0.050684499903582036,0.049139500013552606,0.09939299989491701,0.09993979998398572,0.30077639990486205
RSVPLG03,km,20251030-113416,1.0.1,20251023-100704,725,Experiment,Both,1,Automatic,main,38,20251030-113831,local,global,750,H,S,A,A,A-H.png,S-A.png,hH,sS,mask-2.png,mask-4.png,s,0,0.4493357000174001,h,0,0.014016899978742003,0.04972279991488904,0.048702700063586235,0.09963019995484501,0.10044730000663549,0.7510918999323621
RSVPLG03,km,20251030-113416,1.0.1,20251023-100704,725,Experiment,Both,1,Automatic,main,39,20251030-113836,local,global,300,H,S,E,E,E-H.png,S-E.png,hH,sS,mask-2.png,mask-3.png,h,1,3.010937499930151,s,1,1.0871993000619113,0.049849600065499544,0.04764709994196892,0.09968520002439618,0.09841380000580102,0.3012995000462979
RSVPLG03,km,20251030-113416,1.0.1,20251023-100704,725,Experiment,Both,1,Automatic,main,40,20251030-113844,local,local,750,S,H,E,E,E-S.png,E-H.png,sS,hH,mask-2.png,mask-4.png,s,1,1.1074822000227869,h,1,0.12643699999898672,0.049714399967342615,0.05080099997576326,0.09851969999726862,0.10172559996135533,0.7492229000199586
RSVPLG03,km,20251030-113416,1.0.1,20251023-100704,725,Experiment,Both,1,Automatic,main,41,20251030-113849,local,global,300,S,S,A,E,A-S.png,S-E.png,sS,sS,mask-3.png,mask-4.png,s,1,1.0252521999645978,s,1,0.11177049996331334,0.05160899995826185,0.05004740005824715,0.10164390003774315,0.0998058000113815,0.3018200999358669
RSVPLG03,km,20251030-113416,1.0.1,20251023-100704,725,Experiment,Both,1,Automatic,main,42,20251030-113854,local,global,750,H,S,A,A,A-H.png,S-A.png,hH,sS,mask-4.png,mask-1.png,h,1,1.72001759998966,s,1,1.1353851000312716,0.04980999999679625,0.050899900030344725,0.09978700010105968,0.10025350004434586,0.7492275000549853
RSVPLG03,km,20251030-113416,1.0.1,20251023-100704,725,Experiment,Both,1,Automatic,main,43,20251030-113901,local,global,750,S,H,A,A,A-S.png,H-A.png,sS,hH,mask-4.png,mask-1.png,s,1,1.1720479000359774,h,1,1.300270300009288,0.049853699980303645,0.049366399995051324,0.09981659997720271,0.09961660008411855,0.7499903999269009
RSVPLG03,km,20251030-113416,1.0.1,20251023-100704,725,Experiment,Both,1,Automatic,main,44,20251030-113907,local,local,750,H,S,A,E,A-H.png,E-S.png,hH,sS,mask-1.png,mask-1.png,h,1,0.9875000999309123,s,1,1.1481019998900592,0.049409199971705675,0.04921590001322329,0.09993240004405379,0.10005390003789216,0.7518605999648571
RSVPLG03,km,20251030-113416,1.0.1,20251023-100704,725,Experiment,Both,1,Automatic,main,45,20251030-113912,global,local,300,H,H,E,E,H-E.png,E-H.png,hH,hH,mask-1.png,mask-2.png,s,0,1.683189500006847,h,1,0.41439149994403124,0.04831820004619658,0.04972699994686991,0.10015690000727773,0.09841919993050396,0.3001237000571564
RSVPLG03,km,20251030-113416,1.0.1,20251023-100704,725,Experiment,Both,1,Automatic,main,46,20251030-113918,local,local,300,S,S,A,A,A-S.png,A-S.png,sS,sS,mask-3.png,mask-2.png,s,1,1.8055333000374958,h,0,1.917517099995166,0.049707300029695034,0.049717299989424646,0.10053060005884618,0.09955789998639375,0.30019460001494735
RSVPLG03,km,20251030-113416,1.0.1,20251023-100704,725,Experiment,Both,1,Automatic,main,47,20251030-113923,global,global,750,S,S,A,E,S-A.png,S-E.png,sS,sS,mask-2.png,mask-1.png,s,1,1.2147442999994382,s,1,0.06246479996480048,0.04775199992582202,0.04970810003578663,0.09913059999234974,0.09954079997260123,0.7504423999926075
RSVPLG03,km,20251030-113416,1.0.1,20251023-100704,725,Experiment,Both,1,Automatic,main,48,20251030-113928,global,global,300,S,S,E,A,S-E.png,S-A.png,sS,sS,mask-2.png,mask-3.png,s,1,0.7520470999879763,s,1,0.07854570006020367,0.04857710003852844,0.049871399998664856,0.1008687000721693,0.0997761000180617,0.3002682999940589
RSVPLG03,km,20251030-113416,1.0.1,20251023-100704,725,Experiment,Both,1,Automatic,main,49,20251030-113933,global,local,750,S,H,A,E,S-A.png,E-H.png,sS,hH,mask-3.png,mask-2.png,s,1,0.5011321000056341,s,0,0.04544220003299415,0.0497397999279201,0.04972680006176233,0.10062649997416884,0.09952940000221133,0.7509055999107659
RSVPLG03,km,20251030-113416,1.0.1,20251023-100704,725,Experiment,Both,1,Automatic,main,50,20251030-113938,local,global,300,S,H,E,E,E-S.png,H-E.png,sS,hH,mask-3.png,mask-4.png,h,0,1.4098331000423059,h,1,0.3672783999936655,0.050720600062049925,0.04988180007785559,0.10121009999420494,0.10060920007526875,0.2994236999657005
RSVPLG03,km,20251030-113416,1.0.1,20251023-100704,725,Experiment,Both,1,Automatic,main,51,20251030-113947,global,local,750,S,H,E,E,S-E.png,E-H.png,sS,hH,mask-3.png,mask-4.png,s,1,0.9451915000099689,s,0,0.0957349999807775,0.048600399983115494,0.05043559998739511,0.10058859991841018,0.10048380005173385,0.7502210999373347
RSVPLG03,km,20251030-113416,1.0.1,20251023-100704,725,Experiment,Both,1,Automatic,main,52,20251030-113952,global,local,750,H,S,E,A,H-E.png,A-S.png,hH,sS,mask-2.png,mask-4.png,h,1,0.5011563999578357,h,0,0.3497831999557093,0.04971169994678348,0.04851710004732013,0.10064700001385063,0.10034939995966852,0.7517371999565512
RSVPLG03,km,20251030-113416,1.0.1,20251023-100704,725,Experiment,Both,1,Automatic,main,53,20251030-113957,global,local,750,H,H,A,A,H-A.png,A-H.png,hH,hH,mask-2.png,mask-3.png,h,1,0.6348552999552339,h,1,0.061524300021119416,0.04960679996293038,0.05099820008035749,0.10018299997318536,0.09995850000996143,0.7498739999718964
RSVPLG03,km,20251030-113416,1.0.1,20251023-100704,725,Experiment,Both,1,Automatic,main,54,20251030-114002,local,global,300,H,S,A,E,A-H.png,S-E.png,hH,sS,mask-2.png,mask-3.png,h,1,0.7136057000607252,h,0,0.07595710002351552,0.050565200042910874,0.04951340006664395,0.10127600003033876,0.10027639998588711,0.3007145000156015
RSVPLG03,km,20251030-113416,1.0.1,20251023-100704,725,Experiment,Both,1,Automatic,main,55,20251030-114006,local,local,750,H,H,E,A,E-H.png,A-H.png,hH,hH,mask-3.png,mask-4.png,h,1,0.6126405999530107,h,1,0.08203169994521886,0.05074770003557205,0.05147440009750426,0.10110580001492053,0.10090830002445728,0.7495533999754116
RSVPLG03,km,20251030-113416,1.0.1,20251023-100704,725,Experiment,Both,1,Automatic,main,56,20251030-114011,local,global,300,S,S,A,E,A-S.png,S-E.png,sS,sS,mask-1.png,mask-1.png,s,1,1.1613434000173584,h,0,0.03026630007661879,0.04977489996235818,0.04899559996556491,0.10069300001487136,0.10082579997833818,0.29971769999247044
RSVPLG03,km,20251030-113416,1.0.1,20251023-100704,725,Experiment,Both,1,Automatic,main,57,20251030-114016,global,local,300,S,H,A,E,S-A.png,E-H.png,sS,hH,mask-3.png,mask-4.png,s,1,0.9988688000012189,s,0,0.09653590002562851,0.04875189997255802,0.049274299992248416,0.09875539992935956,0.1011154999723658,0.29922559997066855
RSVPLG03,km,20251030-113416,1.0.1,20251023-100704,725,Experiment,Both,1,Automatic,main,58,20251030-114021,global,global,750,S,S,A,A,S-A.png,S-A.png,sS,sS,mask-1.png,mask-4.png,s,1,1.0978456001030281,s,1,0.07984369993209839,0.05052550008986145,0.04975950007792562,0.10116820002440363,0.09961160004604608,0.7506561999907717
RSVPLG03,km,20251030-113416,1.0.1,20251023-100704,725,Experiment,Both,1,Automatic,main,59,20251030-114026,global,global,750,S,H,A,E,S-A.png,H-E.png,sS,hH,mask-1.png,mask-2.png,s,1,0.7666306999744847,h,1,1.0379306999966502,0.048662699991837144,0.04990240000188351,0.09963920002337545,0.10129210003651679,0.7501774999545887
RSVPLG03,km,20251030-113416,1.0.1,20251023-100704,725,Experiment,Both,1,Automatic,main,60,20251030-114032,global,global,750,H,H,E,E,H-E.png,H-E.png,hH,hH,mask-1.png,mask-4.png,h,1,0.8720127999549732,h,1,0.07808030000887811,0.04989539994858205,0.04967630002647638,0.09984489995986223,0.10050209995824844,0.7509577999589965
RSVPLG03,km,20251030-113416,1.0.1,20251023-100704,725,Experiment,Both,1,Automatic,main,61,20251030-114037,global,local,300,S,H,A,A,S-A.png,A-H.png,sS,hH,mask-4.png,mask-4.png,s,1,0.7996462999144569,s,0,0.39763100002892315,0.049694899935275316,0.04866730002686381,0.0998411999316886,0.09933510003611445,0.30032999999821186
RSVPLG03,km,20251030-113416,1.0.1,20251023-100704,725,Experiment,Both,1,Automatic,main,62,20251030-114042,local,local,300,H,H,E,A,E-H.png,A-H.png,hH,hH,mask-1.png,mask-2.png,h,1,0.8440996999852359,h,1,0.07861580001190305,0.048283200012519956,0.049132299958728254,0.10011530003976077,0.09871289995498955,0.29963750008028
RSVPLG03,km,20251030-113416,1.0.1,20251023-100704,725,Experiment,Both,1,Automatic,main,63,20251030-114047,local,local,750,H,H,E,A,E-H.png,A-H.png,hH,hH,mask-2.png,mask-4.png,h,1,1.0770654000807554,h,1,0.09802859998308122,0.04898469999898225,0.04842970008030534,0.09972719999495894,0.09922490001190454,0.7502693999558687
RSVPLG03,km,20251030-113416,1.0.1,20251023-100704,725,Experiment,Both,1,Automatic,main,64,20251030-114052,global,global,750,S,H,E,E,S-E.png,H-E.png,sS,hH,mask-3.png,mask-1.png,s,1,1.2544268000638112,s,0,0.12968779995571822,0.05082070000935346,0.05043409997597337,0.0997555999783799,0.10057520004920661,0.7503786999732256
RSVPLG03,km,20251030-113416,1.0.1,20251023-100704,725,Experiment,Both,1,Automatic,main,65,20251030-114057,local,local,300,S,H,A,A,A-S.png,A-H.png,sS,hH,mask-3.png,mask-2.png,s,1,0.8387955999933183,h,1,0.2849545000353828,0.05003569996915758,0.0491795000853017,0.09971520002000034,0.09879600000567734,0.3004463999532163
RSVPLG03,km,20251030-113416,1.0.1,20251023-100704,725,Experiment,Both,1,Automatic,main,66,20251030-114102,local,global,750,S,S,A,E,A-S.png,S-E.png,sS,sS,mask-1.png,mask-3.png,s,1,1.1051848999923095,s,1,0.09434260008856654,0.0500948999542743,0.04928669997025281,0.09937169996555895,0.0981374999973923,0.7511249999515712
RSVPLG03,km,20251030-113416,1.0.1,20251023-100704,725,Experiment,Both,1,Automatic,main,67,20251030-114108,local,global,300,S,S,A,E,A-S.png,S-E.png,sS,sS,mask-4.png,mask-2.png,s,1,1.0517435999354348,h,0,1.2120759999379516,0.04976669989991933,0.04902819998096675,0.10172079992480576,0.0993707999587059,0.29959329997655004
RSVPLG03,km,20251030-113416,1.0.1,20251023-100704,725,Experiment,Both,1,Automatic,main,68,20251030-114112,global,local,300,S,S,A,E,S-A.png,E-S.png,sS,sS,mask-2.png,mask-4.png,s,1,1.0712349000386894,s,1,0.08040390000678599,0.04968170006759465,0.049724900047294796,0.09861710004042834,0.09941390005405992,0.29920340003445745
RSVPLG03,km,20251030-113416,1.0.1,20251023-100704,725,Experiment,Both,1,Automatic,main,69,20251030-114117,global,global,300,H,S,E,E,H-E.png,S-E.png,hH,sS,mask-3.png,mask-2.png,h,1,0.8922799000283703,s,1,1.0527297001099214,0.048375000013038516,0.05017770000267774,0.0992551000090316,0.10101570002734661,0.2987142000347376
RSVPLG03,km,20251030-113416,1.0.1,20251023-100704,725,Experiment,Both,1,Automatic,main,70,20251030-114122,global,local,300,S,S,A,E,S-A.png,E-S.png,sS,sS,mask-1.png,mask-4.png,s,1,0.5568698000861332,s,1,0.07887940004002303,0.051404900033958256,0.049658100004307926,0.10054930008482188,0.10011759994085878,0.3012692000484094
RSVPLG03,km,20251030-113416,1.0.1,20251023-100704,725,Experiment,Both,1,Automatic,main,71,20251030-114126,local,local,300,S,H,A,E,A-S.png,E-H.png,sS,hH,mask-2.png,mask-4.png,s,1,0.8570875000441447,h,1,0.01627959997858852,0.05020079994574189,0.05079669994302094,0.10003079997841269,0.10169409995432943,0.29966829996556044
RSVPLG03,km,20251030-113416,1.0.1,20251023-100704,725,Experiment,Both,1,Automatic,main,72,20251030-114131,global,global,300,H,S,A,E,H-A.png,S-E.png,hH,sS,mask-4.png,mask-1.png,h,1,0.8052940000779927,s,1,0.6222857000539079,0.0491913000587374,0.050196200027130544,0.09869820007588714,0.09958160005044192,0.2998571000061929
RSVPLG03,km,20251030-113416,1.0.1,20251023-100704,725,Experiment,Both,1,Automatic,main,73,20251030-114136,local,global,750,S,H,E,A,E-S.png,H-A.png,sS,hH,mask-1.png,mask-2.png,s,1,2.807019400061108,s,0,0.07889160001650453,0.04970450000837445,0.04887949989642948,0.10160299995914102,0.09951909992378205,0.7517577999969944
RSVPLG03,km,20251030-113416,1.0.1,20251023-100704,725,Experiment,Both,1,Automatic,main,74,20251030-114143,local,local,750,H,S,A,A,A-H.png,A-S.png,hH,sS,mask-1.png,mask-3.png,h,1,1.0613351000938565,s,1,0.014515399932861328,0.051101500052027404,0.050600199960172176,0.10139800002798438,0.1002769999904558,0.7504845000803471
RSVPLG03,km,20251030-113416,1.0.1,20251023-100704,725,Experiment,Both,1,Automatic,main,75,20251030-114148,global,local,750,H,H,A,E,H-A.png,E-H.png,hH,hH,mask-2.png,mask-4.png,h,1,1.1794101999839768,s,0,0.3195444999728352,0.04985700000543147,0.04961999994702637,0.10075850004795939,0.10139199998229742,0.7498787000076845
RSVPLG03,km,20251030-113416,1.0.1,20251023-100704,725,Experiment,Both,1,Automatic,main,76,20251030-114203,global,local,750,H,S,A,A,H-A.png,A-S.png,hH,sS,mask-4.png,mask-4.png,h,1,2.6392635999945924,h,0,0.07911970000714064,0.049744500080123544,0.049726300057955086,0.09956520004197955,0.09958479995839298,0.7514893000479788
RSVPLG03,km,20251030-113416,1.0.1,20251023-100704,725,Experiment,Both,1,Automatic,main,77,20251030-114210,local,global,750,S,S,E,A,E-S.png,S-A.png,sS,sS,mask-4.png,mask-2.png,h,0,0.9704727000789717,h,0,0.11028289992827922,0.0491905000526458,0.04856959998141974,0.1000596999656409,0.09919789992272854,0.7506011000368744
RSVPLG03,km,20251030-113416,1.0.1,20251023-100704,725,Experiment,Both,1,Automatic,main,78,20251030-114215,global,global,300,H,S,E,E,H-E.png,S-E.png,hH,sS,mask-4.png,mask-2.png,h,1,1.097285500029102,s,1,0.09435319993644953,0.051324800006113946,0.05170810001436621,0.1011919000884518,0.10062310006469488,0.299719600006938
RSVPLG03,km,20251030-113416,1.0.1,20251023-100704,725,Experiment,Both,1,Automatic,main,79,20251030-114220,local,global,300,S,S,E,A,E-S.png,S-A.png,sS,sS,mask-3.png,mask-3.png,s,1,0.9726357999024913,s,1,0.07926849997602403,0.051585600012913346,0.05112169997300953,0.10161669994704425,0.1011022999882698,0.30045900004915893
RSVPLG03,km,20251030-113416,1.0.1,20251023-100704,725,Experiment,Both,1,Automatic,main,80,20251030-114225,local,local,300,S,S,E,E,E-S.png,E-S.png,sS,sS,mask-4.png,mask-2.png,s,1,0.8323775000171736,h,0,0.5741812998894602,0.049766400014050305,0.0490785000147298,0.0989227999234572,0.09901870007161051,0.30085749994032085
RSVPLG03,km,20251030-113416,1.0.1,20251023-100704,725,Experiment,Both,1,Automatic,main,81,20251030-114230,global,global,750,S,S,E,E,S-E.png,S-E.png,sS,sS,mask-1.png,mask-2.png,h,0,0.7940129999769852,s,1,0.10973679996095598,0.050788699998520315,0.04986979998648167,0.1006985999410972,0.09892480005510151,0.7510318999411538
RSVPLG03,km,20251030-113416,1.0.1,20251023-100704,725,Experiment,Both,1,Automatic,main,82,20251030-114235,global,global,300,S,S,E,E,S-E.png,S-E.png,sS,sS,mask-2.png,mask-2.png,h,0,0.5893058000365272,s,1,0.6551564000546932,0.050132400006987154,0.04925459995865822,0.1001350999576971,0.09978309995494783,0.3004652999807149
RSVPLG03,km,20251030-113416,1.0.1,20251023-100704,725,Experiment,Both,1,Automatic,main,83,20251030-114240,local,global,300,H,H,A,E,A-H.png,H-E.png,hH,hH,mask-4.png,mask-2.png,h,1,1.105641599977389,h,1,0.07948580000083894,0.04970390000380576,0.050981300068087876,0.10063490003813058,0.10092690004967153,0.30020289996173233
RSVPLG03,km,20251030-113416,1.0.1,20251023-100704,725,Experiment,Both,1,Automatic,main,84,20251030-114245,local,local,750,S,S,A,A,A-S.png,A-S.png,sS,sS,mask-4.png,mask-1.png,s,1,0.9783988998970017,h,0,0.02916819998063147,0.04978010000195354,0.04869419999886304,0.09979300003033131,0.10049609991256148,0.7509061000309885
RSVPLG03,km,20251030-113416,1.0.1,20251023-100704,725,Experiment,Both,1,Automatic,main,85,20251030-114250,global,local,300,S,H,A,E,S-A.png,E-H.png,sS,hH,mask-3.png,mask-3.png,s,1,1.0210763000650331,s,0,0.07791029999498278,0.05094180000014603,0.048902399954386055,0.10122060007415712,0.09859850001521409,0.30166330002248287
RSVPLG03,km,20251030-113416,1.0.1,20251023-100704,725,Experiment,Both,1,Automatic,main,86,20251030-114255,global,global,300,S,S,E,A,S-E.png,S-A.png,sS,sS,mask-1.png,mask-2.png,h,0,0.9967386999633163,s,1,0.49283989996183664,0.04962810000870377,0.04878339997958392,0.10044399998150766,0.10011100000701845,0.3008389000315219
RSVPLG03,km,20251030-113416,1.0.1,20251023-100704,725,Experiment,Both,1,Automatic,main,87,20251030-114300,global,global,750,S,H,E,A,S-E.png,H-A.png,sS,hH,mask-3.png,mask-4.png,s,1,0.505629500024952,h,1,0.06301699997857213,0.05136519996449351,0.04864259995520115,0.10067950002849102,0.09959400002844632,0.7523398000048473
RSVPLG03,km,20251030-113416,1.0.1,20251023-100704,725,Experiment,Both,1,Automatic,main,88,20251030-114305,local,local,750,H,H,E,A,E-H.png,A-H.png,hH,hH,mask-3.png,mask-4.png,h,1,0.9459482999518514,h,1,0.06234459998086095,0.04852229997050017,0.051227199961431324,0.09990719996858388,0.10036789998412132,0.7492752000689507
RSVPLG03,km,20251030-113416,1.0.1,20251023-100704,725,Experiment,Both,1,Automatic,main,89,20251030-114311,global,global,300,H,S,E,A,H-E.png,S-A.png,hH,sS,mask-3.png,mask-4.png,h,1,1.3291140000801533,h,0,0.2561965000350028,0.04754200007300824,0.049375099944882095,0.09930440003518015,0.09931309998501092,0.29948050004895777
RSVPLG03,km,20251030-113416,1.0.1,20251023-100704,725,Experiment,Both,1,Automatic,main,90,20251030-114316,global,global,750,S,H,E,A,S-E.png,H-A.png,sS,hH,mask-2.png,mask-2.png,s,1,1.1146626999834552,h,1,0.2715300000272691,0.04932689992710948,0.05115710000973195,0.09993519994895905,0.0998498999979347,0.7499147999333218
RSVPLG03,km,20251030-113416,1.0.1,20251023-100704,725,Experiment,Both,1,Automatic,main,91,20251030-114321,global,local,300,S,S,E,E,S-E.png,E-S.png,sS,sS,mask-2.png,mask-4.png,s,1,0.6357702000532299,s,1,0.18733849993441254,0.04975810006726533,0.048819700023159385,0.09988280001562089,0.09900849999394268,0.30071149999275804
RSVPLG03,km,20251030-113416,1.0.1,20251023-100704,725,Experiment,Both,1,Automatic,main,92,20251030-114326,local,global,300,H,H,E,E,E-H.png,H-E.png,hH,hH,mask-2.png,mask-3.png,h,1,0.9142304999986663,h,1,0.17715070000849664,0.05070700007490814,0.05120449990499765,0.10089820006396621,0.1006747999927029,0.30041960009839386
RSVPLG03,km,20251030-113416,1.0.1,20251023-100704,725,Experiment,Both,1,Automatic,main,93,20251030-114331,global,local,300,H,H,E,A,H-E.png,A-H.png,hH,hH,mask-3.png,mask-3.png,h,1,0.9416551000904292,h,1,0.3200092000188306,0.048748199944384396,0.05058629997074604,0.09961599996313453,0.10131169995293021,0.2988743999740109
RSVPLG03,km,20251030-113416,1.0.1,20251023-100704,725,Experiment,Both,1,Automatic,main,94,20251030-114336,global,global,750,H,H,E,A,H-E.png,H-A.png,hH,hH,mask-4.png,mask-2.png,h,1,0.51319450000301,h,1,0.09435520006809384,0.04982760001439601,0.048610699945129454,0.0991498000221327,0.10001829999964684,0.7499337000772357
RSVPLG03,km,20251030-113416,1.0.1,20251023-100704,725,Experiment,Both,1,Automatic,main,95,20251030-114341,global,local,750,H,H,A,A,H-A.png,A-H.png,hH,hH,mask-2.png,mask-1.png,h,1,0.43974770000204444,h,1,0.0927191999508068,0.05033139989245683,0.04974349995609373,0.10076359997037798,0.09957359998952597,0.7516160999657586
RSVPLG03,km,20251030-113416,1.0.1,20251023-100704,725,Experiment,Both,1,Automatic,main,96,20251030-114345,local,local,300,S,S,A,A,A-S.png,A-S.png,sS,sS,mask-3.png,mask-4.png,s,1,0.6567577000241727,s,1,0.11182990006636828,0.047677199938334525,0.05013200000394136,0.0979821999790147,0.09938429994508624,0.2984479999868199
RSVPLG03,km,20251030-113416,1.0.1,20251023-100704,725,Experiment,Both,1,Automatic,main,97,20251030-114350,local,local,750,H,S,E,E,E-H.png,E-S.png,hH,sS,mask-3.png,mask-3.png,h,1,0.9263567000161856,s,1,0.10836730001028627,0.04969750007148832,0.04968659998849034,0.09838040010072291,0.10063919995445758,0.7498261000728235
RSVPLG03,km,20251030-113416,1.0.1,20251023-100704,725,Experiment,Both,1,Automatic,main,98,20251030-114355,global,local,750,S,H,E,A,S-E.png,A-H.png,sS,hH,mask-3.png,mask-3.png,s,1,0.8726122000953183,h,1,0.09670609992463142,0.04936659999657422,0.049847800051793456,0.09884560003411025,0.09942510002292693,0.7507144999690354
RSVPLG03,km,20251030-113416,1.0.1,20251023-100704,725,Experiment,Both,1,Automatic,main,99,20251030-114400,local,local,750,H,S,A,A,A-H.png,A-S.png,hH,sS,mask-4.png,mask-2.png,h,1,1.0511914000380784,s,1,0.032367700012400746,0.050739799975417554,0.04978010000195354,0.10032899992074817,0.09955500008072704,0.7510320999426767
RSVPLG03,km,20251030-113416,1.0.1,20251023-100704,725,Experiment,Both,1,Automatic,main,100,20251030-114406,local,local,300,H,H,E,A,E-H.png,A-H.png,hH,hH,mask-2.png,mask-1.png,h,1,1.3088769000023603,h,1,0.09537539992015809,0.050857100053690374,0.04951369995251298,0.10180400009267032,0.10009909991640598,0.3006329000927508
RSVPLG03,km,20251030-113416,1.0.1,20251023-100704,725,Experiment,Both,1,Automatic,main,101,20251030-114413,global,global,300,S,S,A,A,S-A.png,S-A.png,sS,sS,mask-3.png,mask-3.png,s,1,1.453964599990286,h,0,0.030504899914376438,0.04969779995735735,0.05027769994921982,0.10135779995471239,0.09962180000729859,0.3004511999897659
RSVPLG03,km,20251030-113416,1.0.1,20251023-100704,725,Experiment,Both,1,Automatic,main,102,20251030-114418,global,global,300,H,H,E,A,H-E.png,H-A.png,hH,hH,mask-4.png,mask-3.png,h,1,0.9946205000160262,h,1,0.09773889998905361,0.05028269998729229,0.049535300000570714,0.10052820004057139,0.09941030002664775,0.30094450002070516
RSVPLG03,km,20251030-113416,1.0.1,20251023-100704,725,Experiment,Both,1,Automatic,main,103,20251030-114423,global,local,300,H,H,A,E,H-A.png,E-H.png,hH,hH,mask-3.png,mask-1.png,h,1,1.04172620002646,h,1,0.38337240007240325,0.05122700007632375,0.049662700039334595,0.1002662000246346,0.1001676000887528,0.3007123999996111
RSVPLG03,km,20251030-113416,1.0.1,20251023-100704,725,Experiment,Both,1,Automatic,main,104,20251030-114428,local,local,300,S,S,E,A,E-S.png,A-S.png,sS,sS,mask-4.png,mask-3.png,s,1,0.5462621999904513,s,1,0.111542500089854,0.05069159995764494,0.04957729997113347,0.09973479993641376,0.10023630002979189,0.2999121999600902
RSVPLG03,km,20251030-113416,1.0.1,20251023-100704,725,Experiment,Both,1,Automatic,main,105,20251030-114432,global,local,750,S,S,E,A,S-E.png,A-S.png,sS,sS,mask-1.png,mask-4.png,s,1,1.5559103999985382,h,0,0.015422399970702827,0.05012610007543117,0.05032239994034171,0.10037990007549524,0.09903649997431785,0.7511845000553876
RSVPLG03,km,20251030-113416,1.0.1,20251023-100704,725,Experiment,Both,1,Automatic,main,106,20251030-114438,local,local,750,H,S,E,A,E-H.png,A-S.png,hH,sS,mask-1.png,mask-4.png,h,1,0.9631716000149027,s,1,0.1439762000227347,0.049041899968869984,0.04902390006463975,0.09946820000186563,0.09864620002917945,0.7513881999766454
RSVPLG03,km,20251030-113416,1.0.1,20251023-100704,725,Experiment,Both,1,Automatic,main,107,20251030-114443,global,local,750,S,H,A,A,S-A.png,A-H.png,sS,hH,mask-2.png,mask-4.png,s,1,2.212682400015183,h,1,0.14319599990267307,0.050141299958340824,0.05048600002191961,0.10166499996557832,0.1015675999224186,0.7500498000299558
RSVPLG03,km,20251030-113416,1.0.1,20251023-100704,725,Experiment,Both,1,Automatic,main,108,20251030-114450,local,local,300,H,H,E,E,E-H.png,E-H.png,hH,hH,mask-3.png,mask-3.png,s,0,2.111734600039199,h,1,0.06336050003301352,0.05048830003943294,0.05011059995740652,0.09972479997668415,0.09981070004869252,0.2994567999849096
RSVPLG03,km,20251030-113416,1.0.1,20251023-100704,725,Experiment,Both,1,Automatic,main,109,20251030-114456,local,global,750,S,H,A,A,A-S.png,H-A.png,sS,hH,mask-2.png,mask-3.png,h,0,1.148905499954708,h,1,0.06555289996322244,0.04904140008147806,0.05061750009190291,0.09903520008083433,0.1011543000349775,0.7496310999849811
RSVPLG03,km,20251030-113416,1.0.1,20251023-100704,725,Experiment,Both,1,Automatic,main,110,20251030-114501,local,local,750,S,S,A,E,A-S.png,E-S.png,sS,sS,mask-3.png,mask-3.png,s,1,0.6223838999867439,s,1,0.09562869998626411,0.05060379998758435,0.050121900043450296,0.10033899999689311,0.09961060003843158,0.7498957000207156
RSVPLG03,km,20251030-113416,1.0.1,20251023-100704,725,Experiment,Both,1,Automatic,main,111,20251030-114506,local,global,300,S,H,A,A,A-S.png,H-A.png,sS,hH,mask-3.png,mask-3.png,s,1,0.7934840000234544,h,1,0.5423510000109673,0.05008750001434237,0.049393200082704425,0.10159129998646677,0.09959460003301501,0.3004643999738619
RSVPLG03,km,20251030-113416,1.0.1,20251023-100704,725,Experiment,Both,1,Automatic,main,112,20251030-114511,local,global,300,S,S,A,A,A-S.png,S-A.png,sS,sS,mask-2.png,mask-2.png,s,1,0.902947900001891,s,1,0.11150960007216781,0.04956079996190965,0.04907240008469671,0.09916919993702322,0.09891210007481277,0.300749099929817
RSVPLG03,km,20251030-113416,1.0.1,20251023-100704,725,Experiment,Both,1,Automatic,main,113,20251030-114516,global,global,750,S,S,A,E,S-A.png,S-E.png,sS,sS,mask-4.png,mask-4.png,s,1,0.6404298999113962,s,1,0.09641009999904782,0.04967950005084276,0.04975819995161146,0.1004221000475809,0.10177660000044852,0.7500992000568658
RSVPLG03,km,20251030-113416,1.0.1,20251023-100704,725,Experiment,Both,1,Automatic,main,114,20251030-114521,local,local,750,H,H,E,A,E-H.png,A-H.png,hH,hH,mask-4.png,mask-1.png,h,1,0.680527999997139,h,1,0.07880550005938858,0.048676300095394254,0.0499072999227792,0.09872550005093217,0.09975049993954599,0.750533000100404
RSVPLG03,km,20251030-113416,1.0.1,20251023-100704,725,Experiment,Both,1,Automatic,main,115,20251030-114526,global,global,300,H,S,A,A,H-A.png,S-A.png,hH,sS,mask-3.png,mask-3.png,h,1,0.9068853999488056,s,1,0.06347669998649508,0.049825800000689924,0.049129299935884774,0.10036110004875809,0.09935589996166527,0.29938640003092587
RSVPLG03,km,20251030-113416,1.0.1,20251023-100704,725,Experiment,Both,1,Automatic,main,116,20251030-114530,local,local,300,S,H,E,E,E-S.png,E-H.png,sS,hH,mask-4.png,mask-4.png,h,0,0.9533355999737978,h,1,0.07940300006885082,0.04900270001962781,0.04819960007444024,0.09866240003611892,0.09818380000069737,0.3002013999503106
RSVPLG03,km,20251030-113416,1.0.1,20251023-100704,725,Experiment,Both,1,Automatic,main,117,20251030-114535,global,local,300,H,S,E,A,H-E.png,A-S.png,hH,sS,mask-1.png,mask-4.png,h,1,0.5350095999892801,s,1,0.07998389995191246,0.05081249994691461,0.04974649997893721,0.0999667999567464,0.09867979993578047,0.3018746000016108
RSVPLG03,km,20251030-113416,1.0.1,20251023-100704,725,Experiment,Both,1,Automatic,main,118,20251030-114539,local,local,750,H,S,A,A,A-H.png,A-S.png,hH,sS,mask-3.png,mask-4.png,h,1,1.3914697000291198,s,1,0.5453441999852657,0.048831299995072186,0.05005900003015995,0.10019559995271266,0.09991670004092157,0.7495312999235466
RSVPLG03,km,20251030-113416,1.0.1,20251023-100704,725,Experiment,Both,1,Automatic,main,119,20251030-114546,local,global,750,S,S,A,A,A-S.png,S-A.png,sS,sS,mask-1.png,mask-4.png,s,1,0.5383289000019431,s,1,0.1910687000490725,0.04974190006032586,0.049728999962098897,0.09946050005964935,0.10165749990846962,0.7497668000869453
RSVPLG03,km,20251030-113416,1.0.1,20251023-100704,725,Experiment,Both,1,Automatic,main,120,20251030-114550,global,global,300,S,S,A,A,S-A.png,S-A.png,sS,sS,mask-3.png,mask-4.png,s,1,0.7873808000003919,s,1,0.0964787999400869,0.050725100096315145,0.04815849999431521,0.10087540000677109,0.09816349996253848,0.301795200095512
RSVPLG03,km,20251030-113416,1.0.1,20251023-100704,725,Experiment,Both,1,Automatic,main,121,20251030-114555,local,local,300,H,S,A,A,A-H.png,A-S.png,hH,sS,mask-3.png,mask-3.png,h,1,0.5914585000136867,h,0,0.09512449998874217,0.05009699997026473,0.05070360004901886,0.09995299996808171,0.09919420001097023,0.3006776999682188
RSVPLG03,km,20251030-113416,1.0.1,20251023-100704,725,Experiment,Both,1,Automatic,main,122,20251030-114559,global,global,750,H,S,A,E,H-A.png,S-E.png,hH,sS,mask-2.png,mask-1.png,h,1,0.6297173000639305,s,1,0.04777589999139309,0.04861319996416569,0.05035369994584471,0.09776229993440211,0.10034709994215518,0.7487789000151679
RSVPLG03,km,20251030-113416,1.0.1,20251023-100704,725,Experiment,Both,1,Automatic,main,123,20251030-114604,global,local,750,H,H,E,E,H-E.png,E-H.png,hH,hH,mask-2.png,mask-1.png,h,1,0.6170951999956742,s,0,0.049485000083222985,0.05128739995416254,0.050424300017766654,0.09964849997777492,0.10077270003966987,0.7504900000058115
RSVPLG03,km,20251030-113416,1.0.1,20251023-100704,725,Experiment,Both,1,Automatic,main,124,20251030-114609,global,global,300,H,H,A,E,H-A.png,H-E.png,hH,hH,mask-2.png,mask-3.png,h,1,0.34594220004510134,h,1,0.0820835999911651,0.05116100003942847,0.05012290005106479,0.09999290003906935,0.10027170006651431,0.3002048999769613
RSVPLG03,km,20251030-113416,1.0.1,20251023-100704,725,Experiment,Both,1,Automatic,main,125,20251030-114613,local,global,750,S,H,A,A,A-S.png,H-A.png,sS,hH,mask-3.png,mask-4.png,s,1,0.584700100007467,s,0,0.09354030003305525,0.04868839995469898,0.049546899972483516,0.09890410001389682,0.09919680003076792,0.7501963999820873
RSVPLG03,km,20251030-114703,1.0.1,20251023-100704,725,Experiment,Both,1,Automatic,warmup,1,20251030-114729,local,global,750,S,S,E,A,E-S.png,S-A.png,sS,sS,mask-2.png,mask-2.png,s,1,1.4236968000186607,h,0,1.0705994000891224,0.03981370001565665,0.05046229995787144,0.09000339999329299,0.10112679994199425,0.7414886000333354
RSVPLG03,km,20251030-114703,1.0.1,20251023-100704,725,Experiment,Both,1,Automatic,warmup,2,20251030-114736,global,local,300,H,H,A,E,H-A.png,E-H.png,hH,hH,mask-2.png,mask-1.png,h,1,0.7570067000342533,s,0,0.9014463999774307,0.04941119998693466,0.05033420003019273,0.10042060003615916,0.1017922000028193,0.29894649994093925
RSVPLG03,km,20251030-114703,1.0.1,20251023-100704,725,Experiment,Both,1,Automatic,warmup,3,20251030-114740,local,local,750,H,S,A,E,A-H.png,E-S.png,hH,sS,mask-2.png,mask-4.png,h,1,0.8417434999719262,s,1,0.04569459997583181,0.048530399915762246,0.0509275000076741,0.10008809994906187,0.09972510009538382,0.7509220999199897
RSVPLG03,km,20251030-114703,1.0.1,20251023-100704,725,Experiment,Both,1,Automatic,warmup,4,20251030-114745,global,global,750,H,S,A,A,H-A.png,S-A.png,hH,sS,mask-2.png,mask-1.png,h,1,0.43305160000454634,s,1,0.049438999965786934,0.04870819998905063,0.05005409999284893,0.09860180004034191,0.10043180000502616,0.7509604999795556
RSVPLG03,km,20251030-114703,1.0.1,20251023-100704,725,Experiment,Both,1,Automatic,warmup,5,20251030-114750,local,local,300,S,H,E,A,E-S.png,A-H.png,sS,hH,mask-1.png,mask-2.png,s,1,0.9749443999025971,h,1,0.00042429997120052576,0.05173330008983612,0.05135640001390129,0.10037080000620335,0.10018089995719492,0.30073890008497983
RSVPLG03,km,20251030-114703,1.0.1,20251023-100704,725,Experiment,Both,1,Automatic,main,6,20251030-114754,local,global,750,H,S,E,E,E-H.png,S-E.png,hH,sS,mask-3.png,mask-2.png,h,1,0.4810506000649184,h,0,0.09586570004466921,0.049405100056901574,0.048361700028181076,0.10002660006284714,0.09832230000756681,0.7520355000160635
RSVPLG03,km,20251030-114703,1.0.1,20251023-100704,725,Experiment,Both,1,Automatic,main,7,20251030-114759,global,global,300,S,H,E,A,S-E.png,H-A.png,sS,hH,mask-1.png,mask-4.png,s,1,0.4944767999695614,h,1,0.12726620002649724,0.0497401999309659,0.050187400076538324,0.09987689997069538,0.10044150007888675,0.3007032999303192
RSVPLG03,km,20251030-114703,1.0.1,20251023-100704,725,Experiment,Both,1,Automatic,main,8,20251030-114803,local,local,300,S,H,A,A,A-S.png,A-H.png,sS,hH,mask-2.png,mask-1.png,s,1,0.4958385000936687,h,1,0.6401634000940248,0.04927419999148697,0.05027080001309514,0.09831499995198101,0.10001249995548278,0.2998240999877453
RSVPLG03,km,20251030-114703,1.0.1,20251023-100704,725,Experiment,Both,1,Automatic,main,9,20251030-114808,global,global,750,H,H,A,A,H-A.png,H-A.png,hH,hH,mask-4.png,mask-4.png,h,1,0.923502100049518,h,1,0.07919030007906258,0.049751700018532574,0.051093799993395805,0.102188799995929,0.09950010001193732,0.751644300064072
RSVPLG03,km,20251030-114703,1.0.1,20251023-100704,725,Experiment,Both,1,Automatic,main,10,20251030-114813,global,local,750,H,S,E,E,H-E.png,E-S.png,hH,sS,mask-4.png,mask-3.png,h,1,0.5226205999497324,s,1,0.06275929999537766,0.05102030001580715,0.04873439995571971,0.10065499995835125,0.1001101000001654,0.7525663999840617
RSVPLG03,km,20251030-114703,1.0.1,20251023-100704,725,Experiment,Both,1,Automatic,main,11,20251030-114818,local,global,300,S,H,E,E,E-S.png,H-E.png,sS,hH,mask-3.png,mask-1.png,s,1,1.0126552999718115,s,0,0.14360899990424514,0.04826049995608628,0.04841899999883026,0.09907120000571012,0.09870849992148578,0.30094430001918226
RSVPLG03,km,20251030-114703,1.0.1,20251023-100704,725,Experiment,Both,1,Automatic,main,12,20251030-114822,global,global,300,S,H,A,A,S-A.png,H-A.png,sS,hH,mask-1.png,mask-3.png,h,0,0.5391044999705628,s,0,0.09467819996643811,0.050647999974898994,0.04975489992648363,0.09933070000261068,0.09969539998564869,0.30040599999483675
RSVPLG03,km,20251030-114703,1.0.1,20251023-100704,725,Experiment,Both,1,Automatic,main,13,20251030-114827,local,global,750,H,S,A,E,A-H.png,S-E.png,hH,sS,mask-3.png,mask-1.png,s,0,1.671661900007166,h,0,0.8315633001038805,0.04972170002292842,0.050974000012502074,0.10152580006979406,0.10134259995538741,0.7510143000399694
RSVPLG03,km,20251030-114703,1.0.1,20251023-100704,725,Experiment,Both,1,Automatic,main,14,20251030-114833,local,global,300,S,H,E,E,E-S.png,H-E.png,sS,hH,mask-4.png,mask-3.png,s,1,2.413984699989669,h,1,0.35086960007902235,0.050050999969244,0.0505260000936687,0.09892529994249344,0.10005750006530434,0.29990519990678877
RSVPLG03,km,20251030-114703,1.0.1,20251023-100704,725,Experiment,Both,1,Automatic,main,15,20251030-114840,local,global,750,S,S,E,E,E-S.png,S-E.png,sS,sS,mask-2.png,mask-1.png,s,1,1.0030940000433475,h,0,1.1470793000189587,0.05013150000013411,0.04993039998225868,0.1004329000134021,0.0986397999804467,0.7531150999711826
RSVPLG03,km,20251030-114703,1.0.1,20251023-100704,725,Experiment,Both,1,Automatic,main,16,20251030-114845,local,global,300,S,H,E,A,E-S.png,H-A.png,sS,hH,mask-4.png,mask-2.png,s,1,0.5918053999776021,s,0,0.1281847000354901,0.05002530000638217,0.050444799941033125,0.09993829997256398,0.09983189997728914,0.2990655000321567
RSVPLG03,km,20251030-114703,1.0.1,20251023-100704,725,Experiment,Both,1,Automatic,main,17,20251030-114849,local,local,300,S,S,E,A,E-S.png,A-S.png,sS,sS,mask-3.png,mask-1.png,s,1,0.4011199000524357,s,1,0.17567650007549673,0.049895299947820604,0.049720500013791025,0.10095250001177192,0.10085399996023625,0.3006625999696553
RSVPLG03,km,20251030-114703,1.0.1,20251023-100704,725,Experiment,Both,1,Automatic,main,18,20251030-114854,global,local,750,H,S,E,E,H-E.png,E-S.png,hH,sS,mask-3.png,mask-3.png,h,1,0.32984259992372245,s,1,0.1430332000600174,0.04904509999323636,0.05109470000024885,0.09861139999702573,0.10072999994736165,0.7503334999782965
RSVPLG03,km,20251030-114703,1.0.1,20251023-100704,725,Experiment,Both,1,Automatic,main,19,20251030-114859,global,local,300,H,H,A,E,H-A.png,E-H.png,hH,hH,mask-2.png,mask-4.png,h,1,0.6760892000747845,h,1,0.11152500007301569,0.04910679999738932,0.051456799963489175,0.09957139997277409,0.09978399996180087,0.30016999994404614
RSVPLG03,km,20251030-114703,1.0.1,20251023-100704,725,Experiment,Both,1,Automatic,main,20,20251030-114903,local,global,750,S,S,A,A,A-S.png,S-A.png,sS,sS,mask-4.png,mask-4.png,s,1,1.384707699995488,s,1,0.9289496999699622,0.050194400013424456,0.049673000001348555,0.09954720002133399,0.09997460001613945,0.7518959000008181
RSVPLG03,km,20251030-114703,1.0.1,20251023-100704,725,Experiment,Both,1,Automatic,main,21,20251030-114909,global,local,300,H,S,E,E,H-E.png,E-S.png,hH,sS,mask-1.png,mask-3.png,h,1,0.5878844999242574,s,1,0.030798800056800246,0.04957559995818883,0.048782699974253774,0.09978960000444204,0.09860230004414916,0.3019493999890983
RSVPLG03,km,20251030-114703,1.0.1,20251023-100704,725,Experiment,Both,1,Automatic,main,22,20251030-114914,global,global,750,H,S,E,E,H-E.png,S-E.png,hH,sS,mask-4.png,mask-1.png,h,1,0.5453980000456795,s,1,0.6070993000175804,0.04864719999022782,0.050296899979002774,0.09967559995129704,0.10083179990760982,0.7504924000240862
RSVPLG03,km,20251030-114703,1.0.1,20251023-100704,725,Experiment,Both,1,Automatic,main,23,20251030-114919,local,local,750,H,S,E,A,E-H.png,A-S.png,hH,sS,mask-3.png,mask-4.png,h,1,0.3078263000352308,s,1,0.09613670001272112,0.049154400010593235,0.05004840006586164,0.09978819999378175,0.10082930000498891,0.7506714999908581
RSVPLG03,km,20251030-114703,1.0.1,20251023-100704,725,Experiment,Both,1,Automatic,main,24,20251030-114924,global,global,300,H,H,A,A,H-A.png,H-A.png,hH,hH,mask-2.png,mask-2.png,h,1,0.8155380999669433,s,0,0.12759510008618236,0.04991990001872182,0.04897829995024949,0.10011280002072453,0.09916710003744811,0.30016350001096725
RSVPLG03,km,20251030-114703,1.0.1,20251023-100704,725,Experiment,Both,1,Automatic,main,25,20251030-114928,local,local,750,H,H,E,E,E-H.png,E-H.png,hH,hH,mask-3.png,mask-4.png,h,1,0.8891992000862956,s,0,0.06476790003944188,0.05206529994029552,0.04971069993916899,0.10241069993935525,0.09920279996003956,0.7533157999860123
RSVPLG03,km,20251030-114703,1.0.1,20251023-100704,725,Experiment,Both,1,Automatic,main,26,20251030-114935,local,local,300,H,S,E,A,E-H.png,A-S.png,hH,sS,mask-3.png,mask-4.png,h,1,0.5352277000201866,s,1,0.12687240005470812,0.0496858999831602,0.04994619998615235,0.10002730006817728,0.10027010005433112,0.30045420001260936
RSVPLG03,km,20251030-114703,1.0.1,20251023-100704,725,Experiment,Both,1,Automatic,main,27,20251030-114939,global,local,750,S,H,E,E,S-E.png,E-H.png,sS,hH,mask-2.png,mask-3.png,s,1,0.7896462000207976,s,0,0.09551050001755357,0.051450599916279316,0.04851780005265027,0.10026330000255257,0.09915889997500926,0.7530657999450341
RSVPLG03,km,20251030-114703,1.0.1,20251023-100704,725,Experiment,Both,1,Automatic,main,28,20251030-114944,global,global,300,S,S,A,E,S-A.png,S-E.png,sS,sS,mask-1.png,mask-3.png,s,1,0.5153682000236586,s,1,0.0957860000198707,0.04953819990623742,0.05173489998560399,0.09849999996367842,0.10104270000010729,0.298783199978061
RSVPLG03,km,20251030-114703,1.0.1,20251023-100704,725,Experiment,Both,1,Automatic,main,29,20251030-114949,local,global,300,S,S,E,A,E-S.png,S-A.png,sS,sS,mask-3.png,mask-3.png,s,1,0.6533932000165805,s,1,0.09550039994064718,0.04763229994568974,0.04832649999298155,0.09938000002875924,0.09994009998627007,0.30053590005263686
RSVPLG03,km,20251030-114703,1.0.1,20251023-100704,725,Experiment,Both,1,Automatic,main,30,20251030-114953,local,local,300,S,S,E,E,E-S.png,E-S.png,sS,sS,mask-1.png,mask-4.png,s,1,0.5184272999176756,s,1,0.09456150000914931,0.04900689993519336,0.04981909994967282,0.09933300002012402,0.10099639999680221,0.3000426000216976
RSVPLG03,km,20251030-114703,1.0.1,20251023-100704,725,Experiment,Both,1,Automatic,main,31,20251030-114957,global,global,750,S,H,A,E,S-A.png,H-E.png,sS,hH,mask-1.png,mask-1.png,s,1,0.402595299994573,h,1,0.047118599992245436,0.051168099977076054,0.0489616000559181,0.10093800001777709,0.10068590007722378,0.7530176999280229
RSVPLG03,km,20251030-114703,1.0.1,20251023-100704,725,Experiment,Both,1,Automatic,main,32,20251030-115002,local,global,300,H,S,E,E,E-H.png,S-E.png,hH,sS,mask-4.png,mask-1.png,h,1,0.7395478000398725,s,1,0.1426223999587819,0.051004900014959276,0.04977329995017499,0.10032179998233914,0.09925979992840439,0.3016375000588596
RSVPLG03,km,20251030-114703,1.0.1,20251023-100704,725,Experiment,Both,1,Automatic,main,33,20251030-115007,local,global,300,S,H,A,A,A-S.png,H-A.png,sS,hH,mask-1.png,mask-3.png,s,1,1.99540779995732,s,0,0.3847462000558153,0.050083499983884394,0.04966220003552735,0.10203670000191778,0.10073940001893789,0.30116689996793866
RSVPLG03,km,20251030-114703,1.0.1,20251023-100704,725,Experiment,Both,1,Automatic,main,34,20251030-115013,global,local,300,H,H,E,A,H-E.png,A-H.png,hH,hH,mask-1.png,mask-3.png,h,1,2.605786999920383,h,1,0.0788324000313878,0.0504095999058336,0.04970179998781532,0.10146339994389564,0.10011530003976077,0.30071829992812127
RSVPLG03,km,20251030-114703,1.0.1,20251023-100704,725,Experiment,Both,1,Automatic,main,35,20251030-115019,global,local,300,S,S,A,A,S-A.png,A-S.png,sS,sS,mask-3.png,mask-2.png,s,1,0.6173257000045851,s,1,0.15942240005824715,0.0506740000564605,0.050901200040243566,0.10039360006339848,0.10086640005465597,0.3004526000004262
RSVPLG03,km,20251030-114703,1.0.1,20251023-100704,725,Experiment,Both,1,Automatic,main,36,20251030-115024,global,global,300,S,S,E,E,S-E.png,S-E.png,sS,sS,mask-2.png,mask-3.png,s,1,0.5081765999784693,s,1,0.09453050000593066,0.04954589996486902,0.05016069998964667,0.0992624000646174,0.1002507999073714,0.2996794000500813
RSVPLG03,km,20251030-114703,1.0.1,20251023-100704,725,Experiment,Both,1,Automatic,main,37,20251030-115028,global,local,300,H,S,A,E,H-A.png,E-S.png,hH,sS,mask-3.png,mask-1.png,s,0,0.8476610999787226,h,0,0.9920838000252843,0.04994299996178597,0.048213299945928156,0.10025220003444701,0.09995709999930114,0.3021707000443712
RSVPLG03,km,20251030-114703,1.0.1,20251023-100704,725,Experiment,Both,1,Automatic,main,38,20251030-115033,local,global,750,S,H,E,A,E-S.png,H-A.png,sS,hH,mask-2.png,mask-1.png,s,1,0.7521609000395983,h,1,0.04988720000255853,0.051019599894061685,0.04980280005838722,0.09935489995405078,0.10026930004823953,0.7508129999041557
RSVPLG03,km,20251030-114703,1.0.1,20251023-100704,725,Experiment,Both,1,Automatic,main,39,20251030-115038,local,local,750,H,S,A,A,A-H.png,A-S.png,hH,sS,mask-4.png,mask-4.png,h,1,0.3225800999207422,s,1,0.12951680005062371,0.049729199963621795,0.05084149993490428,0.09858270001132041,0.10014449991285801,0.7495850999839604
RSVPLG03,km,20251030-114703,1.0.1,20251023-100704,725,Experiment,Both,1,Automatic,main,40,20251030-115043,local,local,300,S,H,E,E,E-S.png,E-H.png,sS,hH,mask-3.png,mask-1.png,s,1,0.5107451999792829,s,0,0.36651349999010563,0.0498836999759078,0.05114789993967861,0.10038139997050166,0.10050529998261482,0.3004363999934867
RSVPLG03,km,20251030-114703,1.0.1,20251023-100704,725,Experiment,Both,1,Automatic,main,41,20251030-115048,local,global,750,H,H,A,A,A-H.png,H-A.png,hH,hH,mask-1.png,mask-1.png,h,1,0.5118603999726474,h,1,0.09552269999403507,0.05076099990401417,0.048558900016359985,0.10060349991545081,0.0990744000300765,0.7532616999233142
RSVPLG03,km,20251030-114703,1.0.1,20251023-100704,725,Experiment,Both,1,Automatic,main,42,20251030-115052,local,local,750,S,H,E,A,E-S.png,A-H.png,sS,hH,mask-4.png,mask-1.png,h,0,1.1189906999934465,s,0,0.11200690001714975,0.04997200006619096,0.047860899940133095,0.1004215000430122,0.09782309993170202,0.7537835000548512
RSVPLG03,km,20251030-114703,1.0.1,20251023-100704,725,Experiment,Both,1,Automatic,main,43,20251030-115058,global,local,300,S,S,E,A,S-E.png,A-S.png,sS,sS,mask-1.png,mask-4.png,s,1,0.44680509995669127,s,1,0.09804790001362562,0.05075000005308539,0.050160199985839427,0.10073030006606132,0.09994169999845326,0.30166510003618896
RSVPLG03,km,20251030-114703,1.0.1,20251023-100704,725,Experiment,Both,1,Automatic,main,44,20251030-115102,global,global,300,H,H,E,E,H-E.png,H-E.png,hH,hH,mask-4.png,mask-3.png,h,1,0.5458663000026718,h,1,0.0975287000183016,0.04922879999503493,0.050655300030484796,0.09858469991013408,0.09958859998732805,0.2989351999713108
RSVPLG03,km,20251030-114703,1.0.1,20251023-100704,725,Experiment,Both,1,Automatic,main,45,20251030-115106,global,local,750,H,S,E,E,H-E.png,E-S.png,hH,sS,mask-2.png,mask-3.png,h,1,0.34770400007255375,s,1,0.047219399944879115,0.0493240999057889,0.04945439996663481,0.09953319991473109,0.09979249991010875,0.7516502999933437
RSVPLG03,km,20251030-114703,1.0.1,20251023-100704,725,Experiment,Both,1,Automatic,main,46,20251030-115111,local,local,750,H,H,A,E,A-H.png,E-H.png,hH,hH,mask-1.png,mask-4.png,h,1,0.7924669000785798,h,1,0.07864039996638894,0.05004679993726313,0.049979900009930134,0.10142849991098046,0.09845330007374287,0.7529880999354646
RSVPLG03,km,20251030-114703,1.0.1,20251023-100704,725,Experiment,Both,1,Automatic,main,47,20251030-115116,local,global,750,H,H,A,A,A-H.png,H-A.png,hH,hH,mask-1.png,mask-3.png,h,1,0.6179581999313086,h,1,0.09450839995406568,0.05172850005328655,0.050352799938991666,0.1015070000430569,0.10020290000829846,0.7520650000078604
RSVPLG03,km,20251030-114703,1.0.1,20251023-100704,725,Experiment,Both,1,Automatic,main,48,20251030-115121,local,local,300,S,H,E,E,E-S.png,E-H.png,sS,hH,mask-4.png,mask-1.png,s,1,0.5607837000861764,h,1,0.11151909991167486,0.04936069995164871,0.04923070000950247,0.10094359994400293,0.1003585000289604,0.30070849996991456
RSVPLG03,km,20251030-114703,1.0.1,20251023-100704,725,Experiment,Both,1,Automatic,main,49,20251030-115125,global,global,750,S,S,E,E,S-E.png,S-E.png,sS,sS,mask-1.png,mask-3.png,h,0,0.14753939991351217,s,1,0.04649880004581064,0.049689100007526577,0.05146320001222193,0.09982360003050417,0.10044159996323287,0.7503416000399739
RSVPLG03,km,20251030-114703,1.0.1,20251023-100704,725,Experiment,Both,1,Automatic,main,50,20251030-115130,global,global,300,S,H,A,E,S-A.png,H-E.png,sS,hH,mask-2.png,mask-2.png,s,1,1.0602493999758735,s,0,0.0949458999093622,0.04983509995508939,0.049831700045615435,0.09971139999106526,0.0999938000459224,0.3002668999833986
RSVPLG03,km,20251030-114703,1.0.1,20251023-100704,725,Experiment,Both,1,Automatic,main,51,20251030-115142,local,local,300,S,S,E,A,E-S.png,A-S.png,sS,sS,mask-1.png,mask-4.png,s,1,0.8689272999763489,s,1,0.11107290000654757,0.05000389995984733,0.048639999935403466,0.09973190003074706,0.0987209000159055,0.300579100032337
RSVPLG03,km,20251030-114703,1.0.1,20251023-100704,725,Experiment,Both,1,Automatic,main,52,20251030-115147,global,global,750,H,S,E,E,H-E.png,S-E.png,hH,sS,mask-1.png,mask-1.png,h,1,0.6597832000115886,s,1,0.045151100028306246,0.04995240003336221,0.049105599988251925,0.10105260007549077,0.09877729997970164,0.7531217000214383
RSVPLG03,km,20251030-114703,1.0.1,20251023-100704,725,Experiment,Both,1,Automatic,main,53,20251030-115152,local,local,300,H,S,A,E,A-H.png,E-S.png,hH,sS,mask-1.png,mask-2.png,h,1,0.7055763000389561,h,0,0.11125499999616295,0.048914500046521425,0.04944159998558462,0.10028430004604161,0.10078259999863803,0.2989520999835804
RSVPLG03,km,20251030-114703,1.0.1,20251023-100704,725,Experiment,Both,1,Automatic,main,54,20251030-115156,global,local,300,H,S,A,E,H-A.png,E-S.png,hH,sS,mask-3.png,mask-2.png,h,1,0.4418220000807196,s,1,0.0479920000070706,0.04972529993392527,0.04938490001950413,0.09981719998177141,0.0990979999769479,0.30089289997704327
RSVPLG03,km,20251030-114703,1.0.1,20251023-100704,725,Experiment,Both,1,Automatic,main,55,20251030-115201,local,local,750,H,H,A,A,A-H.png,A-H.png,hH,hH,mask-4.png,mask-2.png,h,1,0.6512943000998348,h,1,0.0827539999736473,0.049157400033436716,0.0506667000008747,0.09891439997591078,0.09985810006037354,0.7507901999633759
RSVPLG03,km,20251030-114703,1.0.1,20251023-100704,725,Experiment,Both,1,Automatic,main,56,20251030-115205,global,global,750,H,S,E,E,H-E.png,S-E.png,hH,sS,mask-4.png,mask-1.png,h,1,0.2812857999233529,s,1,0.030993099906481802,0.04875840002205223,0.05086540000047535,0.0994766999501735,0.10043849993962795,0.7511216000420973
RSVPLG03,km,20251030-114703,1.0.1,20251023-100704,725,Experiment,Both,1,Automatic,main,57,20251030-115210,global,local,750,S,S,A,A,S-A.png,A-S.png,sS,sS,mask-3.png,mask-2.png,s,1,0.41847350005991757,h,0,0.07945720001589507,0.04979199997615069,0.05078739998862147,0.09891189995687455,0.10046370001509786,0.7504339000442997
RSVPLG03,km,20251030-114703,1.0.1,20251023-100704,725,Experiment,Both,1,Automatic,main,58,20251030-115215,local,local,750,H,S,E,A,E-H.png,A-S.png,hH,sS,mask-2.png,mask-4.png,s,0,0.6762683000415564,s,1,0.21065100003033876,0.05006969999521971,0.04905079992022365,0.10043509991373867,0.09923159994650632,0.7526441999943927
RSVPLG03,km,20251030-114703,1.0.1,20251023-100704,725,Experiment,Both,1,Automatic,main,59,20251030-115220,global,local,750,H,H,A,A,H-A.png,A-H.png,hH,hH,mask-2.png,mask-1.png,h,1,0.3088526000501588,h,1,0.0810716999694705,0.05018080002628267,0.04881120007485151,0.1003046000842005,0.09921690006740391,0.7531983000226319
RSVPLG03,km,20251030-114703,1.0.1,20251023-100704,725,Experiment,Both,1,Automatic,main,60,20251030-115224,local,local,300,H,H,A,E,A-H.png,E-H.png,hH,hH,mask-4.png,mask-1.png,s,0,0.7229821999790147,s,0,0.09465139999520034,0.05124699999578297,0.048354499973356724,0.10029980004765093,0.09981970000080764,0.3023563000606373
RSVPLG03,km,20251030-114703,1.0.1,20251023-100704,725,Experiment,Both,1,Automatic,main,61,20251030-115229,local,local,300,S,H,E,A,E-S.png,A-H.png,sS,hH,mask-2.png,mask-1.png,h,0,0.38109089992940426,s,0,0.08065280003938824,0.04920110001694411,0.05025760002899915,0.09911269997246563,0.10046220000367612,0.29921179998200387
RSVPLG03,km,20251030-114703,1.0.1,20251023-100704,725,Experiment,Both,1,Automatic,main,62,20251030-115233,global,global,750,S,S,E,E,S-E.png,S-E.png,sS,sS,mask-4.png,mask-2.png,s,1,0.3814261000370607,s,1,0.06302390003111213,0.0493082000175491,0.050816699978895485,0.10065909998957068,0.09997999994084239,0.75091830000747
RSVPLG03,km,20251030-114703,1.0.1,20251023-100704,725,Experiment,Both,1,Automatic,main,63,20251030-115237,global,global,750,H,H,A,A,H-A.png,H-A.png,hH,hH,mask-3.png,mask-1.png,h,1,0.5111776000121608,h,1,0.2565586999990046,0.049620899953879416,0.05010029999539256,0.0995388999581337,0.10135949996765703,0.7501876000314951
RSVPLG03,km,20251030-114703,1.0.1,20251023-100704,725,Experiment,Both,1,Automatic,main,64,20251030-115242,global,local,300,S,S,E,E,S-E.png,E-S.png,sS,sS,mask-2.png,mask-2.png,s,1,0.3232609999831766,s,1,0.09550009993836284,0.049524900037795305,0.049432599917054176,0.10049240000080317,0.09993109991773963,0.3002945000771433
RSVPLG03,km,20251030-114703,1.0.1,20251023-100704,725,Experiment,Both,1,Automatic,main,65,20251030-115246,global,local,750,S,H,A,E,S-A.png,E-H.png,sS,hH,mask-1.png,mask-2.png,s,1,0.46188219997566193,h,1,0.046999999904073775,0.04977640009019524,0.05025259999092668,0.10065869998652488,0.10042829997837543,0.751315200002864
RSVPLG03,km,20251030-114703,1.0.1,20251023-100704,725,Experiment,Both,1,Automatic,main,66,20251030-115251,local,local,750,S,S,E,A,E-S.png,A-S.png,sS,sS,mask-3.png,mask-3.png,s,1,0.7204684999305755,s,1,0.11099310009740293,0.04940000001806766,0.05134799994993955,0.10066690004896373,0.09940119995735586,0.7516523000085726
RSVPLG03,km,20251030-114703,1.0.1,20251023-100704,725,Experiment,Both,1,Automatic,main,67,20251030-115256,local,local,750,S,S,A,E,A-S.png,E-S.png,sS,sS,mask-2.png,mask-2.png,s,1,0.4369983000215143,s,1,0.07974110008217394,0.05030889995396137,0.04942310007754713,0.10002100002020597,0.09944830008316785,0.7513226999435574
RSVPLG03,km,20251030-114703,1.0.1,20251023-100704,725,Experiment,Both,1,Automatic,main,68,20251030-115301,local,global,750,S,S,A,A,A-S.png,S-A.png,sS,sS,mask-4.png,mask-4.png,s,1,0.6253285999409854,h,0,0.01460430002771318,0.049775300081819296,0.049315799959003925,0.10045969998463988,0.1004772000014782,0.751719200052321
RSVPLG03,km,20251030-114703,1.0.1,20251023-100704,725,Experiment,Both,1,Automatic,main,69,20251030-115305,global,global,750,H,H,E,E,H-E.png,H-E.png,hH,hH,mask-1.png,mask-3.png,h,1,0.25765120005235076,h,1,0.07788170001003891,0.051240500062704086,0.05023169994819909,0.10120280005503446,0.10065659997053444,0.751594900037162
RSVPLG03,km,20251030-114703,1.0.1,20251023-100704,725,Experiment,Both,1,Automatic,main,70,20251030-115310,local,global,750,H,H,E,E,E-H.png,H-E.png,hH,hH,mask-3.png,mask-1.png,h,1,0.6324776000110433,s,0,0.07952289993409067,0.04968599998392165,0.05061310005839914,0.09835990006104112,0.09987050003837794,0.7508259000023827
RSVPLG03,km,20251030-114703,1.0.1,20251023-100704,725,Experiment,Both,1,Automatic,main,71,20251030-115315,local,global,300,H,S,E,E,E-H.png,S-E.png,hH,sS,mask-3.png,mask-1.png,s,0,1.1112646999536082,h,0,1.2074910999508575,0.04935220000334084,0.050982699962332845,0.09948239999357611,0.10111109993886203,0.30067410005722195
RSVPLG03,km,20251030-114703,1.0.1,20251023-100704,725,Experiment,Both,1,Automatic,main,72,20251030-115320,global,local,750,H,H,A,E,H-A.png,E-H.png,hH,hH,mask-1.png,mask-1.png,h,1,0.5374001000309363,s,0,0.06409060000441968,0.0498918000375852,0.051246599992737174,0.09943050006404519,0.1011339999968186,0.750125200022012
RSVPLG03,km,20251030-114703,1.0.1,20251023-100704,725,Experiment,Both,1,Automatic,main,73,20251030-115324,global,global,300,S,S,E,E,S-E.png,S-E.png,sS,sS,mask-4.png,mask-4.png,s,1,0.4475002000108361,s,1,0.07849789992906153,0.05033140000887215,0.04985890001989901,0.10086300002876669,0.1001993000973016,0.30154499993659556
RSVPLG03,km,20251030-114703,1.0.1,20251023-100704,725,Experiment,Both,1,Automatic,main,74,20251030-115329,local,global,300,H,H,E,E,E-H.png,H-E.png,hH,hH,mask-1.png,mask-3.png,h,1,0.4119821999920532,s,0,0.09558840002864599,0.04901299998164177,0.04884399997536093,0.10013030003756285,0.09919750003609806,0.3016762000042945
RSVPLG03,km,20251030-114703,1.0.1,20251023-100704,725,Experiment,Both,1,Automatic,main,75,20251030-115333,local,local,300,S,H,E,E,E-S.png,E-H.png,sS,hH,mask-1.png,mask-2.png,h,0,0.29770749993622303,h,1,0.06207820004783571,0.04836450004950166,0.05001470004208386,0.09954339999239892,0.09914250008296221,0.30021999997552484
RSVPLG03,km,20251030-114703,1.0.1,20251023-100704,725,Experiment,Both,1,Automatic,main,76,20251030-115338,local,global,300,S,H,E,A,E-S.png,H-A.png,sS,hH,mask-3.png,mask-1.png,s,1,0.7888417999492958,h,1,8.420005906373262e-05,0.050015300046652555,0.049556000041775405,0.10045490006450564,0.09783220000099391,0.30251970002427697
