exp,exp_initials,runtime,ver,modtime,sub,blocktype,targets,cuetype,mode,trialtype,trial,trialtime,t1_level,t2_level,t2_lag,t1,t2,distractor1,distractor2,stimfile1,stimfile2,t1_corr,t2_corr,maskfile1,maskfile2,t1_resp,t1_acc,t1_rt,t2_resp,t2_acc,t2_rt,t1_dur,t2_dur,t1mask_soa,t2mask_soa,t1t2_soa
RSVPLG03,km,20260430-150925,1.0.2,20251113-095759,831,Introduction,T1,1,Automatic,main,1,20260430-150950,global,global,750,H,S,E,A,H-E.png,S-A.png,hH,sS,mask-2.png,mask-4.png,h,1,0.04159850021824241,none,-5,0,0.09881890006363392,0.0994550003670156,0.1975891999900341,0.19942240044474602,0.7489286996424198
RSVPLG03,km,20260430-150925,1.0.2,20251113-095759,831,Introduction,T1,1,Automatic,main,2,20260430-150954,global,global,750,S,S,A,E,S-A.png,S-E.png,sS,sS,mask-3.png,mask-2.png,s,1,1.3129643998108804,none,-5,0,0.09911159984767437,0.09862220007926226,0.20001870021224022,0.199798499699682,0.751460500061512
RSVPLG03,km,20260430-150925,1.0.2,20251113-095759,831,Introduction,T1,1,Automatic,main,3,20260430-151000,local,local,750,H,H,A,E,A-H.png,E-H.png,hH,hH,mask-1.png,mask-4.png,h,1,1.7751011000946164,none,-5,0,0.09893889958038926,0.09967729961499572,0.20001579960808158,0.20065979985520244,0.7495703999884427
RSVPLG03,km,20260430-150925,1.0.2,20251113-095759,831,Introduction,T1,1,Automatic,main,4,20260430-151006,local,local,750,S,H,A,E,A-S.png,E-H.png,sS,hH,mask-1.png,mask-4.png,s,1,0.8827821998856962,none,-5,0,0.09991459967568517,0.09868350019678473,0.1996911996975541,0.20016730017960072,0.7501276996918023
RSVPLG03,km,20260430-150925,1.0.2,20251113-095759,831,Introduction,T1,1,Automatic,main,5,20260430-151011,local,local,750,H,S,E,E,E-H.png,E-S.png,hH,sS,mask-1.png,mask-4.png,h,1,1.6767115001566708,none,-5,0,0.10009900014847517,0.10022060014307499,0.20033279992640018,0.20055400021374226,0.7499171998351812
RSVPLG03,km,20260430-150925,1.0.2,20251113-095759,831,Introduction,T1,1,Automatic,main,6,20260430-151016,local,local,750,H,S,E,E,E-H.png,E-S.png,hH,sS,mask-2.png,mask-2.png,h,1,0.5475146002136171,none,-5,0,0.09997700015082955,0.09971350012347102,0.2002337002195418,0.19878870015963912,0.7514312998391688
RSVPLG03,km,20260430-150925,1.0.2,20251113-095759,831,Introduction,T1,1,Automatic,main,7,20260430-151021,global,local,750,H,H,A,E,H-A.png,E-H.png,hH,hH,mask-2.png,mask-3.png,s,0,0.6389023000374436,none,-5,0,0.1007977002300322,0.09894639998674393,0.20028290012851357,0.19832480000331998,0.7517286003567278
RSVPLG03,km,20260430-150925,1.0.2,20251113-095759,831,Introduction,T1,1,Automatic,main,8,20260430-151026,local,global,750,S,H,A,A,A-S.png,H-A.png,sS,hH,mask-3.png,mask-1.png,s,1,0.9043422001414001,none,-5,0,0.09810379985719919,0.0983868995681405,0.1982120000757277,0.19989629974588752,0.7488756002858281
RSVPLG03,km,20260430-150925,1.0.2,20251113-095759,831,Introduction,T1,1,Automatic,main,9,20260430-151031,global,global,750,H,H,A,E,H-A.png,H-E.png,hH,hH,mask-4.png,mask-2.png,h,1,1.1463325000368059,none,-5,0,0.10044369986280799,0.09928510012105107,0.1994213000871241,0.20054860040545464,0.7511725998483598
RSVPLG03,km,20260430-150925,1.0.2,20251113-095759,831,Introduction,T1,1,Automatic,main,10,20260430-151036,local,global,750,S,H,E,A,E-S.png,H-A.png,sS,hH,mask-2.png,mask-1.png,s,1,0.3675116002559662,none,-5,0,0.099146599881351,0.09976850030943751,0.2008271999657154,0.19968520011752844,0.7503029997460544
RSVPLG03,km,20260430-150925,1.0.2,20251113-095759,831,Introduction,T1,1,Automatic,main,11,20260430-151041,global,local,750,H,S,A,A,H-A.png,A-S.png,hH,sS,mask-3.png,mask-2.png,h,1,0.5773489000275731,none,-5,0,0.10055939992889762,0.10012019984424114,0.20089680003002286,0.19918080000206828,0.751038399990648
RSVPLG03,km,20260430-150925,1.0.2,20251113-095759,831,Introduction,T1,1,Automatic,main,12,20260430-151046,global,local,750,S,S,A,E,S-A.png,E-S.png,sS,sS,mask-3.png,mask-1.png,s,1,0.4432572000660002,none,-5,0,0.10112719982862473,0.09981180028989911,0.20021079992875457,0.20133270043879747,0.7507317997515202
RSVPLG03,km,20260430-150925,1.0.2,20251113-095759,831,Introduction,T1,1,Automatic,main,13,20260430-151050,local,global,750,S,H,A,E,A-S.png,H-E.png,sS,hH,mask-4.png,mask-1.png,s,1,0.6345660001970828,none,-5,0,0.09933969983831048,0.09955399995669723,0.2003639996983111,0.19915120024234056,0.7504801996983588
RSVPLG03,km,20260430-150925,1.0.2,20251113-095759,831,Introduction,T1,1,Automatic,main,14,20260430-151055,local,global,750,H,S,E,E,E-H.png,S-E.png,hH,sS,mask-3.png,mask-4.png,none,-6,0,none,-5,0,0.09825289994478226,0.10124500002712011,0.19999219989404082,0.20179409999400377,0.7481621000915766
RSVPLG03,km,20260430-151111,1.0.2,20251113-095759,831,Practice,T1,1,Automatic,main,1,20260430-151132,global,global,300,H,S,A,E,H-A.png,S-E.png,hH,sS,mask-1.png,mask-2.png,h,1,1.3807366001419723,none,-5,0,0.04966650018468499,0.050607800018042326,0.10064070019870996,0.1005851998925209,0.3000580002553761
RSVPLG03,km,20260430-151111,1.0.2,20251113-095759,831,Practice,T1,1,Automatic,main,2,20260430-151137,global,global,300,S,S,E,E,S-E.png,S-E.png,sS,sS,mask-4.png,mask-3.png,s,1,0.554044300224632,none,-5,0,0.050423599779605865,0.05083649978041649,0.10001869965344667,0.10101719992235303,0.2999094999395311
RSVPLG03,km,20260430-151111,1.0.2,20251113-095759,831,Practice,T1,1,Automatic,main,3,20260430-151141,global,local,750,H,H,A,A,H-A.png,A-H.png,hH,hH,mask-2.png,mask-4.png,h,1,3.1429053000174463,none,-5,0,0.05096379993483424,0.048934999853372574,0.10008649993687868,0.09998639998957515,0.7511237999424338
RSVPLG03,km,20260430-151111,1.0.2,20251113-095759,831,Practice,T1,1,Automatic,main,4,20260430-151148,local,global,750,H,H,E,A,E-H.png,H-A.png,hH,hH,mask-4.png,mask-3.png,h,1,1.259588799905032,none,-5,0,0.04871309967711568,0.049953500274568796,0.0988345998339355,0.10009129997342825,0.7494604997336864
RSVPLG03,km,20260430-151111,1.0.2,20251113-095759,831,Practice,T1,1,Automatic,main,5,20260430-151153,local,global,300,H,H,E,A,E-H.png,H-A.png,hH,hH,mask-2.png,mask-1.png,h,1,2.23582849977538,none,-5,0,0.04994559986516833,0.048935800325125456,0.10153699992224574,0.10175999999046326,0.3013573996722698
RSVPLG03,km,20260430-151111,1.0.2,20251113-095759,831,Practice,T1,1,Automatic,main,6,20260430-151159,global,local,750,S,S,E,A,S-E.png,A-S.png,sS,sS,mask-3.png,mask-4.png,s,1,1.1715117995627224,none,-5,0,0.04987340001389384,0.0496029001660645,0.10071949986740947,0.10117779998108745,0.7505135997198522
RSVPLG03,km,20260430-151111,1.0.2,20251113-095759,831,Practice,T1,1,Automatic,main,7,20260430-151204,local,global,750,S,S,E,A,E-S.png,S-A.png,sS,sS,mask-2.png,mask-1.png,s,1,1.3525001998059452,none,-5,0,0.048129200004041195,0.04996779980137944,0.0999940000474453,0.10028780018910766,0.7489523999392986
RSVPLG03,km,20260430-151111,1.0.2,20251113-095759,831,Practice,T1,1,Automatic,main,8,20260430-151210,local,local,300,H,H,A,E,A-H.png,E-H.png,hH,hH,mask-2.png,mask-4.png,h,1,0.6113462001085281,none,-5,0,0.04972259979695082,0.051153700333088636,0.09909699996933341,0.09984020004048944,0.2993341996334493
RSVPLG03,km,20260430-151111,1.0.2,20251113-095759,831,Practice,T1,1,Automatic,main,9,20260430-151214,local,local,750,S,H,E,A,E-S.png,A-H.png,sS,hH,mask-3.png,mask-4.png,h,0,0.636094500310719,none,-5,0,0.0490210996940732,0.04945119982585311,0.10019839974120259,0.09895829996094108,0.750884999986738
RSVPLG03,km,20260430-151111,1.0.2,20251113-095759,831,Practice,T1,1,Automatic,main,10,20260430-151218,local,local,300,S,S,A,A,A-S.png,A-S.png,sS,sS,mask-2.png,mask-4.png,s,1,0.42816139990463853,none,-5,0,0.04876419994980097,0.04992110002785921,0.0985428998246789,0.10137460008263588,0.2988892998546362
RSVPLG03,km,20260430-151111,1.0.2,20251113-095759,831,Practice,T1,1,Automatic,main,11,20260430-151222,global,global,750,S,S,E,A,S-E.png,S-A.png,sS,sS,mask-2.png,mask-1.png,s,1,0.7984774000942707,none,-5,0,0.05081249959766865,0.04984539980068803,0.10099879978224635,0.1008636998012662,0.7500304998829961
RSVPLG03,km,20260430-151111,1.0.2,20251113-095759,831,Practice,T1,1,Automatic,main,12,20260430-151227,global,local,300,S,H,A,E,S-A.png,E-H.png,sS,hH,mask-1.png,mask-1.png,h,0,0.8692815001122653,none,-5,0,0.049725799821317196,0.04960549995303154,0.1000993000343442,0.09845869988203049,0.3019981998950243
RSVPLG03,km,20260430-151111,1.0.2,20251113-095759,831,Practice,T1,1,Automatic,main,13,20260430-151232,global,global,750,H,S,E,E,H-E.png,S-E.png,hH,sS,mask-1.png,mask-1.png,s,0,0.652938099578023,none,-5,0,0.05017940001562238,0.0492503996938467,0.10023259976878762,0.09966060006991029,0.7507651001214981
RSVPLG03,km,20260430-151111,1.0.2,20251113-095759,831,Practice,T1,1,Automatic,main,14,20260430-151236,local,local,750,S,S,E,E,E-S.png,E-S.png,sS,sS,mask-2.png,mask-2.png,s,1,1.2135183000937104,none,-5,0,0.04810489993542433,0.04998070001602173,0.09837649995461106,0.09992789989337325,0.7484792000614107
RSVPLG03,km,20260430-151111,1.0.2,20251113-095759,831,Practice,T1,1,Automatic,main,15,20260430-151242,global,local,300,H,S,A,A,H-A.png,A-S.png,hH,sS,mask-2.png,mask-1.png,h,1,0.4463740000501275,none,-5,0,0.050916200038045645,0.05019479990005493,0.10079570021480322,0.10005229990929365,0.30046890024095774
RSVPLG03,km,20260430-151111,1.0.2,20251113-095759,831,Practice,T1,1,Automatic,main,16,20260430-151246,local,global,300,H,H,E,E,E-H.png,H-E.png,hH,hH,mask-3.png,mask-3.png,s,0,1.2880493002012372,none,-5,0,0.05100429989397526,0.049410799983888865,0.0983241000212729,0.09985690005123615,0.29961099987849593
RSVPLG03,km,20260430-151410,1.0.2,20251113-095759,831,Introduction,Both,1,Automatic,main,1,20260430-151429,global,global,750,H,S,A,A,H-A.png,S-A.png,hH,sS,mask-2.png,mask-4.png,h,1,1.2559454999864101,s,1,0.5925423000007868,0.09948070021346211,0.10125279985368252,0.19893180020153522,0.20094479992985725,0.7500579999759793
RSVPLG03,km,20260430-151410,1.0.2,20251113-095759,831,Introduction,Both,1,Automatic,main,2,20260430-151435,local,global,750,S,S,E,E,E-S.png,S-E.png,sS,sS,mask-4.png,mask-2.png,s,1,2.0404619998298585,h,0,2.0019805999472737,0.10002960031852126,0.09899100009351969,0.19996700016781688,0.20065060025081038,0.7520335000008345
RSVPLG03,km,20260430-151410,1.0.2,20251113-095759,831,Introduction,Both,1,Automatic,main,3,20260430-151443,local,local,750,S,S,A,E,A-S.png,E-S.png,sS,sS,mask-2.png,mask-1.png,s,1,0.8550904002040625,s,1,0.9610721999779344,0.10037240013480186,0.09959430014714599,0.20232779998332262,0.2007921002805233,0.7525122999213636
RSVPLG03,km,20260430-151410,1.0.2,20251113-095759,831,Introduction,Both,1,Automatic,main,4,20260430-151449,global,global,750,H,S,E,A,H-E.png,S-A.png,hH,sS,mask-4.png,mask-3.png,h,1,0.9568392997607589,s,1,1.073971299920231,0.09739689994603395,0.1025982997380197,0.19860380003228784,0.20163389993831515,0.748822099994868
RSVPLG03,km,20260430-151410,1.0.2,20251113-095759,831,Introduction,Both,1,Automatic,main,5,20260430-151456,global,local,750,H,S,A,E,H-A.png,E-S.png,hH,sS,mask-4.png,mask-4.png,h,1,0.9294397002086043,s,1,0.5771059999242425,0.10063149966299534,0.10179740004241467,0.20117020001634955,0.20156140020117164,0.7505981996655464
RSVPLG03,km,20260430-151410,1.0.2,20251113-095759,831,Introduction,Both,1,Automatic,main,6,20260430-151502,global,global,750,S,H,A,E,S-A.png,H-E.png,sS,hH,mask-1.png,mask-4.png,s,1,0.9118241001851857,h,1,0.5450065997429192,0.09977239975705743,0.10075089987367392,0.19916369998827577,0.2017214000225067,0.7499869000166655
RSVPLG03,km,20260430-151410,1.0.2,20251113-095759,831,Introduction,Both,1,Automatic,main,7,20260430-151508,global,local,750,S,S,A,E,S-A.png,E-S.png,sS,sS,mask-1.png,mask-4.png,s,1,0.4165399996563792,s,1,0.6090488000772893,0.10038430010899901,0.1007451000623405,0.20066360011696815,0.20039229979738593,0.7510688998736441
RSVPLG03,km,20260430-151410,1.0.2,20251113-095759,831,Introduction,Both,1,Automatic,main,8,20260430-151513,global,global,750,H,S,A,E,H-A.png,S-E.png,hH,sS,mask-1.png,mask-4.png,h,1,0.8832871001213789,s,1,0.4315185002051294,0.10021620010957122,0.10090319998562336,0.20017779991030693,0.2010245998390019,0.7520969999022782
RSVPLG03,km,20260430-151410,1.0.2,20251113-095759,831,Introduction,Both,1,Automatic,main,9,20260430-151519,global,local,750,S,H,E,A,S-E.png,A-H.png,sS,hH,mask-1.png,mask-2.png,s,1,0.671242699958384,h,1,0.4973996998742223,0.0991964996792376,0.10042170016095042,0.20036969985812902,0.20191009994596243,0.7501539997756481
RSVPLG03,km,20260430-151410,1.0.2,20251113-095759,831,Introduction,Both,1,Automatic,main,10,20260430-151524,global,local,750,H,H,E,A,H-E.png,A-H.png,hH,hH,mask-2.png,mask-4.png,h,1,0.4345778999850154,h,1,0.5606287997215986,0.10066260024905205,0.09974540024995804,0.2016193000599742,0.19982860004529357,0.75275560002774
RSVPLG03,km,20260430-151410,1.0.2,20251113-095759,831,Introduction,Both,1,Automatic,main,11,20260430-151530,local,global,750,H,S,A,A,A-H.png,S-A.png,hH,sS,mask-1.png,mask-2.png,h,1,1.1144830998964608,s,1,0.72101050009951,0.10162500012665987,0.09915119968354702,0.20165769988670945,0.20021099969744682,0.7525121001526713
RSVPLG03,km,20260430-151410,1.0.2,20251113-095759,831,Introduction,Both,1,Automatic,main,12,20260430-151536,local,global,750,H,S,E,E,E-H.png,S-E.png,hH,sS,mask-1.png,mask-3.png,h,1,1.413001200184226,s,1,0.4483671998605132,0.09978399984538555,0.09846970019862056,0.199484100099653,0.19995630020275712,0.7525376998819411
RSVPLG03,km,20260430-151410,1.0.2,20251113-095759,831,Introduction,Both,1,Automatic,main,13,20260430-151542,local,global,750,S,S,A,A,A-S.png,S-A.png,sS,sS,mask-1.png,mask-2.png,s,1,0.7780908001586795,h,0,0.4015499004162848,0.10030819987878203,0.09993109991773963,0.19969489984214306,0.20011369977146387,0.750872400123626
RSVPLG03,km,20260430-151410,1.0.2,20251113-095759,831,Introduction,Both,1,Automatic,main,14,20260430-151548,local,local,750,H,H,E,E,E-H.png,E-H.png,hH,hH,mask-1.png,mask-4.png,h,1,1.3952881000004709,h,1,0.4645436001010239,0.0993232000619173,0.0999811002984643,0.19833579985424876,0.20201130025088787,0.7495279996655881
RSVPLG03,km,20260430-151410,1.0.2,20251113-095759,831,Introduction,Both,1,Automatic,main,15,20260430-151554,local,local,750,H,S,E,E,E-H.png,E-S.png,hH,sS,mask-4.png,mask-4.png,h,1,0.35435259994119406,s,1,0.3854948002845049,0.09983429964631796,0.09989469964057207,0.20001269970089197,0.19906199956312776,0.7528876001015306
RSVPLG03,km,20260430-151410,1.0.2,20251113-095759,831,Introduction,Both,1,Automatic,main,16,20260430-151559,local,local,750,S,S,E,A,E-S.png,A-S.png,sS,sS,mask-3.png,mask-4.png,s,1,0.4699808000586927,s,1,0.5124776000156999,0.09988300036638975,0.09962210012599826,0.19982430012896657,0.1992848999798298,0.7513124002143741
RSVPLG03,km,20260430-151628,1.0.2,20251113-095759,831,Practice,Both,1,Automatic,main,1,20260430-151647,local,global,750,S,H,E,A,E-S.png,H-A.png,sS,hH,mask-4.png,mask-1.png,s,1,0.884770100004971,h,1,0.8975307997316122,0.043568100314587355,0.05110490042716265,0.09422310022637248,0.09917700011283159,0.7442391999065876
RSVPLG03,km,20260430-151628,1.0.2,20251113-095759,831,Practice,Both,1,Automatic,main,2,20260430-151653,global,local,300,S,S,A,E,S-A.png,E-S.png,sS,sS,mask-1.png,mask-2.png,s,1,1.456197400111705,h,0,0.5284001999534667,0.05119180027395487,0.04938360024243593,0.10129750007763505,0.09976550005376339,0.2995537999086082
RSVPLG03,km,20260430-151628,1.0.2,20251113-095759,831,Practice,Both,1,Automatic,main,3,20260430-151658,local,global,300,S,S,E,A,E-S.png,S-A.png,sS,sS,mask-2.png,mask-3.png,s,1,0.8693094002082944,h,0,0.5255847000516951,0.05086710024625063,0.04877860005944967,0.10183910001069307,0.09983840025961399,0.3016881998628378
RSVPLG03,km,20260430-151628,1.0.2,20251113-095759,831,Practice,Both,1,Automatic,main,4,20260430-151704,global,global,300,S,H,E,E,S-E.png,H-E.png,sS,hH,mask-4.png,mask-1.png,s,1,1.005362399853766,h,1,0.4496159004047513,0.05079160025343299,0.05076810019090772,0.10068200016394258,0.10058399988338351,0.30010350001975894
RSVPLG03,km,20260430-151628,1.0.2,20251113-095759,831,Practice,Both,1,Automatic,main,5,20260430-151709,global,global,300,S,S,A,E,S-A.png,S-E.png,sS,sS,mask-4.png,mask-3.png,s,1,0.5226217997260392,s,1,0.4007552000693977,0.0494566997513175,0.04832990001887083,0.0990439997985959,0.09887029975652695,0.29969289992004633
RSVPLG03,km,20260430-151628,1.0.2,20251113-095759,831,Practice,Both,1,Automatic,main,6,20260430-151713,global,local,750,H,S,E,A,H-E.png,A-S.png,hH,sS,mask-4.png,mask-2.png,h,1,0.6682218001224101,s,1,0.40012629982084036,0.04941929969936609,0.04954040003940463,0.10039309971034527,0.09863340016454458,0.7504274998791516
RSVPLG03,km,20260430-151628,1.0.2,20251113-095759,831,Practice,Both,1,Automatic,main,7,20260430-151719,global,local,750,H,H,E,E,H-E.png,E-H.png,hH,hH,mask-2.png,mask-1.png,h,1,0.8656136998906732,h,1,0.2726079998537898,0.049250099807977676,0.051802600268274546,0.09955399995669723,0.1018846002407372,0.7478467999026179
RSVPLG03,km,20260430-151628,1.0.2,20251113-095759,831,Practice,Both,1,Automatic,main,8,20260430-151724,global,global,750,S,H,E,E,S-E.png,H-E.png,sS,hH,mask-2.png,mask-4.png,s,1,0.46082659997045994,h,1,0.43349620001390576,0.05007339967414737,0.04990470036864281,0.10105019994080067,0.09987949999049306,0.7498466996476054
RSVPLG03,km,20260430-151628,1.0.2,20251113-095759,831,Practice,Both,1,Automatic,main,9,20260430-151729,global,global,750,S,H,A,E,S-A.png,H-E.png,sS,hH,mask-3.png,mask-4.png,s,1,0.54274330008775,h,1,0.4018374001607299,0.05358929978683591,0.049360199831426144,0.09979570005089045,0.09943029982969165,0.7504898998886347
RSVPLG03,km,20260430-151628,1.0.2,20251113-095759,831,Practice,Both,1,Automatic,main,10,20260430-151734,local,local,750,S,S,A,E,A-S.png,E-S.png,sS,sS,mask-3.png,mask-1.png,h,0,1.6052979999221861,s,1,0.38646289985626936,0.04922749986872077,0.049857799895107746,0.09973119990900159,0.1008289996534586,0.7484132000245154
RSVPLG03,km,20260430-151628,1.0.2,20251113-095759,831,Practice,Both,1,Automatic,main,11,20260430-151740,local,local,300,H,S,A,A,A-H.png,A-S.png,hH,sS,mask-3.png,mask-4.png,h,1,0.5100799999199808,s,1,0.30539620015770197,0.04905819986015558,0.04972919961437583,0.09993989998474717,0.10059279995039105,0.29932110011577606
RSVPLG03,km,20260430-151628,1.0.2,20251113-095759,831,Practice,Both,1,Automatic,main,12,20260430-151745,local,local,300,S,S,A,A,A-S.png,A-S.png,sS,sS,mask-2.png,mask-1.png,s,1,0.4223547000437975,s,1,0.3173217996954918,0.04830980021506548,0.0508224000222981,0.09824760025367141,0.09994939994066954,0.29942960012704134
RSVPLG03,km,20260430-151628,1.0.2,20251113-095759,831,Practice,Both,1,Automatic,main,13,20260430-151750,global,local,300,H,S,E,E,H-E.png,E-S.png,hH,sS,mask-2.png,mask-2.png,h,1,0.3918546997010708,s,1,0.24176230002194643,0.050443199928849936,0.049081200268119574,0.0992179000750184,0.09945339988917112,0.29988359985873103
RSVPLG03,km,20260430-151628,1.0.2,20251113-095759,831,Practice,Both,1,Automatic,main,14,20260430-151754,local,global,300,H,S,E,A,E-H.png,S-A.png,hH,sS,mask-2.png,mask-1.png,h,1,0.32651419984176755,s,1,0.18807080015540123,0.05129379965364933,0.05092030018568039,0.10012000007554889,0.09963670000433922,0.3004605998285115
RSVPLG03,km,20260430-151628,1.0.2,20251113-095759,831,Practice,Both,1,Automatic,main,15,20260430-151758,local,global,750,S,S,E,E,E-S.png,S-E.png,sS,sS,mask-3.png,mask-2.png,s,1,0.6615635002963245,s,1,0.19010140001773834,0.04984660027548671,0.049308700021356344,0.09976290026679635,0.09936939971521497,0.7516427002847195
RSVPLG03,km,20260430-151628,1.0.2,20251113-095759,831,Practice,Both,1,Automatic,main,16,20260430-151803,local,local,750,S,S,E,A,E-S.png,A-S.png,sS,sS,mask-4.png,mask-1.png,s,1,0.682334499899298,s,1,0.25621800031512976,0.047846199944615364,0.04994009993970394,0.09928130032494664,0.09873489988967776,0.7493589003570378
RSVPLG03,km,20260430-151920,1.0.2,20251113-095759,831,Experiment,Both,1,Automatic,warmup,1,20260430-151939,local,local,300,S,S,A,A,A-S.png,A-S.png,sS,sS,mask-1.png,mask-2.png,s,1,0.5323247998021543,s,1,0.44632509956136346,0.04797529987990856,0.051030300091952085,0.09664039965718985,0.0984219997189939,0.29648989997804165
RSVPLG03,km,20260430-151920,1.0.2,20251113-095759,831,Experiment,Both,1,Automatic,warmup,2,20260430-151943,local,global,300,H,H,A,E,A-H.png,H-E.png,hH,hH,mask-1.png,mask-4.png,h,1,0.3013450996950269,s,0,0.19372899970039725,0.05012889998033643,0.048721699975430965,0.09866969985887408,0.09969589998945594,0.2992118000984192
RSVPLG03,km,20260430-151920,1.0.2,20251113-095759,831,Experiment,Both,1,Automatic,warmup,3,20260430-151948,global,local,300,S,H,E,E,S-E.png,E-H.png,sS,hH,mask-3.png,mask-4.png,s,1,0.5892681996338069,h,1,0.24135340005159378,0.049780700355768204,0.049684000201523304,0.09956290014088154,0.10047749988734722,0.29894720017910004
RSVPLG03,km,20260430-151920,1.0.2,20251113-095759,831,Experiment,Both,1,Automatic,warmup,4,20260430-151952,local,local,750,H,H,E,E,E-H.png,E-H.png,hH,hH,mask-2.png,mask-2.png,h,1,0.4253118997439742,h,1,0.20894990023225546,0.05099349981173873,0.050089700147509575,0.09938169969245791,0.10009690001606941,0.7469275998882949
RSVPLG03,km,20260430-151920,1.0.2,20251113-095759,831,Experiment,Both,1,Automatic,main,5,20260430-151957,global,local,300,H,S,E,E,H-E.png,E-S.png,hH,sS,mask-4.png,mask-3.png,h,1,0.5702150999568403,s,1,0.1918256999924779,0.04983319994062185,0.04943049978464842,0.10152440005913377,0.09900549985468388,0.30047400016337633
RSVPLG03,km,20260430-151920,1.0.2,20251113-095759,831,Experiment,Both,1,Automatic,main,6,20260430-152001,global,local,750,S,H,A,A,S-A.png,A-H.png,sS,hH,mask-1.png,mask-1.png,s,1,0.39665859984233975,h,1,0.240641999989748,0.04922629985958338,0.04971479997038841,0.09942199988290668,0.09955709986388683,0.7481355001218617
RSVPLG03,km,20260430-151920,1.0.2,20251113-095759,831,Experiment,Both,1,Automatic,main,7,20260430-152006,local,local,750,S,S,A,A,A-S.png,A-S.png,sS,sS,mask-1.png,mask-4.png,s,1,0.39622610015794635,s,1,0.2864121999591589,0.049066000152379274,0.05140740005299449,0.10068240016698837,0.10063389968127012,0.747807300183922
RSVPLG03,km,20260430-151920,1.0.2,20251113-095759,831,Experiment,Both,1,Automatic,main,8,20260430-152011,global,local,750,H,H,A,A,H-A.png,A-H.png,hH,hH,mask-1.png,mask-1.png,h,1,0.3954179002903402,h,1,0.17715080035850406,0.0496352999471128,0.049668299965560436,0.09760469989851117,0.09946219995617867,0.7460630000568926
RSVPLG03,km,20260430-151920,1.0.2,20251113-095759,831,Experiment,Both,1,Automatic,main,9,20260430-152016,global,global,750,H,H,E,A,H-E.png,H-A.png,hH,hH,mask-3.png,mask-3.png,h,1,0.35346070025116205,h,1,0.20868279971182346,0.05025399988517165,0.05092559987679124,0.10080470005050302,0.10006600013002753,0.7475677998736501
RSVPLG03,km,20260430-151920,1.0.2,20251113-095759,831,Experiment,Both,1,Automatic,main,10,20260430-152020,local,local,750,H,H,A,E,A-H.png,E-H.png,hH,hH,mask-1.png,mask-3.png,h,1,0.3813952002674341,h,1,0.17712830007076263,0.04914329992607236,0.048913799691945314,0.09989080019295216,0.09883560007438064,0.7479364001192153
RSVPLG03,km,20260430-151920,1.0.2,20251113-095759,831,Experiment,Both,1,Automatic,main,11,20260430-152025,local,global,750,H,S,E,A,E-H.png,S-A.png,hH,sS,mask-4.png,mask-3.png,h,1,0.3511728001758456,s,1,0.3057144000194967,0.04909779969602823,0.05052859988063574,0.09963000006973743,0.09946399973705411,0.7482549999840558
RSVPLG03,km,20260430-151920,1.0.2,20251113-095759,831,Experiment,Both,1,Automatic,main,12,20260430-152030,global,local,300,S,S,A,A,S-A.png,A-S.png,sS,sS,mask-1.png,mask-3.png,s,1,0.3545751003548503,h,0,0.20905920024961233,0.049669899977743626,0.05030649993568659,0.09916110010817647,0.099520199932158,0.2992565003223717
RSVPLG03,km,20260430-151920,1.0.2,20251113-095759,831,Experiment,Both,1,Automatic,main,13,20260430-152034,local,local,300,S,S,E,E,E-S.png,E-S.png,sS,sS,mask-4.png,mask-1.png,s,1,0.3351302999071777,h,0,0.992977799847722,0.048918699845671654,0.04986279970034957,0.09996729996055365,0.09991119988262653,0.2980671999976039
RSVPLG03,km,20260430-151920,1.0.2,20251113-095759,831,Experiment,Both,1,Automatic,main,14,20260430-152039,local,global,750,S,S,E,A,E-S.png,S-A.png,sS,sS,mask-4.png,mask-1.png,s,1,0.3071078001521528,h,0,0.28808180009946227,0.05062330001965165,0.04969359980896115,0.10019179992377758,0.09865389997139573,0.7494985000230372
RSVPLG03,km,20260430-151920,1.0.2,20251113-095759,831,Experiment,Both,1,Automatic,main,15,20260430-152044,global,local,300,S,S,E,E,S-E.png,E-S.png,sS,sS,mask-3.png,mask-2.png,s,1,0.5579829001799226,h,0,0.22589319990947843,0.048210099805146456,0.04983850009739399,0.09963589999824762,0.09936020011082292,0.29790979996323586
RSVPLG03,km,20260430-151920,1.0.2,20251113-095759,831,Experiment,Both,1,Automatic,main,16,20260430-152048,global,global,750,S,H,A,E,S-A.png,H-E.png,sS,hH,mask-3.png,mask-4.png,s,1,0.6114852000027895,h,1,0.35281109996140003,0.04890589974820614,0.050425199791789055,0.10042899986729026,0.10026319976896048,0.7483521001413465
RSVPLG03,km,20260430-151920,1.0.2,20251113-095759,831,Experiment,Both,1,Automatic,main,17,20260430-152053,global,local,750,S,S,E,E,S-E.png,E-S.png,sS,sS,mask-1.png,mask-3.png,s,1,0.3184819999150932,s,1,0.27464859979227185,0.049061700236052275,0.04952979972586036,0.10038150008767843,0.10092619992792606,0.7480471003800631
RSVPLG03,km,20260430-151920,1.0.2,20251113-095759,831,Experiment,Both,1,Automatic,main,18,20260430-152058,local,local,300,S,H,E,E,E-S.png,E-H.png,sS,hH,mask-3.png,mask-3.png,s,1,0.380092800129205,h,1,0.690138400066644,0.04895250033587217,0.0496614002622664,0.10020170034840703,0.09947460005059838,0.29860129998996854
RSVPLG03,km,20260430-151920,1.0.2,20251113-095759,831,Experiment,Both,1,Automatic,main,19,20260430-152103,local,global,750,S,S,E,E,E-S.png,S-E.png,sS,sS,mask-2.png,mask-1.png,s,1,0.6620257999747992,h,0,0.2092594001442194,0.04942419985309243,0.048682599794119596,0.09868469974026084,0.09963979991152883,0.7483244999311864
RSVPLG03,km,20260430-151920,1.0.2,20251113-095759,831,Experiment,Both,1,Automatic,main,20,20260430-152108,global,global,750,H,H,E,A,H-E.png,H-A.png,hH,hH,mask-2.png,mask-4.png,h,1,0.5417865999042988,h,1,0.832555599976331,0.05070669995620847,0.04809139994904399,0.10001459997147322,0.09749830001965165,0.7495920998044312
RSVPLG03,km,20260430-151920,1.0.2,20251113-095759,831,Experiment,Both,1,Automatic,main,21,20260430-152113,global,global,300,S,S,A,A,S-A.png,S-A.png,sS,sS,mask-1.png,mask-3.png,s,1,0.8593246000818908,s,1,0.1928318003192544,0.04986779997125268,0.04890159983187914,0.09997719991952181,0.10010740021243691,0.30002930015325546
RSVPLG03,km,20260430-151920,1.0.2,20251113-095759,831,Experiment,Both,1,Automatic,main,22,20260430-152118,local,global,300,H,S,E,E,E-H.png,S-E.png,hH,sS,mask-4.png,mask-2.png,h,1,0.5921479999087751,h,0,0.17743209982290864,0.051027999725192785,0.05110649997368455,0.10006470000371337,0.10006530024111271,0.2993267998099327
RSVPLG03,km,20260430-151920,1.0.2,20251113-095759,831,Experiment,Both,1,Automatic,main,23,20260430-152123,global,global,300,H,S,A,A,H-A.png,S-A.png,hH,sS,mask-1.png,mask-1.png,s,0,1.2935012998059392,h,0,0.1616414999589324,0.0490776002407074,0.05174320004880428,0.10042980033904314,0.09927750006318092,0.29854390025138855
RSVPLG03,km,20260430-151920,1.0.2,20251113-095759,831,Experiment,Both,1,Automatic,main,24,20260430-152128,global,global,300,H,S,A,E,H-A.png,S-E.png,hH,sS,mask-1.png,mask-3.png,h,1,0.49691420001909137,s,1,0.20702299987897277,0.049439100082963705,0.05024849995970726,0.1008012997917831,0.10033960035070777,0.29996579978615046
RSVPLG03,km,20260430-151920,1.0.2,20251113-095759,831,Experiment,Both,1,Automatic,main,25,20260430-152132,local,global,300,H,H,E,E,E-H.png,H-E.png,hH,hH,mask-4.png,mask-2.png,h,1,0.6666688998229802,s,0,0.23778760014101863,0.05152680026367307,0.05029790010303259,0.09864740027114749,0.09930269978940487,0.2984317000955343
RSVPLG03,km,20260430-151920,1.0.2,20251113-095759,831,Experiment,Both,1,Automatic,main,26,20260430-152139,local,global,750,S,S,E,E,E-S.png,S-E.png,sS,sS,mask-3.png,mask-1.png,s,1,0.3743948000483215,s,1,0.22520099999383092,0.050404499750584364,0.051823100075125694,0.0992643996141851,0.09939759969711304,0.7469776999205351
RSVPLG03,km,20260430-151920,1.0.2,20251113-095759,831,Experiment,Both,1,Automatic,main,27,20260430-152143,global,global,300,S,S,E,A,S-E.png,S-A.png,sS,sS,mask-3.png,mask-4.png,s,1,0.3087347997352481,s,1,0.20427029998973012,0.04904499975964427,0.05095010017976165,0.09944000001996756,0.10050710011273623,0.298843199852854
RSVPLG03,km,20260430-151920,1.0.2,20251113-095759,831,Experiment,Both,1,Automatic,main,28,20260430-152148,global,local,750,H,S,A,A,H-A.png,A-S.png,hH,sS,mask-3.png,mask-3.png,h,1,0.5075607001781464,h,0,0.22447560029104352,0.049658400006592274,0.05055750021710992,0.09931720001623034,0.10137039981782436,0.747501399833709
RSVPLG03,km,20260430-151920,1.0.2,20251113-095759,831,Experiment,Both,1,Automatic,main,29,20260430-152152,local,global,750,H,H,E,A,E-H.png,H-A.png,hH,hH,mask-1.png,mask-1.png,h,1,0.4111798000521958,h,1,0.11247250018641353,0.05012110015377402,0.04909490002319217,0.10013300040736794,0.10008669970557094,0.7480801003985107
RSVPLG03,km,20260430-151920,1.0.2,20251113-095759,831,Experiment,Both,1,Automatic,main,30,20260430-152157,local,local,750,H,S,E,E,E-H.png,E-S.png,hH,sS,mask-3.png,mask-3.png,h,1,0.35511460015550256,s,1,0.17764110025018454,0.049775800202041864,0.048983899876475334,0.10131100006401539,0.09847939992323518,0.7492964002303779
RSVPLG03,km,20260430-151920,1.0.2,20251113-095759,831,Experiment,Both,1,Automatic,main,31,20260430-152202,global,local,300,S,H,A,E,S-A.png,E-H.png,sS,hH,mask-2.png,mask-4.png,h,0,1.0052899001166224,s,0,0.12347989995032549,0.0504269003868103,0.05030990019440651,0.10087179997935891,0.09905990026891232,0.2992472001351416
RSVPLG03,km,20260430-151920,1.0.2,20251113-095759,831,Experiment,Both,1,Automatic,main,32,20260430-152207,global,global,750,S,H,A,E,S-A.png,H-E.png,sS,hH,mask-1.png,mask-3.png,s,1,0.4473095000721514,h,1,0.25797170028090477,0.04972549993544817,0.049388499930500984,0.09973099967464805,0.10015559988096356,0.7484357999637723
RSVPLG03,km,20260430-151920,1.0.2,20251113-095759,831,Experiment,Both,1,Automatic,main,33,20260430-152211,global,global,750,S,S,E,A,S-E.png,S-A.png,sS,sS,mask-3.png,mask-4.png,s,1,0.5876985001377761,s,1,0.17695629969239235,0.04873399995267391,0.04897310025990009,0.09882589988410473,0.09925440000370145,0.748214699793607
RSVPLG03,km,20260430-151920,1.0.2,20251113-095759,831,Experiment,Both,1,Automatic,main,34,20260430-152216,global,global,300,S,S,A,A,S-A.png,S-A.png,sS,sS,mask-4.png,mask-4.png,s,1,0.2859881999902427,s,1,0.16124899964779615,0.048558699898421764,0.04986120015382767,0.09902929980307817,0.09929950023069978,0.2987246997654438
RSVPLG03,km,20260430-151920,1.0.2,20251113-095759,831,Experiment,Both,1,Automatic,main,35,20260430-152220,local,local,300,H,H,A,E,A-H.png,E-H.png,hH,hH,mask-1.png,mask-3.png,h,1,0.3290040995925665,h,1,0.15833669994026423,0.04933289997279644,0.050402600318193436,0.09892940009012818,0.1009272001683712,0.29911099979653955
RSVPLG03,km,20260430-151920,1.0.2,20251113-095759,831,Experiment,Both,1,Automatic,main,36,20260430-152225,global,local,750,H,S,E,E,H-E.png,E-S.png,hH,sS,mask-1.png,mask-1.png,h,1,1.1313978000544012,s,1,0.11353160021826625,0.04986240016296506,0.04801709996536374,0.09989070007577538,0.09794879984110594,0.7493890002369881
RSVPLG03,km,20260430-151920,1.0.2,20251113-095759,831,Experiment,Both,1,Automatic,main,37,20260430-152230,global,local,300,S,S,A,E,S-A.png,E-S.png,sS,sS,mask-2.png,mask-4.png,s,1,0.3587826997973025,h,0,0.46626280015334487,0.049687199760228395,0.04947680002078414,0.10070420010015368,0.09991650003939867,0.29853609995916486
RSVPLG03,km,20260430-151920,1.0.2,20251113-095759,831,Experiment,Both,1,Automatic,main,38,20260430-152235,global,local,300,H,S,A,A,H-A.png,A-S.png,hH,sS,mask-2.png,mask-2.png,h,1,0.4653227003291249,h,0,0.16112039983272552,0.048803200013935566,0.049910500179976225,0.09892820008099079,0.0999515000730753,0.2988565000705421
RSVPLG03,km,20260430-151920,1.0.2,20251113-095759,831,Experiment,Both,1,Automatic,main,39,20260430-152239,global,local,300,S,H,E,A,S-E.png,A-H.png,sS,hH,mask-2.png,mask-1.png,s,1,0.3178777997381985,h,1,0.20931660011410713,0.05044070025905967,0.04946590028703213,0.0993388001807034,0.09945810027420521,0.2981412000954151
RSVPLG03,km,20260430-151920,1.0.2,20251113-095759,831,Experiment,Both,1,Automatic,main,40,20260430-152243,global,local,300,H,H,A,A,H-A.png,A-H.png,hH,hH,mask-2.png,mask-1.png,h,1,0.3332096002995968,h,1,0.1764346999116242,0.05048729991540313,0.048504000063985586,0.10083679994568229,0.10043439967557788,0.2993854000233114
RSVPLG03,km,20260430-151920,1.0.2,20251113-095759,831,Experiment,Both,1,Automatic,main,41,20260430-152247,global,global,750,H,S,E,A,H-E.png,S-A.png,hH,sS,mask-1.png,mask-3.png,h,1,0.2878095000050962,s,1,0.14557399973273277,0.050806500017642975,0.04881819989532232,0.10297450004145503,0.0999690000899136,0.7488597999326885
RSVPLG03,km,20260430-151920,1.0.2,20251113-095759,831,Experiment,Both,1,Automatic,main,42,20260430-152252,local,global,300,S,H,A,A,A-S.png,H-A.png,sS,hH,mask-2.png,mask-4.png,s,1,1.6658426998183131,h,1,0.2381036002188921,0.05017330031841993,0.048531200271099806,0.10030760010704398,0.09834450017660856,0.30030670017004013
RSVPLG03,km,20260430-151920,1.0.2,20251113-095759,831,Experiment,Both,1,Automatic,main,43,20260430-152257,global,global,750,S,H,E,A,S-E.png,H-A.png,sS,hH,mask-3.png,mask-4.png,s,1,0.327706600073725,h,1,0.1445736000314355,0.051082500256597996,0.05152039974927902,0.10150170000270009,0.10039049992337823,0.7488224003463984
RSVPLG03,km,20260430-151920,1.0.2,20251113-095759,831,Experiment,Both,1,Automatic,main,44,20260430-152302,local,global,300,H,S,E,A,E-H.png,S-A.png,hH,sS,mask-4.png,mask-1.png,h,1,0.42943140026181936,s,1,0.06372600002214313,0.04758589994162321,0.050592100247740746,0.0983194001019001,0.1005875002592802,0.29694969998672605
RSVPLG03,km,20260430-151920,1.0.2,20251113-095759,831,Experiment,Both,1,Automatic,main,45,20260430-152306,local,local,750,S,S,A,E,A-S.png,E-S.png,sS,sS,mask-1.png,mask-4.png,s,1,0.3291080999188125,s,1,0.1943247001618147,0.05052819987758994,0.048396500293165445,0.09923999989405274,0.09891659999266267,0.7486497997306287
RSVPLG03,km,20260430-151920,1.0.2,20251113-095759,831,Experiment,Both,1,Automatic,main,46,20260430-152311,local,global,750,H,H,E,A,E-H.png,H-A.png,hH,hH,mask-4.png,mask-1.png,h,1,0.43665429996326566,s,0,0.2667368003167212,0.04873509984463453,0.05000000027939677,0.09869199991226196,0.09926520008593798,0.7469883998855948
RSVPLG03,km,20260430-151920,1.0.2,20251113-095759,831,Experiment,Both,1,Automatic,main,47,20260430-152316,local,global,300,H,H,A,E,A-H.png,H-E.png,hH,hH,mask-3.png,mask-3.png,s,0,0.5954579999670386,h,1,0.4167534997686744,0.04890119982883334,0.05024790018796921,0.0983271999284625,0.1001613000407815,0.29816879983991385
RSVPLG03,km,20260430-151920,1.0.2,20251113-095759,831,Experiment,Both,1,Automatic,main,48,20260430-152321,global,global,300,H,S,E,E,H-E.png,S-E.png,hH,sS,mask-3.png,mask-3.png,s,0,2.1539925998076797,s,1,0.32250990020111203,0.04961310001090169,0.04879359994083643,0.09937569964677095,0.09954530000686646,0.2988037997856736
RSVPLG03,km,20260430-151920,1.0.2,20251113-095759,831,Experiment,Both,1,Automatic,main,49,20260430-152327,local,global,300,H,H,E,A,E-H.png,H-A.png,hH,hH,mask-1.png,mask-3.png,h,1,0.8279162999242544,h,1,0.5923923999071121,0.04994549974799156,0.050600599963217974,0.10170050011947751,0.10090429987758398,0.2986750998534262
RSVPLG03,km,20260430-151920,1.0.2,20251113-095759,831,Experiment,Both,1,Automatic,main,50,20260430-152332,global,local,300,S,S,A,E,S-A.png,E-S.png,sS,sS,mask-2.png,mask-1.png,s,1,0.38045329973101616,h,0,0.1904007000848651,0.04963120026513934,0.049306599888950586,0.0986735001206398,0.09859779989346862,0.3004662999883294
RSVPLG03,km,20260430-151920,1.0.2,20251113-095759,831,Experiment,Both,1,Automatic,main,51,20260430-152351,local,local,750,H,H,E,E,E-H.png,E-H.png,hH,hH,mask-2.png,mask-1.png,h,1,0.37490419996902347,h,1,0.1301625999622047,0.048746699932962656,0.04826349997892976,0.09953489992767572,0.09799009980633855,0.74839310022071
RSVPLG03,km,20260430-151920,1.0.2,20251113-095759,831,Experiment,Both,1,Automatic,main,52,20260430-152356,local,local,300,H,H,E,A,E-H.png,A-H.png,hH,hH,mask-3.png,mask-2.png,h,1,0.269779599737376,h,1,0.09645679965615273,0.04988069972023368,0.050252600107342005,0.10145899979397655,0.10046590026468039,0.2993389996699989
RSVPLG03,km,20260430-151920,1.0.2,20251113-095759,831,Experiment,Both,1,Automatic,main,53,20260430-152400,global,global,750,S,S,E,A,S-E.png,S-A.png,sS,sS,mask-3.png,mask-1.png,s,1,0.3978105001151562,s,1,0.13969380035996437,0.04992379993200302,0.049585099797695875,0.09965590015053749,0.09964950010180473,0.7472246000543237
RSVPLG03,km,20260430-151920,1.0.2,20251113-095759,831,Experiment,Both,1,Automatic,main,54,20260430-152404,global,global,300,S,H,A,E,S-A.png,H-E.png,sS,hH,mask-2.png,mask-1.png,s,1,0.3782450999133289,h,1,0.1138913999311626,0.04956630012020469,0.04879530007019639,0.09940460044890642,0.10050119971856475,0.29913090029731393
RSVPLG03,km,20260430-151920,1.0.2,20251113-095759,831,Experiment,Both,1,Automatic,main,55,20260430-152409,local,local,300,S,S,E,E,E-S.png,E-S.png,sS,sS,mask-3.png,mask-3.png,s,1,0.2844891003333032,s,1,0.43184510013088584,0.052350400015711784,0.04924389999359846,0.10017540026456118,0.10033580008894205,0.29973299987614155
RSVPLG03,km,20260430-151920,1.0.2,20251113-095759,831,Experiment,Both,1,Automatic,main,56,20260430-152413,local,global,750,H,H,E,A,E-H.png,H-A.png,hH,hH,mask-1.png,mask-4.png,h,1,0.4682219000533223,h,1,0.6735891001299024,0.04971850011497736,0.050144600216299295,0.09922889992594719,0.10051409993320704,0.7475185999646783
RSVPLG03,km,20260430-151920,1.0.2,20251113-095759,831,Experiment,Both,1,Automatic,main,57,20260430-152418,global,global,300,H,S,E,A,H-E.png,S-A.png,hH,sS,mask-1.png,mask-1.png,h,1,0.4162347000092268,s,1,0.07427170034497976,0.04840929992496967,0.04853070015087724,0.09952379995957017,0.09845050005242229,0.29948459984734654
RSVPLG03,km,20260430-151920,1.0.2,20251113-095759,831,Experiment,Both,1,Automatic,main,58,20260430-152423,local,local,750,S,H,A,A,A-S.png,A-H.png,sS,hH,mask-1.png,mask-1.png,h,0,0.3633008999750018,h,1,0.11364530026912689,0.04937850032001734,0.048378400038927794,0.09932949999347329,0.09945440012961626,0.748161599971354
RSVPLG03,km,20260430-151920,1.0.2,20251113-095759,831,Experiment,Both,1,Automatic,main,59,20260430-152427,local,local,300,S,H,E,A,E-S.png,A-H.png,sS,hH,mask-2.png,mask-2.png,s,1,0.3468094998970628,h,1,0.1126695997081697,0.05049269972369075,0.05014429986476898,0.09954149974510074,0.10098609980195761,0.2993365000002086
RSVPLG03,km,20260430-151920,1.0.2,20251113-095759,831,Experiment,Both,1,Automatic,main,60,20260430-152431,local,global,300,S,S,A,E,A-S.png,S-E.png,sS,sS,mask-2.png,mask-4.png,s,1,0.6983133000321686,h,0,0.11129339970648289,0.049832799937576056,0.050287900026887655,0.1004381999373436,0.09967719996348023,0.2994454000145197
RSVPLG03,km,20260430-151920,1.0.2,20251113-095759,831,Experiment,Both,1,Automatic,main,61,20260430-152436,local,global,300,S,S,E,E,E-S.png,S-E.png,sS,sS,mask-3.png,mask-4.png,s,1,0.4639825001358986,s,1,0.1297511998564005,0.049564399756491184,0.04865529993548989,0.09982409980148077,0.09975540032610297,0.2992246998474002
RSVPLG03,km,20260430-151920,1.0.2,20251113-095759,831,Experiment,Both,1,Automatic,main,62,20260430-152440,global,local,300,H,S,E,A,H-E.png,A-S.png,hH,sS,mask-1.png,mask-3.png,h,1,0.3806390999816358,h,0,0.1600538999773562,0.048901500180363655,0.049027500208467245,0.09967669984325767,0.09824440022930503,0.2987867998890579
RSVPLG03,km,20260430-151920,1.0.2,20251113-095759,831,Experiment,Both,1,Automatic,main,63,20260430-152444,local,global,750,S,H,A,E,A-S.png,H-E.png,sS,hH,mask-3.png,mask-3.png,s,1,0.6528111998923123,s,0,0.34864410012960434,0.05044979974627495,0.04882190003991127,0.09872139990329742,0.09887780016288161,0.7476837998256087
RSVPLG03,km,20260430-151920,1.0.2,20251113-095759,831,Experiment,Both,1,Automatic,main,64,20260430-152450,local,local,750,H,H,A,A,A-H.png,A-H.png,hH,hH,mask-3.png,mask-3.png,h,1,1.6325242999009788,h,1,0.09737470000982285,0.04899609973654151,0.049162100069224834,0.09890929982066154,0.09968330012634397,0.7473651999607682
RSVPLG03,km,20260430-151920,1.0.2,20251113-095759,831,Experiment,Both,1,Automatic,main,65,20260430-152455,global,global,300,S,H,A,A,S-A.png,H-A.png,sS,hH,mask-4.png,mask-1.png,s,1,1.1918711997568607,h,1,0.12928180024027824,0.04859319981187582,0.05075779976323247,0.09854809986427426,0.09942629979923368,0.29820859991014004
RSVPLG03,km,20260430-151920,1.0.2,20251113-095759,831,Experiment,Both,1,Automatic,main,66,20260430-152500,local,global,300,S,H,A,E,A-S.png,H-E.png,sS,hH,mask-1.png,mask-2.png,s,1,0.480551500339061,h,1,0.5244025001302361,0.051013899967074394,0.04926980007439852,0.10077460017055273,0.098974599968642,0.2994852000847459
RSVPLG03,km,20260430-151920,1.0.2,20251113-095759,831,Experiment,Both,1,Automatic,main,67,20260430-152505,local,local,300,H,S,A,E,A-H.png,E-S.png,hH,sS,mask-4.png,mask-4.png,h,1,0.3011325001716614,h,0,0.44527400005608797,0.04754169983789325,0.05145220039412379,0.09894909989088774,0.10048620030283928,0.29668449983000755
RSVPLG03,km,20260430-151920,1.0.2,20251113-095759,831,Experiment,Both,1,Automatic,main,68,20260430-152509,global,local,750,H,H,A,A,H-A.png,A-H.png,hH,hH,mask-2.png,mask-4.png,h,1,0.3930195001885295,h,1,0.17543220007792115,0.04835930000990629,0.05014970013871789,0.09883709996938705,0.09970979997888207,0.7464418997988105
RSVPLG03,km,20260430-151920,1.0.2,20251113-095759,831,Experiment,Both,1,Automatic,main,69,20260430-152514,local,local,300,H,H,E,A,E-H.png,A-H.png,hH,hH,mask-2.png,mask-2.png,s,0,0.5128124002367258,h,1,0.15914899995550513,0.04931179992854595,0.04896860010921955,0.09972049994394183,0.10047060018405318,0.29918189998716116
RSVPLG03,km,20260430-151920,1.0.2,20251113-095759,831,Experiment,Both,1,Automatic,main,70,20260430-152519,local,local,300,H,S,A,E,A-H.png,E-S.png,hH,sS,mask-2.png,mask-2.png,h,1,0.36099529964849353,s,1,0.5114687001332641,0.04898579977452755,0.04903380014002323,0.09955189982429147,0.09910040022805333,0.299985199701041
RSVPLG03,km,20260430-151920,1.0.2,20251113-095759,831,Experiment,Both,1,Automatic,main,71,20260430-152523,global,local,300,S,S,A,E,S-A.png,E-S.png,sS,sS,mask-2.png,mask-3.png,s,1,0.39558100001886487,s,1,0.6527365003712475,0.049339800141751766,0.05069429986178875,0.09849519981071353,0.10008859960362315,0.2983865002170205
RSVPLG03,km,20260430-151920,1.0.2,20251113-095759,831,Experiment,Both,1,Automatic,main,72,20260430-152528,global,global,300,S,H,A,A,S-A.png,H-A.png,sS,hH,mask-2.png,mask-1.png,h,0,2.1173761999234557,h,1,0.289865399710834,0.04985589999705553,0.049133900087326765,0.09983320022001863,0.09886689996346831,0.30036700004711747
RSVPLG03,km,20260430-151920,1.0.2,20251113-095759,831,Experiment,Both,1,Automatic,main,73,20260430-152534,global,local,750,S,S,A,A,S-A.png,A-S.png,sS,sS,mask-4.png,mask-3.png,s,1,0.4841208001598716,s,1,1.1048530000261962,0.048981199972331524,0.050375199876725674,0.0997549002058804,0.1000832999125123,0.7486912002786994
RSVPLG03,km,20260430-151920,1.0.2,20251113-095759,831,Experiment,Both,1,Automatic,main,74,20260430-152540,local,local,750,H,H,E,E,E-H.png,E-H.png,hH,hH,mask-4.png,mask-3.png,h,1,0.4559360002167523,h,1,0.18830620031803846,0.049690499901771545,0.04970719991251826,0.09998170007020235,0.0978600000962615,0.7479848000220954
RSVPLG03,km,20260430-151920,1.0.2,20251113-095759,831,Experiment,Both,1,Automatic,main,75,20260430-152545,global,global,300,H,S,A,E,H-A.png,S-E.png,hH,sS,mask-3.png,mask-2.png,h,1,0.679477599915117,s,1,0.2889744001440704,0.04925440018996596,0.04968479974195361,0.09918120037764311,0.1010262998752296,0.29761800030246377
RSVPLG03,km,20260430-151920,1.0.2,20251113-095759,831,Experiment,Both,1,Automatic,main,76,20260430-152556,global,local,750,S,S,A,A,S-A.png,A-S.png,sS,sS,mask-3.png,mask-1.png,h,0,1.9283132995478809,h,0,0.143060099799186,0.04952349979430437,0.049246900249272585,0.09895219979807734,0.09894639998674393,0.7488869996741414
RSVPLG03,km,20260430-151920,1.0.2,20251113-095759,831,Experiment,Both,1,Automatic,main,77,20260430-152602,local,local,750,H,S,A,E,A-H.png,E-S.png,hH,sS,mask-1.png,mask-4.png,s,0,0.7521015000529587,h,0,0.20670480001717806,0.05028799967840314,0.04975600028410554,0.0994726000353694,0.09954700013622642,0.7476574997417629
RSVPLG03,km,20260430-151920,1.0.2,20251113-095759,831,Experiment,Both,1,Automatic,main,78,20260430-152608,local,global,750,H,H,A,A,A-H.png,H-A.png,hH,hH,mask-2.png,mask-1.png,h,1,2.60649360017851,s,0,0.30338159995153546,0.04996269987896085,0.04987759981304407,0.0992939998395741,0.09799630008637905,0.7484392998740077
RSVPLG03,km,20260430-151920,1.0.2,20251113-095759,831,Experiment,Both,1,Automatic,main,79,20260430-152615,global,local,750,S,H,E,A,S-E.png,A-H.png,sS,hH,mask-1.png,mask-2.png,s,1,2.211910900194198,h,1,0.27249159989878535,0.05138730024918914,0.05016149999573827,0.10095910029485822,0.09854120016098022,0.7491565002128482
RSVPLG03,km,20260430-151920,1.0.2,20251113-095759,831,Experiment,Both,1,Automatic,main,80,20260430-152621,local,local,750,H,H,A,E,A-H.png,E-H.png,hH,hH,mask-1.png,mask-4.png,h,1,0.36691970005631447,h,1,0.1388189997524023,0.04990889970213175,0.04849830036982894,0.09779539983719587,0.09998000040650368,0.7476192996837199
RSVPLG03,km,20260430-151920,1.0.2,20251113-095759,831,Experiment,Both,1,Automatic,main,81,20260430-152626,local,local,750,H,H,A,E,A-H.png,E-H.png,hH,hH,mask-1.png,mask-2.png,h,1,0.4238721001893282,h,1,0.14515949971973896,0.05078350007534027,0.048350799828767776,0.10025039967149496,0.09944709995761514,0.7490387000143528
RSVPLG03,km,20260430-151920,1.0.2,20251113-095759,831,Experiment,Both,1,Automatic,main,82,20260430-152631,local,global,300,H,S,A,A,A-H.png,S-A.png,hH,sS,mask-1.png,mask-2.png,h,1,0.51497139967978,s,1,0.1773609002120793,0.04802630003541708,0.049247399903833866,0.09935950022190809,0.09949799999594688,0.29864059993997216
RSVPLG03,km,20260430-151920,1.0.2,20251113-095759,831,Experiment,Both,1,Automatic,main,83,20260430-152635,local,global,300,H,S,E,E,E-H.png,S-E.png,hH,sS,mask-4.png,mask-4.png,h,1,0.8947506998665631,s,1,0.32007750030606985,0.04976430023089051,0.050094399601221085,0.10092380037531257,0.09990209992974997,0.2982189003378153
RSVPLG03,km,20260430-151920,1.0.2,20251113-095759,831,Experiment,Both,1,Automatic,main,84,20260430-152640,local,global,300,H,S,E,A,E-H.png,S-A.png,hH,sS,mask-2.png,mask-4.png,h,1,0.5781279997900128,s,1,0.44870710000395775,0.05086750024929643,0.05102280015125871,0.10038430010899901,0.10107650002464652,0.29963190015405416
RSVPLG03,km,20260430-151920,1.0.2,20251113-095759,831,Experiment,Both,1,Automatic,main,85,20260430-152645,global,local,300,H,S,E,A,H-E.png,A-S.png,hH,sS,mask-3.png,mask-3.png,h,1,0.5266264001838863,s,1,0.27249090000987053,0.05074029974639416,0.05001780018210411,0.10063439980149269,0.09978020004928112,0.2995314998552203
RSVPLG03,km,20260430-151920,1.0.2,20251113-095759,831,Experiment,Both,1,Automatic,main,86,20260430-152649,global,global,750,H,S,A,A,H-A.png,S-A.png,hH,sS,mask-3.png,mask-1.png,h,1,0.32498549995943904,s,1,0.09626620030030608,0.05055999988690019,0.05009399959817529,0.10125249996781349,0.1006409996189177,0.7476198002696037
RSVPLG03,km,20260430-151920,1.0.2,20251113-095759,831,Experiment,Both,1,Automatic,main,87,20260430-152654,global,local,750,S,S,E,A,S-E.png,A-S.png,sS,sS,mask-3.png,mask-1.png,s,1,0.4325381997041404,h,0,0.16194149991497397,0.049631400033831596,0.049123600125312805,0.0988630997017026,0.09954820014536381,0.7471687998622656
RSVPLG03,km,20260430-151920,1.0.2,20251113-095759,831,Experiment,Both,1,Automatic,main,88,20260430-152659,local,global,750,S,S,A,A,A-S.png,S-A.png,sS,sS,mask-4.png,mask-1.png,h,0,0.9690350000746548,s,1,0.12916600005701184,0.050396000035107136,0.05011710012331605,0.1012075999751687,0.10077949985861778,0.7487678001634777
RSVPLG03,km,20260430-151920,1.0.2,20251113-095759,831,Experiment,Both,1,Automatic,main,89,20260430-152704,global,local,750,S,H,E,A,S-E.png,A-H.png,sS,hH,mask-1.png,mask-3.png,s,1,0.5496257999911904,h,1,0.22268910007551312,0.04996079998090863,0.05010790005326271,0.09949390031397343,0.1002416000701487,0.7461989000439644
RSVPLG03,km,20260430-151920,1.0.2,20251113-095759,831,Experiment,Both,1,Automatic,main,90,20260430-152709,global,global,300,H,S,A,E,H-A.png,S-E.png,hH,sS,mask-4.png,mask-4.png,h,1,0.5752245998010039,s,1,0.17713560024276376,0.050756600219756365,0.0508411000482738,0.1010855003260076,0.09805209981277585,0.300751400180161
RSVPLG03,km,20260430-151920,1.0.2,20251113-095759,831,Experiment,Both,1,Automatic,main,91,20260430-152713,local,local,300,H,S,A,E,A-H.png,E-S.png,hH,sS,mask-1.png,mask-2.png,h,1,0.4435915001668036,s,1,0.11324700014665723,0.04978760005906224,0.04991659987717867,0.10032610036432743,0.10070749977603555,0.29851730028167367
RSVPLG03,km,20260430-151920,1.0.2,20251113-095759,831,Experiment,Both,1,Automatic,main,92,20260430-152718,local,local,750,S,S,A,A,A-S.png,A-S.png,sS,sS,mask-3.png,mask-2.png,s,1,0.42129720002412796,s,1,0.2089927000924945,0.050796099938452244,0.0504597001709044,0.10123249981552362,0.09950619982555509,0.7477426999248564
RSVPLG03,km,20260430-151920,1.0.2,20251113-095759,831,Experiment,Both,1,Automatic,main,93,20260430-152722,global,global,750,S,H,E,A,S-E.png,H-A.png,sS,hH,mask-1.png,mask-4.png,s,1,0.23109779972583055,h,1,0.17665479984134436,0.04976260010153055,0.049966500140726566,0.10029410012066364,0.09876560000702739,0.7488878001458943
RSVPLG03,km,20260430-151920,1.0.2,20251113-095759,831,Experiment,Both,1,Automatic,main,94,20260430-152727,global,local,750,S,H,A,A,S-A.png,A-H.png,sS,hH,mask-2.png,mask-3.png,s,1,0.35020559979602695,h,1,0.13697970006614923,0.05012679984793067,0.050304700154811144,0.10081969993188977,0.09916360024362803,0.7488046996295452
RSVPLG03,km,20260430-151920,1.0.2,20251113-095759,831,Experiment,Both,1,Automatic,main,95,20260430-152732,global,global,750,H,H,A,E,H-A.png,H-E.png,hH,hH,mask-1.png,mask-2.png,h,1,0.4046334996819496,h,1,0.15228459984064102,0.050942300353199244,0.04907359974458814,0.10000470001250505,0.09811619995161891,0.7480688001960516
RSVPLG03,km,20260430-151920,1.0.2,20251113-095759,831,Experiment,Both,1,Automatic,main,96,20260430-152736,local,local,300,H,S,A,E,A-H.png,E-S.png,hH,sS,mask-4.png,mask-4.png,h,1,0.4954689000733197,s,1,0.10397300031036139,0.050050100311636925,0.049933199770748615,0.10015830025076866,0.09995240019634366,0.29844370018690825
RSVPLG03,km,20260430-151920,1.0.2,20251113-095759,831,Experiment,Both,1,Automatic,main,97,20260430-152741,local,global,750,H,S,A,E,A-H.png,S-E.png,hH,sS,mask-3.png,mask-1.png,h,1,0.3896249998360872,s,1,0.14635259984061122,0.05039649968966842,0.04980999976396561,0.09958279971033335,0.10019040014594793,0.7485389998182654
RSVPLG03,km,20260430-151920,1.0.2,20251113-095759,831,Experiment,Both,1,Automatic,main,98,20260430-152745,local,local,300,S,S,E,E,E-S.png,E-S.png,sS,sS,mask-3.png,mask-2.png,h,0,0.5868330001831055,h,0,0.17679769964888692,0.04931119969114661,0.05008690012618899,0.100150799844414,0.0996527997776866,0.29787010001018643
RSVPLG03,km,20260430-151920,1.0.2,20251113-095759,831,Experiment,Both,1,Automatic,main,99,20260430-152750,global,global,750,S,S,E,E,S-E.png,S-E.png,sS,sS,mask-2.png,mask-1.png,s,1,0.2978675002232194,s,1,0.17549809999763966,0.049847499933093786,0.04934850009158254,0.10111090028658509,0.09937140019610524,0.7470108000561595
RSVPLG03,km,20260430-151920,1.0.2,20251113-095759,831,Experiment,Both,1,Automatic,main,100,20260430-152755,local,global,750,H,H,E,E,E-H.png,H-E.png,hH,hH,mask-3.png,mask-1.png,h,1,0.3962036999873817,s,0,0.17729440005496144,0.05022729979828,0.047947200015187263,0.09930669981986284,0.09722180012613535,0.7497580000199378
RSVPLG03,km,20260430-152852,1.0.2,20251113-095759,831,Experiment,Both,1,Automatic,warmup,1,20260430-152926,local,global,300,S,H,E,E,E-S.png,H-E.png,sS,hH,mask-4.png,mask-3.png,s,1,1.0471632000990212,h,1,0.7045259000733495,0.04353300016373396,0.047694599721580744,0.09375589992851019,0.09986349986866117,0.29564870009198785
RSVPLG03,km,20260430-152852,1.0.2,20251113-095759,831,Experiment,Both,1,Automatic,warmup,2,20260430-152931,local,global,750,H,S,E,A,E-H.png,S-A.png,hH,sS,mask-2.png,mask-4.png,h,1,0.5236178999766707,h,0,0.33594859996810555,0.04940389981493354,0.050147300120443106,0.10216909972950816,0.09953209990635514,0.7499408000148833
RSVPLG03,km,20260430-152852,1.0.2,20251113-095759,831,Experiment,Both,1,Automatic,warmup,3,20260430-152936,local,local,300,S,H,A,E,A-S.png,E-H.png,sS,hH,mask-2.png,mask-3.png,s,1,0.36206170031800866,h,1,0.15609150007367134,0.04994129994884133,0.049902800004929304,0.10005659982562065,0.09915870008990169,0.30006439983844757
RSVPLG03,km,20260430-152852,1.0.2,20251113-095759,831,Experiment,Both,1,Automatic,warmup,4,20260430-152941,global,local,750,H,H,E,E,H-E.png,E-H.png,hH,hH,mask-2.png,mask-1.png,h,1,0.37766420003026724,h,1,0.10754670016467571,0.048462599981576204,0.0495877000503242,0.0988268000073731,0.10010439995676279,0.7476832000538707
RSVPLG03,km,20260430-152852,1.0.2,20251113-095759,831,Experiment,Both,1,Automatic,main,5,20260430-152945,global,local,750,H,S,E,E,H-E.png,E-S.png,hH,sS,mask-3.png,mask-1.png,h,1,0.3340428997762501,s,1,0.12864910019561648,0.05142839998006821,0.051719899754971266,0.10143940011039376,0.10031819995492697,0.7500173002481461
RSVPLG03,km,20260430-152852,1.0.2,20251113-095759,831,Experiment,Both,1,Automatic,main,6,20260430-152950,global,local,750,H,H,E,A,H-E.png,A-H.png,hH,hH,mask-2.png,mask-2.png,h,1,0.2457538996823132,h,1,0.1278480002656579,0.050887399818748236,0.05017499998211861,0.09942180011421442,0.09891710011288524,0.7502280999906361
RSVPLG03,km,20260430-152852,1.0.2,20251113-095759,831,Experiment,Both,1,Automatic,main,7,20260430-152954,local,local,750,H,S,E,A,E-H.png,A-S.png,hH,sS,mask-1.png,mask-1.png,h,1,0.21084359986707568,s,1,0.1725433999672532,0.049567699898034334,0.05160679994150996,0.1009923997335136,0.0997810997068882,0.7492047999985516
RSVPLG03,km,20260430-152852,1.0.2,20251113-095759,831,Experiment,Both,1,Automatic,main,8,20260430-152959,local,global,300,H,S,E,E,E-H.png,S-E.png,hH,sS,mask-1.png,mask-2.png,h,1,0.2623483999632299,s,1,0.11195600032806396,0.05057549988850951,0.050218500196933746,0.1004097000695765,0.10081809991970658,0.2998627000488341
RSVPLG03,km,20260430-152852,1.0.2,20251113-095759,831,Experiment,Both,1,Automatic,main,9,20260430-153003,local,global,750,H,S,E,E,E-H.png,S-E.png,hH,sS,mask-3.png,mask-2.png,h,1,0.31446690019220114,s,1,0.1462240000255406,0.05024780007079244,0.050168999936431646,0.10135099990293384,0.10036359960213304,0.7505741002969444
RSVPLG03,km,20260430-152852,1.0.2,20251113-095759,831,Experiment,Both,1,Automatic,main,10,20260430-153008,global,global,300,H,H,E,E,H-E.png,H-E.png,hH,hH,mask-2.png,mask-4.png,h,1,0.2588806999847293,h,1,0.14530650014057755,0.04996460024267435,0.04989879997447133,0.09937260020524263,0.09997530002146959,0.29877510014921427
RSVPLG03,km,20260430-152852,1.0.2,20251113-095759,831,Experiment,Both,1,Automatic,main,11,20260430-153012,global,local,300,H,H,A,E,H-A.png,E-H.png,hH,hH,mask-4.png,mask-3.png,h,1,0.29204840026795864,h,1,0.1294224001467228,0.0481545003131032,0.04883550014346838,0.09890610026195645,0.09874820010736585,0.2986045000143349
RSVPLG03,km,20260430-152852,1.0.2,20251113-095759,831,Experiment,Both,1,Automatic,main,12,20260430-153016,local,global,750,H,S,E,A,E-H.png,S-A.png,hH,sS,mask-1.png,mask-4.png,h,1,0.3407128998078406,s,1,0.14612779999151826,0.049128899816423655,0.048854300286620855,0.10033089993521571,0.09800540003925562,0.7492654998786747
RSVPLG03,km,20260430-152852,1.0.2,20251113-095759,831,Experiment,Both,1,Automatic,main,13,20260430-153020,global,global,300,S,S,A,A,S-A.png,S-A.png,sS,sS,mask-1.png,mask-1.png,s,1,0.24871840002015233,h,0,0.30575070017948747,0.0519166998565197,0.04961960017681122,0.10020040022209287,0.09856919990852475,0.30157790007069707
RSVPLG03,km,20260430-152852,1.0.2,20251113-095759,831,Experiment,Both,1,Automatic,main,14,20260430-153025,global,local,750,H,S,E,E,H-E.png,E-S.png,hH,sS,mask-2.png,mask-4.png,h,1,0.2945901001803577,s,1,0.11314580030739307,0.050033700186759233,0.04761200025677681,0.1007372997701168,0.09753260016441345,0.7501265997998416
RSVPLG03,km,20260430-152852,1.0.2,20251113-095759,831,Experiment,Both,1,Automatic,main,15,20260430-153029,local,global,750,H,S,E,E,E-H.png,S-E.png,hH,sS,mask-3.png,mask-4.png,h,1,0.30881519988179207,s,1,0.21692579984664917,0.05005449987947941,0.05013390025123954,0.09909419994801283,0.09918199991807342,0.7487639999017119
RSVPLG03,km,20260430-152852,1.0.2,20251113-095759,831,Experiment,Both,1,Automatic,main,16,20260430-153034,local,global,750,H,S,A,E,A-H.png,S-E.png,hH,sS,mask-1.png,mask-3.png,h,1,0.2367944996803999,s,1,0.11277740029618144,0.04887939989566803,0.050344400107860565,0.09774779994040728,0.09985559992492199,0.7475934997200966
RSVPLG03,km,20260430-152852,1.0.2,20251113-095759,831,Experiment,Both,1,Automatic,main,17,20260430-153039,local,global,750,S,H,A,E,A-S.png,H-E.png,sS,hH,mask-3.png,mask-4.png,s,1,0.3181594996713102,h,1,0.014088500291109085,0.04684640001505613,0.04899080004543066,0.09804459987208247,0.09796799998730421,0.7482758001424372
RSVPLG03,km,20260430-152852,1.0.2,20251113-095759,831,Experiment,Both,1,Automatic,main,18,20260430-153043,local,local,750,H,H,E,A,E-H.png,A-H.png,hH,hH,mask-1.png,mask-1.png,h,1,0.3556647999212146,h,1,0.4162440998479724,0.04932700004428625,0.05005679978057742,0.1005664998665452,0.09888889966532588,0.7505457000806928
RSVPLG03,km,20260430-152852,1.0.2,20251113-095759,831,Experiment,Both,1,Automatic,main,19,20260430-153048,global,global,750,S,S,A,E,S-A.png,S-E.png,sS,sS,mask-1.png,mask-3.png,s,1,0.2322912998497486,s,1,0.11201920034363866,0.04918590001761913,0.049758299719542265,0.09966489998623729,0.1019302997738123,0.7481764000840485
RSVPLG03,km,20260430-152852,1.0.2,20251113-095759,831,Experiment,Both,1,Automatic,main,20,20260430-153053,global,global,750,H,H,A,E,H-A.png,H-E.png,hH,hH,mask-2.png,mask-3.png,h,1,0.2786062997765839,h,1,0.1283792001195252,0.049397299997508526,0.05134979961439967,0.09805270005017519,0.10053289961069822,0.7476694001816213
RSVPLG03,km,20260430-152852,1.0.2,20251113-095759,831,Experiment,Both,1,Automatic,main,21,20260430-153057,local,global,300,S,S,A,E,A-S.png,S-E.png,sS,sS,mask-2.png,mask-2.png,s,1,0.37351470021530986,s,1,0.08914609998464584,0.049697499722242355,0.04919950012117624,0.10141079965978861,0.09837660007178783,0.3010010998696089
RSVPLG03,km,20260430-152852,1.0.2,20251113-095759,831,Experiment,Both,1,Automatic,main,22,20260430-153101,global,global,750,S,H,A,A,S-A.png,H-A.png,sS,hH,mask-3.png,mask-1.png,s,1,0.5493315998464823,h,1,0.11369869997724891,0.04919060040265322,0.04985650023445487,0.0994437001645565,0.10031970031559467,0.7484136000275612
RSVPLG03,km,20260430-152852,1.0.2,20251113-095759,831,Experiment,Both,1,Automatic,main,23,20260430-153106,local,local,300,H,H,A,E,A-H.png,E-H.png,hH,hH,mask-4.png,mask-1.png,h,1,0.46093840012326837,h,1,1.206636100076139,0.049687900114804506,0.04789160005748272,0.10038950014859438,0.09896819991990924,0.30121809989213943
RSVPLG03,km,20260430-152852,1.0.2,20251113-095759,831,Experiment,Both,1,Automatic,main,24,20260430-153111,local,local,750,H,H,A,E,A-H.png,E-H.png,hH,hH,mask-2.png,mask-3.png,h,1,0.43456640001386404,h,1,0.22457929980009794,0.05072640022262931,0.04831720003858209,0.1000676997937262,0.0974240000359714,0.7507488997653127
RSVPLG03,km,20260430-152852,1.0.2,20251113-095759,831,Experiment,Both,1,Automatic,main,25,20260430-153116,local,local,750,H,S,A,A,A-H.png,A-S.png,hH,sS,mask-4.png,mask-1.png,h,1,0.3465987001545727,s,1,0.11313410010188818,0.0491673001088202,0.049639500211924314,0.09889260027557611,0.0997171001508832,0.7481537000276148
RSVPLG03,km,20260430-152852,1.0.2,20251113-095759,831,Experiment,Both,1,Automatic,main,26,20260430-153122,global,local,300,H,H,A,A,H-A.png,A-H.png,hH,hH,mask-1.png,mask-3.png,h,1,0.45603360002860427,h,1,0.15684879990294576,0.04996119998395443,0.04989490006119013,0.10056990012526512,0.0989016997627914,0.2992691001854837
RSVPLG03,km,20260430-152852,1.0.2,20251113-095759,831,Experiment,Both,1,Automatic,main,27,20260430-153127,local,local,750,H,S,A,A,A-H.png,A-S.png,hH,sS,mask-3.png,mask-1.png,h,1,0.4137146002613008,s,1,0.0637760004028678,0.04856120003387332,0.04893129970878363,0.09893020009621978,0.1003886996768415,0.7479426003992558
RSVPLG03,km,20260430-152852,1.0.2,20251113-095759,831,Experiment,Both,1,Automatic,main,28,20260430-153131,local,local,750,H,H,E,A,E-H.png,A-H.png,hH,hH,mask-2.png,mask-1.png,h,1,0.3410614999011159,h,1,0.14503169991075993,0.048969299998134375,0.05094570014625788,0.09973939973860979,0.1013772003352642,0.7488332996144891
RSVPLG03,km,20260430-152852,1.0.2,20251113-095759,831,Experiment,Both,1,Automatic,main,29,20260430-153136,global,global,750,S,S,A,A,S-A.png,S-A.png,sS,sS,mask-3.png,mask-1.png,s,1,1.1679861000739038,s,1,0.17212360026314855,0.05169350001960993,0.050178200006484985,0.1007455000653863,0.10028159990906715,0.7502776999026537
RSVPLG03,km,20260430-152852,1.0.2,20251113-095759,831,Experiment,Both,1,Automatic,main,30,20260430-153141,local,local,300,S,H,A,A,A-S.png,A-H.png,sS,hH,mask-2.png,mask-4.png,s,1,0.319021699950099,h,1,0.7053873999975622,0.04981399979442358,0.049202300142496824,0.099558399990201,0.0994796003215015,0.29969509970396757
RSVPLG03,km,20260430-152852,1.0.2,20251113-095759,831,Experiment,Both,1,Automatic,main,31,20260430-153146,global,local,300,S,H,E,A,S-E.png,A-H.png,sS,hH,mask-2.png,mask-4.png,s,1,0.2891709003597498,h,1,0.08209040015935898,0.05012740008533001,0.04940299969166517,0.1000204998999834,0.10037390002980828,0.2999815000221133
RSVPLG03,km,20260430-152852,1.0.2,20251113-095759,831,Experiment,Both,1,Automatic,main,32,20260430-153150,global,local,300,S,S,E,A,S-E.png,A-S.png,sS,sS,mask-1.png,mask-2.png,s,1,0.3115036999806762,h,0,0.11209889966994524,0.05048380000516772,0.05117810005322099,0.09808250004425645,0.10208600014448166,0.2983554997481406
RSVPLG03,km,20260430-152852,1.0.2,20251113-095759,831,Experiment,Both,1,Automatic,main,33,20260430-153154,global,local,750,H,S,E,E,H-E.png,E-S.png,hH,sS,mask-2.png,mask-2.png,h,1,0.3378542000427842,s,1,0.2512798001989722,0.05138229997828603,0.04929320001974702,0.09925460023805499,0.09786730026826262,0.7504250998608768
RSVPLG03,km,20260430-152852,1.0.2,20251113-095759,831,Experiment,Both,1,Automatic,main,34,20260430-153159,local,local,300,S,S,A,E,A-S.png,E-S.png,sS,sS,mask-3.png,mask-4.png,h,0,0.2778450003825128,s,1,0.09581319987773895,0.051880700048059225,0.04913150006905198,0.10083450004458427,0.09869439993053675,0.30066040018573403
RSVPLG03,km,20260430-152852,1.0.2,20251113-095759,831,Experiment,Both,1,Automatic,main,35,20260430-153203,local,local,300,S,H,A,E,A-S.png,E-H.png,sS,hH,mask-4.png,mask-3.png,s,1,0.33010479994118214,h,1,0.14422130025923252,0.05085310013964772,0.050639699678868055,0.09960980014875531,0.09876720001921058,0.3004745002835989
RSVPLG03,km,20260430-152852,1.0.2,20251113-095759,831,Experiment,Both,1,Automatic,main,36,20260430-153207,global,global,300,H,H,A,E,H-A.png,H-E.png,hH,hH,mask-1.png,mask-3.png,h,1,0.27224559988826513,h,1,0.16101230029016733,0.04925179993733764,0.049458800349384546,0.09958889987319708,0.09901130013167858,0.30133769987151027
RSVPLG03,km,20260430-152852,1.0.2,20251113-095759,831,Experiment,Both,1,Automatic,main,37,20260430-153211,global,global,750,H,S,A,A,H-A.png,S-A.png,hH,sS,mask-1.png,mask-1.png,h,1,0.3109611999243498,s,1,0.13099800003692508,0.05069539975374937,0.04962130030617118,0.09896710002794862,0.10059860022738576,0.7482380997389555
RSVPLG03,km,20260430-152852,1.0.2,20251113-095759,831,Experiment,Both,1,Automatic,main,38,20260430-153216,global,local,300,H,H,A,E,H-A.png,E-H.png,hH,hH,mask-2.png,mask-1.png,h,1,0.33963319985195994,s,0,0.6207769000902772,0.04997089970856905,0.05007159989327192,0.09963349997997284,0.10082649998366833,0.30012369994074106
RSVPLG03,km,20260430-152852,1.0.2,20251113-095759,831,Experiment,Both,1,Automatic,main,39,20260430-153221,local,local,300,S,H,E,E,E-S.png,E-H.png,sS,hH,mask-3.png,mask-2.png,s,1,0.933564499951899,h,1,0.4174089999869466,0.050803299993276596,0.05075069982558489,0.10103379981592298,0.09979429980739951,0.3001534999348223
RSVPLG03,km,20260430-152852,1.0.2,20251113-095759,831,Experiment,Both,1,Automatic,main,40,20260430-153226,local,global,300,S,H,A,A,A-S.png,H-A.png,sS,hH,mask-1.png,mask-1.png,s,1,0.347303899936378,h,1,0.33724950021132827,0.04928279994055629,0.049194199964404106,0.09964269958436489,0.10013390006497502,0.29892969969660044
RSVPLG03,km,20260430-152852,1.0.2,20251113-095759,831,Experiment,Both,1,Automatic,main,41,20260430-153230,global,global,750,H,H,E,E,H-E.png,H-E.png,hH,hH,mask-2.png,mask-1.png,h,1,0.29455059999600053,h,1,0.1558362003415823,0.048059799708426,0.05001999996602535,0.09965039975941181,0.10000740038231015,0.748423199634999
RSVPLG03,km,20260430-152852,1.0.2,20251113-095759,831,Experiment,Both,1,Automatic,main,42,20260430-153235,global,global,300,S,H,E,E,S-E.png,H-E.png,sS,hH,mask-1.png,mask-1.png,s,1,0.2359166000969708,h,1,0.06217270018532872,0.04934959998354316,0.05173230031505227,0.09801420010626316,0.09959990018978715,0.29777689976617694
RSVPLG03,km,20260430-152852,1.0.2,20251113-095759,831,Experiment,Both,1,Automatic,main,43,20260430-153239,local,local,300,H,H,E,A,E-H.png,A-H.png,hH,hH,mask-2.png,mask-3.png,h,1,0.7516081999056041,h,1,0.16127309994772077,0.04939810000360012,0.04917050013318658,0.1016907999292016,0.09993840008974075,0.3003497999161482
RSVPLG03,km,20260430-152852,1.0.2,20251113-095759,831,Experiment,Both,1,Automatic,main,44,20260430-153243,global,global,300,S,H,E,E,S-E.png,H-E.png,sS,hH,mask-1.png,mask-2.png,s,1,0.18783980002626777,h,1,0.08175759995356202,0.04832209972664714,0.04898019973188639,0.0983119998127222,0.09890799969434738,0.29922050004824996
RSVPLG03,km,20260430-152852,1.0.2,20251113-095759,831,Experiment,Both,1,Automatic,main,45,20260430-153247,global,global,300,H,S,A,A,H-A.png,S-A.png,hH,sS,mask-3.png,mask-3.png,h,1,0.15353049989789724,s,1,0.0814678999595344,0.049678399693220854,0.048686400055885315,0.09784920001402497,0.09807079983875155,0.2993939998559654
RSVPLG03,km,20260430-152852,1.0.2,20251113-095759,831,Experiment,Both,1,Automatic,main,46,20260430-153251,local,global,300,S,S,A,A,A-S.png,S-A.png,sS,sS,mask-3.png,mask-1.png,s,1,0.3774776002392173,h,0,0.09817579993978143,0.05170090030878782,0.04673769976943731,0.1006316002458334,0.09732439974322915,0.3014393001794815
RSVPLG03,km,20260430-152852,1.0.2,20251113-095759,831,Experiment,Both,1,Automatic,main,47,20260430-153256,global,global,300,S,H,E,A,S-E.png,H-A.png,sS,hH,mask-2.png,mask-3.png,s,1,0.2584860995411873,h,1,0.11288039991632104,0.0490838997066021,0.04964709980413318,0.09878289978951216,0.10044269962236285,0.29850960010662675
RSVPLG03,km,20260430-152852,1.0.2,20251113-095759,831,Experiment,Both,1,Automatic,main,48,20260430-153300,local,local,750,H,S,A,E,A-H.png,E-S.png,hH,sS,mask-2.png,mask-4.png,h,1,0.41866989992558956,s,1,0.250443700235337,0.0516850003041327,0.049798300024122,0.09995390009135008,0.10103300027549267,0.7487244000658393
RSVPLG03,km,20260430-152852,1.0.2,20251113-095759,831,Experiment,Both,1,Automatic,main,49,20260430-153305,local,local,750,S,S,E,E,E-S.png,E-S.png,sS,sS,mask-1.png,mask-4.png,s,1,0.5166587000712752,s,1,0.17731070006266236,0.050245100166648626,0.048738600220531225,0.10102269984781742,0.09894840000197291,0.7516169999726117
RSVPLG03,km,20260430-152852,1.0.2,20251113-095759,831,Experiment,Both,1,Automatic,main,50,20260430-153310,global,local,300,H,H,E,A,H-E.png,A-H.png,hH,hH,mask-4.png,mask-1.png,h,1,0.29755959985777736,h,1,0.2251335997134447,0.04837640002369881,0.04966700030490756,0.09865699987858534,0.10077420016750693,0.2975621996447444
RSVPLG03,km,20260430-152852,1.0.2,20251113-095759,831,Experiment,Both,1,Automatic,main,51,20260430-153315,local,local,750,S,H,E,E,E-S.png,E-H.png,sS,hH,mask-4.png,mask-2.png,s,1,0.2555785998702049,h,1,0.0980519000440836,0.04942220030352473,0.04946750029921532,0.09934600023552775,0.10019410029053688,0.7481341999955475
RSVPLG03,km,20260430-152852,1.0.2,20251113-095759,831,Experiment,Both,1,Automatic,main,52,20260430-153320,local,global,300,H,H,E,A,E-H.png,H-A.png,hH,hH,mask-1.png,mask-3.png,h,1,0.4569171997718513,s,0,0.4173848000355065,0.05014779977500439,0.0519248996861279,0.10005840007215738,0.09962269989773631,0.2987290001474321
RSVPLG03,km,20260430-152852,1.0.2,20251113-095759,831,Experiment,Both,1,Automatic,main,53,20260430-153324,global,global,750,S,S,A,A,S-A.png,S-A.png,sS,sS,mask-1.png,mask-1.png,s,1,0.3365176999941468,s,1,0.08151060016825795,0.05054059997200966,0.04983140015974641,0.1002790997736156,0.09998759999871254,0.7487613996490836
RSVPLG03,km,20260430-152852,1.0.2,20251113-095759,831,Experiment,Both,1,Automatic,main,54,20260430-153329,global,local,300,H,S,A,E,H-A.png,E-S.png,hH,sS,mask-1.png,mask-4.png,h,1,0.36460710037499666,s,1,0.1139015001244843,0.049443500116467476,0.050016799941658974,0.1000735997222364,0.09949250007048249,0.29997950000688434
RSVPLG03,km,20260430-152852,1.0.2,20251113-095759,831,Experiment,Both,1,Automatic,main,55,20260430-153333,global,local,750,H,H,A,A,H-A.png,A-H.png,hH,hH,mask-2.png,mask-2.png,h,1,0.2951810001395643,h,1,0.13020600005984306,0.05043039983138442,0.04962640022858977,0.10031219990924001,0.0998177002184093,0.7483611996285617
RSVPLG03,km,20260430-152852,1.0.2,20251113-095759,831,Experiment,Both,1,Automatic,main,56,20260430-153338,global,global,300,S,H,A,E,S-A.png,H-E.png,sS,hH,mask-3.png,mask-2.png,s,1,0.2845103000290692,h,1,0.08146730018779635,0.04961710004135966,0.05068410001695156,0.10074679972603917,0.10002409992739558,0.29792849998921156
RSVPLG03,km,20260430-152852,1.0.2,20251113-095759,831,Experiment,Both,1,Automatic,main,57,20260430-153342,global,global,300,S,H,A,A,S-A.png,H-A.png,sS,hH,mask-3.png,mask-4.png,s,1,0.35196129977703094,h,1,0.12160860002040863,0.049618300050497055,0.050116300117224455,0.09981320006772876,0.09992310032248497,0.2980682998895645
RSVPLG03,km,20260430-152852,1.0.2,20251113-095759,831,Experiment,Both,1,Automatic,main,58,20260430-153346,local,local,750,S,S,A,A,A-S.png,A-S.png,sS,sS,mask-4.png,mask-3.png,s,1,0.489469800144434,s,1,0.09690990019589663,0.05054990015923977,0.05093830032274127,0.10125110018998384,0.10025610029697418,0.7487897998653352
RSVPLG03,km,20260430-152852,1.0.2,20251113-095759,831,Experiment,Both,1,Automatic,main,59,20260430-153351,local,local,750,S,S,A,A,A-S.png,A-S.png,sS,sS,mask-2.png,mask-4.png,s,1,0.2738887998275459,s,1,0.09141660016030073,0.04836890008300543,0.049353300128132105,0.09816699987277389,0.10036699986085296,0.7483254000544548
RSVPLG03,km,20260430-152852,1.0.2,20251113-095759,831,Experiment,Both,1,Automatic,main,60,20260430-153355,global,local,750,H,H,E,E,H-E.png,E-H.png,hH,hH,mask-3.png,mask-3.png,h,1,0.507875899784267,h,1,0.0893665999174118,0.049309900030493736,0.05184719990938902,0.09962440002709627,0.09971129987388849,0.7493406999856234
RSVPLG03,km,20260430-152852,1.0.2,20251113-095759,831,Experiment,Both,1,Automatic,main,61,20260430-153400,local,global,300,S,H,A,E,A-S.png,H-E.png,sS,hH,mask-4.png,mask-2.png,h,0,1.8155444003641605,s,0,0.17688959976658225,0.049060999881476164,0.050520299933850765,0.09963200008496642,0.10098019987344742,0.2988233002834022
RSVPLG03,km,20260430-152852,1.0.2,20251113-095759,831,Experiment,Both,1,Automatic,main,62,20260430-153405,local,local,300,H,S,A,E,A-H.png,E-S.png,hH,sS,mask-1.png,mask-3.png,h,1,0.3208178002387285,s,1,0.095853999722749,0.04899420030415058,0.050138999707996845,0.0984056000597775,0.09997279988601804,0.2982582002878189
RSVPLG03,km,20260430-152852,1.0.2,20251113-095759,831,Experiment,Both,1,Automatic,main,63,20260430-153409,local,local,300,S,S,E,A,E-S.png,A-S.png,sS,sS,mask-2.png,mask-4.png,s,1,0.5516516999341547,s,1,0.0962685002014041,0.04928100015968084,0.04976040031760931,0.099878900218755,0.10071580018848181,0.2997167999856174
RSVPLG03,km,20260430-152852,1.0.2,20251113-095759,831,Experiment,Both,1,Automatic,main,64,20260430-153414,local,global,300,H,H,E,E,E-H.png,H-E.png,hH,hH,mask-1.png,mask-2.png,h,1,0.3800800000317395,s,0,0.1131207998842001,0.0519077000208199,0.05052059981971979,0.10055630002170801,0.10033049993216991,0.30082880007103086
RSVPLG03,km,20260430-152852,1.0.2,20251113-095759,831,Experiment,Both,1,Automatic,main,65,20260430-153418,local,global,750,H,S,E,E,E-H.png,S-E.png,hH,sS,mask-4.png,mask-3.png,h,1,0.4001429001800716,s,1,0.321512000169605,0.04962080018594861,0.05046300031244755,0.10027759987860918,0.09971000021323562,0.7484058998525143
RSVPLG03,km,20260430-152852,1.0.2,20251113-095759,831,Experiment,Both,1,Automatic,main,66,20260430-153423,local,global,750,S,H,A,A,A-S.png,H-A.png,sS,hH,mask-3.png,mask-1.png,s,1,0.6952132000587881,s,0,0.06556880008429289,0.049472799990326166,0.05099250003695488,0.10003669979050756,0.0990927997045219,0.7495025000534952
RSVPLG03,km,20260430-152852,1.0.2,20251113-095759,831,Experiment,Both,1,Automatic,main,67,20260430-153428,global,global,750,S,H,A,A,S-A.png,H-A.png,sS,hH,mask-2.png,mask-2.png,s,1,0.3031139001250267,h,1,0.08064299961552024,0.051098200026899576,0.05070580029860139,0.10069660004228354,0.10070440033450723,0.7484601000323892
RSVPLG03,km,20260430-152852,1.0.2,20251113-095759,831,Experiment,Both,1,Automatic,main,68,20260430-153432,local,local,300,H,S,A,A,A-H.png,A-S.png,hH,sS,mask-1.png,mask-1.png,s,0,1.3321126997470856,h,0,0.1617319998331368,0.05031469976529479,0.051264199893921614,0.10225309990346432,0.10099569987505674,0.3001170000061393
RSVPLG03,km,20260430-152852,1.0.2,20251113-095759,831,Experiment,Both,1,Automatic,main,69,20260430-153437,global,local,300,S,H,A,A,S-A.png,A-H.png,sS,hH,mask-2.png,mask-1.png,s,1,0.3112106001935899,h,1,0.15602649981155992,0.04906400013715029,0.05225079972296953,0.09919229988008738,0.10100279981270432,0.29938670014962554
RSVPLG03,km,20260430-152852,1.0.2,20251113-095759,831,Experiment,Both,1,Automatic,main,70,20260430-153442,global,local,750,S,H,E,E,S-E.png,E-H.png,sS,hH,mask-3.png,mask-3.png,s,1,0.389345099683851,s,0,0.8770864000543952,0.0503177996724844,0.050601199734956026,0.09867849992588162,0.10052759991958737,0.7485123998485506
RSVPLG03,km,20260430-152852,1.0.2,20251113-095759,831,Experiment,Both,1,Automatic,main,71,20260430-153447,global,global,300,H,S,E,E,H-E.png,S-E.png,hH,sS,mask-1.png,mask-1.png,h,1,0.3184523000381887,s,1,0.08084529964253306,0.048580299597233534,0.049661099910736084,0.09951950004324317,0.10016679996624589,0.299760399851948
RSVPLG03,km,20260430-152852,1.0.2,20251113-095759,831,Experiment,Both,1,Automatic,main,72,20260430-153451,local,local,300,S,S,E,A,E-S.png,A-S.png,sS,sS,mask-1.png,mask-4.png,s,1,0.2815760998055339,s,1,0.09338840004056692,0.04959970014169812,0.04897390026599169,0.1004834002815187,0.10081969993188977,0.300466800108552
RSVPLG03,km,20260430-152852,1.0.2,20251113-095759,831,Experiment,Both,1,Automatic,main,73,20260430-153455,local,global,750,H,H,E,A,E-H.png,H-A.png,hH,hH,mask-3.png,mask-3.png,h,1,0.264535800088197,h,1,0.09241960011422634,0.04995669983327389,0.05039299977943301,0.10114799998700619,0.09956469992175698,0.7497123000212014
RSVPLG03,km,20260430-152852,1.0.2,20251113-095759,831,Experiment,Both,1,Automatic,main,74,20260430-153500,local,global,750,S,S,E,A,E-S.png,S-A.png,sS,sS,mask-1.png,mask-3.png,s,1,0.5145294000394642,h,0,1.4882253003306687,0.0500018997117877,0.050833099987357855,0.09854689985513687,0.10049019986763597,0.747450300026685
RSVPLG03,km,20260430-152852,1.0.2,20251113-095759,831,Experiment,Both,1,Automatic,main,75,20260430-153506,global,local,750,H,H,A,A,H-A.png,A-H.png,hH,hH,mask-1.png,mask-4.png,h,1,0.30982170021161437,h,1,0.0943716000765562,0.049515499733388424,0.04966149991378188,0.10203219996765256,0.10086539993062615,0.7473602998070419
RSVPLG03,km,20260430-152852,1.0.2,20251113-095759,831,Experiment,Both,1,Automatic,main,76,20260430-153515,local,local,300,H,H,E,E,E-H.png,E-H.png,hH,hH,mask-4.png,mask-4.png,h,1,0.42853259993717074,h,1,0.09183380007743835,0.0490401997230947,0.049970099702477455,0.09887919994071126,0.09937149984762073,0.299256999976933
RSVPLG03,km,20260430-152852,1.0.2,20251113-095759,831,Experiment,Both,1,Automatic,main,77,20260430-153519,global,global,300,S,H,E,E,S-E.png,H-E.png,sS,hH,mask-3.png,mask-1.png,s,1,0.3199776001274586,h,1,0.06529580010101199,0.04940290004014969,0.050129900220781565,0.09901609970256686,0.10003930004313588,0.2988053997978568
RSVPLG03,km,20260430-152852,1.0.2,20251113-095759,831,Experiment,Both,1,Automatic,main,78,20260430-153523,global,local,300,S,S,E,E,S-E.png,E-S.png,sS,sS,mask-1.png,mask-1.png,s,1,0.2923017996363342,h,0,0.049744199961423874,0.04989059967920184,0.05091720027849078,0.0991695998236537,0.1002291003242135,0.2992999996058643
RSVPLG03,km,20260430-152852,1.0.2,20251113-095759,831,Experiment,Both,1,Automatic,main,79,20260430-153527,global,global,750,S,S,A,E,S-A.png,S-E.png,sS,sS,mask-3.png,mask-4.png,s,1,0.3466751999221742,s,1,0.06664509978145361,0.04906920017674565,0.04894139990210533,0.09885860001668334,0.09883659984916449,0.7501392001286149
RSVPLG03,km,20260430-152852,1.0.2,20251113-095759,831,Experiment,Both,1,Automatic,main,80,20260430-153532,global,local,300,S,S,E,E,S-E.png,E-S.png,sS,sS,mask-2.png,mask-2.png,s,1,0.39782309997826815,s,1,0.09477669978514314,0.04979889979586005,0.0486888000741601,0.10053690010681748,0.09948930004611611,0.30019079986959696
RSVPLG03,km,20260430-152852,1.0.2,20251113-095759,831,Experiment,Both,1,Automatic,main,81,20260430-153536,local,global,300,H,H,A,A,A-H.png,H-A.png,hH,hH,mask-2.png,mask-2.png,h,1,0.6016466999426484,s,0,0.8175892997533083,0.05179389985278249,0.0499460999853909,0.10080649983137846,0.10146580031141639,0.2990755997598171
RSVPLG03,km,20260430-152852,1.0.2,20251113-095759,831,Experiment,Both,1,Automatic,main,82,20260430-153541,global,global,750,S,S,A,A,S-A.png,S-A.png,sS,sS,mask-4.png,mask-3.png,s,1,0.29473150009289384,s,1,0.06467270012944937,0.04829850001260638,0.049701899755746126,0.09807989979162812,0.0998352998867631,0.7484729001298547
RSVPLG03,km,20260430-152852,1.0.2,20251113-095759,831,Experiment,Both,1,Automatic,main,83,20260430-153546,global,local,300,H,H,A,E,H-A.png,E-H.png,hH,hH,mask-4.png,mask-2.png,h,1,0.3106983997859061,h,1,0.1923349997960031,0.04976909980177879,0.0499336002394557,0.09877049969509244,0.1009970000013709,0.2986709997057915
RSVPLG03,km,20260430-152852,1.0.2,20251113-095759,831,Experiment,Both,1,Automatic,main,84,20260430-153550,local,global,750,H,S,E,A,E-H.png,S-A.png,hH,sS,mask-4.png,mask-4.png,h,1,0.5668067000806332,s,1,0.5942617999389768,0.05270690005272627,0.050232000183314085,0.10124820005148649,0.10099929990246892,0.7502271998673677
RSVPLG03,km,20260430-152852,1.0.2,20251113-095759,831,Experiment,Both,1,Automatic,main,85,20260430-153555,global,local,750,S,H,A,A,S-A.png,A-H.png,sS,hH,mask-4.png,mask-3.png,s,1,0.3048021998256445,h,1,0.0492558004334569,0.051657000090926886,0.050119000021368265,0.09963939990848303,0.10161759983748198,0.7492637000977993
RSVPLG03,km,20260430-152852,1.0.2,20251113-095759,831,Experiment,Both,1,Automatic,main,86,20260430-153600,local,global,300,S,S,E,A,E-S.png,S-A.png,sS,sS,mask-3.png,mask-4.png,s,1,0.3152887998148799,s,1,0.2721147001720965,0.048974699806421995,0.04921659966930747,0.09865149995312095,0.0999522996135056,0.29916780022904277
RSVPLG03,km,20260430-152852,1.0.2,20251113-095759,831,Experiment,Both,1,Automatic,main,87,20260430-153604,global,global,750,S,H,A,E,S-A.png,H-E.png,sS,hH,mask-3.png,mask-3.png,s,1,0.334387700073421,h,1,0.11286620004102588,0.049865399952977896,0.05052859988063574,0.09991310024634004,0.09841040009632707,0.7500297999940813
RSVPLG03,km,20260430-152852,1.0.2,20251113-095759,831,Experiment,Both,1,Automatic,main,88,20260430-153609,global,local,300,H,S,A,A,H-A.png,A-S.png,hH,sS,mask-2.png,mask-3.png,h,1,0.3243464999832213,s,1,0.12382249999791384,0.05049120029434562,0.050375900231301785,0.10054200002923608,0.09939190000295639,0.3005778999067843
RSVPLG03,km,20260430-152852,1.0.2,20251113-095759,831,Experiment,Both,1,Automatic,main,89,20260430-153613,global,global,300,H,S,A,A,H-A.png,S-A.png,hH,sS,mask-2.png,mask-2.png,h,1,0.28023670008406043,s,1,0.12422360014170408,0.04689679993316531,0.048587700352072716,0.09797189990058541,0.09921450028195977,0.29871049989014864
RSVPLG03,km,20260430-152852,1.0.2,20251113-095759,831,Experiment,Both,1,Automatic,main,90,20260430-153617,global,local,750,H,H,E,E,H-E.png,E-H.png,hH,hH,mask-4.png,mask-4.png,h,1,0.4695446998812258,h,1,0.22130429977551103,0.05194870010018349,0.05057380022481084,0.1008453001268208,0.09967239992693067,0.7491564000956714
RSVPLG03,km,20260430-152852,1.0.2,20251113-095759,831,Experiment,Both,1,Automatic,main,91,20260430-153622,local,local,300,H,S,A,E,A-H.png,E-S.png,hH,sS,mask-4.png,mask-1.png,h,1,0.28156069992110133,s,1,0.14284419966861606,0.04994560033082962,0.051403400022536516,0.1005438999272883,0.10135609982535243,0.29861690010875463
RSVPLG03,km,20260430-152852,1.0.2,20251113-095759,831,Experiment,Both,1,Automatic,main,92,20260430-153626,global,local,750,H,H,A,A,H-A.png,A-H.png,hH,hH,mask-4.png,mask-4.png,h,1,0.25380919966846704,h,1,0.09101770026609302,0.050989100243896246,0.05191610008478165,0.09938699984923005,0.09994380036368966,0.7485636998899281
RSVPLG03,km,20260430-152852,1.0.2,20251113-095759,831,Experiment,Both,1,Automatic,main,93,20260430-153631,global,local,750,H,H,E,E,H-E.png,E-H.png,hH,hH,mask-2.png,mask-1.png,h,1,0.3928662999533117,h,1,0.09731569979339838,0.04939110018312931,0.05017630010843277,0.10051060002297163,0.09985679993405938,0.7486352999694645
RSVPLG03,km,20260430-152852,1.0.2,20251113-095759,831,Experiment,Both,1,Automatic,main,94,20260430-153635,local,global,750,H,S,A,A,A-H.png,S-A.png,hH,sS,mask-4.png,mask-2.png,h,1,0.32344619976356626,s,1,0.04689950030297041,0.050821800250560045,0.04878439987078309,0.10050510009750724,0.10024659987539053,0.7505581001751125
RSVPLG03,km,20260430-152852,1.0.2,20251113-095759,831,Experiment,Both,1,Automatic,main,95,20260430-153640,local,global,300,H,S,A,E,A-H.png,S-E.png,hH,sS,mask-2.png,mask-4.png,h,1,1.1414750004187226,s,1,0.09853570023551583,0.04986559972167015,0.05001220013946295,0.09972129995003343,0.09915410028770566,0.2996422997675836
RSVPLG03,km,20260430-152852,1.0.2,20251113-095759,831,Experiment,Both,1,Automatic,main,96,20260430-153645,local,global,750,S,S,A,A,A-S.png,S-A.png,sS,sS,mask-1.png,mask-2.png,s,1,0.41300849989056587,h,0,0.11377059994265437,0.048808999825268984,0.04925019992515445,0.09925549989566207,0.10144119989126921,0.7484613000415266
RSVPLG03,km,20260430-152852,1.0.2,20251113-095759,831,Experiment,Both,1,Automatic,main,97,20260430-153650,global,global,750,H,S,E,E,H-E.png,S-E.png,hH,sS,mask-4.png,mask-2.png,h,1,0.3443557000719011,s,1,0.16168619971722364,0.0504979002289474,0.048868199810385704,0.09982969984412193,0.09901930019259453,0.7496682000346482
RSVPLG03,km,20260430-152852,1.0.2,20251113-095759,831,Experiment,Both,1,Automatic,main,98,20260430-153654,local,local,750,H,H,E,A,E-H.png,A-H.png,hH,hH,mask-2.png,mask-3.png,h,1,0.2746183997951448,h,1,0.15861140005290508,0.05068509979173541,0.04895570036023855,0.1001414000056684,0.09874990023672581,0.7497194996103644
RSVPLG03,km,20260430-152852,1.0.2,20251113-095759,831,Experiment,Both,1,Automatic,main,99,20260430-153659,local,global,300,S,H,E,A,E-S.png,H-A.png,sS,hH,mask-1.png,mask-3.png,s,1,0.34631469985470176,h,1,0.09470900008454919,0.05099229980260134,0.04928030027076602,0.10035500023514032,0.09911400033161044,0.30004929983988404
RSVPLG03,km,20260430-152852,1.0.2,20251113-095759,831,Experiment,Both,1,Automatic,main,100,20260430-153703,local,global,300,H,S,A,E,A-H.png,S-E.png,hH,sS,mask-4.png,mask-3.png,h,1,0.3540791003033519,h,0,1.3451233999803662,0.04970370000228286,0.04886970017105341,0.09828330017626286,0.09871800011023879,0.2984434999525547
