exp,exp_initials,runtime,ver,modtime,sub,blocktype,targets,cuetype,mode,trialtype,trial,trialtime,t1_level,t2_level,t2_lag,t1,t2,distractor1,distractor2,stimfile1,stimfile2,t1_corr,t2_corr,maskfile1,maskfile2,t1_resp,t1_acc,t1_rt,t2_resp,t2_acc,t2_rt,t1_dur,t2_dur,t1mask_soa,t2mask_soa,t1t2_soa
RSVPLG03,si,20260319-151520,1.0.2,20260219-152011,807,Introduction,T1,1,Automatic,main,1,20260319-151537,local,global,750,S,S,A,A,A-S.png,S-A.png,sS,sS,mask-4.png,mask-2.png,s,1,0.5085061999852769,none,-5,0,0.10009679998620413,0.10186980001162738,0.20124279998708516,0.2021355000033509,0.7502626999921631
RSVPLG03,si,20260319-151520,1.0.2,20260219-152011,807,Introduction,T1,1,Automatic,main,2,20260319-151541,global,local,750,H,H,A,A,H-A.png,A-H.png,hH,hH,mask-4.png,mask-3.png,h,1,0.12023000000044703,none,-5,0,0.10018649999983609,0.09839259998989291,0.20030470000347123,0.1985448999912478,0.7522008999949321
RSVPLG03,si,20260319-151520,1.0.2,20260219-152011,807,Introduction,T1,1,Automatic,main,3,20260319-151546,local,local,750,S,H,A,E,A-S.png,E-H.png,sS,hH,mask-3.png,mask-3.png,s,1,3.8367513000266626,none,-5,0,0.09789219999220222,0.10051960000419058,0.2001012999971863,0.20016530001885258,0.7499026999867056
RSVPLG03,si,20260319-151520,1.0.2,20260219-152011,807,Introduction,T1,1,Automatic,main,4,20260319-151554,local,local,750,S,H,E,A,E-S.png,A-H.png,sS,hH,mask-3.png,mask-3.png,s,1,2.801122100005159,none,-5,0,0.09955059998901561,0.10045650001848117,0.20017779999761842,0.2002546000003349,0.7506096999859437
RSVPLG03,si,20260319-151520,1.0.2,20260219-152011,807,Introduction,T1,1,Automatic,main,5,20260319-151601,local,global,750,S,S,A,E,A-S.png,S-E.png,sS,sS,mask-1.png,mask-2.png,s,1,2.051107100007357,none,-5,0,0.1020866000035312,0.10072950000176206,0.20098460000008345,0.19990300000063144,0.7519130999862682
RSVPLG03,si,20260319-151520,1.0.2,20260219-152011,807,Introduction,T1,1,Automatic,main,6,20260319-151607,global,global,750,S,H,A,E,S-A.png,H-E.png,sS,hH,mask-1.png,mask-4.png,h,0,2.043500600004336,none,-5,0,0.10008389997528866,0.10010159999364987,0.20035919998190366,0.20013300000573508,0.7510946999827866
RSVPLG03,si,20260319-151520,1.0.2,20260219-152011,807,Introduction,T1,1,Automatic,main,7,20260319-151613,global,local,750,H,H,A,E,H-A.png,E-H.png,hH,hH,mask-2.png,mask-4.png,h,1,1.1617925000027753,none,-5,0,0.10160290001658723,0.09944099999847822,0.20039829998859204,0.200340099981986,0.7514610000071116
RSVPLG03,si,20260319-151520,1.0.2,20260219-152011,807,Introduction,T1,1,Automatic,main,8,20260319-151618,global,global,750,S,H,E,E,S-E.png,H-E.png,sS,hH,mask-2.png,mask-4.png,s,1,1.0724620000110008,none,-5,0,0.09830839998903684,0.10001230001216754,0.19854339997982606,0.2009305000246968,0.749553499976173
RSVPLG03,si,20260319-151520,1.0.2,20260219-152011,807,Introduction,T1,1,Automatic,main,9,20260319-151624,global,global,750,H,H,E,A,H-E.png,H-A.png,hH,hH,mask-2.png,mask-3.png,h,1,1.036635299999034,none,-5,0,0.10092390002682805,0.10120080001070164,0.1999680000008084,0.199723300000187,0.7515496000123676
RSVPLG03,si,20260319-151520,1.0.2,20260219-152011,807,Introduction,T1,1,Automatic,main,10,20260319-151629,local,local,750,S,S,A,A,A-S.png,A-S.png,sS,sS,mask-2.png,mask-1.png,s,1,1.0162408000032883,none,-5,0,0.1003678000124637,0.09967670001788065,0.1991715999902226,0.1995214000053238,0.7519705999875441
RSVPLG03,si,20260319-151520,1.0.2,20260219-152011,807,Introduction,T1,1,Automatic,main,11,20260319-151634,local,global,750,H,H,A,E,A-H.png,H-E.png,hH,hH,mask-2.png,mask-3.png,h,1,0.38078069998300634,none,-5,0,0.09901279999758117,0.10049129999242723,0.20016219999524765,0.2006208999955561,0.7498207000026014
RSVPLG03,si,20260319-151520,1.0.2,20260219-152011,807,Introduction,T1,1,Automatic,main,12,20260319-151638,global,local,750,H,S,E,A,H-E.png,A-S.png,hH,sS,mask-4.png,mask-3.png,h,1,2.6418706999975257,none,-5,0,0.10058510000817478,0.09996299998601899,0.1999565000005532,0.1992403999902308,0.7516746000037529
RSVPLG03,si,20260319-151520,1.0.2,20260219-152011,807,Introduction,T1,1,Automatic,main,13,20260319-151645,global,local,750,H,H,E,A,H-E.png,A-H.png,hH,hH,mask-3.png,mask-2.png,h,1,1.9416409999830648,none,-5,0,0.09900170000037178,0.09912999998778105,0.19806620001327246,0.1986099999921862,0.7506319000094663
RSVPLG03,si,20260319-151520,1.0.2,20260219-152011,807,Introduction,T1,1,Automatic,main,14,20260319-151651,local,global,750,H,H,E,E,E-H.png,H-E.png,hH,hH,mask-1.png,mask-3.png,none,-6,0,none,-5,0,0.09923759999219328,0.09821450000163168,0.19981379999080673,0.2004214999906253,0.7518901999865193
RSVPLG03,si,20260319-151709,1.0.2,20260219-152011,807,Practice,T1,1,Automatic,main,1,20260319-151729,local,global,750,H,H,E,A,E-H.png,H-A.png,hH,hH,mask-2.png,mask-3.png,h,1,1.0645602000004146,none,-5,0,0.048132199997780845,0.050230099994223565,0.09872370000812225,0.10055510001257062,0.7486158999963664
RSVPLG03,si,20260319-151709,1.0.2,20260219-152011,807,Practice,T1,1,Automatic,main,2,20260319-151734,global,local,300,S,S,E,A,S-E.png,A-S.png,sS,sS,mask-3.png,mask-3.png,h,0,1.0832142000144813,none,-5,0,0.050905499985674396,0.05089630000293255,0.10019319999264553,0.10144800000125542,0.2996106999926269
RSVPLG03,si,20260319-151709,1.0.2,20260219-152011,807,Practice,T1,1,Automatic,main,3,20260319-151739,global,local,300,S,H,E,A,S-E.png,A-H.png,sS,hH,mask-1.png,mask-1.png,s,1,1.3640786999894772,none,-5,0,0.052739999984623864,0.050590099999681115,0.09989559999667108,0.10036839998792857,0.30140019999817014
RSVPLG03,si,20260319-151709,1.0.2,20260219-152011,807,Practice,T1,1,Automatic,main,4,20260319-151744,local,global,750,S,H,E,A,E-S.png,H-A.png,sS,hH,mask-1.png,mask-2.png,s,1,1.900984999985667,none,-5,0,0.05010649998439476,0.05009060000884347,0.10090879999916069,0.10146249999525025,0.7493228999956045
RSVPLG03,si,20260319-151709,1.0.2,20260219-152011,807,Practice,T1,1,Automatic,main,5,20260319-151750,global,global,750,H,H,A,A,H-A.png,H-A.png,hH,hH,mask-1.png,mask-2.png,h,1,0.8524863999919035,none,-5,0,0.048639000015100464,0.0497386000060942,0.09818840000662021,0.10068289999617264,0.7483132000197656
RSVPLG03,si,20260319-151709,1.0.2,20260219-152011,807,Practice,T1,1,Automatic,main,6,20260319-151755,global,local,750,S,S,A,E,S-A.png,E-S.png,sS,sS,mask-3.png,mask-3.png,s,1,0.4243099000013899,none,-5,0,0.05109280001488514,0.05016369998338632,0.10120160001679324,0.10059259997797199,0.7504849000251852
RSVPLG03,si,20260319-151709,1.0.2,20260219-152011,807,Practice,T1,1,Automatic,main,7,20260319-151759,global,local,750,H,S,A,A,H-A.png,A-S.png,hH,sS,mask-1.png,mask-1.png,h,1,0.8556137999985367,none,-5,0,0.04974069999298081,0.051328000001376495,0.10098369998740964,0.10114439998869784,0.7489361999905668
RSVPLG03,si,20260319-151709,1.0.2,20260219-152011,807,Practice,T1,1,Automatic,main,8,20260319-151804,local,global,300,S,S,A,A,A-S.png,S-A.png,sS,sS,mask-1.png,mask-3.png,s,1,0.7488053999841213,none,-5,0,0.048660799977369606,0.04700679998495616,0.09907899997779168,0.09771159998490475,0.3008616000006441
RSVPLG03,si,20260319-151709,1.0.2,20260219-152011,807,Practice,T1,1,Automatic,main,9,20260319-151808,global,global,300,S,S,A,E,S-A.png,S-E.png,sS,sS,mask-4.png,mask-4.png,h,0,1.400770600012038,none,-5,0,0.05058169999392703,0.04881330000353046,0.09975920000579208,0.09999010001774877,0.30003209999995306
RSVPLG03,si,20260319-151709,1.0.2,20260219-152011,807,Practice,T1,1,Automatic,main,10,20260319-151813,local,global,300,S,H,E,A,E-S.png,H-A.png,sS,hH,mask-2.png,mask-4.png,s,1,0.4805618000100367,none,-5,0,0.05082649999530986,0.048339400003897026,0.10176260001026094,0.09777480000047944,0.30139199999393895
RSVPLG03,si,20260319-151709,1.0.2,20260219-152011,807,Practice,T1,1,Automatic,main,11,20260319-151817,local,local,750,H,S,E,A,E-H.png,A-S.png,hH,sS,mask-3.png,mask-1.png,h,1,0.6765947999956552,none,-5,0,0.04953120002755895,0.04944010000326671,0.09952830002293922,0.10106650000670925,0.7491761000128463
RSVPLG03,si,20260319-151709,1.0.2,20260219-152011,807,Practice,T1,1,Automatic,main,12,20260319-151822,global,global,750,H,H,E,A,H-E.png,H-A.png,hH,hH,mask-4.png,mask-2.png,h,1,0.690577100001974,none,-5,0,0.04943100002128631,0.04970030000549741,0.09968700000899844,0.10065050001139753,0.7482340999995358
RSVPLG03,si,20260319-151709,1.0.2,20260219-152011,807,Practice,T1,1,Automatic,main,13,20260319-151827,local,local,750,H,S,E,A,E-H.png,A-S.png,hH,sS,mask-2.png,mask-2.png,h,1,0.3470921000116505,none,-5,0,0.048727899993536994,0.0498694000125397,0.09989039998617955,0.09990070000640117,0.7499479999823961
RSVPLG03,si,20260319-151709,1.0.2,20260219-152011,807,Practice,T1,1,Automatic,main,14,20260319-151831,local,local,300,H,H,A,A,A-H.png,A-H.png,hH,hH,mask-3.png,mask-3.png,h,1,0.6046449999848846,none,-5,0,0.050865099998191,0.048256800015224144,0.09993479997501709,0.10060239999438636,0.3005921999865677
RSVPLG03,si,20260319-151709,1.0.2,20260219-152011,807,Practice,T1,1,Automatic,main,15,20260319-151835,local,local,300,H,S,E,E,E-H.png,E-S.png,hH,sS,mask-3.png,mask-3.png,s,0,0.8394840999972075,none,-5,0,0.04984020002302714,0.04888539999956265,0.10079090000363067,0.10093429998960346,0.3008478000119794
RSVPLG03,si,20260319-151709,1.0.2,20260219-152011,807,Practice,T1,1,Automatic,main,16,20260319-151839,global,global,300,H,S,E,E,H-E.png,S-E.png,hH,sS,mask-2.png,mask-4.png,h,1,1.2246636000054423,none,-5,0,0.05072410000138916,0.050124700006563216,0.10076050000498071,0.10095920000458136,0.30006609999691136
RSVPLG03,si,20260319-151905,1.0.2,20260219-152011,807,Introduction,Both,1,Automatic,main,1,20260319-151923,global,global,750,H,H,E,E,H-E.png,H-E.png,hH,hH,mask-2.png,mask-4.png,h,1,1.1123977999959607,h,1,0.09865030000219122,0.09412789999623783,0.09985379999852739,0.19535230001201853,0.20017470000311732,0.7444063000148162
RSVPLG03,si,20260319-151905,1.0.2,20260219-152011,807,Introduction,Both,1,Automatic,main,2,20260319-151928,local,global,750,S,H,E,E,E-S.png,H-E.png,sS,hH,mask-4.png,mask-3.png,s,1,0.958863800013205,h,1,0.008479800017084926,0.09986660000868142,0.10069479999947362,0.20018690000870265,0.1999867999984417,0.7494302999984939
RSVPLG03,si,20260319-151905,1.0.2,20260219-152011,807,Introduction,Both,1,Automatic,main,3,20260319-151933,local,global,750,S,H,A,A,A-S.png,H-A.png,sS,hH,mask-1.png,mask-3.png,s,1,0.844064700009767,h,1,0.01016370000434108,0.09911559999454767,0.09973069999250583,0.19831840001279488,0.20114710001507774,0.7485891999967862
RSVPLG03,si,20260319-151905,1.0.2,20260219-152011,807,Introduction,Both,1,Automatic,main,4,20260319-151939,global,global,750,H,H,A,A,H-A.png,H-A.png,hH,hH,mask-1.png,mask-1.png,h,1,1.4458831000083592,h,1,0.0847494000045117,0.09886800000094809,0.0980695000034757,0.19974599999841303,0.19826950001879595,0.7511440999805927
RSVPLG03,si,20260319-151905,1.0.2,20260219-152011,807,Introduction,Both,1,Automatic,main,5,20260319-151944,local,local,750,H,S,A,A,A-H.png,A-S.png,hH,sS,mask-1.png,mask-1.png,h,1,1.8595684999891091,h,0,1.4147494999924675,0.10114139999495819,0.10045009999885224,0.20039740001084283,0.2002908000140451,0.7494030999951065
RSVPLG03,si,20260319-151905,1.0.2,20260219-152011,807,Introduction,Both,1,Automatic,main,6,20260319-151952,local,global,750,H,H,A,E,A-H.png,H-E.png,hH,hH,mask-1.png,mask-3.png,h,1,0.9884676999936346,h,1,0.08206600000266917,0.0985618999984581,0.098031000001356,0.1988580000179354,0.1992550000140909,0.7505036999937147
RSVPLG03,si,20260319-151905,1.0.2,20260219-152011,807,Introduction,Both,1,Automatic,main,7,20260319-151957,global,local,750,H,S,E,A,H-E.png,A-S.png,hH,sS,mask-2.png,mask-2.png,h,1,0.8548468000080902,s,1,1.4864543000003323,0.10171620000619441,0.1005361000134144,0.2001878999872133,0.2005518000223674,0.7496998999849893
RSVPLG03,si,20260319-151905,1.0.2,20260219-152011,807,Introduction,Both,1,Automatic,main,8,20260319-152002,local,local,750,H,S,E,A,E-H.png,A-S.png,hH,sS,mask-3.png,mask-3.png,h,1,1.5503992000012659,s,1,0.0013247999886516482,0.10033509999630041,0.09837729998980649,0.19976999997743405,0.19820859999163076,0.7508679000020493
RSVPLG03,si,20260319-151905,1.0.2,20260219-152011,807,Introduction,Both,1,Automatic,main,9,20260319-152008,global,local,750,H,H,E,E,H-E.png,E-H.png,hH,hH,mask-1.png,mask-2.png,h,1,0.8374314999964554,h,1,0.06631470000138506,0.09873080000397749,0.10134689998812973,0.2003307999984827,0.2010283999843523,0.7487917999969795
RSVPLG03,si,20260319-151905,1.0.2,20260219-152011,807,Introduction,Both,1,Automatic,main,10,20260319-152013,local,local,750,H,H,E,A,E-H.png,A-H.png,hH,hH,mask-1.png,mask-4.png,h,1,0.5588746000139508,h,1,0.08946409999043681,0.10054040001705289,0.09984690000419505,0.19851810002001002,0.20019000000320375,0.7492796000151429
RSVPLG03,si,20260319-151905,1.0.2,20260219-152011,807,Introduction,Both,1,Automatic,main,11,20260319-152018,global,global,750,S,S,A,E,S-A.png,S-E.png,sS,sS,mask-3.png,mask-3.png,s,1,0.8802917000139132,s,1,0.05987779999850318,0.0992522000160534,0.10031080001499504,0.19989440002245829,0.1996240000007674,0.7498086999985389
RSVPLG03,si,20260319-151905,1.0.2,20260219-152011,807,Introduction,Both,1,Automatic,main,12,20260319-152023,global,local,750,H,H,A,A,H-A.png,A-H.png,hH,hH,mask-4.png,mask-1.png,none,-6,0,none,-6,0,0.1012021999922581,0.09856159999617375,0.19952170000760816,0.19987559999572113,0.7502973999944516
RSVPLG03,si,20260319-152040,1.0.2,20260219-152011,807,Practice,Both,1,Automatic,main,1,20260319-152057,local,local,750,H,S,A,E,A-H.png,E-S.png,hH,sS,mask-3.png,mask-4.png,h,1,1.1040688999928534,s,1,1.2156709000119008,0.047001499973703176,0.050890800019260496,0.09527399999205954,0.10058320002281107,0.7444543999736197
RSVPLG03,si,20260319-152040,1.0.2,20260219-152011,807,Practice,Both,1,Automatic,main,2,20260319-152103,local,global,750,S,S,E,E,E-S.png,S-E.png,sS,sS,mask-3.png,mask-3.png,s,1,0.6103520999895409,s,1,0.07380489999195561,0.049852399999508634,0.049867099995026365,0.09941879997495562,0.10001999998348765,0.7487426000006963
RSVPLG03,si,20260319-152040,1.0.2,20260219-152011,807,Practice,Both,1,Automatic,main,3,20260319-152107,local,local,300,S,S,A,A,A-S.png,A-S.png,sS,sS,mask-2.png,mask-4.png,s,1,1.5168620999902487,h,0,1.628546699997969,0.049459700006991625,0.05151339998701587,0.09849540001596324,0.10125059998244978,0.2982998000225052
RSVPLG03,si,20260319-152040,1.0.2,20260219-152011,807,Practice,Both,1,Automatic,main,4,20260319-152113,global,local,300,H,S,A,A,H-A.png,A-S.png,hH,sS,mask-3.png,mask-1.png,h,1,2.0178994000016246,s,1,2.1137005999917164,0.04976880000322126,0.04798319999827072,0.10088320000795648,0.09836830000858754,0.3013755999854766
RSVPLG03,si,20260319-152040,1.0.2,20260219-152011,807,Practice,Both,1,Automatic,main,5,20260319-152118,local,global,750,S,H,A,E,A-S.png,H-E.png,sS,hH,mask-1.png,mask-2.png,s,1,1.3073880999872927,h,1,1.3875048999907449,0.050739600002998486,0.04874659999040887,0.09919480001553893,0.10010270000202581,0.7495468000124674
RSVPLG03,si,20260319-152040,1.0.2,20260219-152011,807,Practice,Both,1,Automatic,main,6,20260319-152124,global,local,300,S,S,E,E,S-E.png,E-S.png,sS,sS,mask-2.png,mask-3.png,s,1,1.9320729000028223,h,0,2.0442935999890324,0.04990190002718009,0.05098160001216456,0.09898580002482049,0.09982400000444613,0.2999065000039991
RSVPLG03,si,20260319-152040,1.0.2,20260219-152011,807,Practice,Both,1,Automatic,main,7,20260319-152129,global,local,750,H,S,E,E,H-E.png,E-S.png,hH,sS,mask-1.png,mask-4.png,h,1,1.6534950999775901,s,1,1.7498038999910932,0.049714399996446446,0.0511629999964498,0.09841139998752624,0.10039500001585111,0.7478647999814712
RSVPLG03,si,20260319-152040,1.0.2,20260219-152011,807,Practice,Both,1,Automatic,main,8,20260319-152135,global,global,300,S,S,E,E,S-E.png,S-E.png,sS,sS,mask-4.png,mask-3.png,s,1,2.35834830001113,s,1,1.2159627000219189,0.05038949998561293,0.0501112999918405,0.10258740000426769,0.09940400000778027,0.2999507999920752
RSVPLG03,si,20260319-152040,1.0.2,20260219-152011,807,Practice,Both,1,Automatic,main,9,20260319-152142,global,global,750,H,H,A,A,H-A.png,H-A.png,hH,hH,mask-2.png,mask-2.png,h,1,1.2958577000244986,h,1,1.1044476999959443,0.04789149999851361,0.05076240000198595,0.09999469999456778,0.1006125999847427,0.7472795000066981
RSVPLG03,si,20260319-152040,1.0.2,20260219-152011,807,Practice,Both,1,Automatic,main,10,20260319-152147,global,local,750,S,S,A,E,S-A.png,E-S.png,sS,sS,mask-4.png,mask-1.png,h,0,0.06980959998327307,s,1,2.5395434999954887,0.04965630001970567,0.04926640001940541,0.09939340001437813,0.10026629999629222,0.749797700002091
RSVPLG03,si,20260319-152040,1.0.2,20260219-152011,807,Practice,Both,1,Automatic,main,11,20260319-152154,local,global,300,H,H,E,E,E-H.png,H-E.png,hH,hH,mask-3.png,mask-3.png,h,1,2.451142300007632,h,1,1.3064867999928538,0.0494782000023406,0.04980599999544211,0.09890539999469183,0.09950069998740219,0.3004460000083782
RSVPLG03,si,20260319-152040,1.0.2,20260219-152011,807,Practice,Both,1,Automatic,main,12,20260319-152159,local,global,300,S,S,E,E,E-S.png,S-E.png,sS,sS,mask-3.png,mask-2.png,s,1,1.4388735999818891,h,0,0.06614909999188967,0.05028599998331629,0.050656700012041256,0.0992326999839861,0.10005450001335703,0.29892619999009185
RSVPLG03,si,20260319-152040,1.0.2,20260219-152011,807,Practice,Both,1,Automatic,main,13,20260319-152204,global,global,300,H,H,A,A,H-A.png,H-A.png,hH,hH,mask-4.png,mask-1.png,h,1,1.75654490001034,s,0,0.02141650000703521,0.04930009998497553,0.04855790000874549,0.09973379998700693,0.09993349999422207,0.2991030999983195
RSVPLG03,si,20260319-152040,1.0.2,20260219-152011,807,Practice,Both,1,Automatic,main,14,20260319-152209,global,global,750,H,S,A,E,H-A.png,S-E.png,hH,sS,mask-2.png,mask-1.png,h,1,1.2194593000167515,s,1,2.8981263999885414,0.05126239999663085,0.05098060000455007,0.10069469999871217,0.09994169999845326,0.7499128000054043
RSVPLG03,si,20260319-152040,1.0.2,20260219-152011,807,Practice,Both,1,Automatic,main,15,20260319-152217,local,local,750,H,H,A,A,A-H.png,A-H.png,hH,hH,mask-4.png,mask-1.png,h,1,0.9251524999854155,h,1,0.5054797999910079,0.05055929999798536,0.051098099997034296,0.10085300001082942,0.10023670000373386,0.7477161000133492
RSVPLG03,si,20260319-152040,1.0.2,20260219-152011,807,Practice,Both,1,Automatic,main,16,20260319-152223,local,local,300,H,S,A,A,A-H.png,A-S.png,hH,sS,mask-2.png,mask-2.png,h,1,1.160220699995989,s,1,0.6013982000004034,0.04762929998105392,0.04979219997767359,0.09877159999450669,0.09976240000105463,0.29719240000122227
RSVPLG03,si,20260319-152301,1.0.2,20260219-152011,807,Experiment,Both,1,Automatic,warmup,1,20260319-152332,global,global,750,S,H,A,E,S-A.png,H-E.png,sS,hH,mask-3.png,mask-4.png,s,1,1.5291460999869741,h,1,0.23222289999830537,0.051185700023779646,0.051105899998219684,0.09937390001141466,0.10082250001141801,0.7508037000079639
RSVPLG03,si,20260319-152301,1.0.2,20260219-152011,807,Experiment,Both,1,Automatic,warmup,2,20260319-152337,local,global,300,H,H,A,A,A-H.png,H-A.png,hH,hH,mask-3.png,mask-1.png,h,1,1.9088519999932032,h,1,0.265015199984191,0.05095229999278672,0.04924249998293817,0.10037609998835251,0.09982079998007976,0.3018441000021994
RSVPLG03,si,20260319-152301,1.0.2,20260219-152011,807,Experiment,Both,1,Automatic,warmup,3,20260319-152343,global,local,300,H,H,E,E,H-E.png,E-H.png,hH,hH,mask-4.png,mask-2.png,s,0,1.8944452999858186,h,1,0.015831800003070384,0.05019489998812787,0.04960869997739792,0.10011039997334592,0.10056449999683537,0.30176709999796003
RSVPLG03,si,20260319-152301,1.0.2,20260219-152011,807,Experiment,Both,1,Automatic,warmup,4,20260319-152349,local,local,300,H,S,E,A,E-H.png,A-S.png,hH,sS,mask-2.png,mask-4.png,h,1,1.3352582000079565,s,1,0.03509520000079647,0.05050650000339374,0.050844899989897385,0.10035140000400133,0.09980900000664406,0.30208029999630526
RSVPLG03,si,20260319-152301,1.0.2,20260219-152011,807,Experiment,Both,1,Automatic,main,5,20260319-152354,local,local,750,S,S,A,E,A-S.png,E-S.png,sS,sS,mask-4.png,mask-1.png,s,1,1.20218069999828,s,1,0.15362140000797808,0.04910319999908097,0.04930479999165982,0.10006860000430606,0.09920520000741817,0.7520386000105646
RSVPLG03,si,20260319-152301,1.0.2,20260219-152011,807,Experiment,Both,1,Automatic,main,6,20260319-152359,local,local,300,H,S,E,E,E-H.png,E-S.png,hH,sS,mask-4.png,mask-1.png,h,1,0.5729904999898281,s,1,1.6080633999954443,0.04946530002052896,0.0512309999903664,0.09857480000937358,0.10114239997346886,0.29873560002306476
RSVPLG03,si,20260319-152301,1.0.2,20260219-152011,807,Experiment,Both,1,Automatic,main,7,20260319-152405,local,global,300,H,S,E,A,E-H.png,S-A.png,hH,sS,mask-1.png,mask-3.png,h,1,1.4966567999799736,s,1,0.18529120000312105,0.048723499989137053,0.050797700008843094,0.0996578999911435,0.10107210002024658,0.2989866999851074
RSVPLG03,si,20260319-152301,1.0.2,20260219-152011,807,Experiment,Both,1,Automatic,main,8,20260319-152411,local,global,300,S,H,A,A,A-S.png,H-A.png,sS,hH,mask-2.png,mask-3.png,s,1,0.7795410999970045,h,1,0.602583500003675,0.04995210000197403,0.050849399995058775,0.10053700002026744,0.10123010000097565,0.30236500001046807
RSVPLG03,si,20260319-152301,1.0.2,20260219-152011,807,Experiment,Both,1,Automatic,main,9,20260319-152416,local,global,750,H,S,A,A,A-H.png,S-A.png,hH,sS,mask-2.png,mask-4.png,h,1,1.0127601000131108,s,1,0.4621612000046298,0.051279300008900464,0.04938209999818355,0.1010293000144884,0.10059109999565408,0.7520049000158906
RSVPLG03,si,20260319-152301,1.0.2,20260219-152011,807,Experiment,Both,1,Automatic,main,10,20260319-152421,local,local,750,S,S,A,A,A-S.png,A-S.png,sS,sS,mask-3.png,mask-4.png,s,1,0.8455902000132482,s,1,0.3864892999990843,0.05088219998287968,0.050800700002582744,0.10016519998316653,0.09977810000418685,0.7513438999885693
RSVPLG03,si,20260319-152301,1.0.2,20260219-152011,807,Experiment,Both,1,Automatic,main,11,20260319-152427,local,local,300,S,S,E,E,E-S.png,E-S.png,sS,sS,mask-3.png,mask-2.png,s,1,1.7536812000034843,s,1,0.9203309000004083,0.05059040000196546,0.049237300001550466,0.1010969000053592,0.10012920000008307,0.30100400000810623
RSVPLG03,si,20260319-152301,1.0.2,20260219-152011,807,Experiment,Both,1,Automatic,main,12,20260319-152433,global,global,300,H,H,E,A,H-E.png,H-A.png,hH,hH,mask-2.png,mask-4.png,h,1,0.8179921999981161,s,0,0.2844704000162892,0.04978299999493174,0.04915859998436645,0.10102709999773651,0.10017180000431836,0.3007891000015661
RSVPLG03,si,20260319-152301,1.0.2,20260219-152011,807,Experiment,Both,1,Automatic,main,13,20260319-152438,local,global,750,H,H,E,A,E-H.png,H-A.png,hH,hH,mask-2.png,mask-4.png,h,1,2.3302454999939073,s,0,0.38441420000162907,0.051122100005159155,0.048216600000159815,0.1006770999811124,0.09964990001753904,0.7541492999880575
RSVPLG03,si,20260319-152301,1.0.2,20260219-152011,807,Experiment,Both,1,Automatic,main,14,20260319-152445,global,global,750,S,S,A,A,S-A.png,S-A.png,sS,sS,mask-3.png,mask-2.png,s,1,0.36870429999544285,h,0,0.09809370001312345,0.049002000014297664,0.04988089998369105,0.10279530001571402,0.09981289997813292,0.7517843000241555
RSVPLG03,si,20260319-152301,1.0.2,20260219-152011,807,Experiment,Both,1,Automatic,main,15,20260319-152449,local,global,300,S,S,A,A,A-S.png,S-A.png,sS,sS,mask-2.png,mask-4.png,s,1,1.500593500008108,s,1,0.7702430000063032,0.0472382000007201,0.050963399989996105,0.09730120000313036,0.10118849997525103,0.2981930000241846
RSVPLG03,si,20260319-152301,1.0.2,20260219-152011,807,Experiment,Both,1,Automatic,main,16,20260319-152455,local,global,750,H,H,A,A,A-H.png,H-A.png,hH,hH,mask-4.png,mask-4.png,h,1,0.9401940999960061,s,0,0.32979630000772886,0.04973020000034012,0.051210699981311336,0.1003369000100065,0.10122059998684563,0.7503457000129856
RSVPLG03,si,20260319-152301,1.0.2,20260219-152011,807,Experiment,Both,1,Automatic,main,17,20260319-152501,global,global,750,H,H,A,E,H-A.png,H-E.png,hH,hH,mask-2.png,mask-2.png,h,1,0.8241321999812499,h,1,0.309946299996227,0.04996740000206046,0.04926460000569932,0.09986109999590553,0.09985480000614189,0.7519236999796703
RSVPLG03,si,20260319-152301,1.0.2,20260219-152011,807,Experiment,Both,1,Automatic,main,18,20260319-152506,global,global,750,H,S,A,A,H-A.png,S-A.png,hH,sS,mask-3.png,mask-3.png,h,1,0.5928378000098746,s,1,0.280978499999037,0.0513212000078056,0.05047539999941364,0.10096779998275451,0.10047209999174811,0.7516174000047613
RSVPLG03,si,20260319-152301,1.0.2,20260219-152011,807,Experiment,Both,1,Automatic,main,19,20260319-152511,global,local,750,H,S,E,A,H-E.png,A-S.png,hH,sS,mask-2.png,mask-2.png,h,1,1.23641189999762,s,1,0.5145078000205103,0.05006369997863658,0.04980710000381805,0.10067799998796545,0.09892640000907704,0.7517101999837905
RSVPLG03,si,20260319-152301,1.0.2,20260219-152011,807,Experiment,Both,1,Automatic,main,20,20260319-152517,global,local,750,S,H,A,E,S-A.png,E-H.png,sS,hH,mask-3.png,mask-2.png,s,1,0.3985347999841906,h,1,0.24923820002004504,0.05051070000627078,0.04994759999681264,0.10134059999836609,0.10033769998699427,0.7517954999930225
RSVPLG03,si,20260319-152301,1.0.2,20260219-152011,807,Experiment,Both,1,Automatic,main,21,20260319-152522,global,local,300,S,S,A,A,S-A.png,A-S.png,sS,sS,mask-2.png,mask-1.png,s,1,1.7728575999790337,h,0,0.22556280001299456,0.050841799995396286,0.051305900007719174,0.10108490000129677,0.10112989999470301,0.3007185999886133
RSVPLG03,si,20260319-152301,1.0.2,20260219-152011,807,Experiment,Both,1,Automatic,main,22,20260319-152527,local,local,300,H,H,A,E,A-H.png,E-H.png,hH,hH,mask-4.png,mask-3.png,s,0,1.9164846999919973,h,1,0.32747019999078475,0.05074330000206828,0.050797500007320195,0.10167360000195913,0.10083810001378879,0.30079660000046715
RSVPLG03,si,20260319-152301,1.0.2,20260219-152011,807,Experiment,Both,1,Automatic,main,23,20260319-152533,global,global,300,S,S,A,E,S-A.png,S-E.png,sS,sS,mask-2.png,mask-3.png,h,0,1.3276271999930032,s,1,0.28833020001184195,0.05111210001632571,0.0513238999992609,0.10107950001838617,0.10131460000411607,0.30032440001377836
RSVPLG03,si,20260319-152301,1.0.2,20260219-152011,807,Experiment,Both,1,Automatic,main,24,20260319-152539,global,global,300,H,H,E,E,H-E.png,H-E.png,hH,hH,mask-2.png,mask-3.png,h,1,1.3324733000190463,s,0,1.4143306000041775,0.04758360001142137,0.049816499988082796,0.09829480000189506,0.10092709999298677,0.2989899000094738
RSVPLG03,si,20260319-152301,1.0.2,20260219-152011,807,Experiment,Both,1,Automatic,main,25,20260319-152545,local,local,750,H,H,E,E,E-H.png,E-H.png,hH,hH,mask-3.png,mask-4.png,s,0,1.2569497000076808,h,1,0.19365390000166371,0.050480600009905174,0.05043259999365546,0.09939970000414178,0.10194419999606907,0.7500409000203945
RSVPLG03,si,20260319-152301,1.0.2,20260219-152011,807,Experiment,Both,1,Automatic,main,26,20260319-152558,local,local,300,H,S,A,E,A-H.png,E-S.png,hH,sS,mask-3.png,mask-1.png,h,1,0.9118245000136085,s,1,0.2064356999762822,0.05118909999146126,0.049086399987572804,0.09896269999444485,0.0992285999818705,0.30153620001510717
RSVPLG03,si,20260319-152301,1.0.2,20260219-152011,807,Experiment,Both,1,Automatic,main,27,20260319-152603,local,local,300,H,S,E,E,E-H.png,E-S.png,hH,sS,mask-1.png,mask-1.png,h,1,1.60252140002558,s,1,0.7665292999881785,0.0493445000029169,0.04919799999333918,0.1001486000022851,0.09989840001799166,0.3006444000056945
RSVPLG03,si,20260319-152301,1.0.2,20260219-152011,807,Experiment,Both,1,Automatic,main,28,20260319-152609,global,local,300,H,H,A,A,H-A.png,A-H.png,hH,hH,mask-4.png,mask-4.png,h,1,1.3713598999893293,s,0,0.2824043000000529,0.050896900007501245,0.050593299994943663,0.10043650001171045,0.10104889998910949,0.3012419000151567
RSVPLG03,si,20260319-152301,1.0.2,20260219-152011,807,Experiment,Both,1,Automatic,main,29,20260319-152614,local,local,750,S,S,A,E,A-S.png,E-S.png,sS,sS,mask-2.png,mask-4.png,s,1,1.4955370999814477,s,1,0.7128352000145242,0.05016890002298169,0.051522199995815754,0.09920029999921098,0.09992680000141263,0.7515092000248842
RSVPLG03,si,20260319-152301,1.0.2,20260219-152011,807,Experiment,Both,1,Automatic,main,30,20260319-152620,local,global,750,S,H,E,E,E-S.png,H-E.png,sS,hH,mask-3.png,mask-2.png,s,1,0.8209396000020206,h,1,0.5092472999822348,0.05068599997321144,0.0507717999862507,0.10102999999071471,0.10063339999760501,0.7514943999995012
RSVPLG03,si,20260319-152301,1.0.2,20260219-152011,807,Experiment,Both,1,Automatic,main,31,20260319-152626,global,local,300,S,H,E,A,S-E.png,A-H.png,sS,hH,mask-2.png,mask-2.png,s,1,1.7007119999907445,h,1,0.5054013999761082,0.04970379997394048,0.04959510001935996,0.10002979999990202,0.10052530001848936,0.3006594999751542
RSVPLG03,si,20260319-152301,1.0.2,20260219-152011,807,Experiment,Both,1,Automatic,main,32,20260319-152632,global,global,750,S,S,E,A,S-E.png,S-A.png,sS,sS,mask-3.png,mask-4.png,h,0,1.160036899993429,h,0,0.4810906999919098,0.0512618999928236,0.04886510001961142,0.09968039998784661,0.09965910000028089,0.7516515999741387
RSVPLG03,si,20260319-152301,1.0.2,20260219-152011,807,Experiment,Both,1,Automatic,main,33,20260319-152638,global,local,750,S,H,E,E,S-E.png,E-H.png,sS,hH,mask-3.png,mask-4.png,h,0,1.6497126999893226,s,0,0.5045225999783725,0.049583999993046746,0.050065499992342666,0.09898089998750947,0.10085439999238588,0.7512772000045516
RSVPLG03,si,20260319-152301,1.0.2,20260219-152011,807,Experiment,Both,1,Automatic,main,34,20260319-152644,local,global,750,H,S,E,A,E-H.png,S-A.png,hH,sS,mask-2.png,mask-4.png,h,1,0.6841959000157658,s,1,0.41779029997996986,0.04935200000181794,0.052917499997420236,0.09989250000216998,0.10171340001397766,0.750553799996851
RSVPLG03,si,20260319-152301,1.0.2,20260219-152011,807,Experiment,Both,1,Automatic,main,35,20260319-152649,global,global,300,H,H,A,A,H-A.png,H-A.png,hH,hH,mask-4.png,mask-3.png,h,1,1.4670518999919295,s,0,0.716137700015679,0.049155199987581,0.049169400008395314,0.09932660000049509,0.09940350000397302,0.300423899985617
RSVPLG03,si,20260319-152301,1.0.2,20260219-152011,807,Experiment,Both,1,Automatic,main,36,20260319-152655,local,local,300,H,H,E,A,E-H.png,A-H.png,hH,hH,mask-2.png,mask-3.png,h,1,1.3076710999885108,s,0,0.3110316999955103,0.04958290001377463,0.05055990000255406,0.09943450000719167,0.09945180002250709,0.3007080999959726
RSVPLG03,si,20260319-152301,1.0.2,20260219-152011,807,Experiment,Both,1,Automatic,main,37,20260319-152700,global,global,750,H,S,E,E,H-E.png,S-E.png,hH,sS,mask-4.png,mask-4.png,h,1,2.5586954000173137,s,1,1.1347090000053868,0.050916000007418916,0.05082209999090992,0.09979160001967102,0.10163610000745393,0.7522057000023779
RSVPLG03,si,20260319-152301,1.0.2,20260219-152011,807,Experiment,Both,1,Automatic,main,38,20260319-152708,global,global,750,H,H,E,E,H-E.png,H-E.png,hH,hH,mask-2.png,mask-2.png,h,1,1.6315982000087388,h,1,0.2829308999935165,0.050021200004266575,0.05093150000902824,0.09917430000496097,0.10270610000588931,0.7490523000014946
RSVPLG03,si,20260319-152301,1.0.2,20260219-152011,807,Experiment,Both,1,Automatic,main,39,20260319-152715,global,global,750,S,S,A,E,S-A.png,S-E.png,sS,sS,mask-3.png,mask-3.png,s,1,1.1093358999933116,h,0,0.4340860999946017,0.05076569999800995,0.050686600006883964,0.0999275999784004,0.09987370000453666,0.7520698999869637
RSVPLG03,si,20260319-152301,1.0.2,20260219-152011,807,Experiment,Both,1,Automatic,main,40,20260319-152720,local,local,300,S,H,A,A,A-S.png,A-H.png,sS,hH,mask-1.png,mask-4.png,s,1,1.4029991999850608,s,0,0.5295480999920983,0.05103140001301654,0.049609200010308996,0.10064849999616854,0.0995052000216674,0.30228669999632984
RSVPLG03,si,20260319-152301,1.0.2,20260219-152011,807,Experiment,Both,1,Automatic,main,41,20260319-152726,global,local,300,S,S,A,A,S-A.png,A-S.png,sS,sS,mask-3.png,mask-4.png,s,1,2.045085599995218,h,0,0.13744839999708347,0.05144889999064617,0.05217069998616353,0.10030969997751527,0.10076160001335666,0.30039799999212846
RSVPLG03,si,20260319-152301,1.0.2,20260219-152011,807,Experiment,Both,1,Automatic,main,42,20260319-152732,global,global,300,H,H,A,E,H-A.png,H-E.png,hH,hH,mask-3.png,mask-2.png,s,0,0.8325869999825954,s,0,0.47194009998929687,0.04766219999874011,0.05128600000170991,0.09870149998459965,0.09974870001315139,0.29861929998151027
RSVPLG03,si,20260319-152301,1.0.2,20260219-152011,807,Experiment,Both,1,Automatic,main,43,20260319-152737,global,local,750,S,S,E,A,S-E.png,A-S.png,sS,sS,mask-1.png,mask-4.png,h,0,0.8120198999822605,s,1,0.7929071999969892,0.05109470000024885,0.04922059999080375,0.10016250002081506,0.10036340000806376,0.7531393000099342
RSVPLG03,si,20260319-152301,1.0.2,20260219-152011,807,Experiment,Both,1,Automatic,main,44,20260319-152743,local,global,300,S,H,A,E,A-S.png,H-E.png,sS,hH,mask-4.png,mask-2.png,h,0,0.8429560999793466,s,0,0.8974211000022478,0.04979099999764003,0.050373700010823086,0.09849779997603036,0.10006659998907708,0.29850919998716563
RSVPLG03,si,20260319-152301,1.0.2,20260219-152011,807,Experiment,Both,1,Automatic,main,45,20260319-152748,local,global,750,S,H,A,E,A-S.png,H-E.png,sS,hH,mask-4.png,mask-1.png,s,1,1.6131592000019737,h,1,0.2468366000102833,0.049880300008226186,0.04959219999727793,0.09993969998322427,0.09812039998359978,0.7518550000095274
RSVPLG03,si,20260319-152301,1.0.2,20260219-152011,807,Experiment,Both,1,Automatic,main,46,20260319-152754,local,global,300,S,S,A,E,A-S.png,S-E.png,sS,sS,mask-4.png,mask-4.png,h,0,1.8308631000109017,s,1,1.1509407999983523,0.046455000003334135,0.05229719998897053,0.09759259998099878,0.09966269999858923,0.29776859999401495
RSVPLG03,si,20260319-152301,1.0.2,20260219-152011,807,Experiment,Both,1,Automatic,main,47,20260319-152801,global,global,750,S,H,E,A,S-E.png,H-A.png,sS,hH,mask-2.png,mask-3.png,s,1,1.8661413000081666,h,1,0.5001654999796301,0.0499740999948699,0.050065399991581216,0.10257379998802207,0.10223339998628944,0.7506342999986373
RSVPLG03,si,20260319-152301,1.0.2,20260219-152011,807,Experiment,Both,1,Automatic,main,48,20260319-152807,local,global,750,S,H,E,E,E-S.png,H-E.png,sS,hH,mask-2.png,mask-3.png,s,1,0.8836682999972254,h,1,0.43289649998769164,0.048935099999653175,0.047751600010087714,0.1009265000175219,0.09696700001950376,0.7541460999927949
RSVPLG03,si,20260319-152301,1.0.2,20260219-152011,807,Experiment,Both,1,Automatic,main,49,20260319-152813,local,global,300,H,S,E,E,E-H.png,S-E.png,hH,sS,mask-1.png,mask-3.png,h,1,0.8054588999948464,s,1,0.31278670000028796,0.05052300001261756,0.05089810001663864,0.10117120001814328,0.09979560002102517,0.30057349998969585
RSVPLG03,si,20260319-152301,1.0.2,20260219-152011,807,Experiment,Both,1,Automatic,main,50,20260319-152818,global,local,300,S,S,E,A,S-E.png,A-S.png,sS,sS,mask-2.png,mask-2.png,s,1,1.6050494000082836,h,0,0.07944919998408295,0.04974619997665286,0.05237339998711832,0.09933919998002239,0.101199099997757,0.2997222999983933
RSVPLG03,si,20260319-152301,1.0.2,20260219-152011,807,Experiment,Both,1,Automatic,main,51,20260319-152834,global,global,300,H,S,A,E,H-A.png,S-E.png,hH,sS,mask-2.png,mask-3.png,h,1,1.6284371999790892,s,1,0.06660469999769703,0.051152999978512526,0.05015070000081323,0.09979379997821525,0.09958019998157397,0.3010290999955032
RSVPLG03,si,20260319-152301,1.0.2,20260219-152011,807,Experiment,Both,1,Automatic,main,52,20260319-152839,global,global,750,S,H,A,E,S-A.png,H-E.png,sS,hH,mask-1.png,mask-3.png,s,1,1.8489194000139832,h,1,0.16201810000347905,0.049639100005151704,0.050898300018161535,0.10087429999839514,0.09990299999481067,0.7514105000009295
RSVPLG03,si,20260319-152301,1.0.2,20260219-152011,807,Experiment,Both,1,Automatic,main,53,20260319-152845,local,global,300,H,H,A,E,A-H.png,H-E.png,hH,hH,mask-4.png,mask-2.png,h,1,2.1896864000009373,s,0,1.4027637999970466,0.05232879999675788,0.04892280002241023,0.1009073999885004,0.09893950002151541,0.30191119998926297
RSVPLG03,si,20260319-152301,1.0.2,20260219-152011,807,Experiment,Both,1,Automatic,main,54,20260319-152852,local,global,300,H,S,A,A,A-H.png,S-A.png,hH,sS,mask-1.png,mask-4.png,h,1,2.3379787000012584,s,1,0.18458179998560809,0.05082600002060644,0.048727600020356476,0.10168490000069141,0.0986562000180129,0.3018131999997422
RSVPLG03,si,20260319-152301,1.0.2,20260219-152011,807,Experiment,Both,1,Automatic,main,55,20260319-152859,global,local,300,S,H,E,E,S-E.png,E-H.png,sS,hH,mask-2.png,mask-2.png,h,0,1.3209869000129402,s,0,0.7649870999739505,0.04987420001998544,0.050741100014420226,0.09954130000551231,0.10279110001283698,0.29975390000618063
RSVPLG03,si,20260319-152301,1.0.2,20260219-152011,807,Experiment,Both,1,Automatic,main,56,20260319-152904,local,local,750,H,S,A,E,A-H.png,E-S.png,hH,sS,mask-4.png,mask-2.png,h,1,1.4952630999905523,s,1,0.21307620001607575,0.04967930002021603,0.052242300007492304,0.1025771000131499,0.10307789998478256,0.7500055000127759
RSVPLG03,si,20260319-152301,1.0.2,20260219-152011,807,Experiment,Both,1,Automatic,main,57,20260319-152910,local,global,300,S,S,A,A,A-S.png,S-A.png,sS,sS,mask-2.png,mask-1.png,s,1,2.079693000006955,h,0,0.23419940000167117,0.05422489999909885,0.051269999996293336,0.10094969999045134,0.10086489998502657,0.29868000000715256
RSVPLG03,si,20260319-152301,1.0.2,20260219-152011,807,Experiment,Both,1,Automatic,main,58,20260319-152916,global,local,300,H,H,E,A,H-E.png,A-H.png,hH,hH,mask-1.png,mask-2.png,h,1,2.585694400011562,s,0,0.4578940999926999,0.04976429999805987,0.049699900002451614,0.0999588999839034,0.09984190002433024,0.2986450999742374
RSVPLG03,si,20260319-152301,1.0.2,20260219-152011,807,Experiment,Both,1,Automatic,main,59,20260319-152923,global,local,750,S,S,E,A,S-E.png,A-S.png,sS,sS,mask-1.png,mask-2.png,s,1,4.234385199990356,s,1,0.5186418000084814,0.050241899996763095,0.049880600010510534,0.09947459999239072,0.09957019999274053,0.7519504000083543
RSVPLG03,si,20260319-152301,1.0.2,20260219-152011,807,Experiment,Both,1,Automatic,main,60,20260319-152932,global,global,300,H,S,A,E,H-A.png,S-E.png,hH,sS,mask-4.png,mask-1.png,h,1,1.2898506000055932,s,1,0.29446510001434945,0.04945150000276044,0.05034950000117533,0.10030300001380965,0.1009677000110969,0.2998137999966275
RSVPLG03,si,20260319-152301,1.0.2,20260219-152011,807,Experiment,Both,1,Automatic,main,61,20260319-152938,local,global,300,H,H,A,E,A-H.png,H-E.png,hH,hH,mask-4.png,mask-4.png,h,1,1.1833351999812294,s,0,0.3212468000128865,0.05103100000997074,0.04895960001158528,0.10415709999506362,0.10013740000431426,0.301112799992552
RSVPLG03,si,20260319-152301,1.0.2,20260219-152011,807,Experiment,Both,1,Automatic,main,62,20260319-152943,global,global,300,S,H,E,A,S-E.png,H-A.png,sS,hH,mask-1.png,mask-1.png,s,1,3.1730570000072476,h,1,0.6010897000087425,0.05130469999858178,0.04894799998146482,0.09948619999340735,0.10052469998481683,0.30125680001219735
RSVPLG03,si,20260319-152301,1.0.2,20260219-152011,807,Experiment,Both,1,Automatic,main,63,20260319-152950,global,local,750,H,H,A,A,H-A.png,A-H.png,hH,hH,mask-3.png,mask-1.png,h,1,1.137834599998314,h,1,0.40198540000710636,0.04897790000541136,0.05099349998636171,0.09903460001805797,0.10118850000435486,0.7502692000125535
RSVPLG03,si,20260319-152301,1.0.2,20260219-152011,807,Experiment,Both,1,Automatic,main,64,20260319-152956,local,global,750,H,H,A,A,A-H.png,H-A.png,hH,hH,mask-4.png,mask-2.png,h,1,0.8915176999871619,h,1,0.26755240000784397,0.04913329999544658,0.04913840000517666,0.10028980000060983,0.09910240001045167,0.7530558999860659
RSVPLG03,si,20260319-152301,1.0.2,20260219-152011,807,Experiment,Both,1,Automatic,main,65,20260319-153002,global,local,300,S,S,A,A,S-A.png,A-S.png,sS,sS,mask-3.png,mask-4.png,s,1,1.3725628999818582,h,0,0.17617940000491217,0.04992220000713132,0.04950799999642186,0.09936799999559298,0.09918809999362566,0.3008463000005577
RSVPLG03,si,20260319-152301,1.0.2,20260219-152011,807,Experiment,Both,1,Automatic,main,66,20260319-153007,local,global,750,H,S,A,A,A-H.png,S-A.png,hH,sS,mask-1.png,mask-3.png,h,1,0.892384700011462,s,1,0.6177341000002343,0.051214000006439164,0.048879000009037554,0.10084820000338368,0.09827280000899918,0.7519515000167303
RSVPLG03,si,20260319-152301,1.0.2,20260219-152011,807,Experiment,Both,1,Automatic,main,67,20260319-153012,local,local,750,S,H,A,E,A-S.png,E-H.png,sS,hH,mask-2.png,mask-3.png,s,1,0.8677401999884751,h,1,0.5289365999924485,0.04975800000829622,0.04977469998993911,0.09964169998420402,0.10127109999302775,0.7515203999937512
RSVPLG03,si,20260319-152301,1.0.2,20260219-152011,807,Experiment,Both,1,Automatic,main,68,20260319-153018,local,local,300,S,S,E,A,E-S.png,A-S.png,sS,sS,mask-2.png,mask-4.png,s,1,0.9507005999912508,s,1,0.23139349999837577,0.04866289999336004,0.0508529000217095,0.09944640001049265,0.09966430001077242,0.29928629999631085
RSVPLG03,si,20260319-152301,1.0.2,20260219-152011,807,Experiment,Both,1,Automatic,main,69,20260319-153023,global,local,300,H,H,A,E,H-A.png,E-H.png,hH,hH,mask-4.png,mask-2.png,h,1,1.1298164000036195,h,1,0.20425879998947494,0.050770900008501485,0.04959270000108518,0.10029780000331812,0.10031950002303347,0.30107799998950213
RSVPLG03,si,20260319-152301,1.0.2,20260219-152011,807,Experiment,Both,1,Automatic,main,70,20260319-153028,local,local,300,S,H,E,E,E-S.png,E-H.png,sS,hH,mask-2.png,mask-3.png,s,1,0.572383799997624,h,1,0.13956519999192096,0.04838179997750558,0.04950679998728447,0.10077049999381416,0.09870000000228174,0.30109860000084154
RSVPLG03,si,20260319-152301,1.0.2,20260219-152011,807,Experiment,Both,1,Automatic,main,71,20260319-153033,local,global,750,H,S,E,E,E-H.png,S-E.png,hH,sS,mask-2.png,mask-2.png,h,1,1.8487736000097357,h,0,0.3117667999758851,0.04817990001174621,0.04939770000055432,0.09860210001352243,0.10042420000536367,0.7502525000018068
RSVPLG03,si,20260319-152301,1.0.2,20260219-152011,807,Experiment,Both,1,Automatic,main,72,20260319-153039,global,global,750,S,S,A,E,S-A.png,S-E.png,sS,sS,mask-4.png,mask-4.png,s,1,0.9697182000090834,s,1,0.24200040000141598,0.049643399979686365,0.05001560001983307,0.09903669997584075,0.099604500021087,0.7513076999748591
RSVPLG03,si,20260319-152301,1.0.2,20260219-152011,807,Experiment,Both,1,Automatic,main,73,20260319-153044,global,local,300,H,S,E,A,H-E.png,A-S.png,hH,sS,mask-2.png,mask-3.png,h,1,1.7764956000028178,h,0,0.2066294999967795,0.05079829998430796,0.04935950000071898,0.10035749999224208,0.09888099998352118,0.3017284999950789
RSVPLG03,si,20260319-152301,1.0.2,20260219-152011,807,Experiment,Both,1,Automatic,main,74,20260319-153050,global,local,750,H,S,E,E,H-E.png,E-S.png,hH,sS,mask-3.png,mask-1.png,h,1,0.7922896000090986,s,1,0.058331700012786314,0.051502799993613735,0.051603400002932176,0.09993440000107512,0.10136930001317523,0.7514140999992378
RSVPLG03,si,20260319-152301,1.0.2,20260219-152011,807,Experiment,Both,1,Automatic,main,75,20260319-153055,local,global,300,H,H,E,A,E-H.png,H-A.png,hH,hH,mask-2.png,mask-4.png,h,1,2.5625603000225965,s,0,0.28904319999855943,0.05014939999091439,0.04853729999740608,0.0994553999917116,0.10486979997949675,0.3015056000149343
RSVPLG03,si,20260319-152301,1.0.2,20260219-152011,807,Experiment,Both,1,Automatic,main,76,20260319-153111,global,global,300,S,H,A,A,S-A.png,H-A.png,sS,hH,mask-2.png,mask-4.png,s,1,1.1398716999974567,h,1,1.3314915999944787,0.05136309997760691,0.050810999993700534,0.10179459999199025,0.10097830000449903,0.2993805999867618
RSVPLG03,si,20260319-152301,1.0.2,20260219-152011,807,Experiment,Both,1,Automatic,main,77,20260319-153117,global,global,300,S,H,E,E,S-E.png,H-E.png,sS,hH,mask-3.png,mask-1.png,h,0,2.051633299997775,s,0,0.12825820001307875,0.049547200003871694,0.049597600009292364,0.09881979998317547,0.09904430000460707,0.2994573999894783
RSVPLG03,si,20260319-152301,1.0.2,20260219-152011,807,Experiment,Both,1,Automatic,main,78,20260319-153123,global,local,750,S,S,E,E,S-E.png,E-S.png,sS,sS,mask-1.png,mask-3.png,s,1,0.6217079000198282,h,0,0.014975600002799183,0.050579600007040426,0.04764590002014302,0.10218620000523515,0.09714970001368783,0.7549028999928851
RSVPLG03,si,20260319-152301,1.0.2,20260219-152011,807,Experiment,Both,1,Automatic,main,79,20260319-153128,local,global,300,H,H,E,E,E-H.png,H-E.png,hH,hH,mask-3.png,mask-1.png,h,1,1.5813543999975082,h,1,0.1053607999929227,0.05081429998972453,0.048216800001682714,0.09935269999550655,0.09757809998700395,0.3041101999988314
RSVPLG03,si,20260319-152301,1.0.2,20260219-152011,807,Experiment,Both,1,Automatic,main,80,20260319-153133,global,local,300,S,H,E,E,S-E.png,E-H.png,sS,hH,mask-3.png,mask-2.png,s,1,0.9320153000007849,h,1,0.015737200010335073,0.04801190001307987,0.05104849999770522,0.09795339999254793,0.10181959997862577,0.298103600012837
RSVPLG03,si,20260319-152301,1.0.2,20260219-152011,807,Experiment,Both,1,Automatic,main,81,20260319-153138,global,local,750,S,S,A,A,S-A.png,A-S.png,sS,sS,mask-3.png,mask-4.png,s,1,1.0336573999957182,s,1,0.2422149000049103,0.05158010000013746,0.050518900010501966,0.09983020002255216,0.10100270001566969,0.7503380000125617
RSVPLG03,si,20260319-152301,1.0.2,20260219-152011,807,Experiment,Both,1,Automatic,main,82,20260319-153143,local,local,750,S,S,A,A,A-S.png,A-S.png,sS,sS,mask-1.png,mask-4.png,s,1,1.3364767000020947,s,1,0.1932070000038948,0.050096799997845665,0.04982789998757653,0.10130350000690669,0.102030999987619,0.7512210000131745
RSVPLG03,si,20260319-152301,1.0.2,20260219-152011,807,Experiment,Both,1,Automatic,main,83,20260319-153149,global,global,750,H,S,A,A,H-A.png,S-A.png,hH,sS,mask-2.png,mask-1.png,h,1,2.2006082000152674,s,1,0.24066700000548735,0.04971640001167543,0.04962980002164841,0.10250140001880936,0.09955450001871213,0.7525497000024188
RSVPLG03,si,20260319-152301,1.0.2,20260219-152011,807,Experiment,Both,1,Automatic,main,84,20260319-153155,global,local,300,S,S,A,E,S-A.png,E-S.png,sS,sS,mask-2.png,mask-2.png,s,1,1.8815497999894433,s,1,0.20253170002251863,0.04971490000025369,0.04970589998993091,0.09985350002534688,0.10028340001008473,0.30082130001392215
RSVPLG03,si,20260319-152301,1.0.2,20260219-152011,807,Experiment,Both,1,Automatic,main,85,20260319-153201,local,global,750,H,H,A,E,A-H.png,H-E.png,hH,hH,mask-4.png,mask-4.png,h,1,3.094585000013467,h,1,0.29690680000931025,0.05036289998679422,0.05041729999356903,0.10035389999393374,0.10067369998432696,0.7519810000085272
RSVPLG03,si,20260319-152301,1.0.2,20260219-152011,807,Experiment,Both,1,Automatic,main,86,20260319-153209,local,global,750,S,S,E,A,E-S.png,S-A.png,sS,sS,mask-3.png,mask-1.png,s,1,1.010516300011659,s,1,0.201244099996984,0.05096120000234805,0.04926189998514019,0.10318160001770593,0.10015569999814034,0.7519431000109762
RSVPLG03,si,20260319-152301,1.0.2,20260219-152011,807,Experiment,Both,1,Automatic,main,87,20260319-153214,local,local,300,H,H,A,E,A-H.png,E-H.png,hH,hH,mask-4.png,mask-2.png,h,1,1.1024700999842025,s,0,0.17080839999835007,0.05151499999919906,0.0520474000077229,0.10039829998277128,0.10066419999930076,0.3000867999799084
RSVPLG03,si,20260319-152301,1.0.2,20260219-152011,807,Experiment,Both,1,Automatic,main,88,20260319-153219,local,local,750,H,S,E,E,E-H.png,E-S.png,hH,sS,mask-3.png,mask-2.png,h,1,0.9561896999948658,s,1,0.12168089998885989,0.04980380000779405,0.04994190001161769,0.09879519999958575,0.10074699998949654,0.7496575000113808
RSVPLG03,si,20260319-152301,1.0.2,20260219-152011,807,Experiment,Both,1,Automatic,main,89,20260319-153224,local,local,750,H,H,A,E,A-H.png,E-H.png,hH,hH,mask-3.png,mask-3.png,h,1,0.5604867999791168,h,1,0.1261829000141006,0.0507684999902267,0.049689099978422746,0.0995260999770835,0.10143469998729415,0.7512226999970153
RSVPLG03,si,20260319-152301,1.0.2,20260219-152011,807,Experiment,Both,1,Automatic,main,90,20260319-153229,global,local,750,H,S,E,E,H-E.png,E-S.png,hH,sS,mask-4.png,mask-4.png,h,1,0.7522070999839343,s,1,0.0898631000018213,0.050910200021462515,0.049508700001752004,0.10246370002278127,0.09681250000721775,0.7554271999979392
RSVPLG03,si,20260319-152301,1.0.2,20260219-152011,807,Experiment,Both,1,Automatic,main,91,20260319-153234,global,local,750,S,S,E,A,S-E.png,A-S.png,sS,sS,mask-4.png,mask-3.png,s,1,1.1436939999985043,s,1,0.1984474000055343,0.0495091000047978,0.051631500013172626,0.09835960000054911,0.10178200001246296,0.7506517999863718
RSVPLG03,si,20260319-152301,1.0.2,20260219-152011,807,Experiment,Both,1,Automatic,main,92,20260319-153240,global,global,300,S,S,A,E,S-A.png,S-E.png,sS,sS,mask-2.png,mask-4.png,s,1,0.9435899999807589,h,0,0.06558860000222921,0.04771030001575127,0.050947000010637566,0.09854320000158623,0.10206380000454374,0.2981046999921091
RSVPLG03,si,20260319-152301,1.0.2,20260219-152011,807,Experiment,Both,1,Automatic,main,93,20260319-153244,local,local,750,H,H,E,E,E-H.png,E-H.png,hH,hH,mask-4.png,mask-4.png,s,0,1.3315389000053983,h,1,0.026052899978822097,0.048924800008535385,0.04968409999855794,0.10071359999710694,0.09841010000673123,0.7521613000135403
RSVPLG03,si,20260319-152301,1.0.2,20260219-152011,807,Experiment,Both,1,Automatic,main,94,20260319-153250,local,local,300,H,H,E,A,E-H.png,A-H.png,hH,hH,mask-2.png,mask-1.png,h,1,0.6599451999936718,h,1,0.1518268000218086,0.05068909999681637,0.049967700004344806,0.09910239998134784,0.10087540000677109,0.29948819999117404
RSVPLG03,si,20260319-152301,1.0.2,20260219-152011,807,Experiment,Both,1,Automatic,main,95,20260319-153254,global,local,750,S,H,A,E,S-A.png,E-H.png,sS,hH,mask-1.png,mask-3.png,h,0,1.6973732000042219,s,0,0.13768610000261106,0.050809299980755895,0.04975689999992028,0.10154420000617392,0.10160480000195093,0.7517722999909893
RSVPLG03,si,20260319-152301,1.0.2,20260219-152011,807,Experiment,Both,1,Automatic,main,96,20260319-153300,global,global,300,H,H,E,A,H-E.png,H-A.png,hH,hH,mask-4.png,mask-4.png,h,1,1.384941099997377,s,0,0.29667260000132956,0.050226999999722466,0.050788699998520315,0.1002135000017006,0.1005416999978479,0.30064080000738613
RSVPLG03,si,20260319-152301,1.0.2,20260219-152011,807,Experiment,Both,1,Automatic,main,97,20260319-153306,local,local,750,H,H,A,A,A-H.png,A-H.png,hH,hH,mask-4.png,mask-1.png,h,1,0.7290056000056211,h,1,0.32965209998656064,0.05084879999049008,0.04932869999902323,0.10045070000342093,0.099722799990559,0.7528938000032213
RSVPLG03,si,20260319-152301,1.0.2,20260219-152011,807,Experiment,Both,1,Automatic,main,98,20260319-153311,local,local,300,H,H,A,A,A-H.png,A-H.png,hH,hH,mask-3.png,mask-4.png,h,1,1.5372499999939464,s,0,0.25725349999265745,0.04951780001283623,0.04954920001910068,0.09913820002111606,0.09960400001727976,0.3006554000021424
RSVPLG03,si,20260319-152301,1.0.2,20260219-152011,807,Experiment,Both,1,Automatic,main,99,20260319-153316,local,local,750,S,H,A,E,A-S.png,E-H.png,sS,hH,mask-3.png,mask-2.png,s,1,1.3413537000014912,h,1,0.1688574999861885,0.049745700001949444,0.05151250000926666,0.09792079997714609,0.10052680000080727,0.7498671999783255
RSVPLG03,si,20260319-152301,1.0.2,20260219-152011,807,Experiment,Both,1,Automatic,main,100,20260319-153322,global,global,750,H,S,A,E,H-A.png,S-E.png,hH,sS,mask-3.png,mask-2.png,h,1,0.9713356999855023,h,0,1.1242228000191972,0.04851789999520406,0.05074910001712851,0.10035029999562539,0.10156430001370609,0.7511893999762833
RSVPLG03,si,20260319-153418,1.0.2,20260219-152011,807,Experiment,Both,1,Automatic,warmup,1,20260319-153436,global,global,300,S,S,A,E,S-A.png,S-E.png,sS,sS,mask-4.png,mask-2.png,s,1,0.9574810999911278,h,0,1.0861923999909777,0.04877120000310242,0.048812200024258345,0.09793119999812916,0.09905160000198521,0.2983494999934919
RSVPLG03,si,20260319-153418,1.0.2,20260219-152011,807,Experiment,Both,1,Automatic,warmup,2,20260319-153441,global,local,300,S,S,E,A,S-E.png,A-S.png,sS,sS,mask-1.png,mask-3.png,s,1,1.2303336999902967,h,0,0.9920342999976128,0.049869900016346946,0.05116699999780394,0.10008699999889359,0.10211479998542927,0.29816100001335144
RSVPLG03,si,20260319-153418,1.0.2,20260219-152011,807,Experiment,Both,1,Automatic,warmup,3,20260319-153447,local,local,750,S,S,E,E,E-S.png,E-S.png,sS,sS,mask-1.png,mask-3.png,s,1,0.5159478000132367,s,1,0.24111239999183454,0.048803300014697015,0.0493133999989368,0.10026680000009947,0.10138869998627342,0.7499851000029594
RSVPLG03,si,20260319-153418,1.0.2,20260219-152011,807,Experiment,Both,1,Automatic,warmup,4,20260319-153451,local,local,300,S,S,A,A,A-S.png,A-S.png,sS,sS,mask-4.png,mask-2.png,s,1,0.4015052000177093,s,1,0.10535910000908189,0.04901029999018647,0.05141929999808781,0.10006050000083633,0.09977460000663996,0.3008452999929432
RSVPLG03,si,20260319-153418,1.0.2,20260219-152011,807,Experiment,Both,1,Automatic,main,5,20260319-153456,global,global,750,S,H,E,A,S-E.png,H-A.png,sS,hH,mask-2.png,mask-1.png,s,1,0.7887290999933612,h,1,0.6583730999846011,0.04994530000840314,0.049361700017470866,0.10111850002431311,0.09826610001618974,0.7505242000042927
RSVPLG03,si,20260319-153418,1.0.2,20260219-152011,807,Experiment,Both,1,Automatic,main,6,20260319-153501,local,global,300,S,H,A,E,A-S.png,H-E.png,sS,hH,mask-1.png,mask-3.png,s,1,0.6853470000205562,h,1,0.7571931999991648,0.047855000011622906,0.04988989999401383,0.09832409999216907,0.10071349999634549,0.29818929999601096
RSVPLG03,si,20260319-153418,1.0.2,20260219-152011,807,Experiment,Both,1,Automatic,main,7,20260319-153506,local,local,300,S,H,A,A,A-S.png,A-H.png,sS,hH,mask-4.png,mask-4.png,s,1,0.751358599984087,h,1,0.8546442000078969,0.05216890000156127,0.04811909998534247,0.10086499998578802,0.09763889998430386,0.3029876000073273
RSVPLG03,si,20260319-153418,1.0.2,20260219-152011,807,Experiment,Both,1,Automatic,main,8,20260319-153510,local,global,300,S,S,A,E,A-S.png,S-E.png,sS,sS,mask-1.png,mask-4.png,s,1,2.2625851000193506,s,1,0.1205818000016734,0.049853899981826544,0.050320400012424216,0.09976539999479428,0.10082399999373592,0.30012979998718947
RSVPLG03,si,20260319-153418,1.0.2,20260219-152011,807,Experiment,Both,1,Automatic,main,9,20260319-153516,global,global,300,S,H,A,E,S-A.png,H-E.png,sS,hH,mask-4.png,mask-2.png,s,1,1.0422908999898937,s,0,0.09742149998783134,0.04986800000187941,0.0504705999919679,0.10059419999015518,0.09976979999919422,0.2995311999984551
RSVPLG03,si,20260319-153418,1.0.2,20260219-152011,807,Experiment,Both,1,Automatic,main,10,20260319-153521,local,global,300,H,S,E,A,E-H.png,S-A.png,hH,sS,mask-1.png,mask-3.png,s,0,3.449936400022125,h,0,3.5778072999964934,0.04963110000244342,0.04990969999926165,0.09862380000413395,0.09928519997629337,0.3000571000156924
RSVPLG03,si,20260319-153418,1.0.2,20260219-152011,807,Experiment,Both,1,Automatic,main,11,20260319-153528,global,local,750,H,S,E,E,H-E.png,E-S.png,hH,sS,mask-1.png,mask-2.png,h,1,0.6325405999959912,s,1,0.22701349999988452,0.04872750001959503,0.050622800015844405,0.09976480001932941,0.10006359999533743,0.7489146000007167
RSVPLG03,si,20260319-153418,1.0.2,20260219-152011,807,Experiment,Both,1,Automatic,main,12,20260319-153533,global,global,750,H,H,E,A,H-E.png,H-A.png,hH,hH,mask-1.png,mask-4.png,h,1,1.2030388000130188,s,0,0.31901450001168996,0.05087939999066293,0.05082449998008087,0.100073000008706,0.10139919997891411,0.7509140000038315
RSVPLG03,si,20260319-153418,1.0.2,20260219-152011,807,Experiment,Both,1,Automatic,main,13,20260319-153539,global,global,300,S,S,E,A,S-E.png,S-A.png,sS,sS,mask-4.png,mask-1.png,s,1,1.2016526999941561,h,0,0.05822999999509193,0.050107299990486354,0.049344000028213486,0.10020970000186935,0.09795530000701547,0.3010725999774877
RSVPLG03,si,20260319-153418,1.0.2,20260219-152011,807,Experiment,Both,1,Automatic,main,14,20260319-153544,local,local,750,S,S,E,A,E-S.png,A-S.png,sS,sS,mask-4.png,mask-2.png,s,1,0.34314500002074055,s,1,0.18882520002080128,0.050761799997417256,0.047861400002148,0.09959910000907257,0.0992211000120733,0.7514186000043992
RSVPLG03,si,20260319-153418,1.0.2,20260219-152011,807,Experiment,Both,1,Automatic,main,15,20260319-153549,global,local,300,H,H,A,E,H-A.png,E-H.png,hH,hH,mask-1.png,mask-4.png,h,1,1.1329384999989998,s,0,0.27925110000069253,0.04932380001991987,0.04915990002336912,0.09931419999338686,0.09892519999993965,0.30060069999308325
RSVPLG03,si,20260319-153418,1.0.2,20260219-152011,807,Experiment,Both,1,Automatic,main,16,20260319-153554,global,global,300,H,H,A,E,H-A.png,H-E.png,hH,hH,mask-3.png,mask-4.png,s,0,0.7587975999922492,h,1,0.03622359997825697,0.047914199996739626,0.051599099999293685,0.09821719999308698,0.10112700000172481,0.29838270001346245
RSVPLG03,si,20260319-153418,1.0.2,20260219-152011,807,Experiment,Both,1,Automatic,main,17,20260319-153558,global,local,750,S,S,E,E,S-E.png,E-S.png,sS,sS,mask-3.png,mask-4.png,s,1,1.4346617000119295,s,1,0.12594820000231266,0.049852099997224286,0.04892090000794269,0.10190000000875443,0.0990495000150986,0.7496978999988642
RSVPLG03,si,20260319-153418,1.0.2,20260219-152011,807,Experiment,Both,1,Automatic,main,18,20260319-153604,local,global,300,S,H,E,A,E-S.png,H-A.png,sS,hH,mask-4.png,mask-3.png,s,1,1.3576192999898922,h,1,0.06615150001016445,0.05021620000479743,0.048154299991438165,0.10005350000574253,0.09665510000195354,0.30234419999760576
RSVPLG03,si,20260319-153418,1.0.2,20260219-152011,807,Experiment,Both,1,Automatic,main,19,20260319-153609,local,local,750,S,H,E,A,E-S.png,A-H.png,sS,hH,mask-4.png,mask-2.png,s,1,0.9998569999879692,h,1,0.03793249998125248,0.05004450000706129,0.049180899979546666,0.09994810001808219,0.09967529997811653,0.7510429000249133
RSVPLG03,si,20260319-153418,1.0.2,20260219-152011,807,Experiment,Both,1,Automatic,main,20,20260319-153614,local,local,750,H,S,A,E,A-H.png,E-S.png,hH,sS,mask-2.png,mask-2.png,h,1,0.34861039998941123,s,1,0.0227026000211481,0.050307299999985844,0.0516615999804344,0.10059529999853112,0.10080220000236295,0.7488466000068001
RSVPLG03,si,20260319-153418,1.0.2,20260219-152011,807,Experiment,Both,1,Automatic,main,21,20260319-153619,local,global,750,H,H,E,A,E-H.png,H-A.png,hH,hH,mask-3.png,mask-4.png,h,1,0.3333365000144113,s,0,0.018425899994326755,0.05063810001593083,0.050769599998602644,0.09923180000623688,0.10135069998796098,0.7494816000107676
RSVPLG03,si,20260319-153418,1.0.2,20260219-152011,807,Experiment,Both,1,Automatic,main,22,20260319-153623,local,local,750,H,S,A,A,A-H.png,A-S.png,hH,sS,mask-4.png,mask-1.png,h,1,0.7144597000151407,s,1,0.22301379998680204,0.049470099998870865,0.04991540001356043,0.0990936000016518,0.09893690000171773,0.7499000999960117
RSVPLG03,si,20260319-153418,1.0.2,20260219-152011,807,Experiment,Both,1,Automatic,main,23,20260319-153628,global,global,750,S,S,E,A,S-E.png,S-A.png,sS,sS,mask-3.png,mask-4.png,s,1,0.7361889000167139,s,1,0.3651926000020467,0.05008960000122897,0.048232800007099286,0.09977519998210482,0.09865440000430681,0.7524054999812506
RSVPLG03,si,20260319-153418,1.0.2,20260219-152011,807,Experiment,Both,1,Automatic,main,24,20260319-153634,global,global,300,H,S,E,A,H-E.png,S-A.png,hH,sS,mask-4.png,mask-4.png,s,0,1.3874594999942929,h,0,0.4349837000190746,0.04839949999586679,0.0497075000021141,0.09801240000524558,0.10068140001385473,0.2982435000012629
RSVPLG03,si,20260319-153418,1.0.2,20260219-152011,807,Experiment,Both,1,Automatic,main,25,20260319-153639,global,local,300,H,S,E,E,H-E.png,E-S.png,hH,sS,mask-2.png,mask-3.png,h,1,1.0329808999958914,s,1,0.36654300001100637,0.05029709998052567,0.05049799999687821,0.09965989997726865,0.10068499998305924,0.30002819999936037
RSVPLG03,si,20260319-153418,1.0.2,20260219-152011,807,Experiment,Both,1,Automatic,main,26,20260319-153655,global,local,300,S,H,A,A,S-A.png,A-H.png,sS,hH,mask-2.png,mask-4.png,s,1,1.4424848000053316,h,1,1.570471200015163,0.051034500007517636,0.05282969999825582,0.10066150000784546,0.10016679999534972,0.30028550000861287
RSVPLG03,si,20260319-153418,1.0.2,20260219-152011,807,Experiment,Both,1,Automatic,main,27,20260319-153700,local,local,300,H,S,E,E,E-H.png,E-S.png,hH,sS,mask-1.png,mask-1.png,h,1,0.34990339999785647,s,1,0.024561300000641495,0.0505393999919761,0.04935090002254583,0.09908709998126142,0.09997230002772994,0.29951669997535646
RSVPLG03,si,20260319-153418,1.0.2,20260219-152011,807,Experiment,Both,1,Automatic,main,28,20260319-153704,global,local,750,S,H,E,E,S-E.png,E-H.png,sS,hH,mask-4.png,mask-2.png,s,1,0.5829647000064142,h,1,0.9209021000133362,0.05136610000045039,0.05095810000784695,0.09964600001694635,0.10088080001878552,0.7496758000052068
RSVPLG03,si,20260319-153418,1.0.2,20260219-152011,807,Experiment,Both,1,Automatic,main,29,20260319-153709,local,global,300,S,H,E,A,E-S.png,H-A.png,sS,hH,mask-4.png,mask-3.png,s,1,0.7124914999876637,h,1,0.3094654000014998,0.04968379999627359,0.0488206000009086,0.09988280001562089,0.09782090000226162,0.3006654000200797
RSVPLG03,si,20260319-153418,1.0.2,20260219-152011,807,Experiment,Both,1,Automatic,main,30,20260319-153714,global,local,300,H,S,A,A,H-A.png,A-S.png,hH,sS,mask-1.png,mask-3.png,h,1,0.6759934999863617,s,1,0.21835499998996966,0.049407999991672114,0.04959100001724437,0.10109390001161955,0.09966060001170263,0.30121320000034757
RSVPLG03,si,20260319-153418,1.0.2,20260219-152011,807,Experiment,Both,1,Automatic,main,31,20260319-153719,local,local,300,H,S,E,A,E-H.png,A-S.png,hH,sS,mask-2.png,mask-3.png,h,1,1.0471434000064619,s,1,0.04942909997771494,0.050105500005884096,0.049911399983102456,0.10051779999048449,0.10142359999008477,0.2994870000111405
RSVPLG03,si,20260319-153418,1.0.2,20260219-152011,807,Experiment,Both,1,Automatic,main,32,20260319-153723,global,global,300,H,S,A,E,H-A.png,S-E.png,hH,sS,mask-2.png,mask-3.png,s,0,0.4879609000054188,h,0,0.2526279999874532,0.050028600002406165,0.04786339998827316,0.10000989999389276,0.09795470000244677,0.30106009999872185
RSVPLG03,si,20260319-153418,1.0.2,20260219-152011,807,Experiment,Both,1,Automatic,main,33,20260319-153728,global,local,750,S,S,E,A,S-E.png,A-S.png,sS,sS,mask-2.png,mask-3.png,s,1,0.46758239998598583,h,0,0.05525229999329895,0.05155880001257174,0.05050079998909496,0.10000700000091456,0.10091300000203773,0.7514237000141293
RSVPLG03,si,20260319-153418,1.0.2,20260219-152011,807,Experiment,Both,1,Automatic,main,34,20260319-153733,global,global,300,H,H,A,E,H-A.png,H-E.png,hH,hH,mask-4.png,mask-4.png,h,1,0.5935188999865204,h,1,0.23161240000627004,0.05029309997917153,0.048581000010017306,0.09871159997419454,0.10107629999401979,0.29900259998976253
RSVPLG03,si,20260319-153418,1.0.2,20260219-152011,807,Experiment,Both,1,Automatic,main,35,20260319-153737,global,local,750,S,S,E,A,S-E.png,A-S.png,sS,sS,mask-4.png,mask-4.png,s,1,1.0707992000097875,h,0,0.2811165000020992,0.05021780001698062,0.0514485000167042,0.098751200013794,0.09971520002000034,0.7499658000015188
RSVPLG03,si,20260319-153418,1.0.2,20260219-152011,807,Experiment,Both,1,Automatic,main,36,20260319-153743,local,global,750,S,S,E,E,E-S.png,S-E.png,sS,sS,mask-1.png,mask-4.png,s,1,1.2769798999943305,s,1,0.2890866000088863,0.048938199994154274,0.05069770000409335,0.10019830000237562,0.09957520000170916,0.7493329999851994
RSVPLG03,si,20260319-153418,1.0.2,20260219-152011,807,Experiment,Both,1,Automatic,main,37,20260319-153748,global,local,750,S,S,A,E,S-A.png,E-S.png,sS,sS,mask-1.png,mask-4.png,s,1,0.7452991000027396,s,1,0.21774829999776557,0.049929200002225116,0.049898099998245016,0.1010105999885127,0.10038230000645854,0.750443400000222
RSVPLG03,si,20260319-153418,1.0.2,20260219-152011,807,Experiment,Both,1,Automatic,main,38,20260319-153754,global,local,750,S,H,A,A,S-A.png,A-H.png,sS,hH,mask-2.png,mask-2.png,s,1,0.39755500000319444,h,1,1.6747243999852799,0.050560600007884204,0.048652400000719354,0.10124620000715367,0.09970600000815466,0.750654300005408
RSVPLG03,si,20260319-153418,1.0.2,20260219-152011,807,Experiment,Both,1,Automatic,main,39,20260319-153800,global,local,300,H,H,E,E,H-E.png,E-H.png,hH,hH,mask-1.png,mask-1.png,h,1,1.5461810999840964,h,1,0.17449889998533763,0.05005119999987073,0.049710199993569404,0.10012440002174117,0.1002108000102453,0.2994260000123177
RSVPLG03,si,20260319-153418,1.0.2,20260219-152011,807,Experiment,Both,1,Automatic,main,40,20260319-153805,global,global,750,S,H,A,A,S-A.png,H-A.png,sS,hH,mask-4.png,mask-3.png,s,1,1.518113700003596,h,1,0.33092830001260154,0.050813899986678734,0.04933720000553876,0.10096439998596907,0.10136339999735355,0.7502955999807455
RSVPLG03,si,20260319-153418,1.0.2,20260219-152011,807,Experiment,Both,1,Automatic,main,41,20260319-153811,global,global,750,H,S,A,E,H-A.png,S-E.png,hH,sS,mask-3.png,mask-1.png,h,1,1.4891411999997217,h,0,0.21553560000029393,0.04967999999644235,0.049893799994606525,0.10182139999233186,0.09963000001152977,0.7510364000045229
RSVPLG03,si,20260319-153418,1.0.2,20260219-152011,807,Experiment,Both,1,Automatic,main,42,20260319-153817,local,local,750,H,S,E,A,E-H.png,A-S.png,hH,sS,mask-1.png,mask-1.png,s,0,0.4916539000114426,s,1,0.1215338000038173,0.04858060000697151,0.05081929999869317,0.10030650001135655,0.10175609998987056,0.7480522000114433
RSVPLG03,si,20260319-153418,1.0.2,20260219-152011,807,Experiment,Both,1,Automatic,main,43,20260319-153822,local,local,300,H,H,A,E,A-H.png,E-H.png,hH,hH,mask-1.png,mask-4.png,h,1,1.8543473000172526,s,0,0.6282708999933675,0.04926649999106303,0.05020160001004115,0.10049429998616688,0.10162870000931434,0.29900159998214804
RSVPLG03,si,20260319-153418,1.0.2,20260219-152011,807,Experiment,Both,1,Automatic,main,44,20260319-153828,global,local,750,H,H,E,A,H-E.png,A-H.png,hH,hH,mask-3.png,mask-3.png,h,1,1.2453985000029206,h,1,0.34576519997790456,0.048782800004119053,0.04825039999559522,0.09905119999893941,0.09844830000656657,0.7509115000138991
RSVPLG03,si,20260319-153418,1.0.2,20260219-152011,807,Experiment,Both,1,Automatic,main,45,20260319-153834,local,global,300,H,H,A,E,A-H.png,H-E.png,hH,hH,mask-2.png,mask-3.png,h,1,1.2326182999822777,h,1,0.19093029998475686,0.048798999981954694,0.05097799998475239,0.09868120000464842,0.10132779998821206,0.2996162000054028
RSVPLG03,si,20260319-153418,1.0.2,20260219-152011,807,Experiment,Both,1,Automatic,main,46,20260319-153839,local,local,300,S,H,E,A,E-S.png,A-H.png,sS,hH,mask-1.png,mask-1.png,s,1,1.32364299998153,h,1,0.15485379999154247,0.05186070001218468,0.05009760000393726,0.09993450000183657,0.10015660000499338,0.30013240000698715
RSVPLG03,si,20260319-153418,1.0.2,20260219-152011,807,Experiment,Both,1,Automatic,main,47,20260319-153844,global,local,300,S,H,A,E,S-A.png,E-H.png,sS,hH,mask-3.png,mask-4.png,s,1,1.127528400014853,h,1,0.02563610000652261,0.04983859998174012,0.05146640000748448,0.10041719998116605,0.09972920001018792,0.2992046999861486
RSVPLG03,si,20260319-153418,1.0.2,20260219-152011,807,Experiment,Both,1,Automatic,main,48,20260319-153849,local,global,750,S,S,E,E,E-S.png,S-E.png,sS,sS,mask-4.png,mask-2.png,s,1,1.1970698999939486,s,1,0.2809386999870185,0.0496765999996569,0.05071270000189543,0.09855179997975938,0.10004360001767054,0.7487177999864798
RSVPLG03,si,20260319-153418,1.0.2,20260219-152011,807,Experiment,Both,1,Automatic,main,49,20260319-153854,local,global,300,H,H,E,A,E-H.png,H-A.png,hH,hH,mask-1.png,mask-3.png,h,1,0.6402061999833677,h,1,0.37730130000272766,0.04802459999336861,0.05011370001011528,0.09825670000282116,0.1000075000047218,0.2979310000082478
RSVPLG03,si,20260319-153418,1.0.2,20260219-152011,807,Experiment,Both,1,Automatic,main,50,20260319-153859,global,global,300,H,S,E,E,H-E.png,S-E.png,hH,sS,mask-1.png,mask-2.png,h,1,1.2944478999997955,s,1,0.04667489998973906,0.050163500010967255,0.04929840000113472,0.09884570000576787,0.10024620001786388,0.2987843999871984
RSVPLG03,si,20260319-153418,1.0.2,20260219-152011,807,Experiment,Both,1,Automatic,main,51,20260319-153906,global,global,750,S,S,E,E,S-E.png,S-E.png,sS,sS,mask-2.png,mask-3.png,h,0,1.2727420999726746,s,1,0.009217499988153577,0.05044230000930838,0.049096800008555874,0.10114169999724254,0.09961950001888908,0.7520438999927137
RSVPLG03,si,20260319-153418,1.0.2,20260219-152011,807,Experiment,Both,1,Automatic,main,52,20260319-153912,global,local,300,S,H,E,E,S-E.png,E-H.png,sS,hH,mask-4.png,mask-3.png,s,1,0.7276254000025801,h,1,0.03969830001005903,0.051320500002475455,0.05094300000928342,0.09988629998406395,0.10047259999555536,0.3001611999934539
RSVPLG03,si,20260319-153418,1.0.2,20260219-152011,807,Experiment,Both,1,Automatic,main,53,20260319-153916,local,local,300,H,S,A,A,A-H.png,A-S.png,hH,sS,mask-1.png,mask-1.png,h,1,0.626265400002012,s,1,0.04830339999170974,0.05126040001050569,0.049526399991009384,0.10213340001064353,0.10006830000202172,0.3014096000115387
RSVPLG03,si,20260319-153418,1.0.2,20260219-152011,807,Experiment,Both,1,Automatic,main,54,20260319-153921,local,local,750,S,H,A,A,A-S.png,A-H.png,sS,hH,mask-2.png,mask-2.png,s,1,1.17852899999707,h,1,1.2984066999924835,0.049317500001052395,0.05096529997535981,0.09877219999907538,0.09957629998098128,0.7497655000188388
RSVPLG03,si,20260319-153418,1.0.2,20260219-152011,807,Experiment,Both,1,Automatic,main,55,20260319-153926,global,local,300,H,S,E,A,H-E.png,A-S.png,hH,sS,mask-3.png,mask-3.png,h,1,0.8890450000180863,s,1,0.022912399988854304,0.04941050001070835,0.049267099995631725,0.10019170001032762,0.09900379998725839,0.2998158000118565
RSVPLG03,si,20260319-153418,1.0.2,20260219-152011,807,Experiment,Both,1,Automatic,main,56,20260319-153931,global,global,300,S,H,A,A,S-A.png,H-A.png,sS,hH,mask-4.png,mask-1.png,h,0,0.4894510000012815,s,0,0.06570509998709895,0.04909389998647384,0.0483888000017032,0.0990622999961488,0.09890750001068227,0.30052099999738857
RSVPLG03,si,20260319-153418,1.0.2,20260219-152011,807,Experiment,Both,1,Automatic,main,57,20260319-153935,global,global,750,S,S,E,E,S-E.png,S-E.png,sS,sS,mask-4.png,mask-3.png,s,1,1.0579911999811884,s,1,1.8132332999957725,0.049948299973038957,0.04973050000262447,0.10028939999756403,0.10035890000290237,0.7505147999909241
RSVPLG03,si,20260319-153418,1.0.2,20260219-152011,807,Experiment,Both,1,Automatic,main,58,20260319-153942,global,local,750,S,S,A,E,S-A.png,E-S.png,sS,sS,mask-2.png,mask-4.png,s,1,0.47112910001305863,s,1,0.20956449999357574,0.05135590001009405,0.05134239999460988,0.10086610002326779,0.10035449999850243,0.7507899000192992
RSVPLG03,si,20260319-153418,1.0.2,20260219-152011,807,Experiment,Both,1,Automatic,main,59,20260319-153947,global,local,750,H,H,E,A,H-E.png,A-H.png,hH,hH,mask-2.png,mask-2.png,h,1,0.9917716000054497,h,1,0.1920875000068918,0.04922459999215789,0.05059539998183027,0.10069250001106411,0.09968559999833815,0.7509790000040084
RSVPLG03,si,20260319-153418,1.0.2,20260219-152011,807,Experiment,Both,1,Automatic,main,60,20260319-153952,global,local,750,S,S,A,E,S-A.png,E-S.png,sS,sS,mask-2.png,mask-2.png,s,1,0.3615455999970436,s,1,0.20045860001118854,0.047653699992224574,0.05202629999257624,0.09908200000063516,0.10109419998480007,0.748355099989567
RSVPLG03,si,20260319-153418,1.0.2,20260219-152011,807,Experiment,Both,1,Automatic,main,61,20260319-153957,local,global,750,H,S,A,E,A-H.png,S-E.png,hH,sS,mask-4.png,mask-4.png,h,1,1.4440192000183742,s,1,0.020670600002631545,0.05041729999356903,0.04824249999364838,0.1019557999970857,0.09906830001273192,0.7522059000039008
RSVPLG03,si,20260319-153418,1.0.2,20260219-152011,807,Experiment,Both,1,Automatic,main,62,20260319-154002,global,global,750,S,H,A,A,S-A.png,H-A.png,sS,hH,mask-2.png,mask-1.png,s,1,1.7929060000169557,h,1,0.0042526999895926565,0.049213899997994304,0.05265339999459684,0.09935780000523664,0.10138349997578189,0.7494441000162624
RSVPLG03,si,20260319-153418,1.0.2,20260219-152011,807,Experiment,Both,1,Automatic,main,63,20260319-154008,local,global,750,H,S,A,A,A-H.png,S-A.png,hH,sS,mask-2.png,mask-3.png,h,1,1.4510701000108384,h,0,0.11400159998447634,0.049831400014227256,0.049933600006625056,0.0986152000259608,0.10098270000889897,0.7478887000179384
RSVPLG03,si,20260319-153418,1.0.2,20260219-152011,807,Experiment,Both,1,Automatic,main,64,20260319-154014,local,local,300,H,H,A,A,A-H.png,A-H.png,hH,hH,mask-1.png,mask-1.png,h,1,0.6024992000020575,h,1,0.1045847000204958,0.05116989999078214,0.0514205000072252,0.09993500000564381,0.1015627000015229,0.2998545999871567
RSVPLG03,si,20260319-153418,1.0.2,20260219-152011,807,Experiment,Both,1,Automatic,main,65,20260319-154018,global,global,300,H,S,E,A,H-E.png,S-A.png,hH,sS,mask-1.png,mask-3.png,h,1,4.111027200007811,h,0,0.4494813999917824,0.04933050001272932,0.048763400001917034,0.10042890001204796,0.09911499998997897,0.3005346000136342
RSVPLG03,si,20260319-153418,1.0.2,20260219-152011,807,Experiment,Both,1,Automatic,main,66,20260319-154027,global,local,750,H,S,A,E,H-A.png,E-S.png,hH,sS,mask-3.png,mask-1.png,s,0,0.3764049999881536,h,0,1.0389606000098865,0.04980429998249747,0.04891230000066571,0.09952819999307394,0.10044390000985004,0.750207799981581
RSVPLG03,si,20260319-153418,1.0.2,20260219-152011,807,Experiment,Both,1,Automatic,main,67,20260319-154032,global,local,300,H,S,A,E,H-A.png,E-S.png,hH,sS,mask-4.png,mask-3.png,h,1,0.8530423000047449,s,1,0.06328229999053292,0.050107300019590184,0.04903029999695718,0.10098790001939051,0.09892329998547211,0.30223440000554547
RSVPLG03,si,20260319-153418,1.0.2,20260219-152011,807,Experiment,Both,1,Automatic,main,68,20260319-154037,local,global,300,H,S,A,A,A-H.png,S-A.png,hH,sS,mask-1.png,mask-4.png,h,1,1.9617796999809798,s,1,0.04845480000949465,0.05102899999474175,0.04894310000236146,0.09980409999843687,0.09906649999902584,0.3011335000046529
RSVPLG03,si,20260319-153418,1.0.2,20260219-152011,807,Experiment,Both,1,Automatic,main,69,20260319-154043,local,global,750,S,S,E,E,E-S.png,S-E.png,sS,sS,mask-1.png,mask-4.png,h,0,1.680690599983791,h,0,0.23336740001104772,0.0498780999914743,0.04969310000888072,0.10037000000011176,0.10048710001865402,0.7493679999897722
RSVPLG03,si,20260319-153418,1.0.2,20260219-152011,807,Experiment,Both,1,Automatic,main,70,20260319-154049,local,global,750,H,H,E,A,E-H.png,H-A.png,hH,hH,mask-1.png,mask-4.png,h,1,0.4926817999803461,s,0,0.177601000003051,0.05002160000731237,0.049917399999685585,0.09905499999877065,0.09988620001240633,0.7479541999928188
RSVPLG03,si,20260319-153418,1.0.2,20260219-152011,807,Experiment,Both,1,Automatic,main,71,20260319-154054,global,global,300,H,S,A,E,H-A.png,S-E.png,hH,sS,mask-1.png,mask-2.png,h,1,1.2114505000063218,s,1,0.22528489999240264,0.04970329999923706,0.04867950000334531,0.10061979998135939,0.09863240001141094,0.30093199998373166
RSVPLG03,si,20260319-153418,1.0.2,20260219-152011,807,Experiment,Both,1,Automatic,main,72,20260319-154059,global,local,300,S,S,E,E,S-E.png,E-S.png,sS,sS,mask-3.png,mask-2.png,s,1,1.9019429000036325,s,1,0.1542784000048414,0.050419899984262884,0.049004900007275864,0.09958899999037385,0.09966669999994338,0.30123620000085793
RSVPLG03,si,20260319-153418,1.0.2,20260219-152011,807,Experiment,Both,1,Automatic,main,73,20260319-154104,local,global,750,S,H,E,A,E-S.png,H-A.png,sS,hH,mask-4.png,mask-2.png,s,1,1.4689592999930028,h,1,0.040478299983078614,0.050427299982402474,0.04973739999695681,0.09995629999320954,0.10144490000675432,0.7510079999919981
RSVPLG03,si,20260319-153418,1.0.2,20260219-152011,807,Experiment,Both,1,Automatic,main,74,20260319-154110,local,local,300,H,H,E,A,E-H.png,A-H.png,hH,hH,mask-2.png,mask-3.png,h,1,0.5480814999900758,h,1,0.1819035999942571,0.04982379998546094,0.05006919999141246,0.10068769997451454,0.09947479999391362,0.30054649998783134
RSVPLG03,si,20260319-153418,1.0.2,20260219-152011,807,Experiment,Both,1,Automatic,main,75,20260319-154115,local,local,300,H,H,A,E,A-H.png,E-H.png,hH,hH,mask-2.png,mask-4.png,h,1,0.9708014999923762,s,0,0.07737749998341314,0.05030609999084845,0.049606300017330796,0.10150079999584705,0.09847380002611317,0.30195279998588376
RSVPLG03,si,20260319-153418,1.0.2,20260219-152011,807,Experiment,Both,1,Automatic,main,76,20260319-154127,local,global,300,S,S,A,A,A-S.png,S-A.png,sS,sS,mask-3.png,mask-3.png,s,1,1.3698950000107288,h,0,0.04133370000636205,0.05043830000795424,0.05098550001275726,0.10006040000007488,0.10009400002309121,0.3013378999894485
RSVPLG03,si,20260319-153418,1.0.2,20260219-152011,807,Experiment,Both,1,Automatic,main,77,20260319-154132,local,global,750,H,H,E,A,E-H.png,H-A.png,hH,hH,mask-1.png,mask-4.png,h,1,1.6929903000127524,h,1,0.19916219997685403,0.04767020000144839,0.051335199997993186,0.09797129998332821,0.10121739999158308,0.7478469999914523
RSVPLG03,si,20260319-153418,1.0.2,20260219-152011,807,Experiment,Both,1,Automatic,main,78,20260319-154138,local,local,750,H,H,A,A,A-H.png,A-H.png,hH,hH,mask-4.png,mask-1.png,h,1,0.6678660000034142,h,1,0.17009499997948296,0.05098810000345111,0.04792989999987185,0.09995629999320954,0.0987205000128597,0.7521761999814771
RSVPLG03,si,20260319-153418,1.0.2,20260219-152011,807,Experiment,Both,1,Automatic,main,79,20260319-154143,local,local,750,H,H,E,E,E-H.png,E-H.png,hH,hH,mask-2.png,mask-4.png,h,1,0.4445930999936536,h,1,0.11233319999882951,0.049064199993154034,0.05157350000808947,0.0990178000065498,0.10180500001297332,0.74945810000645
RSVPLG03,si,20260319-153418,1.0.2,20260219-152011,807,Experiment,Both,1,Automatic,main,80,20260319-154148,global,global,300,H,H,E,A,H-E.png,H-A.png,hH,hH,mask-2.png,mask-3.png,h,1,1.1631024999951478,s,0,0.009721999987959862,0.04931390000274405,0.05009639999479987,0.09923670001444407,0.09993469997425564,0.29912910002167337
RSVPLG03,si,20260319-153418,1.0.2,20260219-152011,807,Experiment,Both,1,Automatic,main,81,20260319-154153,local,global,750,S,S,E,E,E-S.png,S-E.png,sS,sS,mask-4.png,mask-4.png,s,1,0.9546996999997646,s,1,0.2933710999786854,0.04974640000727959,0.05182490000152029,0.099555099994177,0.10316089997650124,0.7499814000038896
RSVPLG03,si,20260319-153418,1.0.2,20260219-152011,807,Experiment,Both,1,Automatic,main,82,20260319-154158,global,global,750,H,H,A,A,H-A.png,H-A.png,hH,hH,mask-2.png,mask-2.png,h,1,0.4769906000001356,h,1,0.12760120001621544,0.049855299992486835,0.04958160000387579,0.09911969999666326,0.10047750000376254,0.7494055999850389
RSVPLG03,si,20260319-153418,1.0.2,20260219-152011,807,Experiment,Both,1,Automatic,main,83,20260319-154203,global,global,750,H,H,A,A,H-A.png,H-A.png,hH,hH,mask-1.png,mask-1.png,h,1,1.8051031999930274,h,1,0.1315247000020463,0.04944139998406172,0.051418199989711866,0.09887729998445138,0.10306969998055138,0.7481956999981776
RSVPLG03,si,20260319-153418,1.0.2,20260219-152011,807,Experiment,Both,1,Automatic,main,84,20260319-154209,local,global,750,S,H,E,E,E-S.png,H-E.png,sS,hH,mask-4.png,mask-4.png,s,1,0.48269810000783764,h,1,0.027996699995128438,0.05006090001552366,0.05176729999948293,0.09846740000648424,0.10160369999357499,0.7488144000235479
RSVPLG03,si,20260319-153418,1.0.2,20260219-152011,807,Experiment,Both,1,Automatic,main,85,20260319-154214,local,global,300,S,H,E,E,E-S.png,H-E.png,sS,hH,mask-3.png,mask-2.png,s,1,1.1171899999899324,h,1,0.04976460000034422,0.0488941999792587,0.0502066999906674,0.09890879999147728,0.09946909997961484,0.30059349999646656
RSVPLG03,si,20260319-153418,1.0.2,20260219-152011,807,Experiment,Both,1,Automatic,main,86,20260319-154218,global,global,750,S,H,E,A,S-E.png,H-A.png,sS,hH,mask-3.png,mask-4.png,s,1,0.45983209999394603,h,1,0.5714449000079185,0.04771379998419434,0.050258300005225465,0.09794300000066869,0.0991265999909956,0.7486353999993298
RSVPLG03,si,20260319-153418,1.0.2,20260219-152011,807,Experiment,Both,1,Automatic,main,87,20260319-154224,local,local,750,S,S,E,A,E-S.png,A-S.png,sS,sS,mask-3.png,mask-2.png,h,0,0.4533092000056058,s,1,0.20837750000646338,0.050714500015601516,0.04902730000321753,0.10141630002181046,0.10017439999501221,0.7514810000138823
RSVPLG03,si,20260319-153418,1.0.2,20260219-152011,807,Experiment,Both,1,Automatic,main,88,20260319-154228,global,local,300,S,H,E,A,S-E.png,A-H.png,sS,hH,mask-2.png,mask-4.png,s,1,0.8127431999891996,h,1,0.14056020000134595,0.04886189999524504,0.05034509999677539,0.09916089999023825,0.10051849999581464,0.2999216000025626
RSVPLG03,si,20260319-153418,1.0.2,20260219-152011,807,Experiment,Both,1,Automatic,main,89,20260319-154233,local,local,750,H,H,E,A,E-H.png,A-H.png,hH,hH,mask-2.png,mask-2.png,h,1,0.6629368999856524,h,1,0.16868169998633675,0.05089770001359284,0.04950150000513531,0.10009340001852252,0.09944170000380836,0.7511102000134997
RSVPLG03,si,20260319-153418,1.0.2,20260219-152011,807,Experiment,Both,1,Automatic,main,90,20260319-154238,local,local,750,H,S,E,A,E-H.png,A-S.png,hH,sS,mask-3.png,mask-4.png,h,1,1.2418923000223003,s,1,0.08946699998341501,0.05002470000181347,0.05088620001333766,0.10051860002567992,0.09966669999994338,0.7511065000144299
RSVPLG03,si,20260319-153418,1.0.2,20260219-152011,807,Experiment,Both,1,Automatic,main,91,20260319-154244,local,local,300,S,H,A,E,A-S.png,E-H.png,sS,hH,mask-2.png,mask-2.png,s,1,1.1120943000132684,h,1,0.09377020000829361,0.0492763000074774,0.04985119999037124,0.10112979999394156,0.1005052000109572,0.30082730000140145
RSVPLG03,si,20260319-153418,1.0.2,20260219-152011,807,Experiment,Both,1,Automatic,main,92,20260319-154249,local,local,300,S,S,E,E,E-S.png,E-S.png,sS,sS,mask-1.png,mask-2.png,s,1,0.8440744999970775,s,1,0.18485459999646991,0.04709889998775907,0.05303249999997206,0.09834309999132529,0.10190909999073483,0.29703169999993406
RSVPLG03,si,20260319-153418,1.0.2,20260219-152011,807,Experiment,Both,1,Automatic,main,93,20260319-154253,local,global,750,H,S,E,A,E-H.png,S-A.png,hH,sS,mask-4.png,mask-4.png,h,1,1.1491154999821447,h,0,0.10925320000387728,0.05160609999438748,0.04830899997614324,0.10083529999246821,0.09955289997742511,0.7501415000006091
RSVPLG03,si,20260319-153418,1.0.2,20260219-152011,807,Experiment,Both,1,Automatic,main,94,20260319-154259,global,global,750,S,S,E,E,S-E.png,S-E.png,sS,sS,mask-4.png,mask-1.png,s,1,0.6796835999994073,s,1,0.09830939999665134,0.051505899988114834,0.050511399982497096,0.09922760000335984,0.0994217999977991,0.7514789999986533
RSVPLG03,si,20260319-153418,1.0.2,20260219-152011,807,Experiment,Both,1,Automatic,main,95,20260319-154304,local,local,750,H,H,E,A,E-H.png,A-H.png,hH,hH,mask-2.png,mask-1.png,h,1,0.41378390000318177,h,1,0.13525730001856573,0.048775300005218014,0.04932739998912439,0.09887459999299608,0.09976889999234118,0.7503104000061285
RSVPLG03,si,20260319-153418,1.0.2,20260219-152011,807,Experiment,Both,1,Automatic,main,96,20260319-154308,local,local,300,S,H,A,E,A-S.png,E-H.png,sS,hH,mask-3.png,mask-4.png,s,1,0.6937097999907564,h,1,0.21771739999530837,0.05064989998936653,0.050261099997442216,0.10010260000126436,0.0990892999980133,0.2999278999923263
RSVPLG03,si,20260319-153418,1.0.2,20260219-152011,807,Experiment,Both,1,Automatic,main,97,20260319-154313,global,local,300,S,S,E,A,S-E.png,A-S.png,sS,sS,mask-1.png,mask-4.png,s,1,0.9694714000215754,s,1,0.1550050999794621,0.05135670001618564,0.0495095000078436,0.09995050000725314,0.10102400000323541,0.29986090000602417
RSVPLG03,si,20260319-153418,1.0.2,20260219-152011,807,Experiment,Both,1,Automatic,main,98,20260319-154318,local,global,300,S,S,A,E,A-S.png,S-E.png,sS,sS,mask-3.png,mask-4.png,s,1,1.4189997000212315,h,0,0.08126040000934154,0.04998779998277314,0.04923050000797957,0.09957349998876452,0.10059439999167807,0.29911039999569766
RSVPLG03,si,20260319-153418,1.0.2,20260219-152011,807,Experiment,Both,1,Automatic,main,99,20260319-154323,global,global,300,H,S,A,E,H-A.png,S-E.png,hH,sS,mask-1.png,mask-3.png,h,1,1.4568323999992572,s,1,0.017653599992627278,0.050434600008884445,0.05183829998713918,0.10349280000082217,0.09937459998764098,0.30024690000573173
RSVPLG03,si,20260319-153418,1.0.2,20260219-152011,807,Experiment,Both,1,Automatic,main,100,20260319-154328,local,global,300,H,H,A,A,A-H.png,H-A.png,hH,hH,mask-4.png,mask-3.png,s,0,2.2005159000109416,h,1,-7.070001447573304e-05,0.05220919998828322,0.05083870000089519,0.10045219998573884,0.09920970001257956,0.30109339999035
