exp,exp_initials,runtime,ver,modtime,sub,blocktype,targets,cuetype,mode,trialtype,trial,trialtime,t1_level,t2_level,t2_lag,t1,t2,distractor1,distractor2,stimfile1,stimfile2,t1_corr,t2_corr,maskfile1,maskfile2,t1_resp,t1_acc,t1_rt,t2_resp,t2_acc,t2_rt,t1_dur,t2_dur,t1mask_soa,t2mask_soa,t1t2_soa
RSVPLG03,sg,20251028-131539,1.0.1,20251020-085245,721,Introduction,T1,1,Automatic,main,1,20251028-131611,global,global,750,S,H,A,A,S-A.png,H-A.png,sS,hH,mask-3.png,mask-4.png,s,1,2.3083741000154987,none,-5,0,0.09012609999626875,0.09670749993529171,0.19298490008804947,0.19973249989561737,0.7432537000859156
RSVPLG03,sg,20251028-131539,1.0.1,20251020-085245,721,Introduction,T1,1,Automatic,main,2,20251028-131617,global,local,750,H,S,E,A,H-E.png,A-S.png,hH,sS,mask-4.png,mask-2.png,h,1,0.7990107000805438,none,-5,0,0.09697750001214445,0.09840730007272214,0.19984869996551424,0.20036520005669445,0.7490174999693409
RSVPLG03,sg,20251028-131539,1.0.1,20251020-085245,721,Introduction,T1,1,Automatic,main,3,20251028-131622,global,local,750,H,H,A,A,H-A.png,A-H.png,hH,hH,mask-3.png,mask-3.png,h,1,1.6255998000269756,none,-5,0,0.09745150001253933,0.09837239992339164,0.19932020001579076,0.20029649999924004,0.7487964000320062
RSVPLG03,sg,20251028-131539,1.0.1,20251020-085245,721,Introduction,T1,1,Automatic,main,4,20251028-131628,global,global,750,S,S,E,E,S-E.png,S-E.png,sS,sS,mask-2.png,mask-1.png,s,1,1.2230607999954373,none,-5,0,0.09756819996982813,0.09860739996656775,0.1983606000430882,0.20191870001144707,0.7485487000085413
RSVPLG03,sg,20251028-131539,1.0.1,20251020-085245,721,Introduction,T1,1,Automatic,main,5,20251028-131634,local,local,750,S,S,A,A,A-S.png,A-S.png,sS,sS,mask-2.png,mask-1.png,h,0,1.4122171000344679,none,-5,0,0.09751890006009489,0.0975482000503689,0.20016260002739727,0.19861110008787364,0.751556699979119
RSVPLG03,sg,20251028-131539,1.0.1,20251020-085245,721,Introduction,T1,1,Automatic,main,6,20251028-131639,global,local,750,S,H,A,A,S-A.png,A-H.png,sS,hH,mask-2.png,mask-4.png,s,1,0.6125448000384495,none,-5,0,0.09722320002038032,0.09734909993130714,0.199947000015527,0.20020119997207075,0.7506773000350222
RSVPLG03,sg,20251028-131539,1.0.1,20251020-085245,721,Introduction,T1,1,Automatic,main,7,20251028-131644,local,local,750,S,H,A,A,A-S.png,A-H.png,sS,hH,mask-4.png,mask-2.png,s,1,0.6660374000202864,none,-5,0,0.09752209996804595,0.09791110001970083,0.19932460004929453,0.2008720999583602,0.74892829998862
RSVPLG03,sg,20251028-131539,1.0.1,20251020-085245,721,Introduction,T1,1,Automatic,main,8,20251028-131649,global,global,750,H,H,A,A,H-A.png,H-A.png,hH,hH,mask-2.png,mask-2.png,h,1,0.43532749998848885,none,-5,0,0.09756719996221364,0.09759849996771663,0.19861660001333803,0.1986583999823779,0.7502216999419034
RSVPLG03,sg,20251028-131539,1.0.1,20251020-085245,721,Introduction,T1,1,Automatic,main,9,20251028-131654,global,local,750,H,S,E,E,H-E.png,E-S.png,hH,sS,mask-4.png,mask-1.png,h,1,0.6944531000917777,none,-5,0,0.09758830000646412,0.0976964000146836,0.20064469997305423,0.20089779992122203,0.7500062000472099
RSVPLG03,sg,20251028-131539,1.0.1,20251020-085245,721,Introduction,T1,1,Automatic,main,10,20251028-131658,local,local,750,S,H,A,E,A-S.png,E-H.png,sS,hH,mask-3.png,mask-4.png,s,1,0.4150823999661952,none,-5,0,0.09737169998697937,0.09848829999100417,0.1984392999438569,0.20167900004889816,0.7485737999668345
RSVPLG03,sg,20251028-131539,1.0.1,20251020-085245,721,Introduction,T1,1,Automatic,main,11,20251028-131703,global,global,750,S,S,E,A,S-E.png,S-A.png,sS,sS,mask-1.png,mask-4.png,s,1,0.28176600008737296,none,-5,0,0.09754520002752542,0.09865270007867366,0.19982730003539473,0.200718600070104,0.7492812999989837
RSVPLG03,sg,20251028-131539,1.0.1,20251020-085245,721,Introduction,T1,1,Automatic,main,12,20251028-131708,local,global,750,S,S,A,A,A-S.png,S-A.png,sS,sS,mask-2.png,mask-4.png,s,1,0.3597219999646768,none,-5,0,0.09757350001018494,0.09756190003827214,0.19964990008156747,0.19982620002701879,0.7496492000063881
RSVPLG03,sg,20251028-131539,1.0.1,20251020-085245,721,Introduction,T1,1,Automatic,main,13,20251028-131712,local,global,750,H,H,E,E,E-H.png,H-E.png,hH,hH,mask-2.png,mask-1.png,h,1,0.3275094999698922,none,-5,0,0.09752489998936653,0.0975795000558719,0.19849870004691184,0.19971549999900162,0.7497507999651134
RSVPLG03,sg,20251028-131539,1.0.1,20251020-085245,721,Introduction,T1,1,Automatic,main,14,20251028-131717,local,local,750,H,S,E,A,E-H.png,A-S.png,hH,sS,mask-4.png,mask-3.png,h,1,0.34792700002435595,none,-5,0,0.09753559995442629,0.09754760004580021,0.1995743999723345,0.1997986000496894,0.7500098999589682
RSVPLG03,sg,20251028-131539,1.0.1,20251020-085245,721,Introduction,T1,1,Automatic,main,15,20251028-131721,local,global,750,H,S,A,A,A-H.png,S-A.png,hH,sS,mask-3.png,mask-2.png,h,1,0.6035853000357747,none,-5,0,0.09856690000742674,0.09765429992694408,0.2006747000850737,0.19983329996466637,0.7506518000736833
RSVPLG03,sg,20251028-131539,1.0.1,20251020-085245,721,Introduction,T1,1,Automatic,main,16,20251028-131726,local,global,750,H,H,E,E,E-H.png,H-E.png,hH,hH,mask-3.png,mask-2.png,h,1,0.3755234000273049,none,-5,0,0.09678739996161312,0.0975215999642387,0.20003069995436817,0.20054119999986142,0.750339400023222
RSVPLG03,sg,20251028-131746,1.0.1,20251020-085245,721,Practice,T1,1,Automatic,main,1,20251028-131805,global,local,750,H,S,A,E,H-A.png,E-S.png,hH,sS,mask-4.png,mask-1.png,h,1,0.9250482000643387,none,-5,0,0.04011099995113909,0.04778470005840063,0.09321049996651709,0.1010225999634713,0.741065299953334
RSVPLG03,sg,20251028-131746,1.0.1,20251020-085245,721,Practice,T1,1,Automatic,main,2,20251028-131810,local,global,750,H,H,E,A,E-H.png,H-A.png,hH,hH,mask-4.png,mask-3.png,h,1,0.4642152999294922,none,-5,0,0.04770130000542849,0.047656800015829504,0.09889549994841218,0.09996769996359944,0.7480601000133902
RSVPLG03,sg,20251028-131746,1.0.1,20251020-085245,721,Practice,T1,1,Automatic,main,3,20251028-131814,global,global,300,S,S,A,E,S-A.png,S-E.png,sS,sS,mask-4.png,mask-4.png,s,1,0.5149460000684485,none,-5,0,0.04774890001863241,0.047798699932172894,0.10005260002799332,0.09999559994321316,0.29929430002812296
RSVPLG03,sg,20251028-131746,1.0.1,20251020-085245,721,Practice,T1,1,Automatic,main,4,20251028-131818,global,local,300,S,S,E,E,S-E.png,E-S.png,sS,sS,mask-3.png,mask-2.png,s,1,0.499252500012517,none,-5,0,0.04873579996638,0.04755979997571558,0.09940800000913441,0.09892180003225803,0.3007025000406429
RSVPLG03,sg,20251028-131746,1.0.1,20251020-085245,721,Practice,T1,1,Automatic,main,5,20251028-131823,local,local,750,S,S,E,E,E-S.png,E-S.png,sS,sS,mask-1.png,mask-1.png,s,1,0.417669799993746,none,-5,0,0.048587099998258054,0.04754319996573031,0.10156340000685304,0.0995998999569565,0.7500269999727607
RSVPLG03,sg,20251028-131746,1.0.1,20251020-085245,721,Practice,T1,1,Automatic,main,6,20251028-131827,local,global,300,S,H,E,E,E-S.png,H-E.png,sS,hH,mask-2.png,mask-1.png,s,1,0.3780857000965625,none,-5,0,0.04771479999180883,0.04755110002588481,0.09993050002958626,0.09884980006609112,0.29979029996320605
RSVPLG03,sg,20251028-131746,1.0.1,20251020-085245,721,Practice,T1,1,Automatic,main,7,20251028-131831,local,global,300,H,H,E,A,E-H.png,H-A.png,hH,hH,mask-1.png,mask-4.png,h,1,0.3284031000221148,none,-5,0,0.04771700000856072,0.048147700028494,0.10087189998012036,0.1003473000600934,0.2998354999581352
RSVPLG03,sg,20251028-131746,1.0.1,20251020-085245,721,Practice,T1,1,Automatic,main,8,20251028-131835,global,global,300,S,H,E,A,S-E.png,H-A.png,sS,hH,mask-1.png,mask-2.png,s,1,0.3175847999518737,none,-5,0,0.04764740006066859,0.048689200077205896,0.10086550004780293,0.09995910001453012,0.2994285000022501
RSVPLG03,sg,20251028-131746,1.0.1,20251020-085245,721,Practice,T1,1,Automatic,main,9,20251028-131839,global,local,750,S,S,A,A,S-A.png,A-S.png,sS,sS,mask-1.png,mask-3.png,s,1,0.6081943999743089,none,-5,0,0.04880369990132749,0.049250699928961694,0.10085139994043857,0.10045319993514568,0.7489451000001281
RSVPLG03,sg,20251028-131746,1.0.1,20251020-085245,721,Practice,T1,1,Automatic,main,10,20251028-131843,local,local,300,S,S,A,A,A-S.png,A-S.png,sS,sS,mask-4.png,mask-1.png,s,1,0.35486079996917397,none,-5,0,0.04767560004256666,0.047680099960416555,0.09985890006646514,0.09974309999961406,0.29915890004485846
RSVPLG03,sg,20251028-131746,1.0.1,20251020-085245,721,Practice,T1,1,Automatic,main,11,20251028-131847,global,global,750,H,S,A,E,H-A.png,S-E.png,hH,sS,mask-3.png,mask-2.png,h,1,0.6394714000634849,none,-5,0,0.04839999997057021,0.047920400043949485,0.09917010006029159,0.10089320002589375,0.7495062999660149
RSVPLG03,sg,20251028-131746,1.0.1,20251020-085245,721,Practice,T1,1,Automatic,main,12,20251028-131852,local,global,750,S,H,A,A,A-S.png,H-A.png,sS,hH,mask-2.png,mask-2.png,s,1,0.3765716999769211,none,-5,0,0.04649570002220571,0.04599579994101077,0.09925720002502203,0.09832019999157637,0.7504661000566557
RSVPLG03,sg,20251028-131746,1.0.1,20251020-085245,721,Practice,T1,1,Automatic,main,13,20251028-131857,local,local,300,H,H,A,E,A-H.png,E-H.png,hH,hH,mask-1.png,mask-3.png,h,1,0.5603458000114188,none,-5,0,0.04742870002519339,0.046719000092707574,0.09843140002340078,0.09885660000145435,0.2994325999170542
RSVPLG03,sg,20251028-131746,1.0.1,20251020-085245,721,Practice,T1,1,Automatic,main,14,20251028-131901,local,local,750,S,H,A,E,A-S.png,E-H.png,sS,hH,mask-3.png,mask-2.png,s,1,0.37292610004078597,none,-5,0,0.04778010002337396,0.04771459999028593,0.10001920000649989,0.10091370006557554,0.7494770999765024
RSVPLG03,sg,20251028-131746,1.0.1,20251020-085245,721,Practice,T1,1,Automatic,main,15,20251028-131905,global,global,750,H,S,E,E,H-E.png,S-E.png,hH,sS,mask-1.png,mask-4.png,h,1,0.4509183999616653,none,-5,0,0.046678299899213016,0.04840420000255108,0.09887149999849498,0.1001680000917986,0.7482310999184847
RSVPLG03,sg,20251028-131746,1.0.1,20251020-085245,721,Practice,T1,1,Automatic,main,16,20251028-131910,global,local,300,H,S,A,E,H-A.png,E-S.png,hH,sS,mask-1.png,mask-3.png,h,1,0.43204800004605204,none,-5,0,0.04715250001754612,0.04790489992592484,0.1005940999602899,0.0985389999113977,0.3003782000159845
RSVPLG03,sg,20251028-132025,1.0.1,20251020-085245,721,Introduction,Both,1,Automatic,main,1,20251028-132047,global,local,750,S,H,E,A,S-E.png,A-H.png,sS,hH,mask-2.png,mask-4.png,s,1,0.8099877999629825,h,1,0.6471176999621093,0.09809200000017881,0.09901730006095022,0.20106220000889152,0.20141169999260455,0.7492591999471188
RSVPLG03,sg,20251028-132025,1.0.1,20251020-085245,721,Introduction,Both,1,Automatic,main,2,20251028-132052,local,local,750,H,H,E,A,E-H.png,A-H.png,hH,hH,mask-3.png,mask-1.png,h,1,0.9972105999477208,h,1,0.5788959000492468,0.09675000002607703,0.09754260000772774,0.19996799994260073,0.19960910000372678,0.7500119999749586
RSVPLG03,sg,20251028-132025,1.0.1,20251020-085245,721,Introduction,Both,1,Automatic,main,3,20251028-132058,local,local,750,H,S,A,E,A-H.png,E-S.png,hH,sS,mask-2.png,mask-4.png,h,1,1.1075695999898016,s,1,0.522169700008817,0.09758289996534586,0.09550940000917763,0.20165029994677752,0.19803590001538396,0.75177409988828
RSVPLG03,sg,20251028-132025,1.0.1,20251020-085245,721,Introduction,Both,1,Automatic,main,4,20251028-132104,global,local,750,S,H,A,A,S-A.png,A-H.png,sS,hH,mask-4.png,mask-2.png,s,1,1.0332610999466851,h,1,0.4640201000729576,0.09711049997713417,0.09739979996811599,0.20030629995744675,0.19836089992895722,0.7507657000096515
RSVPLG03,sg,20251028-132025,1.0.1,20251020-085245,721,Introduction,Both,1,Automatic,main,5,20251028-132110,global,global,750,S,S,A,A,S-A.png,S-A.png,sS,sS,mask-3.png,mask-2.png,s,1,0.4179129000985995,s,1,0.4256602000677958,0.09938469994813204,0.09846659994218498,0.20027879998087883,0.19935170002281666,0.7507639999967068
RSVPLG03,sg,20251028-132025,1.0.1,20251020-085245,721,Introduction,Both,1,Automatic,main,6,20251028-132116,global,global,750,S,S,A,A,S-A.png,S-A.png,sS,sS,mask-2.png,mask-1.png,h,0,3.9707060999935493,s,1,0.36284419998992234,0.09871220006607473,0.09720239997841418,0.20092750003095716,0.19905830000061542,0.7502981000579894
RSVPLG03,sg,20251028-132025,1.0.1,20251020-085245,721,Introduction,Both,1,Automatic,main,7,20251028-132124,local,local,750,S,S,A,E,A-S.png,E-S.png,sS,sS,mask-3.png,mask-2.png,h,0,1.3389714000513777,s,1,0.15098469995427877,0.09756610007025301,0.09556239994708449,0.19967410003300756,0.198633800027892,0.7499899000395089
RSVPLG03,sg,20251028-132025,1.0.1,20251020-085245,721,Introduction,Both,1,Automatic,main,8,20251028-132130,local,global,750,H,H,E,E,E-H.png,H-E.png,hH,hH,mask-1.png,mask-3.png,h,1,0.9016135999700055,h,1,0.47292840003501624,0.09755370009224862,0.09742030000779778,0.2006383000407368,0.19958929996937513,0.7502349000424147
RSVPLG03,sg,20251028-132025,1.0.1,20251020-085245,721,Introduction,Both,1,Automatic,main,9,20251028-132136,local,global,750,S,S,A,A,A-S.png,S-A.png,sS,sS,mask-4.png,mask-3.png,s,1,0.5083896999713033,s,1,0.2755190000170842,0.09716349991504103,0.0973042999394238,0.20002069999463856,0.20001299993600696,0.7498316999990493
RSVPLG03,sg,20251028-132025,1.0.1,20251020-085245,721,Introduction,Both,1,Automatic,main,10,20251028-132141,global,local,750,S,H,A,A,S-A.png,A-H.png,sS,hH,mask-3.png,mask-3.png,s,1,0.8185884999111295,h,1,0.3269736000802368,0.09758739999961108,0.09888500010129064,0.20031660003587604,0.20172350003849715,0.7484313999302685
RSVPLG03,sg,20251028-132025,1.0.1,20251020-085245,721,Introduction,Both,1,Automatic,main,11,20251028-132147,local,global,750,S,H,E,A,E-S.png,H-A.png,sS,hH,mask-2.png,mask-2.png,s,1,0.5703906998969615,h,1,0.3810323999496177,0.09739459992852062,0.09753719996660948,0.20001659996341914,0.1997294999891892,0.7490478999679908
RSVPLG03,sg,20251028-132025,1.0.1,20251020-085245,721,Introduction,Both,1,Automatic,main,12,20251028-132152,local,local,750,S,S,A,A,A-S.png,A-S.png,sS,sS,mask-2.png,mask-1.png,s,1,0.4549295000033453,s,1,1.0684331000084057,0.09758020006120205,0.0959463999606669,0.1986082000657916,0.19987799995578825,0.750436200061813
RSVPLG03,sg,20251028-132025,1.0.1,20251020-085245,721,Introduction,Both,1,Automatic,main,13,20251028-132158,global,global,750,S,S,E,A,S-E.png,S-A.png,sS,sS,mask-3.png,mask-3.png,s,1,0.50552779994905,s,1,0.365581399993971,0.09719210001640022,0.09549500001594424,0.20027809997554868,0.1990037999348715,0.7511937000090256
RSVPLG03,sg,20251028-132025,1.0.1,20251020-085245,721,Introduction,Both,1,Automatic,main,14,20251028-132203,local,global,750,S,H,E,E,E-S.png,H-E.png,sS,hH,mask-3.png,mask-1.png,s,1,0.691882900078781,h,1,0.31041160004679114,0.09700539999175817,0.0964244999922812,0.19989419996272773,0.2000357999932021,0.7495370999677107
RSVPLG03,sg,20251028-132025,1.0.1,20251020-085245,721,Introduction,Both,1,Automatic,main,15,20251028-132209,global,local,750,S,S,A,A,S-A.png,A-S.png,sS,sS,mask-1.png,mask-4.png,s,1,1.1526528999675065,h,0,1.5616671000607312,0.09700629999861121,0.09643650008365512,0.19975380005780607,0.200271200039424,0.7493263999931514
RSVPLG03,sg,20251028-132025,1.0.1,20251020-085245,721,Introduction,Both,1,Automatic,main,16,20251028-132216,global,global,750,S,S,E,A,S-E.png,S-A.png,sS,sS,mask-1.png,mask-2.png,s,1,0.45134579995647073,s,1,0.3610740000149235,0.09845920000225306,0.09946380008477718,0.19946080003865063,0.201682300074026,0.749645399977453
RSVPLG03,sg,20251028-132237,1.0.1,20251020-085245,721,Practice,Both,1,Automatic,main,1,20251028-132319,local,local,750,H,H,A,A,A-H.png,A-H.png,hH,hH,mask-1.png,mask-4.png,h,1,0.7436589000280946,h,1,0.14985690009780228,0.04005770001094788,0.04765089997090399,0.0927019000519067,0.09990929998457432,0.7441642000339925
RSVPLG03,sg,20251028-132237,1.0.1,20251020-085245,721,Practice,Both,1,Automatic,main,2,20251028-132324,global,global,750,H,H,A,A,H-A.png,H-A.png,hH,hH,mask-2.png,mask-3.png,h,1,0.8261219999985769,h,1,0.24543439992703497,0.046625199960544705,0.04823089996352792,0.09950220002792776,0.0989123999606818,0.7511751999845728
RSVPLG03,sg,20251028-132237,1.0.1,20251020-085245,721,Practice,Both,1,Automatic,main,3,20251028-132330,global,local,300,S,H,E,E,S-E.png,E-H.png,sS,hH,mask-3.png,mask-2.png,h,0,0.7443629000335932,s,0,0.2469039000570774,0.04707690002396703,0.04692400002386421,0.10157190007157624,0.099918800056912,0.301674299989827
RSVPLG03,sg,20251028-132237,1.0.1,20251020-085245,721,Practice,Both,1,Automatic,main,4,20251028-132334,local,global,750,S,S,A,A,A-S.png,S-A.png,sS,sS,mask-1.png,mask-4.png,s,1,1.6436820999952033,s,1,0.3395964000374079,0.046496400027535856,0.046383799985051155,0.09871769999153912,0.09912189992610365,0.7513761000009254
RSVPLG03,sg,20251028-132237,1.0.1,20251020-085245,721,Practice,Both,1,Automatic,main,5,20251028-132341,global,local,750,S,H,E,A,S-E.png,A-H.png,sS,hH,mask-3.png,mask-3.png,s,1,1.061966500012204,h,1,0.2421866999939084,0.047725999960675836,0.04681840003468096,0.0999480999307707,0.10007759998552501,0.7525772999506444
RSVPLG03,sg,20251028-132237,1.0.1,20251020-085245,721,Practice,Both,1,Automatic,main,6,20251028-132346,global,local,300,H,S,E,E,H-E.png,E-S.png,hH,sS,mask-1.png,mask-4.png,h,1,0.7670407999539748,s,1,0.12436829996295273,0.04770190000999719,0.04663700005039573,0.10095790005289018,0.09975930000655353,0.30165579996537417
RSVPLG03,sg,20251028-132237,1.0.1,20251020-085245,721,Practice,Both,1,Automatic,main,7,20251028-132351,local,global,300,S,H,A,E,A-S.png,H-E.png,sS,hH,mask-1.png,mask-2.png,s,1,1.175753299961798,h,1,0.08456950006075203,0.045842799940146506,0.047540799947455525,0.09915339993312955,0.100475599989295,0.29955080000218004
RSVPLG03,sg,20251028-132237,1.0.1,20251020-085245,721,Practice,Both,1,Automatic,main,8,20251028-132356,global,global,300,S,H,A,E,S-A.png,H-E.png,sS,hH,mask-1.png,mask-3.png,s,1,0.6208279000129551,h,1,0.17043739999644458,0.04812980000860989,0.0477194000268355,0.099880599998869,0.0999190000584349,0.29954799998085946
RSVPLG03,sg,20251028-132237,1.0.1,20251020-085245,721,Practice,Both,1,Automatic,main,9,20251028-132401,local,global,300,H,S,E,E,E-H.png,S-E.png,hH,sS,mask-1.png,mask-1.png,h,1,0.7409815000137314,s,1,0.176900599966757,0.047715599997900426,0.04673260007984936,0.10110939992591739,0.09999500005505979,0.3015891999239102
RSVPLG03,sg,20251028-132237,1.0.1,20251020-085245,721,Practice,Both,1,Automatic,main,10,20251028-132405,global,global,300,H,H,E,E,H-E.png,H-E.png,hH,hH,mask-2.png,mask-3.png,h,1,0.6254826999502257,h,1,0.26500040001701564,0.049130399944260716,0.04739260009955615,0.10217129997909069,0.09938880009576678,0.30261749995406717
RSVPLG03,sg,20251028-132237,1.0.1,20251020-085245,721,Practice,Both,1,Automatic,main,11,20251028-132410,local,local,300,H,H,E,A,E-H.png,A-H.png,hH,hH,mask-3.png,mask-2.png,s,0,2.3214645999250934,h,1,0.17092910001520067,0.04666630004066974,0.047502700006589293,0.09938819997478276,0.10049960005562752,0.3001082999398932
RSVPLG03,sg,20251028-132237,1.0.1,20251020-085245,721,Practice,Both,1,Automatic,main,12,20251028-132416,local,local,300,H,H,E,E,E-H.png,E-H.png,hH,hH,mask-2.png,mask-4.png,h,1,0.6422276999801397,s,0,0.37975389999337494,0.04749669996090233,0.04847699997480959,0.10053249995689839,0.10033729998394847,0.29936519998591393
RSVPLG03,sg,20251028-132237,1.0.1,20251020-085245,721,Practice,Both,1,Automatic,main,13,20251028-132421,local,global,750,S,H,A,E,A-S.png,H-E.png,sS,hH,mask-1.png,mask-1.png,h,0,0.6920888000167906,h,1,0.2195547999581322,0.04752430005464703,0.04752799996640533,0.09950959996785969,0.09957620000932366,0.751789000001736
RSVPLG03,sg,20251028-132237,1.0.1,20251020-085245,721,Practice,Both,1,Automatic,main,14,20251028-132426,global,global,750,S,H,A,A,S-A.png,H-A.png,sS,hH,mask-4.png,mask-3.png,s,1,0.5570185999386013,h,1,0.27725429995916784,0.04750869993586093,0.04751229996327311,0.1006247999612242,0.10054060001857579,0.7518177999882028
RSVPLG03,sg,20251028-132237,1.0.1,20251020-085245,721,Practice,Both,1,Automatic,main,15,20251028-132431,global,local,750,S,S,E,A,S-E.png,A-S.png,sS,sS,mask-3.png,mask-4.png,s,1,0.5440181000158191,h,0,0.28353429993148893,0.047573299962095916,0.04735979996621609,0.1014506999636069,0.10041449998971075,0.7518724999390543
RSVPLG03,sg,20251028-132237,1.0.1,20251020-085245,721,Practice,Both,1,Automatic,main,16,20251028-132436,local,local,750,H,H,E,E,E-H.png,E-H.png,hH,hH,mask-4.png,mask-1.png,h,1,0.8518386000068858,h,1,0.8227761999005452,0.04761260002851486,0.04780160007067025,0.09884210000745952,0.10085010004695505,0.7503830000059679
RSVPLG03,sg,20251028-132638,1.0.1,20251020-085245,721,Experiment,Both,1,Automatic,warmup,1,20251028-132659,local,global,750,S,S,E,E,E-S.png,S-E.png,sS,sS,mask-3.png,mask-4.png,s,1,0.6489705999847502,h,0,0.2786183001007885,0.04006659996230155,0.0474709999980405,0.09307780000381172,0.10145479999482632,0.7438850000035018
RSVPLG03,sg,20251028-132638,1.0.1,20251020-085245,721,Experiment,Both,1,Automatic,warmup,2,20251028-132704,local,local,300,S,S,A,A,A-S.png,A-S.png,sS,sS,mask-3.png,mask-1.png,s,1,0.7841934999451041,h,0,0.4522430000361055,0.04857119999360293,0.04762060008943081,0.10065239993855357,0.10068500007037073,0.30028789991047233
RSVPLG03,sg,20251028-132638,1.0.1,20251020-085245,721,Experiment,Both,1,Automatic,warmup,3,20251028-132709,local,local,750,S,S,E,A,E-S.png,A-S.png,sS,sS,mask-2.png,mask-2.png,s,1,0.8351397999795154,h,0,0.30993350001517683,0.04755390004720539,0.04687449999619275,0.09855900006368756,0.0998185999924317,0.7497811000794172
RSVPLG03,sg,20251028-132638,1.0.1,20251020-085245,721,Experiment,Both,1,Automatic,warmup,4,20251028-132714,global,global,300,H,H,A,E,H-A.png,H-E.png,hH,hH,mask-4.png,mask-1.png,h,1,0.6608644999796525,h,1,0.2135509999934584,0.04749100003391504,0.04559650004375726,0.09962290001567453,0.09824089996982366,0.29999089997727424
RSVPLG03,sg,20251028-132638,1.0.1,20251020-085245,721,Experiment,Both,1,Automatic,warmup,5,20251028-132719,local,global,300,H,S,A,A,A-H.png,S-A.png,hH,sS,mask-2.png,mask-3.png,h,1,0.6289070000639185,s,1,0.1408862000098452,0.04990950005594641,0.046875700005330145,0.10084270010702312,0.10069290001410991,0.3009895000141114
RSVPLG03,sg,20251028-132638,1.0.1,20251020-085245,721,Experiment,Both,1,Automatic,main,6,20251028-132724,global,global,300,S,S,E,E,S-E.png,S-E.png,sS,sS,mask-1.png,mask-3.png,s,1,0.8958833999931812,s,1,0.5876151999691501,0.04639369994401932,0.04734050005208701,0.09970369993243366,0.0990130000282079,0.30012549995444715
RSVPLG03,sg,20251028-132638,1.0.1,20251020-085245,721,Experiment,Both,1,Automatic,main,7,20251028-132729,global,local,750,S,S,A,E,S-A.png,E-S.png,sS,sS,mask-4.png,mask-1.png,s,1,0.5431984000606462,s,1,0.3275397999677807,0.047511099954135716,0.048828499973751605,0.09952009993139654,0.10083310003392398,0.7486635999521241
RSVPLG03,sg,20251028-132638,1.0.1,20251020-085245,721,Experiment,Both,1,Automatic,main,8,20251028-132734,local,global,300,H,H,A,A,A-H.png,H-A.png,hH,hH,mask-4.png,mask-3.png,h,1,0.650511399959214,h,1,0.23330090008676052,0.04856489994563162,0.04749989998526871,0.10056529997382313,0.10050359996967018,0.30078799999319017
RSVPLG03,sg,20251028-132638,1.0.1,20251020-085245,721,Experiment,Both,1,Automatic,main,9,20251028-132739,local,local,300,S,S,E,A,E-S.png,A-S.png,sS,sS,mask-2.png,mask-3.png,s,1,0.7794114999705926,h,0,0.17084029992111027,0.0472480000462383,0.046641699969768524,0.0993904999922961,0.09879620000720024,0.30004170001484454
RSVPLG03,sg,20251028-132638,1.0.1,20251020-085245,721,Experiment,Both,1,Automatic,main,10,20251028-132743,local,global,300,S,S,E,A,E-S.png,S-A.png,sS,sS,mask-2.png,mask-3.png,s,1,0.6518904000986367,h,0,0.36903109995182604,0.04755449993535876,0.047536500031128526,0.10063070000614971,0.10056459996849298,0.2999781999969855
RSVPLG03,sg,20251028-132638,1.0.1,20251020-085245,721,Experiment,Both,1,Automatic,main,11,20251028-132748,global,local,750,S,S,E,A,S-E.png,A-S.png,sS,sS,mask-2.png,mask-4.png,h,0,0.6502639000536874,h,0,0.15860570000950247,0.047612000023946166,0.04760249995160848,0.10026860004290938,0.09959939995314926,0.7510624000569806
RSVPLG03,sg,20251028-132638,1.0.1,20251020-085245,721,Experiment,Both,1,Automatic,main,12,20251028-132753,local,global,750,S,S,E,E,E-S.png,S-E.png,sS,sS,mask-2.png,mask-2.png,s,1,0.6848053999710828,s,1,0.1833924000384286,0.04778810008428991,0.04577229998540133,0.09986850002314895,0.100037100026384,0.7506474000401795
RSVPLG03,sg,20251028-132638,1.0.1,20251020-085245,721,Experiment,Both,1,Automatic,main,13,20251028-132758,local,local,300,S,S,E,A,E-S.png,A-S.png,sS,sS,mask-1.png,mask-1.png,s,1,0.5918595000403002,h,0,0.13818640005774796,0.047669699997641146,0.047657999908551574,0.1018671999918297,0.10188469989225268,0.3000646000728011
RSVPLG03,sg,20251028-132638,1.0.1,20251020-085245,721,Experiment,Both,1,Automatic,main,14,20251028-132803,global,local,300,S,H,E,A,S-E.png,A-H.png,sS,hH,mask-4.png,mask-2.png,s,1,0.7756350999698043,h,1,0.1611652000574395,0.04666719993110746,0.04872069996781647,0.09854939999058843,0.09990059991832823,0.2993185999803245
RSVPLG03,sg,20251028-132638,1.0.1,20251020-085245,721,Experiment,Both,1,Automatic,main,15,20251028-132808,local,local,300,H,S,E,E,E-H.png,E-S.png,hH,sS,mask-4.png,mask-4.png,h,1,0.610142899909988,s,1,0.08867590001318604,0.04774149996228516,0.04671210004016757,0.09896009997464716,0.09995410009287298,0.3004292999394238
RSVPLG03,sg,20251028-132638,1.0.1,20251020-085245,721,Experiment,Both,1,Automatic,main,16,20251028-132812,local,global,750,H,S,A,A,A-H.png,S-A.png,hH,sS,mask-4.png,mask-3.png,h,1,0.6386261999141425,s,1,0.0802659000037238,0.04679529997520149,0.04885729996021837,0.09999600006267428,0.10104699991643429,0.748921100050211
RSVPLG03,sg,20251028-132638,1.0.1,20251020-085245,721,Experiment,Both,1,Automatic,main,17,20251028-132817,global,local,750,H,H,E,E,H-E.png,E-H.png,hH,hH,mask-4.png,mask-2.png,h,1,0.6225764999398962,s,0,0.47256479994393885,0.046716000069864094,0.047736600041389465,0.0999557999894023,0.09997970005497336,0.7496032000053674
RSVPLG03,sg,20251028-132638,1.0.1,20251020-085245,721,Experiment,Both,1,Automatic,main,18,20251028-132823,local,local,300,H,S,E,A,E-H.png,A-S.png,hH,sS,mask-4.png,mask-1.png,h,1,0.6666749999858439,s,1,0.17985940002836287,0.047496299957856536,0.047577799996361136,0.10053890000563115,0.09960179997142404,0.30085300002247095
RSVPLG03,sg,20251028-132638,1.0.1,20251020-085245,721,Experiment,Both,1,Automatic,main,19,20251028-132827,global,local,300,H,H,E,A,H-E.png,A-H.png,hH,hH,mask-4.png,mask-1.png,h,1,0.5639026999706402,h,1,0.1217293000081554,0.04875199997331947,0.04670720000285655,0.10084929992444813,0.09809590002987534,0.3014431999763474
RSVPLG03,sg,20251028-132638,1.0.1,20251020-085245,721,Experiment,Both,1,Automatic,main,20,20251028-132832,global,global,300,H,S,A,E,H-A.png,S-E.png,hH,sS,mask-1.png,mask-1.png,h,1,0.6077752000419423,s,1,0.0893706000642851,0.047690399922430515,0.047501299995929,0.10008589993230999,0.10055370000191033,0.29910219996236265
RSVPLG03,sg,20251028-132638,1.0.1,20251020-085245,721,Experiment,Both,1,Automatic,main,21,20251028-132836,local,global,750,H,S,E,E,E-H.png,S-E.png,hH,sS,mask-2.png,mask-1.png,h,1,0.6390853999182582,s,1,0.11419700004626065,0.0475090000545606,0.04854150000028312,0.10153410001657903,0.09961499995552003,0.7509995000436902
RSVPLG03,sg,20251028-132638,1.0.1,20251020-085245,721,Experiment,Both,1,Automatic,main,22,20251028-132841,global,local,300,H,H,E,A,H-E.png,A-H.png,hH,hH,mask-2.png,mask-2.png,h,1,0.7468438999494538,h,1,0.7102928999811411,0.04750330001115799,0.047506599919870496,0.09850160009227693,0.09950629994273186,0.30008300009649247
RSVPLG03,sg,20251028-132638,1.0.1,20251020-085245,721,Experiment,Both,1,Automatic,main,23,20251028-132846,global,local,300,H,S,A,E,H-A.png,E-S.png,hH,sS,mask-2.png,mask-2.png,h,1,0.7165156999835745,s,1,0.08871460007503629,0.04659620008897036,0.04625690006650984,0.10043740004766732,0.09909360005985945,0.30054890003520995
RSVPLG03,sg,20251028-132638,1.0.1,20251020-085245,721,Experiment,Both,1,Automatic,main,24,20251028-132851,local,local,750,S,S,A,E,A-S.png,E-S.png,sS,sS,mask-2.png,mask-2.png,h,0,0.4948312999913469,s,1,0.12055140000302345,0.04796300001908094,0.048117600032128394,0.1010183000471443,0.10002040001563728,0.7509222000371665
RSVPLG03,sg,20251028-132638,1.0.1,20251020-085245,721,Experiment,Both,1,Automatic,main,25,20251028-132856,local,local,300,S,H,E,E,E-S.png,E-H.png,sS,hH,mask-1.png,mask-4.png,s,1,0.7491081999614835,h,1,0.07670609990600497,0.048524899990297854,0.04854170000180602,0.10042010003235191,0.09959860006347299,0.30027060001157224
RSVPLG03,sg,20251028-132638,1.0.1,20251020-085245,721,Experiment,Both,1,Automatic,main,26,20251028-132911,local,local,750,H,H,E,A,E-H.png,A-H.png,hH,hH,mask-2.png,mask-4.png,h,1,0.5123249000171199,h,1,0.27892710000742227,0.047511399956420064,0.04660659993533045,0.10050119995139539,0.09958659997209907,0.7513419999741018
RSVPLG03,sg,20251028-132638,1.0.1,20251020-085245,721,Experiment,Both,1,Automatic,main,27,20251028-132916,global,local,750,H,H,E,A,H-E.png,A-H.png,hH,hH,mask-1.png,mask-4.png,h,1,0.46825290005654097,h,1,0.0697671000380069,0.046622600057162344,0.047209500102326274,0.09862040006555617,0.10119390010368079,0.7492923999670893
RSVPLG03,sg,20251028-132638,1.0.1,20251020-085245,721,Experiment,Both,1,Automatic,main,28,20251028-132921,local,local,300,H,H,A,A,A-H.png,A-H.png,hH,hH,mask-2.png,mask-1.png,h,1,0.7071042000316083,h,1,0.29181229998357594,0.04885989998001605,0.04756269999779761,0.10105549998115748,0.10079519997816533,0.30065560003276914
RSVPLG03,sg,20251028-132638,1.0.1,20251020-085245,721,Experiment,Both,1,Automatic,main,29,20251028-132925,local,local,300,H,H,A,E,A-H.png,E-H.png,hH,hH,mask-1.png,mask-2.png,h,1,0.6716019999003038,s,0,0.13619270001072437,0.04806080006528646,0.04874480003491044,0.09945810004137456,0.10183810000307858,0.29973900003824383
RSVPLG03,sg,20251028-132638,1.0.1,20251020-085245,721,Experiment,Both,1,Automatic,main,30,20251028-132930,local,global,300,H,H,E,E,E-H.png,H-E.png,hH,hH,mask-4.png,mask-4.png,h,1,0.6349011999554932,h,1,0.0657975000794977,0.04753870004788041,0.048621100024320185,0.0995960000436753,0.10057590005453676,0.3003708999603987
RSVPLG03,sg,20251028-132638,1.0.1,20251020-085245,721,Experiment,Both,1,Automatic,main,31,20251028-132934,local,local,750,H,S,A,E,A-H.png,E-S.png,hH,sS,mask-3.png,mask-3.png,h,1,0.5922936999704689,s,1,0.06354080000892282,0.04755779996048659,0.04863239999394864,0.09965939994435757,0.09964779997244477,0.7486264000181109
RSVPLG03,sg,20251028-132638,1.0.1,20251020-085245,721,Experiment,Both,1,Automatic,main,32,20251028-132939,global,global,750,S,S,A,E,S-A.png,S-E.png,sS,sS,mask-4.png,mask-4.png,s,1,0.4541851000394672,s,1,0.18238959996961057,0.047720400034449995,0.04774499998893589,0.1001228999812156,0.09995609999168664,0.7507630999898538
RSVPLG03,sg,20251028-132638,1.0.1,20251020-085245,721,Experiment,Both,1,Automatic,main,33,20251028-132944,local,global,300,S,H,E,A,E-S.png,H-A.png,sS,hH,mask-1.png,mask-4.png,s,1,0.6066190000856295,h,1,0.050394400022923946,0.04695380001794547,0.04766909999307245,0.1002042000181973,0.09872179990634322,0.30177710007410496
RSVPLG03,sg,20251028-132638,1.0.1,20251020-085245,721,Experiment,Both,1,Automatic,main,34,20251028-132948,local,global,750,S,H,A,A,A-S.png,H-A.png,sS,hH,mask-4.png,mask-3.png,h,0,1.526519300066866,h,1,0.0750216000014916,0.04764809994958341,0.04868889995850623,0.09862219996284693,0.10050859989132732,0.7496971000218764
RSVPLG03,sg,20251028-132638,1.0.1,20251020-085245,721,Experiment,Both,1,Automatic,main,35,20251028-132954,global,global,750,H,S,E,A,H-E.png,S-A.png,hH,sS,mask-3.png,mask-3.png,h,1,0.5402629000600427,s,1,0.026619400014169514,0.04861569998320192,0.04752440005540848,0.10064850002527237,0.10064269998110831,0.7508259000023827
RSVPLG03,sg,20251028-132638,1.0.1,20251020-085245,721,Experiment,Both,1,Automatic,main,36,20251028-132959,local,local,750,S,H,E,E,E-S.png,E-H.png,sS,hH,mask-4.png,mask-4.png,s,1,1.197823099908419,h,1,1.2479188999859616,0.0475525000365451,0.04682920000050217,0.09954860003199428,0.09999220003373921,0.7494492999976501
RSVPLG03,sg,20251028-132638,1.0.1,20251020-085245,721,Experiment,Both,1,Automatic,main,37,20251028-133005,global,global,750,S,S,A,E,S-A.png,S-E.png,sS,sS,mask-3.png,mask-3.png,s,1,0.3786492000799626,s,1,0.08973490004427731,0.04856989998370409,0.046892000013031065,0.0998261000495404,0.09936350001953542,0.7513548999559134
RSVPLG03,sg,20251028-132638,1.0.1,20251020-085245,721,Experiment,Both,1,Automatic,main,38,20251028-133010,local,global,750,S,S,E,E,E-S.png,S-E.png,sS,sS,mask-3.png,mask-1.png,s,1,0.7872528000734746,h,0,0.07566390000283718,0.04853729996830225,0.04803619999438524,0.10166499996557832,0.10218400007579476,0.7501649999758229
RSVPLG03,sg,20251028-132638,1.0.1,20251020-085245,721,Experiment,Both,1,Automatic,main,39,20251028-133015,local,global,300,H,H,A,E,A-H.png,H-E.png,hH,hH,mask-4.png,mask-2.png,h,1,0.49850749992765486,h,1,0.07130650000181049,0.04853609995916486,0.04678160010371357,0.10073459998238832,0.09982220001984388,0.30135939992032945
RSVPLG03,sg,20251028-132638,1.0.1,20251020-085245,721,Experiment,Both,1,Automatic,main,40,20251028-133019,global,local,750,S,H,A,A,S-A.png,A-H.png,sS,hH,mask-2.png,mask-4.png,s,1,0.4737093999283388,h,1,0.027397500001825392,0.046709799906238914,0.04861490009352565,0.09933170001022518,0.10064970003440976,0.7490419999230653
RSVPLG03,sg,20251028-132638,1.0.1,20251020-085245,721,Experiment,Both,1,Automatic,main,41,20251028-133024,local,global,750,S,H,A,A,A-S.png,H-A.png,sS,hH,mask-3.png,mask-2.png,h,0,0.4994582000654191,h,1,0.07828319992404431,0.048507200088351965,0.04749719996470958,0.10059879999607801,0.09951779991388321,0.7514009000733495
RSVPLG03,sg,20251028-132638,1.0.1,20251020-085245,721,Experiment,Both,1,Automatic,main,42,20251028-133029,global,local,300,H,H,E,A,H-E.png,A-H.png,hH,hH,mask-4.png,mask-2.png,h,1,0.6000858000479639,h,1,0.0662300999974832,0.04961650003679097,0.04705529997590929,0.10075450001750141,0.0990788999479264,0.30225110007449985
RSVPLG03,sg,20251028-132638,1.0.1,20251020-085245,721,Experiment,Both,1,Automatic,main,43,20251028-133033,local,global,750,S,S,A,A,A-S.png,S-A.png,sS,sS,mask-4.png,mask-2.png,h,0,2.107106199953705,s,1,0.11636520002502948,0.0466806999174878,0.04751319997012615,0.10059359995648265,0.10152460006065667,0.7502664999337867
RSVPLG03,sg,20251028-132638,1.0.1,20251020-085245,721,Experiment,Both,1,Automatic,main,44,20251028-133039,global,local,300,H,S,A,E,H-A.png,E-S.png,hH,sS,mask-2.png,mask-4.png,h,1,0.7160770999034867,s,1,0.07528840005397797,0.04653379996307194,0.0475130999693647,0.09953000000678003,0.09949799999594688,0.3010482999961823
RSVPLG03,sg,20251028-132638,1.0.1,20251020-085245,721,Experiment,Both,1,Automatic,main,45,20251028-133044,global,global,300,S,S,A,A,S-A.png,S-A.png,sS,sS,mask-3.png,mask-3.png,s,1,0.4133245999692008,s,1,0.067105200025253,0.04656569997314364,0.046495200018398464,0.09960209997370839,0.10040710004977882,0.30032729997765273
RSVPLG03,sg,20251028-132638,1.0.1,20251020-085245,721,Experiment,Both,1,Automatic,main,46,20251028-133048,local,global,300,H,S,A,A,A-H.png,S-A.png,hH,sS,mask-3.png,mask-1.png,h,1,0.6568791999015957,s,1,0.06445629999507219,0.04698730004020035,0.047250900068320334,0.1001972999656573,0.09939770004712045,0.2999419999541715
RSVPLG03,sg,20251028-132638,1.0.1,20251020-085245,721,Experiment,Both,1,Automatic,main,47,20251028-133053,global,global,300,H,S,A,A,H-A.png,S-A.png,hH,sS,mask-2.png,mask-2.png,h,1,0.5080551999853924,s,1,0.043803000007756054,0.047514399979263544,0.04857700003776699,0.09857069991994649,0.09958230005577207,0.2990354999201372
RSVPLG03,sg,20251028-132638,1.0.1,20251020-085245,721,Experiment,Both,1,Automatic,main,48,20251028-133057,local,global,300,H,S,E,E,E-H.png,S-E.png,hH,sS,mask-4.png,mask-3.png,h,1,0.5453875999664888,s,1,0.04377450002357364,0.04755330004263669,0.0477978999260813,0.09942420001607388,0.10116750001907349,0.2991645000874996
RSVPLG03,sg,20251028-132638,1.0.1,20251020-085245,721,Experiment,Both,1,Automatic,main,49,20251028-133102,local,local,750,H,H,A,A,A-H.png,A-H.png,hH,hH,mask-4.png,mask-1.png,h,1,0.7385038000065833,s,0,0.1510822999989614,0.04570939997211099,0.04851779993623495,0.09968789992853999,0.10061670001596212,0.7491144000086933
RSVPLG03,sg,20251028-132638,1.0.1,20251020-085245,721,Experiment,Both,1,Automatic,main,50,20251028-133107,global,local,750,S,H,A,A,S-A.png,A-H.png,sS,hH,mask-1.png,mask-4.png,s,1,0.6024030999979004,h,1,0.02735810005106032,0.04750460002105683,0.04750139999669045,0.09952109993901104,0.10050170007161796,0.7495362999616191
RSVPLG03,sg,20251028-132638,1.0.1,20251020-085245,721,Experiment,Both,1,Automatic,main,51,20251028-133125,local,local,750,S,S,E,A,E-S.png,A-S.png,sS,sS,mask-4.png,mask-4.png,s,1,0.6476663000648841,h,0,0.025234100059606135,0.04772870009765029,0.04800390009768307,0.09990020003169775,0.09989120007958263,0.7502132999943569
RSVPLG03,sg,20251028-132638,1.0.1,20251020-085245,721,Experiment,Both,1,Automatic,main,52,20251028-133130,global,local,750,S,S,E,E,S-E.png,E-S.png,sS,sS,mask-1.png,mask-2.png,s,1,0.3830854999832809,s,1,0.048199999961070716,0.0477389000589028,0.046899500070139766,0.10112520004622638,0.09993470006156713,0.7509159999899566
RSVPLG03,sg,20251028-132638,1.0.1,20251020-085245,721,Experiment,Both,1,Automatic,main,53,20251028-133135,local,global,300,S,H,E,A,E-S.png,H-A.png,sS,hH,mask-1.png,mask-4.png,s,1,0.5043010999215767,h,1,0.036571000004187226,0.04769400006625801,0.047557399957440794,0.09831460006535053,0.09954530000686646,0.2998111000051722
RSVPLG03,sg,20251028-132638,1.0.1,20251020-085245,721,Experiment,Both,1,Automatic,main,54,20251028-133139,global,global,750,H,S,E,E,H-E.png,S-E.png,hH,sS,mask-2.png,mask-2.png,h,1,0.6298085999442264,s,1,0.0439823999768123,0.04756139998789877,0.047566300025209785,0.09949189994949847,0.10061830002814531,0.7496458999812603
RSVPLG03,sg,20251028-132638,1.0.1,20251020-085245,721,Experiment,Both,1,Automatic,main,55,20251028-133144,global,global,300,H,H,A,A,H-A.png,H-A.png,hH,hH,mask-2.png,mask-3.png,h,1,0.7843115000287071,h,1,0.13607789995148778,0.04734960000496358,0.04849560000002384,0.10033759998623282,0.10046749992761761,0.29964310000650585
RSVPLG03,sg,20251028-132638,1.0.1,20251020-085245,721,Experiment,Both,1,Automatic,main,56,20251028-133149,global,local,750,H,H,A,E,H-A.png,E-H.png,hH,hH,mask-3.png,mask-3.png,h,1,0.5198248000815511,h,1,0.0743444999679923,0.04671799996867776,0.04671359993517399,0.09911860001739115,0.09999739995691925,0.7500765000004321
RSVPLG03,sg,20251028-132638,1.0.1,20251020-085245,721,Experiment,Both,1,Automatic,main,57,20251028-133153,local,global,300,H,H,E,E,E-H.png,H-E.png,hH,hH,mask-1.png,mask-4.png,s,0,2.038289700052701,h,1,0.032458300003781915,0.0475252999458462,0.047511300072073936,0.09950869996100664,0.10052810003980994,0.299802599940449
RSVPLG03,sg,20251028-132638,1.0.1,20251020-085245,721,Experiment,Both,1,Automatic,main,58,20251028-133159,global,global,300,H,S,A,E,H-A.png,S-E.png,hH,sS,mask-3.png,mask-2.png,h,1,0.9037826000712812,s,1,0.6103153000585735,0.04791500000283122,0.04720360005740076,0.10119279997888952,0.09952000004705042,0.3015511999838054
RSVPLG03,sg,20251028-132638,1.0.1,20251020-085245,721,Experiment,Both,1,Automatic,main,59,20251028-133204,local,local,300,S,S,E,A,E-S.png,A-S.png,sS,sS,mask-3.png,mask-3.png,s,1,0.512087499955669,h,0,0.1275866999058053,0.0472099999897182,0.047850699978880584,0.10103089991025627,0.10008319991175085,0.3002535999985412
RSVPLG03,sg,20251028-132638,1.0.1,20251020-085245,721,Experiment,Both,1,Automatic,main,60,20251028-133209,local,local,750,S,H,E,A,E-S.png,A-H.png,sS,hH,mask-3.png,mask-4.png,s,1,0.524989000055939,h,1,0.41028940002433956,0.04752220003865659,0.04755060002207756,0.09952829999383539,0.09954059997107834,0.7500010000076145
RSVPLG03,sg,20251028-132638,1.0.1,20251020-085245,721,Experiment,Both,1,Automatic,main,61,20251028-133214,global,local,300,S,S,E,E,S-E.png,E-S.png,sS,sS,mask-4.png,mask-1.png,s,1,0.5384229000192136,h,0,0.26769179990515113,0.047419299953617156,0.047550100018270314,0.09944000001996756,0.09954730002209544,0.2997185999993235
RSVPLG03,sg,20251028-132638,1.0.1,20251020-085245,721,Experiment,Both,1,Automatic,main,62,20251028-133219,global,global,300,S,H,E,E,S-E.png,H-E.png,sS,hH,mask-2.png,mask-2.png,s,1,0.4467648999998346,h,1,0.24718329997267574,0.045555399963632226,0.04657480004243553,0.09954820002894849,0.10095220000948757,0.29930159996729344
RSVPLG03,sg,20251028-132638,1.0.1,20251020-085245,721,Experiment,Both,1,Automatic,main,63,20251028-133223,local,global,300,H,H,E,A,E-H.png,H-A.png,hH,hH,mask-4.png,mask-1.png,h,1,0.8544178999727592,h,1,0.08601309999357909,0.04858750000130385,0.04749420005828142,0.09960919991135597,0.09954780002590269,0.30129579990170896
RSVPLG03,sg,20251028-132638,1.0.1,20251020-085245,721,Experiment,Both,1,Automatic,main,64,20251028-133228,local,global,750,H,S,A,A,A-H.png,S-A.png,hH,sS,mask-3.png,mask-2.png,h,1,0.5362532999133691,s,1,0.13353260001167655,0.047601799946278334,0.04758050001692027,0.10061999992467463,0.10057250002864748,0.7496735999593511
RSVPLG03,sg,20251028-132638,1.0.1,20251020-085245,721,Experiment,Both,1,Automatic,main,65,20251028-133233,global,global,300,H,S,A,A,H-A.png,S-A.png,hH,sS,mask-1.png,mask-3.png,h,1,0.42105790006462485,s,1,0.19920679996721447,0.04654120001941919,0.04755219991784543,0.09856319997925311,0.09959110000636429,0.29986240004654974
RSVPLG03,sg,20251028-132638,1.0.1,20251020-085245,721,Experiment,Both,1,Automatic,main,66,20251028-133237,global,local,750,S,H,E,E,S-E.png,E-H.png,sS,hH,mask-4.png,mask-3.png,s,1,0.4638867999892682,h,1,0.25755239999853075,0.046743599930778146,0.04770360002294183,0.09812589990906417,0.10003500001039356,0.7495482999365777
RSVPLG03,sg,20251028-132638,1.0.1,20251020-085245,721,Experiment,Both,1,Automatic,main,67,20251028-133242,global,local,750,H,S,A,A,H-A.png,A-S.png,hH,sS,mask-2.png,mask-1.png,h,1,0.6384770000586286,s,1,0.7101474000373855,0.047701100003905594,0.04857179999817163,0.10000940004829317,0.10064339998643845,0.7490994000108913
RSVPLG03,sg,20251028-132638,1.0.1,20251020-085245,721,Experiment,Both,1,Automatic,main,68,20251028-133248,local,global,750,H,H,E,E,E-H.png,H-E.png,hH,hH,mask-1.png,mask-3.png,h,1,0.5379549999488518,h,1,0.0931312000611797,0.047405999968759716,0.04752389993518591,0.10022959997877479,0.09949489997234195,0.7510253000073135
RSVPLG03,sg,20251028-132638,1.0.1,20251020-085245,721,Experiment,Both,1,Automatic,main,69,20251028-133252,local,global,300,H,S,E,E,E-H.png,S-E.png,hH,sS,mask-2.png,mask-1.png,h,1,0.9948697999352589,s,1,0.318831600015983,0.04736740002408624,0.04769140004646033,0.09954109997488558,0.09986730001401156,0.3012892999686301
RSVPLG03,sg,20251028-132638,1.0.1,20251020-085245,721,Experiment,Both,1,Automatic,main,70,20251028-133257,global,local,300,H,S,A,A,H-A.png,A-S.png,hH,sS,mask-3.png,mask-2.png,h,1,0.6849226000485942,s,1,0.12529480003286153,0.04868540004827082,0.04694649996235967,0.10088600008748472,0.10000490001402795,0.29992520005907863
RSVPLG03,sg,20251028-132638,1.0.1,20251020-085245,721,Experiment,Both,1,Automatic,main,71,20251028-133302,local,global,750,H,S,A,E,A-H.png,S-E.png,hH,sS,mask-3.png,mask-4.png,h,1,0.4127207000274211,s,1,0.22036649996880442,0.048541199997998774,0.047539299936033785,0.1007567000342533,0.10052550002001226,0.7507253000512719
RSVPLG03,sg,20251028-132638,1.0.1,20251020-085245,721,Experiment,Both,1,Automatic,main,72,20251028-133307,global,global,750,H,S,E,E,H-E.png,S-E.png,hH,sS,mask-3.png,mask-3.png,h,1,0.3830460000317544,s,1,0.29767619993072003,0.047678900067694485,0.04749460006132722,0.09989050007425249,0.09968520002439618,0.7500773000065237
RSVPLG03,sg,20251028-132638,1.0.1,20251020-085245,721,Experiment,Both,1,Automatic,main,73,20251028-133312,global,global,750,H,S,E,E,H-E.png,S-E.png,hH,sS,mask-2.png,mask-2.png,h,1,0.47385150007903576,s,1,0.27779039996676147,0.047311299946159124,0.047429900034330785,0.09838929993566126,0.09975249995477498,0.7499953999649733
RSVPLG03,sg,20251028-132638,1.0.1,20251020-085245,721,Experiment,Both,1,Automatic,main,74,20251028-133317,local,global,300,S,S,E,E,E-S.png,S-E.png,sS,sS,mask-2.png,mask-2.png,s,1,1.1324896999867633,s,1,0.08516619994770736,0.04753119999077171,0.04856880009174347,0.10053159995004535,0.10062490007840097,0.3001682999311015
RSVPLG03,sg,20251028-132638,1.0.1,20251020-085245,721,Experiment,Both,1,Automatic,main,75,20251028-133322,local,local,300,H,S,A,E,A-H.png,E-S.png,hH,sS,mask-3.png,mask-3.png,h,1,0.5963471999857575,s,1,0.1325049001025036,0.04662569996435195,0.046524700010195374,0.0998810000019148,0.10040959995239973,0.2994976999470964
RSVPLG03,sg,20251028-132638,1.0.1,20251020-085245,721,Experiment,Both,1,Automatic,main,76,20251028-133340,local,global,300,S,S,E,A,E-S.png,S-A.png,sS,sS,mask-3.png,mask-1.png,s,1,0.4839844999369234,h,0,0.07012459996622056,0.04777780000586063,0.047687800019048154,0.10096429998520762,0.09976880007889122,0.29984029999468476
RSVPLG03,sg,20251028-132638,1.0.1,20251020-085245,721,Experiment,Both,1,Automatic,main,77,20251028-133344,global,global,750,H,S,E,E,H-E.png,S-E.png,hH,sS,mask-3.png,mask-3.png,h,1,0.4618874000152573,s,1,0.21469389996491373,0.04737559997010976,0.04862300003878772,0.09915889997500926,0.10065720009151846,0.749440599931404
RSVPLG03,sg,20251028-132638,1.0.1,20251020-085245,721,Experiment,Both,1,Automatic,main,78,20251028-133349,local,global,750,S,H,E,E,E-S.png,H-E.png,sS,hH,mask-1.png,mask-4.png,s,1,0.417820299975574,h,1,0.1801513999234885,0.047536600031889975,0.04775469994638115,0.10052940004970878,0.0999669999582693,0.7503852000227198
RSVPLG03,sg,20251028-132638,1.0.1,20251020-085245,721,Experiment,Both,1,Automatic,main,79,20251028-133354,local,local,750,S,H,A,E,A-S.png,E-H.png,sS,hH,mask-1.png,mask-3.png,s,1,0.9064522000262514,h,1,0.12747850001323968,0.0477076000533998,0.04479139996692538,0.10091779998037964,0.09824619989376515,0.7520730000687763
RSVPLG03,sg,20251028-132638,1.0.1,20251020-085245,721,Experiment,Both,1,Automatic,main,80,20251028-133359,global,global,300,S,H,A,A,S-A.png,H-A.png,sS,hH,mask-3.png,mask-4.png,s,1,0.4175533000379801,h,1,0.2737541999667883,0.045881500001996756,0.04652249999344349,0.09884270001202822,0.09967559995129704,0.2997389000374824
RSVPLG03,sg,20251028-132638,1.0.1,20251020-085245,721,Experiment,Both,1,Automatic,main,81,20251028-133404,local,local,750,S,S,A,E,A-S.png,E-S.png,sS,sS,mask-1.png,mask-2.png,s,1,0.71867710002698,s,1,0.10014190000947565,0.04773239989299327,0.04874070000369102,0.09991509991232306,0.10027149994857609,0.7504857999738306
RSVPLG03,sg,20251028-132638,1.0.1,20251020-085245,721,Experiment,Both,1,Automatic,main,82,20251028-133409,global,global,750,H,S,A,A,H-A.png,S-A.png,hH,sS,mask-3.png,mask-3.png,h,1,0.43817089998628944,s,1,0.1679582999786362,0.04675630002748221,0.047732200007885695,0.09995409997645766,0.09986930002924055,0.7493576999986544
RSVPLG03,sg,20251028-132638,1.0.1,20251020-085245,721,Experiment,Both,1,Automatic,main,83,20251028-133413,local,local,300,S,S,A,A,A-S.png,A-S.png,sS,sS,mask-1.png,mask-2.png,s,1,0.9257516000652686,h,0,0.4351826999336481,0.04751080006826669,0.04749829997308552,0.10150470002554357,0.09986419999040663,0.3017640000907704
RSVPLG03,sg,20251028-132638,1.0.1,20251020-085245,721,Experiment,Both,1,Automatic,main,84,20251028-133419,global,local,300,S,H,E,A,S-E.png,A-H.png,sS,hH,mask-4.png,mask-4.png,h,0,0.5952172999968752,s,0,0.12547490000724792,0.04635640000924468,0.046640199958346784,0.0982850999571383,0.10075390001293272,0.299671099986881
RSVPLG03,sg,20251028-132638,1.0.1,20251020-085245,721,Experiment,Both,1,Automatic,main,85,20251028-133423,global,global,750,S,S,E,A,S-E.png,S-A.png,sS,sS,mask-2.png,mask-4.png,s,1,0.34636070008855313,s,1,0.19816400005947798,0.04651739995460957,0.04749580007046461,0.09951640001963824,0.09952879999764264,0.7494717999361455
RSVPLG03,sg,20251028-132638,1.0.1,20251020-085245,721,Experiment,Both,1,Automatic,main,86,20251028-133428,local,local,750,H,S,E,A,E-H.png,A-S.png,hH,sS,mask-3.png,mask-3.png,h,1,0.9531365999719128,s,1,0.2214757000328973,0.047547099995426834,0.047631199937313795,0.10054970008786768,0.09963529999367893,0.7510640000691637
RSVPLG03,sg,20251028-132638,1.0.1,20251020-085245,721,Experiment,Both,1,Automatic,main,87,20251028-133433,global,local,750,H,H,E,E,H-E.png,E-H.png,hH,hH,mask-4.png,mask-1.png,h,1,0.4511733000399545,h,1,0.21980700001586229,0.04692799993790686,0.04591499990783632,0.09985129989217967,0.09983809990808368,0.7516346999909729
RSVPLG03,sg,20251028-132638,1.0.1,20251020-085245,721,Experiment,Both,1,Automatic,main,88,20251028-133438,local,local,750,S,S,E,E,E-S.png,E-S.png,sS,sS,mask-1.png,mask-2.png,s,1,0.7979577999794856,s,1,0.876203800085932,0.047816900070756674,0.04734750010538846,0.09837160003371537,0.10056020005140454,0.7496921999845654
RSVPLG03,sg,20251028-132638,1.0.1,20251020-085245,721,Experiment,Both,1,Automatic,main,89,20251028-133444,global,local,750,H,H,E,A,H-E.png,A-H.png,hH,hH,mask-3.png,mask-3.png,h,1,0.4501933999126777,h,1,0.2412563000107184,0.04877110000234097,0.04766760009806603,0.10094709997065365,0.09981000004336238,0.7514091999037191
RSVPLG03,sg,20251028-132638,1.0.1,20251020-085245,721,Experiment,Both,1,Automatic,main,90,20251028-133449,global,global,300,S,S,A,A,S-A.png,S-A.png,sS,sS,mask-3.png,mask-3.png,s,1,0.4451047000475228,s,1,0.20914229995105416,0.047539800056256354,0.047579500009305775,0.09956960007548332,0.10064769990276545,0.29994050005916506
RSVPLG03,sg,20251028-132638,1.0.1,20251020-085245,721,Experiment,Both,1,Automatic,main,91,20251028-133453,global,global,750,H,H,A,E,H-A.png,H-E.png,hH,hH,mask-2.png,mask-3.png,h,1,0.33152140001766384,h,1,0.1974542000098154,0.04652809991966933,0.04752680007368326,0.09953599993605167,0.09953210002277046,0.7499458999373019
RSVPLG03,sg,20251028-132638,1.0.1,20251020-085245,721,Experiment,Both,1,Automatic,main,92,20251028-133458,local,local,300,H,H,E,A,E-H.png,A-H.png,hH,hH,mask-3.png,mask-2.png,h,1,0.6454117000102997,s,0,0.2544756999704987,0.047243000008165836,0.048924900009296834,0.09993789996951818,0.10121230001095682,0.29903670004568994
RSVPLG03,sg,20251028-132638,1.0.1,20251020-085245,721,Experiment,Both,1,Automatic,main,93,20251028-133503,global,global,300,H,S,E,A,H-E.png,S-A.png,hH,sS,mask-4.png,mask-3.png,h,1,0.454934100038372,s,1,0.15473880001809448,0.048580999951809645,0.04836890008300543,0.10062779998406768,0.1012711999937892,0.2993862999137491
RSVPLG03,sg,20251028-132638,1.0.1,20251020-085245,721,Experiment,Both,1,Automatic,main,94,20251028-133507,global,global,750,H,S,E,E,H-E.png,S-E.png,hH,sS,mask-2.png,mask-2.png,h,1,0.4027698999270797,s,1,0.17115670000202954,0.0459177999291569,0.04870869999285787,0.09976269991602749,0.10091230005491525,0.7495171999325976
RSVPLG03,sg,20251028-132638,1.0.1,20251020-085245,721,Experiment,Both,1,Automatic,main,95,20251028-133512,global,global,300,S,S,A,E,S-A.png,S-E.png,sS,sS,mask-3.png,mask-3.png,s,1,0.5089390999637544,s,1,0.44188109994865954,0.046908300020731986,0.045770700089633465,0.09856710000894964,0.09883670008275658,0.30022610002197325
RSVPLG03,sg,20251028-132638,1.0.1,20251020-085245,721,Experiment,Both,1,Automatic,main,96,20251028-133516,local,global,300,S,S,A,A,A-S.png,S-A.png,sS,sS,mask-1.png,mask-1.png,s,1,0.5763649999862537,h,0,0.15618950000498444,0.047702700016088784,0.04667179996613413,0.09889449994079769,0.09982720005791634,0.29948539996985346
RSVPLG03,sg,20251028-132638,1.0.1,20251020-085245,721,Experiment,Both,1,Automatic,main,97,20251028-133521,global,global,750,H,S,A,A,H-A.png,S-A.png,hH,sS,mask-2.png,mask-1.png,h,1,0.478461500024423,s,1,0.1520970999263227,0.04737399995792657,0.04647209995891899,0.10023139999248087,0.09855559992138296,0.7520137999672443
RSVPLG03,sg,20251028-132638,1.0.1,20251020-085245,721,Experiment,Both,1,Automatic,main,98,20251028-133526,local,local,750,S,H,E,A,E-S.png,A-H.png,sS,hH,mask-1.png,mask-4.png,s,1,0.5243884000228718,h,1,0.19741719996090978,0.04868709994480014,0.04678200010675937,0.09917229996062815,0.09865220007486641,0.7517807999392971
RSVPLG03,sg,20251028-132638,1.0.1,20251020-085245,721,Experiment,Both,1,Automatic,main,99,20251028-133531,local,local,300,S,H,A,E,A-S.png,E-H.png,sS,hH,mask-1.png,mask-3.png,h,0,2.471113400068134,h,1,0.08317120000720024,0.04756829992402345,0.047293700044974685,0.10056489997077733,0.1002975000301376,0.3008910999633372
RSVPLG03,sg,20251028-132638,1.0.1,20251020-085245,721,Experiment,Both,1,Automatic,main,100,20251028-133537,global,local,300,H,S,E,E,H-E.png,E-S.png,hH,sS,mask-3.png,mask-2.png,h,1,0.5351983000291511,s,1,0.14790009998250753,0.04769979999400675,0.049693499924615026,0.10056649998296052,0.10101109999231994,0.29944880004040897
RSVPLG03,sg,20251028-132638,1.0.1,20251020-085245,721,Experiment,Both,1,Automatic,main,101,20251028-133549,global,local,300,H,H,A,A,H-A.png,A-H.png,hH,hH,mask-1.png,mask-2.png,h,1,0.561146599939093,h,1,0.07206160004716367,0.04672520002350211,0.04769170004874468,0.09996779996436089,0.09995960001833737,0.29944149998482317
RSVPLG03,sg,20251028-132638,1.0.1,20251020-085245,721,Experiment,Both,1,Automatic,main,102,20251028-133553,global,global,300,S,H,A,A,S-A.png,H-A.png,sS,hH,mask-4.png,mask-2.png,s,1,0.3536901999032125,h,1,0.1957960999570787,0.047739800065755844,0.04763449996244162,0.09981010004412383,0.09961719997227192,0.3002183000789955
RSVPLG03,sg,20251028-132638,1.0.1,20251020-085245,721,Experiment,Both,1,Automatic,main,103,20251028-133558,global,global,750,S,S,E,A,S-E.png,S-A.png,sS,sS,mask-4.png,mask-2.png,s,1,0.5152532000793144,s,1,0.36380249995272607,0.0465473000658676,0.04759199998807162,0.09964850009419024,0.10071530006825924,0.7495439000194892
RSVPLG03,sg,20251028-132638,1.0.1,20251020-085245,721,Experiment,Both,1,Automatic,main,104,20251028-133603,global,local,300,H,S,E,E,H-E.png,E-S.png,hH,sS,mask-2.png,mask-2.png,h,1,0.5226695999735966,s,1,0.10098230000585318,0.04846520000137389,0.04725030006375164,0.10147560003679246,0.10041330009698868,0.3009248999878764
RSVPLG03,sg,20251028-132638,1.0.1,20251020-085245,721,Experiment,Both,1,Automatic,main,105,20251028-133607,local,local,750,H,S,A,A,A-H.png,A-S.png,hH,sS,mask-1.png,mask-4.png,h,1,0.5421940999804065,h,0,0.11253549996763468,0.04766889999154955,0.04766190005466342,0.09999190003145486,0.09992130007594824,0.7495746000204235
RSVPLG03,sg,20251028-132638,1.0.1,20251020-085245,721,Experiment,Both,1,Automatic,main,106,20251028-133612,global,global,300,H,H,E,E,H-E.png,H-E.png,hH,hH,mask-2.png,mask-1.png,h,1,0.4218715999741107,h,1,0.2169365999288857,0.04775949998293072,0.04689589992631227,0.09978309995494783,0.09999859996605664,0.3004083000123501
RSVPLG03,sg,20251028-132638,1.0.1,20251020-085245,721,Experiment,Both,1,Automatic,main,107,20251028-133616,global,local,750,S,S,A,A,S-A.png,A-S.png,sS,sS,mask-2.png,mask-1.png,s,1,0.5396336000412703,h,0,0.17983399995137006,0.04774720000568777,0.04680639994330704,0.10017180000431836,0.10098340001422912,0.751395900035277
RSVPLG03,sg,20251028-132638,1.0.1,20251020-085245,721,Experiment,Both,1,Automatic,main,108,20251028-133621,global,local,300,S,H,A,A,S-A.png,A-H.png,sS,hH,mask-3.png,mask-2.png,s,1,0.4776438999688253,h,1,0.267863400047645,0.04769280005712062,0.04765399999450892,0.1008626000257209,0.09982350002974272,0.3004421000368893
RSVPLG03,sg,20251028-132638,1.0.1,20251020-085245,721,Experiment,Both,1,Automatic,main,109,20251028-133626,local,global,750,H,S,A,A,A-H.png,S-A.png,hH,sS,mask-1.png,mask-4.png,h,1,0.5582848000340164,s,1,0.2466087999055162,0.047112499945797026,0.04715519992168993,0.10010519996285439,0.10042929998598993,0.7499719000188634
RSVPLG03,sg,20251028-132638,1.0.1,20251020-085245,721,Experiment,Both,1,Automatic,main,110,20251028-133631,local,local,300,S,H,A,E,A-S.png,E-H.png,sS,hH,mask-4.png,mask-4.png,s,1,0.4490921999095008,h,1,0.1922131999162957,0.04755100002512336,0.04743169993162155,0.09856630000285804,0.09949950000736862,0.299950800021179
RSVPLG03,sg,20251028-132638,1.0.1,20251020-085245,721,Experiment,Both,1,Automatic,main,111,20251028-133635,local,local,300,S,H,A,E,A-S.png,E-H.png,sS,hH,mask-1.png,mask-4.png,s,1,0.5634779999963939,s,0,0.2844054000452161,0.04716590000316501,0.047185600036755204,0.1003393999999389,0.10026690002996475,0.299855999997817
RSVPLG03,sg,20251028-132638,1.0.1,20251020-085245,721,Experiment,Both,1,Automatic,main,112,20251028-133640,global,local,750,S,H,E,A,S-E.png,A-H.png,sS,hH,mask-3.png,mask-3.png,s,1,0.41457329993136227,h,1,0.3432971000438556,0.04863969993311912,0.047511500073596835,0.10168839991092682,0.10061940003652126,0.7508460999233648
RSVPLG03,sg,20251028-132638,1.0.1,20251020-085245,721,Experiment,Both,1,Automatic,main,113,20251028-133645,local,global,750,H,H,A,E,A-H.png,H-E.png,hH,hH,mask-2.png,mask-1.png,h,1,0.47731619991827756,h,1,0.10782140004448593,0.04796680004801601,0.04776200000196695,0.10086060001049191,0.09904980007559061,0.7515125999925658
RSVPLG03,sg,20251028-132638,1.0.1,20251020-085245,721,Experiment,Both,1,Automatic,main,114,20251028-133650,global,global,750,H,S,A,A,H-A.png,S-A.png,hH,sS,mask-4.png,mask-2.png,h,1,0.5552617000648752,s,1,0.15572850010357797,0.04799059999641031,0.04575619997922331,0.1013006999855861,0.0986828999593854,0.7522956000175327
RSVPLG03,sg,20251028-132638,1.0.1,20251020-085245,721,Experiment,Both,1,Automatic,main,115,20251028-133654,local,local,750,S,H,E,E,E-S.png,E-H.png,sS,hH,mask-3.png,mask-2.png,s,1,0.5183024000143632,s,0,0.12188270001206547,0.04750500002410263,0.047515599988400936,0.10056170006282628,0.10057080001570284,0.750340300030075
RSVPLG03,sg,20251028-132638,1.0.1,20251020-085245,721,Experiment,Both,1,Automatic,main,116,20251028-133659,local,local,750,S,S,A,A,A-S.png,A-S.png,sS,sS,mask-4.png,mask-2.png,s,1,0.7019419999560341,h,0,0.1436629000818357,0.04712939995806664,0.046902199974283576,0.10016139992512763,0.09924379992298782,0.7502263999776915
RSVPLG03,sg,20251028-132638,1.0.1,20251020-085245,721,Experiment,Both,1,Automatic,main,117,20251028-133704,global,global,750,H,S,A,A,H-A.png,S-A.png,hH,sS,mask-4.png,mask-4.png,h,1,0.4886321999365464,s,1,0.17105950007680804,0.04869470000267029,0.04775629995856434,0.10010189993772656,0.0999619000358507,0.7515129999956116
RSVPLG03,sg,20251028-132638,1.0.1,20251020-085245,721,Experiment,Both,1,Automatic,main,118,20251028-133709,local,global,750,H,S,E,A,E-H.png,S-A.png,hH,sS,mask-3.png,mask-4.png,h,1,0.4883362000109628,s,1,0.2019340000115335,0.04835680010728538,0.046766199986450374,0.10062180005479604,0.09963089996017516,0.7514157000696287
RSVPLG03,sg,20251028-132638,1.0.1,20251020-085245,721,Experiment,Both,1,Automatic,main,119,20251028-133714,local,global,750,S,H,A,A,A-S.png,H-A.png,sS,hH,mask-3.png,mask-2.png,h,0,0.48728929995559156,h,1,0.18308639992028475,0.04960430006030947,0.04735809995327145,0.10136269999202341,0.0991853999439627,0.7515364000573754
RSVPLG03,sg,20251028-132638,1.0.1,20251020-085245,721,Experiment,Both,1,Automatic,main,120,20251028-133719,global,local,300,S,H,E,E,S-E.png,E-H.png,sS,hH,mask-4.png,mask-2.png,s,1,1.541220699902624,h,1,0.17195089999586344,0.047522000037133694,0.04751820000819862,0.09992940002121031,0.1005865999031812,0.300181100028567
RSVPLG03,sg,20251028-132638,1.0.1,20251020-085245,721,Experiment,Both,1,Automatic,main,121,20251028-133724,global,global,300,S,S,E,E,S-E.png,S-E.png,sS,sS,mask-2.png,mask-2.png,s,1,0.5572442000266165,s,1,0.15459589997772127,0.047530599986203015,0.04817249998450279,0.10122499999124557,0.10090789990499616,0.3005077000707388
RSVPLG03,sg,20251028-132638,1.0.1,20251020-085245,721,Experiment,Both,1,Automatic,main,122,20251028-133729,local,global,300,H,H,A,A,A-H.png,H-A.png,hH,hH,mask-1.png,mask-4.png,h,1,0.6085388000356033,s,0,0.16634619992692024,0.04698430001735687,0.04772290005348623,0.09992069995496422,0.10097580007277429,0.29904119996353984
RSVPLG03,sg,20251028-132638,1.0.1,20251020-085245,721,Experiment,Both,1,Automatic,main,123,20251028-133733,local,local,300,S,S,E,E,E-S.png,E-S.png,sS,sS,mask-3.png,mask-1.png,s,1,0.538723099976778,h,0,1.0708932999987155,0.0457697999663651,0.04714929999317974,0.09826939995400608,0.09941039991099387,0.2997088000411168
RSVPLG03,sg,20251028-132638,1.0.1,20251020-085245,721,Experiment,Both,1,Automatic,main,124,20251028-133739,global,local,750,H,H,A,A,H-A.png,A-H.png,hH,hH,mask-3.png,mask-1.png,h,1,0.46169130003545433,h,1,0.14541919995099306,0.04759080009534955,0.04760079993866384,0.09961090004071593,0.0996267000446096,0.7504650000482798
RSVPLG03,sg,20251028-132638,1.0.1,20251020-085245,721,Experiment,Both,1,Automatic,main,125,20251028-133744,global,local,300,S,S,E,A,S-E.png,A-S.png,sS,sS,mask-1.png,mask-4.png,s,1,0.5635650999611244,h,0,0.1729118999792263,0.04771019995678216,0.04772399994544685,0.09979710006155074,0.10095130000263453,0.29945000004954636
RSVPLG03,sg,20251028-133819,1.0.1,20251020-085245,721,Experiment,Both,1,Automatic,warmup,1,20251028-133839,local,global,300,S,S,E,A,E-S.png,S-A.png,sS,sS,mask-2.png,mask-3.png,s,1,1.1281172999879345,h,0,0.3184948000125587,0.045136200031265616,0.04674469993915409,0.0984104999806732,0.09889739996287972,0.30027690005954355
RSVPLG03,sg,20251028-133819,1.0.1,20251020-085245,721,Experiment,Both,1,Automatic,warmup,2,20251028-133844,local,local,300,S,H,E,A,E-S.png,A-H.png,sS,hH,mask-1.png,mask-4.png,s,1,0.5364245999371633,h,1,0.21497669990640134,0.04855810001026839,0.048917499952949584,0.1015277000842616,0.1020263999234885,0.30110360006801784
RSVPLG03,sg,20251028-133819,1.0.1,20251020-085245,721,Experiment,Both,1,Automatic,warmup,3,20251028-133849,local,local,750,H,S,E,E,E-H.png,E-S.png,hH,sS,mask-1.png,mask-1.png,s,0,0.475965200108476,s,1,0.5811725999228656,0.048440300044603646,0.04850119992624968,0.10232560010626912,0.10086349991615862,0.7524144001072273
RSVPLG03,sg,20251028-133819,1.0.1,20251020-085245,721,Experiment,Both,1,Automatic,warmup,4,20251028-133854,global,local,750,S,S,E,E,S-E.png,E-S.png,sS,sS,mask-1.png,mask-1.png,s,1,0.4918220000108704,s,1,0.08205850003287196,0.047514099976979196,0.047579600010067225,0.09953529993072152,0.10061049996875226,0.7516261999262497
RSVPLG03,sg,20251028-133819,1.0.1,20251020-085245,721,Experiment,Both,1,Automatic,warmup,5,20251028-133859,global,global,750,S,S,E,A,S-E.png,S-A.png,sS,sS,mask-1.png,mask-1.png,s,1,0.33200669998768717,s,1,0.20204880007077008,0.04753440001513809,0.04753699991852045,0.10055640002246946,0.09880099992733449,0.752299000043422
RSVPLG03,sg,20251028-133819,1.0.1,20251020-085245,721,Experiment,Both,1,Automatic,main,6,20251028-133903,local,global,750,H,H,A,A,A-H.png,H-A.png,hH,hH,mask-1.png,mask-1.png,h,1,0.398484000004828,h,1,0.1549567999318242,0.04672360001131892,0.04769909998867661,0.09998409997206181,0.09978819999378175,0.7517585000023246
RSVPLG03,sg,20251028-133819,1.0.1,20251020-085245,721,Experiment,Both,1,Automatic,main,7,20251028-133908,global,global,300,H,H,A,E,H-A.png,H-E.png,hH,hH,mask-2.png,mask-2.png,h,1,0.4289573000278324,h,1,0.16231970000080764,0.048183299950324,0.047244800021871924,0.1008786999154836,0.09942290000617504,0.30100239999592304
RSVPLG03,sg,20251028-133819,1.0.1,20251020-085245,721,Experiment,Both,1,Automatic,main,8,20251028-133912,global,local,750,S,S,A,E,S-A.png,E-S.png,sS,sS,mask-4.png,mask-2.png,s,1,0.42038129991851747,s,1,0.15592950000427663,0.047542800079099834,0.04707780003082007,0.10175870009697974,0.09930789994541556,0.7524076000554487
RSVPLG03,sg,20251028-133819,1.0.1,20251020-085245,721,Experiment,Both,1,Automatic,main,9,20251028-133917,global,global,300,H,S,E,E,H-E.png,S-E.png,hH,sS,mask-2.png,mask-4.png,h,1,0.5469620999647304,s,1,0.02628230000846088,0.047056700102984905,0.04828949994407594,0.09951680002268404,0.1015112999593839,0.29998580005485564
RSVPLG03,sg,20251028-133819,1.0.1,20251020-085245,721,Experiment,Both,1,Automatic,main,10,20251028-133922,local,global,750,S,H,A,A,A-S.png,H-A.png,sS,hH,mask-1.png,mask-2.png,s,1,0.5395659999921918,h,1,0.23705170000903308,0.04760349995922297,0.04755520005710423,0.09945829992648214,0.10069310001563281,0.7511719999602064
RSVPLG03,sg,20251028-133819,1.0.1,20251020-085245,721,Experiment,Both,1,Automatic,main,11,20251028-133926,global,global,300,H,S,E,A,H-E.png,S-A.png,hH,sS,mask-3.png,mask-1.png,h,1,0.5222399999620393,s,1,0.18793549994006753,0.047700299997814,0.048016499960795045,0.09997300000395626,0.10091229993849993,0.2992613000096753
RSVPLG03,sg,20251028-133819,1.0.1,20251020-085245,721,Experiment,Both,1,Automatic,main,12,20251028-133931,local,local,300,H,S,E,A,E-H.png,A-S.png,hH,sS,mask-2.png,mask-3.png,h,1,0.5043532999698073,h,0,0.1864264999749139,0.04763599997386336,0.04739809990860522,0.09968560002744198,0.10023260000161827,0.3008529000217095
RSVPLG03,sg,20251028-133819,1.0.1,20251020-085245,721,Experiment,Both,1,Automatic,main,13,20251028-133935,global,local,300,H,H,A,A,H-A.png,A-H.png,hH,hH,mask-3.png,mask-3.png,h,1,0.3601420000195503,h,1,0.14525409997440875,0.046530499937944114,0.047580900019966066,0.09954670001752675,0.1016558000119403,0.2998639999423176
RSVPLG03,sg,20251028-133819,1.0.1,20251020-085245,721,Experiment,Both,1,Automatic,main,14,20251028-133940,global,local,750,H,H,A,E,H-A.png,E-H.png,hH,hH,mask-2.png,mask-4.png,h,1,0.6910236000549048,s,0,0.26283479994162917,0.04752949997782707,0.04744059999939054,0.1006325000198558,0.10043630003929138,0.7520936999935657
RSVPLG03,sg,20251028-133819,1.0.1,20251020-085245,721,Experiment,Both,1,Automatic,main,15,20251028-133945,local,global,750,S,S,E,E,E-S.png,S-E.png,sS,sS,mask-1.png,mask-1.png,s,1,0.5041229999624193,s,1,0.21994879993144423,0.047512599965557456,0.04787609993945807,0.10054620006121695,0.09995159995742142,0.7516905000666156
RSVPLG03,sg,20251028-133819,1.0.1,20251020-085245,721,Experiment,Both,1,Automatic,main,16,20251028-133950,global,local,300,H,S,A,E,H-A.png,E-S.png,hH,sS,mask-4.png,mask-3.png,h,1,0.7583696000510827,s,1,0.4426990000065416,0.048622700036503375,0.04755400004796684,0.1006400000769645,0.09957459999714047,0.3009279000107199
RSVPLG03,sg,20251028-133819,1.0.1,20251020-085245,721,Experiment,Both,1,Automatic,main,17,20251028-133955,global,global,750,H,H,E,E,H-E.png,H-E.png,hH,hH,mask-3.png,mask-3.png,h,1,0.4080954999662936,h,1,0.26122480002231896,0.04668249993119389,0.04856979998294264,0.10089380003046244,0.10144040000159293,0.751174799981527
RSVPLG03,sg,20251028-133819,1.0.1,20251020-085245,721,Experiment,Both,1,Automatic,main,18,20251028-134000,global,global,300,H,S,E,E,H-E.png,S-E.png,hH,sS,mask-1.png,mask-2.png,h,1,0.514045000076294,s,1,0.18808699992951006,0.04677909996826202,0.04869630001485348,0.09900039993226528,0.09984100004658103,0.29991509998217225
RSVPLG03,sg,20251028-133819,1.0.1,20251020-085245,721,Experiment,Both,1,Automatic,main,19,20251028-134004,local,global,300,S,H,A,A,A-S.png,H-A.png,sS,hH,mask-2.png,mask-2.png,h,0,0.43633189995307475,h,1,0.13133520004339516,0.047339199925772846,0.04720360005740076,0.10037839994765818,0.10012750001624227,0.3005989999510348
RSVPLG03,sg,20251028-133819,1.0.1,20251020-085245,721,Experiment,Both,1,Automatic,main,20,20251028-134008,global,global,750,H,S,E,A,H-E.png,S-A.png,hH,sS,mask-1.png,mask-2.png,h,1,0.3774886999744922,s,1,0.1673002999741584,0.0476263000164181,0.04773849993944168,0.09990060003474355,0.09993169992230833,0.7514885000418872
RSVPLG03,sg,20251028-133819,1.0.1,20251020-085245,721,Experiment,Both,1,Automatic,main,21,20251028-134013,local,local,750,S,S,E,E,E-S.png,E-S.png,sS,sS,mask-3.png,mask-1.png,s,1,0.5321116000413895,h,0,0.19430560001637787,0.047749800025485456,0.04774900001939386,0.09995709999930114,0.09949569997843355,0.7524720000801608
RSVPLG03,sg,20251028-133819,1.0.1,20251020-085245,721,Experiment,Both,1,Automatic,main,22,20251028-134018,local,global,300,H,S,A,E,A-H.png,S-E.png,hH,sS,mask-4.png,mask-1.png,h,1,0.5008127999026328,s,1,0.12303150002844632,0.048699900042265654,0.0466381999431178,0.10096130007877946,0.10063409991562366,0.3014885000884533
RSVPLG03,sg,20251028-133819,1.0.1,20251020-085245,721,Experiment,Both,1,Automatic,main,23,20251028-134022,local,global,300,S,S,A,A,A-S.png,S-A.png,sS,sS,mask-2.png,mask-4.png,s,1,0.890811900026165,s,1,0.1241936000296846,0.04755490005481988,0.04676419997122139,0.10057900007814169,0.09962179989088327,0.2999446000903845
RSVPLG03,sg,20251028-133819,1.0.1,20251020-085245,721,Experiment,Both,1,Automatic,main,24,20251028-134027,global,global,750,S,S,A,E,S-A.png,S-E.png,sS,sS,mask-2.png,mask-1.png,s,1,0.45264699996914715,s,1,0.3358098000753671,0.047266599955037236,0.04752199992071837,0.09921079990454018,0.101535499910824,0.7507329999934882
RSVPLG03,sg,20251028-133819,1.0.1,20251020-085245,721,Experiment,Both,1,Automatic,main,25,20251028-134032,local,global,300,H,H,E,E,E-H.png,H-E.png,hH,hH,mask-4.png,mask-4.png,s,0,0.8226213000016287,h,1,0.1520361000439152,0.04573509993497282,0.04751820000819862,0.09832549991551787,0.09957149997353554,0.29983849998097867
RSVPLG03,sg,20251028-133819,1.0.1,20251020-085245,721,Experiment,Both,1,Automatic,main,26,20251028-134101,global,local,300,S,S,E,A,S-E.png,A-S.png,sS,sS,mask-4.png,mask-4.png,s,1,0.3909952000249177,h,0,0.28488749999087304,0.047354400041513145,0.04720639996230602,0.1001960999565199,0.10007459996268153,0.3007500000530854
RSVPLG03,sg,20251028-133819,1.0.1,20251020-085245,721,Experiment,Both,1,Automatic,main,27,20251028-134105,local,local,300,H,H,E,A,E-H.png,A-H.png,hH,hH,mask-3.png,mask-3.png,h,1,0.509209500043653,s,0,0.21415849996265024,0.047572099952958524,0.04954660008661449,0.10059080005157739,0.10056430008262396,0.2998505999566987
RSVPLG03,sg,20251028-133819,1.0.1,20251020-085245,721,Experiment,Both,1,Automatic,main,28,20251028-134109,global,global,750,S,H,A,E,S-A.png,H-E.png,sS,hH,mask-4.png,mask-1.png,s,1,0.40253339998889714,h,1,0.18072850001044571,0.048626799951307476,0.047573499963618815,0.10172819998115301,0.10063879995141178,0.7531018999870867
RSVPLG03,sg,20251028-133819,1.0.1,20251020-085245,721,Experiment,Both,1,Automatic,main,29,20251028-134114,local,local,750,S,S,A,A,A-S.png,A-S.png,sS,sS,mask-1.png,mask-3.png,h,0,1.0736482000211254,h,0,0.2315954000223428,0.04674129991326481,0.04757699999026954,0.10007569997105747,0.09969139995519072,0.7527443999424577
RSVPLG03,sg,20251028-133819,1.0.1,20251020-085245,721,Experiment,Both,1,Automatic,main,30,20251028-134120,global,global,300,S,H,E,E,S-E.png,H-E.png,sS,hH,mask-2.png,mask-4.png,s,1,0.5246681999415159,h,1,0.13189089996740222,0.048519200063310564,0.047531999996863306,0.1008506000507623,0.0995803999248892,0.30189720005728304
RSVPLG03,sg,20251028-133819,1.0.1,20251020-085245,721,Experiment,Both,1,Automatic,main,31,20251028-134124,local,local,750,S,H,E,A,E-S.png,A-H.png,sS,hH,mask-4.png,mask-4.png,s,1,0.48803749994840473,s,0,0.3800690999487415,0.04754380008671433,0.04752179991919547,0.09965470002498478,0.10056129994336516,0.7509732000762597
RSVPLG03,sg,20251028-133819,1.0.1,20251020-085245,721,Experiment,Both,1,Automatic,main,32,20251028-134129,local,local,300,H,S,E,E,E-H.png,E-S.png,hH,sS,mask-3.png,mask-2.png,s,0,0.6075367999728769,s,1,0.49661170004401356,0.04753750003874302,0.047515599988400936,0.09955570008605719,0.10054170002695173,0.29983090003952384
RSVPLG03,sg,20251028-133819,1.0.1,20251020-085245,721,Experiment,Both,1,Automatic,main,33,20251028-134134,global,global,750,S,S,E,E,S-E.png,S-E.png,sS,sS,mask-3.png,mask-2.png,s,1,0.5668318000389263,h,0,0.28166599990800023,0.047720300033688545,0.04663320002146065,0.0998700000345707,0.09975399996619672,0.752708200016059
RSVPLG03,sg,20251028-133819,1.0.1,20251020-085245,721,Experiment,Both,1,Automatic,main,34,20251028-134139,global,local,750,S,H,E,E,S-E.png,E-H.png,sS,hH,mask-4.png,mask-3.png,s,1,0.463096100022085,h,1,0.19689160003326833,0.04667050007265061,0.046693500014953315,0.09991710004396737,0.09989300009328872,0.7519840999739245
RSVPLG03,sg,20251028-133819,1.0.1,20251020-085245,721,Experiment,Both,1,Automatic,main,35,20251028-134144,global,global,750,H,H,E,A,H-E.png,H-A.png,hH,hH,mask-3.png,mask-3.png,h,1,0.3860496999695897,h,1,0.16335679998155683,0.046638700063340366,0.047628400032408535,0.09954070008825511,0.09960449999198318,0.7516054000006989
RSVPLG03,sg,20251028-133819,1.0.1,20251020-085245,721,Experiment,Both,1,Automatic,main,36,20251028-134149,local,global,300,H,H,A,A,A-H.png,H-A.png,hH,hH,mask-1.png,mask-4.png,h,1,0.677363199996762,h,1,0.2516948999837041,0.046585500007495284,0.047825700021348894,0.09992400009650737,0.09979379992000759,0.3002178000751883
RSVPLG03,sg,20251028-133819,1.0.1,20251020-085245,721,Experiment,Both,1,Automatic,main,37,20251028-134154,local,local,750,S,S,A,A,A-S.png,A-S.png,sS,sS,mask-3.png,mask-1.png,s,1,0.46681859996169806,h,0,0.1818838999606669,0.04858449997846037,0.047545800101943314,0.10104280000086874,0.10055970004759729,0.7510943999513984
RSVPLG03,sg,20251028-133819,1.0.1,20251020-085245,721,Experiment,Both,1,Automatic,main,38,20251028-134159,global,global,300,S,S,E,E,S-E.png,S-E.png,sS,sS,mask-4.png,mask-4.png,s,1,1.5930986000457779,h,0,0.056279700016602874,0.04760530008934438,0.04756420000921935,0.09960389998741448,0.10195260006003082,0.300089200027287
RSVPLG03,sg,20251028-133819,1.0.1,20251020-085245,721,Experiment,Both,1,Automatic,main,39,20251028-134204,local,local,750,S,H,A,A,A-S.png,A-H.png,sS,hH,mask-1.png,mask-3.png,s,1,2.003633200074546,h,1,0.29797439998947084,0.047716000000946224,0.04770569992251694,0.09978539997246116,0.10090969991870224,0.7519907000241801
RSVPLG03,sg,20251028-133819,1.0.1,20251020-085245,721,Experiment,Both,1,Automatic,main,40,20251028-134211,local,global,750,H,H,E,E,E-H.png,H-E.png,hH,hH,mask-4.png,mask-4.png,h,1,0.37338590004947037,h,1,0.1535874999826774,0.04784669994842261,0.04770289990119636,0.10016629996243864,0.10096069995779544,0.7521888000192121
RSVPLG03,sg,20251028-133819,1.0.1,20251020-085245,721,Experiment,Both,1,Automatic,main,41,20251028-134215,global,local,750,H,S,E,E,H-E.png,E-S.png,hH,sS,mask-4.png,mask-1.png,h,1,0.5992946999613196,h,0,0.6626321000512689,0.04772059991955757,0.04854909994173795,0.0989631999982521,0.10157459997572005,0.7508089999901131
RSVPLG03,sg,20251028-133819,1.0.1,20251020-085245,721,Experiment,Both,1,Automatic,main,42,20251028-134221,global,local,300,H,H,A,A,H-A.png,A-H.png,hH,hH,mask-4.png,mask-2.png,h,1,0.45804659998975694,h,1,0.10228380002081394,0.04655820003245026,0.04673519998323172,0.09940870001446456,0.10089150001294911,0.2999071000376716
RSVPLG03,sg,20251028-133819,1.0.1,20251020-085245,721,Experiment,Both,1,Automatic,main,43,20251028-134225,local,local,750,H,S,A,A,A-H.png,A-S.png,hH,sS,mask-4.png,mask-1.png,h,1,0.6583358000498265,s,1,0.7957531999563798,0.04859040002338588,0.04757579998113215,0.10062080004718155,0.10062709997873753,0.752063799998723
RSVPLG03,sg,20251028-133819,1.0.1,20251020-085245,721,Experiment,Both,1,Automatic,main,44,20251028-134231,global,local,750,S,S,E,A,S-E.png,A-S.png,sS,sS,mask-2.png,mask-1.png,s,1,0.5303156999871135,h,0,0.1557032000273466,0.046708200010471046,0.04659749998245388,0.09990420006215572,0.09977900004014373,0.7516871000407264
RSVPLG03,sg,20251028-133819,1.0.1,20251020-085245,721,Experiment,Both,1,Automatic,main,45,20251028-134236,global,local,300,H,H,A,A,H-A.png,A-H.png,hH,hH,mask-3.png,mask-3.png,h,1,0.5988395999884233,h,1,0.10563940007705241,0.04689019999932498,0.047480200068093836,0.10008800006471574,0.09931060008239001,0.2997977000195533
RSVPLG03,sg,20251028-133819,1.0.1,20251020-085245,721,Experiment,Both,1,Automatic,main,46,20251028-134240,global,global,750,H,S,E,A,H-E.png,S-A.png,hH,sS,mask-2.png,mask-4.png,h,1,0.5024785998975858,s,1,0.24922070000320673,0.04869620001409203,0.047690900042653084,0.09989569999743253,0.09990999998990446,0.7519674999639392
RSVPLG03,sg,20251028-133819,1.0.1,20251020-085245,721,Experiment,Both,1,Automatic,main,47,20251028-134245,local,local,300,H,S,E,E,E-H.png,E-S.png,hH,sS,mask-1.png,mask-2.png,h,1,0.43434669997077435,s,1,0.04174400004558265,0.04666039999574423,0.04769030003808439,0.09991240000817925,0.09993390005547553,0.30057919991668314
RSVPLG03,sg,20251028-133819,1.0.1,20251020-085245,721,Experiment,Both,1,Automatic,main,48,20251028-134249,global,local,750,H,H,A,A,H-A.png,A-H.png,hH,hH,mask-1.png,mask-1.png,h,1,0.5251284000696614,h,1,0.1555802000220865,0.04654779995325953,0.0475323999999091,0.09972709999419749,0.09956860006786883,0.7516254999209195
RSVPLG03,sg,20251028-133819,1.0.1,20251020-085245,721,Experiment,Both,1,Automatic,main,49,20251028-134254,local,global,750,H,S,A,E,A-H.png,S-E.png,hH,sS,mask-4.png,mask-2.png,h,1,0.5046985000371933,s,1,0.21825040003750473,0.04850919998716563,0.04752499994356185,0.09979060001205653,0.10070740000810474,0.7509665000252426
RSVPLG03,sg,20251028-133819,1.0.1,20251020-085245,721,Experiment,Both,1,Automatic,main,50,20251028-134259,local,global,750,H,H,E,A,E-H.png,H-A.png,hH,hH,mask-4.png,mask-3.png,h,1,0.3548974000150338,h,1,0.13982010004110634,0.04670760000590235,0.04869129997678101,0.099943200009875,0.10074250004254282,0.7515632000286132
RSVPLG03,sg,20251028-133819,1.0.1,20251020-085245,721,Experiment,Both,1,Automatic,main,51,20251028-134308,local,local,750,H,H,A,A,A-H.png,A-H.png,hH,hH,mask-1.png,mask-1.png,h,1,0.5559466000413522,h,1,0.1493959000799805,0.04753129999153316,0.04760280007030815,0.098746900097467,0.09983680001460016,0.751024299999699
RSVPLG03,sg,20251028-133819,1.0.1,20251020-085245,721,Experiment,Both,1,Automatic,main,52,20251028-134313,global,local,300,H,H,E,E,H-E.png,E-H.png,hH,hH,mask-3.png,mask-4.png,h,1,0.4904556000838056,s,0,0.16753570002038032,0.04830650007352233,0.04665279993787408,0.10051880008541048,0.10058600001502782,0.3002654000883922
RSVPLG03,sg,20251028-133819,1.0.1,20251020-085245,721,Experiment,Both,1,Automatic,main,53,20251028-134317,global,local,750,S,S,E,E,S-E.png,E-S.png,sS,sS,mask-1.png,mask-3.png,h,0,0.5688365999376401,s,1,0.35310299997217953,0.04751830000896007,0.0467739999294281,0.09878300002310425,0.09942969994153827,0.7522722000721842
RSVPLG03,sg,20251028-133819,1.0.1,20251020-085245,721,Experiment,Both,1,Automatic,main,54,20251028-134323,global,global,300,H,S,E,A,H-E.png,S-A.png,hH,sS,mask-4.png,mask-3.png,h,1,0.47147399990353733,s,1,0.12124010000843555,0.04686170001514256,0.04757110006175935,0.10182760003954172,0.10056450008414686,0.3012114999582991
RSVPLG03,sg,20251028-133819,1.0.1,20251020-085245,721,Experiment,Both,1,Automatic,main,55,20251028-134327,global,global,300,S,S,E,E,S-E.png,S-E.png,sS,sS,mask-2.png,mask-1.png,s,1,1.0673644000198692,s,1,0.08249579998664558,0.04585420002695173,0.04673439997714013,0.09983359999023378,0.09998389997053891,0.3004915000637993
RSVPLG03,sg,20251028-133819,1.0.1,20251020-085245,721,Experiment,Both,1,Automatic,main,56,20251028-134332,local,global,750,S,S,A,E,A-S.png,S-E.png,sS,sS,mask-2.png,mask-1.png,s,1,0.600028800079599,h,0,0.12785230006556958,0.04773719992954284,0.048453900031745434,0.10081999993417412,0.10066670004744083,0.7523915999336168
RSVPLG03,sg,20251028-133819,1.0.1,20251020-085245,721,Experiment,Both,1,Automatic,main,57,20251028-134337,local,local,300,H,H,E,A,E-H.png,A-H.png,hH,hH,mask-3.png,mask-3.png,h,1,1.11694739991799,s,0,0.1652171000605449,0.0486930999904871,0.04666409990750253,0.10092920006718487,0.09987549996003509,0.3012905000941828
RSVPLG03,sg,20251028-133819,1.0.1,20251020-085245,721,Experiment,Both,1,Automatic,main,58,20251028-134342,global,global,750,H,H,A,A,H-A.png,H-A.png,hH,hH,mask-3.png,mask-2.png,h,1,0.388147099991329,h,1,0.11931420001201332,0.046702199964784086,0.04776080010924488,0.09897189994808286,0.0996474000858143,0.7512717999052256
RSVPLG03,sg,20251028-133819,1.0.1,20251020-085245,721,Experiment,Both,1,Automatic,main,59,20251028-134346,global,local,300,H,S,A,A,H-A.png,A-S.png,hH,sS,mask-1.png,mask-4.png,h,1,0.5226441000122577,h,0,0.09152400004677474,0.04648399993311614,0.04776870005298406,0.09838129999116063,0.0997334000421688,0.300151199917309
RSVPLG03,sg,20251028-133819,1.0.1,20251020-085245,721,Experiment,Both,1,Automatic,main,60,20251028-134351,local,global,300,S,H,A,E,A-S.png,H-E.png,sS,hH,mask-2.png,mask-3.png,s,1,0.602983899996616,h,1,0.2208927000174299,0.047541000065393746,0.04754169995430857,0.09953230002429336,0.10054069990292192,0.2998554001096636
RSVPLG03,sg,20251028-133819,1.0.1,20251020-085245,721,Experiment,Both,1,Automatic,main,61,20251028-134355,local,local,750,S,H,E,E,E-S.png,E-H.png,sS,hH,mask-3.png,mask-2.png,s,1,0.5303315999917686,h,1,0.4066774999955669,0.04768880002666265,0.04767990007530898,0.09987219993490726,0.10191590001340955,0.7505866999272257
RSVPLG03,sg,20251028-133819,1.0.1,20251020-085245,721,Experiment,Both,1,Automatic,main,62,20251028-134400,local,local,300,H,H,E,A,E-H.png,A-H.png,hH,hH,mask-3.png,mask-3.png,h,1,0.4853556000161916,s,0,0.17154479993041605,0.04652970004826784,0.04652490001171827,0.09957970003597438,0.09854579996317625,0.3008712000446394
RSVPLG03,sg,20251028-133819,1.0.1,20251020-085245,721,Experiment,Both,1,Automatic,main,63,20251028-134405,local,global,300,H,S,A,A,A-H.png,S-A.png,hH,sS,mask-4.png,mask-1.png,h,1,0.5018622999778017,s,1,0.20104179996997118,0.04871319991070777,0.04769350006245077,0.10008809994906187,0.09988450002856553,0.3017448999453336
RSVPLG03,sg,20251028-133819,1.0.1,20251020-085245,721,Experiment,Both,1,Automatic,main,64,20251028-134409,local,local,300,S,H,A,E,A-S.png,E-H.png,sS,hH,mask-3.png,mask-2.png,s,1,0.4274775000521913,h,1,0.20063390000723302,0.047175100073218346,0.04698119999375194,0.1001737000187859,0.10014929994940758,0.3001835000468418
RSVPLG03,sg,20251028-133819,1.0.1,20251020-085245,721,Experiment,Both,1,Automatic,main,65,20251028-134414,local,global,750,S,H,E,E,E-S.png,H-E.png,sS,hH,mask-4.png,mask-1.png,s,1,0.27737469994463027,h,1,0.28288810001686215,0.047745299991220236,0.047731600003317,0.09994820004794747,0.10089280002284795,0.7516370000084862
RSVPLG03,sg,20251028-133819,1.0.1,20251020-085245,721,Experiment,Both,1,Automatic,main,66,20251028-134419,local,global,300,H,S,A,A,A-H.png,S-A.png,hH,sS,mask-4.png,mask-2.png,h,1,0.5855520999757573,h,0,0.14692789991386235,0.04854320001322776,0.04741130000911653,0.10090849990956485,0.10024439997505397,0.30067289993166924
RSVPLG03,sg,20251028-133819,1.0.1,20251020-085245,721,Experiment,Both,1,Automatic,main,67,20251028-134423,global,global,750,H,H,E,A,H-E.png,H-A.png,hH,hH,mask-3.png,mask-2.png,h,1,0.373507900047116,h,1,0.2973272999515757,0.04717110004276037,0.047573600080795586,0.09926580009050667,0.09960489999502897,0.752018200000748
RSVPLG03,sg,20251028-133819,1.0.1,20251020-085245,721,Experiment,Both,1,Automatic,main,68,20251028-134428,local,local,300,S,H,E,E,E-S.png,E-H.png,sS,hH,mask-2.png,mask-1.png,s,1,0.43781110004056245,h,1,0.24849500006530434,0.04783049994148314,0.0486967999022454,0.10107760003302246,0.10102269996423274,0.30073120002634823
RSVPLG03,sg,20251028-133819,1.0.1,20251020-085245,721,Experiment,Both,1,Automatic,main,69,20251028-134432,local,local,300,S,S,E,A,E-S.png,A-S.png,sS,sS,mask-3.png,mask-4.png,s,1,0.5458842000225559,h,0,0.21077260002493858,0.0490545000648126,0.04653419996611774,0.10234900005161762,0.09974089998286217,0.30273350002244115
RSVPLG03,sg,20251028-133819,1.0.1,20251020-085245,721,Experiment,Both,1,Automatic,main,70,20251028-134437,local,global,750,H,S,E,A,E-H.png,S-A.png,hH,sS,mask-3.png,mask-1.png,h,1,0.5747448999900371,s,1,0.3459431999363005,0.046699700062163174,0.045911099994555116,0.0988688999786973,0.09902389999479055,0.7519641000544652
RSVPLG03,sg,20251028-133819,1.0.1,20251020-085245,721,Experiment,Both,1,Automatic,main,71,20251028-134442,global,global,300,S,H,A,E,S-A.png,H-E.png,sS,hH,mask-1.png,mask-3.png,s,1,0.3876897000009194,h,1,0.2309386000270024,0.04674010002054274,0.048758499906398356,0.10009389999322593,0.10012369998730719,0.2999131000833586
RSVPLG03,sg,20251028-133819,1.0.1,20251020-085245,721,Experiment,Both,1,Automatic,main,72,20251028-134446,local,global,300,H,S,A,A,A-H.png,S-A.png,hH,sS,mask-3.png,mask-4.png,h,1,0.49860340007580817,s,1,0.16311939992010593,0.04756900004576892,0.04752989998087287,0.09968230000231415,0.1014811999630183,0.30006060004234314
RSVPLG03,sg,20251028-133819,1.0.1,20251020-085245,721,Experiment,Both,1,Automatic,main,73,20251028-134451,local,global,750,S,H,A,A,A-S.png,H-A.png,sS,hH,mask-4.png,mask-3.png,s,1,0.5257661000359803,h,1,0.1718183000339195,0.04865849995985627,0.047520400024950504,0.10070059995632619,0.09996460005640984,0.7528625999111682
RSVPLG03,sg,20251028-133819,1.0.1,20251020-085245,721,Experiment,Both,1,Automatic,main,74,20251028-134456,global,local,300,S,H,E,A,S-E.png,A-H.png,sS,hH,mask-2.png,mask-2.png,s,1,0.3709593000821769,h,1,0.258975200005807,0.04755350004415959,0.0485259999986738,0.10056470008566976,0.10158639994915575,0.2999093000544235
RSVPLG03,sg,20251028-133819,1.0.1,20251020-085245,721,Experiment,Both,1,Automatic,main,75,20251028-134500,global,local,750,S,H,E,A,S-E.png,A-H.png,sS,hH,mask-3.png,mask-4.png,s,1,0.44749920000322163,h,1,0.21746850002091378,0.04770520003512502,0.047786799957975745,0.10006450000219047,0.10103140003047884,0.7511602999875322
RSVPLG03,sg,20251028-133819,1.0.1,20251020-085245,721,Experiment,Both,1,Automatic,main,76,20251028-134506,global,global,750,H,H,A,E,H-A.png,H-E.png,hH,hH,mask-4.png,mask-2.png,h,1,0.36736080003902316,h,1,0.22129960008896887,0.046779299969784915,0.0472404999891296,0.10001870000269264,0.09848179994150996,0.7520520000252873
RSVPLG03,sg,20251028-133819,1.0.1,20251020-085245,721,Experiment,Both,1,Automatic,main,77,20251028-134511,global,local,300,H,S,A,A,H-A.png,A-S.png,hH,sS,mask-2.png,mask-3.png,h,1,0.4923397999955341,s,1,0.15570140001364052,0.04877559992019087,0.04778020002413541,0.10089339991100132,0.10100539994891733,0.3006030999822542
RSVPLG03,sg,20251028-133819,1.0.1,20251020-085245,721,Experiment,Both,1,Automatic,main,78,20251028-134515,global,global,300,H,H,A,A,H-A.png,H-A.png,hH,hH,mask-4.png,mask-3.png,h,1,0.38048589997924864,h,1,0.17825350002385676,0.04777490010019392,0.04782179999165237,0.10074340004939586,0.09908489999361336,0.30174310004804283
RSVPLG03,sg,20251028-133819,1.0.1,20251020-085245,721,Experiment,Both,1,Automatic,main,79,20251028-134520,global,local,750,S,S,E,E,S-E.png,E-S.png,sS,sS,mask-2.png,mask-2.png,s,1,0.5350832999683917,s,1,0.8299106999766082,0.04769889998715371,0.046742399921640754,0.09999670006800443,0.0999356999527663,0.7520862000528723
RSVPLG03,sg,20251028-133819,1.0.1,20251020-085245,721,Experiment,Both,1,Automatic,main,80,20251028-134525,local,local,750,H,H,E,A,E-H.png,A-H.png,hH,hH,mask-2.png,mask-2.png,h,1,0.38341719994787127,h,1,0.1654563999036327,0.04783149994909763,0.04852939990814775,0.10008909995667636,0.10034859995357692,0.7508580000139773
RSVPLG03,sg,20251028-133819,1.0.1,20251020-085245,721,Experiment,Both,1,Automatic,main,81,20251028-134530,global,local,750,H,H,A,E,H-A.png,E-H.png,hH,hH,mask-3.png,mask-1.png,h,1,0.4065398999955505,h,1,0.6326151000102982,0.047755899955518544,0.04655920004006475,0.10083719994872808,0.09903849998954684,0.7522407999495044
RSVPLG03,sg,20251028-133819,1.0.1,20251020-085245,721,Experiment,Both,1,Automatic,main,82,20251028-134535,global,global,300,H,S,E,A,H-E.png,S-A.png,hH,sS,mask-3.png,mask-4.png,h,1,0.4354165999684483,s,1,0.12008679995778948,0.04694429994560778,0.047548600006848574,0.10106559994164854,0.10056200006511062,0.3003993999445811
RSVPLG03,sg,20251028-133819,1.0.1,20251020-085245,721,Experiment,Both,1,Automatic,main,83,20251028-134539,local,global,750,H,S,E,E,E-H.png,S-E.png,hH,sS,mask-2.png,mask-2.png,h,1,0.4472740999190137,s,1,0.1522224999498576,0.047630999935790896,0.047701100003905594,0.09982379991561174,0.10007389995735139,0.7516136999474838
RSVPLG03,sg,20251028-133819,1.0.1,20251020-085245,721,Experiment,Both,1,Automatic,main,84,20251028-134544,local,local,750,S,S,A,A,A-S.png,A-S.png,sS,sS,mask-3.png,mask-3.png,h,0,0.42105830006767064,h,0,0.28080569999292493,0.04795089992694557,0.04869119997601956,0.1012697999831289,0.09987649996764958,0.7513190000317991
RSVPLG03,sg,20251028-133819,1.0.1,20251020-085245,721,Experiment,Both,1,Automatic,main,85,20251028-134549,local,local,300,H,H,E,A,E-H.png,A-H.png,hH,hH,mask-3.png,mask-1.png,h,1,0.5430350999813527,s,0,0.08326910005416721,0.0487857999978587,0.04751219996251166,0.10185059998184443,0.10050940001383424,0.30141429998911917
RSVPLG03,sg,20251028-133819,1.0.1,20251020-085245,721,Experiment,Both,1,Automatic,main,86,20251028-134553,local,local,300,H,H,E,E,E-H.png,E-H.png,hH,hH,mask-2.png,mask-3.png,h,1,0.5075361999915913,s,0,0.3235237000044435,0.046459299977868795,0.04759309999644756,0.09855130000505596,0.10174230008851737,0.29885179991833866
RSVPLG03,sg,20251028-133819,1.0.1,20251020-085245,721,Experiment,Both,1,Automatic,main,87,20251028-134558,global,local,300,S,H,A,E,S-A.png,E-H.png,sS,hH,mask-2.png,mask-3.png,s,1,0.5222674999386072,h,1,0.18665179994422942,0.04840289999265224,0.04750220000278205,0.10040790005587041,0.10057750006671995,0.30113679997157305
RSVPLG03,sg,20251028-133819,1.0.1,20251020-085245,721,Experiment,Both,1,Automatic,main,88,20251028-134603,local,global,300,S,S,A,E,A-S.png,S-E.png,sS,sS,mask-1.png,mask-3.png,s,1,0.5739930000854656,s,1,0.18232389993499964,0.046290299971587956,0.04858129995409399,0.09993439994286746,0.10263079998549074,0.2989030999597162
RSVPLG03,sg,20251028-133819,1.0.1,20251020-085245,721,Experiment,Both,1,Automatic,main,89,20251028-134607,local,local,750,H,S,A,A,A-H.png,A-S.png,hH,sS,mask-3.png,mask-1.png,h,1,0.5287087999749929,s,1,0.3659584999550134,0.04806479997932911,0.04849860002286732,0.10040879994630814,0.10035439999774098,0.7510685999877751
RSVPLG03,sg,20251028-133819,1.0.1,20251020-085245,721,Experiment,Both,1,Automatic,main,90,20251028-134612,local,local,750,S,H,E,E,E-S.png,E-H.png,sS,hH,mask-4.png,mask-3.png,s,1,0.615069100051187,h,1,0.4318517999490723,0.046658099978230894,0.04656990000512451,0.0995581999886781,0.09997129999101162,0.7518384999129921
RSVPLG03,sg,20251028-133819,1.0.1,20251020-085245,721,Experiment,Both,1,Automatic,main,91,20251028-134617,local,local,300,H,H,E,A,E-H.png,A-H.png,hH,hH,mask-4.png,mask-1.png,h,1,0.5061178000178188,s,0,0.3166724001057446,0.04751270008273423,0.047588700079359114,0.10052460001315922,0.10080990009009838,0.30014259996823967
RSVPLG03,sg,20251028-133819,1.0.1,20251020-085245,721,Experiment,Both,1,Automatic,main,92,20251028-134622,local,local,300,H,H,A,E,A-H.png,E-H.png,hH,hH,mask-2.png,mask-4.png,h,1,0.5252168000442907,h,1,0.3599494999507442,0.04884059994947165,0.04657160001806915,0.10176349990069866,0.09953530004713684,0.30208019993733615
RSVPLG03,sg,20251028-133819,1.0.1,20251020-085245,721,Experiment,Both,1,Automatic,main,93,20251028-134627,global,global,300,S,H,A,A,S-A.png,H-A.png,sS,hH,mask-1.png,mask-4.png,s,1,0.5706956000067294,h,1,0.3172119999071583,0.047532299999147654,0.047665199963375926,0.10072069999296218,0.10075550002511591,0.30035150004550815
RSVPLG03,sg,20251028-133819,1.0.1,20251020-085245,721,Experiment,Both,1,Automatic,main,94,20251028-134631,local,local,300,H,H,E,E,E-H.png,E-H.png,hH,hH,mask-3.png,mask-1.png,h,1,0.6947945000138134,s,0,0.17121460009366274,0.04771159996744245,0.04679619998205453,0.09991739992983639,0.10053870000410825,0.3004589999327436
RSVPLG03,sg,20251028-133819,1.0.1,20251020-085245,721,Experiment,Both,1,Automatic,main,95,20251028-134636,global,local,300,S,S,E,A,S-E.png,A-S.png,sS,sS,mask-4.png,mask-3.png,s,1,0.7291239999467507,h,0,0.24385530001018196,0.04768219997640699,0.04769399994984269,0.10108039993792772,0.10189249995164573,0.300713500007987
RSVPLG03,sg,20251028-133819,1.0.1,20251020-085245,721,Experiment,Both,1,Automatic,main,96,20251028-134641,local,global,750,S,H,A,E,A-S.png,H-E.png,sS,hH,mask-2.png,mask-1.png,s,1,0.4392237999709323,h,1,0.22137639997527003,0.046624000067822635,0.04673669999465346,0.09949500008951873,0.09995079995132983,0.7513388000661507
RSVPLG03,sg,20251028-133819,1.0.1,20251020-085245,721,Experiment,Both,1,Automatic,main,97,20251028-134646,local,global,750,H,S,E,E,E-H.png,S-E.png,hH,sS,mask-3.png,mask-2.png,h,1,0.4130348999751732,s,1,0.20313529996201396,0.04868849995546043,0.04658490000292659,0.10090219997800887,0.09979140001814812,0.7530138998990878
RSVPLG03,sg,20251028-133819,1.0.1,20251020-085245,721,Experiment,Both,1,Automatic,main,98,20251028-134650,global,global,300,H,S,E,E,H-E.png,S-E.png,hH,sS,mask-1.png,mask-3.png,h,1,0.47326080000493675,s,1,0.6695301000727341,0.047668999992311,0.04765730001963675,0.10008660005405545,0.09987739997450262,0.3003199000377208
RSVPLG03,sg,20251028-133819,1.0.1,20251020-085245,721,Experiment,Both,1,Automatic,main,99,20251028-134655,local,local,300,S,S,A,A,A-S.png,A-S.png,sS,sS,mask-4.png,mask-2.png,h,0,0.4675921000307426,s,1,0.3637798000127077,0.0469847999047488,0.04762559989467263,0.10010409995447844,0.10060599993448704,0.29941259999759495
RSVPLG03,sg,20251028-133819,1.0.1,20251020-085245,721,Experiment,Both,1,Automatic,main,100,20251028-134700,global,global,300,H,H,A,A,H-A.png,H-A.png,hH,hH,mask-4.png,mask-1.png,h,1,0.44772280007600784,h,1,0.13811050006188452,0.04870789998676628,0.04768249997869134,0.10090720001608133,0.10086849995423108,0.30052489996887743
RSVPLG03,sg,20251028-133819,1.0.1,20251020-085245,721,Experiment,Both,1,Automatic,main,101,20251028-134705,local,global,300,H,H,A,A,A-H.png,H-A.png,hH,hH,mask-2.png,mask-3.png,h,1,0.44580930005759,h,1,0.9555465000448748,0.04731659998651594,0.046931799966841936,0.10049700003582984,0.09977980004623532,0.30036250001285225
RSVPLG03,sg,20251028-133819,1.0.1,20251020-085245,721,Experiment,Both,1,Automatic,main,102,20251028-134710,local,local,750,S,H,A,E,A-S.png,E-H.png,sS,hH,mask-3.png,mask-2.png,s,1,0.9100716999964789,s,0,0.12364030000753701,0.047711099963635206,0.047705299919471145,0.09992750000674278,0.10092140000779182,0.7518389000324532
RSVPLG03,sg,20251028-133819,1.0.1,20251020-085245,721,Experiment,Both,1,Automatic,main,103,20251028-134716,global,local,300,H,S,A,A,H-A.png,A-S.png,hH,sS,mask-3.png,mask-2.png,h,1,0.5682014999911189,s,1,0.268087700009346,0.04771509999409318,0.04772679996676743,0.09901120001450181,0.09947849996387959,0.3009153000311926
RSVPLG03,sg,20251028-133819,1.0.1,20251020-085245,721,Experiment,Both,1,Automatic,main,104,20251028-134720,global,global,750,S,H,E,E,S-E.png,H-E.png,sS,hH,mask-1.png,mask-2.png,s,1,0.48102780000772327,h,1,0.2514304999494925,0.047987000085413456,0.047554199933074415,0.10000790003687143,0.0984170000301674,0.7516737000551075
RSVPLG03,sg,20251028-133819,1.0.1,20251020-085245,721,Experiment,Both,1,Automatic,main,105,20251028-134725,global,global,750,H,H,A,A,H-A.png,H-A.png,hH,hH,mask-3.png,mask-4.png,h,1,0.37429860001429915,h,1,0.20148859999608248,0.04769919998943806,0.048716100049205124,0.10091040004044771,0.10099210008047521,0.7517376999603584
RSVPLG03,sg,20251028-133819,1.0.1,20251020-085245,721,Experiment,Both,1,Automatic,main,106,20251028-134730,global,global,750,H,H,A,E,H-A.png,H-E.png,hH,hH,mask-4.png,mask-3.png,h,1,0.32813769998028874,h,1,0.26154780003707856,0.04748359997756779,0.04851079999934882,0.10048769996501505,0.10052179999183863,0.7520190000068396
RSVPLG03,sg,20251028-133819,1.0.1,20251020-085245,721,Experiment,Both,1,Automatic,main,107,20251028-134734,local,global,750,H,S,A,A,A-H.png,S-A.png,hH,sS,mask-3.png,mask-4.png,h,1,0.48718069994356483,s,1,0.18782730004750192,0.04859250003937632,0.048523299978114665,0.10158190003130585,0.10058809991460294,0.7529913000762463
RSVPLG03,sg,20251028-133819,1.0.1,20251020-085245,721,Experiment,Both,1,Automatic,main,108,20251028-134739,local,global,300,S,S,E,E,E-S.png,S-E.png,sS,sS,mask-1.png,mask-3.png,s,1,0.5371158999623731,h,0,1.4206254999153316,0.047515899990685284,0.04749869997613132,0.09909170004539192,0.10050609998870641,0.3001678000437096
RSVPLG03,sg,20251028-133819,1.0.1,20251020-085245,721,Experiment,Both,1,Automatic,main,109,20251028-134745,global,global,750,H,S,E,E,H-E.png,S-E.png,hH,sS,mask-3.png,mask-3.png,h,1,0.6690622000023723,s,1,0.1249581000301987,0.04765920003410429,0.047530799987725914,0.09973699995316565,0.10058410000056028,0.7514407000271603
RSVPLG03,sg,20251028-133819,1.0.1,20251020-085245,721,Experiment,Both,1,Automatic,main,110,20251028-134750,local,global,750,S,S,E,A,E-S.png,S-A.png,sS,sS,mask-2.png,mask-4.png,s,1,0.5884815999306738,s,1,0.2507840000325814,0.047043200000189245,0.04856080003082752,0.10110900003928691,0.10058560001198202,0.7518220000201836
RSVPLG03,sg,20251028-133819,1.0.1,20251020-085245,721,Experiment,Both,1,Automatic,main,111,20251028-134755,local,local,750,S,S,A,E,A-S.png,E-S.png,sS,sS,mask-2.png,mask-4.png,s,1,1.4656002999981865,s,1,1.164819199941121,0.047117600101046264,0.04773490002844483,0.09943500009831041,0.10038800002075732,0.7518968000076711
RSVPLG03,sg,20251028-133819,1.0.1,20251020-085245,721,Experiment,Both,1,Automatic,main,112,20251028-134802,global,local,300,H,S,E,E,H-E.png,E-S.png,hH,sS,mask-1.png,mask-1.png,h,1,0.8368814999703318,s,1,0.13606990000698715,0.045976500026881695,0.047327299951575696,0.09982220001984388,0.10017240000888705,0.29990940005518496
RSVPLG03,sg,20251028-133819,1.0.1,20251020-085245,721,Experiment,Both,1,Automatic,main,113,20251028-134807,global,local,750,S,H,E,E,S-E.png,E-H.png,sS,hH,mask-2.png,mask-2.png,s,1,0.5833025999600068,s,0,0.4336761999875307,0.047738100052811205,0.047732100007124245,0.09965740004554391,0.09991750004701316,0.7514408000279218
RSVPLG03,sg,20251028-133819,1.0.1,20251020-085245,721,Experiment,Both,1,Automatic,main,114,20251028-134812,global,local,750,H,H,A,A,H-A.png,A-H.png,hH,hH,mask-1.png,mask-2.png,h,1,0.4545026000123471,h,1,0.15069959999527782,0.04686580004636198,0.04760819999501109,0.09979230002500117,0.09963960002642125,0.7519536999752745
RSVPLG03,sg,20251028-133819,1.0.1,20251020-085245,721,Experiment,Both,1,Automatic,main,115,20251028-134817,local,global,300,S,H,A,A,A-S.png,H-A.png,sS,hH,mask-3.png,mask-4.png,h,0,0.8060109000653028,s,0,0.10736060002818704,0.048560500028543174,0.047597199911251664,0.10058700002264231,0.10062309994827956,0.30059200001414865
RSVPLG03,sg,20251028-133819,1.0.1,20251020-085245,721,Experiment,Both,1,Automatic,main,116,20251028-134821,global,local,750,S,H,A,E,S-A.png,E-H.png,sS,hH,mask-3.png,mask-1.png,s,1,0.60311200004071,h,1,0.1654293000465259,0.04583509999793023,0.046593999955803156,0.09995750000234693,0.09956700005568564,0.7515041000442579
RSVPLG03,sg,20251028-133819,1.0.1,20251020-085245,721,Experiment,Both,1,Automatic,main,117,20251028-134826,global,local,750,H,S,E,A,H-E.png,A-S.png,hH,sS,mask-4.png,mask-4.png,h,1,0.5659922000486404,s,1,0.6034739000024274,0.047539800056256354,0.047419599955901504,0.1007557000266388,0.10070579999592155,0.7521706999978051
RSVPLG03,sg,20251028-133819,1.0.1,20251020-085245,721,Experiment,Both,1,Automatic,main,118,20251028-134832,global,global,300,H,H,E,E,H-E.png,H-E.png,hH,hH,mask-1.png,mask-4.png,h,1,0.4266216999385506,h,1,0.18847150006331503,0.04665889998432249,0.048586799995973706,0.09873510000761598,0.10187090002000332,0.2993636999744922
RSVPLG03,sg,20251028-133819,1.0.1,20251020-085245,721,Experiment,Both,1,Automatic,main,119,20251028-134836,global,local,300,S,H,A,E,S-A.png,E-H.png,sS,hH,mask-1.png,mask-1.png,s,1,0.4257422999944538,h,1,1.0847624000161886,0.047512800083495677,0.0469882000470534,0.10057370003778487,0.10010579996742308,0.29970710002817214
RSVPLG03,sg,20251028-133819,1.0.1,20251020-085245,721,Experiment,Both,1,Automatic,main,120,20251028-134841,global,global,750,S,H,A,A,S-A.png,H-A.png,sS,hH,mask-2.png,mask-1.png,s,1,0.4019493000814691,h,1,0.15394210000522435,0.04768530000001192,0.04769770009443164,0.0997803999343887,0.09909050003625453,0.7520394999301061
RSVPLG03,sg,20251028-133819,1.0.1,20251020-085245,721,Experiment,Both,1,Automatic,main,121,20251028-134846,global,local,300,H,H,A,A,H-A.png,A-H.png,hH,hH,mask-2.png,mask-2.png,h,1,0.5280401000054553,s,0,0.37878979998640716,0.04769309994298965,0.04681410000193864,0.10073449998162687,0.10097629996016622,0.3003908999962732
RSVPLG03,sg,20251028-133819,1.0.1,20251020-085245,721,Experiment,Both,1,Automatic,main,122,20251028-134851,local,global,300,H,H,E,A,E-H.png,H-A.png,hH,hH,mask-1.png,mask-3.png,h,1,0.4982427000068128,s,0,0.06779770005960017,0.04769849998410791,0.04771060007624328,0.09988630004227161,0.10087560000829399,0.29962619999423623
