exp,exp_initials,runtime,ver,modtime,sub,blocktype,targets,cuetype,mode,trialtype,trial,trialtime,t1_level,t2_level,t2_lag,t1,t2,distractor1,distractor2,stimfile1,stimfile2,t1_corr,t2_corr,maskfile1,maskfile2,t1_resp,t1_acc,t1_rt,t2_resp,t2_acc,t2_rt,t1_dur,t2_dur,t1mask_soa,t2mask_soa,t1t2_soa
RSVPLG03,si,20260409-160618,1.0.2,20260219-152011,819,Introduction,T1,1,Automatic,main,1,20260409-160647,global,local,750,S,S,A,E,S-A.png,E-S.png,sS,sS,mask-3.png,mask-3.png,s,1,0.3276495000000068,none,-5,0,0.0901573000001008,0.09797410000010132,0.19007289999990462,0.19763130000001183,0.7424958999999944
RSVPLG03,si,20260409-160618,1.0.2,20260219-152011,819,Introduction,T1,1,Automatic,main,2,20260409-160652,local,global,750,H,H,E,A,E-H.png,H-A.png,hH,hH,mask-4.png,mask-3.png,h,1,0.4818860999998833,none,-5,0,0.09900840000000244,0.10027889999992112,0.20074109999995926,0.20000479999998788,0.7521991999997226
RSVPLG03,si,20260409-160618,1.0.2,20260219-152011,819,Introduction,T1,1,Automatic,main,3,20260409-160656,local,global,750,H,S,E,A,E-H.png,S-A.png,hH,sS,mask-3.png,mask-4.png,h,1,0.7857367999999951,none,-5,0,0.10325909999983196,0.09818129999985103,0.19971189999978378,0.19942900000023656,0.7523161999997683
RSVPLG03,si,20260409-160618,1.0.2,20260219-152011,819,Introduction,T1,1,Automatic,main,4,20260409-160701,global,global,750,S,H,E,E,S-E.png,H-E.png,sS,hH,mask-3.png,mask-3.png,s,1,0.9807716000000255,none,-5,0,0.09982050000007803,0.10137890000032712,0.20113100000025952,0.2035478000002513,0.7506785000000491
RSVPLG03,si,20260409-160618,1.0.2,20260219-152011,819,Introduction,T1,1,Automatic,main,5,20260409-160706,local,global,750,S,S,E,A,E-S.png,S-A.png,sS,sS,mask-2.png,mask-1.png,s,1,1.0641921000001275,none,-5,0,0.10176619999992909,0.10063059999993129,0.20014379999975063,0.19964889999982915,0.7540487000001121
RSVPLG03,si,20260409-160618,1.0.2,20260219-152011,819,Introduction,T1,1,Automatic,main,6,20260409-160711,local,local,750,H,S,A,E,A-H.png,E-S.png,hH,sS,mask-2.png,mask-4.png,h,1,0.5948954999998932,none,-5,0,0.10029329999997572,0.0986987000001136,0.19949330000008558,0.2006178000001455,0.7533779000000322
RSVPLG03,si,20260409-160618,1.0.2,20260219-152011,819,Introduction,T1,1,Automatic,main,7,20260409-160716,global,global,750,H,S,E,E,H-E.png,S-E.png,hH,sS,mask-2.png,mask-3.png,s,0,1.6091583000002174,none,-5,0,0.09977170000001934,0.10095959999989645,0.2009571000003234,0.1995879999999488,0.7521190000002207
RSVPLG03,si,20260409-160618,1.0.2,20260219-152011,819,Introduction,T1,1,Automatic,main,8,20260409-160722,global,global,750,H,S,A,E,H-A.png,S-E.png,hH,sS,mask-3.png,mask-3.png,h,1,0.29326339999988704,none,-5,0,0.09980470000027708,0.09992340000007971,0.199815800000124,0.19928429999981745,0.751723000000311
RSVPLG03,si,20260409-160618,1.0.2,20260219-152011,819,Introduction,T1,1,Automatic,main,9,20260409-160726,local,local,750,H,H,E,A,E-H.png,A-H.png,hH,hH,mask-1.png,mask-3.png,h,1,0.4879555000002256,none,-5,0,0.09890350000023318,0.09903529999974126,0.2004800000004252,0.20143749999988358,0.7516059000004134
RSVPLG03,si,20260409-160618,1.0.2,20260219-152011,819,Introduction,T1,1,Automatic,main,10,20260409-160731,global,local,750,S,H,A,A,S-A.png,A-H.png,sS,hH,mask-3.png,mask-1.png,s,1,0.3816770000003089,none,-5,0,0.10029650000024048,0.10119499999973414,0.2018087999999807,0.20086179999998421,0.7524397000001954
RSVPLG03,si,20260409-160618,1.0.2,20260219-152011,819,Introduction,T1,1,Automatic,main,11,20260409-160735,global,global,750,H,S,E,E,H-E.png,S-E.png,hH,sS,mask-1.png,mask-4.png,s,0,0.521404099999927,none,-5,0,0.10259670000004917,0.10171810000019832,0.2014710999997078,0.2006483999998636,0.7530643999998574
RSVPLG03,si,20260409-160618,1.0.2,20260219-152011,819,Introduction,T1,1,Automatic,main,12,20260409-160740,local,global,750,S,H,E,A,E-S.png,H-A.png,sS,hH,mask-1.png,mask-3.png,s,1,0.3637290000001485,none,-5,0,0.10052139999970677,0.09796610000012151,0.20236049999994066,0.20027429999981905,0.7518178999998781
RSVPLG03,si,20260409-160618,1.0.2,20260219-152011,819,Introduction,T1,1,Automatic,main,13,20260409-160745,local,local,750,H,H,A,E,A-H.png,E-H.png,hH,hH,mask-3.png,mask-1.png,h,1,0.6537123000002794,none,-5,0,0.10064430000011271,0.10219069999993735,0.20019279999996797,0.2006240999999136,0.7514274000000114
RSVPLG03,si,20260409-160618,1.0.2,20260219-152011,819,Introduction,T1,1,Automatic,main,14,20260409-160749,global,local,750,S,H,E,E,S-E.png,E-H.png,sS,hH,mask-3.png,mask-4.png,s,1,0.772709500000019,none,-5,0,0.09998780000023544,0.10035620000007839,0.19995560000006662,0.1996024000000034,0.7515794000000824
RSVPLG03,si,20260409-160618,1.0.2,20260219-152011,819,Introduction,T1,1,Automatic,main,15,20260409-160754,local,local,750,S,S,A,A,A-S.png,A-S.png,sS,sS,mask-4.png,mask-1.png,s,1,0.8782769999997981,none,-5,0,0.09920119999969756,0.09927179999976943,0.20155939999995098,0.20031220000009853,0.7537849999998798
RSVPLG03,si,20260409-160618,1.0.2,20260219-152011,819,Introduction,T1,1,Automatic,main,16,20260409-160759,global,local,750,H,H,E,E,H-E.png,E-H.png,hH,hH,mask-1.png,mask-4.png,h,1,0.6448912000000746,none,-5,0,0.09975089999988995,0.10033559999965291,0.20110369999974864,0.19994809999980134,0.7525946000000658
RSVPLG03,si,20260409-160825,1.0.2,20260219-152011,819,Practice,T1,1,Automatic,main,1,20260409-160855,global,global,750,S,H,A,A,S-A.png,H-A.png,sS,hH,mask-3.png,mask-1.png,s,1,0.6521397999999863,none,-5,0,0.04478819999985717,0.05007179999984146,0.09497389999978623,0.10066760000017894,0.7448245999999017
RSVPLG03,si,20260409-160825,1.0.2,20260219-152011,819,Practice,T1,1,Automatic,main,2,20260409-160859,local,global,300,H,H,E,E,E-H.png,H-E.png,hH,hH,mask-4.png,mask-3.png,h,1,1.2198769000001448,none,-5,0,0.04863699999987148,0.048269900000377675,0.09981560000005629,0.09881070000028558,0.2998718999997436
RSVPLG03,si,20260409-160825,1.0.2,20260219-152011,819,Practice,T1,1,Automatic,main,3,20260409-160904,global,global,300,S,H,A,A,S-A.png,H-A.png,sS,hH,mask-3.png,mask-3.png,s,1,0.8513572000001659,none,-5,0,0.0494645999997374,0.05115410000007614,0.0989516999998159,0.10210110000025452,0.298452499999712
RSVPLG03,si,20260409-160825,1.0.2,20260219-152011,819,Practice,T1,1,Automatic,main,4,20260409-160909,global,global,750,S,S,A,A,S-A.png,S-A.png,sS,sS,mask-1.png,mask-4.png,s,1,0.863045499999771,none,-5,0,0.05028000000038446,0.05063530000006722,0.09983039999997345,0.10128060000033656,0.7483326999999917
RSVPLG03,si,20260409-160825,1.0.2,20260219-152011,819,Practice,T1,1,Automatic,main,5,20260409-160913,local,global,300,S,S,E,E,E-S.png,S-E.png,sS,sS,mask-1.png,mask-1.png,s,1,0.8809473999999682,none,-5,0,0.050515400000222144,0.0485873000002357,0.1019282000002022,0.09888649999993504,0.30082850000007966
RSVPLG03,si,20260409-160825,1.0.2,20260219-152011,819,Practice,T1,1,Automatic,main,6,20260409-160918,local,local,750,S,H,E,A,E-S.png,A-H.png,sS,hH,mask-4.png,mask-1.png,s,1,0.5503032999999959,none,-5,0,0.049107700000149634,0.0502240000000711,0.0995508000000882,0.10087079999993875,0.7490461000002142
RSVPLG03,si,20260409-160825,1.0.2,20260219-152011,819,Practice,T1,1,Automatic,main,7,20260409-160922,global,local,300,H,H,E,A,H-E.png,A-H.png,hH,hH,mask-3.png,mask-4.png,h,1,1.427209199999652,none,-5,0,0.04943430000002991,0.04936309999993682,0.10260130000006029,0.09950099999969098,0.30081020000034187
RSVPLG03,si,20260409-160825,1.0.2,20260219-152011,819,Practice,T1,1,Automatic,main,8,20260409-160927,local,local,300,S,S,A,E,A-S.png,E-S.png,sS,sS,mask-3.png,mask-2.png,s,1,0.7629632000002857,none,-5,0,0.051256000000194035,0.05202800000006391,0.10228580000011789,0.1025297999999566,0.2994297000000188
RSVPLG03,si,20260409-160825,1.0.2,20260219-152011,819,Practice,T1,1,Automatic,main,9,20260409-160932,global,local,750,S,H,E,E,S-E.png,E-H.png,sS,hH,mask-4.png,mask-4.png,s,1,0.5555315999999948,none,-5,0,0.05012570000008054,0.04989980000027572,0.10185219999993933,0.09876699999995253,0.7496877999997196
RSVPLG03,si,20260409-160825,1.0.2,20260219-152011,819,Practice,T1,1,Automatic,main,10,20260409-160936,local,local,750,H,H,A,A,A-H.png,A-H.png,hH,hH,mask-3.png,mask-3.png,h,1,0.4232020999997985,none,-5,0,0.04886759999999413,0.0497574999999415,0.0985342000003584,0.10116340000013224,0.749851800000215
RSVPLG03,si,20260409-160825,1.0.2,20260219-152011,819,Practice,T1,1,Automatic,main,11,20260409-160941,global,global,300,H,H,E,A,H-E.png,H-A.png,hH,hH,mask-3.png,mask-4.png,h,1,1.3215823999998975,none,-5,0,0.04913619999979346,0.05058950000011464,0.09889530000009472,0.10150520000024699,0.2985561999998936
RSVPLG03,si,20260409-160825,1.0.2,20260219-152011,819,Practice,T1,1,Automatic,main,12,20260409-160946,global,local,300,S,S,E,A,S-E.png,A-S.png,sS,sS,mask-4.png,mask-3.png,s,1,0.36673979999977746,none,-5,0,0.0506548000003022,0.049878500000431814,0.10102960000040184,0.09966540000004898,0.3001451000000088
RSVPLG03,si,20260409-160825,1.0.2,20260219-152011,819,Practice,T1,1,Automatic,main,13,20260409-160949,local,global,750,H,S,A,A,A-H.png,S-A.png,hH,sS,mask-2.png,mask-1.png,h,1,0.8871535999996922,none,-5,0,0.0489770000003773,0.04834039999968809,0.09970060000023295,0.09818809999978839,0.7511673000003611
RSVPLG03,si,20260409-160825,1.0.2,20260219-152011,819,Practice,T1,1,Automatic,main,14,20260409-160954,global,local,750,H,H,A,A,H-A.png,A-H.png,hH,hH,mask-1.png,mask-2.png,h,1,0.8369606999999633,none,-5,0,0.04985190000024886,0.050616099999842845,0.10015490000023419,0.09963620000007722,0.7494197000000895
RSVPLG03,si,20260409-160825,1.0.2,20260219-152011,819,Practice,T1,1,Automatic,main,15,20260409-160959,local,global,750,S,H,A,E,A-S.png,H-E.png,sS,hH,mask-3.png,mask-1.png,s,1,0.8150540000001456,none,-5,0,0.049953499999901396,0.05172069999980522,0.09881139999970401,0.0999920999997812,0.7480083999998897
RSVPLG03,si,20260409-160825,1.0.2,20260219-152011,819,Practice,T1,1,Automatic,main,16,20260409-161004,local,local,300,H,H,A,E,A-H.png,E-H.png,hH,hH,mask-3.png,mask-3.png,s,0,1.8680193999998664,none,-5,0,0.05042189999994662,0.04841519999990851,0.0993785000000571,0.09960929999988366,0.3008868000001712
RSVPLG03,si,20260409-161048,1.0.2,20260219-152011,819,Introduction,Both,1,Automatic,main,1,20260409-161114,global,local,750,S,H,E,E,S-E.png,E-H.png,sS,hH,mask-1.png,mask-1.png,s,1,1.095345499999894,h,1,2.432902500000182,0.08734020000019882,0.1001166999999441,0.18807190000006813,0.19970069999999396,0.7319310000002588
RSVPLG03,si,20260409-161048,1.0.2,20260219-152011,819,Introduction,Both,1,Automatic,main,2,20260409-161122,local,global,750,H,S,E,A,E-H.png,S-A.png,hH,sS,mask-1.png,mask-4.png,s,0,2.0331704000000173,h,0,3.546205600000121,0.10000680000030115,0.0990895000004457,0.19707070000004023,0.19890220000024783,0.7439472999999452
RSVPLG03,si,20260409-161048,1.0.2,20260219-152011,819,Introduction,Both,1,Automatic,main,3,20260409-161132,local,global,750,H,S,A,E,A-H.png,S-E.png,hH,sS,mask-1.png,mask-4.png,s,0,1.349823699999888,h,0,4.528813599999921,0.09851069999967876,0.10086910000018179,0.19879880000007688,0.1990154000000075,0.7431846999998015
RSVPLG03,si,20260409-161048,1.0.2,20260219-152011,819,Introduction,Both,1,Automatic,main,4,20260409-161142,global,local,750,S,S,A,A,S-A.png,A-S.png,sS,sS,mask-2.png,mask-2.png,s,1,1.6581358000003092,s,1,4.234135799999876,0.09667229999968185,0.09849720000011075,0.19803849999971135,0.19810280000001512,0.7442183999996814
RSVPLG03,si,20260409-161048,1.0.2,20260219-152011,819,Introduction,Both,1,Automatic,main,5,20260409-161152,local,local,750,H,S,E,A,E-H.png,A-S.png,hH,sS,mask-4.png,mask-3.png,h,1,2.3633724999999686,s,1,0.7855899999999565,0.09886189999997441,0.09850550000010116,0.19822819999990315,0.1985197999997581,0.7450322999998207
RSVPLG03,si,20260409-161048,1.0.2,20260219-152011,819,Introduction,Both,1,Automatic,main,6,20260409-161159,global,global,750,H,S,A,E,H-A.png,S-E.png,hH,sS,mask-3.png,mask-1.png,h,1,2.220387800000026,s,1,0.9054520999998203,0.09910009999975955,0.09902280000005703,0.1980359999997745,0.19778830000041125,0.7440076999996563
RSVPLG03,si,20260409-161048,1.0.2,20260219-152011,819,Introduction,Both,1,Automatic,main,7,20260409-161206,global,global,750,H,S,A,E,H-A.png,S-E.png,hH,sS,mask-1.png,mask-3.png,h,1,1.6988322000001972,s,1,0.990349900000183,0.0984918000003745,0.09915069999988191,0.1991302999999789,0.19983779999984108,0.745032600000286
RSVPLG03,si,20260409-161048,1.0.2,20260219-152011,819,Introduction,Both,1,Automatic,main,8,20260409-161213,local,global,750,H,S,A,A,A-H.png,S-A.png,hH,sS,mask-4.png,mask-3.png,h,1,1.6380719999997382,s,1,0.9659160000001066,0.09838939999963259,0.09974509999983638,0.199899099999584,0.19827669999995123,0.7441377999998622
RSVPLG03,si,20260409-161048,1.0.2,20260219-152011,819,Introduction,Both,1,Automatic,main,9,20260409-161220,global,local,750,S,H,A,E,S-A.png,E-H.png,sS,hH,mask-4.png,mask-4.png,s,1,1.527106200000162,h,1,0.8730577000001176,0.0996101999999155,0.09944760000007591,0.1990990999997848,0.19840530000010403,0.7439854999997806
RSVPLG03,si,20260409-161048,1.0.2,20260219-152011,819,Introduction,Both,1,Automatic,main,10,20260409-161227,global,global,750,S,S,E,A,S-E.png,S-A.png,sS,sS,mask-1.png,mask-4.png,s,1,1.5804435000000012,s,1,1.1307518999997228,0.10088360000008834,0.10078479999992851,0.19838160000017524,0.19980419999956212,0.7445759000001999
RSVPLG03,si,20260409-161048,1.0.2,20260219-152011,819,Introduction,Both,1,Automatic,main,11,20260409-161234,global,local,750,S,H,A,E,S-A.png,E-H.png,sS,hH,mask-1.png,mask-4.png,s,1,2.675781999999799,h,1,3.833825700000034,0.09959380000009332,0.09962419999965277,0.19925609999972949,0.19866529999990235,0.743828300000132
RSVPLG03,si,20260409-161048,1.0.2,20260219-152011,819,Introduction,Both,1,Automatic,main,12,20260409-161244,local,local,750,H,S,E,E,E-H.png,E-S.png,hH,sS,mask-4.png,mask-2.png,h,1,1.376007700000173,s,1,0.7612429000000702,0.09929340000007869,0.09768230000008771,0.1986512000003131,0.1964479999996911,0.7462177000002157
RSVPLG03,si,20260409-161048,1.0.2,20260219-152011,819,Introduction,Both,1,Automatic,main,13,20260409-161251,local,local,750,H,S,E,E,E-H.png,E-S.png,hH,sS,mask-4.png,mask-4.png,h,1,1.773832500000026,s,1,1.0777644999998302,0.1001283999999032,0.09994879999976547,0.19911069999989195,0.19810819999975138,0.7457361000001583
RSVPLG03,si,20260409-161048,1.0.2,20260219-152011,819,Introduction,Both,1,Automatic,main,14,20260409-161258,global,global,750,S,S,A,E,S-A.png,S-E.png,sS,sS,mask-2.png,mask-4.png,s,1,1.6509048000002622,s,1,1.3142794999998841,0.10033059999977922,0.09950359999993452,0.1972710999998526,0.19924889999992956,0.7435959999997976
RSVPLG03,si,20260409-161048,1.0.2,20260219-152011,819,Introduction,Both,1,Automatic,main,15,20260409-161305,local,local,750,H,S,E,A,E-H.png,A-S.png,hH,sS,mask-3.png,mask-1.png,h,1,1.2498451000001296,s,1,1.2966544000000795,0.09925129999965066,0.09792550000020128,0.1985895999996501,0.19671100000005026,0.745358799999849
RSVPLG03,si,20260409-161048,1.0.2,20260219-152011,819,Introduction,Both,1,Automatic,main,16,20260409-161312,local,global,750,H,H,E,E,E-H.png,H-E.png,hH,hH,mask-1.png,mask-2.png,h,1,2.811105199999929,h,1,2.258321799999976,0.09754269999984899,0.09835739999971338,0.19774259999985588,0.19771069999978863,0.7445944000000964
RSVPLG03,si,20260409-161659,1.0.2,20260219-152011,819,Practice,Both,1,Automatic,main,1,20260409-161718,local,global,300,S,H,A,E,A-S.png,H-E.png,sS,hH,mask-3.png,mask-1.png,s,1,1.0715669000001071,h,1,1.7761958999999479,0.05041400000027352,0.04996489999984988,0.09982780000018465,0.10013009999966016,0.2997053000003689
RSVPLG03,si,20260409-161659,1.0.2,20260219-152011,819,Practice,Both,1,Automatic,main,2,20260409-161724,global,global,750,H,S,A,A,H-A.png,S-A.png,hH,sS,mask-2.png,mask-3.png,h,1,1.545960599999944,s,1,1.7461017999999058,0.04994759999999587,0.050800900000012916,0.10075219999998808,0.09967700000015611,0.7502651999998307
RSVPLG03,si,20260409-161659,1.0.2,20260219-152011,819,Practice,Both,1,Automatic,main,3,20260409-161732,local,global,300,S,H,A,E,A-S.png,H-E.png,sS,hH,mask-1.png,mask-4.png,s,1,2.1375201000000743,s,0,3.246532500000285,0.05087149999963003,0.05260600000019622,0.09966020000001663,0.10078750000002401,0.2984377999996468
RSVPLG03,si,20260409-161659,1.0.2,20260219-152011,819,Practice,Both,1,Automatic,main,4,20260409-161741,local,local,300,S,H,A,A,A-S.png,A-H.png,sS,hH,mask-2.png,mask-4.png,s,1,1.5014553999999407,h,1,1.4572825999998713,0.04879029999983686,0.051548100000218255,0.0995136999999886,0.1022582999999031,0.2981915999998819
RSVPLG03,si,20260409-161659,1.0.2,20260219-152011,819,Practice,Both,1,Automatic,main,5,20260409-161747,local,local,300,H,H,A,A,A-H.png,A-H.png,hH,hH,mask-3.png,mask-2.png,h,1,1.2130428000000393,s,0,1.3291826999998193,0.04980840000007447,0.0498422999999093,0.09976759999972273,0.09961669999984224,0.29987359999995533
RSVPLG03,si,20260409-161659,1.0.2,20260219-152011,819,Practice,Both,1,Automatic,main,6,20260409-161754,global,global,300,S,S,E,E,S-E.png,S-E.png,sS,sS,mask-1.png,mask-2.png,s,1,1.4854959999997845,s,1,1.0745139999999083,0.04988229999980831,0.04913489999989906,0.09967539999979635,0.09970750000002226,0.30021290000013323
RSVPLG03,si,20260409-161659,1.0.2,20260219-152011,819,Practice,Both,1,Automatic,main,7,20260409-161800,local,global,750,S,H,A,E,A-S.png,H-E.png,sS,hH,mask-1.png,mask-1.png,s,1,1.7306048000000374,h,1,0.7193882999999914,0.04906600000003891,0.051512000000002445,0.0992340999996486,0.10189720000016678,0.7482750999997734
RSVPLG03,si,20260409-161659,1.0.2,20260219-152011,819,Practice,Both,1,Automatic,main,8,20260409-161806,global,local,300,H,H,A,E,H-A.png,E-H.png,hH,hH,mask-4.png,mask-4.png,s,0,1.583110399999896,s,0,1.6593104000003223,0.05112559999997757,0.05231789999970715,0.09985439999991286,0.10159169999997175,0.29953329999989364
RSVPLG03,si,20260409-161659,1.0.2,20260219-152011,819,Practice,Both,1,Automatic,main,9,20260409-161813,global,global,750,S,S,A,E,S-A.png,S-E.png,sS,sS,mask-2.png,mask-4.png,s,1,1.6577554999998938,s,1,0.6511521000002176,0.04885289999992892,0.0493148000000474,0.09970000000021173,0.09847660000014002,0.7498694999999316
RSVPLG03,si,20260409-161659,1.0.2,20260219-152011,819,Practice,Both,1,Automatic,main,10,20260409-161819,local,local,750,H,H,A,A,A-H.png,A-H.png,hH,hH,mask-3.png,mask-2.png,h,1,1.6127390999999989,h,1,0.8102572999996482,0.049281600000085746,0.04886700000042765,0.10070900000027905,0.10027660000014293,0.7517440999999963
RSVPLG03,si,20260409-161659,1.0.2,20260219-152011,819,Practice,Both,1,Automatic,main,11,20260409-161826,global,global,300,H,S,E,E,H-E.png,S-E.png,hH,sS,mask-1.png,mask-3.png,h,1,3.5743812999999136,s,1,0.3340973999997914,0.04988259999981892,0.05163390000006984,0.10022539999999935,0.10189919999993435,0.29840310000008685
RSVPLG03,si,20260409-161659,1.0.2,20260219-152011,819,Practice,Both,1,Automatic,main,12,20260409-161834,local,local,750,H,S,E,E,E-H.png,E-S.png,hH,sS,mask-3.png,mask-1.png,h,1,1.2539785999997548,s,1,0.5862507000001642,0.04983009999978094,0.05056699999977354,0.10075879999976678,0.09982910000007905,0.7507612999997946
RSVPLG03,si,20260409-161659,1.0.2,20260219-152011,819,Practice,Both,1,Automatic,main,13,20260409-161840,global,local,750,S,S,A,E,S-A.png,E-S.png,sS,sS,mask-3.png,mask-2.png,s,1,1.776190399999905,h,0,0.5198301000000356,0.05232109999997192,0.05110629999990124,0.10102980000010575,0.10027290000016365,0.7501745999998093
RSVPLG03,si,20260409-161659,1.0.2,20260219-152011,819,Practice,Both,1,Automatic,main,14,20260409-161846,global,local,300,S,S,A,E,S-A.png,E-S.png,sS,sS,mask-1.png,mask-4.png,s,1,1.4965855000000374,s,1,1.7057271000003311,0.05114929999990636,0.0501590000003489,0.10073760000022958,0.09873740000011821,0.3013050999998086
RSVPLG03,si,20260409-161659,1.0.2,20260219-152011,819,Practice,Both,1,Automatic,main,15,20260409-161853,local,global,750,H,S,E,A,E-H.png,S-A.png,hH,sS,mask-2.png,mask-1.png,h,1,1.8182538000000932,s,1,3.8899351000000024,0.05207329999984722,0.05164180000019769,0.09939069999973071,0.10194129999990764,0.7498418999998648
RSVPLG03,si,20260409-161659,1.0.2,20260219-152011,819,Practice,Both,1,Automatic,main,16,20260409-161903,global,local,750,H,S,E,A,H-E.png,A-S.png,hH,sS,mask-2.png,mask-2.png,h,1,1.3894369999998162,h,0,1.110345099999904,0.050371499999982916,0.048434700000143494,0.10051789999988614,0.09959159999971234,0.7514000999999553
RSVPLG03,si,20260409-162032,1.0.2,20260219-152011,819,Experiment,Both,1,Automatic,warmup,1,20260409-162058,local,global,300,H,H,A,A,A-H.png,H-A.png,hH,hH,mask-4.png,mask-4.png,h,1,1.0937225000006947,s,0,0.8715888999995514,0.04870740000023943,0.05022769999959564,0.09868170000027021,0.10014260000025388,0.3004649000004065
RSVPLG03,si,20260409-162032,1.0.2,20260219-152011,819,Experiment,Both,1,Automatic,warmup,2,20260409-162103,local,local,300,H,S,E,A,E-H.png,A-S.png,hH,sS,mask-3.png,mask-2.png,h,1,1.6217106000003696,s,1,1.1141294999997626,0.04982689999997092,0.05163910000010219,0.09979750000002241,0.10124589999941236,0.3010503000004974
RSVPLG03,si,20260409-162032,1.0.2,20260219-152011,819,Experiment,Both,1,Automatic,warmup,3,20260409-162110,local,local,750,H,H,A,A,A-H.png,A-H.png,hH,hH,mask-1.png,mask-2.png,h,1,1.981070699999691,h,1,0.8081366999995225,0.050513799999862385,0.04980699999941862,0.09982249999939086,0.10105130000010831,0.75344159999986
RSVPLG03,si,20260409-162032,1.0.2,20260219-152011,819,Experiment,Both,1,Automatic,warmup,4,20260409-162117,global,local,750,S,S,E,A,S-E.png,A-S.png,sS,sS,mask-2.png,mask-1.png,s,1,2.039873400000033,h,0,0.8810544999996637,0.04976669999996375,0.04870099999970989,0.0985939000001963,0.09867500000018481,0.7540374000000156
RSVPLG03,si,20260409-162032,1.0.2,20260219-152011,819,Experiment,Both,1,Automatic,main,5,20260409-162124,local,global,300,H,H,A,A,A-H.png,H-A.png,hH,hH,mask-4.png,mask-2.png,h,1,1.8854350999999951,s,0,2.6022407000000385,0.04986940000071627,0.050220099999933154,0.10140960000080668,0.10092080000049464,0.29970270000012533
RSVPLG03,si,20260409-162032,1.0.2,20260219-152011,819,Experiment,Both,1,Automatic,main,6,20260409-162132,local,local,750,S,S,A,E,A-S.png,E-S.png,sS,sS,mask-2.png,mask-4.png,s,1,1.6844470999994883,s,1,1.1577501000001575,0.05014539999956469,0.05043579999983194,0.10104940000019269,0.10121900000012829,0.7519626000002972
RSVPLG03,si,20260409-162032,1.0.2,20260219-152011,819,Experiment,Both,1,Automatic,main,7,20260409-162139,global,global,300,S,S,E,A,S-E.png,S-A.png,sS,sS,mask-4.png,mask-2.png,s,1,1.9187120000005962,s,1,1.1609347000003254,0.050944300000082876,0.05152339999949618,0.1027924999998504,0.10037029999966762,0.30156669999996666
RSVPLG03,si,20260409-162032,1.0.2,20260219-152011,819,Experiment,Both,1,Automatic,main,8,20260409-162145,global,local,300,H,H,E,A,H-E.png,A-H.png,hH,hH,mask-3.png,mask-2.png,h,1,2.3981102999996438,h,1,1.7468423999998777,0.04997819999971398,0.04920330000004469,0.1007699000001594,0.0997627000006105,0.3019115999995847
RSVPLG03,si,20260409-162032,1.0.2,20260219-152011,819,Experiment,Both,1,Automatic,main,9,20260409-162153,local,global,300,H,S,E,E,E-H.png,S-E.png,hH,sS,mask-3.png,mask-3.png,h,1,1.9496767000000546,h,0,2.151790400000209,0.049645500000224274,0.04939230000036332,0.09887160000016593,0.09960350000073959,0.30163639999955194
RSVPLG03,si,20260409-162032,1.0.2,20260219-152011,819,Experiment,Both,1,Automatic,main,10,20260409-162201,local,global,750,S,H,E,E,E-S.png,H-E.png,sS,hH,mask-1.png,mask-1.png,s,1,2.6817509000002246,h,1,0.5222895000006247,0.047617799999898125,0.050334799999291135,0.10055209999973158,0.09868699999969976,0.7519779000003837
RSVPLG03,si,20260409-162032,1.0.2,20260219-152011,819,Experiment,Both,1,Automatic,main,11,20260409-162208,local,global,300,S,S,E,A,E-S.png,S-A.png,sS,sS,mask-4.png,mask-2.png,s,1,1.3734870999996929,s,1,2.074265700000069,0.051071399999273126,0.05205219999970723,0.10165839999990567,0.10011409999970056,0.3010260000000926
RSVPLG03,si,20260409-162032,1.0.2,20260219-152011,819,Experiment,Both,1,Automatic,main,12,20260409-162215,global,global,300,H,H,E,A,H-E.png,H-A.png,hH,hH,mask-3.png,mask-2.png,h,1,1.4935562999999092,h,1,1.136620700000094,0.051741900000706664,0.05055910000010044,0.10109040000043024,0.0995785999994041,0.30250560000058613
RSVPLG03,si,20260409-162032,1.0.2,20260219-152011,819,Experiment,Both,1,Automatic,main,13,20260409-162222,local,global,750,H,H,A,A,A-H.png,H-A.png,hH,hH,mask-4.png,mask-3.png,h,1,2.1888755999998466,s,0,2.5376879999994344,0.04988279999997758,0.050494699999944714,0.1007222999996884,0.09997519999978977,0.75202470000022
RSVPLG03,si,20260409-162032,1.0.2,20260219-152011,819,Experiment,Both,1,Automatic,main,14,20260409-162230,local,global,300,S,H,E,A,E-S.png,H-A.png,sS,hH,mask-3.png,mask-3.png,s,1,3.156238499999745,h,1,1.0321091999994678,0.05175709999912215,0.049962199999754375,0.10051639999983308,0.10007839999980206,0.30166709999957675
RSVPLG03,si,20260409-162032,1.0.2,20260219-152011,819,Experiment,Both,1,Automatic,main,15,20260409-162238,global,global,750,S,S,E,A,S-E.png,S-A.png,sS,sS,mask-2.png,mask-4.png,s,1,2.003783199999816,s,1,1.1853904999998122,0.04999339999994845,0.048055399999611836,0.09984609999992244,0.09827109999969252,0.7538174999999683
RSVPLG03,si,20260409-162032,1.0.2,20260219-152011,819,Experiment,Both,1,Automatic,main,16,20260409-162245,local,local,300,S,H,A,E,A-S.png,E-H.png,sS,hH,mask-3.png,mask-3.png,s,1,1.7357891999999993,h,1,1.0091779000003953,0.049653800000669435,0.048734199999671546,0.09911570000076608,0.09931899999992311,0.300465900000745
RSVPLG03,si,20260409-162032,1.0.2,20260219-152011,819,Experiment,Both,1,Automatic,main,17,20260409-162252,global,global,300,H,S,E,E,H-E.png,S-E.png,hH,sS,mask-3.png,mask-1.png,h,1,1.6723080000001573,s,1,0.5593877000001157,0.04912899999999354,0.049981999999545224,0.10021210000013525,0.09992199999942386,0.29982620000009774
RSVPLG03,si,20260409-162032,1.0.2,20260219-152011,819,Experiment,Both,1,Automatic,main,18,20260409-162258,local,global,750,H,H,E,A,E-H.png,H-A.png,hH,hH,mask-1.png,mask-3.png,h,1,1.1397874999993292,h,1,0.8172277000003305,0.05087159999948199,0.04983089999950607,0.0997373999998672,0.09938309999961348,0.7540043999997579
RSVPLG03,si,20260409-162032,1.0.2,20260219-152011,819,Experiment,Both,1,Automatic,main,19,20260409-162304,global,local,300,S,H,E,A,S-E.png,A-H.png,sS,hH,mask-1.png,mask-2.png,s,1,1.0164093999992474,h,1,2.32960120000007,0.04959919999964768,0.05075140000008105,0.10240059999978257,0.10246989999996003,0.30077669999991485
RSVPLG03,si,20260409-162032,1.0.2,20260219-152011,819,Experiment,Both,1,Automatic,main,20,20260409-162311,global,local,300,S,S,A,A,S-A.png,A-S.png,sS,sS,mask-3.png,mask-2.png,s,1,1.501249399999324,h,0,0.3698920000006183,0.049911600000086764,0.051547100000789214,0.10006060000068828,0.10051220000059402,0.3009130999998888
RSVPLG03,si,20260409-162032,1.0.2,20260219-152011,819,Experiment,Both,1,Automatic,main,21,20260409-162316,global,local,750,H,H,E,E,H-E.png,E-H.png,hH,hH,mask-3.png,mask-1.png,h,1,1.309021500000199,s,0,0.9328379999997196,0.05102119999992283,0.04989740000019083,0.10085580000031769,0.10095580000051996,0.7532560999998168
RSVPLG03,si,20260409-162032,1.0.2,20260219-152011,819,Experiment,Both,1,Automatic,main,22,20260409-162322,global,global,300,H,H,A,E,H-A.png,H-E.png,hH,hH,mask-2.png,mask-4.png,h,1,1.1672574000003806,h,1,1.073841999999786,0.04983350000020437,0.05234730000029231,0.10007730000052106,0.10205840000071476,0.30088549999982206
RSVPLG03,si,20260409-162032,1.0.2,20260219-152011,819,Experiment,Both,1,Automatic,main,23,20260409-162328,local,global,300,H,H,E,E,E-H.png,H-E.png,hH,hH,mask-1.png,mask-2.png,s,0,3.411709800000608,h,1,0.9768889000006311,0.049078000000008615,0.04993990000002668,0.10014409999985219,0.10001869999996416,0.30110789999980625
RSVPLG03,si,20260409-162032,1.0.2,20260219-152011,819,Experiment,Both,1,Automatic,main,24,20260409-162336,local,global,750,S,S,A,A,A-S.png,S-A.png,sS,sS,mask-1.png,mask-2.png,s,1,1.4604079999999158,s,1,0.6514053999999305,0.05105860000003304,0.05098699999962264,0.10095450000062556,0.10139479999998002,0.7529208000005383
RSVPLG03,si,20260409-162032,1.0.2,20260219-152011,819,Experiment,Both,1,Automatic,main,25,20260409-162342,global,local,750,S,H,A,E,S-A.png,E-H.png,sS,hH,mask-2.png,mask-2.png,s,1,0.8220393999999942,s,0,0.697051800000736,0.049701099999765574,0.04782049999994342,0.10023669999918638,0.09874969999964378,0.7533409999996366
RSVPLG03,si,20260409-162032,1.0.2,20260219-152011,819,Experiment,Both,1,Automatic,main,26,20260409-162425,global,local,300,H,S,A,A,H-A.png,A-S.png,hH,sS,mask-3.png,mask-2.png,h,1,0.9067466000005879,s,1,0.6717957999999271,0.04918610000004264,0.05000090000066848,0.10065850000046339,0.10020540000004985,0.3000843999998324
RSVPLG03,si,20260409-162032,1.0.2,20260219-152011,819,Experiment,Both,1,Automatic,main,27,20260409-162430,global,global,300,H,S,E,A,H-E.png,S-A.png,hH,sS,mask-1.png,mask-3.png,h,1,0.9283069000002797,s,1,0.6221599000000424,0.05072849999942264,0.051704200000131095,0.10055719999945723,0.10200299999996787,0.2995900999994774
RSVPLG03,si,20260409-162032,1.0.2,20260219-152011,819,Experiment,Both,1,Automatic,main,28,20260409-162435,local,global,300,S,H,E,A,E-S.png,H-A.png,sS,hH,mask-2.png,mask-2.png,s,1,1.764009999999871,h,1,1.52045679999992,0.0495799000000261,0.050558799999635085,0.0987886000002618,0.10077280000041355,0.3011186000003363
RSVPLG03,si,20260409-162032,1.0.2,20260219-152011,819,Experiment,Both,1,Automatic,main,29,20260409-162442,local,global,300,S,S,A,A,A-S.png,S-A.png,sS,sS,mask-2.png,mask-2.png,s,1,1.9528657999999268,h,0,0.9997081999999864,0.04954360000010638,0.04945820000011736,0.09972139999990759,0.10018270000000484,0.3006335999998555
RSVPLG03,si,20260409-162032,1.0.2,20260219-152011,819,Experiment,Both,1,Automatic,main,30,20260409-162449,global,global,750,H,H,A,E,H-A.png,H-E.png,hH,hH,mask-1.png,mask-1.png,h,1,1.254752499999995,h,1,0.7350799000005281,0.05022510000071634,0.05002110000077664,0.1004253000000972,0.10000830000080896,0.7541007999998328
RSVPLG03,si,20260409-162032,1.0.2,20260219-152011,819,Experiment,Both,1,Automatic,main,31,20260409-162455,local,local,750,S,S,E,E,E-S.png,E-S.png,sS,sS,mask-2.png,mask-4.png,s,1,2.167489399999795,s,1,0.3586987999997291,0.04924420000043028,0.04955470000004425,0.09903980000035517,0.10022639999988314,0.7530446999999185
RSVPLG03,si,20260409-162032,1.0.2,20260219-152011,819,Experiment,Both,1,Automatic,main,32,20260409-162501,global,local,750,S,S,E,A,S-E.png,A-S.png,sS,sS,mask-3.png,mask-4.png,s,1,0.810653800000182,h,0,0.7297502000001259,0.049145999999382184,0.049005400000169175,0.09944670000004407,0.09913049999977375,0.752881399999751
RSVPLG03,si,20260409-162032,1.0.2,20260219-152011,819,Experiment,Both,1,Automatic,main,33,20260409-162507,local,global,750,H,H,E,E,E-H.png,H-E.png,hH,hH,mask-3.png,mask-2.png,h,1,2.2064165000001594,h,1,0.38568230000055337,0.049762399999963236,0.05024539999976696,0.10089870000047085,0.10059369999999035,0.7528443000001062
RSVPLG03,si,20260409-162032,1.0.2,20260219-152011,819,Experiment,Both,1,Automatic,main,34,20260409-162514,local,local,750,S,S,A,A,A-S.png,A-S.png,sS,sS,mask-3.png,mask-4.png,s,1,0.9892527000001792,s,1,0.3420372000000498,0.048221299999568146,0.04917070000010426,0.09962089999953605,0.09973690000060742,0.7518254999995406
RSVPLG03,si,20260409-162032,1.0.2,20260219-152011,819,Experiment,Both,1,Automatic,main,35,20260409-162519,local,local,300,S,H,A,A,A-S.png,A-H.png,sS,hH,mask-1.png,mask-2.png,s,1,1.4956019000001106,h,1,1.7675261000003957,0.04990079999970476,0.05023720000008325,0.10101039999972272,0.10052970000015193,0.3025757999994312
RSVPLG03,si,20260409-162032,1.0.2,20260219-152011,819,Experiment,Both,1,Automatic,main,36,20260409-162526,local,local,750,H,S,A,E,A-H.png,E-S.png,hH,sS,mask-1.png,mask-4.png,h,1,1.0837584999999308,s,1,0.29277149999961694,0.04836119999981747,0.04902570000012929,0.09844249999969179,0.09913789999973233,0.7522257999999056
RSVPLG03,si,20260409-162032,1.0.2,20260219-152011,819,Experiment,Both,1,Automatic,main,37,20260409-162531,global,local,300,S,H,A,A,S-A.png,A-H.png,sS,hH,mask-4.png,mask-3.png,s,1,0.6880836000000272,h,1,1.1698679000000993,0.050388200000270444,0.0488257999995767,0.09953649999988556,0.10128069999973377,0.30111200000010285
RSVPLG03,si,20260409-162032,1.0.2,20260219-152011,819,Experiment,Both,1,Automatic,main,38,20260409-162537,local,global,750,S,H,E,E,E-S.png,H-E.png,sS,hH,mask-1.png,mask-1.png,s,1,0.9188726000002134,h,1,0.36828570000034233,0.05108770000060758,0.05071779999980208,0.09996670000055019,0.09900839999954769,0.7528673000006165
RSVPLG03,si,20260409-162032,1.0.2,20260219-152011,819,Experiment,Both,1,Automatic,main,39,20260409-162542,local,global,750,S,S,E,E,E-S.png,S-E.png,sS,sS,mask-3.png,mask-3.png,s,1,1.1656477000005907,h,0,0.39152029999968363,0.05108730000029027,0.05007000000023254,0.10091300000021874,0.10231180000027962,0.7548976999996739
RSVPLG03,si,20260409-162032,1.0.2,20260219-152011,819,Experiment,Both,1,Automatic,main,40,20260409-162548,global,global,750,H,H,A,E,H-A.png,H-E.png,hH,hH,mask-1.png,mask-1.png,h,1,0.9015660999993997,h,1,0.30950360000042565,0.04941729999973177,0.050065100000210805,0.09851520000029268,0.1014671000002636,0.7511397999996916
RSVPLG03,si,20260409-162032,1.0.2,20260219-152011,819,Experiment,Both,1,Automatic,main,41,20260409-162553,global,global,750,H,H,A,A,H-A.png,H-A.png,hH,hH,mask-3.png,mask-4.png,h,1,0.6230249999998705,h,1,0.18227020000085759,0.0499614999998812,0.049795500000072934,0.102368299999398,0.10061769999992975,0.7539093999994293
RSVPLG03,si,20260409-162032,1.0.2,20260219-152011,819,Experiment,Both,1,Automatic,main,42,20260409-162558,global,global,300,S,S,E,E,S-E.png,S-E.png,sS,sS,mask-3.png,mask-2.png,s,1,1.1030144000005748,s,1,0.6142363999997542,0.052310400000351365,0.05142660000001342,0.10063960000024963,0.10208280000006198,0.30157150000013644
RSVPLG03,si,20260409-162032,1.0.2,20260219-152011,819,Experiment,Both,1,Automatic,main,43,20260409-162603,local,local,750,H,S,A,A,A-H.png,A-S.png,hH,sS,mask-2.png,mask-2.png,h,1,0.7785108999996737,h,0,0.3280384999998205,0.05104639999990468,0.05055839999931777,0.10028320000037638,0.09969449999971403,0.7526107000003321
RSVPLG03,si,20260409-162032,1.0.2,20260219-152011,819,Experiment,Both,1,Automatic,main,44,20260409-162609,global,global,300,H,S,A,E,H-A.png,S-E.png,hH,sS,mask-4.png,mask-2.png,h,1,0.8810622000000876,s,1,0.21687760000077105,0.0500661999994918,0.05121839999992517,0.10149169999931473,0.10163109999939479,0.30140339999979915
RSVPLG03,si,20260409-162032,1.0.2,20260219-152011,819,Experiment,Both,1,Automatic,main,45,20260409-162613,global,local,300,H,H,E,E,H-E.png,E-H.png,hH,hH,mask-1.png,mask-4.png,h,1,0.8295996999995623,s,0,0.2948929999993197,0.05006870000033814,0.05059210000035819,0.09924919999957638,0.10009760000048118,0.3003315999994811
RSVPLG03,si,20260409-162032,1.0.2,20260219-152011,819,Experiment,Both,1,Automatic,main,46,20260409-162618,global,global,750,H,S,E,A,H-E.png,S-A.png,hH,sS,mask-4.png,mask-1.png,h,1,1.0105664000002434,s,1,0.19106210000063584,0.050029999999424035,0.05107200000020384,0.1006043999996109,0.10125390000030166,0.754434599999513
RSVPLG03,si,20260409-162032,1.0.2,20260219-152011,819,Experiment,Both,1,Automatic,main,47,20260409-162623,global,local,750,S,S,E,A,S-E.png,A-S.png,sS,sS,mask-2.png,mask-3.png,s,1,1.0908527000001413,s,1,2.8640080000004673,0.05108300000028976,0.05056759999934002,0.10046489999967889,0.10017389999939041,0.7536974000004193
RSVPLG03,si,20260409-162032,1.0.2,20260219-152011,819,Experiment,Both,1,Automatic,main,48,20260409-162631,local,local,300,S,S,A,A,A-S.png,A-S.png,sS,sS,mask-1.png,mask-3.png,h,0,0.7149263999999675,s,1,0.17567779999990307,0.050489500000367116,0.04929739999988669,0.10089820000030159,0.10071419999985665,0.3019408000000112
RSVPLG03,si,20260409-162032,1.0.2,20260219-152011,819,Experiment,Both,1,Automatic,main,49,20260409-162636,global,local,300,H,H,E,E,H-E.png,E-H.png,hH,hH,mask-2.png,mask-4.png,h,1,1.644688400000632,s,0,0.19118640000033338,0.050218499999573396,0.04966679999961343,0.1007182000003013,0.0999842000001081,0.30215010000028997
RSVPLG03,si,20260409-162032,1.0.2,20260219-152011,819,Experiment,Both,1,Automatic,main,50,20260409-162641,local,global,750,H,H,E,E,E-H.png,H-E.png,hH,hH,mask-1.png,mask-2.png,h,1,1.4667021999994176,s,0,0.1090185000002748,0.050242899999830115,0.05119829999966896,0.10128160000022035,0.1017837999997937,0.7518865000001824
RSVPLG03,si,20260409-162032,1.0.2,20260219-152011,819,Experiment,Both,1,Automatic,main,51,20260409-162729,local,global,300,H,H,E,A,E-H.png,H-A.png,hH,hH,mask-1.png,mask-1.png,s,0,1.226793899999393,h,1,2.030988599999546,0.05034519999935583,0.04803430000083608,0.09954629999992903,0.10022370000024239,0.30147929999930057
RSVPLG03,si,20260409-162032,1.0.2,20260219-152011,819,Experiment,Both,1,Automatic,main,52,20260409-162736,local,local,300,H,S,E,A,E-H.png,A-S.png,hH,sS,mask-3.png,mask-2.png,h,1,0.9223186999997779,s,1,0.2320555999995122,0.05121710000003077,0.04888599999958387,0.10142919999998412,0.1002664999996341,0.3008288999999422
RSVPLG03,si,20260409-162032,1.0.2,20260219-152011,819,Experiment,Both,1,Automatic,main,53,20260409-162741,local,global,300,H,H,E,A,E-H.png,H-A.png,hH,hH,mask-3.png,mask-4.png,h,1,0.9022568999998839,s,0,0.3037845000008019,0.05013220000000729,0.051027099999373604,0.10008879999986675,0.10114079999948444,0.30155980000017735
RSVPLG03,si,20260409-162032,1.0.2,20260219-152011,819,Experiment,Both,1,Automatic,main,54,20260409-162746,local,global,750,H,S,E,E,E-H.png,S-E.png,hH,sS,mask-2.png,mask-3.png,h,1,1.0911143000002994,s,1,0.29518540000026405,0.04956450000008772,0.05051189999994676,0.09959410000010394,0.1000026000001526,0.7532205999996222
RSVPLG03,si,20260409-162032,1.0.2,20260219-152011,819,Experiment,Both,1,Automatic,main,55,20260409-162751,global,global,750,H,S,A,E,H-A.png,S-E.png,hH,sS,mask-4.png,mask-4.png,h,1,0.690407299999606,s,1,1.0319823999998334,0.04765240000051563,0.04897470000014437,0.09856920000038372,0.09928489999947487,0.7527137000006405
RSVPLG03,si,20260409-162032,1.0.2,20260219-152011,819,Experiment,Both,1,Automatic,main,56,20260409-162757,global,local,750,H,S,A,A,H-A.png,A-S.png,hH,sS,mask-2.png,mask-3.png,h,1,0.7973927999992156,s,1,0.5117175000004863,0.05064169999968726,0.04887550000057672,0.10112570000001142,0.1002877000000808,0.7538705999995727
RSVPLG03,si,20260409-162032,1.0.2,20260219-152011,819,Experiment,Both,1,Automatic,main,57,20260409-162802,local,local,750,S,S,A,E,A-S.png,E-S.png,sS,sS,mask-4.png,mask-3.png,s,1,1.9569143999997323,s,1,0.31956560000071477,0.04995249999956286,0.050672299999860115,0.10084209999968152,0.10026019999986602,0.7523196000001917
RSVPLG03,si,20260409-162032,1.0.2,20260219-152011,819,Experiment,Both,1,Automatic,main,58,20260409-162809,global,global,300,H,S,A,E,H-A.png,S-E.png,hH,sS,mask-2.png,mask-3.png,h,1,0.8020542999993268,s,1,0.473380399999769,0.04984789999980421,0.05197210000005725,0.09883890000037354,0.10138439999991533,0.29968540000027133
RSVPLG03,si,20260409-162032,1.0.2,20260219-152011,819,Experiment,Both,1,Automatic,main,59,20260409-162814,local,local,750,H,H,E,E,E-H.png,E-H.png,hH,hH,mask-4.png,mask-4.png,h,1,1.3519556999999622,h,1,0.2619697999998607,0.0494777999992948,0.051587999999355816,0.10012000000006083,0.10119849999955477,0.7517533000000185
RSVPLG03,si,20260409-162032,1.0.2,20260219-152011,819,Experiment,Both,1,Automatic,main,60,20260409-162819,local,local,300,S,S,E,A,E-S.png,A-S.png,sS,sS,mask-3.png,mask-1.png,s,1,0.5314186000005066,s,1,0.3454496999993353,0.0507673000001887,0.048921500000687956,0.10060169999997015,0.09853620000012597,0.302233299999898
RSVPLG03,si,20260409-162032,1.0.2,20260219-152011,819,Experiment,Both,1,Automatic,main,61,20260409-162824,global,local,750,S,H,A,E,S-A.png,E-H.png,sS,hH,mask-3.png,mask-4.png,h,0,4.4994462000004205,s,0,1.1845193999997718,0.04991789999985485,0.050982400000066264,0.10123339999972814,0.09992109999984677,0.7519514000005074
RSVPLG03,si,20260409-162032,1.0.2,20260219-152011,819,Experiment,Both,1,Automatic,main,62,20260409-162834,global,global,300,H,S,E,A,H-E.png,S-A.png,hH,sS,mask-1.png,mask-1.png,h,1,0.8049727999996321,s,1,0.5425664999993387,0.051146499999958905,0.050231000000167114,0.10129389999929117,0.1007792000000336,0.3011931999999433
RSVPLG03,si,20260409-162032,1.0.2,20260219-152011,819,Experiment,Both,1,Automatic,main,63,20260409-162839,global,global,750,S,H,A,E,S-A.png,H-E.png,sS,hH,mask-3.png,mask-4.png,s,1,0.4877181000001656,h,1,0.48994260000017675,0.0502569999998741,0.0494408000004114,0.09997740000017075,0.09927669999979116,0.7529905999999755
RSVPLG03,si,20260409-162032,1.0.2,20260219-152011,819,Experiment,Both,1,Automatic,main,64,20260409-162844,local,local,750,S,S,E,E,E-S.png,E-S.png,sS,sS,mask-4.png,mask-1.png,s,1,1.4869251999998596,s,1,1.2749967999998262,0.04871960000036779,0.04997510000066541,0.09967000000051485,0.10040700000081415,0.751860399999714
RSVPLG03,si,20260409-162032,1.0.2,20260219-152011,819,Experiment,Both,1,Automatic,main,65,20260409-162851,global,local,750,S,H,E,E,S-E.png,E-H.png,sS,hH,mask-4.png,mask-3.png,s,1,1.3884979000004023,h,1,1.1419778999998016,0.04856359999939741,0.050146999999924446,0.10001529999954073,0.10074290000011388,0.7515233999993143
RSVPLG03,si,20260409-162032,1.0.2,20260219-152011,819,Experiment,Both,1,Automatic,main,66,20260409-162857,global,local,300,S,S,E,A,S-E.png,A-S.png,sS,sS,mask-2.png,mask-3.png,s,1,1.5728934999997364,h,0,1.0251978999995117,0.05014949999986129,0.049081500000283995,0.09946910000053322,0.09932899999967049,0.3005769000001237
RSVPLG03,si,20260409-162032,1.0.2,20260219-152011,819,Experiment,Both,1,Automatic,main,67,20260409-162903,global,local,750,S,S,E,A,S-E.png,A-S.png,sS,sS,mask-3.png,mask-2.png,s,1,0.8706013999999413,s,1,0.4798947999997836,0.04895219999980327,0.04952529999991384,0.09916669999984151,0.09994340000048396,0.7531445999993593
RSVPLG03,si,20260409-162032,1.0.2,20260219-152011,819,Experiment,Both,1,Automatic,main,68,20260409-162909,global,local,750,S,H,A,A,S-A.png,A-H.png,sS,hH,mask-4.png,mask-4.png,s,1,1.661798600000111,h,1,0.3994891000002099,0.04722899999978836,0.04922050000004674,0.09723469999971712,0.0995822999993834,0.7510306000003766
RSVPLG03,si,20260409-162032,1.0.2,20260219-152011,819,Experiment,Both,1,Automatic,main,69,20260409-162915,global,global,750,S,S,A,A,S-A.png,S-A.png,sS,sS,mask-3.png,mask-1.png,s,1,1.1155839000002743,s,1,0.1831638000003295,0.05072389999986626,0.051763699999355595,0.10032480000063515,0.10157639999943058,0.7521424000005936
RSVPLG03,si,20260409-162032,1.0.2,20260219-152011,819,Experiment,Both,1,Automatic,main,70,20260409-162920,global,local,750,S,S,A,E,S-A.png,E-S.png,sS,sS,mask-1.png,mask-4.png,s,1,0.7455850999995164,s,1,1.047483899999861,0.04949589999978343,0.050339399999757006,0.10001869999996416,0.10074369999983901,0.7533948999998756
RSVPLG03,si,20260409-162032,1.0.2,20260219-152011,819,Experiment,Both,1,Automatic,main,71,20260409-162926,local,local,300,H,H,E,E,E-H.png,E-H.png,hH,hH,mask-4.png,mask-4.png,s,0,3.0997511000005034,h,1,0.3898285000004762,0.049895800000740564,0.05109489999995276,0.1006452999999965,0.10185290000026725,0.2987778000006074
RSVPLG03,si,20260409-162032,1.0.2,20260219-152011,819,Experiment,Both,1,Automatic,main,72,20260409-162933,global,global,750,S,S,E,A,S-E.png,S-A.png,sS,sS,mask-1.png,mask-2.png,s,1,0.9425864999993792,s,1,0.2700800000002346,0.049329400000715395,0.05081829999926413,0.0988299000000552,0.1006360000001223,0.7511785000006057
RSVPLG03,si,20260409-162032,1.0.2,20260219-152011,819,Experiment,Both,1,Automatic,main,73,20260409-162939,global,global,750,S,S,E,E,S-E.png,S-E.png,sS,sS,mask-4.png,mask-4.png,s,1,0.5395285999993575,s,1,0.0924126999998407,0.04888699999992241,0.050489700000071025,0.10041219999948225,0.10103040000012697,0.7512746999991577
RSVPLG03,si,20260409-162032,1.0.2,20260219-152011,819,Experiment,Both,1,Automatic,main,74,20260409-162943,global,global,300,S,H,A,E,S-A.png,H-E.png,sS,hH,mask-4.png,mask-4.png,s,1,2.345933999999943,h,1,0.19200269999964803,0.04888350000055652,0.04967949999991106,0.09946490000038466,0.09997099999964121,0.2999120000004041
RSVPLG03,si,20260409-162032,1.0.2,20260219-152011,819,Experiment,Both,1,Automatic,main,75,20260409-162950,local,local,750,S,H,E,A,E-S.png,A-H.png,sS,hH,mask-4.png,mask-3.png,s,1,0.8930356000000756,h,1,0.23021630000039295,0.049395900000490656,0.04946540000037203,0.10071109999989858,0.10112000000026455,0.7524179000001823
RSVPLG03,si,20260409-162032,1.0.2,20260219-152011,819,Experiment,Both,1,Automatic,main,76,20260409-163030,local,local,300,H,H,E,A,E-H.png,A-H.png,hH,hH,mask-3.png,mask-4.png,h,1,1.3690631999998004,h,1,0.32627749999937805,0.049295900000288384,0.04873669999960839,0.09853639999982988,0.09865050000007614,0.30093310000029305
RSVPLG03,si,20260409-162032,1.0.2,20260219-152011,819,Experiment,Both,1,Automatic,main,77,20260409-163036,local,local,750,S,H,E,E,E-S.png,E-H.png,sS,hH,mask-2.png,mask-4.png,s,1,1.4019066000000748,h,1,0.1013226000004579,0.05023429999982909,0.05036349999954837,0.10172239999974408,0.10101860000031593,0.7532203999999183
RSVPLG03,si,20260409-162032,1.0.2,20260219-152011,819,Experiment,Both,1,Automatic,main,78,20260409-163041,local,local,750,S,S,A,E,A-S.png,E-S.png,sS,sS,mask-2.png,mask-2.png,s,1,1.2839137000000846,s,1,0.14342149999993126,0.05120089999945776,0.049157600000398816,0.10140549999960058,0.0993800000005649,0.7540237999992314
RSVPLG03,si,20260409-162032,1.0.2,20260219-152011,819,Experiment,Both,1,Automatic,main,79,20260409-163047,global,global,750,S,S,E,E,S-E.png,S-E.png,sS,sS,mask-1.png,mask-4.png,s,1,0.7518350000000282,s,1,0.28637960000014573,0.05033000000003085,0.048037900000053924,0.10006470000007539,0.09835969999949157,0.754675700000007
RSVPLG03,si,20260409-162032,1.0.2,20260219-152011,819,Experiment,Both,1,Automatic,main,80,20260409-163052,global,global,300,S,H,E,A,S-E.png,H-A.png,sS,hH,mask-3.png,mask-3.png,s,1,1.312420999999631,h,1,0.8952205000005051,0.050246599999809405,0.0513412000000244,0.09802839999974822,0.09981169999991835,0.299250199999733
RSVPLG03,si,20260409-162032,1.0.2,20260219-152011,819,Experiment,Both,1,Automatic,main,81,20260409-163058,local,local,300,H,H,E,A,E-H.png,A-H.png,hH,hH,mask-1.png,mask-1.png,h,1,1.2203943999993498,h,1,0.13384399999995367,0.0505022999996072,0.049855700000080105,0.10057789999973465,0.09863029999996797,0.30275199999960023
RSVPLG03,si,20260409-162032,1.0.2,20260219-152011,819,Experiment,Both,1,Automatic,main,82,20260409-163103,global,local,300,S,S,A,E,S-A.png,E-S.png,sS,sS,mask-4.png,mask-4.png,s,1,0.8991635000002134,s,1,0.20834699999977602,0.05036329999984446,0.04933419999997568,0.10092230000009295,0.09981500000048982,0.3017370999996274
RSVPLG03,si,20260409-162032,1.0.2,20260219-152011,819,Experiment,Both,1,Automatic,main,83,20260409-163108,local,global,750,S,H,A,E,A-S.png,H-E.png,sS,hH,mask-2.png,mask-4.png,s,1,1.4609924000005776,s,0,1.5585708999997223,0.050066400000105205,0.05083959999956278,0.09913559999949939,0.10018570000011096,0.7521778000000268
RSVPLG03,si,20260409-162032,1.0.2,20260219-152011,819,Experiment,Both,1,Automatic,main,84,20260409-163115,local,global,750,H,S,E,E,E-H.png,S-E.png,hH,sS,mask-2.png,mask-3.png,h,1,0.8991453999997248,s,1,0.3894709000005605,0.05024279999997816,0.04989770000065619,0.10063630000058765,0.10091370000009192,0.7546364999998332
RSVPLG03,si,20260409-162032,1.0.2,20260219-152011,819,Experiment,Both,1,Automatic,main,85,20260409-163120,local,local,300,H,S,E,E,E-H.png,E-S.png,hH,sS,mask-4.png,mask-3.png,h,1,1.2521089000001666,h,0,0.4477844000002733,0.04986110000027111,0.049125000000458385,0.10107530000004772,0.09963860000061686,0.30127600000014354
RSVPLG03,si,20260409-162032,1.0.2,20260219-152011,819,Experiment,Both,1,Automatic,main,86,20260409-163125,local,global,300,S,S,A,E,A-S.png,S-E.png,sS,sS,mask-1.png,mask-4.png,s,1,1.3381507000003694,s,1,0.32723820000046544,0.04891510000015842,0.04998859999977867,0.10072190000028058,0.10024960000009742,0.3002335999999559
RSVPLG03,si,20260409-162032,1.0.2,20260219-152011,819,Experiment,Both,1,Automatic,main,87,20260409-163131,local,local,750,S,H,E,A,E-S.png,A-H.png,sS,hH,mask-1.png,mask-4.png,s,1,0.9727294999993319,h,1,0.11489450000044599,0.04931739999938145,0.04966760000024806,0.09974789999978384,0.09945240000070044,0.7526230999992549
RSVPLG03,si,20260409-162032,1.0.2,20260219-152011,819,Experiment,Both,1,Automatic,main,88,20260409-163136,local,global,750,S,S,E,E,E-S.png,S-E.png,sS,sS,mask-1.png,mask-1.png,s,1,0.66492130000006,h,0,0.2322268999996595,0.050759100000504986,0.049697399999786285,0.10060610000073211,0.09953709999990679,0.7534411000006003
RSVPLG03,si,20260409-162032,1.0.2,20260219-152011,819,Experiment,Both,1,Automatic,main,89,20260409-163141,local,local,300,S,H,A,E,A-S.png,E-H.png,sS,hH,mask-3.png,mask-3.png,s,1,0.8607174999997369,h,1,1.0466550999999527,0.051649799999722745,0.049550599999747647,0.10129219999998895,0.10123870000006718,0.30142679999971733
RSVPLG03,si,20260409-162032,1.0.2,20260219-152011,819,Experiment,Both,1,Automatic,main,90,20260409-163146,global,global,300,S,H,E,E,S-E.png,H-E.png,sS,hH,mask-2.png,mask-4.png,h,0,1.2675749999998516,s,0,0.30249989999992977,0.04996029999983875,0.049819799999568204,0.10038720000011381,0.0994658999998137,0.30125240000052145
RSVPLG03,si,20260409-162032,1.0.2,20260219-152011,819,Experiment,Both,1,Automatic,main,91,20260409-163152,global,global,750,S,S,A,A,S-A.png,S-A.png,sS,sS,mask-3.png,mask-1.png,s,1,0.5344420999999784,s,1,0.21469009999964328,0.05005729999993491,0.04937249999966298,0.0981725000001461,0.09957369999938237,0.7526268000001437
RSVPLG03,si,20260409-162032,1.0.2,20260219-152011,819,Experiment,Both,1,Automatic,main,92,20260409-163156,local,global,300,S,H,E,A,E-S.png,H-A.png,sS,hH,mask-3.png,mask-4.png,s,1,0.8535606000004918,s,0,0.7455270000000382,0.05091729999912786,0.050778599999830476,0.10096519999933662,0.09988150000026508,0.2999720999996498
RSVPLG03,si,20260409-162032,1.0.2,20260219-152011,819,Experiment,Both,1,Automatic,main,93,20260409-163202,local,local,300,H,H,A,A,A-H.png,A-H.png,hH,hH,mask-3.png,mask-2.png,h,1,0.7585609000007025,h,1,0.3186312999996517,0.04996159999973315,0.051207099999373895,0.10025729999961186,0.10158030000002327,0.30059950000031677
RSVPLG03,si,20260409-162032,1.0.2,20260219-152011,819,Experiment,Both,1,Automatic,main,94,20260409-163206,global,local,300,H,S,E,A,H-E.png,A-S.png,hH,sS,mask-1.png,mask-4.png,h,1,1.4948506999999154,s,1,1.012183499999992,0.05088609999984328,0.05071399999997084,0.10188470000048255,0.09920549999969808,0.30089630000020406
RSVPLG03,si,20260409-162032,1.0.2,20260219-152011,819,Experiment,Both,1,Automatic,main,95,20260409-163212,local,local,300,H,H,A,A,A-H.png,A-H.png,hH,hH,mask-3.png,mask-1.png,h,1,0.7763724000005823,h,1,0.3505371000001105,0.05151980000027834,0.05112180000014632,0.10177469999962341,0.10192910000023403,0.3005014000000301
RSVPLG03,si,20260409-162032,1.0.2,20260219-152011,819,Experiment,Both,1,Automatic,main,96,20260409-163217,global,local,750,S,H,E,A,S-E.png,A-H.png,sS,hH,mask-2.png,mask-2.png,s,1,0.5003712999996424,h,1,0.5529599999999846,0.04951270000037766,0.04960620000019844,0.1002502999999706,0.10073580000062066,0.7541633999999249
RSVPLG03,si,20260409-162032,1.0.2,20260219-152011,819,Experiment,Both,1,Automatic,main,97,20260409-163222,global,local,750,H,S,A,E,H-A.png,E-S.png,hH,sS,mask-2.png,mask-1.png,h,1,0.38138880000042263,s,1,0.31860469999992347,0.04796769999938988,0.04911160000028758,0.10003759999926842,0.09951060000003054,0.7528034999995725
RSVPLG03,si,20260409-162032,1.0.2,20260219-152011,819,Experiment,Both,1,Automatic,main,98,20260409-163227,global,local,300,S,S,A,E,S-A.png,E-S.png,sS,sS,mask-2.png,mask-4.png,s,1,0.49681799999962095,h,0,0.6403984999997192,0.05037280000033206,0.05108569999993051,0.10051060000023426,0.09927580000021408,0.301507500000298
RSVPLG03,si,20260409-162032,1.0.2,20260219-152011,819,Experiment,Both,1,Automatic,main,99,20260409-163232,global,local,300,H,S,E,E,H-E.png,E-S.png,hH,sS,mask-2.png,mask-4.png,h,1,0.8389741999999387,s,1,0.5739371999998184,0.0499894000004133,0.049986600000011094,0.09938469999997324,0.10041940000064642,0.3000406999999541
RSVPLG03,si,20260409-162032,1.0.2,20260219-152011,819,Experiment,Both,1,Automatic,main,100,20260409-163237,local,global,300,H,S,A,A,A-H.png,S-A.png,hH,sS,mask-4.png,mask-1.png,h,1,0.8934647999994922,h,0,0.4792970999997124,0.04991669999981241,0.04824729999927513,0.10005699999965145,0.09905939999953262,0.3010448000004544
RSVPLG03,si,20260409-163306,1.0.2,20260219-152011,819,Experiment,Both,1,Automatic,warmup,1,20260409-163341,global,global,300,H,H,E,A,H-E.png,H-A.png,hH,hH,mask-3.png,mask-3.png,h,1,0.5762101999998777,h,1,0.24478799999997136,0.05007889999978943,0.04968139999982668,0.10043679999944288,0.09916749999956664,0.3006751000002623
RSVPLG03,si,20260409-163306,1.0.2,20260219-152011,819,Experiment,Both,1,Automatic,warmup,2,20260409-163345,global,global,750,H,S,E,E,H-E.png,S-E.png,hH,sS,mask-3.png,mask-3.png,h,1,0.6458138999996663,s,1,0.4480569999996078,0.05058569999982865,0.04982579999978043,0.10106289999930596,0.10000829999989946,0.7511844999999084
RSVPLG03,si,20260409-163306,1.0.2,20260219-152011,819,Experiment,Both,1,Automatic,warmup,3,20260409-163350,global,local,750,S,S,E,E,S-E.png,E-S.png,sS,sS,mask-2.png,mask-2.png,s,1,0.5214593999999124,s,1,0.27911369999947055,0.04916019999927812,0.04984080000031099,0.10020039999926666,0.09997149999981048,0.7494227999995928
RSVPLG03,si,20260409-163306,1.0.2,20260219-152011,819,Experiment,Both,1,Automatic,warmup,4,20260409-163355,local,global,300,S,S,A,A,A-S.png,S-A.png,sS,sS,mask-4.png,mask-1.png,s,1,0.8370709999999235,h,0,1.0024776000000202,0.04947479999918869,0.0503301000007923,0.09905059999982768,0.1015984000005119,0.2995976999991399
RSVPLG03,si,20260409-163306,1.0.2,20260219-152011,819,Experiment,Both,1,Automatic,main,5,20260409-163401,local,local,300,S,H,A,E,A-S.png,E-H.png,sS,hH,mask-2.png,mask-1.png,s,1,0.8455739000000904,h,1,0.20750869999938004,0.05147670000042126,0.05023440000059054,0.0990046999995684,0.10044860000016342,0.30093219999980647
RSVPLG03,si,20260409-163306,1.0.2,20260219-152011,819,Experiment,Both,1,Automatic,main,6,20260409-163405,global,global,750,S,H,A,A,S-A.png,H-A.png,sS,hH,mask-2.png,mask-2.png,s,1,1.7972747000003437,h,1,0.2701260000003458,0.05030979999992269,0.051686200000403915,0.09966200000053504,0.10191020000002027,0.7497303999998621
RSVPLG03,si,20260409-163306,1.0.2,20260219-152011,819,Experiment,Both,1,Automatic,main,7,20260409-163411,global,global,750,H,S,A,E,H-A.png,S-E.png,hH,sS,mask-2.png,mask-3.png,h,1,0.9282646000001478,s,1,0.24652510000032635,0.04994489999990037,0.04976079999960348,0.09979719999955705,0.10041499999988446,0.7513896999998906
RSVPLG03,si,20260409-163306,1.0.2,20260219-152011,819,Experiment,Both,1,Automatic,main,8,20260409-163417,local,global,750,S,H,E,E,E-S.png,H-E.png,sS,hH,mask-3.png,mask-1.png,s,1,0.7757203999999547,h,1,0.36869060000026366,0.05046229999970819,0.050795900000593974,0.10047489999942627,0.1001140000007581,0.7509372999993502
RSVPLG03,si,20260409-163306,1.0.2,20260219-152011,819,Experiment,Both,1,Automatic,main,9,20260409-163422,global,local,300,S,H,A,E,S-A.png,E-H.png,sS,hH,mask-2.png,mask-4.png,s,1,1.3057581000002756,h,1,0.5265956000002916,0.049806400000306894,0.049205000000256405,0.09883929999978136,0.09934710000015912,0.29990799999995943
RSVPLG03,si,20260409-163306,1.0.2,20260219-152011,819,Experiment,Both,1,Automatic,main,10,20260409-163428,local,global,750,S,S,A,E,A-S.png,S-E.png,sS,sS,mask-4.png,mask-2.png,h,0,0.6769239000004745,s,1,0.28808200000003126,0.05021349999969971,0.050236000000040804,0.09958939999978611,0.10056780000013532,0.7506345000001602
RSVPLG03,si,20260409-163306,1.0.2,20260219-152011,819,Experiment,Both,1,Automatic,main,11,20260409-163433,global,global,300,S,S,E,A,S-E.png,S-A.png,sS,sS,mask-1.png,mask-4.png,s,1,0.6940426999999545,s,1,1.0369847000001755,0.04954449999968347,0.04925710000043182,0.10064189999957307,0.0986244000005172,0.30190869999933057
RSVPLG03,si,20260409-163306,1.0.2,20260219-152011,819,Experiment,Both,1,Automatic,main,12,20260409-163438,local,global,750,S,S,A,E,A-S.png,S-E.png,sS,sS,mask-3.png,mask-2.png,s,1,0.9839136000000508,h,0,0.14327109999976528,0.04940790000000561,0.04878660000031232,0.09884770000007848,0.09897900000032678,0.7514177999992171
RSVPLG03,si,20260409-163306,1.0.2,20260219-152011,819,Experiment,Both,1,Automatic,main,13,20260409-163443,local,local,300,S,H,A,A,A-S.png,A-H.png,sS,hH,mask-4.png,mask-1.png,s,1,0.5988125000003492,h,1,0.11980260000018461,0.04955560000053083,0.050736199999846576,0.09934970000085741,0.10087039999962144,0.29909670000051847
RSVPLG03,si,20260409-163306,1.0.2,20260219-152011,819,Experiment,Both,1,Automatic,main,14,20260409-163448,local,local,750,H,H,E,E,E-H.png,E-H.png,hH,hH,mask-4.png,mask-3.png,h,1,0.6065791999999419,s,0,0.29570700000022043,0.04951639999944746,0.05165020000004006,0.10103549999985262,0.10061649999988731,0.7498330999997052
RSVPLG03,si,20260409-163306,1.0.2,20260219-152011,819,Experiment,Both,1,Automatic,main,15,20260409-163452,global,local,300,H,S,E,E,H-E.png,E-S.png,hH,sS,mask-4.png,mask-1.png,h,1,1.6048956999993607,s,1,0.4242921999993996,0.05004689999987022,0.04849920000015118,0.10086299999966286,0.10003950000009354,0.30138280000028317
RSVPLG03,si,20260409-163306,1.0.2,20260219-152011,819,Experiment,Both,1,Automatic,main,16,20260409-163458,local,global,750,H,S,A,A,A-H.png,S-A.png,hH,sS,mask-4.png,mask-4.png,h,1,0.700588599999719,s,1,1.3977296000002752,0.051234600000498176,0.048793999999361404,0.09987069999988307,0.10011229999963689,0.7523329000005106
RSVPLG03,si,20260409-163306,1.0.2,20260219-152011,819,Experiment,Both,1,Automatic,main,17,20260409-163504,local,local,750,S,H,E,A,E-S.png,A-H.png,sS,hH,mask-2.png,mask-4.png,s,1,1.699370799999997,h,1,0.5195831999999427,0.04978080000000773,0.049904000000424276,0.10067009999966103,0.09879040000032546,0.7505013999998482
RSVPLG03,si,20260409-163306,1.0.2,20260219-152011,819,Experiment,Both,1,Automatic,main,18,20260409-163511,global,global,300,S,S,E,E,S-E.png,S-E.png,sS,sS,mask-4.png,mask-2.png,s,1,1.4511257999993177,s,1,0.2937110000002576,0.050472800000534335,0.04985049999959301,0.10105810000004567,0.09938449999935983,0.30026030000044557
RSVPLG03,si,20260409-163306,1.0.2,20260219-152011,819,Experiment,Both,1,Automatic,main,19,20260409-163516,local,global,300,H,S,A,E,A-H.png,S-E.png,hH,sS,mask-2.png,mask-3.png,h,1,0.958190100000138,s,1,0.49656920000052196,0.04969789999995555,0.05121350000081293,0.09874700000000303,0.09985090000009222,0.29971669999940787
RSVPLG03,si,20260409-163306,1.0.2,20260219-152011,819,Experiment,Both,1,Automatic,main,20,20260409-163521,global,local,750,S,H,A,A,S-A.png,A-H.png,sS,hH,mask-2.png,mask-3.png,s,1,0.44368239999948855,h,1,0.31038689999968483,0.048259000000143715,0.04994299999998475,0.10010249999959342,0.09897650000038993,0.7505682999999408
RSVPLG03,si,20260409-163306,1.0.2,20260219-152011,819,Experiment,Both,1,Automatic,main,21,20260409-163526,global,global,750,H,H,A,A,H-A.png,H-A.png,hH,hH,mask-2.png,mask-1.png,h,1,0.7169176999996125,h,1,0.32793340000080207,0.05048990000068443,0.049494299999423674,0.10078000000066822,0.09975020000001678,0.7506036000004315
RSVPLG03,si,20260409-163306,1.0.2,20260219-152011,819,Experiment,Both,1,Automatic,main,22,20260409-163531,global,global,750,S,H,A,A,S-A.png,H-A.png,sS,hH,mask-2.png,mask-1.png,s,1,0.9465362999999343,h,1,0.22634720000041852,0.04864769999949203,0.0514272999998866,0.0973415999997087,0.10093219999998837,0.7491062999997666
RSVPLG03,si,20260409-163306,1.0.2,20260219-152011,819,Experiment,Both,1,Automatic,main,23,20260409-163536,local,local,300,H,S,E,A,E-H.png,A-S.png,hH,sS,mask-4.png,mask-4.png,h,1,0.6224269000003915,s,1,0.5753180000001521,0.049569099999644095,0.051038700000390236,0.09877640000013344,0.10121250000065629,0.2987729999995281
RSVPLG03,si,20260409-163306,1.0.2,20260219-152011,819,Experiment,Both,1,Automatic,main,24,20260409-163541,global,global,750,S,S,E,A,S-E.png,S-A.png,sS,sS,mask-1.png,mask-2.png,s,1,1.032079800000247,s,1,0.23050490000059654,0.05139690000032715,0.04942250000021886,0.10062879999986762,0.09816310000041994,0.7526853999997911
RSVPLG03,si,20260409-163306,1.0.2,20260219-152011,819,Experiment,Both,1,Automatic,main,25,20260409-163547,local,local,300,H,H,E,E,E-H.png,E-H.png,hH,hH,mask-2.png,mask-3.png,h,1,0.6591193000003841,h,1,0.25553339999987656,0.04943530000036844,0.051211699999839766,0.1007316000004721,0.10046760000022914,0.29950800000005984
RSVPLG03,si,20260409-163306,1.0.2,20260219-152011,819,Experiment,Both,1,Automatic,main,26,20260409-163641,local,global,300,H,H,A,E,A-H.png,H-E.png,hH,hH,mask-1.png,mask-2.png,h,1,0.5908309000005829,s,0,0.45373170000038954,0.051615100000162784,0.05044190000080562,0.1013794999998936,0.09917920000043523,0.3012927999998283
RSVPLG03,si,20260409-163306,1.0.2,20260219-152011,819,Experiment,Both,1,Automatic,main,27,20260409-163646,local,global,300,H,H,A,A,A-H.png,H-A.png,hH,hH,mask-4.png,mask-4.png,h,1,0.6079288999999335,s,0,1.0509861999998975,0.05155480000030366,0.049841499999274674,0.10082080000029237,0.09961229999953503,0.30114530000082596
RSVPLG03,si,20260409-163306,1.0.2,20260219-152011,819,Experiment,Both,1,Automatic,main,28,20260409-163651,global,global,300,H,S,A,E,H-A.png,S-E.png,hH,sS,mask-1.png,mask-3.png,h,1,0.5544583999999304,s,1,0.3444132000004174,0.05010870000023715,0.04911110000011831,0.10031530000014754,0.09831060000033176,0.3018642999995791
RSVPLG03,si,20260409-163306,1.0.2,20260219-152011,819,Experiment,Both,1,Automatic,main,29,20260409-163656,local,global,750,S,S,A,E,A-S.png,S-E.png,sS,sS,mask-4.png,mask-1.png,s,1,0.47448720000011235,h,0,0.566707399999359,0.05082190000030096,0.04969669999991311,0.10031450000042241,0.09975530000065191,0.7508226999998442
RSVPLG03,si,20260409-163306,1.0.2,20260219-152011,819,Experiment,Both,1,Automatic,main,30,20260409-163701,local,local,750,H,H,E,A,E-H.png,A-H.png,hH,hH,mask-2.png,mask-1.png,h,1,0.32537109999975655,h,1,0.23103899999932764,0.04833039999994071,0.050006999999823165,0.09965220000049158,0.10022870000011608,0.7493775000002643
RSVPLG03,si,20260409-163306,1.0.2,20260219-152011,819,Experiment,Both,1,Automatic,main,31,20260409-163706,local,local,750,H,H,A,A,A-H.png,A-H.png,hH,hH,mask-3.png,mask-1.png,h,1,0.3689702000001489,h,1,0.14248159999988275,0.051032600000326056,0.04961630000070727,0.10014279999995779,0.10089200000038545,0.7505941999997958
RSVPLG03,si,20260409-163306,1.0.2,20260219-152011,819,Experiment,Both,1,Automatic,main,32,20260409-163710,global,global,750,H,S,E,E,H-E.png,S-E.png,hH,sS,mask-1.png,mask-1.png,h,1,0.5795106999994459,s,1,0.27374670000062906,0.050089200000002165,0.0498237000001609,0.10063319999972009,0.10075179999967077,0.7514093999998295
RSVPLG03,si,20260409-163306,1.0.2,20260219-152011,819,Experiment,Both,1,Automatic,main,33,20260409-163715,global,local,300,H,H,E,E,H-E.png,E-H.png,hH,hH,mask-3.png,mask-2.png,h,1,0.594174099999691,s,0,0.12035800000012387,0.048808200000166835,0.050121999999646505,0.09866570000031061,0.1001269999997021,0.2995178000001033
RSVPLG03,si,20260409-163306,1.0.2,20260219-152011,819,Experiment,Both,1,Automatic,main,34,20260409-163719,local,local,750,S,S,E,E,E-S.png,E-S.png,sS,sS,mask-3.png,mask-1.png,s,1,0.7115335999997114,s,1,0.1043177999999898,0.050238200000421784,0.048523900000873255,0.09957030000077793,0.0987821000007898,0.7521538999999393
RSVPLG03,si,20260409-163306,1.0.2,20260219-152011,819,Experiment,Both,1,Automatic,main,35,20260409-163724,local,local,750,H,S,A,E,A-H.png,E-S.png,hH,sS,mask-3.png,mask-3.png,h,1,0.6881634999999733,h,0,0.5362115999996604,0.05078400000002148,0.05040259999987029,0.10025109999969573,0.09968899999967107,0.7509798999999475
RSVPLG03,si,20260409-163306,1.0.2,20260219-152011,819,Experiment,Both,1,Automatic,main,36,20260409-163730,local,local,750,H,S,A,E,A-H.png,E-S.png,hH,sS,mask-2.png,mask-3.png,h,1,0.8405604999998104,s,1,0.17648559999997815,0.05106960000011895,0.049627200000031735,0.10116120000020601,0.0993519000003289,0.7524620000003779
RSVPLG03,si,20260409-163306,1.0.2,20260219-152011,819,Experiment,Both,1,Automatic,main,37,20260409-163735,local,global,750,S,S,A,E,A-S.png,S-E.png,sS,sS,mask-4.png,mask-3.png,s,1,2.1461663000000044,h,0,0.08828520000042772,0.04962800000066636,0.048793499999192136,0.10023850000015955,0.09867339999982505,0.7522098000008555
RSVPLG03,si,20260409-163306,1.0.2,20260219-152011,819,Experiment,Both,1,Automatic,main,38,20260409-163741,local,local,750,S,S,E,A,E-S.png,A-S.png,sS,sS,mask-3.png,mask-1.png,s,1,0.6112767999993594,s,1,0.103374199999962,0.04928730000028736,0.04996190000019851,0.09906690000025264,0.10001620000002731,0.7500974000004135
RSVPLG03,si,20260409-163306,1.0.2,20260219-152011,819,Experiment,Both,1,Automatic,main,39,20260409-163746,local,global,750,H,S,E,A,E-H.png,S-A.png,hH,sS,mask-1.png,mask-2.png,h,1,0.5646232999997665,s,1,1.4964962999993077,0.04944760000034876,0.04892349999954604,0.09938599999986764,0.09841619999951945,0.751370300000417
RSVPLG03,si,20260409-163306,1.0.2,20260219-152011,819,Experiment,Both,1,Automatic,main,40,20260409-163752,local,local,750,H,H,E,A,E-H.png,A-H.png,hH,hH,mask-4.png,mask-1.png,h,1,0.4323173000002498,h,1,0.10381260000031034,0.05033800000001065,0.04959599999983766,0.1015627000006134,0.09933170000022074,0.752502800000002
RSVPLG03,si,20260409-163306,1.0.2,20260219-152011,819,Experiment,Both,1,Automatic,main,41,20260409-163756,global,local,750,H,H,E,E,H-E.png,E-H.png,hH,hH,mask-3.png,mask-2.png,h,1,0.8171647000008306,s,0,0.487637199999881,0.04975009999998292,0.05143009999937931,0.0999509000002945,0.09913429999960499,0.7501191000001199
RSVPLG03,si,20260409-163306,1.0.2,20260219-152011,819,Experiment,Both,1,Automatic,main,42,20260409-163802,local,local,300,H,H,E,E,E-H.png,E-H.png,hH,hH,mask-2.png,mask-2.png,h,1,1.0539974000002985,s,0,0.12003730000014912,0.05033910000020114,0.049093900000116264,0.09801130000050762,0.09931419999975333,0.2993770000002769
RSVPLG03,si,20260409-163306,1.0.2,20260219-152011,819,Experiment,Both,1,Automatic,main,43,20260409-163807,global,local,750,S,H,E,A,S-E.png,A-H.png,sS,hH,mask-2.png,mask-2.png,s,1,1.4826990000001388,h,1,0.22191060000022844,0.049941400000534486,0.05013200000030338,0.10033860000021377,0.09850530000039726,0.7518331000001126
RSVPLG03,si,20260409-163306,1.0.2,20260219-152011,819,Experiment,Both,1,Automatic,main,44,20260409-163812,global,local,300,S,H,A,A,S-A.png,A-H.png,sS,hH,mask-2.png,mask-4.png,s,1,0.6793851000002178,h,1,0.32968370000071445,0.04956419999962236,0.04931399999986752,0.09946099999979197,0.0991001000002143,0.3003116999998383
RSVPLG03,si,20260409-163306,1.0.2,20260219-152011,819,Experiment,Both,1,Automatic,main,45,20260409-163817,global,local,750,S,S,A,A,S-A.png,A-S.png,sS,sS,mask-1.png,mask-2.png,s,1,0.6814761999994516,s,1,0.8860729999996693,0.04958770000030199,0.0486588000003394,0.09983520000059798,0.09824230000049283,0.7508914000000004
RSVPLG03,si,20260409-163306,1.0.2,20260219-152011,819,Experiment,Both,1,Automatic,main,46,20260409-163823,local,local,750,S,H,E,E,E-S.png,E-H.png,sS,hH,mask-4.png,mask-1.png,s,1,0.6103340999998181,h,1,0.15081600000030448,0.0513093999998091,0.05003450000003795,0.1000250999995842,0.0994767000001957,0.7502511000002414
RSVPLG03,si,20260409-163306,1.0.2,20260219-152011,819,Experiment,Both,1,Automatic,main,47,20260409-163828,global,global,300,H,S,A,A,H-A.png,S-A.png,hH,sS,mask-3.png,mask-1.png,h,1,1.0076623000004474,s,1,0.11040769999999611,0.04924269999992248,0.0488642999998774,0.09805010000036418,0.09942569999930129,0.3000404000003982
RSVPLG03,si,20260409-163306,1.0.2,20260219-152011,819,Experiment,Both,1,Automatic,main,48,20260409-163832,global,local,300,H,H,E,E,H-E.png,E-H.png,hH,hH,mask-4.png,mask-2.png,h,1,0.863101199999619,s,0,0.8820783999999549,0.05026799999996001,0.049214300000130606,0.10039839999990363,0.09978430000046501,0.30124009999963164
RSVPLG03,si,20260409-163306,1.0.2,20260219-152011,819,Experiment,Both,1,Automatic,main,49,20260409-163838,global,local,300,H,S,A,A,H-A.png,A-S.png,hH,sS,mask-1.png,mask-2.png,h,1,0.6893724000001384,s,1,0.8168722000000344,0.050381000000015774,0.04905589999998483,0.09989700000005541,0.10021759999926871,0.2997488000000885
RSVPLG03,si,20260409-163306,1.0.2,20260219-152011,819,Experiment,Both,1,Automatic,main,50,20260409-163843,local,local,300,H,S,A,A,A-H.png,A-S.png,hH,sS,mask-4.png,mask-3.png,h,1,1.1351953999992475,s,1,0.6618218000003253,0.05003240000041842,0.051085100000818784,0.10017140000036306,0.1000966999999946,0.29841639999995095
RSVPLG03,si,20260409-163306,1.0.2,20260219-152011,819,Experiment,Both,1,Automatic,main,51,20260409-163944,local,global,300,S,S,E,A,E-S.png,S-A.png,sS,sS,mask-4.png,mask-4.png,s,1,0.6780030999998417,s,1,0.5100993999994898,0.050400099999933445,0.050365499999315944,0.10083679999934247,0.10077889999956824,0.3006513000000268
RSVPLG03,si,20260409-163306,1.0.2,20260219-152011,819,Experiment,Both,1,Automatic,main,52,20260409-163949,global,local,750,H,H,A,E,H-A.png,E-H.png,hH,hH,mask-1.png,mask-2.png,h,1,1.4634076000002096,s,0,0.6542785999999978,0.050170699999398494,0.04815749999943364,0.1003246999998737,0.09910369999943214,0.7522945000000618
RSVPLG03,si,20260409-163306,1.0.2,20260219-152011,819,Experiment,Both,1,Automatic,main,53,20260409-163955,global,global,750,H,H,E,E,H-E.png,H-E.png,hH,hH,mask-2.png,mask-4.png,h,1,0.3718872999997984,h,1,0.10351340000033815,0.049716499999703956,0.05089769999995042,0.10027199999967706,0.10073130000000674,0.7507069000002957
RSVPLG03,si,20260409-163306,1.0.2,20260219-152011,819,Experiment,Both,1,Automatic,main,54,20260409-164000,local,local,300,S,H,A,E,A-S.png,E-H.png,sS,hH,mask-2.png,mask-3.png,s,1,0.7055355000002237,h,1,0.0875209999994695,0.049499800000376126,0.04890299999988201,0.09966010000061942,0.10017710000010993,0.30111200000010285
RSVPLG03,si,20260409-163306,1.0.2,20260219-152011,819,Experiment,Both,1,Automatic,main,55,20260409-164004,global,global,750,H,S,A,A,H-A.png,S-A.png,hH,sS,mask-4.png,mask-4.png,h,1,0.4088689999998678,s,1,0.16819140000006882,0.05040199999984907,0.04985880000003817,0.10018880000006902,0.09987079999973503,0.7524928000002546
RSVPLG03,si,20260409-163306,1.0.2,20260219-152011,819,Experiment,Both,1,Automatic,main,56,20260409-164009,global,local,750,H,H,A,E,H-A.png,E-H.png,hH,hH,mask-1.png,mask-4.png,h,1,0.4565042000003814,h,1,0.6697432000000845,0.05389670000022306,0.048511400000279536,0.09905520000029355,0.09983420000025944,0.7521163999999771
RSVPLG03,si,20260409-163306,1.0.2,20260219-152011,819,Experiment,Both,1,Automatic,main,57,20260409-164014,local,global,750,H,S,A,A,A-H.png,S-A.png,hH,sS,mask-3.png,mask-4.png,h,1,0.6335634000006394,h,0,0.7270723000001453,0.04928800000016054,0.05106340000020282,0.10061169999971753,0.10013569999955507,0.7502149000001737
RSVPLG03,si,20260409-163306,1.0.2,20260219-152011,819,Experiment,Both,1,Automatic,main,58,20260409-164020,local,global,300,S,H,A,E,A-S.png,H-E.png,sS,hH,mask-3.png,mask-2.png,s,1,1.6450550999998086,h,1,0.27903470000001107,0.049817300000540854,0.04962009999962902,0.10067350000008446,0.10037269999975251,0.2993932000008499
RSVPLG03,si,20260409-163306,1.0.2,20260219-152011,819,Experiment,Both,1,Automatic,main,59,20260409-164025,global,local,750,H,S,A,A,H-A.png,A-S.png,hH,sS,mask-2.png,mask-3.png,h,1,0.530206299999918,s,1,0.6631415000001653,0.051312399999915215,0.04959169999983715,0.0991675999994186,0.09936870000001363,0.7508300999998028
RSVPLG03,si,20260409-163306,1.0.2,20260219-152011,819,Experiment,Both,1,Automatic,main,60,20260409-164030,global,local,750,S,H,A,E,S-A.png,E-H.png,sS,hH,mask-3.png,mask-4.png,s,1,0.6305862999997771,s,0,0.3749566999995295,0.04874829999971553,0.04993579999973008,0.09991489999993064,0.10020619999977498,0.7500688999998602
RSVPLG03,si,20260409-163306,1.0.2,20260219-152011,819,Experiment,Both,1,Automatic,main,61,20260409-164036,local,global,750,S,S,A,E,A-S.png,S-E.png,sS,sS,mask-4.png,mask-2.png,h,0,0.8016129999996338,s,1,0.20026589999997668,0.05064880000008998,0.04871499999990192,0.0996979999999894,0.09878380000009201,0.7523443999998563
RSVPLG03,si,20260409-163306,1.0.2,20260219-152011,819,Experiment,Both,1,Automatic,main,62,20260409-164041,local,global,300,H,S,E,A,E-H.png,S-A.png,hH,sS,mask-3.png,mask-2.png,h,1,0.8069906000000628,s,1,2.095375900000363,0.049290599999949336,0.050202700000227196,0.09804139999960171,0.10046890000012354,0.2987030999993294
RSVPLG03,si,20260409-163306,1.0.2,20260219-152011,819,Experiment,Both,1,Automatic,main,63,20260409-164047,global,local,300,H,H,E,E,H-E.png,E-H.png,hH,hH,mask-4.png,mask-4.png,h,1,0.6994845999997779,s,0,3.023215500000333,0.051356800000576186,0.04760000000078435,0.10065089999989141,0.09966030000032333,0.3019046999997954
RSVPLG03,si,20260409-163306,1.0.2,20260219-152011,819,Experiment,Both,1,Automatic,main,64,20260409-164055,local,local,300,S,H,E,A,E-S.png,A-H.png,sS,hH,mask-1.png,mask-4.png,s,1,0.7412825999999768,h,1,0.1914492000005339,0.05009040000004461,0.05104380000011588,0.10091480000028241,0.09976280000046245,0.3020589999996446
RSVPLG03,si,20260409-163306,1.0.2,20260219-152011,819,Experiment,Both,1,Automatic,main,65,20260409-164059,global,global,300,H,S,A,A,H-A.png,S-A.png,hH,sS,mask-4.png,mask-4.png,h,1,0.49103310000009515,s,1,0.15198070000042208,0.0481061000000409,0.0511832999991384,0.09923820000039996,0.1008029999993596,0.2987245000003895
RSVPLG03,si,20260409-163306,1.0.2,20260219-152011,819,Experiment,Both,1,Automatic,main,66,20260409-164103,global,local,750,S,S,E,A,S-E.png,A-S.png,sS,sS,mask-1.png,mask-3.png,s,1,0.5583416999998008,h,0,0.743473599999561,0.051117599999997765,0.05017930000030901,0.10040380000009463,0.100262400000247,0.7516758000001573
RSVPLG03,si,20260409-163306,1.0.2,20260219-152011,819,Experiment,Both,1,Automatic,main,67,20260409-164109,local,global,300,S,S,E,A,E-S.png,S-A.png,sS,sS,mask-1.png,mask-2.png,h,0,2.5664831000003687,s,1,0.13459409999995842,0.04968079999980546,0.05124400000022433,0.10068910000063624,0.10160670000004757,0.2995117000000391
RSVPLG03,si,20260409-163306,1.0.2,20260219-152011,819,Experiment,Both,1,Automatic,main,68,20260409-164115,global,local,300,H,S,A,A,H-A.png,A-S.png,hH,sS,mask-4.png,mask-3.png,h,1,0.8463885000001028,s,1,0.9922691000001578,0.05021879999912926,0.04951669999991282,0.1016074999997727,0.09975780000058876,0.301503199999388
RSVPLG03,si,20260409-163306,1.0.2,20260219-152011,819,Experiment,Both,1,Automatic,main,69,20260409-164121,global,global,300,H,S,A,E,H-A.png,S-E.png,hH,sS,mask-1.png,mask-3.png,h,1,0.6801306999996086,s,1,0.19985900000028778,0.0485476000003473,0.05105979999916599,0.09964339999987715,0.10120619999997871,0.2988195000007181
RSVPLG03,si,20260409-163306,1.0.2,20260219-152011,819,Experiment,Both,1,Automatic,main,70,20260409-164125,global,local,300,H,H,A,E,H-A.png,E-H.png,hH,hH,mask-3.png,mask-4.png,h,1,0.6403344000000288,s,0,0.12521939999987808,0.05051580000053946,0.05012890000034531,0.10086430000046676,0.09968010000011418,0.3015826000000743
RSVPLG03,si,20260409-163306,1.0.2,20260219-152011,819,Experiment,Both,1,Automatic,main,71,20260409-164130,global,local,300,H,S,A,A,H-A.png,A-S.png,hH,sS,mask-2.png,mask-2.png,h,1,0.46509940000032657,s,1,0.17536310000014055,0.05136899999979505,0.05046470000070258,0.10195709999970859,0.10078680000060558,0.30137029999968945
RSVPLG03,si,20260409-163306,1.0.2,20260219-152011,819,Experiment,Both,1,Automatic,main,72,20260409-164134,global,local,300,S,S,E,A,S-E.png,A-S.png,sS,sS,mask-2.png,mask-1.png,s,1,0.45353660000000673,s,1,0.6128856000004816,0.05107970000062778,0.04938599999968574,0.10058230000049662,0.10002540000004956,0.3019718000005014
RSVPLG03,si,20260409-163306,1.0.2,20260219-152011,819,Experiment,Both,1,Automatic,main,73,20260409-164139,global,global,300,S,H,E,E,S-E.png,H-E.png,sS,hH,mask-1.png,mask-4.png,s,1,0.6887954000003447,h,1,0.7515181999997367,0.04996870000013587,0.05058519999965938,0.09903399999984686,0.10151169999971899,0.29962849999992613
RSVPLG03,si,20260409-163306,1.0.2,20260219-152011,819,Experiment,Both,1,Automatic,main,74,20260409-164144,local,global,750,S,H,E,A,E-S.png,H-A.png,sS,hH,mask-3.png,mask-1.png,s,1,0.40093399999932444,h,1,0.22387629999957426,0.04986469999948895,0.048508200000469515,0.10058109999954468,0.0989012999998522,0.7505984999997963
RSVPLG03,si,20260409-163306,1.0.2,20260219-152011,819,Experiment,Both,1,Automatic,main,75,20260409-164148,local,local,300,H,S,A,E,A-H.png,E-S.png,hH,sS,mask-1.png,mask-4.png,h,1,0.4916038000001208,s,1,0.35801699999956327,0.05094530000042141,0.05030259999966802,0.10001780000038707,0.10066610000012588,0.3015567000002193
RSVPLG03,si,20260409-163306,1.0.2,20260219-152011,819,Experiment,Both,1,Automatic,main,76,20260409-164303,local,global,300,S,H,A,A,A-S.png,H-A.png,sS,hH,mask-3.png,mask-1.png,s,1,0.7984986999999819,s,0,0.17649470000014844,0.048468099999809056,0.04940520000036486,0.09984689999964758,0.09982289999970817,0.2996715999997832
RSVPLG03,si,20260409-163306,1.0.2,20260219-152011,819,Experiment,Both,1,Automatic,main,77,20260409-164307,local,local,750,H,S,A,A,A-H.png,A-S.png,hH,sS,mask-1.png,mask-3.png,h,1,0.32227960000000166,s,1,0.23325060000024678,0.04972730000008596,0.0497600999997303,0.10139669999989565,0.09925920000023325,0.750876199999766
RSVPLG03,si,20260409-163306,1.0.2,20260219-152011,819,Experiment,Both,1,Automatic,main,78,20260409-164312,local,local,300,H,H,E,E,E-H.png,E-H.png,hH,hH,mask-4.png,mask-1.png,h,1,0.7984690000002956,h,1,0.581550399999287,0.051924399999734305,0.05110109999986889,0.10016619999987597,0.10025820000009844,0.2999755999999252
RSVPLG03,si,20260409-163306,1.0.2,20260219-152011,819,Experiment,Both,1,Automatic,main,79,20260409-164317,global,global,300,H,H,E,E,H-E.png,H-E.png,hH,hH,mask-4.png,mask-2.png,h,1,0.6670568999998068,h,1,0.16118120000010094,0.050038800000038464,0.04978270000083285,0.10018850000051316,0.09793080000054033,0.30180449999988923
RSVPLG03,si,20260409-163306,1.0.2,20260219-152011,819,Experiment,Both,1,Automatic,main,80,20260409-164321,local,local,750,H,H,A,E,A-H.png,E-H.png,hH,hH,mask-3.png,mask-1.png,h,1,0.8675122000004194,h,1,0.32751310000003286,0.05045760000029986,0.04856810000001133,0.10018099999979313,0.09952189999967231,0.7517557999999553
RSVPLG03,si,20260409-163306,1.0.2,20260219-152011,819,Experiment,Both,1,Automatic,main,81,20260409-164327,global,global,750,H,H,E,A,H-E.png,H-A.png,hH,hH,mask-2.png,mask-3.png,h,1,0.49033220000001165,h,1,0.13827089999995223,0.04986830000052578,0.04929979999997158,0.10037569999985863,0.09998720000021422,0.751205900000059
RSVPLG03,si,20260409-163306,1.0.2,20260219-152011,819,Experiment,Both,1,Automatic,main,82,20260409-164331,global,global,300,H,H,A,A,H-A.png,H-A.png,hH,hH,mask-4.png,mask-2.png,h,1,0.5507819999993444,h,1,0.31808530000034807,0.050050899999405374,0.05045810000046913,0.10032489999957761,0.10071270000025834,0.2998186999993777
RSVPLG03,si,20260409-163306,1.0.2,20260219-152011,819,Experiment,Both,1,Automatic,main,83,20260409-164336,global,local,300,H,S,E,E,H-E.png,E-S.png,hH,sS,mask-3.png,mask-3.png,h,1,0.565389999999752,s,1,0.7117831999994451,0.05087969999931374,0.04952739999953337,0.09974329999931797,0.09971270000005461,0.30071049999969546
RSVPLG03,si,20260409-163306,1.0.2,20260219-152011,819,Experiment,Both,1,Automatic,main,84,20260409-164341,local,global,300,H,H,A,E,A-H.png,H-E.png,hH,hH,mask-1.png,mask-3.png,h,1,1.0073164000004908,h,1,1.8644331999994392,0.05042880000019068,0.05125589999988733,0.10084350000033737,0.10012670000014623,0.3003615000006903
RSVPLG03,si,20260409-163306,1.0.2,20260219-152011,819,Experiment,Both,1,Automatic,main,85,20260409-164347,local,global,300,S,H,E,E,E-S.png,H-E.png,sS,hH,mask-1.png,mask-2.png,s,1,0.47224199999982375,s,0,2.0422139999991487,0.050683200000094075,0.04914619999999559,0.10053750000042783,0.09879449999971257,0.30199290000018664
RSVPLG03,si,20260409-163306,1.0.2,20260219-152011,819,Experiment,Both,1,Automatic,main,86,20260409-164353,global,global,750,H,H,E,E,H-E.png,H-E.png,hH,hH,mask-1.png,mask-4.png,h,1,0.4308725000000777,h,1,0.09552599999915401,0.05045129999962228,0.04862240000056772,0.10092469999926834,0.09991450000052282,0.7515755999993416
RSVPLG03,si,20260409-163306,1.0.2,20260219-152011,819,Experiment,Both,1,Automatic,main,87,20260409-164358,local,global,300,H,S,A,E,A-H.png,S-E.png,hH,sS,mask-3.png,mask-3.png,h,1,0.6179574999996476,h,0,0.08761299999969197,0.05011980000017502,0.05243640000026062,0.09907050000037998,0.09853210000073886,0.30097099999966304
RSVPLG03,si,20260409-163306,1.0.2,20260219-152011,819,Experiment,Both,1,Automatic,main,88,20260409-164402,global,global,300,H,H,A,A,H-A.png,H-A.png,hH,hH,mask-4.png,mask-1.png,h,1,0.7143734999999651,h,1,0.8237460999998802,0.04995310000049358,0.04895089999990887,0.10038080000049376,0.09923359999993409,0.2998131000003923
RSVPLG03,si,20260409-163306,1.0.2,20260219-152011,819,Experiment,Both,1,Automatic,main,89,20260409-164407,local,local,300,H,H,E,A,E-H.png,A-H.png,hH,hH,mask-3.png,mask-2.png,h,1,0.6271321000003809,h,1,0.647819800000434,0.05089690000022529,0.051262599999972736,0.10130930000013905,0.10064150000016525,0.3007377000003544
RSVPLG03,si,20260409-163306,1.0.2,20260219-152011,819,Experiment,Both,1,Automatic,main,90,20260409-164412,global,local,750,H,S,A,E,H-A.png,E-S.png,hH,sS,mask-1.png,mask-2.png,h,1,0.8871056999996654,s,1,0.12062620000051538,0.0501008000001093,0.04883079999945039,0.0999707999999373,0.10052819999964413,0.7512663000006796
RSVPLG03,si,20260409-163306,1.0.2,20260219-152011,819,Experiment,Both,1,Automatic,main,91,20260409-164417,global,local,750,H,H,A,A,H-A.png,A-H.png,hH,hH,mask-4.png,mask-4.png,h,1,0.43812439999965136,h,1,0.0870866000004753,0.04978240000036749,0.04863800000021001,0.09960279999995691,0.10063850000005914,0.7512157000001025
RSVPLG03,si,20260409-163306,1.0.2,20260219-152011,819,Experiment,Both,1,Automatic,main,92,20260409-164422,local,local,300,S,H,A,E,A-S.png,E-H.png,sS,hH,mask-4.png,mask-1.png,s,1,0.8302254999998695,h,1,0.27917640000032407,0.048957899999550136,0.05016390000037063,0.10052379999979166,0.10073590000047261,0.3006006999994497
RSVPLG03,si,20260409-163306,1.0.2,20260219-152011,819,Experiment,Both,1,Automatic,main,93,20260409-164427,local,global,300,S,S,E,E,E-S.png,S-E.png,sS,sS,mask-1.png,mask-1.png,s,1,0.7630423999999039,s,1,0.616075500000079,0.05085010000038892,0.04966489999969781,0.1007644999999684,0.1001401999992595,0.3003390000003492
RSVPLG03,si,20260409-163306,1.0.2,20260219-152011,819,Experiment,Both,1,Automatic,main,94,20260409-164431,global,global,300,H,H,A,E,H-A.png,H-E.png,hH,hH,mask-3.png,mask-3.png,h,1,0.37976569999955245,h,1,0.3752856000000975,0.04834500000015396,0.050470099999984086,0.09850949999963632,0.10026689999995142,0.29965720000018337
RSVPLG03,si,20260409-163306,1.0.2,20260219-152011,819,Experiment,Both,1,Automatic,main,95,20260409-164436,global,global,750,H,S,A,E,H-A.png,S-E.png,hH,sS,mask-3.png,mask-2.png,h,1,0.43922010000005685,s,1,0.11292599999978847,0.04799230000026,0.04857510000056209,0.09853320000001986,0.09943360000033863,0.7504883000001428
RSVPLG03,si,20260409-163306,1.0.2,20260219-152011,819,Experiment,Both,1,Automatic,main,96,20260409-164441,local,global,750,S,S,A,A,A-S.png,S-A.png,sS,sS,mask-3.png,mask-1.png,s,1,0.4833424999997078,h,0,0.0963449999999284,0.04985409999972035,0.05015039999943838,0.10073109999939334,0.10045009999976173,0.7508950999999797
RSVPLG03,si,20260409-163306,1.0.2,20260219-152011,819,Experiment,Both,1,Automatic,main,97,20260409-164445,global,local,750,H,H,E,A,H-E.png,A-H.png,hH,hH,mask-2.png,mask-1.png,h,1,0.22262310000041907,h,1,0.2901587999995172,0.049729600000318896,0.04897709999931976,0.10099870000067313,0.10035399999924266,0.751332600000751
RSVPLG03,si,20260409-163306,1.0.2,20260219-152011,819,Experiment,Both,1,Automatic,main,98,20260409-164450,local,global,750,H,H,A,E,A-H.png,H-E.png,hH,hH,mask-2.png,mask-1.png,h,1,0.48480279999967024,h,1,0.09822230000008858,0.0502675999996427,0.04885439999998198,0.09896409999964817,0.10061029999997118,0.7505372999994506
RSVPLG03,si,20260409-163306,1.0.2,20260219-152011,819,Experiment,Both,1,Automatic,main,99,20260409-164454,global,global,750,S,S,E,A,S-E.png,S-A.png,sS,sS,mask-1.png,mask-1.png,s,1,0.3025630000001911,s,1,0.11961239999982354,0.048205500000221946,0.05001379999976052,0.09873930000048858,0.10012730000016745,0.7486245000000054
RSVPLG03,si,20260409-163306,1.0.2,20260219-152011,819,Experiment,Both,1,Automatic,main,100,20260409-164459,global,global,300,S,S,E,E,S-E.png,S-E.png,sS,sS,mask-3.png,mask-2.png,s,1,0.5835561999992933,s,1,0.45042600000033417,0.04851810000036494,0.05137410000043019,0.09868139999980485,0.10088420000010956,0.29925180000009277
