exp,exp_initials,runtime,ver,modtime,sub,blocktype,targets,cuetype,mode,trialtype,trial,trialtime,t1_level,t2_level,t2_lag,t1,t2,distractor1,distractor2,stimfile1,stimfile2,t1_corr,t2_corr,maskfile1,maskfile2,t1_resp,t1_acc,t1_rt,t2_resp,t2_acc,t2_rt,t1_dur,t2_dur,t1mask_soa,t2mask_soa,t1t2_soa
RSVPLG03,km,20260326-161346,1.0.2,20251113-095759,815,Introduction,T1,1,Automatic,main,1,20260326-161412,global,global,750,S,H,E,E,S-E.png,H-E.png,sS,hH,mask-1.png,mask-4.png,h,0,0.7822020999883534,none,-5,0,0.09257160000561271,0.09973520001221914,0.19192110000585672,0.20148420000623446,0.7427857000002405
RSVPLG03,km,20260326-161346,1.0.2,20251113-095759,815,Introduction,T1,1,Automatic,main,2,20260326-161417,global,local,750,H,H,A,A,H-A.png,A-H.png,hH,hH,mask-1.png,mask-4.png,h,1,0.4415912999975262,none,-5,0,0.09873399999924004,0.10128840000834316,0.1989904999936698,0.20170260001032148,0.74914249998983
RSVPLG03,km,20260326-161346,1.0.2,20251113-095759,815,Introduction,T1,1,Automatic,main,3,20260326-161421,local,local,750,S,S,E,A,E-S.png,A-S.png,sS,sS,mask-2.png,mask-4.png,s,1,1.0647998999920674,none,-5,0,0.09860110000590794,0.10059489999548532,0.19846600000164472,0.20114610000746325,0.7498143999982858
RSVPLG03,km,20260326-161346,1.0.2,20251113-095759,815,Introduction,T1,1,Automatic,main,4,20260326-161427,global,global,750,H,H,E,E,H-E.png,H-E.png,hH,hH,mask-4.png,mask-4.png,h,1,0.5457737999968231,none,-5,0,0.10075939999660477,0.10041879999334924,0.20118819999333937,0.19988590000139084,0.751607199999853
RSVPLG03,km,20260326-161346,1.0.2,20251113-095759,815,Introduction,T1,1,Automatic,main,5,20260326-161431,local,global,750,S,H,A,A,A-S.png,H-A.png,sS,hH,mask-3.png,mask-4.png,s,1,1.3985385999985738,none,-5,0,0.09766790000139736,0.10049379999691155,0.2000218000030145,0.20100659999297932,0.7498559000086971
RSVPLG03,km,20260326-161346,1.0.2,20251113-095759,815,Introduction,T1,1,Automatic,main,6,20260326-161437,local,global,750,H,S,A,E,A-H.png,S-E.png,hH,sS,mask-1.png,mask-2.png,h,1,0.7182597000064561,none,-5,0,0.10085819999221712,0.10234119999222457,0.2008229999919422,0.20197929999267217,0.7495578999951249
RSVPLG03,km,20260326-161346,1.0.2,20251113-095759,815,Introduction,T1,1,Automatic,main,7,20260326-161442,local,global,750,H,H,E,A,E-H.png,H-A.png,hH,hH,mask-3.png,mask-4.png,s,0,0.4906139000086114,none,-5,0,0.0997672999947099,0.10048860000097193,0.19850709999445826,0.20034980001219083,0.7497579999908339
RSVPLG03,km,20260326-161346,1.0.2,20251113-095759,815,Introduction,T1,1,Automatic,main,8,20260326-161447,global,local,750,S,S,E,E,S-E.png,E-S.png,sS,sS,mask-2.png,mask-1.png,s,1,0.5730851000116672,none,-5,0,0.09935530000075232,0.10181780000857543,0.20020590000785887,0.20177369999873918,0.750096100004157
RSVPLG03,km,20260326-161346,1.0.2,20251113-095759,815,Introduction,T1,1,Automatic,main,9,20260326-161451,global,local,750,H,S,A,E,H-A.png,E-S.png,hH,sS,mask-3.png,mask-2.png,h,1,0.4255443000001833,none,-5,0,0.09999550000065938,0.10001949999423232,0.20069519999378826,0.20203449999098666,0.7499756000033813
RSVPLG03,km,20260326-161346,1.0.2,20251113-095759,815,Introduction,T1,1,Automatic,main,10,20260326-161456,global,global,750,S,S,E,A,S-E.png,S-A.png,sS,sS,mask-4.png,mask-4.png,s,1,0.3651733000006061,none,-5,0,0.10166939999908209,0.09949500000220723,0.20146009999734815,0.2003514000098221,0.7516800999874249
RSVPLG03,km,20260326-161346,1.0.2,20251113-095759,815,Introduction,T1,1,Automatic,main,11,20260326-161501,local,local,750,H,S,A,A,A-H.png,A-S.png,hH,sS,mask-1.png,mask-2.png,h,1,0.4601085000031162,none,-5,0,0.09869319999415893,0.09923140000319108,0.19894049999129493,0.20097200000600424,0.7489577999949688
RSVPLG03,km,20260326-161346,1.0.2,20251113-095759,815,Introduction,T1,1,Automatic,main,12,20260326-161505,local,local,750,S,H,E,A,E-S.png,A-H.png,sS,hH,mask-2.png,mask-3.png,s,1,0.4137027999968268,none,-5,0,0.09891650000645313,0.10043500000028871,0.20084309999947436,0.2004192000022158,0.7502925000007963
RSVPLG03,km,20260326-161346,1.0.2,20251113-095759,815,Introduction,T1,1,Automatic,main,13,20260326-161510,local,global,750,H,S,A,E,A-H.png,S-E.png,hH,sS,mask-1.png,mask-4.png,s,0,0.5741515000117943,none,-5,0,0.09829730000637937,0.10089240000525024,0.19882170000346377,0.2023611000040546,0.7484210999973584
RSVPLG03,km,20260326-161346,1.0.2,20251113-095759,815,Introduction,T1,1,Automatic,main,14,20260326-161515,global,local,750,H,S,A,A,H-A.png,A-S.png,hH,sS,mask-3.png,mask-2.png,h,1,0.3433577999967383,none,-5,0,0.10061809999751858,0.09998550001182593,0.20039339999493677,0.2001899000024423,0.7516402999899583
RSVPLG03,km,20260326-161346,1.0.2,20251113-095759,815,Introduction,T1,1,Automatic,main,15,20260326-161519,local,local,750,H,S,A,A,A-H.png,A-S.png,hH,sS,mask-3.png,mask-3.png,h,1,0.6355311000079382,none,-5,0,0.09982480001053773,0.09992280000005849,0.19886940000287723,0.19912619999377057,0.750753900007112
RSVPLG03,km,20260326-161346,1.0.2,20251113-095759,815,Introduction,T1,1,Automatic,main,16,20260326-161524,global,global,750,S,S,E,A,S-E.png,S-A.png,sS,sS,mask-4.png,mask-2.png,s,1,0.4294088000024203,none,-5,0,0.09882180001295637,0.09995010000420734,0.19954500001040287,0.20103820000076666,0.7508964000007836
RSVPLG03,km,20260326-161548,1.0.2,20251113-095759,815,Practice,T1,1,Automatic,main,1,20260326-161608,local,global,300,H,H,A,E,A-H.png,H-E.png,hH,hH,mask-4.png,mask-4.png,h,1,0.6294797000009567,none,-5,0,0.04010079998988658,0.04643740000028629,0.09013009999762289,0.09673499999917112,0.2939001999911852
RSVPLG03,km,20260326-161548,1.0.2,20251113-095759,815,Practice,T1,1,Automatic,main,2,20260326-161612,global,global,300,S,S,A,E,S-A.png,S-E.png,sS,sS,mask-2.png,mask-3.png,s,1,0.40570149999985006,none,-5,0,0.049753699990105815,0.04934979999961797,0.10148659998958465,0.09880159999011084,0.30122080000001006
RSVPLG03,km,20260326-161548,1.0.2,20251113-095759,815,Practice,T1,1,Automatic,main,3,20260326-161616,global,local,300,H,S,A,A,H-A.png,A-S.png,hH,sS,mask-3.png,mask-3.png,h,1,0.274274700001115,none,-5,0,0.05078910000156611,0.05004059999191668,0.09851899999193847,0.10146890000032727,0.29914930000086315
RSVPLG03,km,20260326-161548,1.0.2,20251113-095759,815,Practice,T1,1,Automatic,main,4,20260326-161620,global,global,750,S,S,A,E,S-A.png,S-E.png,sS,sS,mask-4.png,mask-1.png,s,1,0.29638440000417177,none,-5,0,0.04887879999296274,0.048906299998634495,0.0991092999902321,0.09883809999155346,0.7495641999994405
RSVPLG03,km,20260326-161548,1.0.2,20251113-095759,815,Practice,T1,1,Automatic,main,5,20260326-161624,local,local,300,S,H,A,E,A-S.png,E-H.png,sS,hH,mask-2.png,mask-3.png,s,1,0.4614956000004895,none,-5,0,0.05090879999625031,0.050682599990977906,0.09945860000152607,0.09926529999938793,0.30048240000905935
RSVPLG03,km,20260326-161548,1.0.2,20251113-095759,815,Practice,T1,1,Automatic,main,6,20260326-161628,global,local,300,S,H,A,A,S-A.png,A-H.png,sS,hH,mask-4.png,mask-1.png,h,0,0.39767059999576304,none,-5,0,0.050713100004941225,0.05060890001186635,0.10045860000536777,0.1003439000051003,0.2998661000019638
RSVPLG03,km,20260326-161548,1.0.2,20251113-095759,815,Practice,T1,1,Automatic,main,7,20260326-161632,global,global,300,S,S,E,A,S-E.png,S-A.png,sS,sS,mask-2.png,mask-1.png,s,1,0.5500133999885293,none,-5,0,0.04927030000544619,0.04997910000383854,0.10137289999693166,0.09985630000301171,0.2999751000024844
RSVPLG03,km,20260326-161548,1.0.2,20251113-095759,815,Practice,T1,1,Automatic,main,8,20260326-161637,global,local,750,H,S,A,E,H-A.png,E-S.png,hH,sS,mask-2.png,mask-4.png,h,1,1.270261900004698,none,-5,0,0.048599499990814365,0.04878959999768995,0.09949690000212286,0.09973109999555163,0.750492299994221
RSVPLG03,km,20260326-161548,1.0.2,20251113-095759,815,Practice,T1,1,Automatic,main,9,20260326-161642,local,local,750,H,H,E,A,E-H.png,A-H.png,hH,hH,mask-4.png,mask-2.png,h,1,0.42243810000945814,none,-5,0,0.049804199996287934,0.04880109999794513,0.10009720000380185,0.09856629998830613,0.7502773000014713
RSVPLG03,km,20260326-161548,1.0.2,20251113-095759,815,Practice,T1,1,Automatic,main,10,20260326-161646,local,global,300,S,H,A,E,A-S.png,H-E.png,sS,hH,mask-3.png,mask-4.png,s,1,0.43171770000481047,none,-5,0,0.05063069998868741,0.051049400004558265,0.10038889999850653,0.09978990000672638,0.3001019999937853
RSVPLG03,km,20260326-161548,1.0.2,20251113-095759,815,Practice,T1,1,Automatic,main,11,20260326-161650,local,global,750,H,S,A,A,A-H.png,S-A.png,hH,sS,mask-4.png,mask-1.png,h,1,0.42065609998826403,none,-5,0,0.05007650000334252,0.05002329999115318,0.0994360000040615,0.10191179999674205,0.7494321000122
RSVPLG03,km,20260326-161548,1.0.2,20251113-095759,815,Practice,T1,1,Automatic,main,12,20260326-161655,global,global,750,S,S,A,A,S-A.png,S-A.png,sS,sS,mask-4.png,mask-4.png,s,1,0.4733921999868471,none,-5,0,0.05055939999874681,0.05053510000288952,0.10056089999852702,0.10111240000696853,0.7495749999943655
RSVPLG03,km,20260326-161548,1.0.2,20251113-095759,815,Practice,T1,1,Automatic,main,13,20260326-161659,local,local,750,S,S,A,E,A-S.png,E-S.png,sS,sS,mask-3.png,mask-1.png,s,1,1.482528499996988,none,-5,0,0.04981549999502022,0.0487040000007255,0.10185029999411199,0.09873730000981595,0.7515929999935906
RSVPLG03,km,20260326-161548,1.0.2,20251113-095759,815,Practice,T1,1,Automatic,main,14,20260326-161705,local,local,300,H,H,A,E,A-H.png,E-H.png,hH,hH,mask-2.png,mask-3.png,h,1,0.4300749999965774,none,-5,0,0.04730219999328256,0.049518100000568666,0.09814960000221618,0.09998369999811985,0.2992184000031557
RSVPLG03,km,20260326-161548,1.0.2,20251113-095759,815,Practice,T1,1,Automatic,main,15,20260326-161709,global,local,750,S,H,E,A,S-E.png,A-H.png,sS,hH,mask-1.png,mask-1.png,s,1,0.40785909999976866,none,-5,0,0.04995609998877626,0.04994779999833554,0.09841669999877922,0.10098789999028668,0.748564699999406
RSVPLG03,km,20260326-161548,1.0.2,20251113-095759,815,Practice,T1,1,Automatic,main,16,20260326-161713,local,global,750,S,S,A,A,A-S.png,S-A.png,sS,sS,mask-3.png,mask-1.png,s,1,0.5217478999984451,none,-5,0,0.04916219999722671,0.05093779999879189,0.09982679999666288,0.1007504000008339,0.7491799999988871
RSVPLG03,km,20260326-161808,1.0.2,20251113-095759,815,Introduction,Both,1,Automatic,main,1,20260326-161836,global,local,750,H,H,E,A,H-E.png,A-H.png,hH,hH,mask-4.png,mask-2.png,h,1,0.8865233999968041,h,1,2.5405718999973033,0.09137160000682343,0.09956269999383949,0.1920585000043502,0.19912340000155382,0.7429984000045806
RSVPLG03,km,20260326-161808,1.0.2,20251113-095759,815,Introduction,Both,1,Automatic,main,2,20260326-161844,local,local,750,H,H,A,E,A-H.png,E-H.png,hH,hH,mask-4.png,mask-4.png,h,1,0.6353566000034334,h,1,0.46324149999418296,0.09983229999488685,0.09890969999833032,0.19989979999081697,0.20035809998807963,0.7516049999976531
RSVPLG03,km,20260326-161808,1.0.2,20251113-095759,815,Introduction,Both,1,Automatic,main,3,20260326-161849,local,local,750,S,H,E,A,E-S.png,A-H.png,sS,hH,mask-3.png,mask-2.png,h,0,2.2595682999963174,s,0,0.6536004000081448,0.10198340000351891,0.09979730000486597,0.20200340000155848,0.20125620000180788,0.7507695999956923
RSVPLG03,km,20260326-161808,1.0.2,20251113-095759,815,Introduction,Both,1,Automatic,main,4,20260326-161857,global,local,750,S,H,A,E,S-A.png,E-H.png,sS,hH,mask-2.png,mask-1.png,s,1,2.4602760999987368,h,1,0.5271330999967176,0.10073590000683907,0.09982560000207741,0.20066420000512153,0.19877400000405032,0.752121099998476
RSVPLG03,km,20260326-161808,1.0.2,20251113-095759,815,Introduction,Both,1,Automatic,main,5,20260326-161904,global,local,750,S,H,A,A,S-A.png,A-H.png,sS,hH,mask-4.png,mask-4.png,s,1,2.7765040999947814,h,1,0.5116244999953778,0.10049130000697915,0.09984539999277331,0.20019870001124218,0.1996826999966288,0.7500872000091476
RSVPLG03,km,20260326-161808,1.0.2,20251113-095759,815,Introduction,Both,1,Automatic,main,6,20260326-161912,global,local,750,S,H,E,E,S-E.png,E-H.png,sS,hH,mask-1.png,mask-2.png,s,1,1.1578914999990957,h,1,0.3523350999894319,0.10113140000612475,0.1000010999996448,0.20132799999555573,0.20103119999112096,0.7514548000035575
RSVPLG03,km,20260326-161808,1.0.2,20251113-095759,815,Introduction,Both,1,Automatic,main,7,20260326-161918,global,global,750,S,S,A,E,S-A.png,S-E.png,sS,sS,mask-4.png,mask-1.png,s,1,0.7380125999916345,s,1,0.3323406999988947,0.09981679999327753,0.10095340000407305,0.19928780000191182,0.20112840000365395,0.7497943999915151
RSVPLG03,km,20260326-161808,1.0.2,20251113-095759,815,Introduction,Both,1,Automatic,main,8,20260326-161923,local,local,750,S,H,E,E,E-S.png,E-H.png,sS,hH,mask-2.png,mask-4.png,s,1,0.4532772000093246,h,1,0.31723519999650307,0.10082459999830462,0.10071709999465384,0.20032879999780562,0.19943339999008458,0.7515355000068666
RSVPLG03,km,20260326-161808,1.0.2,20251113-095759,815,Introduction,Both,1,Automatic,main,9,20260326-161928,local,global,750,S,S,A,A,A-S.png,S-A.png,sS,sS,mask-3.png,mask-3.png,s,1,1.6273778000031598,h,0,0.28765549999661744,0.09956639999290928,0.09968690000823699,0.20063659999868833,0.19955669999762904,0.7513977999915369
RSVPLG03,km,20260326-161808,1.0.2,20251113-095759,815,Introduction,Both,1,Automatic,main,10,20260326-161935,local,global,750,S,S,E,A,E-S.png,S-A.png,sS,sS,mask-4.png,mask-4.png,s,1,2.3524916999886045,h,0,0.2692443000123603,0.10083070000109728,0.09991370000352617,0.20179999999527354,0.20006109999667387,0.7518192999996245
RSVPLG03,km,20260326-161808,1.0.2,20251113-095759,815,Introduction,Both,1,Automatic,main,11,20260326-161942,global,global,750,S,S,A,A,S-A.png,S-A.png,sS,sS,mask-4.png,mask-3.png,s,1,1.6186745000013616,s,1,0.14338179999322165,0.0997674999962328,0.09971729999233503,0.19970670000475366,0.19950750000134576,0.7505643000040436
RSVPLG03,km,20260326-161808,1.0.2,20251113-095759,815,Introduction,Both,1,Automatic,main,12,20260326-161948,global,global,750,H,H,E,E,H-E.png,H-E.png,hH,hH,mask-2.png,mask-4.png,h,1,0.47731909999856725,h,1,0.36583680000330787,0.09978380000393372,0.10063680000894237,0.2007478000014089,0.20155560001148842,0.7500354999938281
RSVPLG03,km,20260326-161808,1.0.2,20251113-095759,815,Introduction,Both,1,Automatic,main,13,20260326-161953,global,global,750,H,H,E,A,H-E.png,H-A.png,hH,hH,mask-3.png,mask-2.png,h,1,0.42775909999909345,h,1,0.23711360000015702,0.09857020000345074,0.0983494999964023,0.1994260000064969,0.19830109999747947,0.7517455000051996
RSVPLG03,km,20260326-161808,1.0.2,20251113-095759,815,Introduction,Both,1,Automatic,main,14,20260326-161958,local,local,750,S,S,E,A,E-S.png,A-S.png,sS,sS,mask-3.png,mask-3.png,s,1,0.6071302000054857,s,1,0.20959280000533909,0.09974229999352247,0.09862400000565685,0.20013639998796862,0.2001967000105651,0.7509331999899587
RSVPLG03,km,20260326-161808,1.0.2,20251113-095759,815,Introduction,Both,1,Automatic,main,15,20260326-162003,local,global,750,H,S,E,A,E-H.png,S-A.png,hH,sS,mask-1.png,mask-1.png,h,1,1.229181000002427,h,0,0.2535191000060877,0.0995973000099184,0.10004059999482706,0.20018830000481103,0.19868380000116304,0.7520931000035489
RSVPLG03,km,20260326-161808,1.0.2,20251113-095759,815,Introduction,Both,1,Automatic,main,16,20260326-162009,local,global,750,H,H,E,E,E-H.png,H-E.png,hH,hH,mask-1.png,mask-2.png,h,1,2.7980431000032695,s,0,0.4496934000053443,0.09965879999799654,0.09895479999249801,0.19773470000654925,0.19910100000561215,0.7509005000028992
RSVPLG03,km,20260326-162033,1.0.2,20251113-095759,815,Practice,Both,1,Automatic,main,1,20260326-162126,global,local,750,S,H,E,A,S-E.png,A-H.png,sS,hH,mask-1.png,mask-2.png,s,1,0.6984996999963187,h,1,0.25714240000525024,0.041001799996593036,0.04977259998850059,0.09217440000793431,0.09857599998940714,0.7464444000070216
RSVPLG03,km,20260326-162033,1.0.2,20251113-095759,815,Practice,Both,1,Automatic,main,2,20260326-162131,local,local,300,S,H,E,A,E-S.png,A-H.png,sS,hH,mask-4.png,mask-2.png,s,1,0.6869526999944355,h,1,0.17775729999993928,0.04828849999466911,0.05000949998793658,0.10006139999313746,0.09987619999446906,0.3001892000029329
RSVPLG03,km,20260326-162033,1.0.2,20251113-095759,815,Practice,Both,1,Automatic,main,3,20260326-162135,global,local,300,H,S,E,E,H-E.png,E-S.png,hH,sS,mask-2.png,mask-3.png,h,1,0.7842801000078907,h,0,0.2688683000014862,0.05133979998936411,0.050300599992624484,0.1017913999967277,0.09981699999480043,0.3015570999996271
RSVPLG03,km,20260326-162033,1.0.2,20251113-095759,815,Practice,Both,1,Automatic,main,4,20260326-162140,global,global,750,H,S,A,A,H-A.png,S-A.png,hH,sS,mask-4.png,mask-3.png,h,1,0.8635227999911876,s,1,0.1891198999946937,0.050638899992918596,0.051141100004315376,0.10156159999314696,0.10038210000493564,0.7537805999891134
RSVPLG03,km,20260326-162033,1.0.2,20251113-095759,815,Practice,Both,1,Automatic,main,5,20260326-162146,local,global,750,S,H,A,E,A-S.png,H-E.png,sS,hH,mask-2.png,mask-1.png,s,1,1.1619052000023657,h,1,0.25299229999654926,0.05023340000479948,0.048918100001174025,0.09969670001009945,0.09990200000174809,0.754777499998454
RSVPLG03,km,20260326-162033,1.0.2,20251113-095759,815,Practice,Both,1,Automatic,main,6,20260326-162151,local,local,750,H,H,E,A,E-H.png,A-H.png,hH,hH,mask-3.png,mask-1.png,h,1,0.5166448999952991,h,1,0.27158080000663176,0.049832200005766936,0.048802000004798174,0.10016640000685584,0.10077109999838285,0.7531868000078248
RSVPLG03,km,20260326-162033,1.0.2,20251113-095759,815,Practice,Both,1,Automatic,main,7,20260326-162156,local,global,750,H,H,E,E,E-H.png,H-E.png,hH,hH,mask-2.png,mask-2.png,h,1,0.8293322999961674,h,1,0.2047576999902958,0.04965430000447668,0.048849399987375364,0.09942189999856055,0.09878819998994004,0.7536170000093989
RSVPLG03,km,20260326-162033,1.0.2,20251113-095759,815,Practice,Both,1,Automatic,main,8,20260326-162201,global,global,300,H,H,E,E,H-E.png,H-E.png,hH,hH,mask-2.png,mask-4.png,h,1,0.7095470000058413,h,1,0.23750000000291038,0.05181990000710357,0.04953479999676347,0.10183500000857748,0.099387399997795,0.30253710001125
RSVPLG03,km,20260326-162033,1.0.2,20251113-095759,815,Practice,Both,1,Automatic,main,9,20260326-162206,global,local,300,H,S,A,A,H-A.png,A-S.png,hH,sS,mask-3.png,mask-4.png,h,1,0.536773899992113,s,1,0.12545479999971576,0.049995299996226095,0.04991190000146162,0.10057460000098217,0.09993029999895953,0.30159119999734685
RSVPLG03,km,20260326-162033,1.0.2,20251113-095759,815,Practice,Both,1,Automatic,main,10,20260326-162210,local,local,750,H,H,A,E,A-H.png,E-H.png,hH,hH,mask-3.png,mask-1.png,h,1,0.4952370999963023,h,1,0.13019500000518747,0.05162890000792686,0.04991859999427106,0.10127120000834111,0.10163809999357909,0.7538809000106994
RSVPLG03,km,20260326-162033,1.0.2,20251113-095759,815,Practice,Both,1,Automatic,main,11,20260326-162215,local,global,300,S,H,E,A,E-S.png,H-A.png,sS,hH,mask-2.png,mask-1.png,s,1,0.4909561999957077,h,1,0.12330019999353681,0.05183270000270568,0.04941630001121666,0.10183159999724012,0.09897770000679884,0.30258319999848027
RSVPLG03,km,20260326-162033,1.0.2,20251113-095759,815,Practice,Both,1,Automatic,main,12,20260326-162219,global,local,750,H,S,E,A,H-E.png,A-S.png,hH,sS,mask-4.png,mask-4.png,h,1,0.888597099998151,h,0,0.14412370001082309,0.051935199997387826,0.05048579999129288,0.10196480000740848,0.09961029999249149,0.7552526000072248
RSVPLG03,km,20260326-162033,1.0.2,20251113-095759,815,Practice,Both,1,Automatic,main,13,20260326-162225,global,global,750,H,H,A,E,H-A.png,H-E.png,hH,hH,mask-3.png,mask-4.png,h,1,0.4889346999989357,h,1,0.49896409999928437,0.05011539999395609,0.04885249999642838,0.10155879998637829,0.09970360000443179,0.7541170999902533
RSVPLG03,km,20260326-162033,1.0.2,20251113-095759,815,Practice,Both,1,Automatic,main,14,20260326-162230,global,global,300,S,S,A,E,S-A.png,S-E.png,sS,sS,mask-4.png,mask-1.png,s,1,0.4347427000029711,h,0,0.20406210000510328,0.05206030000408646,0.04905919999873731,0.10126009999657981,0.10114859999157488,0.3024279000092065
RSVPLG03,km,20260326-162033,1.0.2,20251113-095759,815,Practice,Both,1,Automatic,main,15,20260326-162234,local,local,300,H,S,A,E,A-H.png,E-S.png,hH,sS,mask-1.png,mask-4.png,s,0,0.43635079999512527,s,1,0.9147367999976268,0.052102699992246926,0.04875670000910759,0.10104280000086874,0.10067480000725482,0.3028092999884393
RSVPLG03,km,20260326-162033,1.0.2,20251113-095759,815,Practice,Both,1,Automatic,main,16,20260326-162239,local,global,300,H,S,E,A,E-H.png,S-A.png,hH,sS,mask-3.png,mask-4.png,h,1,0.7979304999898886,h,0,0.46135359999607317,0.04987269999401178,0.04974959998799022,0.09803480000118725,0.09951489999366459,0.30137240000476595
RSVPLG03,km,20260326-162354,1.0.2,20251113-095759,815,Experiment,Both,1,Automatic,warmup,1,20260326-162431,global,local,300,H,H,E,E,H-E.png,E-H.png,hH,hH,mask-3.png,mask-4.png,h,1,0.6203991000074893,h,1,0.1081763999973191,0.04224389999581035,0.049199100001715124,0.09129959999700077,0.10069400000793394,0.2921809999970719
RSVPLG03,km,20260326-162354,1.0.2,20251113-095759,815,Experiment,Both,1,Automatic,warmup,2,20260326-162435,global,global,750,H,S,E,A,H-E.png,S-A.png,hH,sS,mask-2.png,mask-2.png,h,1,0.6180324000015389,s,1,0.07855979999294505,0.04983550000179093,0.0496595000004163,0.09990960000141058,0.09847260000242386,0.7512165000080131
RSVPLG03,km,20260326-162354,1.0.2,20251113-095759,815,Experiment,Both,1,Automatic,warmup,3,20260326-162440,local,local,750,H,S,E,E,E-H.png,E-S.png,hH,sS,mask-1.png,mask-2.png,h,1,0.706989699989208,s,1,0.2526421000075061,0.049640599987469614,0.0499429999908898,0.09960099999443628,0.10106200000154786,0.7507276999967871
RSVPLG03,km,20260326-162354,1.0.2,20251113-095759,815,Experiment,Both,1,Automatic,warmup,4,20260326-162445,local,global,300,H,S,E,E,E-H.png,S-E.png,hH,sS,mask-3.png,mask-3.png,h,1,0.6173935999977402,h,0,0.0935485000081826,0.04981939999561291,0.049806499999249354,0.09974859999783803,0.09975649999978486,0.3000280999985989
RSVPLG03,km,20260326-162354,1.0.2,20251113-095759,815,Experiment,Both,1,Automatic,main,5,20260326-162450,local,local,750,H,H,E,E,E-H.png,E-H.png,hH,hH,mask-1.png,mask-1.png,h,1,0.45955400000093505,h,1,0.0772140000044601,0.049876499993843026,0.048828300001332536,0.10181330000341404,0.09880770000745542,0.7524956999986898
RSVPLG03,km,20260326-162354,1.0.2,20251113-095759,815,Experiment,Both,1,Automatic,main,6,20260326-162454,global,global,300,H,H,A,A,H-A.png,H-A.png,hH,hH,mask-3.png,mask-2.png,h,1,0.3949068000074476,h,1,0.09359709999989718,0.049873700001626275,0.04985650000162423,0.09981830000469927,0.10080430000380147,0.29980419999628793
RSVPLG03,km,20260326-162354,1.0.2,20251113-095759,815,Experiment,Both,1,Automatic,main,7,20260326-162458,local,global,750,H,S,E,A,E-H.png,S-A.png,hH,sS,mask-4.png,mask-1.png,h,1,0.6834636999992654,s,1,0.029115199999068864,0.049583600004552864,0.04978610000398476,0.09835110000858549,0.10070910000649747,0.7506150999979582
RSVPLG03,km,20260326-162354,1.0.2,20251113-095759,815,Experiment,Both,1,Automatic,main,8,20260326-162503,local,local,750,S,S,E,A,E-S.png,A-S.png,sS,sS,mask-3.png,mask-1.png,s,1,0.7530345999985002,h,0,0.1432957999932114,0.04997989999537822,0.05062730000645388,0.0991412000003038,0.10137489999760874,0.7496694000001298
RSVPLG03,km,20260326-162354,1.0.2,20251113-095759,815,Experiment,Both,1,Automatic,main,9,20260326-162508,global,local,300,S,S,A,E,S-A.png,E-S.png,sS,sS,mask-2.png,mask-2.png,s,1,0.5790033000084804,s,1,0.14452950000122655,0.048993499993230216,0.051129300001775846,0.10016440000617877,0.09971199999563396,0.30011409999860916
RSVPLG03,km,20260326-162354,1.0.2,20251113-095759,815,Experiment,Both,1,Automatic,main,10,20260326-162513,local,global,750,S,S,A,A,A-S.png,S-A.png,sS,sS,mask-1.png,mask-2.png,s,1,1.040781000003335,s,1,0.38121079999837093,0.049589199988986365,0.04895640000177082,0.10009599999466445,0.0990518000035081,0.7517585999885341
RSVPLG03,km,20260326-162354,1.0.2,20251113-095759,815,Experiment,Both,1,Automatic,main,11,20260326-162518,local,global,750,S,S,E,E,E-S.png,S-E.png,sS,sS,mask-2.png,mask-4.png,s,1,0.7851617999986047,s,1,0.19151520000013988,0.04986750001262408,0.04894000000786036,0.09945069999957923,0.09869969999999739,0.7509267999994336
RSVPLG03,km,20260326-162354,1.0.2,20251113-095759,815,Experiment,Both,1,Automatic,main,12,20260326-162524,local,global,750,H,H,A,A,A-H.png,H-A.png,hH,hH,mask-4.png,mask-1.png,h,1,0.8293510000075912,h,1,0.126308799997787,0.049829900002805516,0.049991700012469664,0.09975180000765249,0.0992209000105504,0.7517461999959778
RSVPLG03,km,20260326-162354,1.0.2,20251113-095759,815,Experiment,Both,1,Automatic,main,13,20260326-162529,global,local,750,S,H,A,A,S-A.png,A-H.png,sS,hH,mask-1.png,mask-1.png,s,1,0.8093635999975959,h,1,0.06142720000934787,0.04984810001042206,0.04872589999285992,0.09991370000352617,0.09881519999180455,0.750119900010759
RSVPLG03,km,20260326-162354,1.0.2,20251113-095759,815,Experiment,Both,1,Automatic,main,14,20260326-162534,global,global,300,S,H,E,E,S-E.png,H-E.png,sS,hH,mask-2.png,mask-2.png,s,1,2.5324165000056382,h,1,0.07947559999593068,0.04851559999224264,0.04876170000352431,0.09826539999630768,0.09992310000234284,0.300764599989634
RSVPLG03,km,20260326-162354,1.0.2,20251113-095759,815,Experiment,Both,1,Automatic,main,15,20260326-162540,local,local,750,H,S,A,A,A-H.png,A-S.png,hH,sS,mask-1.png,mask-3.png,h,1,1.2367667999933474,s,1,0.15650940001069102,0.049912200003745966,0.05067559999588411,0.09949919999053236,0.10145319999719504,0.7502316000027349
RSVPLG03,km,20260326-162354,1.0.2,20251113-095759,815,Experiment,Both,1,Automatic,main,16,20260326-162546,global,global,750,S,H,E,E,S-E.png,H-E.png,sS,hH,mask-3.png,mask-1.png,s,1,1.8237794000015128,h,1,0.14352070000313688,0.04971639999712352,0.04948560000048019,0.0974936999991769,0.10037140001077205,0.7508746999956202
RSVPLG03,km,20260326-162354,1.0.2,20251113-095759,815,Experiment,Both,1,Automatic,main,17,20260326-162552,global,global,300,S,H,E,A,S-E.png,H-A.png,sS,hH,mask-4.png,mask-3.png,s,1,1.152474099988467,h,1,0.527980300001218,0.049704300006851554,0.04971570000634529,0.10044809999817517,0.10047079999640118,0.30032460000074934
RSVPLG03,km,20260326-162354,1.0.2,20251113-095759,815,Experiment,Both,1,Automatic,main,18,20260326-162557,local,local,750,H,S,E,A,E-H.png,A-S.png,hH,sS,mask-2.png,mask-4.png,h,1,0.7737865000090096,s,1,0.046486799998092465,0.0508475999959046,0.0508992999966722,0.09977690000960138,0.09985069998947438,0.7510959000064759
RSVPLG03,km,20260326-162354,1.0.2,20251113-095759,815,Experiment,Both,1,Automatic,main,19,20260326-162603,local,local,300,H,S,A,E,A-H.png,E-S.png,hH,sS,mask-2.png,mask-4.png,h,1,0.6940805000049295,h,0,0.09388210000179242,0.04836670000804588,0.049750699996366166,0.09854760000598617,0.10082449999754317,0.29802260000724345
RSVPLG03,km,20260326-162354,1.0.2,20251113-095759,815,Experiment,Both,1,Automatic,main,20,20260326-162607,local,global,750,S,H,A,A,A-S.png,H-A.png,sS,hH,mask-1.png,mask-3.png,h,0,1.3153496000013547,h,1,0.14308020001044497,0.048748600005637854,0.04882969999744091,0.09952800000610296,0.09876380000787321,0.7511749999976018
RSVPLG03,km,20260326-162354,1.0.2,20251113-095759,815,Experiment,Both,1,Automatic,main,21,20260326-162613,global,local,300,S,S,E,A,S-E.png,A-S.png,sS,sS,mask-3.png,mask-4.png,s,1,0.7984456999984104,h,0,0.02956640000047628,0.048878900008276105,0.04997880000155419,0.09985140000935644,0.09871299999940675,0.2995283000054769
RSVPLG03,km,20260326-162354,1.0.2,20251113-095759,815,Experiment,Both,1,Automatic,main,22,20260326-162617,local,global,300,H,S,A,E,A-H.png,S-E.png,hH,sS,mask-1.png,mask-1.png,h,1,0.7696645000105491,s,1,0.430658700002823,0.050914000006741844,0.04948700001114048,0.1006104999978561,0.09812310000415891,0.30207859999791253
RSVPLG03,km,20260326-162354,1.0.2,20251113-095759,815,Experiment,Both,1,Automatic,main,23,20260326-162622,local,local,750,H,S,E,E,E-H.png,E-S.png,hH,sS,mask-2.png,mask-3.png,h,1,0.8398802000010619,s,1,0.17173129999719094,0.048858199996175244,0.051150700004654936,0.09905129999970086,0.10051270000985824,0.7492313999973703
RSVPLG03,km,20260326-162354,1.0.2,20251113-095759,815,Experiment,Both,1,Automatic,main,24,20260326-162627,local,local,750,S,H,A,A,A-S.png,A-H.png,sS,hH,mask-3.png,mask-4.png,s,1,0.8662246999883791,h,1,0.19210419998853467,0.04982079999172129,0.049566999994567595,0.10056009999243543,0.0999792999937199,0.7512658000050578
RSVPLG03,km,20260326-162354,1.0.2,20251113-095759,815,Experiment,Both,1,Automatic,main,25,20260326-162633,global,local,300,S,S,E,A,S-E.png,A-S.png,sS,sS,mask-3.png,mask-2.png,s,1,0.6338427000009688,h,0,0.12682840001070872,0.049432800005888566,0.05014140000275802,0.10030430000915658,0.09986449999269098,0.3009619000076782
RSVPLG03,km,20260326-162354,1.0.2,20251113-095759,815,Experiment,Both,1,Automatic,main,26,20260326-162641,local,global,750,S,H,A,A,A-S.png,H-A.png,sS,hH,mask-4.png,mask-2.png,s,1,1.2952968000026885,s,0,0.10919149999972433,0.05022099999769125,0.04882999999972526,0.10072390000277665,0.09911579999607056,0.7529336000006879
RSVPLG03,km,20260326-162354,1.0.2,20251113-095759,815,Experiment,Both,1,Automatic,main,27,20260326-162647,global,global,300,S,S,E,E,S-E.png,S-E.png,sS,sS,mask-3.png,mask-1.png,h,0,1.594363099997281,s,1,0.20552770000358578,0.04884579998906702,0.050305999990087,0.09881399999721907,0.09951359999831766,0.2993743999977596
RSVPLG03,km,20260326-162354,1.0.2,20251113-095759,815,Experiment,Both,1,Automatic,main,28,20260326-162652,local,global,300,H,H,A,A,A-H.png,H-A.png,hH,hH,mask-2.png,mask-3.png,h,1,0.504626099995221,s,0,0.12645749999501277,0.049782100002630614,0.04909669999324251,0.10178720000840258,0.09987389999150764,0.30139140000392217
RSVPLG03,km,20260326-162354,1.0.2,20251113-095759,815,Experiment,Both,1,Automatic,main,29,20260326-162656,local,global,750,H,H,E,A,E-H.png,H-A.png,hH,hH,mask-4.png,mask-2.png,h,1,0.5275337000057334,s,0,0.18948030000319704,0.04984229999536183,0.04983619999256916,0.09982139999920037,0.09980949999589939,0.7518057999986922
RSVPLG03,km,20260326-162354,1.0.2,20251113-095759,815,Experiment,Both,1,Automatic,main,30,20260326-162701,global,global,750,S,H,A,E,S-A.png,H-E.png,sS,hH,mask-1.png,mask-1.png,s,1,0.7760700000071665,h,1,0.20650949999981094,0.048969199997372925,0.048604099996737204,0.1000586000009207,0.09966959999292158,0.7506567000091309
RSVPLG03,km,20260326-162354,1.0.2,20251113-095759,815,Experiment,Both,1,Automatic,main,31,20260326-162707,local,global,300,H,S,E,E,E-H.png,S-E.png,hH,sS,mask-2.png,mask-4.png,h,1,0.5768441999971401,h,0,0.17258489999221638,0.05011280000326224,0.05063009999867063,0.09938099999271799,0.10114340001018718,0.2981295999925351
RSVPLG03,km,20260326-162354,1.0.2,20251113-095759,815,Experiment,Both,1,Automatic,main,32,20260326-162711,local,local,300,H,S,E,E,E-H.png,E-S.png,hH,sS,mask-4.png,mask-4.png,s,0,0.7719761999906041,h,0,0.11169119999976829,0.05063680000603199,0.05067699999199249,0.10039999999571592,0.10054139999556355,0.30021090000809636
RSVPLG03,km,20260326-162354,1.0.2,20251113-095759,815,Experiment,Both,1,Automatic,main,33,20260326-162716,local,global,750,H,S,E,A,E-H.png,S-A.png,hH,sS,mask-4.png,mask-2.png,h,1,2.1752329000009922,s,1,0.17359080001187976,0.049875900003826246,0.04995629999029916,0.09979730000486597,0.1009526999987429,0.7494221000088146
RSVPLG03,km,20260326-162354,1.0.2,20251113-095759,815,Experiment,Both,1,Automatic,main,34,20260326-162722,global,local,300,S,S,E,E,S-E.png,E-S.png,sS,sS,mask-3.png,mask-2.png,s,1,1.9912280999997165,s,1,0.11031069999444298,0.04904979999992065,0.04949629999464378,0.10061749999294989,0.09944469999754801,0.3006491999985883
RSVPLG03,km,20260326-162354,1.0.2,20251113-095759,815,Experiment,Both,1,Automatic,main,35,20260326-162728,local,global,750,S,H,E,E,E-S.png,H-E.png,sS,hH,mask-3.png,mask-2.png,s,1,1.7895540000026813,s,0,0.12575950000609737,0.049082500001532026,0.04945239999506157,0.09915219999675173,0.09833069999876898,0.751161599997431
RSVPLG03,km,20260326-162354,1.0.2,20251113-095759,815,Experiment,Both,1,Automatic,main,36,20260326-162734,global,global,750,S,S,A,E,S-A.png,S-E.png,sS,sS,mask-3.png,mask-1.png,h,0,0.9884453999984544,s,1,0.3184476000024006,0.04885099999955855,0.050277500005904585,0.0988194000092335,0.10064980000606738,0.7492274999967776
RSVPLG03,km,20260326-162354,1.0.2,20251113-095759,815,Experiment,Both,1,Automatic,main,37,20260326-162740,local,global,300,H,H,E,E,E-H.png,H-E.png,hH,hH,mask-3.png,mask-4.png,h,1,2.7391453000018373,s,0,0.4465643000003183,0.049844100009067915,0.04926480000722222,0.10086570000567008,0.10050450000562705,0.3002254000020912
RSVPLG03,km,20260326-162354,1.0.2,20251113-095759,815,Experiment,Both,1,Automatic,main,38,20260326-162746,global,global,300,H,H,A,E,H-A.png,H-E.png,hH,hH,mask-4.png,mask-3.png,h,1,2.605983400004334,s,0,0.032928000000538304,0.05083269999886397,0.04961940000066534,0.10079409999889322,0.10145030000421684,0.29958560000522994
RSVPLG03,km,20260326-162354,1.0.2,20251113-095759,815,Experiment,Both,1,Automatic,main,39,20260326-162753,local,local,300,S,S,A,A,A-S.png,A-S.png,sS,sS,mask-3.png,mask-1.png,s,1,0.5310747000039555,s,1,0.0943111999949906,0.05074750000494532,0.04978030000347644,0.10113080000155605,0.10003319999668747,0.30058049999934155
RSVPLG03,km,20260326-162354,1.0.2,20251113-095759,815,Experiment,Both,1,Automatic,main,40,20260326-162757,local,local,300,S,S,A,A,A-S.png,A-S.png,sS,sS,mask-4.png,mask-2.png,s,1,0.3301654000097187,s,1,0.14324080001097172,0.05183009999745991,0.049997299996903166,0.10019169999577571,0.09814329999790061,0.30205800000112504
RSVPLG03,km,20260326-162354,1.0.2,20251113-095759,815,Experiment,Both,1,Automatic,main,41,20260326-162802,global,global,300,S,S,A,A,S-A.png,S-A.png,sS,sS,mask-2.png,mask-1.png,s,1,0.6501473999960581,s,1,0.12379890000738669,0.05110910000803415,0.05036310000286903,0.10122260000207461,0.10085810000600759,0.30000610000570305
RSVPLG03,km,20260326-162354,1.0.2,20251113-095759,815,Experiment,Both,1,Automatic,main,42,20260326-162806,global,global,750,H,H,E,E,H-E.png,H-E.png,hH,hH,mask-4.png,mask-2.png,h,1,0.641699100000551,h,1,0.4015752999985125,0.04886009999609087,0.05010279999987688,0.09952799999155104,0.10062130000733305,0.7503587999963202
RSVPLG03,km,20260326-162354,1.0.2,20251113-095759,815,Experiment,Both,1,Automatic,main,43,20260326-162811,global,local,300,S,S,E,E,S-E.png,E-S.png,sS,sS,mask-1.png,mask-2.png,s,1,0.47733519999019336,s,1,0.0955441999976756,0.04991169999993872,0.049968399995123036,0.1000318000005791,0.10106149999774061,0.30018620000919327
RSVPLG03,km,20260326-162354,1.0.2,20251113-095759,815,Experiment,Both,1,Automatic,main,44,20260326-162816,global,local,300,S,S,E,E,S-E.png,E-S.png,sS,sS,mask-2.png,mask-4.png,s,1,1.0273146000108682,s,1,0.28707600000780076,0.05140860000392422,0.04865300000528805,0.10097600000153761,0.09942660000524484,0.30150220000359695
RSVPLG03,km,20260326-162354,1.0.2,20251113-095759,815,Experiment,Both,1,Automatic,main,45,20260326-162821,local,local,300,S,H,E,E,E-S.png,E-H.png,sS,hH,mask-1.png,mask-1.png,s,1,0.6663134999980684,h,1,0.6068470000027446,0.04985270000179298,0.04872639999666717,0.09984650000114925,0.09946299999137409,0.30028900000615977
RSVPLG03,km,20260326-162354,1.0.2,20251113-095759,815,Experiment,Both,1,Automatic,main,46,20260326-162826,global,global,750,S,S,A,A,S-A.png,S-A.png,sS,sS,mask-2.png,mask-2.png,s,1,0.4698377000022447,s,1,0.1284981000062544,0.04861840000376105,0.05068670000764541,0.09831359999952838,0.1017093999980716,0.7493826999998419
RSVPLG03,km,20260326-162354,1.0.2,20251113-095759,815,Experiment,Both,1,Automatic,main,47,20260326-162830,local,local,750,H,H,A,A,A-H.png,A-H.png,hH,hH,mask-3.png,mask-3.png,h,1,1.181869399995776,h,1,0.11036810000950936,0.04897589999018237,0.05049480000161566,0.09906259999843314,0.10128640000766609,0.749427899994771
RSVPLG03,km,20260326-162354,1.0.2,20251113-095759,815,Experiment,Both,1,Automatic,main,48,20260326-162836,local,local,300,H,H,A,E,A-H.png,E-H.png,hH,hH,mask-3.png,mask-1.png,h,1,0.9074049000046216,h,1,0.1105122000008123,0.049677300004987046,0.04963220001081936,0.10053569999581669,0.10138400000869296,0.2995788999978686
RSVPLG03,km,20260326-162354,1.0.2,20251113-095759,815,Experiment,Both,1,Automatic,main,49,20260326-162840,local,local,750,H,H,E,E,E-H.png,E-H.png,hH,hH,mask-1.png,mask-4.png,h,1,0.5133992000046419,h,1,0.07665380000253208,0.04982210000162013,0.05095489999803249,0.09984169999370351,0.09967830000096001,0.7513487999967765
RSVPLG03,km,20260326-162354,1.0.2,20251113-095759,815,Experiment,Both,1,Automatic,main,50,20260326-162845,local,local,300,S,H,A,E,A-S.png,E-H.png,sS,hH,mask-2.png,mask-2.png,s,1,0.9340538999967976,h,1,0.09632879999116994,0.050435500001185574,0.05139469999994617,0.09994770000048447,0.09994850000657607,0.30059349999646656
RSVPLG03,km,20260326-162354,1.0.2,20251113-095759,815,Experiment,Both,1,Automatic,main,51,20260326-162914,local,global,300,S,H,A,A,A-S.png,H-A.png,sS,hH,mask-2.png,mask-4.png,s,1,0.47037429999909364,h,1,0.3159324000007473,0.05080949999683071,0.0508648999966681,0.10093669999332633,0.10122169999522157,0.2994392999971751
RSVPLG03,km,20260326-162354,1.0.2,20251113-095759,815,Experiment,Both,1,Automatic,main,52,20260326-162919,global,local,300,H,H,A,A,H-A.png,A-H.png,hH,hH,mask-4.png,mask-3.png,h,1,0.38004049999290146,h,1,0.10892509999393951,0.0509987999976147,0.04879659999278374,0.1003323999902932,0.09998060000361875,0.30067939999571536
RSVPLG03,km,20260326-162354,1.0.2,20251113-095759,815,Experiment,Both,1,Automatic,main,53,20260326-162923,local,global,300,H,S,A,E,A-H.png,S-E.png,hH,sS,mask-2.png,mask-2.png,s,0,0.9868053999962285,s,1,0.6543056999944383,0.04860650000046007,0.048710100003518164,0.09904840000672266,0.10076380000100471,0.29987139999866486
RSVPLG03,km,20260326-162354,1.0.2,20251113-095759,815,Experiment,Both,1,Automatic,main,54,20260326-162929,global,local,300,S,H,E,E,S-E.png,E-H.png,sS,hH,mask-1.png,mask-4.png,s,1,2.4159413000015775,h,1,0.3350466999982018,0.05052129999967292,0.04881560000649188,0.10030800000822637,0.0986890000058338,0.3010451000009198
RSVPLG03,km,20260326-162354,1.0.2,20251113-095759,815,Experiment,Both,1,Automatic,main,55,20260326-162935,local,local,300,S,H,E,E,E-S.png,E-H.png,sS,hH,mask-1.png,mask-4.png,s,1,0.8014387000002898,h,1,0.18971950000559445,0.04991239999071695,0.049891699993168004,0.09896909999952186,0.0998488999903202,0.2997092000005068
RSVPLG03,km,20260326-162354,1.0.2,20251113-095759,815,Experiment,Both,1,Automatic,main,56,20260326-162940,local,global,300,S,H,A,A,A-S.png,H-A.png,sS,hH,mask-4.png,mask-2.png,s,1,0.6751602000003913,h,1,0.04715240000223275,0.05053069999848958,0.04869370000960771,0.0993468000087887,0.09841659999801777,0.3010426999971969
RSVPLG03,km,20260326-162354,1.0.2,20251113-095759,815,Experiment,Both,1,Automatic,main,57,20260326-162945,global,local,750,H,S,A,E,H-A.png,E-S.png,hH,sS,mask-2.png,mask-4.png,h,1,0.4984651999984635,s,1,0.2854578999977093,0.05107799998950213,0.05099069999414496,0.10013299999991432,0.10095279999950435,0.751113099991926
RSVPLG03,km,20260326-162354,1.0.2,20251113-095759,815,Experiment,Both,1,Automatic,main,58,20260326-162950,local,global,300,S,S,E,A,E-S.png,S-A.png,sS,sS,mask-1.png,mask-2.png,s,1,0.5866618000000017,h,0,0.15888600000471342,0.05108579999068752,0.049535799989826046,0.10087579999526497,0.10074699998949654,0.3009477000014158
RSVPLG03,km,20260326-162354,1.0.2,20251113-095759,815,Experiment,Both,1,Automatic,main,59,20260326-162954,global,global,750,H,H,A,E,H-A.png,H-E.png,hH,hH,mask-2.png,mask-1.png,h,1,0.6254049999988638,h,1,0.1124885000026552,0.05097650000243448,0.05064149999816436,0.09936140000354499,0.10053369999513961,0.7507471999997506
RSVPLG03,km,20260326-162354,1.0.2,20251113-095759,815,Experiment,Both,1,Automatic,main,60,20260326-162959,local,local,300,S,S,A,E,A-S.png,E-S.png,sS,sS,mask-2.png,mask-3.png,h,0,1.3676800000102958,s,1,0.17255590000422671,0.04978500001016073,0.04824100001133047,0.09974430000875145,0.09813820000272244,0.30040269999881275
RSVPLG03,km,20260326-162354,1.0.2,20251113-095759,815,Experiment,Both,1,Automatic,main,61,20260326-163004,local,global,750,S,H,E,A,E-S.png,H-A.png,sS,hH,mask-2.png,mask-4.png,s,1,1.2368985999928555,h,1,0.04515029999311082,0.050853900000220165,0.05135639999934938,0.10078559999237768,0.1015602000115905,0.7507818999874871
RSVPLG03,km,20260326-162354,1.0.2,20251113-095759,815,Experiment,Both,1,Automatic,main,62,20260326-163010,global,local,750,S,H,A,A,S-A.png,A-H.png,sS,hH,mask-2.png,mask-1.png,s,1,0.7443765999923926,h,1,0.1288646000029985,0.05122569999366533,0.04927440000756178,0.10073869999905583,0.0993715000076918,0.7520098999957554
RSVPLG03,km,20260326-162354,1.0.2,20251113-095759,815,Experiment,Both,1,Automatic,main,63,20260326-163015,local,global,750,H,H,A,A,A-H.png,H-A.png,hH,hH,mask-1.png,mask-4.png,h,1,0.6621792999940226,h,1,0.12566910000168718,0.04865189999691211,0.05112309999822173,0.09968020000087563,0.09994450000522193,0.7512915999977849
RSVPLG03,km,20260326-162354,1.0.2,20251113-095759,815,Experiment,Both,1,Automatic,main,64,20260326-163020,global,local,300,S,S,E,A,S-E.png,A-S.png,sS,sS,mask-3.png,mask-3.png,s,1,0.5454248000023654,h,0,0.10827370001061354,0.04990489999181591,0.049049299996113405,0.10100589999638032,0.09888479999790434,0.3009312999929534
RSVPLG03,km,20260326-162354,1.0.2,20251113-095759,815,Experiment,Both,1,Automatic,main,65,20260326-163024,global,local,750,S,S,E,A,S-E.png,A-S.png,sS,sS,mask-3.png,mask-4.png,h,0,1.3003435999999056,s,1,0.06347969999478664,0.04964369999652263,0.04860150000604335,0.09944609999365639,0.09924640000099316,0.7510853999992833
RSVPLG03,km,20260326-162354,1.0.2,20251113-095759,815,Experiment,Both,1,Automatic,main,66,20260326-163030,global,global,300,H,S,E,A,H-E.png,S-A.png,hH,sS,mask-4.png,mask-3.png,h,1,0.47276000000420026,s,1,0.12443409999832511,0.04898739999043755,0.049730900005670264,0.09987839999666903,0.09952620000694878,0.29998919999343343
RSVPLG03,km,20260326-162354,1.0.2,20251113-095759,815,Experiment,Both,1,Automatic,main,67,20260326-163034,global,local,750,H,H,E,E,H-E.png,E-H.png,hH,hH,mask-3.png,mask-2.png,h,1,0.5496823999856133,s,0,0.31767600000603124,0.049059699987992644,0.05132189999858383,0.09881859998859,0.10050860000774264,0.7490048999898136
RSVPLG03,km,20260326-162354,1.0.2,20251113-095759,815,Experiment,Both,1,Automatic,main,68,20260326-163039,global,global,750,H,S,E,E,H-E.png,S-E.png,hH,sS,mask-1.png,mask-3.png,h,1,0.7604807000025176,s,1,0.844642299998668,0.0494777999992948,0.05018980000750162,0.09878699999535456,0.10007040000346024,0.7505930999905104
RSVPLG03,km,20260326-162354,1.0.2,20251113-095759,815,Experiment,Both,1,Automatic,main,69,20260326-163045,global,global,300,H,H,A,A,H-A.png,H-A.png,hH,hH,mask-2.png,mask-3.png,h,1,0.3368895000021439,h,1,0.10899629999767058,0.04882799999904819,0.0508111000090139,0.09960319999663625,0.10151459999906365,0.2998018999933265
RSVPLG03,km,20260326-162354,1.0.2,20251113-095759,815,Experiment,Both,1,Automatic,main,70,20260326-163049,global,local,750,S,S,A,E,S-A.png,E-S.png,sS,sS,mask-1.png,mask-4.png,s,1,0.6973867000051541,s,1,0.07983770000282675,0.049116499998490326,0.04889159998856485,0.10047759998997208,0.09935699999914505,0.7515061000012793
RSVPLG03,km,20260326-162354,1.0.2,20251113-095759,815,Experiment,Both,1,Automatic,main,71,20260326-163054,local,local,300,S,S,E,A,E-S.png,A-S.png,sS,sS,mask-1.png,mask-4.png,s,1,0.994545499997912,h,0,0.04509520001010969,0.04868200000782963,0.048894599996856414,0.09901849999732804,0.0993637000065064,0.29994640000222716
RSVPLG03,km,20260326-162354,1.0.2,20251113-095759,815,Experiment,Both,1,Automatic,main,72,20260326-163059,local,local,750,H,S,A,A,A-H.png,A-S.png,hH,sS,mask-4.png,mask-3.png,h,1,0.5471847000007983,s,1,0.1746516999992309,0.04997949999233242,0.04711279999173712,0.10048839999944903,0.09975549999217037,0.7521883000008529
RSVPLG03,km,20260326-162354,1.0.2,20251113-095759,815,Experiment,Both,1,Automatic,main,73,20260326-163103,local,global,300,S,S,E,A,E-S.png,S-A.png,sS,sS,mask-1.png,mask-1.png,s,1,0.7571763000014471,h,0,0.061548099998617545,0.049313199997413903,0.04933940000773873,0.09914070001104847,0.09930320001149084,0.30019609999726526
RSVPLG03,km,20260326-162354,1.0.2,20251113-095759,815,Experiment,Both,1,Automatic,main,74,20260326-163108,global,local,750,H,S,A,E,H-A.png,E-S.png,hH,sS,mask-2.png,mask-2.png,h,1,0.34333100001094863,s,1,0.10923970000294503,0.049665700003970414,0.04858590000367258,0.1005377999972552,0.09876919999078382,0.7516708000039216
RSVPLG03,km,20260326-162354,1.0.2,20251113-095759,815,Experiment,Both,1,Automatic,main,75,20260326-163113,local,local,750,H,S,A,E,A-H.png,E-S.png,hH,sS,mask-3.png,mask-2.png,h,1,0.5987749999912921,s,1,0.06252260001201648,0.0488681999995606,0.0499883000011323,0.09955749999789987,0.09998210000048857,0.7500923000043258
RSVPLG03,km,20260326-162354,1.0.2,20251113-095759,815,Experiment,Both,1,Automatic,main,76,20260326-163201,local,local,300,S,H,A,E,A-S.png,E-H.png,sS,hH,mask-4.png,mask-4.png,s,1,0.48855619999812916,h,1,0.46126330000697635,0.048573099993518554,0.05128500000864733,0.10082300000067335,0.10068420000607148,0.2996870999922976
RSVPLG03,km,20260326-162354,1.0.2,20251113-095759,815,Experiment,Both,1,Automatic,main,77,20260326-163205,local,global,300,H,S,A,A,A-H.png,S-A.png,hH,sS,mask-3.png,mask-3.png,h,1,0.6639785000006668,s,1,0.0960730000078911,0.05001120000088122,0.04898880000109784,0.10111280001001433,0.09971750000840984,0.3010758000018541
RSVPLG03,km,20260326-162354,1.0.2,20251113-095759,815,Experiment,Both,1,Automatic,main,78,20260326-163210,global,local,750,H,S,E,E,H-E.png,E-S.png,hH,sS,mask-2.png,mask-3.png,h,1,0.22677850000036415,s,1,0.04555130000517238,0.048489799999515526,0.04885990000911988,0.10011850000591949,0.09982390000368468,0.7509412999934284
RSVPLG03,km,20260326-162354,1.0.2,20251113-095759,815,Experiment,Both,1,Automatic,main,79,20260326-163214,global,global,750,S,S,E,A,S-E.png,S-A.png,sS,sS,mask-3.png,mask-3.png,s,1,0.2752796999993734,s,1,0.06164409998746123,0.049262100001215,0.050696599995717406,0.10063269999227487,0.10147670000151265,0.750538599997526
RSVPLG03,km,20260326-162354,1.0.2,20251113-095759,815,Experiment,Both,1,Automatic,main,80,20260326-163219,global,global,750,H,H,A,E,H-A.png,H-E.png,hH,hH,mask-2.png,mask-2.png,h,1,0.27846129999670666,h,1,0.09259699999529403,0.05064239999046549,0.05214470000646543,0.10042939998675138,0.10178680000535678,0.7510382999898866
RSVPLG03,km,20260326-162354,1.0.2,20251113-095759,815,Experiment,Both,1,Automatic,main,81,20260326-163224,local,global,750,H,S,E,E,E-H.png,S-E.png,hH,sS,mask-2.png,mask-1.png,h,1,0.26197079999838024,s,1,0.09443040000041947,0.049808499999926426,0.04969400000118185,0.09975400000985246,0.10005520000413526,0.7513338999997359
RSVPLG03,km,20260326-162354,1.0.2,20251113-095759,815,Experiment,Both,1,Automatic,main,82,20260326-163228,global,local,300,S,S,A,E,S-A.png,E-S.png,sS,sS,mask-3.png,mask-3.png,h,0,0.38979919999837875,h,0,0.11172139999689534,0.04897980000532698,0.05100530000345316,0.10037719999672845,0.10013400000752881,0.2995080999971833
RSVPLG03,km,20260326-162354,1.0.2,20251113-095759,815,Experiment,Both,1,Automatic,main,83,20260326-163232,global,local,750,H,S,E,E,H-E.png,E-S.png,hH,sS,mask-4.png,mask-4.png,h,1,0.38610799999150913,s,1,0.062245099994470365,0.050101200002245605,0.05059179999807384,0.10016349999932572,0.1008562999923015,0.750952900008997
RSVPLG03,km,20260326-162354,1.0.2,20251113-095759,815,Experiment,Both,1,Automatic,main,84,20260326-163237,global,global,750,S,S,E,E,S-E.png,S-E.png,sS,sS,mask-3.png,mask-1.png,s,1,0.3011102000018582,s,1,0.09447279998857994,0.050566499994602054,0.049832200005766936,0.10116930000367574,0.09963060000154655,0.7527095999976154
RSVPLG03,km,20260326-162354,1.0.2,20251113-095759,815,Experiment,Both,1,Automatic,main,85,20260326-163241,global,global,300,H,H,E,E,H-E.png,H-E.png,hH,hH,mask-4.png,mask-1.png,h,1,0.3427276000002166,h,1,0.1124610999977449,0.049825699999928474,0.049806399998487905,0.0995546999911312,0.10031510000408161,0.3004209999926388
RSVPLG03,km,20260326-162354,1.0.2,20251113-095759,815,Experiment,Both,1,Automatic,main,86,20260326-163245,global,local,300,H,H,A,A,H-A.png,A-H.png,hH,hH,mask-2.png,mask-4.png,h,1,0.6025833000021521,h,1,0.15830699999060016,0.050336200001765974,0.049830799995106645,0.10032520000822842,0.09943180000118446,0.300023500007228
RSVPLG03,km,20260326-162354,1.0.2,20251113-095759,815,Experiment,Both,1,Automatic,main,87,20260326-163250,local,local,300,H,H,A,E,A-H.png,E-H.png,hH,hH,mask-3.png,mask-2.png,h,1,0.2666276000090875,h,1,0.09093489999941085,0.051461299997754395,0.04837550000229385,0.10199370000918861,0.09990600000310224,0.30206630000611767
RSVPLG03,km,20260326-162354,1.0.2,20251113-095759,815,Experiment,Both,1,Automatic,main,88,20260326-163254,global,local,750,S,S,A,A,S-A.png,A-S.png,sS,sS,mask-4.png,mask-2.png,s,1,0.296692299991264,s,1,0.10946629999671131,0.05044120000093244,0.049944200000027195,0.10004900000058115,0.09888830001000315,0.7529263999895193
RSVPLG03,km,20260326-162354,1.0.2,20251113-095759,815,Experiment,Both,1,Automatic,main,89,20260326-163258,global,global,300,H,H,E,E,H-E.png,H-E.png,hH,hH,mask-4.png,mask-3.png,h,1,0.3266430999938166,h,1,0.1130154999991646,0.04985290000331588,0.04996299999766052,0.09980959999666084,0.09897339998860843,0.30118120000406634
RSVPLG03,km,20260326-162354,1.0.2,20251113-095759,815,Experiment,Both,1,Automatic,main,90,20260326-163302,local,global,300,H,S,A,E,A-H.png,S-E.png,hH,sS,mask-2.png,mask-3.png,h,1,0.826055900004576,h,0,0.14242839999496937,0.050051699989126064,0.05040819999703672,0.10016889999678824,0.09963329999300186,0.2993711000017356
RSVPLG03,km,20260326-162354,1.0.2,20251113-095759,815,Experiment,Both,1,Automatic,main,91,20260326-163307,global,local,750,S,S,A,A,S-A.png,A-S.png,sS,sS,mask-4.png,mask-4.png,s,1,0.2981443000026047,s,1,0.11433459998806939,0.05001859999902081,0.04985579999629408,0.1000108000007458,0.0994732999970438,0.7516759999998612
RSVPLG03,km,20260326-162354,1.0.2,20251113-095759,815,Experiment,Both,1,Automatic,main,92,20260326-163312,global,global,300,S,S,A,A,S-A.png,S-A.png,sS,sS,mask-2.png,mask-4.png,s,1,0.7872162999992725,s,1,0.06375829999160487,0.05077079999318812,0.04887589999998454,0.10076210000261199,0.0988467999995919,0.30217650000122376
RSVPLG03,km,20260326-162354,1.0.2,20251113-095759,815,Experiment,Both,1,Automatic,main,93,20260326-163316,global,global,300,S,H,A,E,S-A.png,H-E.png,sS,hH,mask-3.png,mask-1.png,s,1,0.6224759000033373,h,1,0.04525560000911355,0.04984139998850878,0.0499232000001939,0.10034549998817965,0.09994430000369903,0.30217279998760205
RSVPLG03,km,20260326-162354,1.0.2,20251113-095759,815,Experiment,Both,1,Automatic,main,94,20260326-163321,global,local,750,S,H,A,A,S-A.png,A-H.png,sS,hH,mask-1.png,mask-1.png,s,1,0.6254002999921795,h,1,0.06341519999841694,0.049660999997286126,0.05004070000723004,0.10043269999732729,0.09999650000827387,0.7515796999941813
RSVPLG03,km,20260326-162354,1.0.2,20251113-095759,815,Experiment,Both,1,Automatic,main,95,20260326-163325,local,global,300,S,H,E,E,E-S.png,H-E.png,sS,hH,mask-3.png,mask-4.png,s,1,0.7376162000000477,h,1,0.06353220000164583,0.049672100009047426,0.05086630000732839,0.10062959999777377,0.09830529999453574,0.3005353000044124
RSVPLG03,km,20260326-162354,1.0.2,20251113-095759,815,Experiment,Both,1,Automatic,main,96,20260326-163330,local,local,750,H,H,E,E,E-H.png,E-H.png,hH,hH,mask-3.png,mask-1.png,h,1,0.3529138000012608,h,1,0.1125062000064645,0.05039519999991171,0.04877170000690967,0.09995859999617096,0.09881650000170339,0.7530973999964772
RSVPLG03,km,20260326-162354,1.0.2,20251113-095759,815,Experiment,Both,1,Automatic,main,97,20260326-163334,local,local,750,S,S,A,E,A-S.png,E-S.png,sS,sS,mask-2.png,mask-3.png,s,1,1.2963793999952031,s,1,0.114591500008828,0.05032760000904091,0.050620400012121536,0.10060810000868514,0.10055840000859462,0.7521536999993259
RSVPLG03,km,20260326-162354,1.0.2,20251113-095759,815,Experiment,Both,1,Automatic,main,98,20260326-163340,global,global,750,S,H,E,E,S-E.png,H-E.png,sS,hH,mask-3.png,mask-3.png,s,1,0.40661079999699723,h,1,0.1231372000038391,0.049522500004968606,0.049939799995627254,0.10034319999977015,0.09988500000326894,0.751385499999742
RSVPLG03,km,20260326-162354,1.0.2,20251113-095759,815,Experiment,Both,1,Automatic,main,99,20260326-163345,global,local,300,S,S,E,A,S-E.png,A-S.png,sS,sS,mask-1.png,mask-2.png,s,1,0.4947533999948064,h,0,0.09773839999979828,0.05081080000672955,0.0506669000023976,0.10062990000005811,0.09942329999466892,0.30120220000389963
RSVPLG03,km,20260326-162354,1.0.2,20251113-095759,815,Experiment,Both,1,Automatic,main,100,20260326-163349,global,global,750,S,H,A,A,S-A.png,H-A.png,sS,hH,mask-2.png,mask-4.png,s,1,0.6504701999947429,h,1,0.10911950000445358,0.0484913999971468,0.04881860000023153,0.09903810000105295,0.09855429999879561,0.7510809999948833
RSVPLG03,km,20260326-163442,1.0.2,20251113-095759,815,Experiment,Both,1,Automatic,warmup,1,20260326-163503,local,local,750,S,S,A,A,A-S.png,A-S.png,sS,sS,mask-3.png,mask-4.png,s,1,0.5571066000120481,s,1,0.1094403000024613,0.041192100004991516,0.05007199999818113,0.09037760000501294,0.0991782999917632,0.7428553000063403
RSVPLG03,km,20260326-163442,1.0.2,20251113-095759,815,Experiment,Both,1,Automatic,warmup,2,20260326-163508,global,global,750,H,H,E,A,H-E.png,H-A.png,hH,hH,mask-4.png,mask-3.png,h,1,0.19428959999640938,h,1,0.060609499996644445,0.04996799999207724,0.05160000000614673,0.10012210000422783,0.1022058999951696,0.7493094999954337
RSVPLG03,km,20260326-163442,1.0.2,20251113-095759,815,Experiment,Both,1,Automatic,warmup,3,20260326-163513,local,local,300,H,S,A,A,A-H.png,A-S.png,hH,sS,mask-1.png,mask-2.png,h,1,0.5985522999981185,s,1,0.5750437000097008,0.05036660000041593,0.05030339999939315,0.10175299999536946,0.10079319999204017,0.30086540000047535
RSVPLG03,km,20260326-163442,1.0.2,20251113-095759,815,Experiment,Both,1,Automatic,warmup,4,20260326-163518,local,global,750,H,S,A,A,A-H.png,S-A.png,hH,sS,mask-3.png,mask-3.png,h,1,0.33196769999631215,s,1,0.013177899993024766,0.05144329999166075,0.05160079999768641,0.10042069999326486,0.10079110000515357,0.7510450999980094
RSVPLG03,km,20260326-163442,1.0.2,20251113-095759,815,Experiment,Both,1,Automatic,main,5,20260326-163522,global,local,300,H,S,A,E,H-A.png,E-S.png,hH,sS,mask-3.png,mask-1.png,h,1,0.3090308999962872,s,1,0.4851749999943422,0.05001269999775104,0.05001769999216776,0.1003603999997722,0.09951709999586456,0.29997789999470115
RSVPLG03,km,20260326-163442,1.0.2,20251113-095759,815,Experiment,Both,1,Automatic,main,6,20260326-163526,local,local,750,S,H,E,A,E-S.png,A-H.png,sS,hH,mask-4.png,mask-2.png,s,1,0.8082073999976274,h,1,0.012931000004755333,0.049055900002713315,0.04837750000297092,0.09914210000715684,0.09865749999880791,0.7501736999984132
RSVPLG03,km,20260326-163442,1.0.2,20251113-095759,815,Experiment,Both,1,Automatic,main,7,20260326-163531,global,local,750,H,H,A,E,H-A.png,E-H.png,hH,hH,mask-1.png,mask-4.png,h,1,0.4625043999985792,h,1,0.09417549999488983,0.050959700005478226,0.04742820000683423,0.10004980000667274,0.09900290000950918,0.7515800999972271
RSVPLG03,km,20260326-163442,1.0.2,20251113-095759,815,Experiment,Both,1,Automatic,main,8,20260326-163536,local,global,750,H,H,A,E,A-H.png,H-E.png,hH,hH,mask-1.png,mask-4.png,h,1,0.5268066999997245,s,0,0.095150699999067,0.04895239998586476,0.04906840001058299,0.0990171999874292,0.09823480001068674,0.7514428999857046
RSVPLG03,km,20260326-163442,1.0.2,20251113-095759,815,Experiment,Both,1,Automatic,main,9,20260326-163541,global,local,750,H,S,A,A,H-A.png,A-S.png,hH,sS,mask-1.png,mask-4.png,h,1,0.7853825000056531,s,1,0.06177149999712128,0.050342500006081536,0.049939599994104356,0.10107920000154991,0.09901839999656659,0.7524683000083314
RSVPLG03,km,20260326-163442,1.0.2,20251113-095759,815,Experiment,Both,1,Automatic,main,10,20260326-163546,global,global,750,S,S,A,E,S-A.png,S-E.png,sS,sS,mask-2.png,mask-1.png,s,1,0.6072272000019439,s,1,0.11097260001406539,0.05025749999913387,0.05065199999080505,0.09892439999384806,0.100753499995335,0.7503524000057951
RSVPLG03,km,20260326-163442,1.0.2,20251113-095759,815,Experiment,Both,1,Automatic,main,11,20260326-163551,global,global,750,S,H,A,A,S-A.png,H-A.png,sS,hH,mask-2.png,mask-2.png,s,1,0.6095303999900352,h,1,0.22038709999469575,0.048579800000879914,0.049474999992526136,0.09968050000315998,0.09959499999240506,0.7519559000065783
RSVPLG03,km,20260326-163442,1.0.2,20251113-095759,815,Experiment,Both,1,Automatic,main,12,20260326-163555,global,global,300,S,S,A,A,S-A.png,S-A.png,sS,sS,mask-4.png,mask-2.png,s,1,0.34290589999000076,s,1,0.12608329999784473,0.050967000002856366,0.049817500010249205,0.09991760000411887,0.09882400000060443,0.30153019999852404
RSVPLG03,km,20260326-163442,1.0.2,20251113-095759,815,Experiment,Both,1,Automatic,main,13,20260326-163600,global,global,300,H,S,E,A,H-E.png,S-A.png,hH,sS,mask-3.png,mask-1.png,h,1,0.36730009999882895,s,1,0.06361430000106338,0.04980229999637231,0.04867740000190679,0.09979839999869,0.09824639999715146,0.3003831999958493
RSVPLG03,km,20260326-163442,1.0.2,20251113-095759,815,Experiment,Both,1,Automatic,main,14,20260326-163604,local,global,300,S,S,A,A,A-S.png,S-A.png,sS,sS,mask-2.png,mask-1.png,s,1,0.5019492999999784,h,0,0.11367600000812672,0.049711600004229695,0.0493787000013981,0.09960719999799039,0.09868779999669641,0.30067090000375174
RSVPLG03,km,20260326-163442,1.0.2,20251113-095759,815,Experiment,Both,1,Automatic,main,15,20260326-163608,local,local,750,S,H,A,A,A-S.png,A-H.png,sS,hH,mask-1.png,mask-1.png,s,1,0.6400073999975575,h,1,0.21926099999109283,0.048864800002775155,0.048274300002958626,0.09894890000578016,0.09853600000496954,0.7505578999989666
RSVPLG03,km,20260326-163442,1.0.2,20251113-095759,815,Experiment,Both,1,Automatic,main,16,20260326-163613,global,global,750,S,H,A,E,S-A.png,H-E.png,sS,hH,mask-1.png,mask-3.png,s,1,0.4456547000008868,h,1,0.09456929999578279,0.05029189999913797,0.04856199999630917,0.10083759999542963,0.09960029998910613,0.7515007000038167
RSVPLG03,km,20260326-163442,1.0.2,20251113-095759,815,Experiment,Both,1,Automatic,main,17,20260326-163618,global,global,300,S,H,E,A,S-E.png,H-A.png,sS,hH,mask-1.png,mask-3.png,s,1,0.5009948999941116,h,1,0.12543339999683667,0.04893889999948442,0.04925280000315979,0.09890279998944607,0.09901740000350401,0.29930299999250565
RSVPLG03,km,20260326-163442,1.0.2,20251113-095759,815,Experiment,Both,1,Automatic,main,18,20260326-163622,local,global,300,H,S,E,A,E-H.png,S-A.png,hH,sS,mask-3.png,mask-2.png,h,1,0.5005455000064103,s,1,0.07939150001038797,0.050745899992762133,0.05070730000443291,0.10060180000436958,0.09988370000792202,0.30044079999788664
RSVPLG03,km,20260326-163442,1.0.2,20251113-095759,815,Experiment,Both,1,Automatic,main,19,20260326-163626,global,local,750,H,H,E,A,H-E.png,A-H.png,hH,hH,mask-4.png,mask-1.png,h,1,0.27591640000173356,h,1,0.09315970000170637,0.04975350000313483,0.04873990001215134,0.09839030000148341,0.09868780001124833,0.7507836000004318
RSVPLG03,km,20260326-163442,1.0.2,20251113-095759,815,Experiment,Both,1,Automatic,main,20,20260326-163631,global,local,300,H,H,A,A,H-A.png,A-H.png,hH,hH,mask-4.png,mask-4.png,h,1,0.2678276999940863,h,1,0.06055949999426957,0.048547900005360134,0.049494599996251054,0.0987475000001723,0.09999750000133645,0.29968450000160374
RSVPLG03,km,20260326-163442,1.0.2,20251113-095759,815,Experiment,Both,1,Automatic,main,21,20260326-163635,local,local,750,S,H,A,A,A-S.png,A-H.png,sS,hH,mask-3.png,mask-1.png,s,1,0.6071994000085397,h,1,0.2845555000094464,0.04934769999817945,0.05042200000025332,0.10027260000060778,0.10150140000041574,0.7507612999906996
RSVPLG03,km,20260326-163442,1.0.2,20251113-095759,815,Experiment,Both,1,Automatic,main,22,20260326-163640,local,global,300,S,S,E,A,E-S.png,S-A.png,sS,sS,mask-2.png,mask-2.png,s,1,0.5266170000104466,h,0,0.06153019999328535,0.04860589999589138,0.04925820000062231,0.09866419999161735,0.10064259999489877,0.2990243999956874
RSVPLG03,km,20260326-163442,1.0.2,20251113-095759,815,Experiment,Both,1,Automatic,main,23,20260326-163644,local,local,300,S,S,E,E,E-S.png,E-S.png,sS,sS,mask-4.png,mask-1.png,s,1,0.9110618999984581,s,1,0.10910549999971408,0.049114499997813255,0.04961370000091847,0.09984179999446496,0.09972310000739526,0.2998628999921493
RSVPLG03,km,20260326-163442,1.0.2,20251113-095759,815,Experiment,Both,1,Automatic,main,24,20260326-163649,local,local,300,S,S,E,E,E-S.png,E-S.png,sS,sS,mask-1.png,mask-1.png,s,1,0.3739128000015626,s,1,0.1287785000022268,0.050822699995478615,0.04984890000196174,0.09976169999572448,0.09981790000165347,0.3010112000047229
RSVPLG03,km,20260326-163442,1.0.2,20251113-095759,815,Experiment,Both,1,Automatic,main,25,20260326-163653,local,global,750,H,H,E,A,E-H.png,H-A.png,hH,hH,mask-1.png,mask-4.png,h,1,0.6427200000034645,h,1,0.3016235999966739,0.04898989999492187,0.04926790000172332,0.09860840000328608,0.09811150000314228,0.7510624999995343
RSVPLG03,km,20260326-163442,1.0.2,20251113-095759,815,Experiment,Both,1,Automatic,main,26,20260326-163700,global,local,750,S,H,E,E,S-E.png,E-H.png,sS,hH,mask-4.png,mask-1.png,h,0,0.6696040999959223,s,0,0.061876200008555315,0.050350699995760806,0.0491038999898592,0.09908849999192171,0.09893490000104066,0.751089299999876
RSVPLG03,km,20260326-163442,1.0.2,20251113-095759,815,Experiment,Both,1,Automatic,main,27,20260326-163705,global,global,300,S,H,E,E,S-E.png,H-E.png,sS,hH,mask-4.png,mask-4.png,s,1,0.7533130000083474,h,1,0.2227376000082586,0.05095999999321066,0.04948079999303445,0.10001660000125412,0.0990789999923436,0.3005674000014551
RSVPLG03,km,20260326-163442,1.0.2,20251113-095759,815,Experiment,Both,1,Automatic,main,28,20260326-163709,local,local,300,H,S,A,E,A-H.png,E-S.png,hH,sS,mask-3.png,mask-4.png,h,1,0.554857399998582,s,1,0.06207929999800399,0.048456000004080124,0.05148310000367928,0.10006709999288432,0.10109229999943636,0.2985294999962207
RSVPLG03,km,20260326-163442,1.0.2,20251113-095759,815,Experiment,Both,1,Automatic,main,29,20260326-163714,local,global,750,H,H,E,A,E-H.png,H-A.png,hH,hH,mask-4.png,mask-4.png,h,1,0.5492030999885174,h,1,0.12466419998963829,0.05171249998966232,0.0509839999867836,0.1005307999876095,0.10104069999943022,0.7510780000011437
RSVPLG03,km,20260326-163442,1.0.2,20251113-095759,815,Experiment,Both,1,Automatic,main,30,20260326-163719,global,global,750,S,H,A,E,S-A.png,H-E.png,sS,hH,mask-1.png,mask-2.png,h,0,0.6439990000071703,h,1,0.20662749999610242,0.051204899995354936,0.05001700000138953,0.10069279999879654,0.0982615000102669,0.7528827999922214
RSVPLG03,km,20260326-163442,1.0.2,20251113-095759,815,Experiment,Both,1,Automatic,main,31,20260326-163724,global,global,750,S,H,A,A,S-A.png,H-A.png,sS,hH,mask-4.png,mask-4.png,s,1,0.5774286999949254,h,1,0.14254479999362957,0.051018400001339614,0.05019500000344124,0.10115679999580607,0.10124040000664536,0.7504101999948034
RSVPLG03,km,20260326-163442,1.0.2,20251113-095759,815,Experiment,Both,1,Automatic,main,32,20260326-163729,local,global,750,S,S,E,A,E-S.png,S-A.png,sS,sS,mask-4.png,mask-2.png,s,1,0.8674255999940215,h,0,0.09557040000800043,0.04998640000121668,0.05053679998673033,0.1012481000070693,0.10149029998865444,0.7501119000080507
RSVPLG03,km,20260326-163442,1.0.2,20251113-095759,815,Experiment,Both,1,Automatic,main,33,20260326-163734,local,local,300,S,H,E,E,E-S.png,E-H.png,sS,hH,mask-2.png,mask-2.png,s,1,1.7692836999922292,h,1,0.0955106000037631,0.050616000007721595,0.05048010000609793,0.10228370000550058,0.10008440000819974,0.3019103999977233
RSVPLG03,km,20260326-163442,1.0.2,20251113-095759,815,Experiment,Both,1,Automatic,main,34,20260326-163739,local,local,300,S,H,E,A,E-S.png,A-H.png,sS,hH,mask-4.png,mask-3.png,s,1,1.9966831999918213,s,0,0.1414951999904588,0.050948699994478375,0.04882170000928454,0.10096229999908246,0.0994053000031272,0.3007022999954643
RSVPLG03,km,20260326-163442,1.0.2,20251113-095759,815,Experiment,Both,1,Automatic,main,35,20260326-163745,global,global,300,H,S,A,A,H-A.png,S-A.png,hH,sS,mask-4.png,mask-3.png,h,1,0.7206033999973442,s,1,0.061633399993297644,0.049978099996224046,0.048830600004293956,0.10047170000325423,0.09868360000837129,0.302044099997147
RSVPLG03,km,20260326-163442,1.0.2,20251113-095759,815,Experiment,Both,1,Automatic,main,36,20260326-163750,local,local,750,H,S,A,A,A-H.png,A-S.png,hH,sS,mask-1.png,mask-1.png,h,1,0.6301287000096636,s,1,0.045384599987301044,0.048855999993975274,0.049953900001128204,0.09882569999899715,0.09990770000149496,0.7493874999927357
RSVPLG03,km,20260326-163442,1.0.2,20251113-095759,815,Experiment,Both,1,Automatic,main,37,20260326-163755,local,global,750,H,S,A,A,A-H.png,S-A.png,hH,sS,mask-1.png,mask-4.png,s,0,0.8397505999892019,s,1,0.7025713000039104,0.04963589999533724,0.0505698999913875,0.09963040000002366,0.10221399999863934,0.7485237000073539
RSVPLG03,km,20260326-163442,1.0.2,20251113-095759,815,Experiment,Both,1,Automatic,main,38,20260326-163800,local,global,750,S,H,E,E,E-S.png,H-E.png,sS,hH,mask-4.png,mask-1.png,s,1,1.5772907000064151,h,1,0.07788159999472555,0.05061980000755284,0.04973639998934232,0.09986630000639707,0.09957099999883212,0.7504733000096167
RSVPLG03,km,20260326-163442,1.0.2,20251113-095759,815,Experiment,Both,1,Automatic,main,39,20260326-163806,global,local,750,S,S,A,E,S-A.png,E-S.png,sS,sS,mask-3.png,mask-4.png,s,1,0.5576006999908714,s,1,0.10705009999219328,0.051350099995033816,0.05004200000257697,0.10078300000168383,0.10005720000481233,0.752160999996704
RSVPLG03,km,20260326-163442,1.0.2,20251113-095759,815,Experiment,Both,1,Automatic,main,40,20260326-163811,local,global,750,H,H,E,E,E-H.png,H-E.png,hH,hH,mask-2.png,mask-4.png,s,0,0.6621830999938538,h,1,0.06313170000794344,0.049837600003229454,0.05023800001072232,0.1008542000054149,0.10014220001176,0.751663599992753
RSVPLG03,km,20260326-163442,1.0.2,20251113-095759,815,Experiment,Both,1,Automatic,main,41,20260326-163816,global,global,300,S,H,A,A,S-A.png,H-A.png,sS,hH,mask-1.png,mask-2.png,h,0,0.49209559999872,s,0,0.045840999999199994,0.04982910001126584,0.05143220000900328,0.09979350000503473,0.09994020000158343,0.29893319999973755
RSVPLG03,km,20260326-163442,1.0.2,20251113-095759,815,Experiment,Both,1,Automatic,main,42,20260326-163820,global,local,750,S,S,E,E,S-E.png,E-S.png,sS,sS,mask-1.png,mask-4.png,s,1,0.3710970999964047,s,1,0.11077060000388883,0.04964970001310576,0.05087229999480769,0.10001300000294577,0.09982920000038575,0.7508919000101741
RSVPLG03,km,20260326-163442,1.0.2,20251113-095759,815,Experiment,Both,1,Automatic,main,43,20260326-163825,local,local,750,H,S,E,A,E-H.png,A-S.png,hH,sS,mask-2.png,mask-4.png,h,1,0.2534929999965243,s,1,0.10991610000201035,0.04925349999393802,0.04898810001031961,0.10064239999337588,0.09866840000904631,0.7517243999900529
RSVPLG03,km,20260326-163442,1.0.2,20251113-095759,815,Experiment,Both,1,Automatic,main,44,20260326-163829,local,global,750,H,H,E,E,E-H.png,H-E.png,hH,hH,mask-3.png,mask-3.png,h,1,0.3254311999917263,s,0,0.1412687999982154,0.050969200005056337,0.04769469999882858,0.10102099999494385,0.0991543999989517,0.7517577999969944
RSVPLG03,km,20260326-163442,1.0.2,20251113-095759,815,Experiment,Both,1,Automatic,main,45,20260326-163834,local,local,750,S,S,E,A,E-S.png,A-S.png,sS,sS,mask-1.png,mask-4.png,s,1,1.3039824000006774,h,0,0.1432316999998875,0.04880839999532327,0.049871399998664856,0.10044399999605957,0.09886909999477211,0.7517604000022402
RSVPLG03,km,20260326-163442,1.0.2,20251113-095759,815,Experiment,Both,1,Automatic,main,46,20260326-163840,global,local,300,H,S,E,A,H-E.png,A-S.png,hH,sS,mask-3.png,mask-2.png,h,1,0.5556888999999501,h,0,0.09455289998732042,0.04983560000255238,0.04988489999959711,0.09984769999573473,0.09983490000013262,0.2997096000035526
RSVPLG03,km,20260326-163442,1.0.2,20251113-095759,815,Experiment,Both,1,Automatic,main,47,20260326-163844,local,local,750,S,H,E,A,E-S.png,A-H.png,sS,hH,mask-4.png,mask-2.png,s,1,0.3553921000129776,h,1,0.11112219998904038,0.05010500000207685,0.050478800010751,0.10018120000313502,0.10425170000235084,0.7504206000012346
RSVPLG03,km,20260326-163442,1.0.2,20251113-095759,815,Experiment,Both,1,Automatic,main,48,20260326-163848,global,local,300,S,H,A,E,S-A.png,E-H.png,sS,hH,mask-1.png,mask-3.png,s,1,0.48729430000821594,s,0,0.12544370000250638,0.049592800001846626,0.049630199995590374,0.09954310000466648,0.09939839999424294,0.3006850000092527
RSVPLG03,km,20260326-163442,1.0.2,20251113-095759,815,Experiment,Both,1,Automatic,main,49,20260326-163853,local,global,750,H,S,E,A,E-H.png,S-A.png,hH,sS,mask-1.png,mask-1.png,h,1,0.5036996999988332,s,1,0.04651640000520274,0.05013959998905193,0.05040400000871159,0.10012639999331441,0.10069340000336524,0.749089399992954
RSVPLG03,km,20260326-163442,1.0.2,20251113-095759,815,Experiment,Both,1,Automatic,main,50,20260326-163857,global,local,300,H,S,A,A,H-A.png,A-S.png,hH,sS,mask-3.png,mask-1.png,h,1,0.32770029999664985,h,0,0.11295239999890327,0.05028019999735989,0.05125129999942146,0.09920900000724941,0.10192080000706483,0.29855469999893103
RSVPLG03,km,20260326-163442,1.0.2,20251113-095759,815,Experiment,Both,1,Automatic,main,51,20260326-164017,global,local,750,S,H,A,A,S-A.png,A-H.png,sS,hH,mask-4.png,mask-2.png,s,1,0.35051129999919794,h,1,0.0950310000043828,0.04868729998997878,0.049926300009246916,0.09856489999219775,0.10005270001420286,0.7496946999890497
RSVPLG03,km,20260326-163442,1.0.2,20251113-095759,815,Experiment,Both,1,Automatic,main,52,20260326-164021,global,local,300,S,S,E,A,S-E.png,A-S.png,sS,sS,mask-1.png,mask-3.png,s,1,0.31444529999862425,s,1,0.07834700000239536,0.05078180000418797,0.05197799998859409,0.10007580000092275,0.10141239999211393,0.3006926000089152
RSVPLG03,km,20260326-163442,1.0.2,20251113-095759,815,Experiment,Both,1,Automatic,main,53,20260326-164025,global,global,300,S,S,A,E,S-A.png,S-E.png,sS,sS,mask-4.png,mask-4.png,s,1,0.6536539999942761,s,1,0.11047770000004675,0.049967800005106255,0.04893539998738561,0.1000315999990562,0.09863879998738412,0.30080150000867434
RSVPLG03,km,20260326-163442,1.0.2,20251113-095759,815,Experiment,Both,1,Automatic,main,54,20260326-164030,local,global,300,H,S,A,E,A-H.png,S-E.png,hH,sS,mask-3.png,mask-1.png,h,1,0.5223447000025772,s,1,0.049558800004888326,0.0499602999916533,0.050469399997382425,0.10016319999704137,0.099089900002582,0.3004519999958575
RSVPLG03,km,20260326-163442,1.0.2,20251113-095759,815,Experiment,Both,1,Automatic,main,55,20260326-164034,local,local,750,S,H,E,A,E-S.png,A-H.png,sS,hH,mask-2.png,mask-3.png,s,1,0.3500995999929728,h,1,0.446084899987909,0.05074309998599347,0.04862439999124035,0.10143549999338575,0.10016249999171123,0.7518934999970952
RSVPLG03,km,20260326-163442,1.0.2,20251113-095759,815,Experiment,Both,1,Automatic,main,56,20260326-164039,global,global,750,H,H,E,E,H-E.png,H-E.png,hH,hH,mask-2.png,mask-1.png,h,1,0.27318580000428483,h,1,0.07972680000239052,0.04875130001164507,0.04862100000900682,0.0999224000115646,0.09961370000382885,0.7508257000008598
RSVPLG03,km,20260326-163442,1.0.2,20251113-095759,815,Experiment,Both,1,Automatic,main,57,20260326-164043,global,local,300,H,S,E,E,H-E.png,E-S.png,hH,sS,mask-1.png,mask-1.png,h,1,0.3142331999988528,h,0,0.09514829999534413,0.048625000010360964,0.049410099993110634,0.0994020000071032,0.09818319999612868,0.30012540001189336
RSVPLG03,km,20260326-163442,1.0.2,20251113-095759,815,Experiment,Both,1,Automatic,main,58,20260326-164047,local,local,300,H,H,A,A,A-H.png,A-H.png,hH,hH,mask-1.png,mask-3.png,h,1,0.8584624999930384,h,1,0.14091800000460353,0.048940199994831346,0.049883500003488734,0.09902169999259058,0.09984979999717325,0.300264799996512
RSVPLG03,km,20260326-163442,1.0.2,20251113-095759,815,Experiment,Both,1,Automatic,main,59,20260326-164052,local,local,300,H,S,E,E,E-H.png,E-S.png,hH,sS,mask-3.png,mask-2.png,h,1,0.8064887999935308,s,1,0.31691500000306405,0.04981529999349732,0.04991719999816269,0.1007675000000745,0.09920310000597965,0.30111119999492075
RSVPLG03,km,20260326-163442,1.0.2,20251113-095759,815,Experiment,Both,1,Automatic,main,60,20260326-164057,local,global,300,H,S,E,A,E-H.png,S-A.png,hH,sS,mask-1.png,mask-4.png,h,1,0.4537195000011707,s,1,0.06293829999049194,0.051373200010857545,0.049545000001671724,0.10208080000302289,0.1005693000042811,0.3018426000053296
RSVPLG03,km,20260326-163442,1.0.2,20251113-095759,815,Experiment,Both,1,Automatic,main,61,20260326-164101,local,global,300,S,H,A,A,A-S.png,H-A.png,sS,hH,mask-4.png,mask-4.png,s,1,0.3360980000143172,h,1,0.07746630000474397,0.05155200000444893,0.04869959999632556,0.10117860000173096,0.09914700000081211,0.30218620000232477
RSVPLG03,km,20260326-163442,1.0.2,20251113-095759,815,Experiment,Both,1,Automatic,main,62,20260326-164105,local,local,300,H,H,A,E,A-H.png,E-H.png,hH,hH,mask-4.png,mask-1.png,h,1,0.22497709999151994,h,1,0.09842390000994783,0.048439699996379204,0.048734500000136904,0.09905560000333935,0.09875239999382757,0.29984110000077635
RSVPLG03,km,20260326-163442,1.0.2,20251113-095759,815,Experiment,Both,1,Automatic,main,63,20260326-164109,global,global,300,S,S,E,E,S-E.png,S-E.png,sS,sS,mask-1.png,mask-1.png,s,1,0.5714984999940498,h,0,0.002317199992830865,0.04956820000370499,0.04897819999314379,0.10001030001149047,0.10008030000608414,0.30065010000544135
RSVPLG03,km,20260326-163442,1.0.2,20251113-095759,815,Experiment,Both,1,Automatic,main,64,20260326-164113,local,local,300,S,H,E,A,E-S.png,A-H.png,sS,hH,mask-2.png,mask-3.png,s,1,2.015206099997158,h,1,0.1284631000016816,0.04993960000865627,0.0496424000011757,0.1004601000022376,0.10064790000615176,0.3004871000011917
RSVPLG03,km,20260326-163442,1.0.2,20251113-095759,815,Experiment,Both,1,Automatic,main,65,20260326-164119,global,global,750,S,H,A,A,S-A.png,H-A.png,sS,hH,mask-3.png,mask-4.png,s,1,0.7588935999956448,h,1,0.09452869999222457,0.050822100005461834,0.04956030000175815,0.09979380000731908,0.09914170000411104,0.7518634000007296
RSVPLG03,km,20260326-163442,1.0.2,20251113-095759,815,Experiment,Both,1,Automatic,main,66,20260326-164124,global,local,300,H,S,A,E,H-A.png,E-S.png,hH,sS,mask-3.png,mask-3.png,h,1,0.3493785000027856,s,1,0.15699449999374337,0.05048989999340847,0.05174559999431949,0.10031989999697544,0.10165899999265093,0.29908419999992475
RSVPLG03,km,20260326-163442,1.0.2,20251113-095759,815,Experiment,Both,1,Automatic,main,67,20260326-164129,global,global,300,H,S,E,E,H-E.png,S-E.png,hH,sS,mask-2.png,mask-2.png,h,1,0.3425310000020545,s,1,0.1595072999916738,0.0499578000017209,0.04994810000061989,0.09996900000260212,0.0998775000043679,0.29997930000536144
RSVPLG03,km,20260326-163442,1.0.2,20251113-095759,815,Experiment,Both,1,Automatic,main,68,20260326-164133,local,local,750,H,H,A,E,A-H.png,E-H.png,hH,hH,mask-1.png,mask-1.png,h,1,0.39826230000471696,h,1,0.10988999999244697,0.04988019999291282,0.05006749999301974,0.0976853000029223,0.10027619999891613,0.7488630000007106
RSVPLG03,km,20260326-163442,1.0.2,20251113-095759,815,Experiment,Both,1,Automatic,main,69,20260326-164137,local,local,750,H,S,E,A,E-H.png,A-S.png,hH,sS,mask-3.png,mask-4.png,h,1,0.3263338999968255,s,1,0.11409279999497812,0.04984949999197852,0.049830599993583746,0.09981669999251608,0.10082609999517445,0.7499133999954211
RSVPLG03,km,20260326-163442,1.0.2,20251113-095759,815,Experiment,Both,1,Automatic,main,70,20260326-164142,local,global,300,S,H,A,A,A-S.png,H-A.png,sS,hH,mask-4.png,mask-2.png,s,1,1.074918800004525,h,1,0.014515899994876236,0.04954590000852477,0.050413300006766804,0.09898840000096243,0.10083520000625867,0.2991872999991756
RSVPLG03,km,20260326-163442,1.0.2,20251113-095759,815,Experiment,Both,1,Automatic,main,71,20260326-164147,local,global,750,S,H,A,E,A-S.png,H-E.png,sS,hH,mask-2.png,mask-2.png,s,1,1.3943214000028092,h,1,0.14005709999764804,0.05071660000248812,0.049638000011327676,0.10130180000851396,0.10070059999998193,0.7514890000020387
RSVPLG03,km,20260326-163442,1.0.2,20251113-095759,815,Experiment,Both,1,Automatic,main,72,20260326-164153,local,global,300,H,H,E,A,E-H.png,H-A.png,hH,hH,mask-2.png,mask-4.png,h,1,0.4749322999996366,s,0,0.07791079999879003,0.050207699998281896,0.04768970000441186,0.09920189999684226,0.09912810000241734,0.3002088999928674
RSVPLG03,km,20260326-163442,1.0.2,20251113-095759,815,Experiment,Both,1,Automatic,main,73,20260326-164157,local,global,300,S,H,A,A,A-S.png,H-A.png,sS,hH,mask-1.png,mask-3.png,s,1,0.8263102000055369,h,1,0.013745399992330931,0.048278900008881465,0.050174000003607944,0.09872570000879932,0.0997852000000421,0.29973009999957867
RSVPLG03,km,20260326-163442,1.0.2,20251113-095759,815,Experiment,Both,1,Automatic,main,74,20260326-164202,local,global,750,S,H,E,E,E-S.png,H-E.png,sS,hH,mask-3.png,mask-1.png,s,1,1.8185291999980109,s,0,0.09170299999823328,0.0505157000006875,0.05156189999252092,0.10072759998729452,0.10069680000015069,0.750386100000469
RSVPLG03,km,20260326-163442,1.0.2,20251113-095759,815,Experiment,Both,1,Automatic,main,75,20260326-164208,local,local,750,H,H,A,A,A-H.png,A-H.png,hH,hH,mask-4.png,mask-4.png,h,1,0.3080170999892289,h,1,0.11149539999314584,0.04997130000265315,0.05061760000535287,0.10118480000528507,0.10172590000729542,0.7503965999931097
RSVPLG03,km,20260326-163442,1.0.2,20251113-095759,815,Experiment,Both,1,Automatic,main,76,20260326-164213,global,local,750,H,H,E,A,H-E.png,A-H.png,hH,hH,mask-2.png,mask-1.png,h,1,0.27498210000339895,h,1,0.09481429999868851,0.05048059999535326,0.04996380000375211,0.10035359999164939,0.0996010000089882,0.7510958999919239
RSVPLG03,km,20260326-163442,1.0.2,20251113-095759,815,Experiment,Both,1,Automatic,main,77,20260326-164218,local,global,750,S,H,A,A,A-S.png,H-A.png,sS,hH,mask-1.png,mask-1.png,s,1,0.3279785000049742,h,1,0.08036670000001322,0.04985310000483878,0.0498436999914702,0.09887539999908768,0.09984139999141917,0.7498791000107303
RSVPLG03,km,20260326-163442,1.0.2,20251113-095759,815,Experiment,Both,1,Automatic,main,78,20260326-164222,global,global,750,S,H,A,E,S-A.png,H-E.png,sS,hH,mask-1.png,mask-1.png,s,1,0.2630881000077352,h,1,0.04386930000327993,0.05099000000336673,0.05086730000039097,0.10071529999549966,0.10057969999616034,0.7506575000006706
RSVPLG03,km,20260326-163442,1.0.2,20251113-095759,815,Experiment,Both,1,Automatic,main,79,20260326-164227,global,global,300,S,S,E,E,S-E.png,S-E.png,sS,sS,mask-3.png,mask-1.png,s,1,0.32952539999678265,s,1,0.14087000000290573,0.04999259999021888,0.048635999992256984,0.09871779999230057,0.0993053999991389,0.29932419999386184
RSVPLG03,km,20260326-163442,1.0.2,20251113-095759,815,Experiment,Both,1,Automatic,main,80,20260326-164231,local,local,750,S,H,E,A,E-S.png,A-H.png,sS,hH,mask-2.png,mask-1.png,s,1,0.8191416000045137,h,1,0.04542130000481848,0.04878169999574311,0.04995709999639075,0.0989728999993531,0.09995819999312516,0.7492240999999922
RSVPLG03,km,20260326-163442,1.0.2,20251113-095759,815,Experiment,Both,1,Automatic,main,81,20260326-164236,local,local,300,S,S,E,E,E-S.png,E-S.png,sS,sS,mask-1.png,mask-1.png,s,1,0.4174713999964297,s,1,0.10997689999931026,0.04988289999892004,0.049638800002867356,0.09992910000437405,0.09941450000042096,0.29955019999761134
RSVPLG03,km,20260326-163442,1.0.2,20251113-095759,815,Experiment,Both,1,Automatic,main,82,20260326-164240,local,local,300,S,S,E,A,E-S.png,A-S.png,sS,sS,mask-3.png,mask-1.png,s,1,0.33866850000049453,s,1,0.12633339999592863,0.0486928999889642,0.049404300007154234,0.09980579999682959,0.10026780000771396,0.2993695999903139
RSVPLG03,km,20260326-163442,1.0.2,20251113-095759,815,Experiment,Both,1,Automatic,main,83,20260326-164244,global,global,750,H,H,E,A,H-E.png,H-A.png,hH,hH,mask-3.png,mask-3.png,h,1,0.16690409999864642,h,1,0.1253664999967441,0.04982110000855755,0.0501930999889737,0.10087120000389405,0.10071479999169242,0.7503205000102753
RSVPLG03,km,20260326-163442,1.0.2,20251113-095759,815,Experiment,Both,1,Automatic,main,84,20260326-164249,global,local,750,S,H,E,E,S-E.png,E-H.png,sS,hH,mask-4.png,mask-4.png,s,1,0.38633629999822006,s,0,0.12582539999857545,0.049904700004844926,0.05367660000047181,0.0989119000005303,0.09946739999577403,0.7500870000076247
RSVPLG03,km,20260326-163442,1.0.2,20251113-095759,815,Experiment,Both,1,Automatic,main,85,20260326-164253,local,global,300,H,S,E,A,E-H.png,S-A.png,hH,sS,mask-3.png,mask-3.png,h,1,0.6137450000096578,s,1,0.08292200000141747,0.049846900001284666,0.0492281000042567,0.09992130000318866,0.10022379999281839,0.30074469999817666
RSVPLG03,km,20260326-163442,1.0.2,20251113-095759,815,Experiment,Both,1,Automatic,main,86,20260326-164258,global,local,300,H,S,A,E,H-A.png,E-S.png,hH,sS,mask-4.png,mask-2.png,h,1,0.45960119999654125,s,1,0.04990150000958238,0.04952460000640713,0.05067359999520704,0.1005390000063926,0.09926940000150353,0.30016600000089966
RSVPLG03,km,20260326-163442,1.0.2,20251113-095759,815,Experiment,Both,1,Automatic,main,87,20260326-164302,local,local,300,S,H,E,E,E-S.png,E-H.png,sS,hH,mask-1.png,mask-1.png,s,1,0.347098600002937,h,1,0.05962149999686517,0.0506553999875905,0.04987040000560228,0.0994222000008449,0.09857950000150595,0.3006520999915665
RSVPLG03,km,20260326-163442,1.0.2,20251113-095759,815,Experiment,Both,1,Automatic,main,88,20260326-164306,global,global,750,S,S,A,E,S-A.png,S-E.png,sS,sS,mask-2.png,mask-4.png,s,1,0.39247370000521187,s,1,0.09607880000839941,0.04896879999432713,0.05183949999627657,0.0991444999963278,0.10179010000138078,0.7501762000028975
RSVPLG03,km,20260326-163442,1.0.2,20251113-095759,815,Experiment,Both,1,Automatic,main,89,20260326-164311,global,local,300,H,H,E,E,H-E.png,E-H.png,hH,hH,mask-2.png,mask-4.png,h,1,0.9289312999899266,s,0,0.03166370000690222,0.05036910000490025,0.05013479999615811,0.10031969999545254,0.1000388000102248,0.29998039999918547
RSVPLG03,km,20260326-163442,1.0.2,20251113-095759,815,Experiment,Both,1,Automatic,main,90,20260326-164315,local,global,300,S,H,A,A,A-S.png,H-A.png,sS,hH,mask-4.png,mask-4.png,h,0,0.7302314999978989,s,0,0.09349959999963176,0.05056400000466965,0.04951049998635426,0.10155990000930615,0.10011970000050496,0.30127990001346916
RSVPLG03,km,20260326-163442,1.0.2,20251113-095759,815,Experiment,Both,1,Automatic,main,91,20260326-164320,global,global,300,H,S,A,E,H-A.png,S-E.png,hH,sS,mask-3.png,mask-1.png,h,1,0.32574519999616314,s,1,0.09244219999527559,0.04980819999764208,0.050781300000380725,0.09979059999750461,0.09967039999901317,0.29887450000387616
RSVPLG03,km,20260326-163442,1.0.2,20251113-095759,815,Experiment,Both,1,Automatic,main,92,20260326-164324,global,local,300,H,S,A,E,H-A.png,E-S.png,hH,sS,mask-4.png,mask-4.png,h,1,0.2746938000054797,s,1,0.43484620000526775,0.047684699995443225,0.04842480001389049,0.0983179999893764,0.09896820000722073,0.30006669998692814
RSVPLG03,km,20260326-163442,1.0.2,20251113-095759,815,Experiment,Both,1,Automatic,main,93,20260326-164328,global,local,300,H,S,E,A,H-E.png,A-S.png,hH,sS,mask-3.png,mask-3.png,h,1,0.3205357999977423,h,0,0.12458619999233633,0.05098550001275726,0.05085440000402741,0.09991930000251159,0.10179129999596626,0.29970800000592135
RSVPLG03,km,20260326-163442,1.0.2,20251113-095759,815,Experiment,Both,1,Automatic,main,94,20260326-164332,global,local,750,H,S,E,A,H-E.png,A-S.png,hH,sS,mask-3.png,mask-1.png,h,1,0.3130899999960093,s,1,0.016090000004624017,0.049128400001791306,0.05098879999422934,0.09936690000176895,0.10000779999245424,0.7498158000089461
RSVPLG03,km,20260326-163442,1.0.2,20251113-095759,815,Experiment,Both,1,Automatic,main,95,20260326-164337,global,local,750,H,S,E,A,H-E.png,A-S.png,hH,sS,mask-1.png,mask-2.png,h,1,0.28291680000256747,s,1,0.11250180000206456,0.0488659000111511,0.04981959999713581,0.09884780000720639,0.0994531000033021,0.7500729000021238
RSVPLG03,km,20260326-163442,1.0.2,20251113-095759,815,Experiment,Both,1,Automatic,main,96,20260326-164341,global,global,750,H,H,A,A,H-A.png,H-A.png,hH,hH,mask-3.png,mask-3.png,h,1,0.24977080000098795,h,1,0.12576910000643693,0.04837999999290332,0.048641700006555766,0.09926799999084324,0.1004772000014782,0.7498134999914328
RSVPLG03,km,20260326-163442,1.0.2,20251113-095759,815,Experiment,Both,1,Automatic,main,97,20260326-164346,global,local,750,H,H,A,E,H-A.png,E-H.png,hH,hH,mask-2.png,mask-1.png,h,1,0.2718760999996448,s,0,0.0646065000037197,0.04880899999989197,0.04936920000181999,0.09877549999509938,0.10057700000470504,0.7491589999990538
RSVPLG03,km,20260326-163442,1.0.2,20251113-095759,815,Experiment,Both,1,Automatic,main,98,20260326-164350,local,global,300,S,S,E,E,E-S.png,S-E.png,sS,sS,mask-1.png,mask-1.png,h,0,0.6917869999888353,s,1,0.07736970001133159,0.0489164000027813,0.0487719999946421,0.09868249999999534,0.0995752999879187,0.30003100000612903
RSVPLG03,km,20260326-163442,1.0.2,20251113-095759,815,Experiment,Both,1,Automatic,main,99,20260326-164355,global,global,750,S,H,A,A,S-A.png,H-A.png,sS,hH,mask-2.png,mask-1.png,s,1,0.6560411999962525,h,1,0.1424262000073213,0.0497793999966234,0.04982590000145137,0.10063119999540504,0.10016980000364129,0.7510700999991968
RSVPLG03,km,20260326-163442,1.0.2,20251113-095759,815,Experiment,Both,1,Automatic,main,100,20260326-164359,global,global,300,S,H,A,E,S-A.png,H-E.png,sS,hH,mask-4.png,mask-3.png,s,1,0.3391637000022456,h,1,0.11079590000736061,0.0494814999983646,0.04883240000344813,0.100079600000754,0.09981339999649208,0.3005416999949375
