exp,exp_initials,runtime,ver,modtime,sub,blocktype,targets,cuetype,mode,trialtype,trial,trialtime,t1_level,t2_level,t2_lag,t1,t2,distractor1,distractor2,stimfile1,stimfile2,t1_corr,t2_corr,maskfile1,maskfile2,t1_resp,t1_acc,t1_rt,t2_resp,t2_acc,t2_rt,t1_dur,t2_dur,t1mask_soa,t2mask_soa,t1t2_soa
RSVPLG03,cs,20260501-112451,1.0.2,20251105-084826,834,Introduction,T1,1,Automatic,main,1,20260501-112514,global,local,750,H,S,E,E,H-E.png,E-S.png,hH,sS,mask-3.png,mask-1.png,s,0,9.176761799957603,none,-5,0,0.09061089996248484,0.09852019976824522,0.19262410001829267,0.20024759974330664,0.7425405001267791
RSVPLG03,cs,20260501-112451,1.0.2,20251105-084826,834,Introduction,T1,1,Automatic,main,2,20260501-112527,global,local,750,H,H,E,A,H-E.png,A-H.png,hH,hH,mask-1.png,mask-3.png,h,1,3.428319599945098,none,-5,0,0.09761290019378066,0.09753119992092252,0.2014796999283135,0.19929900020360947,0.750112900044769
RSVPLG03,cs,20260501-112451,1.0.2,20251105-084826,834,Introduction,T1,1,Automatic,main,3,20260501-112535,local,local,750,S,H,A,E,A-S.png,E-H.png,sS,hH,mask-3.png,mask-1.png,h,0,4.337672499939799,none,-5,0,0.09763040021061897,0.09785909997299314,0.20069360034540296,0.2006454998627305,0.7487397002987564
RSVPLG03,cs,20260501-112451,1.0.2,20251105-084826,834,Introduction,T1,1,Automatic,main,4,20260501-112544,global,global,750,H,H,E,A,H-E.png,H-A.png,hH,hH,mask-2.png,mask-1.png,h,1,2.3644058001227677,none,-5,0,0.09739369992166758,0.09745190013200045,0.1993753002025187,0.1990430001169443,0.7493447000160813
RSVPLG03,cs,20260501-112451,1.0.2,20251105-084826,834,Introduction,T1,1,Automatic,main,5,20260501-112550,local,global,750,S,S,A,E,A-S.png,S-E.png,sS,sS,mask-2.png,mask-3.png,s,1,1.6369067998602986,none,-5,0,0.09742340026423335,0.09838410001248121,0.20029069995507598,0.20034570014104247,0.7495929999276996
RSVPLG03,cs,20260501-112451,1.0.2,20251105-084826,834,Introduction,T1,1,Automatic,main,6,20260501-112556,local,local,750,H,S,A,A,A-H.png,A-S.png,hH,sS,mask-2.png,mask-3.png,none,-6,0,none,-5,0,0.09745450038462877,0.098390799947083,0.20133429998531938,0.20027830032631755,0.7497362000867724
RSVPLG03,cs,20260501-112607,1.0.2,20251105-084826,834,Practice,T1,1,Automatic,main,1,20260501-112626,global,global,750,H,S,A,A,H-A.png,S-A.png,hH,sS,mask-2.png,mask-3.png,h,1,2.1606343002058566,none,-5,0,0.04093339992687106,0.04852160019800067,0.09403260005638003,0.10058890003710985,0.7418525000102818
RSVPLG03,cs,20260501-112607,1.0.2,20251105-084826,834,Practice,T1,1,Automatic,main,2,20260501-112632,local,global,750,S,S,A,E,A-S.png,S-E.png,sS,sS,mask-2.png,mask-2.png,h,0,1.8251462001353502,none,-5,0,0.047548700124025345,0.04582160012796521,0.09955919999629259,0.09880500007420778,0.7496095998212695
RSVPLG03,cs,20260501-112607,1.0.2,20251105-084826,834,Practice,T1,1,Automatic,main,3,20260501-112638,local,global,750,S,S,A,E,A-S.png,S-E.png,sS,sS,mask-2.png,mask-2.png,h,0,2.1097832997329533,none,-5,0,0.04869120009243488,0.047698100097477436,0.10028199991211295,0.09990460006520152,0.7491264999844134
RSVPLG03,cs,20260501-112607,1.0.2,20251105-084826,834,Practice,T1,1,Automatic,main,4,20260501-112644,local,local,750,H,S,E,A,E-H.png,A-S.png,hH,sS,mask-1.png,mask-3.png,h,1,1.409943399950862,none,-5,0,0.04875189997255802,0.04765429999679327,0.09990040026605129,0.09904060000553727,0.7497594002634287
RSVPLG03,cs,20260501-112607,1.0.2,20251105-084826,834,Practice,T1,1,Automatic,main,5,20260501-112650,local,global,300,S,S,E,A,E-S.png,S-A.png,sS,sS,mask-3.png,mask-3.png,s,1,1.282457399647683,none,-5,0,0.04588489979505539,0.04769770009443164,0.09819919988512993,0.09994659991934896,0.29785329988226295
RSVPLG03,cs,20260501-112607,1.0.2,20251105-084826,834,Practice,T1,1,Automatic,main,6,20260501-112655,global,local,750,H,H,E,A,H-E.png,A-H.png,hH,hH,mask-4.png,mask-3.png,h,1,1.6109798001125455,none,-5,0,0.04770860029384494,0.04768900014460087,0.09955130005255342,0.10093040019273758,0.7482750001363456
RSVPLG03,cs,20260501-112607,1.0.2,20251105-084826,834,Practice,T1,1,Automatic,main,7,20260501-112700,local,local,300,S,H,E,E,E-S.png,E-H.png,sS,hH,mask-1.png,mask-2.png,s,1,1.5893477001227438,none,-5,0,0.04870189959183335,0.04590619960799813,0.10077949985861778,0.09996499959379435,0.30121099995449185
RSVPLG03,cs,20260501-112607,1.0.2,20251105-084826,834,Practice,T1,1,Automatic,main,8,20260501-112705,local,global,300,S,S,A,E,A-S.png,S-E.png,sS,sS,mask-1.png,mask-2.png,h,0,2.1874581002630293,none,-5,0,0.049583800137043,0.04736860003322363,0.1006670999340713,0.10028719995170832,0.3006044998764992
RSVPLG03,cs,20260501-112607,1.0.2,20251105-084826,834,Practice,T1,1,Automatic,main,9,20260501-112711,global,global,750,S,H,E,E,S-E.png,H-E.png,sS,hH,mask-2.png,mask-2.png,s,1,1.8385182996280491,none,-5,0,0.047654100228101015,0.04753870004788041,0.09971560025587678,0.10056080017238855,0.7484671999700367
RSVPLG03,cs,20260501-112607,1.0.2,20251105-084826,834,Practice,T1,1,Automatic,main,10,20260501-112717,global,global,300,S,S,E,A,S-E.png,S-A.png,sS,sS,mask-1.png,mask-1.png,s,1,2.8658778998069465,none,-5,0,0.048695700243115425,0.047703899908810854,0.09993320005014539,0.09898310014978051,0.30079489992931485
RSVPLG03,cs,20260501-112607,1.0.2,20251105-084826,834,Practice,T1,1,Automatic,main,11,20260501-112724,global,global,300,S,H,E,A,S-E.png,H-A.png,sS,hH,mask-3.png,mask-4.png,s,1,2.2830563001334667,none,-5,0,0.046987200155854225,0.04725770000368357,0.09920800011605024,0.10003349976614118,0.3000353001989424
RSVPLG03,cs,20260501-112607,1.0.2,20251105-084826,834,Practice,T1,1,Automatic,main,12,20260501-112729,global,local,750,H,H,A,E,H-A.png,E-H.png,hH,hH,mask-4.png,mask-4.png,h,1,2.2817982002161443,none,-5,0,0.04832779988646507,0.04847180005162954,0.10173910018056631,0.09976259991526604,0.7494300999678671
RSVPLG03,cs,20260501-112607,1.0.2,20251105-084826,834,Practice,T1,1,Automatic,main,13,20260501-112736,local,local,750,S,S,A,E,A-S.png,E-S.png,sS,sS,mask-2.png,mask-3.png,h,0,1.5955195999704301,none,-5,0,0.048538099974393845,0.04756200034171343,0.1009868998080492,0.10057240026071668,0.7493288996629417
RSVPLG03,cs,20260501-112607,1.0.2,20251105-084826,834,Practice,T1,1,Automatic,main,14,20260501-112741,global,local,300,H,S,E,A,H-E.png,A-S.png,hH,sS,mask-4.png,mask-4.png,h,1,1.3967271000146866,none,-5,0,0.04752699984237552,0.04753650026395917,0.10153929982334375,0.09957100031897426,0.2998306998051703
RSVPLG03,cs,20260501-112607,1.0.2,20251105-084826,834,Practice,T1,1,Automatic,main,15,20260501-112746,local,local,300,S,S,A,E,A-S.png,E-S.png,sS,sS,mask-1.png,mask-3.png,h,0,1.2261708001606166,none,-5,0,0.04753390001133084,0.04753479966893792,0.101553900167346,0.09957409976050258,0.30000320030376315
RSVPLG03,cs,20260501-112607,1.0.2,20251105-084826,834,Practice,T1,1,Automatic,main,16,20260501-112751,global,local,300,H,S,A,E,H-A.png,E-S.png,hH,sS,mask-4.png,mask-3.png,s,0,1.3860074998810887,none,-5,0,0.04787809960544109,0.04771299986168742,0.09941279981285334,0.10139889968559146,0.2985956999473274
RSVPLG03,cs,20260501-112812,1.0.2,20251105-084826,834,Practice,T1,1,Automatic,main,1,20260501-112829,global,global,300,S,S,E,E,S-E.png,S-E.png,sS,sS,mask-1.png,mask-3.png,s,1,1.793697000015527,none,-5,0,0.040373099967837334,0.04770539980381727,0.09272109996527433,0.09990369994193316,0.2913588001392782
RSVPLG03,cs,20260501-112812,1.0.2,20251105-084826,834,Practice,T1,1,Automatic,main,2,20260501-112835,local,global,300,H,H,E,E,E-H.png,H-E.png,hH,hH,mask-4.png,mask-1.png,h,1,1.5036765998229384,none,-5,0,0.04787429980933666,0.0488670002669096,0.10007679974660277,0.09989780001342297,0.29890349972993135
RSVPLG03,cs,20260501-112812,1.0.2,20251105-084826,834,Practice,T1,1,Automatic,main,3,20260501-112840,global,local,750,S,S,E,A,S-E.png,A-S.png,sS,sS,mask-3.png,mask-2.png,s,1,1.655749199911952,none,-5,0,0.0466920998878777,0.047536099795252085,0.09965760027989745,0.10173049988225102,0.7467482001520693
RSVPLG03,cs,20260501-112812,1.0.2,20251105-084826,834,Practice,T1,1,Automatic,main,4,20260501-112845,local,local,300,H,H,E,A,E-H.png,A-H.png,hH,hH,mask-1.png,mask-1.png,h,1,1.4535265997983515,none,-5,0,0.04686299990862608,0.04740769974887371,0.09886200027540326,0.09863099968060851,0.299203600268811
RSVPLG03,cs,20260501-112812,1.0.2,20251105-084826,834,Practice,T1,1,Automatic,main,5,20260501-112850,local,local,300,S,H,A,A,A-S.png,A-H.png,sS,hH,mask-3.png,mask-3.png,s,1,1.514442200306803,none,-5,0,0.04568270035088062,0.04750859970226884,0.09818410035222769,0.09993680007755756,0.29896120028570294
RSVPLG03,cs,20260501-112812,1.0.2,20251105-084826,834,Practice,T1,1,Automatic,main,6,20260501-112855,local,local,750,S,H,A,E,A-S.png,E-H.png,sS,hH,mask-4.png,mask-4.png,s,1,1.3592250002548099,none,-5,0,0.04678749991580844,0.04684850014746189,0.09785569971427321,0.09906930010765791,0.7476908997632563
RSVPLG03,cs,20260501-112812,1.0.2,20251105-084826,834,Practice,T1,1,Automatic,main,7,20260501-112901,local,global,300,H,H,E,E,E-H.png,H-E.png,hH,hH,mask-2.png,mask-2.png,h,1,1.772130399942398,none,-5,0,0.04665820021182299,0.04770969972014427,0.09856140008196235,0.10179709969088435,0.29731160029768944
RSVPLG03,cs,20260501-112812,1.0.2,20251105-084826,834,Practice,T1,1,Automatic,main,8,20260501-112906,global,global,750,S,S,A,A,S-A.png,S-A.png,sS,sS,mask-2.png,mask-3.png,s,1,1.236382500268519,none,-5,0,0.04754349961876869,0.04856060026213527,0.09956200001761317,0.09996460005640984,0.7474567997269332
RSVPLG03,cs,20260501-112812,1.0.2,20251105-084826,834,Practice,T1,1,Automatic,main,9,20260501-112911,global,global,300,S,H,A,A,S-A.png,H-A.png,sS,hH,mask-3.png,mask-1.png,s,1,1.352251600008458,none,-5,0,0.04754750011488795,0.04851209977641702,0.10056539997458458,0.09952489985153079,0.29870110005140305
RSVPLG03,cs,20260501-112812,1.0.2,20251105-084826,834,Practice,T1,1,Automatic,main,10,20260501-112916,local,global,750,S,S,E,E,E-S.png,S-E.png,sS,sS,mask-1.png,mask-1.png,s,1,1.2733509000390768,none,-5,0,0.048388299997895956,0.04876000015065074,0.09959630016237497,0.0998700000345707,0.747781699988991
RSVPLG03,cs,20260501-112812,1.0.2,20251105-084826,834,Practice,T1,1,Automatic,main,11,20260501-112921,global,local,300,S,H,A,E,S-A.png,E-H.png,sS,hH,mask-3.png,mask-4.png,s,1,1.0129669001325965,none,-5,0,0.04666709993034601,0.04750700015574694,0.09983590012416244,0.0995970000512898,0.29844960011541843
RSVPLG03,cs,20260501-112812,1.0.2,20251105-084826,834,Practice,T1,1,Automatic,main,12,20260501-112926,local,global,750,S,H,A,A,A-S.png,H-A.png,sS,hH,mask-3.png,mask-4.png,h,0,0.8545889002270997,none,-5,0,0.046802000142633915,0.047371599823236465,0.09989620000123978,0.0989164998754859,0.748155000153929
RSVPLG03,cs,20260501-112812,1.0.2,20251105-084826,834,Practice,T1,1,Automatic,main,13,20260501-112931,global,global,750,S,H,E,A,S-E.png,H-A.png,sS,hH,mask-1.png,mask-1.png,s,1,1.1243152995593846,none,-5,0,0.04753899993374944,0.048154700081795454,0.09870650013908744,0.10016699973493814,0.7464764001779258
RSVPLG03,cs,20260501-112812,1.0.2,20251105-084826,834,Practice,T1,1,Automatic,main,14,20260501-112936,local,local,750,S,S,E,E,E-S.png,E-S.png,sS,sS,mask-4.png,mask-4.png,s,1,1.4189808000810444,none,-5,0,0.04649109998717904,0.04673180030658841,0.09870230033993721,0.09889760008081794,0.7473683999851346
RSVPLG03,cs,20260501-112812,1.0.2,20251105-084826,834,Practice,T1,1,Automatic,main,15,20260501-112941,global,local,300,H,H,E,A,H-E.png,A-H.png,hH,hH,mask-3.png,mask-3.png,h,1,1.0487198997288942,none,-5,0,0.04568989994004369,0.04751159995794296,0.09793560020625591,0.09971159975975752,0.2975528002716601
RSVPLG03,cs,20260501-112812,1.0.2,20251105-084826,834,Practice,T1,1,Automatic,main,16,20260501-112946,global,local,750,H,H,A,A,H-A.png,A-H.png,hH,hH,mask-2.png,mask-1.png,h,1,0.6851010001264513,none,-5,0,0.04829910025000572,0.046560199931263924,0.09949030028656125,0.09861249988898635,0.7483354001305997
RSVPLG03,cs,20260501-113015,1.0.2,20251105-084826,834,Practice,Both,1,Automatic,main,1,20260501-113037,global,local,750,H,S,A,A,H-A.png,A-S.png,hH,sS,mask-3.png,mask-2.png,h,1,3.210323099978268,s,1,1.1082297996617854,0.04036390036344528,0.048108499962836504,0.09356519998982549,0.10140139982104301,0.7437936002388597
RSVPLG03,cs,20260501-113015,1.0.2,20251105-084826,834,Practice,Both,1,Automatic,main,2,20260501-113045,local,global,300,H,S,E,A,E-H.png,S-A.png,hH,sS,mask-3.png,mask-3.png,h,1,1.5468178996816278,s,1,0.3741314001381397,0.04775300016626716,0.04737849999219179,0.10093390010297298,0.10024119960144162,0.30234740022569895
RSVPLG03,cs,20260501-113015,1.0.2,20251105-084826,834,Practice,Both,1,Automatic,main,3,20260501-113051,local,local,750,S,S,E,E,E-S.png,E-S.png,sS,sS,mask-2.png,mask-2.png,s,1,1.3883846998214722,h,0,0.4416571999900043,0.04859199980273843,0.04654960008338094,0.09964159969240427,0.10057580005377531,0.7528993999585509
RSVPLG03,cs,20260501-113015,1.0.2,20251105-084826,834,Practice,Both,1,Automatic,main,4,20260501-113057,global,global,300,S,H,A,A,S-A.png,H-A.png,sS,hH,mask-4.png,mask-4.png,s,1,1.539009400177747,h,1,0.3757572998292744,0.04701279988512397,0.04855100018903613,0.10011069988831878,0.1015391000546515,0.2996750995516777
RSVPLG03,cs,20260501-113015,1.0.2,20251105-084826,834,Practice,Both,1,Automatic,main,5,20260501-113102,local,local,300,H,S,E,A,E-H.png,A-S.png,hH,sS,mask-1.png,mask-3.png,h,1,1.7813613000325859,h,0,0.2191606997512281,0.04596120025962591,0.047796899918466806,0.1003157002851367,0.10178939998149872,0.29975830018520355
RSVPLG03,cs,20260501-113015,1.0.2,20251105-084826,834,Practice,Both,1,Automatic,main,6,20260501-113108,local,local,750,H,H,E,A,E-H.png,A-H.png,hH,hH,mask-1.png,mask-2.png,h,1,1.3013563002459705,h,1,0.15967119997367263,0.0477118999697268,0.046795499976724386,0.10091560008004308,0.09933250024914742,0.7518647997640073
RSVPLG03,cs,20260501-113015,1.0.2,20251105-084826,834,Practice,Both,1,Automatic,main,7,20260501-113113,global,local,300,S,S,E,E,S-E.png,E-S.png,sS,sS,mask-2.png,mask-3.png,s,1,1.2785942000336945,h,0,0.35959869995713234,0.0484633999876678,0.04750290000811219,0.10146080004051328,0.10050719976425171,0.3016861001960933
RSVPLG03,cs,20260501-113015,1.0.2,20251105-084826,834,Practice,Both,1,Automatic,main,8,20260501-113119,local,global,300,S,S,E,A,E-S.png,S-A.png,sS,sS,mask-1.png,mask-3.png,s,1,1.706614900380373,s,1,0.09618430025875568,0.04752990044653416,0.04920440027490258,0.10053690010681748,0.10237110033631325,0.299590100068599
RSVPLG03,cs,20260501-113015,1.0.2,20251105-084826,834,Practice,Both,1,Automatic,main,9,20260501-113124,global,global,750,S,H,A,A,S-A.png,H-A.png,sS,hH,mask-2.png,mask-2.png,s,1,1.4967736001126468,s,0,0.09088819986209273,0.047123500145971775,0.046712799929082394,0.09947710018604994,0.09989269962534308,0.7523647001944482
RSVPLG03,cs,20260501-113015,1.0.2,20251105-084826,834,Practice,Both,1,Automatic,main,10,20260501-113130,global,local,300,S,H,E,A,S-E.png,A-H.png,sS,hH,mask-2.png,mask-1.png,h,0,1.7687264000996947,s,0,0.21380979986861348,0.04763980023562908,0.045802699867635965,0.10066949995234609,0.09949260018765926,0.30222450010478497
RSVPLG03,cs,20260501-113015,1.0.2,20251105-084826,834,Practice,Both,1,Automatic,main,11,20260501-113135,local,local,300,S,S,E,E,E-S.png,E-S.png,sS,sS,mask-3.png,mask-3.png,s,1,1.1283706999383867,h,0,0.31741710007190704,0.04840969992801547,0.04730660002678633,0.10042709996923804,0.09925630036741495,0.30146999983116984
RSVPLG03,cs,20260501-113015,1.0.2,20251105-084826,834,Practice,Both,1,Automatic,main,12,20260501-113140,global,local,750,H,H,A,A,H-A.png,A-H.png,hH,hH,mask-4.png,mask-1.png,h,1,2.559289699885994,h,1,0.0861757998354733,0.047474800143390894,0.04771349998190999,0.09961370006203651,0.10184060037136078,0.7515954999253154
RSVPLG03,cs,20260501-113015,1.0.2,20251105-084826,834,Practice,Both,1,Automatic,main,13,20260501-113147,global,global,300,S,H,E,A,S-E.png,H-A.png,sS,hH,mask-2.png,mask-2.png,h,0,1.2317953002639115,s,0,0.2496143002063036,0.04739469988271594,0.04671349981799722,0.09941660007461905,0.09994310000911355,0.3006652002222836
RSVPLG03,cs,20260501-113015,1.0.2,20251105-084826,834,Practice,Both,1,Automatic,main,14,20260501-113152,local,global,750,H,H,A,A,A-H.png,H-A.png,hH,hH,mask-3.png,mask-4.png,h,1,1.3586481004022062,s,0,0.2468634000979364,0.04765979992225766,0.047732200007885695,0.10002769995480776,0.0988439996726811,0.752416200004518
RSVPLG03,cs,20260501-113015,1.0.2,20251105-084826,834,Practice,Both,1,Automatic,main,15,20260501-113158,local,global,750,S,H,A,E,A-S.png,H-E.png,sS,hH,mask-4.png,mask-3.png,h,0,1.1400167001411319,h,1,0.26642770040780306,0.04896199982613325,0.04760649986565113,0.10187039989978075,0.09945459989830852,0.7541514998301864
RSVPLG03,cs,20260501-113015,1.0.2,20251105-084826,834,Practice,Both,1,Automatic,main,16,20260501-113204,global,global,750,H,H,A,A,H-A.png,H-A.png,hH,hH,mask-4.png,mask-1.png,s,0,1.1557109002023935,h,1,0.3160200002603233,0.046339900232851505,0.04854650003835559,0.09862010041251779,0.09953589970245957,0.7515986002981663
RSVPLG03,cs,20260501-113221,1.0.2,20251105-084826,834,Practice,Both,1,Automatic,main,1,20260501-113239,local,global,300,S,S,E,E,E-S.png,S-E.png,sS,sS,mask-2.png,mask-4.png,h,0,1.4222532999701798,s,1,0.019400000106543303,0.042610100004822016,0.04771310044452548,0.09340929985046387,0.1007451000623405,0.2935325996950269
RSVPLG03,cs,20260501-113221,1.0.2,20251105-084826,834,Practice,Both,1,Automatic,main,2,20260501-113244,global,global,300,H,S,A,E,H-A.png,S-E.png,hH,sS,mask-4.png,mask-2.png,s,0,1.1807542000897229,s,1,0.0744194001890719,0.04864440020173788,0.047548200003802776,0.09995430009439588,0.1006054999306798,0.30059090023860335
RSVPLG03,cs,20260501-113221,1.0.2,20251105-084826,834,Practice,Both,1,Automatic,main,3,20260501-113249,local,global,750,H,H,A,E,A-H.png,H-E.png,hH,hH,mask-4.png,mask-1.png,h,1,1.101819900330156,h,1,0.08731710026040673,0.04851550003513694,0.046909399796277285,0.10057870019227266,0.10008919984102249,0.7504667001776397
RSVPLG03,cs,20260501-113221,1.0.2,20251105-084826,834,Practice,Both,1,Automatic,main,4,20260501-113254,global,local,750,S,S,A,E,S-A.png,E-S.png,sS,sS,mask-4.png,mask-2.png,s,1,1.8001595996320248,s,1,0.08626510016620159,0.047862600069493055,0.047680600080639124,0.10006129974499345,0.09885609988123178,0.7502871998585761
RSVPLG03,cs,20260501-113221,1.0.2,20251105-084826,834,Practice,Both,1,Automatic,main,5,20260501-113300,local,local,300,S,H,E,A,E-S.png,A-H.png,sS,hH,mask-2.png,mask-2.png,s,1,1.2013162998482585,h,1,1.707632899750024,0.04701180011034012,0.04894470004364848,0.10047519998624921,0.10074970033019781,0.2992019997909665
RSVPLG03,cs,20260501-113221,1.0.2,20251105-084826,834,Practice,Both,1,Automatic,main,6,20260501-113307,global,local,300,S,S,A,A,S-A.png,A-S.png,sS,sS,mask-1.png,mask-4.png,s,1,1.19023730000481,s,1,0.07196219963952899,0.04750669980421662,0.047147300094366074,0.09953150013461709,0.09934959979727864,0.29884850000962615
RSVPLG03,cs,20260501-113221,1.0.2,20251105-084826,834,Practice,Both,1,Automatic,main,7,20260501-113312,local,local,750,S,S,A,E,A-S.png,E-S.png,sS,sS,mask-4.png,mask-1.png,s,1,1.5922812996432185,h,0,1.7682646997272968,0.04782450012862682,0.047415200155228376,0.10018490022048354,0.10036109993234277,0.7488977001048625
RSVPLG03,cs,20260501-113221,1.0.2,20251105-084826,834,Practice,Both,1,Automatic,main,8,20260501-113317,local,local,300,H,S,E,A,E-H.png,A-S.png,hH,sS,mask-2.png,mask-1.png,h,1,1.2114258003421128,s,1,0.2853853995911777,0.04770189989358187,0.04766689985990524,0.09974429989233613,0.09994350001215935,0.30022779991850257
RSVPLG03,cs,20260501-113221,1.0.2,20251105-084826,834,Practice,Both,1,Automatic,main,9,20260501-113322,global,global,750,S,H,E,A,S-E.png,H-A.png,sS,hH,mask-1.png,mask-4.png,h,0,2.2149890000000596,h,1,0.0885737999342382,0.046708500012755394,0.04869760014116764,0.09989449987187982,0.09991570003330708,0.748331000097096
RSVPLG03,cs,20260501-113221,1.0.2,20251105-084826,834,Practice,Both,1,Automatic,main,10,20260501-113329,global,global,750,S,H,A,A,S-A.png,H-A.png,sS,hH,mask-3.png,mask-3.png,s,1,1.2886449000798166,h,1,0.38518150011077523,0.047116899862885475,0.048626200295984745,0.09902050020173192,0.10085300030186772,0.7489125998690724
RSVPLG03,cs,20260501-113221,1.0.2,20251105-084826,834,Practice,Both,1,Automatic,main,11,20260501-113334,local,global,750,S,S,E,E,E-S.png,S-E.png,sS,sS,mask-4.png,mask-4.png,s,1,1.670747300144285,h,0,0.03972470015287399,0.04662609985098243,0.04959149984642863,0.09930119989439845,0.10069759981706738,0.7471865997649729
RSVPLG03,cs,20260501-113221,1.0.2,20251105-084826,834,Practice,Both,1,Automatic,main,12,20260501-113340,local,global,300,H,S,E,E,E-H.png,S-E.png,hH,sS,mask-1.png,mask-2.png,h,1,0.8293264000676572,h,0,0.19923709984868765,0.04657620005309582,0.04696189984679222,0.09874929999932647,0.10019499994814396,0.2983729001134634
RSVPLG03,cs,20260501-113221,1.0.2,20251105-084826,834,Practice,Both,1,Automatic,main,13,20260501-113345,global,local,750,H,H,A,E,H-A.png,E-H.png,hH,hH,mask-3.png,mask-2.png,h,1,1.0048955003730953,s,0,0.064070800319314,0.0476541998796165,0.04771450022235513,0.09860209980979562,0.09994259988889098,0.7496110997162759
RSVPLG03,cs,20260501-113221,1.0.2,20251105-084826,834,Practice,Both,1,Automatic,main,14,20260501-113350,local,local,750,H,H,A,A,A-H.png,A-H.png,hH,hH,mask-2.png,mask-3.png,h,1,0.8179746000096202,h,1,0.10818699980154634,0.046684599947184324,0.04639489995315671,0.09952709963545203,0.10016190027818084,0.7489346996881068
RSVPLG03,cs,20260501-113221,1.0.2,20251105-084826,834,Practice,Both,1,Automatic,main,15,20260501-113355,global,local,300,S,H,A,A,S-A.png,A-H.png,sS,hH,mask-4.png,mask-1.png,h,0,1.0754284998402,s,0,0.060296600218862295,0.04774549975991249,0.04871160024777055,0.09995230007916689,0.10088670020923018,0.29859629971906543
RSVPLG03,cs,20260501-113221,1.0.2,20251105-084826,834,Practice,Both,1,Automatic,main,16,20260501-113400,global,global,300,S,H,A,A,S-A.png,H-A.png,sS,hH,mask-3.png,mask-1.png,s,1,1.158447400201112,h,1,1.3027580003254116,0.04630920011550188,0.046692200005054474,0.09980779979377985,0.09954140009358525,0.299590100068599
RSVPLG03,cs,20260501-113417,1.0.2,20251105-084826,834,Practice,Both,1,Automatic,main,1,20260501-113438,global,global,300,S,H,E,A,S-E.png,H-A.png,sS,hH,mask-3.png,mask-2.png,h,0,1.3480962999165058,s,0,0.05192160001024604,0.04186540003865957,0.04759390000253916,0.09497750038281083,0.1006569997407496,0.2968804002739489
RSVPLG03,cs,20260501-113417,1.0.2,20251105-084826,834,Practice,Both,1,Automatic,main,2,20260501-113443,local,global,300,S,H,A,A,A-S.png,H-A.png,sS,hH,mask-3.png,mask-3.png,s,1,0.7952587003819644,h,1,1.0517359003424644,0.04668849986046553,0.04768249997869134,0.10090250009670854,0.10195040004327893,0.3002491998486221
RSVPLG03,cs,20260501-113417,1.0.2,20251105-084826,834,Practice,Both,1,Automatic,main,3,20260501-113448,local,local,300,H,S,A,A,A-H.png,A-S.png,hH,sS,mask-4.png,mask-4.png,h,1,1.0840667001903057,s,1,0.016373699996620417,0.0478554000146687,0.047800099942833185,0.10008309967815876,0.10191099997609854,0.30029499996453524
RSVPLG03,cs,20260501-113417,1.0.2,20251105-084826,834,Practice,Both,1,Automatic,main,4,20260501-113453,global,global,750,H,S,A,A,H-A.png,S-A.png,hH,sS,mask-3.png,mask-4.png,h,1,0.7029749001376331,s,1,0.8790988000109792,0.047738200053572655,0.0477181002497673,0.09979970008134842,0.09923289995640516,0.7516421000473201
RSVPLG03,cs,20260501-113417,1.0.2,20251105-084826,834,Practice,Both,1,Automatic,main,5,20260501-113458,global,local,750,H,S,A,E,H-A.png,E-S.png,hH,sS,mask-3.png,mask-1.png,h,1,0.801615800242871,s,1,0.004899399820715189,0.04581400007009506,0.04871369991451502,0.09905270021408796,0.09992189984768629,0.7515675001777709
RSVPLG03,cs,20260501-113417,1.0.2,20251105-084826,834,Practice,Both,1,Automatic,main,6,20260501-113503,local,local,300,S,S,E,A,E-S.png,A-S.png,sS,sS,mask-1.png,mask-2.png,s,1,0.6360371997579932,h,0,0.8922639000229537,0.04768409999087453,0.04851990006864071,0.1018787999637425,0.10052260011434555,0.30164199974387884
RSVPLG03,cs,20260501-113417,1.0.2,20251105-084826,834,Practice,Both,1,Automatic,main,7,20260501-113508,global,global,300,H,S,E,E,H-E.png,S-E.png,hH,sS,mask-1.png,mask-1.png,h,1,0.7337330998852849,s,1,0.8779682000167668,0.046981200110167265,0.04842919996008277,0.10004620021209121,0.09943559998646379,0.3011873001232743
RSVPLG03,cs,20260501-113417,1.0.2,20251105-084826,834,Practice,Both,1,Automatic,main,8,20260501-113512,local,local,750,H,H,E,A,E-H.png,A-H.png,hH,hH,mask-4.png,mask-4.png,h,1,1.1659072004258633,s,0,0.05676469998434186,0.04765870003029704,0.04853340005502105,0.09969579987227917,0.10044110007584095,0.7515738001093268
RSVPLG03,cs,20260501-113417,1.0.2,20251105-084826,834,Practice,Both,1,Automatic,main,9,20260501-113518,local,local,750,H,H,A,A,A-H.png,A-H.png,hH,hH,mask-2.png,mask-2.png,h,1,0.5542150000110269,h,1,0.134625599719584,0.04754329985007644,0.048881799913942814,0.09948259964585304,0.10109499981626868,0.7503424999304116
RSVPLG03,cs,20260501-113417,1.0.2,20251105-084826,834,Practice,Both,1,Automatic,main,10,20260501-113523,local,global,750,S,H,A,E,A-S.png,H-E.png,sS,hH,mask-2.png,mask-1.png,h,0,1.0135307000018656,h,1,0.13577259983867407,0.048717299941927195,0.04750710027292371,0.10105849988758564,0.10018530022352934,0.7529417998157442
RSVPLG03,cs,20260501-113417,1.0.2,20251105-084826,834,Practice,Both,1,Automatic,main,11,20260501-113528,global,global,750,H,H,E,E,H-E.png,H-E.png,hH,hH,mask-3.png,mask-4.png,h,1,0.8073705001734197,h,1,0.12408019974827766,0.04775300016626716,0.04729040013626218,0.10194610012695193,0.09869460016489029,0.7534896000288427
RSVPLG03,cs,20260501-113417,1.0.2,20251105-084826,834,Practice,Both,1,Automatic,main,12,20260501-113533,global,local,300,S,S,E,A,S-E.png,A-S.png,sS,sS,mask-4.png,mask-1.png,h,0,1.1581264999695122,s,1,0.8220057999715209,0.04780249996110797,0.04812610009685159,0.09974490012973547,0.10041180020198226,0.299751500133425
RSVPLG03,cs,20260501-113417,1.0.2,20251105-084826,834,Practice,Both,1,Automatic,main,13,20260501-113539,global,local,750,H,S,A,A,H-A.png,A-S.png,hH,sS,mask-2.png,mask-2.png,h,1,0.6028478001244366,s,1,0.06939200032502413,0.048709599766880274,0.04753870004788041,0.1008063000626862,0.10070560034364462,0.7521953997202218
RSVPLG03,cs,20260501-113417,1.0.2,20251105-084826,834,Practice,Both,1,Automatic,main,14,20260501-113544,local,global,300,H,S,A,E,A-H.png,S-E.png,hH,sS,mask-2.png,mask-1.png,h,1,0.6651372998021543,s,1,0.026221899781376123,0.04734129970893264,0.04639429971575737,0.1008043996989727,0.10040359990671277,0.3016588999889791
RSVPLG03,cs,20260501-113417,1.0.2,20251105-084826,834,Practice,Both,1,Automatic,main,15,20260501-113548,local,global,750,H,S,A,A,A-H.png,S-A.png,hH,sS,mask-1.png,mask-1.png,s,0,0.7389442003332078,s,1,0.06019459990784526,0.048632599879056215,0.0456368001177907,0.1006565997377038,0.09978469973430037,0.7535312999971211
RSVPLG03,cs,20260501-113417,1.0.2,20251105-084826,834,Practice,Both,1,Automatic,main,16,20260501-113553,global,local,300,H,H,A,E,H-A.png,E-H.png,hH,hH,mask-1.png,mask-1.png,h,1,0.3284876998513937,s,0,0.0610707001760602,0.04656990012153983,0.04844549996778369,0.09964520018547773,0.10181979974731803,0.29940810007974505
RSVPLG03,cs,20260501-113621,1.0.2,20251105-084826,834,Experiment,Both,1,Automatic,warmup,1,20260501-113724,local,local,750,H,H,E,E,E-H.png,E-H.png,hH,hH,mask-2.png,mask-4.png,h,1,1.8195984000340104,s,0,0.8196127000264823,0.04112119972705841,0.04772539995610714,0.09530379995703697,0.09900629986077547,0.7455096999183297
RSVPLG03,cs,20260501-113621,1.0.2,20251105-084826,834,Experiment,Both,1,Automatic,warmup,2,20260501-113731,local,local,300,H,S,A,E,A-H.png,E-S.png,hH,sS,mask-1.png,mask-3.png,h,1,0.6506673996336758,s,1,0.7625529998913407,0.04713620012626052,0.047712099738419056,0.10007030004635453,0.10179500002413988,0.2983822003006935
RSVPLG03,cs,20260501-113621,1.0.2,20251105-084826,834,Experiment,Both,1,Automatic,warmup,3,20260501-113735,global,local,300,S,S,E,A,S-E.png,A-S.png,sS,sS,mask-2.png,mask-1.png,s,1,0.7825924996286631,h,0,0.7120639001950622,0.04761960031464696,0.04753729980438948,0.099462800193578,0.09967210004106164,0.30007300013676286
RSVPLG03,cs,20260501-113621,1.0.2,20251105-084826,834,Experiment,Both,1,Automatic,warmup,4,20260501-113741,local,global,300,H,H,A,E,A-H.png,H-E.png,hH,hH,mask-4.png,mask-4.png,h,1,0.7142687998712063,h,1,0.09158120024949312,0.04761190013960004,0.04765979992225766,0.09986010007560253,0.09928550012409687,0.30009909998625517
RSVPLG03,cs,20260501-113621,1.0.2,20251105-084826,834,Experiment,Both,1,Automatic,main,5,20260501-113745,global,global,750,H,S,A,A,H-A.png,S-A.png,hH,sS,mask-1.png,mask-4.png,h,1,0.20557380001991987,s,1,0.3015310997143388,0.047739299945533276,0.04736580001190305,0.09996540006250143,0.1003781002946198,0.7517580999992788
RSVPLG03,cs,20260501-113621,1.0.2,20251105-084826,834,Experiment,Both,1,Automatic,main,6,20260501-113750,global,global,300,S,S,A,A,S-A.png,S-A.png,sS,sS,mask-3.png,mask-4.png,s,1,0.514835599809885,s,1,0.04130209982395172,0.04770589992403984,0.04771040007472038,0.09922749968245625,0.09992900025099516,0.29991049971431494
RSVPLG03,cs,20260501-113621,1.0.2,20251105-084826,834,Experiment,Both,1,Automatic,main,7,20260501-113754,local,local,300,H,S,E,E,E-H.png,E-S.png,hH,sS,mask-4.png,mask-3.png,s,0,0.5386173999868333,h,0,0.011939499992877245,0.047534100245684385,0.04752510040998459,0.09956650016829371,0.09955740021541715,0.29987019998952746
RSVPLG03,cs,20260501-113621,1.0.2,20251105-084826,834,Experiment,Both,1,Automatic,main,8,20260501-113758,global,local,300,S,H,E,A,S-E.png,A-H.png,sS,hH,mask-2.png,mask-1.png,h,0,0.22490649996325374,s,0,0.030090500134974718,0.04755230015143752,0.046702600084245205,0.09959470015019178,0.09990500006824732,0.3005233998410404
RSVPLG03,cs,20260501-113621,1.0.2,20251105-084826,834,Experiment,Both,1,Automatic,main,9,20260501-113802,local,global,750,H,H,E,A,E-H.png,H-A.png,hH,hH,mask-3.png,mask-1.png,h,1,0.20634949998930097,h,1,0.17992909997701645,0.048672799952328205,0.046387600246816874,0.10191179998219013,0.09948610002174973,0.7518266998231411
RSVPLG03,cs,20260501-113621,1.0.2,20251105-084826,834,Experiment,Both,1,Automatic,main,10,20260501-113807,local,local,750,S,S,E,E,E-S.png,E-S.png,sS,sS,mask-3.png,mask-2.png,s,1,0.4061918002553284,s,1,0.09822899987921119,0.04773009987547994,0.046711800154298544,0.09992959955707192,0.09903690032660961,0.7501355996355414
RSVPLG03,cs,20260501-113621,1.0.2,20251105-084826,834,Experiment,Both,1,Automatic,main,11,20260501-113811,global,global,300,H,H,A,E,H-A.png,H-E.png,hH,hH,mask-4.png,mask-2.png,s,0,0.6059138001874089,h,1,0.13832420017570257,0.047705600038170815,0.047715199645608664,0.09996999986469746,0.09992249961942434,0.29961680015549064
RSVPLG03,cs,20260501-113621,1.0.2,20251105-084826,834,Experiment,Both,1,Automatic,main,12,20260501-113816,local,global,300,S,S,A,A,A-S.png,S-A.png,sS,sS,mask-2.png,mask-1.png,s,1,0.5367392003536224,s,1,0.043070000130683184,0.047726199962198734,0.04871449992060661,0.09994459990411997,0.10184729984030128,0.29874360002577305
RSVPLG03,cs,20260501-113621,1.0.2,20251105-084826,834,Experiment,Both,1,Automatic,main,13,20260501-113820,global,local,750,S,S,A,E,S-A.png,E-S.png,sS,sS,mask-3.png,mask-4.png,s,1,0.5791823999024928,s,1,0.06043920014053583,0.047733800020068884,0.047525799833238125,0.09996140003204346,0.10075979959219694,0.7496355003677309
RSVPLG03,cs,20260501-113621,1.0.2,20251105-084826,834,Experiment,Both,1,Automatic,main,14,20260501-113825,global,local,750,H,S,A,E,H-A.png,E-S.png,hH,sS,mask-2.png,mask-1.png,s,0,1.0683888997882605,h,0,0.05812230007722974,0.047531300224363804,0.04753659991547465,0.09858060022816062,0.10055259987711906,0.749826299957931
RSVPLG03,cs,20260501-113621,1.0.2,20251105-084826,834,Experiment,Both,1,Automatic,main,15,20260501-113830,global,local,750,H,H,E,E,H-E.png,E-H.png,hH,hH,mask-1.png,mask-1.png,h,1,1.2604983998462558,s,0,0.7251551998779178,0.04770109988749027,0.04751309985294938,0.09991729957982898,0.09958950011059642,0.7506817998364568
RSVPLG03,cs,20260501-113621,1.0.2,20251105-084826,834,Experiment,Both,1,Automatic,main,16,20260501-113835,global,global,300,H,S,E,E,H-E.png,S-E.png,hH,sS,mask-4.png,mask-2.png,h,1,0.6289319000206888,s,1,0.0021255998872220516,0.04651830019429326,0.04751239996403456,0.09953660005703568,0.1005489001981914,0.2998147998005152
RSVPLG03,cs,20260501-113621,1.0.2,20251105-084826,834,Experiment,Both,1,Automatic,main,17,20260501-113839,global,global,750,S,S,A,A,S-A.png,S-A.png,sS,sS,mask-1.png,mask-2.png,h,0,0.3870115000754595,s,1,0.029145800042897463,0.047821199987083673,0.04773780005052686,0.0997635000385344,0.09987250017002225,0.7517768000252545
RSVPLG03,cs,20260501-113621,1.0.2,20251105-084826,834,Experiment,Both,1,Automatic,main,18,20260501-113844,global,global,750,H,S,A,A,H-A.png,S-A.png,hH,sS,mask-1.png,mask-3.png,s,0,0.4775638999417424,h,0,0.6018027001991868,0.047502600122243166,0.047535100020468235,0.09993960009887815,0.09923030016943812,0.7502442998811603
RSVPLG03,cs,20260501-113621,1.0.2,20251105-084826,834,Experiment,Both,1,Automatic,main,19,20260501-113849,local,local,300,H,H,A,E,A-H.png,E-H.png,hH,hH,mask-2.png,mask-4.png,h,1,0.5049544000066817,h,1,0.08732330007478595,0.04788600001484156,0.047934699803590775,0.09910529991611838,0.09915469959378242,0.300040100235492
RSVPLG03,cs,20260501-113621,1.0.2,20251105-084826,834,Experiment,Both,1,Automatic,main,20,20260501-113853,local,global,750,S,H,A,A,A-S.png,H-A.png,sS,hH,mask-2.png,mask-1.png,s,1,0.5923132998868823,h,1,0.7999940002337098,0.04769609961658716,0.047632799949496984,0.09983860002830625,0.09945330023765564,0.7500140997581184
RSVPLG03,cs,20260501-113621,1.0.2,20251105-084826,834,Experiment,Both,1,Automatic,main,21,20260501-113858,local,global,750,H,H,E,A,E-H.png,H-A.png,hH,hH,mask-2.png,mask-4.png,h,1,0.7323463000357151,h,1,0.11558250011876225,0.047680099960416555,0.047689300030469894,0.09990070015192032,0.09891209984198213,0.7520011002197862
RSVPLG03,cs,20260501-113621,1.0.2,20251105-084826,834,Experiment,Both,1,Automatic,main,22,20260501-113903,local,local,300,H,H,E,E,E-H.png,E-H.png,hH,hH,mask-3.png,mask-2.png,h,1,0.5876905997283757,s,0,0.6836787997744977,0.0467568002641201,0.04813689971342683,0.09989099996164441,0.10024339985102415,0.29947430035099387
RSVPLG03,cs,20260501-113621,1.0.2,20251105-084826,834,Experiment,Both,1,Automatic,main,23,20260501-113907,global,local,750,H,H,A,A,H-A.png,A-H.png,hH,hH,mask-2.png,mask-1.png,s,0,0.17578699998557568,h,1,0.3997864001430571,0.04769660020247102,0.04761860007420182,0.10093290032818913,0.10005810018628836,0.7501767999492586
RSVPLG03,cs,20260501-113621,1.0.2,20251105-084826,834,Experiment,Both,1,Automatic,main,24,20260501-113912,local,local,300,S,H,E,A,E-S.png,A-H.png,sS,hH,mask-2.png,mask-2.png,s,1,0.4974207002669573,h,1,0.6416110000573099,0.04759819991886616,0.04756430024281144,0.09807990025728941,0.10041930014267564,0.29912339989095926
RSVPLG03,cs,20260501-113621,1.0.2,20251105-084826,834,Experiment,Both,1,Automatic,main,25,20260501-113916,global,local,750,S,S,A,E,S-A.png,E-S.png,sS,sS,mask-3.png,mask-3.png,s,1,0.5218524998053908,h,0,0.6817915998399258,0.04665450006723404,0.04750849958509207,0.09874849999323487,0.09894599998369813,0.7495925002731383
RSVPLG03,cs,20260501-113621,1.0.2,20251105-084826,834,Experiment,Both,1,Automatic,main,26,20260501-113922,local,global,300,S,H,E,A,E-S.png,H-A.png,sS,hH,mask-2.png,mask-3.png,s,1,0.42259229999035597,h,1,0.5828899000771344,0.046785800252109766,0.04595889989286661,0.0989079000428319,0.09909409983083606,0.3003739002160728
RSVPLG03,cs,20260501-113621,1.0.2,20251105-084826,834,Experiment,Both,1,Automatic,main,27,20260501-113927,global,local,300,H,S,A,A,H-A.png,A-S.png,hH,sS,mask-4.png,mask-1.png,s,0,0.40969299990683794,h,0,0.6018070997670293,0.04773249989375472,0.04805379966273904,0.09976219991222024,0.10138770006597042,0.29884609999135137
RSVPLG03,cs,20260501-113621,1.0.2,20251105-084826,834,Experiment,Both,1,Automatic,main,28,20260501-113931,global,local,750,H,S,A,A,H-A.png,A-S.png,hH,sS,mask-4.png,mask-4.png,h,1,0.5436284998431802,s,1,0.04097520001232624,0.04677959997206926,0.04776940029114485,0.09998409962281585,0.10178779996931553,0.7493575997650623
RSVPLG03,cs,20260501-113621,1.0.2,20251105-084826,834,Experiment,Both,1,Automatic,main,29,20260501-113936,global,local,300,S,H,A,E,S-A.png,E-H.png,sS,hH,mask-2.png,mask-1.png,h,0,0.5117196002975106,s,0,0.02863840013742447,0.04788180021569133,0.04678269987925887,0.10030549997463822,0.0990522000938654,0.3005131999962032
RSVPLG03,cs,20260501-113621,1.0.2,20251105-084826,834,Experiment,Both,1,Automatic,main,30,20260501-113940,global,global,750,S,H,A,A,S-A.png,H-A.png,sS,hH,mask-1.png,mask-2.png,s,1,0.5636261999607086,h,1,0.02251210017129779,0.04877719981595874,0.04775390028953552,0.10100769996643066,0.0999545999802649,0.7506479998119175
RSVPLG03,cs,20260501-113621,1.0.2,20251105-084826,834,Experiment,Both,1,Automatic,main,31,20260501-113945,global,local,750,S,S,E,A,S-E.png,A-S.png,sS,sS,mask-2.png,mask-3.png,s,1,0.8497576997615397,h,0,1.0900491001084447,0.04732780018821359,0.0474197999574244,0.09854779997840524,0.10067189997062087,0.7499036001972854
RSVPLG03,cs,20260501-113621,1.0.2,20251105-084826,834,Experiment,Both,1,Automatic,main,32,20260501-113950,local,global,300,H,S,E,A,E-H.png,S-A.png,hH,sS,mask-3.png,mask-3.png,h,1,0.6247256998904049,s,1,0.0415501999668777,0.04790370026603341,0.04883329989388585,0.10028749983757734,0.10121589992195368,0.2994601000100374
RSVPLG03,cs,20260501-113621,1.0.2,20251105-084826,834,Experiment,Both,1,Automatic,main,33,20260501-113954,local,global,300,S,S,A,A,A-S.png,S-A.png,sS,sS,mask-1.png,mask-3.png,h,0,0.3999627996236086,s,1,0.8117340998724103,0.047363399993628263,0.04863840015605092,0.10038039973005652,0.10062270006164908,0.2994106998667121
RSVPLG03,cs,20260501-113621,1.0.2,20251105-084826,834,Experiment,Both,1,Automatic,main,34,20260501-114000,global,global,300,H,S,A,E,H-A.png,S-E.png,hH,sS,mask-1.png,mask-2.png,h,1,0.5937729002907872,h,0,0.09348049992695451,0.04674699995666742,0.04682630021125078,0.09896919969469309,0.09930350026115775,0.30097909970209
RSVPLG03,cs,20260501-113621,1.0.2,20251105-084826,834,Experiment,Both,1,Automatic,main,35,20260501-114004,global,local,300,S,S,E,E,S-E.png,E-S.png,sS,sS,mask-3.png,mask-1.png,s,1,0.6008405000902712,h,0,0.13791680010035634,0.047708400059491396,0.04762060008943081,0.10093240020796657,0.09983030008152127,0.30036870017647743
RSVPLG03,cs,20260501-113621,1.0.2,20251105-084826,834,Experiment,Both,1,Automatic,main,36,20260501-114008,local,local,300,S,S,E,E,E-S.png,E-S.png,sS,sS,mask-3.png,mask-4.png,s,1,0.4822496003471315,h,0,0.6743645002134144,0.047629100270569324,0.04664150020107627,0.09919989993795753,0.09884090023115277,0.30000129994004965
RSVPLG03,cs,20260501-113621,1.0.2,20251105-084826,834,Experiment,Both,1,Automatic,main,37,20260501-114013,global,global,300,H,H,E,E,H-E.png,H-E.png,hH,hH,mask-2.png,mask-4.png,h,1,0.7934042997658253,h,1,0.08759759971871972,0.0476923999376595,0.0474946997128427,0.0987924998626113,0.098518299870193,0.30043569998815656
RSVPLG03,cs,20260501-113621,1.0.2,20251105-084826,834,Experiment,Both,1,Automatic,main,38,20260501-114017,local,global,750,S,H,A,A,A-S.png,H-A.png,sS,hH,mask-3.png,mask-2.png,h,0,0.8499155999161303,s,0,0.025196299888193607,0.04752179980278015,0.047613800037652254,0.09959169989451766,0.1007010000757873,0.7496786997653544
RSVPLG03,cs,20260501-113621,1.0.2,20251105-084826,834,Experiment,Both,1,Automatic,main,39,20260501-114023,global,local,750,H,S,A,E,H-A.png,E-S.png,hH,sS,mask-3.png,mask-1.png,h,1,0.3940182998776436,h,0,0.3259254000149667,0.047638799995183945,0.04769869986921549,0.09975370019674301,0.09996790019795299,0.7499878001399338
RSVPLG03,cs,20260501-113621,1.0.2,20251105-084826,834,Experiment,Both,1,Automatic,main,40,20260501-114028,global,global,750,H,S,A,A,H-A.png,S-A.png,hH,sS,mask-2.png,mask-4.png,s,0,0.4134202999994159,h,0,0.6372073004022241,0.04905849974602461,0.04712839983403683,0.1003320999443531,0.09991439990699291,0.7515675001777709
RSVPLG03,cs,20260501-113621,1.0.2,20251105-084826,834,Experiment,Both,1,Automatic,main,41,20260501-114032,global,global,300,H,H,A,A,H-A.png,H-A.png,hH,hH,mask-3.png,mask-3.png,h,1,0.8743731998838484,s,0,0.07617319980636239,0.046896399930119514,0.0477013997733593,0.10019279969856143,0.09990710020065308,0.3000186998397112
RSVPLG03,cs,20260501-113621,1.0.2,20251105-084826,834,Experiment,Both,1,Automatic,main,42,20260501-114037,local,global,300,H,H,E,E,E-H.png,H-E.png,hH,hH,mask-3.png,mask-3.png,h,1,0.8223465997725725,h,1,0.07601529965177178,0.04774449998512864,0.047575199976563454,0.09996069967746735,0.09981669997796416,0.2996137998998165
RSVPLG03,cs,20260501-113621,1.0.2,20251105-084826,834,Experiment,Both,1,Automatic,main,43,20260501-114042,global,global,750,H,S,E,A,H-E.png,S-A.png,hH,sS,mask-4.png,mask-1.png,h,1,0.5186222000047565,s,1,0.7547808000817895,0.0477224001660943,0.0467119999229908,0.0999425002373755,0.0989699000492692,0.750921200029552
RSVPLG03,cs,20260501-113621,1.0.2,20251105-084826,834,Experiment,Both,1,Automatic,main,44,20260501-114047,global,local,750,S,H,E,A,S-E.png,A-H.png,sS,hH,mask-3.png,mask-2.png,s,1,1.1104751001112163,h,1,0.023294299840927124,0.047544300090521574,0.047667999751865864,0.09821500023826957,0.0996679998934269,0.7496374002657831
RSVPLG03,cs,20260501-113621,1.0.2,20251105-084826,834,Experiment,Both,1,Automatic,main,45,20260501-114053,local,global,750,S,S,A,A,A-S.png,S-A.png,sS,sS,mask-3.png,mask-4.png,s,1,0.7513201995752752,s,1,0.07827580021694303,0.0475441999733448,0.047523800283670425,0.10064949980005622,0.10054180026054382,0.7498483997769654
RSVPLG03,cs,20260501-113621,1.0.2,20251105-084826,834,Experiment,Both,1,Automatic,main,46,20260501-114058,global,global,750,H,H,A,A,H-A.png,H-A.png,hH,hH,mask-1.png,mask-3.png,s,0,0.8484935997985303,h,1,1.056856700219214,0.04755929997190833,0.04673750000074506,0.10045999987050891,0.10030340030789375,0.7524756998755038
RSVPLG03,cs,20260501-113621,1.0.2,20251105-084826,834,Experiment,Both,1,Automatic,main,47,20260501-114103,local,global,300,H,S,E,A,E-H.png,S-A.png,hH,sS,mask-1.png,mask-3.png,h,1,0.5356793999671936,s,1,0.6477573998272419,0.04868000000715256,0.04768980015069246,0.10135880019515753,0.10034140013158321,0.3010025001130998
RSVPLG03,cs,20260501-113621,1.0.2,20251105-084826,834,Experiment,Both,1,Automatic,main,48,20260501-114107,local,global,300,H,H,E,E,E-H.png,H-E.png,hH,hH,mask-3.png,mask-4.png,h,1,0.9278708999045193,s,0,1.0558627001009881,0.047516499646008015,0.04755799984559417,0.09886669972911477,0.09966550022363663,0.30020379973575473
RSVPLG03,cs,20260501-113621,1.0.2,20251105-084826,834,Experiment,Both,1,Automatic,main,49,20260501-114112,local,local,750,S,S,E,E,E-S.png,E-S.png,sS,sS,mask-2.png,mask-2.png,h,0,0.6085346001200378,s,1,0.7684151004068553,0.045926600228995085,0.04751960001885891,0.0999464001506567,0.10053940024226904,0.7499035000801086
RSVPLG03,cs,20260501-113621,1.0.2,20251105-084826,834,Experiment,Both,1,Automatic,main,50,20260501-114117,local,global,750,H,H,A,E,A-H.png,H-E.png,hH,hH,mask-3.png,mask-2.png,h,1,1.4149488997645676,s,0,1.8797625000588596,0.04753819992765784,0.04751729965209961,0.09876500023528934,0.10053909989073873,0.7501822002232075
RSVPLG03,cs,20260501-113621,1.0.2,20251105-084826,834,Experiment,Both,1,Automatic,main,51,20260501-114126,local,global,750,H,H,A,E,A-H.png,H-E.png,hH,hH,mask-2.png,mask-4.png,h,1,0.9049045001156628,h,1,0.08796019991859794,0.04754329985007644,0.047238599974662066,0.09960719989612699,0.10009060008451343,0.751305699814111
RSVPLG03,cs,20260501-113621,1.0.2,20251105-084826,834,Experiment,Both,1,Automatic,main,52,20260501-114131,local,local,300,S,H,E,E,E-S.png,E-H.png,sS,hH,mask-2.png,mask-4.png,s,1,0.4936468000523746,h,1,0.07130099972710013,0.04883940005674958,0.04772489983588457,0.10008689993992448,0.0998781998641789,0.3010458000935614
RSVPLG03,cs,20260501-113621,1.0.2,20251105-084826,834,Experiment,Both,1,Automatic,main,53,20260501-114135,global,global,300,H,H,A,E,H-A.png,H-E.png,hH,hH,mask-2.png,mask-2.png,h,1,0.7219461998902261,h,1,0.07523379987105727,0.04756319988518953,0.04751870036125183,0.10081599978730083,0.09976220037788153,0.3003794997930527
RSVPLG03,cs,20260501-113621,1.0.2,20251105-084826,834,Experiment,Both,1,Automatic,main,54,20260501-114140,local,global,300,S,H,A,E,A-S.png,H-E.png,sS,hH,mask-3.png,mask-3.png,h,0,0.5040600998327136,h,1,0.07023339997977018,0.04761950019747019,0.0467077000066638,0.09982430003583431,0.09993819985538721,0.30052389996126294
RSVPLG03,cs,20260501-113621,1.0.2,20251105-084826,834,Experiment,Both,1,Automatic,main,55,20260501-114144,local,global,750,H,H,E,E,E-H.png,H-E.png,hH,hH,mask-3.png,mask-4.png,h,1,0.4343441999517381,h,1,0.08816830022260547,0.04772210028022528,0.04771880013868213,0.0999667001888156,0.09996280027553439,0.7501567001454532
RSVPLG03,cs,20260501-113621,1.0.2,20251105-084826,834,Experiment,Both,1,Automatic,main,56,20260501-114149,global,global,300,H,H,E,A,H-E.png,H-A.png,hH,hH,mask-3.png,mask-1.png,h,1,0.4649672000668943,h,1,0.07398169999942183,0.04854549979791045,0.04594270000234246,0.10010370006784797,0.10018379986286163,0.3020473998039961
RSVPLG03,cs,20260501-113621,1.0.2,20251105-084826,834,Experiment,Both,1,Automatic,main,57,20260501-114153,local,local,300,H,H,E,A,E-H.png,A-H.png,hH,hH,mask-2.png,mask-3.png,h,1,0.45960319973528385,h,1,0.05403569992631674,0.04669729992747307,0.04706630017608404,0.0999304000288248,0.09929310018196702,0.2998926998116076
RSVPLG03,cs,20260501-113621,1.0.2,20251105-084826,834,Experiment,Both,1,Automatic,main,58,20260501-114157,global,local,300,H,H,A,A,H-A.png,A-H.png,hH,hH,mask-1.png,mask-2.png,h,1,0.5714130997657776,h,1,0.054004999808967113,0.04769930010661483,0.04771029995754361,0.09991710027679801,0.09992490010336041,0.30049350019544363
RSVPLG03,cs,20260501-113621,1.0.2,20251105-084826,834,Experiment,Both,1,Automatic,main,59,20260501-114202,local,global,750,H,H,A,A,A-H.png,H-A.png,hH,hH,mask-2.png,mask-4.png,h,1,0.5088153001852334,h,1,0.0903091998770833,0.04576500039547682,0.047241900116205215,0.09900210006162524,0.09965360024943948,0.7505144001916051
RSVPLG03,cs,20260501-113621,1.0.2,20251105-084826,834,Experiment,Both,1,Automatic,main,60,20260501-114206,global,global,300,H,S,A,A,H-A.png,S-A.png,hH,sS,mask-3.png,mask-3.png,h,1,0.7421683999709785,s,1,0.8699044003151357,0.04752720007672906,0.047545299865305424,0.09952849987894297,0.10152449971064925,0.29986670007929206
RSVPLG03,cs,20260501-113621,1.0.2,20251105-084826,834,Experiment,Both,1,Automatic,main,61,20260501-114211,global,local,300,S,S,E,A,S-E.png,A-S.png,sS,sS,mask-4.png,mask-1.png,s,1,0.589903200045228,h,0,0.8142011999152601,0.047551400028169155,0.046726600266993046,0.10113070020452142,0.10010030027478933,0.3004679000005126
RSVPLG03,cs,20260501-113621,1.0.2,20251105-084826,834,Experiment,Both,1,Automatic,main,62,20260501-114215,local,local,750,H,H,E,A,E-H.png,A-H.png,hH,hH,mask-1.png,mask-3.png,h,1,1.278130500111729,s,0,0.5965952998958528,0.048653299920260906,0.047591099981218576,0.10156349977478385,0.09979339968413115,0.7511084000580013
RSVPLG03,cs,20260501-113621,1.0.2,20251105-084826,834,Experiment,Both,1,Automatic,main,63,20260501-114222,global,global,300,S,H,E,E,S-E.png,H-E.png,sS,hH,mask-4.png,mask-3.png,s,1,0.7450226000510156,h,1,0.8890480999834836,0.048676200211048126,0.04769330006092787,0.10088319983333349,0.09989940002560616,0.30154060013592243
RSVPLG03,cs,20260501-113621,1.0.2,20251105-084826,834,Experiment,Both,1,Automatic,main,64,20260501-114226,global,global,750,H,S,A,A,H-A.png,S-A.png,hH,sS,mask-2.png,mask-4.png,h,1,0.8591558001935482,s,1,0.9710037000477314,0.04654549993574619,0.047528499737381935,0.09967290004715323,0.10032069962471724,0.7496776999905705
RSVPLG03,cs,20260501-113621,1.0.2,20251105-084826,834,Experiment,Both,1,Automatic,main,65,20260501-114231,local,global,750,H,S,E,A,E-H.png,S-A.png,hH,sS,mask-1.png,mask-4.png,h,1,0.7733884998597205,s,1,0.9335264000110328,0.04753330023959279,0.04769620019942522,0.10055019985884428,0.09993720008060336,0.7500928998924792
RSVPLG03,cs,20260501-113621,1.0.2,20251105-084826,834,Experiment,Both,1,Automatic,main,66,20260501-114236,local,global,300,S,H,A,E,A-S.png,H-E.png,sS,hH,mask-1.png,mask-1.png,s,1,0.637336099985987,h,1,0.8453013002872467,0.047694199718534946,0.047651799861341715,0.09983029961585999,0.09974589990451932,0.2997950999997556
RSVPLG03,cs,20260501-113621,1.0.2,20251105-084826,834,Experiment,Both,1,Automatic,main,67,20260501-114241,global,local,300,H,S,E,A,H-E.png,A-S.png,hH,sS,mask-1.png,mask-1.png,h,1,1.3988799001090229,h,0,0.05112490011379123,0.04754890035837889,0.047719200141727924,0.09964810032397509,0.09986250009387732,0.30143290013074875
RSVPLG03,cs,20260501-113621,1.0.2,20251105-084826,834,Experiment,Both,1,Automatic,main,68,20260501-114246,local,local,750,H,S,E,A,E-H.png,A-S.png,hH,sS,mask-3.png,mask-3.png,s,0,1.4611030998639762,h,0,0.011622800026088953,0.04773160023614764,0.04659170005470514,0.09993800008669496,0.0998840001411736,0.7504891999997199
RSVPLG03,cs,20260501-113621,1.0.2,20251105-084826,834,Experiment,Both,1,Automatic,main,69,20260501-114251,local,local,750,H,H,A,E,A-H.png,E-H.png,hH,hH,mask-3.png,mask-4.png,h,1,1.0603696997277439,s,0,1.1726216999813914,0.047568200156092644,0.046748099848628044,0.10075009986758232,0.09891640022397041,0.7519082999788225
RSVPLG03,cs,20260501-113621,1.0.2,20251105-084826,834,Experiment,Both,1,Automatic,main,70,20260501-114257,global,local,300,H,H,A,E,H-A.png,E-H.png,hH,hH,mask-3.png,mask-2.png,h,1,1.1931369001977146,h,1,0.03694769972935319,0.04755969997495413,0.0475679999217391,0.09963410021737218,0.09970650030300021,0.29992059990763664
RSVPLG03,cs,20260501-113621,1.0.2,20251105-084826,834,Experiment,Both,1,Automatic,main,71,20260501-114302,global,global,750,S,H,E,E,S-E.png,H-E.png,sS,hH,mask-4.png,mask-2.png,h,0,0.9757019998505712,h,1,0.08558209985494614,0.047700200229883194,0.0477466001175344,0.09993720008060336,0.10084370011463761,0.7493349001742899
RSVPLG03,cs,20260501-113621,1.0.2,20251105-084826,834,Experiment,Both,1,Automatic,main,72,20260501-114307,global,global,750,H,H,A,A,H-A.png,H-A.png,hH,hH,mask-3.png,mask-2.png,h,1,1.0266937999986112,s,0,1.170802399981767,0.04771040007472038,0.04771410021930933,0.099919100292027,0.10035100020468235,0.7500813999213278
RSVPLG03,cs,20260501-113621,1.0.2,20251105-084826,834,Experiment,Both,1,Automatic,main,73,20260501-114312,local,global,750,H,H,A,E,A-H.png,H-E.png,hH,hH,mask-2.png,mask-3.png,h,1,1.7010317002423108,h,1,0.09224320016801357,0.047529099974781275,0.047510100062936544,0.09958230005577207,0.10077540017664433,0.7502160998992622
RSVPLG03,cs,20260501-113621,1.0.2,20251105-084826,834,Experiment,Both,1,Automatic,main,74,20260501-114318,global,local,300,H,S,A,E,H-A.png,E-S.png,hH,sS,mask-1.png,mask-3.png,h,1,6.66778889996931,s,1,6.763816699851304,0.04653219971805811,0.0465080002322793,0.09955469984561205,0.09953040024265647,0.29990809969604015
RSVPLG03,cs,20260501-113621,1.0.2,20251105-084826,834,Experiment,Both,1,Automatic,main,75,20260501-114328,global,local,300,H,S,A,E,H-A.png,E-S.png,hH,sS,mask-2.png,mask-4.png,h,1,0.970807199832052,s,1,1.06687179999426,0.047477600164711475,0.04683540016412735,0.09994650026783347,0.10010029980912805,0.3005949002690613
RSVPLG03,cs,20260501-113621,1.0.2,20251105-084826,834,Experiment,Both,1,Automatic,main,76,20260501-114334,local,local,750,H,S,A,A,A-H.png,A-S.png,hH,sS,mask-3.png,mask-1.png,h,1,0.7488549998961389,h,0,0.0673853000625968,0.04684049962088466,0.046876799780875444,0.10025739995762706,0.10095349978655577,0.7500008000060916
RSVPLG03,cs,20260501-113621,1.0.2,20251105-084826,834,Experiment,Both,1,Automatic,main,77,20260501-114339,local,global,300,H,S,A,A,A-H.png,S-A.png,hH,sS,mask-2.png,mask-1.png,s,0,0.4932333999313414,h,0,0.3973818998783827,0.04757719999179244,0.04771630000323057,0.09980140021070838,0.09994249977171421,0.2994555002078414
RSVPLG03,cs,20260501-113621,1.0.2,20251105-084826,834,Experiment,Both,1,Automatic,main,78,20260501-114343,global,local,300,H,S,A,A,H-A.png,A-S.png,hH,sS,mask-2.png,mask-3.png,h,1,0.48077680030837655,h,0,0.05388360004872084,0.04872150020673871,0.048705900087952614,0.10088160028681159,0.10179380001500249,0.2999698002822697
RSVPLG03,cs,20260501-113621,1.0.2,20251105-084826,834,Experiment,Both,1,Automatic,main,79,20260501-114347,local,local,750,S,S,A,E,A-S.png,E-S.png,sS,sS,mask-1.png,mask-2.png,h,0,1.150564500130713,s,1,0.025273599661886692,0.04768650000914931,0.0488646999001503,0.09889869997277856,0.10124929994344711,0.7493342002853751
RSVPLG03,cs,20260501-113621,1.0.2,20251105-084826,834,Experiment,Both,1,Automatic,main,80,20260501-114353,local,local,300,S,S,A,A,A-S.png,A-S.png,sS,sS,mask-4.png,mask-2.png,s,1,0.18497470021247864,s,1,0.40428850008174777,0.0476889000274241,0.04765990003943443,0.10050480021163821,0.10057220002636313,0.2999265999533236
RSVPLG03,cs,20260501-113621,1.0.2,20251105-084826,834,Experiment,Both,1,Automatic,main,81,20260501-114357,global,local,750,H,S,E,E,H-E.png,E-S.png,hH,sS,mask-3.png,mask-1.png,h,1,0.9979719002731144,s,1,0.055372499860823154,0.04817239986732602,0.04782039998099208,0.10017099976539612,0.09979179967194796,0.7521786000579596
RSVPLG03,cs,20260501-113621,1.0.2,20251105-084826,834,Experiment,Both,1,Automatic,main,82,20260501-114402,local,local,300,H,S,A,E,A-H.png,E-S.png,hH,sS,mask-1.png,mask-3.png,s,0,0.005902899894863367,h,0,1.2596335997805,0.04878970002755523,0.04683579970151186,0.10107300011441112,0.09936109976843,0.30210020020604134
RSVPLG03,cs,20260501-113621,1.0.2,20251105-084826,834,Experiment,Both,1,Automatic,main,83,20260501-114407,local,local,300,S,S,A,A,A-S.png,A-S.png,sS,sS,mask-2.png,mask-2.png,s,1,1.1315624001435935,h,0,0.3128766003064811,0.04775470029562712,0.04672610014677048,0.09904820006340742,0.09994129976257682,0.30030270013958216
RSVPLG03,cs,20260501-113621,1.0.2,20251105-084826,834,Experiment,Both,1,Automatic,main,84,20260501-114411,global,local,750,H,H,A,E,H-A.png,E-H.png,hH,hH,mask-2.png,mask-1.png,h,1,0.10959989996626973,s,0,0.12096650013700128,0.04755969997495413,0.04845940042287111,0.09896149998530746,0.10162880038842559,0.7490336997434497
RSVPLG03,cs,20260501-113621,1.0.2,20251105-084826,834,Experiment,Both,1,Automatic,main,85,20260501-114415,local,local,300,H,S,E,E,E-H.png,E-S.png,hH,sS,mask-1.png,mask-2.png,s,0,0.007697800174355507,h,0,0.5499933999963105,0.048683099914342165,0.047970499843358994,0.10089039988815784,0.10018629999831319,0.3005268000997603
RSVPLG03,cs,20260501-113621,1.0.2,20251105-084826,834,Experiment,Both,1,Automatic,main,86,20260501-114419,global,global,750,H,H,E,E,H-E.png,H-E.png,hH,hH,mask-4.png,mask-2.png,h,1,0.5612828000448644,h,1,0.08533819997683167,0.04770610015839338,0.04770850017666817,0.10014980006963015,0.10000680014491081,0.7515342999249697
RSVPLG03,cs,20260501-113621,1.0.2,20251105-084826,834,Experiment,Both,1,Automatic,main,87,20260501-114424,local,local,750,H,S,E,A,E-H.png,A-S.png,hH,sS,mask-1.png,mask-3.png,h,1,0.5937689002603292,h,0,0.06798319984227419,0.04753470001742244,0.04952480038627982,0.1005426999181509,0.10073290020227432,0.750335699878633
RSVPLG03,cs,20260501-113621,1.0.2,20251105-084826,834,Experiment,Both,1,Automatic,main,88,20260501-114429,global,global,300,S,S,A,A,S-A.png,S-A.png,sS,sS,mask-2.png,mask-4.png,s,1,0.3900961000472307,s,1,0.5536396000534296,0.0469479002058506,0.04753470001742244,0.10107370000332594,0.09900990035384893,0.30071499990299344
RSVPLG03,cs,20260501-113621,1.0.2,20251105-084826,834,Experiment,Both,1,Automatic,main,89,20260501-114433,local,local,750,S,H,A,E,A-S.png,E-H.png,sS,hH,mask-2.png,mask-1.png,h,0,0.5301175001077354,s,0,0.05465329997241497,0.04770809970796108,0.04852480022236705,0.10178939998149872,0.10156300012022257,0.7511453996412456
RSVPLG03,cs,20260501-113621,1.0.2,20251105-084826,834,Experiment,Both,1,Automatic,main,90,20260501-114438,local,local,300,H,S,A,E,A-H.png,E-S.png,hH,sS,mask-2.png,mask-1.png,h,1,0.4780112002044916,s,1,0.7222095998004079,0.04755009990185499,0.04755420004948974,0.09885209985077381,0.10000379988923669,0.3002830999903381
RSVPLG03,cs,20260501-113621,1.0.2,20251105-084826,834,Experiment,Both,1,Automatic,main,91,20260501-114442,local,global,300,S,H,A,E,A-S.png,H-E.png,sS,hH,mask-4.png,mask-3.png,s,1,0.5899106999859214,h,1,0.7625143001787364,0.04667910002171993,0.046613600105047226,0.09850220009684563,0.09881370002403855,0.30055030016228557
RSVPLG03,cs,20260501-113621,1.0.2,20251105-084826,834,Experiment,Both,1,Automatic,main,92,20260501-114447,global,global,300,S,H,A,E,S-A.png,H-E.png,sS,hH,mask-2.png,mask-2.png,h,0,0.9336604001000524,h,1,1.6599981999024749,0.04675270011648536,0.04852589964866638,0.10084840003401041,0.10053739976137877,0.3000194001942873
RSVPLG03,cs,20260501-113621,1.0.2,20251105-084826,834,Experiment,Both,1,Automatic,main,93,20260501-114453,global,local,300,S,H,E,E,S-E.png,E-H.png,sS,hH,mask-3.png,mask-2.png,h,0,0.5980449998751283,s,0,0.5222753002308309,0.047409099992364645,0.04825440002605319,0.10064030019566417,0.10047579975798726,0.3001087000593543
RSVPLG03,cs,20260501-113621,1.0.2,20251105-084826,834,Experiment,Both,1,Automatic,main,94,20260501-114501,local,global,750,H,H,A,A,A-H.png,H-A.png,hH,hH,mask-3.png,mask-3.png,s,0,3.8502275003120303,h,1,0.005694800056517124,0.04778230004012585,0.049383100122213364,0.09998390031978488,0.10055800015106797,0.7494834000244737
RSVPLG03,cs,20260501-113621,1.0.2,20251105-084826,834,Experiment,Both,1,Automatic,main,95,20260501-114506,global,local,750,H,H,E,A,H-E.png,A-H.png,hH,hH,mask-2.png,mask-3.png,h,1,0.689962999895215,s,0,0.6769445003010333,0.04658909980207682,0.0485300999134779,0.09961250005289912,0.1004135999828577,0.7488513002172112
RSVPLG03,cs,20260501-113621,1.0.2,20251105-084826,834,Experiment,Both,1,Automatic,main,96,20260501-114511,local,local,750,S,S,E,E,E-S.png,E-S.png,sS,sS,mask-1.png,mask-2.png,s,1,0.0033267000690102577,s,1,0.37318519968539476,0.046722099650651217,0.04817239986732602,0.10011160001158714,0.1006713998503983,0.7496531000360847
RSVPLG03,cs,20260501-113621,1.0.2,20251105-084826,834,Experiment,Both,1,Automatic,main,97,20260501-114516,local,local,750,S,H,E,A,E-S.png,A-H.png,sS,hH,mask-4.png,mask-3.png,s,1,0.037785500288009644,h,1,0.14632439985871315,0.047705600038170815,0.04676740011200309,0.09891400020569563,0.0998263000510633,0.7504775999113917
RSVPLG03,cs,20260501-113621,1.0.2,20251105-084826,834,Experiment,Both,1,Automatic,main,98,20260501-114522,local,local,750,H,H,E,A,E-H.png,A-H.png,hH,hH,mask-2.png,mask-1.png,s,0,0.928377500269562,s,0,0.46133669978007674,0.046914899721741676,0.04770709993317723,0.1000946001149714,0.09995510010048747,0.7503651999868453
RSVPLG03,cs,20260501-113621,1.0.2,20251105-084826,834,Experiment,Both,1,Automatic,main,99,20260501-114526,global,global,750,H,H,E,A,H-E.png,H-A.png,hH,hH,mask-3.png,mask-2.png,h,1,0.26897790003567934,h,1,0.053331699687987566,0.04769509984180331,0.04770580027252436,0.09988760016858578,0.09893959993496537,0.7521979999728501
RSVPLG03,cs,20260501-113621,1.0.2,20251105-084826,834,Experiment,Both,1,Automatic,main,100,20260501-114531,local,global,300,S,S,A,E,A-S.png,S-E.png,sS,sS,mask-1.png,mask-1.png,h,0,0.5620257002301514,s,1,0.1085891998372972,0.04759349999949336,0.04768519988283515,0.09912330005317926,0.099896099884063,0.299879000056535
RSVPLG03,cs,20260501-114605,1.0.2,20251105-084826,834,Experiment,Both,1,Automatic,warmup,1,20260501-114623,local,global,750,H,H,A,A,A-H.png,H-A.png,hH,hH,mask-3.png,mask-2.png,h,1,1.1633616997860372,s,0,0.020374899730086327,0.046357700135558844,0.046891200356185436,0.09815050009638071,0.1000373000279069,0.7482921998016536
RSVPLG03,cs,20260501-114605,1.0.2,20251105-084826,834,Experiment,Both,1,Automatic,warmup,2,20260501-114628,local,local,300,H,H,E,A,E-H.png,A-H.png,hH,hH,mask-3.png,mask-1.png,h,1,0.5377286002039909,h,1,0.0736484001390636,0.047502500005066395,0.047364600002765656,0.10049410024657845,0.10034110024571419,0.29934919998049736
RSVPLG03,cs,20260501-114605,1.0.2,20251105-084826,834,Experiment,Both,1,Automatic,warmup,3,20260501-114633,global,local,300,H,S,A,E,H-A.png,E-S.png,hH,sS,mask-4.png,mask-4.png,s,0,14.408173900097609,h,0,14.536387499887496,0.04763960000127554,0.04644670011475682,0.09884849982336164,0.09947199979797006,0.3001916999928653
RSVPLG03,cs,20260501-114605,1.0.2,20251105-084826,834,Experiment,Both,1,Automatic,warmup,4,20260501-114651,global,local,750,S,H,E,E,S-E.png,E-H.png,sS,hH,mask-3.png,mask-3.png,s,1,0.4981733998283744,h,1,0.2138077998533845,0.04762830026447773,0.04679339984431863,0.09868920035660267,0.10092859994620085,0.7489658002741635
RSVPLG03,cs,20260501-114605,1.0.2,20251105-084826,834,Experiment,Both,1,Automatic,main,5,20260501-114656,local,global,300,S,H,E,A,E-S.png,H-A.png,sS,hH,mask-4.png,mask-1.png,s,1,0.5026445998810232,h,1,0.6786209000274539,0.047711600083857775,0.04759400011971593,0.09881110023707151,0.10113719990476966,0.2986073000356555
RSVPLG03,cs,20260501-114605,1.0.2,20251105-084826,834,Experiment,Both,1,Automatic,main,6,20260501-114700,global,local,300,S,H,A,A,S-A.png,A-H.png,sS,hH,mask-1.png,mask-2.png,s,1,0.5605736998841166,h,1,0.7365856999531388,0.047623499762266874,0.047826599795371294,0.09901219978928566,0.10101290000602603,0.2986727999523282
RSVPLG03,cs,20260501-114605,1.0.2,20251105-084826,834,Experiment,Both,1,Automatic,main,7,20260501-114704,global,global,300,S,S,E,A,S-E.png,S-A.png,sS,sS,mask-2.png,mask-1.png,s,1,0.4230281999334693,h,0,0.5829093996435404,0.04929320001974702,0.04749399982392788,0.10132999997586012,0.10071669984608889,0.2997690001502633
RSVPLG03,cs,20260501-114605,1.0.2,20251105-084826,834,Experiment,Both,1,Automatic,main,8,20260501-114708,global,local,300,S,S,E,A,S-E.png,A-S.png,sS,sS,mask-1.png,mask-2.png,h,0,1.5290157003328204,s,1,0.6664383001625538,0.04560990026220679,0.04798069968819618,0.09983790013939142,0.09918259968981147,0.29845920018851757
RSVPLG03,cs,20260501-114605,1.0.2,20251105-084826,834,Experiment,Both,1,Automatic,main,9,20260501-114714,global,global,750,H,S,E,A,H-E.png,S-A.png,hH,sS,mask-3.png,mask-4.png,h,1,0.8894604998640716,s,1,1.0176444998942316,0.047552299685776234,0.047578499652445316,0.10074079968035221,0.098987499717623,0.7497046999633312
RSVPLG03,cs,20260501-114605,1.0.2,20251105-084826,834,Experiment,Both,1,Automatic,main,10,20260501-114720,global,local,300,S,H,E,E,S-E.png,E-H.png,sS,hH,mask-3.png,mask-1.png,s,1,0.7138453000225127,s,0,0.06741059990599751,0.04768829979002476,0.0456878999248147,0.09887500014156103,0.09959950018674135,0.30048649990931153
RSVPLG03,cs,20260501-114605,1.0.2,20251105-084826,834,Experiment,Both,1,Automatic,main,11,20260501-114724,local,global,300,H,H,A,E,A-H.png,H-E.png,hH,hH,mask-1.png,mask-4.png,s,0,0.9320527003146708,h,1,1.0601411000825465,0.04687379999086261,0.046990500297397375,0.10092079965397716,0.09979970008134842,0.30003009969368577
RSVPLG03,cs,20260501-114605,1.0.2,20251105-084826,834,Experiment,Both,1,Automatic,main,12,20260501-114729,global,global,300,S,H,A,E,S-A.png,H-E.png,sS,hH,mask-2.png,mask-3.png,s,1,0.8757142000831664,h,1,1.0840564998798072,0.04777720011770725,0.04758250014856458,0.09972590021789074,0.09961470030248165,0.300218699965626
RSVPLG03,cs,20260501-114605,1.0.2,20251105-084826,834,Experiment,Both,1,Automatic,main,13,20260501-114733,global,local,750,S,H,A,E,S-A.png,E-H.png,sS,hH,mask-2.png,mask-1.png,s,1,0.9065291997976601,s,0,0.07694579986855388,0.045488699804991484,0.047136600129306316,0.09939390001818538,0.1004135999828577,0.7479566996917129
RSVPLG03,cs,20260501-114605,1.0.2,20251105-084826,834,Experiment,Both,1,Automatic,main,14,20260501-114739,global,local,750,H,S,E,E,H-E.png,E-S.png,hH,sS,mask-4.png,mask-1.png,s,0,0.1607242999598384,h,0,0.02571520023047924,0.04785809991881251,0.04670470021665096,0.10123950010165572,0.09892610041424632,0.7502262997440994
RSVPLG03,cs,20260501-114605,1.0.2,20251105-084826,834,Experiment,Both,1,Automatic,main,15,20260501-114743,global,global,300,H,H,E,A,H-E.png,H-A.png,hH,hH,mask-4.png,mask-4.png,s,0,0.32488830015063286,h,1,0.500825600232929,0.0467295004054904,0.04885450005531311,0.10114120040088892,0.10122610023245215,0.29999580001458526
RSVPLG03,cs,20260501-114605,1.0.2,20251105-084826,834,Experiment,Both,1,Automatic,main,16,20260501-114747,global,global,750,H,H,E,E,H-E.png,H-E.png,hH,hH,mask-1.png,mask-3.png,h,1,0.5386648001149297,s,0,0.6665396997705102,0.04747879970818758,0.04769119992852211,0.09969029994681478,0.09987629996612668,0.7478863997384906
RSVPLG03,cs,20260501-114605,1.0.2,20251105-084826,834,Experiment,Both,1,Automatic,main,17,20260501-114752,global,local,300,H,S,A,A,H-A.png,A-S.png,hH,sS,mask-3.png,mask-4.png,h,1,0.2516020000912249,h,0,0.4647558997385204,0.04758250014856458,0.04852089984342456,0.10076200030744076,0.09989599976688623,0.2992605003528297
RSVPLG03,cs,20260501-114605,1.0.2,20251105-084826,834,Experiment,Both,1,Automatic,main,18,20260501-114756,global,local,750,S,H,E,E,S-E.png,E-H.png,sS,hH,mask-2.png,mask-4.png,h,0,0.08281090017408133,s,0,0.23358500003814697,0.04749999986961484,0.047496600076556206,0.10049549955874681,0.09949010005220771,0.7501160996034741
RSVPLG03,cs,20260501-114605,1.0.2,20251105-084826,834,Experiment,Both,1,Automatic,main,19,20260501-114801,global,local,300,S,H,E,A,S-E.png,A-H.png,sS,hH,mask-2.png,mask-4.png,s,1,0.40192069998010993,h,1,0.7548226001672447,0.047694699838757515,0.04672890016809106,0.09989879978820682,0.10094559984281659,0.3005408998578787
RSVPLG03,cs,20260501-114605,1.0.2,20251105-084826,834,Experiment,Both,1,Automatic,main,20,20260501-114806,global,global,300,H,S,A,E,H-A.png,S-E.png,hH,sS,mask-3.png,mask-1.png,s,0,0.6327384999021888,h,0,0.003887600265443325,0.04764819983392954,0.04867519997060299,0.0997635000385344,0.10003820015117526,0.29844339983537793
RSVPLG03,cs,20260501-114605,1.0.2,20251105-084826,834,Experiment,Both,1,Automatic,main,21,20260501-114810,local,global,750,S,S,E,E,E-S.png,S-E.png,sS,sS,mask-4.png,mask-3.png,h,0,0.8565279999747872,h,0,0.6261857999488711,0.04574260022491217,0.048611500300467014,0.09993000002577901,0.09983080020174384,0.7481328998692334
RSVPLG03,cs,20260501-114605,1.0.2,20251105-084826,834,Experiment,Both,1,Automatic,main,22,20260501-114815,local,global,750,H,S,A,A,A-H.png,S-A.png,hH,sS,mask-4.png,mask-4.png,h,1,0.17186310002580285,s,1,0.7266176999546587,0.04753390001133084,0.04752059979364276,0.10145129961892962,0.10058309976011515,0.7498996998183429
RSVPLG03,cs,20260501-114605,1.0.2,20251105-084826,834,Experiment,Both,1,Automatic,main,23,20260501-114820,local,global,300,H,S,A,E,A-H.png,S-E.png,hH,sS,mask-4.png,mask-3.png,h,1,0.6147505999542773,s,1,0.01266370015218854,0.04752659983932972,0.04633780010044575,0.10070749977603555,0.09835530025884509,0.3009163998067379
RSVPLG03,cs,20260501-114605,1.0.2,20251105-084826,834,Experiment,Both,1,Automatic,main,24,20260501-114825,local,local,300,S,H,A,A,A-S.png,A-H.png,sS,hH,mask-3.png,mask-4.png,h,0,0.7038104999810457,h,1,0.6046154000796378,0.046661300119012594,0.046857899986207485,0.09996740007773042,0.09831399982795119,0.30114750005304813
RSVPLG03,cs,20260501-114605,1.0.2,20251105-084826,834,Experiment,Both,1,Automatic,main,25,20260501-114830,local,local,750,S,S,A,A,A-S.png,A-S.png,sS,sS,mask-1.png,mask-1.png,h,0,0.8121710000559688,s,1,0.7786717000417411,0.047530800104141235,0.04751429986208677,0.10053759999573231,0.09853529976680875,0.7511351001448929
RSVPLG03,cs,20260501-114605,1.0.2,20251105-084826,834,Experiment,Both,1,Automatic,main,26,20260501-114837,local,local,750,H,H,E,A,E-H.png,A-H.png,hH,hH,mask-3.png,mask-2.png,h,1,3.5126441000029445,s,0,3.6569823999889195,0.047340200282633305,0.04734360007569194,0.10054840007796884,0.10058350022882223,0.7500092000700533
RSVPLG03,cs,20260501-114605,1.0.2,20251105-084826,834,Experiment,Both,1,Automatic,main,27,20260501-114843,local,global,300,H,S,A,E,A-H.png,S-E.png,hH,sS,mask-1.png,mask-4.png,s,0,1.522906799800694,s,1,0.5913451998494565,0.045731499791145325,0.047976600006222725,0.09999499982222915,0.10094669973477721,0.2985082999803126
RSVPLG03,cs,20260501-114605,1.0.2,20251105-084826,834,Experiment,Both,1,Automatic,main,28,20260501-114847,local,global,750,S,H,E,E,E-S.png,H-E.png,sS,hH,mask-4.png,mask-3.png,s,1,0.06959199998527765,h,1,1.3789030998013914,0.047690299805253744,0.04766630008816719,0.09971719980239868,0.09984119981527328,0.7481044000014663
RSVPLG03,cs,20260501-114605,1.0.2,20251105-084826,834,Experiment,Both,1,Automatic,main,29,20260501-114852,global,local,300,S,S,A,E,S-A.png,E-S.png,sS,sS,mask-3.png,mask-1.png,s,1,0.5143502997234464,s,1,1.0731295999139547,0.04613979998975992,0.04769499972462654,0.09927990008145571,0.09993960009887815,0.299836500082165
RSVPLG03,cs,20260501-114605,1.0.2,20251105-084826,834,Experiment,Both,1,Automatic,main,30,20260501-114857,local,global,750,H,S,E,A,E-H.png,S-A.png,hH,sS,mask-2.png,mask-3.png,s,0,0.06994599988684058,h,0,0.17035469971597195,0.04851100035011768,0.048241700045764446,0.10564219998195767,0.09978660009801388,0.7500360002741218
RSVPLG03,cs,20260501-114605,1.0.2,20251105-084826,834,Experiment,Both,1,Automatic,main,31,20260501-114913,global,global,300,S,S,E,A,S-E.png,S-A.png,sS,sS,mask-4.png,mask-2.png,s,1,11.529361200053245,s,1,0.805804300121963,0.047687199898064137,0.0487008998170495,0.0998972998932004,0.09990759985521436,0.29984259977936745
RSVPLG03,cs,20260501-114605,1.0.2,20251105-084826,834,Experiment,Both,1,Automatic,main,32,20260501-114918,global,local,750,H,H,A,A,H-A.png,A-H.png,hH,hH,mask-1.png,mask-2.png,h,1,0.11812679981812835,s,0,0.07736540026962757,0.04781140014529228,0.04753870004788041,0.10007670009508729,0.1006020000204444,0.7493106001056731
RSVPLG03,cs,20260501-114605,1.0.2,20251105-084826,834,Experiment,Both,1,Automatic,main,33,20260501-114929,local,local,300,S,S,E,A,E-S.png,A-S.png,sS,sS,mask-3.png,mask-1.png,s,1,0.02031099982559681,h,0,7.119372500106692,0.04682940011844039,0.04674889985471964,0.09903550008311868,0.1009315000846982,0.29869910003617406
RSVPLG03,cs,20260501-114605,1.0.2,20251105-084826,834,Experiment,Both,1,Automatic,main,34,20260501-114934,local,local,300,S,H,A,E,A-S.png,E-H.png,sS,hH,mask-3.png,mask-4.png,h,0,1.4116164003498852,s,0,0.7961065000854433,0.046573900151997805,0.04689350025728345,0.0996071002446115,0.09997500013560057,0.2999038998968899
RSVPLG03,cs,20260501-114605,1.0.2,20251105-084826,834,Experiment,Both,1,Automatic,main,35,20260501-114939,global,local,300,S,S,E,E,S-E.png,E-S.png,sS,sS,mask-2.png,mask-3.png,s,1,0.022147999610751867,s,1,0.5989194000139832,0.048258500173687935,0.04761740006506443,0.10219749994575977,0.10052879992872477,0.3012791001237929
RSVPLG03,cs,20260501-114605,1.0.2,20251105-084826,834,Experiment,Both,1,Automatic,main,36,20260501-114944,global,local,300,H,S,A,E,H-A.png,E-S.png,hH,sS,mask-1.png,mask-1.png,h,1,0.7786961002275348,s,1,0.03604099992662668,0.04595409985631704,0.047710100188851357,0.09863679995760322,0.10000209975987673,0.3002792000770569
RSVPLG03,cs,20260501-114605,1.0.2,20251105-084826,834,Experiment,Both,1,Automatic,main,37,20260501-114948,local,local,300,S,H,E,A,E-S.png,A-H.png,sS,hH,mask-4.png,mask-2.png,s,1,0.012029499746859074,h,1,0.13820570008829236,0.04768730001524091,0.04570859996601939,0.10192529996857047,0.09993970021605492,0.30157299991697073
RSVPLG03,cs,20260501-114605,1.0.2,20251105-084826,834,Experiment,Both,1,Automatic,main,38,20260501-114953,local,global,750,S,S,A,E,A-S.png,S-E.png,sS,sS,mask-4.png,mask-3.png,h,0,0.7957186000421643,s,1,0.5249900002963841,0.047412500251084566,0.048530000261962414,0.10029400000348687,0.10058120032772422,0.7487937998957932
RSVPLG03,cs,20260501-114605,1.0.2,20251105-084826,834,Experiment,Both,1,Automatic,main,39,20260501-114958,global,global,750,S,S,A,E,S-A.png,S-E.png,sS,sS,mask-2.png,mask-1.png,h,0,2.1731146997772157,s,1,0.010001299902796745,0.0471780002117157,0.04770050011575222,0.10013550007715821,0.09993569971993566,0.7489780001342297
RSVPLG03,cs,20260501-114605,1.0.2,20251105-084826,834,Experiment,Both,1,Automatic,main,40,20260501-115004,global,local,750,S,H,A,A,S-A.png,A-H.png,sS,hH,mask-4.png,mask-3.png,s,1,0.02409499976783991,h,1,0.7111152000725269,0.047520400024950504,0.047506299801170826,0.098596700001508,0.10050069959834218,0.7479720003902912
RSVPLG03,cs,20260501-114605,1.0.2,20251105-084826,834,Experiment,Both,1,Automatic,main,41,20260501-115009,global,global,750,S,S,A,A,S-A.png,S-A.png,sS,sS,mask-1.png,mask-3.png,s,1,0.5189408999867737,h,0,0.003967600408941507,0.047515100333839655,0.04749769996851683,0.09953430015593767,0.09944009967148304,0.7496864004060626
RSVPLG03,cs,20260501-114605,1.0.2,20251105-084826,834,Experiment,Both,1,Automatic,main,42,20260501-115015,global,local,750,S,S,A,E,S-A.png,E-S.png,sS,sS,mask-3.png,mask-3.png,s,1,1.2539527998305857,s,1,0.4038821002468467,0.04749969998374581,0.04750479990616441,0.09949469985440373,0.0993637996725738,0.7495057000778615
RSVPLG03,cs,20260501-114605,1.0.2,20251105-084826,834,Experiment,Both,1,Automatic,main,43,20260501-115020,local,global,750,S,H,A,E,A-S.png,H-E.png,sS,hH,mask-2.png,mask-3.png,s,1,0.10546159977093339,h,1,0.0252594999037683,0.04652789980173111,0.04751679999753833,0.09953239979222417,0.09952370030805469,0.7480155997909606
RSVPLG03,cs,20260501-114605,1.0.2,20251105-084826,834,Experiment,Both,1,Automatic,main,44,20260501-115025,local,local,300,H,H,A,E,A-H.png,E-H.png,hH,hH,mask-3.png,mask-3.png,s,0,1.1726619000546634,h,1,0.2025735997594893,0.046596700325608253,0.04860189976170659,0.0983853000216186,0.09955749986693263,0.29865310015156865
RSVPLG03,cs,20260501-114605,1.0.2,20251105-084826,834,Experiment,Both,1,Automatic,main,45,20260501-115030,local,global,300,S,H,A,E,A-S.png,H-E.png,sS,hH,mask-1.png,mask-1.png,s,1,0.8098150999285281,h,1,0.07641500001773238,0.04637770028784871,0.0456531997770071,0.09935300005599856,0.09969579987227917,0.2995720002800226
RSVPLG03,cs,20260501-114605,1.0.2,20251105-084826,834,Experiment,Both,1,Automatic,main,46,20260501-115035,local,global,750,H,H,A,A,A-H.png,H-A.png,hH,hH,mask-1.png,mask-2.png,s,0,0.636065199971199,h,1,0.008555199950933456,0.047571000177413225,0.047708400059491396,0.09982859995216131,0.0993349002674222,0.749966099858284
RSVPLG03,cs,20260501-114605,1.0.2,20251105-084826,834,Experiment,Both,1,Automatic,main,47,20260501-115040,local,local,300,S,H,A,E,A-S.png,E-H.png,sS,hH,mask-4.png,mask-2.png,h,0,0.6206822996027768,s,0,0.515316900331527,0.04767009988427162,0.048696199897676706,0.09986770013347268,0.09987650020048022,0.3003203999251127
RSVPLG03,cs,20260501-114605,1.0.2,20251105-084826,834,Experiment,Both,1,Automatic,main,48,20260501-115044,local,global,300,S,S,E,A,E-S.png,S-A.png,sS,sS,mask-2.png,mask-3.png,s,1,0.0068605998530983925,h,0,0.03275759983807802,0.04769450007006526,0.046706900000572205,0.10188360000029206,0.09878329979255795,0.3015383002348244
RSVPLG03,cs,20260501-114605,1.0.2,20251105-084826,834,Experiment,Both,1,Automatic,main,49,20260501-115049,global,local,300,H,H,A,E,H-A.png,E-H.png,hH,hH,mask-2.png,mask-4.png,h,1,0.568953599780798,s,0,0.7406620001420379,0.0468129999935627,0.04566620010882616,0.10105289984494448,0.09913860028609633,0.30094979982823133
RSVPLG03,cs,20260501-114605,1.0.2,20251105-084826,834,Experiment,Both,1,Automatic,main,50,20260501-115053,global,global,300,S,H,E,E,S-E.png,H-E.png,sS,hH,mask-4.png,mask-3.png,s,1,0.7934003998525441,h,1,1.1653115996159613,0.047691399697214365,0.04748809989541769,0.1008289996534586,0.09969259984791279,0.30047779995948076
RSVPLG03,cs,20260501-114605,1.0.2,20251105-084826,834,Experiment,Both,1,Automatic,main,51,20260501-115059,local,global,300,S,S,A,A,A-S.png,S-A.png,sS,sS,mask-2.png,mask-1.png,h,0,0.982804300263524,s,1,0.9574724999256432,0.048544800374656916,0.04694839986041188,0.09991750027984381,0.09861569991335273,0.3012010003440082
RSVPLG03,cs,20260501-114605,1.0.2,20251105-084826,834,Experiment,Both,1,Automatic,main,52,20260501-115104,local,global,300,H,S,E,E,E-H.png,S-E.png,hH,sS,mask-3.png,mask-3.png,h,1,0.976332999765873,s,1,1.168760399799794,0.04772419994696975,0.048719000071287155,0.09994099987670779,0.09989780001342297,0.29836650006473064
RSVPLG03,cs,20260501-114605,1.0.2,20251105-084826,834,Experiment,Both,1,Automatic,main,53,20260501-115109,local,global,750,H,H,E,E,E-H.png,H-E.png,hH,hH,mask-4.png,mask-1.png,s,0,0.7082086997106671,h,1,0.9961749999783933,0.04766599973663688,0.0465918998233974,0.09972380008548498,0.09961039992049336,0.7497748001478612
RSVPLG03,cs,20260501-114605,1.0.2,20251105-084826,834,Experiment,Both,1,Automatic,main,54,20260501-115114,local,local,750,H,S,A,E,A-H.png,E-S.png,hH,sS,mask-2.png,mask-1.png,h,1,0.7557791997678578,s,1,0.0402963999658823,0.04772600019350648,0.04652570001780987,0.0994250001385808,0.0981326000764966,0.75017170002684
RSVPLG03,cs,20260501-114605,1.0.2,20251105-084826,834,Experiment,Both,1,Automatic,main,55,20260501-115119,local,local,750,S,H,E,E,E-S.png,E-H.png,sS,hH,mask-2.png,mask-1.png,h,0,0.7483765999786556,h,1,0.2202257001772523,0.048499600030481815,0.04854659968987107,0.09989459998905659,0.09992899978533387,0.7496954002417624
RSVPLG03,cs,20260501-114605,1.0.2,20251105-084826,834,Experiment,Both,1,Automatic,main,56,20260501-115124,global,global,750,S,S,E,A,S-E.png,S-A.png,sS,sS,mask-1.png,mask-3.png,s,1,1.3008999000303447,h,0,1.5247953003272414,0.04675369989126921,0.04869090020656586,0.09998859977349639,0.0999273001216352,0.7481982996687293
RSVPLG03,cs,20260501-114605,1.0.2,20251105-084826,834,Experiment,Both,1,Automatic,main,57,20260501-115130,local,local,750,H,S,A,A,A-H.png,A-S.png,hH,sS,mask-3.png,mask-1.png,s,0,0.7593664997257292,h,0,0.9669453999958932,0.04644439974799752,0.04754470009356737,0.10011560004204512,0.09961900021880865,0.7497286996804178
RSVPLG03,cs,20260501-114605,1.0.2,20251105-084826,834,Experiment,Both,1,Automatic,main,58,20260501-115135,local,local,750,H,S,A,E,A-H.png,E-S.png,hH,sS,mask-2.png,mask-3.png,h,1,0.6037372997961938,s,1,0.02267460012808442,0.048438699916005135,0.04741750005632639,0.101322699803859,0.10100580006837845,0.7494704998098314
RSVPLG03,cs,20260501-114605,1.0.2,20251105-084826,834,Experiment,Both,1,Automatic,main,59,20260501-115140,global,global,300,S,H,E,E,S-E.png,H-E.png,sS,hH,mask-4.png,mask-2.png,h,0,0.5951429000124335,s,0,0.09310649987310171,0.04752240004017949,0.04914060002192855,0.1015266003087163,0.10154110006988049,0.299256700091064
RSVPLG03,cs,20260501-114605,1.0.2,20251105-084826,834,Experiment,Both,1,Automatic,main,60,20260501-115144,global,global,300,H,H,E,A,H-E.png,H-A.png,hH,hH,mask-4.png,mask-3.png,h,1,0.6768995998427272,s,0,0.85295689990744,0.04788899980485439,0.04542400036007166,0.09987200004979968,0.09835400013253093,0.30161739978939295
RSVPLG03,cs,20260501-114605,1.0.2,20251105-084826,834,Experiment,Both,1,Automatic,main,61,20260501-115149,local,global,300,S,S,A,E,A-S.png,S-E.png,sS,sS,mask-4.png,mask-1.png,s,1,0.5132941999472678,h,0,0.7534765996970236,0.046660799998790026,0.04851669957861304,0.09800520027056336,0.09953209990635514,0.29837270034477115
RSVPLG03,cs,20260501-114605,1.0.2,20251105-084826,834,Experiment,Both,1,Automatic,main,62,20260501-115153,global,global,750,S,S,A,E,S-A.png,S-E.png,sS,sS,mask-4.png,mask-2.png,h,0,0.2793297003954649,s,1,0.5195511002093554,0.04669479979202151,0.04772199969738722,0.09996719984337687,0.10080339992418885,0.7491337000392377
RSVPLG03,cs,20260501-114605,1.0.2,20251105-084826,834,Experiment,Both,1,Automatic,main,63,20260501-115158,local,local,300,H,S,A,E,A-H.png,E-S.png,hH,sS,mask-3.png,mask-4.png,h,1,0.691607799846679,s,1,0.8837343002669513,0.047381899785250425,0.047703399788588285,0.09970319969579577,0.09994299989193678,0.29949739994481206
RSVPLG03,cs,20260501-114605,1.0.2,20251105-084826,834,Experiment,Both,1,Automatic,main,64,20260501-115203,global,global,300,S,H,E,A,S-E.png,H-A.png,sS,hH,mask-1.png,mask-4.png,s,1,4.798503399826586,h,1,4.958677100017667,0.04670140007510781,0.04672229988500476,0.09992639999836683,0.09855169989168644,0.2995724999345839
RSVPLG03,cs,20260501-114605,1.0.2,20251105-084826,834,Experiment,Both,1,Automatic,main,65,20260501-115211,global,global,750,H,S,E,E,H-E.png,S-E.png,hH,sS,mask-1.png,mask-4.png,h,1,0.9629811998456717,s,1,0.004744499921798706,0.046637500170618296,0.048554899636656046,0.10074410028755665,0.10058890003710985,0.7482680003158748
RSVPLG03,cs,20260501-114605,1.0.2,20251105-084826,834,Experiment,Both,1,Automatic,main,66,20260501-115216,local,local,750,H,H,A,A,A-H.png,A-H.png,hH,hH,mask-4.png,mask-2.png,h,1,0.5884203999303281,h,1,0.06993399979546666,0.0456453999504447,0.04805340012535453,0.09980410011485219,0.10006750002503395,0.748123100027442
RSVPLG03,cs,20260501-114605,1.0.2,20251105-084826,834,Experiment,Both,1,Automatic,main,67,20260501-115221,global,local,300,S,S,E,E,S-E.png,E-S.png,sS,sS,mask-3.png,mask-1.png,h,0,0.9512574002146721,s,1,1.1596274999901652,0.04855680000036955,0.04740360006690025,0.10044780001044273,0.1002389001660049,0.30057840002700686
RSVPLG03,cs,20260501-114605,1.0.2,20251105-084826,834,Experiment,Both,1,Automatic,main,68,20260501-115226,local,global,750,S,H,E,A,E-S.png,H-A.png,sS,hH,mask-2.png,mask-3.png,s,1,0.44536649994552135,h,1,0.09661530004814267,0.047498099971562624,0.046521800104528666,0.10050199972465634,0.09953959984704852,0.750957999844104
RSVPLG03,cs,20260501-114605,1.0.2,20251105-084826,834,Experiment,Both,1,Automatic,main,69,20260501-115231,global,global,750,H,S,A,A,H-A.png,S-A.png,hH,sS,mask-3.png,mask-1.png,h,1,0.5614851997233927,s,1,0.012006799690425396,0.04856219980865717,0.04751160042360425,0.09983860002830625,0.09949770011007786,0.7490654997527599
RSVPLG03,cs,20260501-114605,1.0.2,20251105-084826,834,Experiment,Both,1,Automatic,main,70,20260501-115236,global,global,750,S,S,E,A,S-E.png,S-A.png,sS,sS,mask-3.png,mask-1.png,s,1,0.4239821997471154,s,1,0.08593309996649623,0.04609530000016093,0.04851500038057566,0.10019390005618334,0.10053070029243827,0.7481863996945322
RSVPLG03,cs,20260501-114605,1.0.2,20251105-084826,834,Experiment,Both,1,Automatic,main,71,20260501-115241,local,global,750,S,H,E,E,E-S.png,H-E.png,sS,hH,mask-3.png,mask-4.png,s,1,0.6675205999054015,h,1,0.05789850000292063,0.049056199844926596,0.047620799858123064,0.10008980007842183,0.0996118001639843,0.7500595999881625
RSVPLG03,cs,20260501-114605,1.0.2,20251105-084826,834,Experiment,Both,1,Automatic,main,72,20260501-115246,global,local,750,H,S,E,A,H-E.png,A-S.png,hH,sS,mask-1.png,mask-2.png,h,1,0.7646611998789012,h,0,0.09128640033304691,0.04762009996920824,0.04650849988684058,0.10066779982298613,0.09968349989503622,0.7511509000323713
RSVPLG03,cs,20260501-114605,1.0.2,20251105-084826,834,Experiment,Both,1,Automatic,main,73,20260501-115251,global,local,300,H,S,A,E,H-A.png,E-S.png,hH,sS,mask-3.png,mask-3.png,h,1,0.672822100110352,s,1,0.8970320001244545,0.04748990014195442,0.047584999818354845,0.10053630033507943,0.10063559981063008,0.2996344002895057
RSVPLG03,cs,20260501-114605,1.0.2,20251105-084826,834,Experiment,Both,1,Automatic,main,74,20260501-115255,global,global,750,H,H,A,A,H-A.png,H-A.png,hH,hH,mask-3.png,mask-2.png,h,1,0.8018276002258062,s,0,1.0098526999354362,0.046217700000852346,0.0466339997947216,0.09841169975697994,0.10115090012550354,0.7486891997978091
RSVPLG03,cs,20260501-114605,1.0.2,20251105-084826,834,Experiment,Both,1,Automatic,main,75,20260501-115300,local,local,300,S,S,A,A,A-S.png,A-S.png,sS,sS,mask-4.png,mask-1.png,s,1,0.581212299875915,s,1,0.08628920000046492,0.04755420004948974,0.04744799993932247,0.10142849991098046,0.10029219975695014,0.29986670007929206
RSVPLG03,cs,20260501-114605,1.0.2,20251105-084826,834,Experiment,Both,1,Automatic,main,76,20260501-115306,local,global,300,H,H,E,E,E-H.png,H-E.png,hH,hH,mask-4.png,mask-4.png,s,0,0.738914200104773,h,1,0.04160450026392937,0.04885819973424077,0.0475913998670876,0.10033859964460135,0.10057830018922687,0.2997694998048246
RSVPLG03,cs,20260501-114605,1.0.2,20251105-084826,834,Experiment,Both,1,Automatic,main,77,20260501-115311,local,local,750,S,H,E,A,E-S.png,A-H.png,sS,hH,mask-4.png,mask-4.png,s,1,1.0872479998506606,s,0,0.053314900025725365,0.047718700021505356,0.04769589984789491,0.10097840009257197,0.09991069976240396,0.7499597002752125
RSVPLG03,cs,20260501-114605,1.0.2,20251105-084826,834,Experiment,Both,1,Automatic,main,78,20260501-115316,global,global,300,H,H,E,A,H-E.png,H-A.png,hH,hH,mask-3.png,mask-1.png,h,1,0.45329600013792515,h,1,0.09010440018028021,0.04766879975795746,0.046777000185102224,0.0998543999157846,0.09984049992635846,0.30007269978523254
RSVPLG03,cs,20260501-114605,1.0.2,20251105-084826,834,Experiment,Both,1,Automatic,main,79,20260501-115320,global,global,300,S,S,A,E,S-A.png,S-E.png,sS,sS,mask-2.png,mask-1.png,s,1,0.43176790000870824,s,1,0.0748507003299892,0.048694100230932236,0.0476970998570323,0.09991350024938583,0.09915539994835854,0.2994846999645233
RSVPLG03,cs,20260501-114605,1.0.2,20251105-084826,834,Experiment,Both,1,Automatic,main,80,20260501-115325,global,global,300,S,H,A,A,S-A.png,H-A.png,sS,hH,mask-4.png,mask-2.png,s,1,0.747318500187248,s,0,0.7100124000571668,0.047713699750602245,0.048705500084906816,0.09999499982222915,0.09975609974935651,0.29833379993215203
RSVPLG03,cs,20260501-114605,1.0.2,20251105-084826,834,Experiment,Both,1,Automatic,main,81,20260501-115330,local,local,750,H,H,A,A,A-H.png,A-H.png,hH,hH,mask-2.png,mask-1.png,h,1,0.5657187001779675,h,1,0.0873425998724997,0.04751960001885891,0.04751470033079386,0.09953559981659055,0.09956870041787624,0.7484958996064961
RSVPLG03,cs,20260501-114605,1.0.2,20251105-084826,834,Experiment,Both,1,Automatic,main,82,20260501-115335,local,local,300,H,S,E,A,E-H.png,A-S.png,hH,sS,mask-1.png,mask-2.png,s,0,0.8247671998105943,h,0,0.3119618999771774,0.047517099883407354,0.047557500191032887,0.0985381999053061,0.0985619998537004,0.2998115997761488
RSVPLG03,cs,20260501-114605,1.0.2,20251105-084826,834,Experiment,Both,1,Automatic,main,83,20260501-115340,local,local,750,H,H,A,E,A-H.png,E-H.png,hH,hH,mask-4.png,mask-2.png,h,1,0.8343958002515137,s,0,0.09003899991512299,0.04775839997455478,0.048582599963992834,0.10038910014554858,0.10081580001860857,0.7493830998428166
RSVPLG03,cs,20260501-114605,1.0.2,20251105-084826,834,Experiment,Both,1,Automatic,main,84,20260501-115345,local,local,300,S,H,A,A,A-S.png,A-H.png,sS,hH,mask-4.png,mask-2.png,s,1,0.5666808001697063,h,1,0.8066267999820411,0.04572949977591634,0.04756380012258887,0.09965849993750453,0.10173840029165149,0.2982079996727407
RSVPLG03,cs,20260501-114605,1.0.2,20251105-084826,834,Experiment,Both,1,Automatic,main,85,20260501-115350,global,local,750,H,H,E,A,H-E.png,A-H.png,hH,hH,mask-2.png,mask-4.png,s,0,0.7777729998342693,h,1,0.028971599880605936,0.046656500082463026,0.04752889974042773,0.0993443001061678,0.10031110001727939,0.7490182002075016
RSVPLG03,cs,20260501-114605,1.0.2,20251105-084826,834,Experiment,Both,1,Automatic,main,86,20260501-115355,local,local,750,H,S,A,A,A-H.png,A-S.png,hH,sS,mask-4.png,mask-1.png,h,1,1.3603511000983417,s,1,0.02579009998589754,0.047680099960416555,0.0476931999437511,0.0998696000315249,0.09988840017467737,0.7496257000602782
RSVPLG03,cs,20260501-114605,1.0.2,20251105-084826,834,Experiment,Both,1,Automatic,main,87,20260501-115401,local,local,300,H,H,A,E,A-H.png,E-H.png,hH,hH,mask-3.png,mask-1.png,h,1,2.602113400120288,s,0,2.7943049003370106,0.04773060046136379,0.04771309997886419,0.09993760008364916,0.09983159974217415,0.29962370032444596
RSVPLG03,cs,20260501-114605,1.0.2,20251105-084826,834,Experiment,Both,1,Automatic,main,88,20260501-115407,global,local,750,H,S,E,E,H-E.png,E-S.png,hH,sS,mask-4.png,mask-2.png,s,0,0.5799648002721369,h,0,0.8040110003203154,0.0487083001062274,0.0476990002207458,0.09990910021588206,0.10026529990136623,0.7490199999883771
RSVPLG03,cs,20260501-114605,1.0.2,20251105-084826,834,Experiment,Both,1,Automatic,main,89,20260501-115412,global,local,300,H,S,E,A,H-E.png,A-S.png,hH,sS,mask-3.png,mask-4.png,h,1,0.7977470001205802,s,1,0.004715499933809042,0.049142600037157536,0.04708310030400753,0.10032280022278428,0.10083530005067587,0.29998339992016554
RSVPLG03,cs,20260501-114605,1.0.2,20251105-084826,834,Experiment,Both,1,Automatic,main,90,20260501-115417,local,local,750,H,S,A,A,A-H.png,A-S.png,hH,sS,mask-3.png,mask-3.png,h,1,0.5648214002139866,h,0,0.07587189972400665,0.04855680000036955,0.04791660001501441,0.10088039981201291,0.10041910037398338,0.7498828996904194
RSVPLG03,cs,20260501-114605,1.0.2,20251105-084826,834,Experiment,Both,1,Automatic,main,91,20260501-115422,global,local,750,S,S,A,E,S-A.png,E-S.png,sS,sS,mask-3.png,mask-4.png,s,1,1.481704100035131,h,0,1.7058951002545655,0.04653439996764064,0.04754560021683574,0.0995435998775065,0.10056510008871555,0.7490755999460816
RSVPLG03,cs,20260501-114605,1.0.2,20251105-084826,834,Experiment,Both,1,Automatic,main,92,20260501-115428,global,global,750,S,S,A,E,S-A.png,S-E.png,sS,sS,mask-1.png,mask-3.png,h,0,0.6058163000270724,s,1,0.7816004999913275,0.04665759997442365,0.04768319986760616,0.099819699767977,0.0995571999810636,0.7482334999367595
RSVPLG03,cs,20260501-114605,1.0.2,20251105-084826,834,Experiment,Both,1,Automatic,main,93,20260501-115433,local,global,750,S,S,A,A,A-S.png,S-A.png,sS,sS,mask-3.png,mask-1.png,s,1,0.6469330997206271,s,1,0.043590799905359745,0.04634669981896877,0.04852120019495487,0.09935009991750121,0.10153360012918711,0.7482567997649312
RSVPLG03,cs,20260501-114605,1.0.2,20251105-084826,834,Experiment,Both,1,Automatic,main,94,20260501-115438,local,global,300,S,S,A,A,A-S.png,S-A.png,sS,sS,mask-4.png,mask-2.png,h,0,0.7137043001130223,s,1,0.82577949995175,0.04753529978916049,0.046771000139415264,0.09953839983791113,0.09986459976062179,0.2998021999374032
RSVPLG03,cs,20260501-114605,1.0.2,20251105-084826,834,Experiment,Both,1,Automatic,main,95,20260501-115442,global,local,750,S,S,E,A,S-E.png,A-S.png,sS,sS,mask-2.png,mask-4.png,s,1,0.30235290015116334,s,1,0.0966464001685381,0.04859929997473955,0.04741910006850958,0.10061470000073314,0.09985340014100075,0.7493031998164952
RSVPLG03,cs,20260501-114605,1.0.2,20251105-084826,834,Experiment,Both,1,Automatic,main,96,20260501-115447,global,global,750,S,H,E,E,S-E.png,H-E.png,sS,hH,mask-1.png,mask-2.png,h,0,1.9324711002409458,h,1,0.09144459990784526,0.04721499979496002,0.047695400193333626,0.09947549970820546,0.09991380013525486,0.7493563997559249
RSVPLG03,cs,20260501-114605,1.0.2,20251105-084826,834,Experiment,Both,1,Automatic,main,97,20260501-115453,local,global,750,S,S,A,E,A-S.png,S-E.png,sS,sS,mask-1.png,mask-3.png,h,0,0.6847025998868048,s,1,0.8447972997091711,0.04872409999370575,0.04749409994110465,0.10094689996913075,0.09880070015788078,0.7508588000200689
RSVPLG03,cs,20260501-114605,1.0.2,20251105-084826,834,Experiment,Both,1,Automatic,main,98,20260501-115458,local,global,300,S,H,E,A,E-S.png,H-A.png,sS,hH,mask-3.png,mask-1.png,s,1,0.04055249970406294,s,0,0.1084698997437954,0.04867650009691715,0.04686969984322786,0.09990950021892786,0.0984668000601232,0.30080700013786554
RSVPLG03,cs,20260501-114605,1.0.2,20251105-084826,834,Experiment,Both,1,Automatic,main,99,20260501-115501,global,local,750,H,S,A,A,H-A.png,A-S.png,hH,sS,mask-2.png,mask-3.png,h,1,0.44406209979206324,h,0,0.11323529994115233,0.0478082001209259,0.04567959997802973,0.10002919984981418,0.0998984002508223,0.74987079994753
RSVPLG03,cs,20260501-114605,1.0.2,20251105-084826,834,Experiment,Both,1,Automatic,main,100,20260501-115506,local,local,300,S,H,E,E,E-S.png,E-H.png,sS,hH,mask-3.png,mask-3.png,s,1,0.5421144999563694,h,1,0.7182138999924064,0.04769500019028783,0.04787639994174242,0.09981200005859137,0.10108589986339211,0.29943040013313293
