exp,exp_initials,runtime,ver,modtime,sub,blocktype,targets,cuetype,mode,trialtype,trial,trialtime,t1_level,t2_level,t2_lag,t1,t2,distractor1,distractor2,stimfile1,stimfile2,t1_corr,t2_corr,maskfile1,maskfile2,t1_resp,t1_acc,t1_rt,t2_resp,t2_acc,t2_rt,t1_dur,t2_dur,t1mask_soa,t2mask_soa,t1t2_soa
RSVPLG03,km,20260305-151251,1.0.2,20251113-095759,788,Introduction,T1,1,Automatic,main,1,20260305-151342,local,local,750,S,S,A,E,A-S.png,E-S.png,sS,sS,mask-2.png,mask-2.png,s,1,1.5668002000020351,none,-5,0,0.09640390001004562,0.09911459998693317,0.1960988999926485,0.200630999985151,0.7466557000007015
RSVPLG03,km,20260305-151251,1.0.2,20251113-095759,788,Introduction,T1,1,Automatic,main,2,20260305-151348,global,local,750,S,H,E,E,S-E.png,E-H.png,sS,hH,mask-3.png,mask-2.png,s,1,1.3891031999955885,none,-5,0,0.10055679999641143,0.09891780000180006,0.20058489998336881,0.19990690000122413,0.7520277999865357
RSVPLG03,km,20260305-151251,1.0.2,20251113-095759,788,Introduction,T1,1,Automatic,main,3,20260305-151354,global,global,750,S,S,A,E,S-A.png,S-E.png,sS,sS,mask-3.png,mask-2.png,s,1,0.9574662999948487,none,-5,0,0.09877829998731613,0.10047570001916029,0.19790519998059608,0.2019006000191439,0.747504899976775
RSVPLG03,km,20260305-151251,1.0.2,20251113-095759,788,Introduction,T1,1,Automatic,main,4,20260305-151359,global,global,750,H,S,E,E,H-E.png,S-E.png,hH,sS,mask-4.png,mask-3.png,h,1,1.9436464000027627,none,-5,0,0.09823239999241196,0.10025160000077449,0.19972939998842776,0.2007275999931153,0.7496842000109609
RSVPLG03,km,20260305-151251,1.0.2,20251113-095759,788,Introduction,T1,1,Automatic,main,5,20260305-151405,local,local,750,H,S,A,E,A-H.png,E-S.png,hH,sS,mask-3.png,mask-1.png,s,0,0.8557647000125144,none,-5,0,0.09978200000477955,0.09953590002260171,0.20033049999619834,0.19985010000527836,0.7508215999987442
RSVPLG03,km,20260305-151251,1.0.2,20251113-095759,788,Introduction,T1,1,Automatic,main,6,20260305-151410,local,local,750,S,S,A,A,A-S.png,A-S.png,sS,sS,mask-2.png,mask-2.png,s,1,1.7552189000125509,none,-5,0,0.09794579999288544,0.10039450001204386,0.19822749999002554,0.2017119000083767,0.7485650999878999
RSVPLG03,km,20260305-151251,1.0.2,20251113-095759,788,Introduction,T1,1,Automatic,main,7,20260305-151416,local,global,750,S,H,E,E,E-S.png,H-E.png,sS,hH,mask-2.png,mask-3.png,s,1,1.4694213999900967,none,-5,0,0.09940609999466687,0.09927499998593703,0.20046259998343885,0.20025940000778064,0.7492469999997411
RSVPLG03,km,20260305-151251,1.0.2,20251113-095759,788,Introduction,T1,1,Automatic,main,8,20260305-151421,global,local,750,S,H,A,A,S-A.png,A-H.png,sS,hH,mask-1.png,mask-4.png,s,1,0.8199303000001237,none,-5,0,0.09845779999159276,0.10050890001002699,0.19998110001324676,0.2011779000167735,0.748993099987274
RSVPLG03,km,20260305-151251,1.0.2,20251113-095759,788,Introduction,T1,1,Automatic,main,9,20260305-151426,global,local,750,H,H,A,E,H-A.png,E-H.png,hH,hH,mask-4.png,mask-3.png,h,1,0.8733880000072531,none,-5,0,0.10128259999328293,0.09930390000226907,0.20120779998251237,0.1995697999955155,0.7511214999831282
RSVPLG03,km,20260305-151251,1.0.2,20251113-095759,788,Introduction,T1,1,Automatic,main,10,20260305-151431,local,global,750,S,H,A,A,A-S.png,H-A.png,sS,hH,mask-2.png,mask-4.png,h,0,2.09037079999689,none,-5,0,0.10054720001062378,0.09965240000747144,0.19915480000781827,0.19930850001401268,0.7509178000036627
RSVPLG03,km,20260305-151251,1.0.2,20251113-095759,788,Introduction,T1,1,Automatic,main,11,20260305-151438,global,global,750,H,S,A,E,H-A.png,S-E.png,hH,sS,mask-1.png,mask-4.png,none,-6,0,none,-5,0,0.09914310000021942,0.10105869997642003,0.19922609999775887,0.20108759999857284,0.7497666999988724
RSVPLG03,km,20260305-151451,1.0.2,20251113-095759,788,Practice,T1,1,Automatic,main,1,20260305-151514,global,global,300,H,S,E,A,H-E.png,S-A.png,hH,sS,mask-2.png,mask-1.png,h,1,1.5348813000018708,none,-5,0,0.04846900000120513,0.04974879999645054,0.09778640000149608,0.09974229999352247,0.29827330002444796
RSVPLG03,km,20260305-151451,1.0.2,20251113-095759,788,Practice,T1,1,Automatic,main,2,20260305-151519,global,global,750,S,H,A,A,S-A.png,H-A.png,sS,hH,mask-4.png,mask-2.png,s,1,0.7033449000155088,none,-5,0,0.04959549999330193,0.05080729999463074,0.10160819999873638,0.10044249999918975,0.7502644999767654
RSVPLG03,km,20260305-151451,1.0.2,20251113-095759,788,Practice,T1,1,Automatic,main,3,20260305-151524,local,local,300,H,H,A,A,A-H.png,A-H.png,hH,hH,mask-2.png,mask-2.png,h,1,0.709235099988291,none,-5,0,0.04955240001436323,0.05098900001030415,0.10009130000253208,0.10050609998870641,0.29879910001182
RSVPLG03,km,20260305-151451,1.0.2,20251113-095759,788,Practice,T1,1,Automatic,main,4,20260305-151528,global,local,750,S,H,E,E,S-E.png,E-H.png,sS,hH,mask-3.png,mask-4.png,s,1,0.8805640000209678,none,-5,0,0.048204899998381734,0.04843530000653118,0.09893939999165013,0.09792969998670742,0.7499042999988887
RSVPLG03,km,20260305-151451,1.0.2,20251113-095759,788,Practice,T1,1,Automatic,main,5,20260305-151533,local,global,750,S,S,A,E,A-S.png,S-E.png,sS,sS,mask-3.png,mask-3.png,s,1,0.8229719999944791,none,-5,0,0.05118019998189993,0.0502097999851685,0.1003451999858953,0.09993860000395216,0.7501014999870677
RSVPLG03,km,20260305-151451,1.0.2,20251113-095759,788,Practice,T1,1,Automatic,main,6,20260305-151538,global,global,300,S,S,A,E,S-A.png,S-E.png,sS,sS,mask-4.png,mask-2.png,s,1,0.7685563999984879,none,-5,0,0.049814999976661056,0.04987359998631291,0.09893569999258034,0.10125099998549558,0.29919789999257773
RSVPLG03,km,20260305-151451,1.0.2,20251113-095759,788,Practice,T1,1,Automatic,main,7,20260305-151542,global,local,300,S,H,E,A,S-E.png,A-H.png,sS,hH,mask-4.png,mask-3.png,s,1,0.8211207999847829,none,-5,0,0.049064200022257864,0.050166400003945455,0.09991690001334064,0.09943689999636263,0.2993715000047814
RSVPLG03,km,20260305-151451,1.0.2,20251113-095759,788,Practice,T1,1,Automatic,main,8,20260305-151546,local,global,300,S,S,E,A,E-S.png,S-A.png,sS,sS,mask-2.png,mask-3.png,s,1,0.6668123999843374,none,-5,0,0.05005439999513328,0.048456600023200735,0.10029559998656623,0.09834980001323856,0.3015459999733139
RSVPLG03,km,20260305-151451,1.0.2,20251113-095759,788,Practice,T1,1,Automatic,main,9,20260305-151550,local,local,300,S,S,A,A,A-S.png,A-S.png,sS,sS,mask-1.png,mask-4.png,s,1,0.7388713999825995,none,-5,0,0.04990230000112206,0.05083970000850968,0.09993019999819808,0.09972890000790358,0.3004543000133708
RSVPLG03,km,20260305-151451,1.0.2,20251113-095759,788,Practice,T1,1,Automatic,main,10,20260305-151555,local,local,750,S,H,A,A,A-S.png,A-H.png,sS,hH,mask-2.png,mask-1.png,s,1,0.6347458000236657,none,-5,0,0.0490587999811396,0.049505800008773804,0.09952699998393655,0.09891860000789165,0.7503303999837954
RSVPLG03,km,20260305-151451,1.0.2,20251113-095759,788,Practice,T1,1,Automatic,main,11,20260305-151559,global,local,300,H,H,E,E,H-E.png,E-H.png,hH,hH,mask-2.png,mask-4.png,h,1,0.5882708999852184,none,-5,0,0.048487599997315556,0.04972379998071119,0.09919690000242554,0.09768639999674633,0.2999650000128895
RSVPLG03,km,20260305-151451,1.0.2,20251113-095759,788,Practice,T1,1,Automatic,main,12,20260305-151603,local,global,750,S,S,E,E,E-S.png,S-E.png,sS,sS,mask-1.png,mask-4.png,s,1,0.5828014000144321,none,-5,0,0.04983829997945577,0.051302899984875694,0.10141309999744408,0.10123509998084046,0.7484062000003178
RSVPLG03,km,20260305-151451,1.0.2,20251113-095759,788,Practice,T1,1,Automatic,main,13,20260305-151608,local,local,750,H,S,A,E,A-H.png,E-S.png,hH,sS,mask-3.png,mask-2.png,h,1,0.6440763999999035,none,-5,0,0.049579699989408255,0.0473092999891378,0.09998230001656339,0.09922309999819845,0.7509951000101864
RSVPLG03,km,20260305-151451,1.0.2,20251113-095759,788,Practice,T1,1,Automatic,main,14,20260305-151613,local,global,300,S,S,E,A,E-S.png,S-A.png,sS,sS,mask-1.png,mask-2.png,s,1,0.880467300012242,none,-5,0,0.049911399983102456,0.04818899999372661,0.10066719999304041,0.09843230000115,0.3001959999965038
RSVPLG03,km,20260305-151451,1.0.2,20251113-095759,788,Practice,T1,1,Automatic,main,15,20260305-151617,global,local,750,H,H,A,E,H-A.png,E-H.png,hH,hH,mask-2.png,mask-3.png,h,1,1.1698426000075415,none,-5,0,0.048507100000279024,0.05145949998404831,0.09909429997787811,0.0995544999896083,0.7486888999992516
RSVPLG03,km,20260305-151451,1.0.2,20251113-095759,788,Practice,T1,1,Automatic,main,16,20260305-151622,global,global,750,S,S,A,E,S-A.png,S-E.png,sS,sS,mask-1.png,mask-3.png,h,0,0.9788380000100005,none,-5,0,0.049139799986733124,0.050215299997944385,0.09962540000560693,0.10095439999713562,0.7492203000001609
RSVPLG03,km,20260305-151702,1.0.2,20251113-095759,788,Introduction,Both,1,Automatic,main,1,20260305-151726,local,local,750,S,S,E,A,E-S.png,A-S.png,sS,sS,mask-1.png,mask-2.png,s,1,0.6796823999902699,h,0,2.610872899997048,0.09511350002139807,0.09873740002512932,0.19548500000382774,0.1990714000130538,0.7473589000001084
RSVPLG03,km,20260305-151702,1.0.2,20251113-095759,788,Introduction,Both,1,Automatic,main,2,20260305-151734,global,global,750,H,S,E,E,H-E.png,S-E.png,hH,sS,mask-1.png,mask-1.png,h,1,3.3747722000116482,s,1,2.4156064999988303,0.10092689999146387,0.10072319998289458,0.20056019999901764,0.19961899999179877,0.750237800006289
RSVPLG03,km,20260305-151702,1.0.2,20251113-095759,788,Introduction,Both,1,Automatic,main,3,20260305-151744,local,global,750,S,H,A,E,A-S.png,H-E.png,sS,hH,mask-2.png,mask-2.png,s,1,2.7183447999996133,h,1,1.4569782000035048,0.09911020001163706,0.09992390000843443,0.19987000001128763,0.19825390001642518,0.7518359000096098
RSVPLG03,km,20260305-151702,1.0.2,20251113-095759,788,Introduction,Both,1,Automatic,main,4,20260305-151752,global,global,750,S,S,A,A,S-A.png,S-A.png,sS,sS,mask-4.png,mask-2.png,s,1,3.714003400004003,h,0,1.4865453999955207,0.10104370000772178,0.10130989999743178,0.20036670000990853,0.20150039999862202,0.7512748999870382
RSVPLG03,km,20260305-151702,1.0.2,20251113-095759,788,Introduction,Both,1,Automatic,main,5,20260305-151802,local,local,750,S,H,A,E,A-S.png,E-H.png,sS,hH,mask-4.png,mask-2.png,s,1,2.260844900010852,h,1,0.7033270999963861,0.09915920000639744,0.0999424000037834,0.19987950002541766,0.2003199000027962,0.7504289000062272
RSVPLG03,km,20260305-151702,1.0.2,20251113-095759,788,Introduction,Both,1,Automatic,main,6,20260305-151809,global,local,750,H,H,E,A,H-E.png,A-H.png,hH,hH,mask-1.png,mask-1.png,h,1,1.1134195000049658,h,1,0.7028050000080839,0.10070409998297691,0.10034609999274835,0.1997063999879174,0.20056110000587068,0.7495869999984279
RSVPLG03,km,20260305-151702,1.0.2,20251113-095759,788,Introduction,Both,1,Automatic,main,7,20260305-151815,local,local,750,H,H,E,E,E-H.png,E-H.png,hH,hH,mask-4.png,mask-3.png,h,1,1.018349300022237,h,1,0.8174607999972068,0.09880779997911304,0.10117340000579134,0.199999399977969,0.20006080000894144,0.7496579999860842
RSVPLG03,km,20260305-151702,1.0.2,20251113-095759,788,Introduction,Both,1,Automatic,main,8,20260305-151821,global,global,750,H,H,E,A,H-E.png,H-A.png,hH,hH,mask-4.png,mask-3.png,h,1,2.48927079999703,h,1,1.4399388000019826,0.09981980000156909,0.10136210001655854,0.2004810000071302,0.20118609999190085,0.7513412999978755
RSVPLG03,km,20260305-151702,1.0.2,20251113-095759,788,Introduction,Both,1,Automatic,main,9,20260305-151829,global,global,750,S,H,A,A,S-A.png,H-A.png,sS,hH,mask-1.png,mask-2.png,s,1,1.878103099996224,s,0,1.0722750999848358,0.10110870000789873,0.09977390000130981,0.20051240001339465,0.2001829000073485,0.7511426999990363
RSVPLG03,km,20260305-151702,1.0.2,20251113-095759,788,Introduction,Both,1,Automatic,main,10,20260305-151837,global,local,750,S,H,E,E,S-E.png,E-H.png,sS,hH,mask-3.png,mask-2.png,s,1,0.8923968999879435,h,1,0.5277529000013601,0.10070159999304451,0.10098859999561682,0.2004148999985773,0.2001927999954205,0.7500198000052478
RSVPLG03,km,20260305-151702,1.0.2,20251113-095759,788,Introduction,Both,1,Automatic,main,11,20260305-151842,global,local,750,S,S,E,A,S-E.png,A-S.png,sS,sS,mask-3.png,mask-4.png,s,1,2.0510976999939885,s,1,1.5861089999962132,0.09950519999256358,0.10050649999175221,0.20102390000829473,0.2042242999887094,0.7497895999986213
RSVPLG03,km,20260305-151702,1.0.2,20251113-095759,788,Introduction,Both,1,Automatic,main,12,20260305-151850,global,local,750,H,H,A,A,H-A.png,A-H.png,hH,hH,mask-3.png,mask-1.png,s,0,2.9917593999998644,h,1,0.22335230000317097,0.09907200001180172,0.10145049999118783,0.20083000001613982,0.20022600001539104,0.750152499997057
RSVPLG03,km,20260305-151702,1.0.2,20251113-095759,788,Introduction,Both,1,Automatic,main,13,20260305-151858,local,local,750,S,H,A,E,A-S.png,E-H.png,sS,hH,mask-2.png,mask-3.png,s,1,1.5196303999982774,h,1,0.4820023000065703,0.09917890001088381,0.10091629999806173,0.19898499999544583,0.1999155000085011,0.7508219000010286
RSVPLG03,km,20260305-151702,1.0.2,20251113-095759,788,Introduction,Both,1,Automatic,main,14,20260305-151904,local,global,750,H,S,E,E,E-H.png,S-E.png,hH,sS,mask-2.png,mask-3.png,h,1,1.1618534000008367,s,1,0.496443799987901,0.09876409999560565,0.09879580000415444,0.20072170000639744,0.20030160000897013,0.7504720999859273
RSVPLG03,km,20260305-151702,1.0.2,20251113-095759,788,Introduction,Both,1,Automatic,main,15,20260305-151910,local,global,750,S,S,A,E,A-S.png,S-E.png,sS,sS,mask-4.png,mask-3.png,s,1,1.3861684000003152,h,0,0.5234095999912824,0.10075620000134222,0.09973950000130571,0.20024850001209415,0.19948660000227392,0.7520346000092104
RSVPLG03,km,20260305-151702,1.0.2,20251113-095759,788,Introduction,Both,1,Automatic,main,16,20260305-151916,local,global,750,S,S,E,E,E-S.png,S-E.png,sS,sS,mask-3.png,mask-3.png,s,1,1.1135361999913584,s,1,0.6100948000093922,0.10103569997590967,0.10098039999138564,0.20011219999287277,0.20175780000863597,0.7513445999938995
RSVPLG03,km,20260305-152011,1.0.2,20251113-095759,788,Practice,Both,1,Automatic,main,1,20260305-152034,global,local,750,S,H,E,E,S-E.png,E-H.png,sS,hH,mask-4.png,mask-1.png,s,1,1.47261980001349,h,1,0.6068524000002071,0.0414978000044357,0.05007540000951849,0.09244400000898167,0.10193930001696572,0.7448427999916021
RSVPLG03,km,20260305-152011,1.0.2,20251113-095759,788,Practice,Both,1,Automatic,main,2,20260305-152041,global,local,300,H,S,A,E,H-A.png,E-S.png,hH,sS,mask-3.png,mask-1.png,h,1,0.8557960000180174,s,1,0.7064397999783978,0.04622570000356063,0.04952540001249872,0.09711870001046918,0.10084320002351888,0.29750409998814575
RSVPLG03,km,20260305-152011,1.0.2,20251113-095759,788,Practice,Both,1,Automatic,main,3,20260305-152046,local,global,300,H,H,E,A,E-H.png,H-A.png,hH,hH,mask-3.png,mask-2.png,h,1,1.616818400012562,h,1,0.9919599000131711,0.05058809998445213,0.05195890000322834,0.10168120000162162,0.10135949999676086,0.3008603999915067
RSVPLG03,km,20260305-152011,1.0.2,20251113-095759,788,Practice,Both,1,Automatic,main,4,20260305-152052,global,global,750,H,S,E,E,H-E.png,S-E.png,hH,sS,mask-1.png,mask-2.png,h,1,1.014234200003557,s,1,0.6255139999848325,0.05047980000381358,0.048924800008535385,0.10058369999751449,0.09920240001520142,0.7515244999958668
RSVPLG03,km,20260305-152011,1.0.2,20251113-095759,788,Practice,Both,1,Automatic,main,5,20260305-152058,local,global,750,S,S,E,E,E-S.png,S-E.png,sS,sS,mask-3.png,mask-3.png,s,1,1.2210383999918122,h,0,0.448312900000019,0.050061100017046556,0.05114460000186227,0.10083660000236705,0.10220560000743717,0.7513359000149649
RSVPLG03,km,20260305-152011,1.0.2,20251113-095759,788,Practice,Both,1,Automatic,main,6,20260305-152104,global,global,300,S,H,E,E,S-E.png,H-E.png,sS,hH,mask-1.png,mask-4.png,s,1,0.9404179000121076,h,1,0.5113588999956846,0.04880849999608472,0.05011430001468398,0.09981660000630654,0.1000736000132747,0.3002570999960881
RSVPLG03,km,20260305-152011,1.0.2,20251113-095759,788,Practice,Both,1,Automatic,main,7,20260305-152109,global,global,300,H,H,A,E,H-A.png,H-E.png,hH,hH,mask-1.png,mask-1.png,s,0,1.2514535000082105,h,1,0.8954004000115674,0.050785900006303564,0.05141019998700358,0.10127610000199638,0.1010447999869939,0.3006267000164371
RSVPLG03,km,20260305-152011,1.0.2,20251113-095759,788,Practice,Both,1,Automatic,main,8,20260305-152115,local,local,750,S,S,E,E,E-S.png,E-S.png,sS,sS,mask-1.png,mask-3.png,s,1,0.7496528999763541,s,1,0.5423293999920134,0.050562099990202114,0.05045780001091771,0.10059690001071431,0.10016570001607761,0.7523500999959651
RSVPLG03,km,20260305-152011,1.0.2,20251113-095759,788,Practice,Both,1,Automatic,main,9,20260305-152120,global,local,300,S,H,A,A,S-A.png,A-H.png,sS,hH,mask-3.png,mask-3.png,s,1,1.2901870999776293,h,1,0.5435106999939308,0.04920979999587871,0.05002179997973144,0.10016249999171123,0.10024219998740591,0.30022120001376607
RSVPLG03,km,20260305-152011,1.0.2,20251113-095759,788,Practice,Both,1,Automatic,main,10,20260305-152125,local,local,300,S,H,A,E,A-S.png,E-H.png,sS,hH,mask-2.png,mask-2.png,h,0,1.3345998000004329,s,0,0.4986427999974694,0.04937630001222715,0.049265299981925637,0.0996445000055246,0.09961059998022392,0.30118570002377965
RSVPLG03,km,20260305-152011,1.0.2,20251113-095759,788,Practice,Both,1,Automatic,main,11,20260305-152131,global,local,750,H,H,E,A,H-E.png,A-H.png,hH,hH,mask-4.png,mask-2.png,h,1,1.0854682000062894,s,0,0.4499701000167988,0.05013309998321347,0.05019940002239309,0.10023569999611937,0.10094820000813343,0.7516673999780323
RSVPLG03,km,20260305-152011,1.0.2,20251113-095759,788,Practice,Both,1,Automatic,main,12,20260305-152137,local,global,750,S,H,E,A,E-S.png,H-A.png,sS,hH,mask-2.png,mask-3.png,s,1,1.5590339000045788,h,1,0.44958869999391027,0.05001289999927394,0.04910350000136532,0.10010020001209341,0.10033059999113902,0.7522020000033081
RSVPLG03,km,20260305-152011,1.0.2,20251113-095759,788,Practice,Both,1,Automatic,main,13,20260305-152143,local,local,750,H,S,E,E,E-H.png,E-S.png,hH,sS,mask-1.png,mask-2.png,h,1,0.7264292999752797,s,1,0.43156810000073165,0.04881880001630634,0.04973349999636412,0.09892820002278313,0.09955009998520836,0.7510924000234809
RSVPLG03,km,20260305-152011,1.0.2,20251113-095759,788,Practice,Both,1,Automatic,main,14,20260305-152148,local,local,300,S,H,E,E,E-S.png,E-H.png,sS,hH,mask-4.png,mask-1.png,s,1,0.7813088000111748,h,1,0.4649259000143502,0.05004900001222268,0.050598900008480996,0.10072099999524653,0.1007093999942299,0.3013881999941077
RSVPLG03,km,20260305-152011,1.0.2,20251113-095759,788,Practice,Both,1,Automatic,main,15,20260305-152153,local,global,300,S,S,E,A,E-S.png,S-A.png,sS,sS,mask-1.png,mask-1.png,s,1,1.8171752000052948,s,1,0.7693292000039946,0.05042909999610856,0.05090920001384802,0.10052609999547713,0.0994150000042282,0.3014054999803193
RSVPLG03,km,20260305-152011,1.0.2,20251113-095759,788,Practice,Both,1,Automatic,main,16,20260305-152159,global,global,750,S,S,A,A,S-A.png,S-A.png,sS,sS,mask-2.png,mask-4.png,h,0,1.3672819999919739,h,0,0.5921378000057302,0.05056459998013452,0.05034740001428872,0.10031849998631515,0.1000699000142049,0.7541877999901772
RSVPLG03,km,20260305-152307,1.0.2,20251113-095759,788,Experiment,Both,1,Automatic,warmup,1,20260305-152328,local,local,750,H,S,E,A,E-H.png,A-S.png,hH,sS,mask-4.png,mask-2.png,h,1,0.924435299995821,s,1,0.5761203999863937,0.048272800020640716,0.049835899990284815,0.0983336000062991,0.10045329999411479,0.7497530000109691
RSVPLG03,km,20260305-152307,1.0.2,20251113-095759,788,Experiment,Both,1,Automatic,warmup,2,20260305-152334,local,local,300,S,S,E,E,E-S.png,E-S.png,sS,sS,mask-3.png,mask-2.png,s,1,0.8010239999857731,h,0,0.43485960000543855,0.052957700012484565,0.04843100000289269,0.0994897999917157,0.10026959999231622,0.3018018000002485
RSVPLG03,km,20260305-152307,1.0.2,20251113-095759,788,Experiment,Both,1,Automatic,warmup,3,20260305-152339,local,global,300,H,H,A,E,A-H.png,H-E.png,hH,hH,mask-1.png,mask-4.png,h,1,0.8937267999863252,h,1,0.49594630001229234,0.0507008999993559,0.051164999982574955,0.10105689999181777,0.10047749997465871,0.2998698000155855
RSVPLG03,km,20260305-152307,1.0.2,20251113-095759,788,Experiment,Both,1,Automatic,warmup,4,20260305-152344,global,local,300,H,S,E,A,H-E.png,A-S.png,hH,sS,mask-3.png,mask-3.png,h,1,0.735650100017665,s,1,0.4640380000055302,0.04992520000087097,0.04902159998891875,0.10152019999804907,0.09967840000172146,0.2998117000097409
RSVPLG03,km,20260305-152307,1.0.2,20251113-095759,788,Experiment,Both,1,Automatic,main,5,20260305-152349,global,global,750,S,H,A,E,S-A.png,H-E.png,sS,hH,mask-1.png,mask-3.png,s,1,0.6204645000107121,h,1,0.3831988000019919,0.04995359998429194,0.04850309999892488,0.10106099999393336,0.09809529999620281,0.7522009999956936
RSVPLG03,km,20260305-152307,1.0.2,20251113-095759,788,Experiment,Both,1,Automatic,main,6,20260305-152354,local,global,300,S,S,E,E,E-S.png,S-E.png,sS,sS,mask-1.png,mask-1.png,s,1,1.3532050999929197,h,0,0.4962424999976065,0.05041789999813773,0.052154600009089336,0.10071550001157448,0.10119549999944866,0.29928669999935664
RSVPLG03,km,20260305-152307,1.0.2,20251113-095759,788,Experiment,Both,1,Automatic,main,7,20260305-152359,local,global,750,H,H,E,A,E-H.png,H-A.png,hH,hH,mask-1.png,mask-2.png,h,1,0.763833800010616,s,0,0.4504980999918189,0.0496487999917008,0.05148379999445751,0.09991009999066591,0.09997310000471771,0.7505654999986291
RSVPLG03,km,20260305-152307,1.0.2,20251113-095759,788,Experiment,Both,1,Automatic,main,8,20260305-152405,local,local,300,S,S,A,E,A-S.png,E-S.png,sS,sS,mask-1.png,mask-3.png,s,1,1.2462132000073325,h,0,0.48835020000115037,0.04990510002244264,0.05009880001307465,0.09891000000061467,0.10029860000940971,0.3004654000105802
RSVPLG03,km,20260305-152307,1.0.2,20251113-095759,788,Experiment,Both,1,Automatic,main,9,20260305-152410,local,local,300,S,H,E,E,E-S.png,E-H.png,sS,hH,mask-1.png,mask-2.png,s,1,0.6271191000123508,h,1,0.44768509999266826,0.049791400000685826,0.04933029998210259,0.10095359999104403,0.09952930000144988,0.30138479999732226
RSVPLG03,km,20260305-152307,1.0.2,20251113-095759,788,Experiment,Both,1,Automatic,main,10,20260305-152415,global,global,750,S,H,A,A,S-A.png,H-A.png,sS,hH,mask-3.png,mask-3.png,s,1,0.9087671999877784,h,1,0.3539812999952119,0.049655299982987344,0.04918600001838058,0.10013489998527803,0.09929740001098253,0.7521108999790158
RSVPLG03,km,20260305-152307,1.0.2,20251113-095759,788,Experiment,Both,1,Automatic,main,11,20260305-152420,local,local,750,S,S,A,A,A-S.png,A-S.png,sS,sS,mask-2.png,mask-4.png,s,1,0.621810100012226,s,1,0.2900904999987688,0.04874749999726191,0.05052279998199083,0.09883490001084283,0.0998587999783922,0.7502998000127263
RSVPLG03,km,20260305-152307,1.0.2,20251113-095759,788,Experiment,Both,1,Automatic,main,12,20260305-152425,global,global,300,S,H,E,E,S-E.png,H-E.png,sS,hH,mask-2.png,mask-2.png,s,1,0.681927400000859,h,1,0.383685200009495,0.04983479998190887,0.0488918999908492,0.10046099999453872,0.10016739999991842,0.30158179998397827
RSVPLG03,km,20260305-152307,1.0.2,20251113-095759,788,Experiment,Both,1,Automatic,main,13,20260305-152430,global,global,750,S,S,A,E,S-A.png,S-E.png,sS,sS,mask-4.png,mask-2.png,s,1,0.5640895999968052,s,1,0.3386991000152193,0.048520099982852116,0.04882590001216158,0.09858319998602383,0.09898949999478646,0.7509153999853879
RSVPLG03,km,20260305-152307,1.0.2,20251113-095759,788,Experiment,Both,1,Automatic,main,14,20260305-152435,global,local,300,S,H,A,A,S-A.png,A-H.png,sS,hH,mask-3.png,mask-1.png,s,1,0.7482987999974284,h,1,0.49766039999667555,0.051882200001273304,0.050090900011127815,0.09899170001153834,0.10211860001436435,0.29869379999581724
RSVPLG03,km,20260305-152307,1.0.2,20251113-095759,788,Experiment,Both,1,Automatic,main,15,20260305-152440,local,global,750,S,H,A,A,A-S.png,H-A.png,sS,hH,mask-2.png,mask-3.png,s,1,1.4699320000072476,s,0,1.6290551999991294,0.05108619999373332,0.050222699996083975,0.10168749999138527,0.09996710001723841,0.7516961999936029
RSVPLG03,km,20260305-152307,1.0.2,20251113-095759,788,Experiment,Both,1,Automatic,main,16,20260305-152447,local,local,750,S,S,E,A,E-S.png,A-S.png,sS,sS,mask-4.png,mask-2.png,s,1,0.6042174999893177,s,1,0.3855964000103995,0.049475900013931096,0.04930919999605976,0.09843080001883209,0.10036770001170225,0.749500200006878
RSVPLG03,km,20260305-152307,1.0.2,20251113-095759,788,Experiment,Both,1,Automatic,main,17,20260305-152452,local,global,300,H,S,E,A,E-H.png,S-A.png,hH,sS,mask-1.png,mask-4.png,h,1,0.8273977000208106,s,1,0.5677855999965686,0.05094519999693148,0.05163410000386648,0.10118230001535267,0.100247299997136,0.3019786000077147
RSVPLG03,km,20260305-152307,1.0.2,20251113-095759,788,Experiment,Both,1,Automatic,main,18,20260305-152457,local,local,750,H,S,A,A,A-H.png,A-S.png,hH,sS,mask-2.png,mask-4.png,h,1,0.5204917000082787,s,1,0.2522611999884248,0.05163229999016039,0.048358699976233765,0.10061789999599569,0.09812609999789856,0.7532073000038508
RSVPLG03,km,20260305-152307,1.0.2,20251113-095759,788,Experiment,Both,1,Automatic,main,19,20260305-152502,global,global,300,S,S,E,A,S-E.png,S-A.png,sS,sS,mask-1.png,mask-3.png,s,1,0.8992207999981474,s,1,0.2550082999805454,0.049616900010732934,0.0491178999945987,0.10054340001079254,0.1007097999972757,0.30150510001112707
RSVPLG03,km,20260305-152307,1.0.2,20251113-095759,788,Experiment,Both,1,Automatic,main,20,20260305-152507,global,local,300,H,H,A,E,H-A.png,E-H.png,hH,hH,mask-2.png,mask-3.png,s,0,2.370840599993244,h,1,0.3305450000043493,0.04971379999187775,0.05057859999942593,0.09873440000228584,0.10197509999852628,0.2980342000082601
RSVPLG03,km,20260305-152307,1.0.2,20251113-095759,788,Experiment,Both,1,Automatic,main,21,20260305-152513,local,local,300,S,H,E,E,E-S.png,E-H.png,sS,hH,mask-2.png,mask-4.png,s,1,0.6995479000033811,h,1,0.37977329999557696,0.04978159998427145,0.05016590000013821,0.0992194999998901,0.10140829998999834,0.2989323000074364
RSVPLG03,km,20260305-152307,1.0.2,20251113-095759,788,Experiment,Both,1,Automatic,main,22,20260305-152518,local,local,750,H,H,E,E,E-H.png,E-H.png,hH,hH,mask-4.png,mask-2.png,h,1,0.7741970999923069,h,1,0.3670083000033628,0.05033269998966716,0.049092300003394485,0.10020839999197051,0.09999869999592192,0.7509963999909814
RSVPLG03,km,20260305-152307,1.0.2,20251113-095759,788,Experiment,Both,1,Automatic,main,23,20260305-152523,global,local,300,S,S,E,A,S-E.png,A-S.png,sS,sS,mask-2.png,mask-3.png,s,1,0.8462919000012334,h,0,0.3196361000009347,0.05106240001623519,0.048837499984074384,0.09948860001168214,0.1005194999743253,0.3002827000163961
RSVPLG03,km,20260305-152307,1.0.2,20251113-095759,788,Experiment,Both,1,Automatic,main,24,20260305-152528,global,local,300,H,S,E,A,H-E.png,A-S.png,hH,sS,mask-4.png,mask-1.png,h,1,0.7616396999801509,s,1,0.38518090001889504,0.04949579999083653,0.049446500022895634,0.09815229999367148,0.09959990001516417,0.299464599986095
RSVPLG03,km,20260305-152307,1.0.2,20251113-095759,788,Experiment,Both,1,Automatic,main,25,20260305-152533,global,global,750,H,S,E,E,H-E.png,S-E.png,hH,sS,mask-3.png,mask-3.png,h,1,0.6055500000074971,s,1,0.1432693999959156,0.050296900008106604,0.04944670002441853,0.10171379998791963,0.09987570001976565,0.7528034999850206
RSVPLG03,km,20260305-152307,1.0.2,20251113-095759,788,Experiment,Both,1,Automatic,main,26,20260305-152606,local,global,750,H,S,E,A,E-H.png,S-A.png,hH,sS,mask-3.png,mask-3.png,h,1,0.7659949000226334,h,0,0.3859017000067979,0.04885720001766458,0.048537899972870946,0.09990299999481067,0.09945729997707531,0.7505456000217237
RSVPLG03,km,20260305-152307,1.0.2,20251113-095759,788,Experiment,Both,1,Automatic,main,27,20260305-152612,global,global,300,S,S,E,A,S-E.png,S-A.png,sS,sS,mask-2.png,mask-2.png,s,1,0.720508600003086,h,0,0.25732530001550913,0.049319599987939,0.05191519999061711,0.10145129999727942,0.10223590000532568,0.29935079999268055
RSVPLG03,km,20260305-152307,1.0.2,20251113-095759,788,Experiment,Both,1,Automatic,main,28,20260305-152616,local,global,300,H,S,A,A,A-H.png,S-A.png,hH,sS,mask-1.png,mask-1.png,h,1,2.8741762999852654,h,0,1.1852592000213917,0.05063489999156445,0.04957560001639649,0.09950700000626966,0.09867080001276918,0.30124739999882877
RSVPLG03,km,20260305-152307,1.0.2,20251113-095759,788,Experiment,Both,1,Automatic,main,29,20260305-152624,local,local,750,H,S,A,A,A-H.png,A-S.png,hH,sS,mask-3.png,mask-3.png,h,1,1.215571499982616,s,1,0.609114299993962,0.049062700010836124,0.04998219999833964,0.1000859999912791,0.10011490000761114,0.7503674000035971
RSVPLG03,km,20260305-152307,1.0.2,20251113-095759,788,Experiment,Both,1,Automatic,main,30,20260305-152630,local,local,300,H,S,A,A,A-H.png,A-S.png,hH,sS,mask-2.png,mask-3.png,h,1,0.9360822000016924,s,1,0.34840620000613853,0.05140440000104718,0.051099700009217486,0.10039710000273772,0.10067200000048615,0.3004695999843534
RSVPLG03,km,20260305-152307,1.0.2,20251113-095759,788,Experiment,Both,1,Automatic,main,31,20260305-152635,global,global,750,S,H,A,A,S-A.png,H-A.png,sS,hH,mask-2.png,mask-1.png,s,1,0.47541159999673255,h,1,0.23597629999858327,0.050593099993420765,0.048551700019743294,0.10070619999896735,0.09788210000260733,0.7535642999864649
RSVPLG03,km,20260305-152307,1.0.2,20251113-095759,788,Experiment,Both,1,Automatic,main,32,20260305-152640,local,local,300,H,H,E,A,E-H.png,A-H.png,hH,hH,mask-3.png,mask-3.png,h,1,0.7035198999801651,h,1,0.28898599999956787,0.04994889997760765,0.05084730000817217,0.1003558999800589,0.10022950000711717,0.3005228999827523
RSVPLG03,km,20260305-152307,1.0.2,20251113-095759,788,Experiment,Both,1,Automatic,main,33,20260305-152644,global,global,750,H,H,A,E,H-A.png,H-E.png,hH,hH,mask-1.png,mask-1.png,h,1,1.9014363000169396,s,0,0.24063049998949282,0.052915000007487833,0.05031340001733042,0.1004123000020627,0.10034460001043044,0.7517373999871779
RSVPLG03,km,20260305-152307,1.0.2,20251113-095759,788,Experiment,Both,1,Automatic,main,34,20260305-152651,local,global,300,S,H,E,E,E-S.png,H-E.png,sS,hH,mask-2.png,mask-4.png,s,1,0.871074900001986,h,1,0.3524773999815807,0.05034680000972003,0.05118320000474341,0.10072740001487546,0.10125070001231506,0.2988891999993939
RSVPLG03,km,20260305-152307,1.0.2,20251113-095759,788,Experiment,Both,1,Automatic,main,35,20260305-152656,global,global,750,H,H,E,A,H-E.png,H-A.png,hH,hH,mask-1.png,mask-2.png,s,0,2.6846276999858674,h,1,0.38269640001817606,0.04936959999031387,0.05047869999543764,0.09915950000868179,0.09978119999868795,0.7512245000107214
RSVPLG03,km,20260305-152307,1.0.2,20251113-095759,788,Experiment,Both,1,Automatic,main,36,20260305-152703,local,global,300,H,S,A,A,A-H.png,S-A.png,hH,sS,mask-4.png,mask-3.png,h,1,1.5190761999983806,s,1,0.28434980000020005,0.048074400023324415,0.05111130001023412,0.09880780000821687,0.10098260000813752,0.2993863000010606
RSVPLG03,km,20260305-152307,1.0.2,20251113-095759,788,Experiment,Both,1,Automatic,main,37,20260305-152708,local,local,300,H,S,A,A,A-H.png,A-S.png,hH,sS,mask-2.png,mask-2.png,h,1,0.9787902999960352,h,0,1.0577116999775171,0.04744850000133738,0.050644800008740276,0.0992240000050515,0.09974390000570565,0.2994024000072386
RSVPLG03,km,20260305-152307,1.0.2,20251113-095759,788,Experiment,Both,1,Automatic,main,38,20260305-152714,local,local,750,S,S,A,A,A-S.png,A-S.png,sS,sS,mask-4.png,mask-1.png,s,1,0.5413424999860581,s,1,0.2720450999913737,0.048840300005394965,0.05064110000967048,0.09922980002011172,0.10100990001228638,0.749831399996765
RSVPLG03,km,20260305-152307,1.0.2,20251113-095759,788,Experiment,Both,1,Automatic,main,39,20260305-152719,local,local,300,S,S,A,A,A-S.png,A-S.png,sS,sS,mask-2.png,mask-1.png,s,1,0.42536129997461103,s,1,0.2187405000149738,0.05009420000715181,0.04838480000034906,0.10075660000438802,0.1009102999814786,0.30224360001739115
RSVPLG03,km,20260305-152307,1.0.2,20251113-095759,788,Experiment,Both,1,Automatic,main,40,20260305-152723,global,local,750,S,H,E,A,S-E.png,A-H.png,sS,hH,mask-3.png,mask-4.png,s,1,0.3930058999976609,h,1,0.17456999997375533,0.0502013000077568,0.04914640000788495,0.10058950001257472,0.10109229999943636,0.7523301000182983
RSVPLG03,km,20260305-152307,1.0.2,20251113-095759,788,Experiment,Both,1,Automatic,main,41,20260305-152728,local,local,750,H,H,E,E,E-H.png,E-H.png,hH,hH,mask-4.png,mask-4.png,h,1,0.5526707000099123,h,1,0.23997970001073554,0.05033309999271296,0.05029179999837652,0.10011940001277253,0.10069329998805188,0.7501878000039142
RSVPLG03,km,20260305-152307,1.0.2,20251113-095759,788,Experiment,Both,1,Automatic,main,42,20260305-152733,local,global,750,S,S,A,E,A-S.png,S-E.png,sS,sS,mask-3.png,mask-1.png,s,1,0.8863731999881566,h,0,0.4643456000194419,0.04932300001382828,0.04766419998486526,0.1010934000078123,0.0976739999896381,0.7522155000187922
RSVPLG03,km,20260305-152307,1.0.2,20251113-095759,788,Experiment,Both,1,Automatic,main,43,20260305-152738,local,local,750,H,S,A,A,A-H.png,A-S.png,hH,sS,mask-1.png,mask-1.png,h,1,0.9109596000052989,s,1,0.32093210000311956,0.04982879999442957,0.04978460000711493,0.10267140000360087,0.1008643000095617,0.7510690999915823
RSVPLG03,km,20260305-152307,1.0.2,20251113-095759,788,Experiment,Both,1,Automatic,main,44,20260305-152744,global,global,300,S,S,E,A,S-E.png,S-A.png,sS,sS,mask-1.png,mask-2.png,s,1,0.8954709999961779,h,0,0.7370688000228256,0.048929299984592944,0.04982210000162013,0.10001910000573844,0.100842299987562,0.29975619999459013
RSVPLG03,km,20260305-152307,1.0.2,20251113-095759,788,Experiment,Both,1,Automatic,main,45,20260305-152749,global,local,750,H,H,E,E,H-E.png,E-H.png,hH,hH,mask-1.png,mask-2.png,s,0,0.6570172999927308,h,1,1.2485077999881469,0.05111410000245087,0.05067520000739023,0.10028820001753047,0.10028859999147244,0.7504456000169739
RSVPLG03,km,20260305-152307,1.0.2,20251113-095759,788,Experiment,Both,1,Automatic,main,46,20260305-152755,local,global,300,S,H,A,A,A-S.png,H-A.png,sS,hH,mask-1.png,mask-4.png,s,1,0.8490321999997832,s,0,0.6079326999897603,0.04750939999939874,0.0500737999973353,0.09751589997904375,0.09933729999465868,0.2997630999889225
RSVPLG03,km,20260305-152307,1.0.2,20251113-095759,788,Experiment,Both,1,Automatic,main,47,20260305-152800,global,local,750,S,H,E,E,S-E.png,E-H.png,sS,hH,mask-1.png,mask-1.png,h,0,0.6624978999898303,h,1,0.2561442000151146,0.049898199999006465,0.05150969998794608,0.09981980000156909,0.10140149999642745,0.7508644000045024
RSVPLG03,km,20260305-152307,1.0.2,20251113-095759,788,Experiment,Both,1,Automatic,main,48,20260305-152805,global,local,300,H,H,E,A,H-E.png,A-H.png,hH,hH,mask-2.png,mask-1.png,h,1,0.6430433999921661,h,1,0.19460000001708977,0.04875780001748353,0.050102599983802065,0.09974289999809116,0.0980991999967955,0.3004322000197135
RSVPLG03,km,20260305-152307,1.0.2,20251113-095759,788,Experiment,Both,1,Automatic,main,49,20260305-152810,local,local,300,H,S,A,E,A-H.png,E-S.png,hH,sS,mask-3.png,mask-3.png,h,1,0.5970838000066578,s,1,0.1631589000171516,0.05092829998466186,0.05008990000351332,0.10083459998713806,0.10099460001219995,0.30042829999001697
RSVPLG03,km,20260305-152307,1.0.2,20251113-095759,788,Experiment,Both,1,Automatic,main,50,20260305-152814,global,local,750,S,S,E,E,S-E.png,E-S.png,sS,sS,mask-2.png,mask-4.png,s,1,0.4333684000011999,s,1,0.2414217000186909,0.048619499983033165,0.04947769999853335,0.09707220000564121,0.10127149999607354,0.7489884999813512
RSVPLG03,km,20260305-152307,1.0.2,20251113-095759,788,Experiment,Both,1,Automatic,main,51,20260305-152833,local,global,300,H,S,A,E,A-H.png,S-E.png,hH,sS,mask-2.png,mask-1.png,h,1,1.337080600002082,h,0,1.084084999980405,0.04974000001675449,0.047427000012248755,0.10084970001480542,0.09799000000930391,0.3038648999936413
RSVPLG03,km,20260305-152307,1.0.2,20251113-095759,788,Experiment,Both,1,Automatic,main,52,20260305-152839,local,global,750,H,S,E,E,E-H.png,S-E.png,hH,sS,mask-3.png,mask-4.png,h,1,1.1095696999982465,s,1,0.20820560000720434,0.04950339999049902,0.050151400006143376,0.09942770001362078,0.10002040001563728,0.7500793999934103
RSVPLG03,km,20260305-152307,1.0.2,20251113-095759,788,Experiment,Both,1,Automatic,main,53,20260305-152845,local,local,750,H,H,E,E,E-H.png,E-H.png,hH,hH,mask-3.png,mask-4.png,h,1,0.44877980000455864,h,1,0.1541630000283476,0.05110250000143424,0.04957179998746142,0.10154449997935444,0.10085369998705573,0.7519192000036128
RSVPLG03,km,20260305-152307,1.0.2,20251113-095759,788,Experiment,Both,1,Automatic,main,54,20260305-152849,global,global,300,S,H,A,E,S-A.png,H-E.png,sS,hH,mask-3.png,mask-3.png,s,1,0.7743839000177104,h,1,0.4572721000004094,0.04802139999810606,0.051085200015222654,0.09906909998971969,0.10189730001729913,0.2992612999805715
RSVPLG03,km,20260305-152307,1.0.2,20251113-095759,788,Experiment,Both,1,Automatic,main,55,20260305-152854,global,local,300,H,S,E,E,H-E.png,E-S.png,hH,sS,mask-2.png,mask-3.png,h,1,0.7611020999902394,s,1,0.1288633999938611,0.049406400008592755,0.04944679999607615,0.10016229999018833,0.09926640000776388,0.30058959999587387
RSVPLG03,km,20260305-152307,1.0.2,20251113-095759,788,Experiment,Both,1,Automatic,main,56,20260305-152859,local,global,300,H,S,E,A,E-H.png,S-A.png,hH,sS,mask-4.png,mask-1.png,h,1,0.5556713000114542,s,1,0.12970709998626262,0.04874219998600893,0.04907660000026226,0.09919700000318699,0.09907450000173412,0.30028179998043925
RSVPLG03,km,20260305-152307,1.0.2,20251113-095759,788,Experiment,Both,1,Automatic,main,57,20260305-152903,global,global,750,H,S,A,A,H-A.png,S-A.png,hH,sS,mask-4.png,mask-1.png,s,0,0.6517680000106338,s,1,0.2403970000159461,0.05053510001744144,0.05129940001643263,0.10144050000235438,0.09945199999492615,0.7524583000049461
RSVPLG03,km,20260305-152307,1.0.2,20251113-095759,788,Experiment,Both,1,Automatic,main,58,20260305-152908,global,global,300,S,S,E,A,S-E.png,S-A.png,sS,sS,mask-4.png,mask-2.png,s,1,0.5321771999879275,s,1,0.1587240000080783,0.05009720000089146,0.05073039999115281,0.09938270002021454,0.100401800009422,0.2998453000036534
RSVPLG03,km,20260305-152307,1.0.2,20251113-095759,788,Experiment,Both,1,Automatic,main,59,20260305-152913,local,global,750,H,S,A,E,A-H.png,S-E.png,hH,sS,mask-2.png,mask-4.png,s,0,1.070382799982326,h,0,0.22501179997925647,0.05032999999821186,0.05090630002086982,0.10048619998269714,0.10153870002250187,0.7503338999813423
RSVPLG03,km,20260305-152307,1.0.2,20251113-095759,788,Experiment,Both,1,Automatic,main,60,20260305-152918,global,global,750,S,S,A,A,S-A.png,S-A.png,sS,sS,mask-2.png,mask-2.png,s,1,0.685110699996585,s,1,0.43949889999930747,0.05154539999784902,0.050761799997417256,0.10143750000861473,0.1009790999814868,0.7524950000224635
RSVPLG03,km,20260305-152307,1.0.2,20251113-095759,788,Experiment,Both,1,Automatic,main,61,20260305-152923,global,global,750,S,H,E,E,S-E.png,H-E.png,sS,hH,mask-2.png,mask-4.png,s,1,0.47848819999489933,h,1,0.19215049999183975,0.04884549998678267,0.0484576000017114,0.09892170000239275,0.09900580000248738,0.7503414000093471
RSVPLG03,km,20260305-152307,1.0.2,20251113-095759,788,Experiment,Both,1,Automatic,main,62,20260305-152928,local,local,300,S,S,A,E,A-S.png,E-S.png,sS,sS,mask-4.png,mask-2.png,s,1,0.3954764000081923,s,1,0.12726979999570176,0.05030030000489205,0.04895660001784563,0.09859439998399466,0.09860880000633188,0.300255299982382
RSVPLG03,km,20260305-152307,1.0.2,20251113-095759,788,Experiment,Both,1,Automatic,main,63,20260305-152932,global,global,300,S,H,E,A,S-E.png,H-A.png,sS,hH,mask-2.png,mask-2.png,s,1,0.566949999978533,h,1,0.20455890000448562,0.049710300023434684,0.04916090000187978,0.10017670001252554,0.1001201999897603,0.3013799000182189
RSVPLG03,km,20260305-152307,1.0.2,20251113-095759,788,Experiment,Both,1,Automatic,main,64,20260305-152937,local,global,300,H,H,A,E,A-H.png,H-E.png,hH,hH,mask-2.png,mask-2.png,s,0,1.09852860000683,h,1,0.20933089999016374,0.05000389998895116,0.05032310000387952,0.09941759999492206,0.0996764000155963,0.30050159999518655
RSVPLG03,km,20260305-152307,1.0.2,20251113-095759,788,Experiment,Both,1,Automatic,main,65,20260305-152942,global,local,750,S,H,A,A,S-A.png,A-H.png,sS,hH,mask-4.png,mask-3.png,s,1,0.6461926999909338,h,1,0.3942003999836743,0.049913199996808544,0.05078150000190362,0.09973829999216832,0.10159529998782091,0.7515749000012875
RSVPLG03,km,20260305-152307,1.0.2,20251113-095759,788,Experiment,Both,1,Automatic,main,66,20260305-152947,global,global,750,S,H,E,A,S-E.png,H-A.png,sS,hH,mask-1.png,mask-1.png,s,1,0.8034975999908056,h,1,0.2989674999844283,0.04889910001656972,0.04803560001892038,0.09850759999244474,0.09870260002207942,0.7511726999946404
RSVPLG03,km,20260305-152307,1.0.2,20251113-095759,788,Experiment,Both,1,Automatic,main,67,20260305-152952,local,global,750,H,S,E,A,E-H.png,S-A.png,hH,sS,mask-4.png,mask-4.png,h,1,0.6554305000172462,h,0,0.27145590001600794,0.05009129998506978,0.04993910001940094,0.10031769998022355,0.09815040000830777,0.7513578999787569
RSVPLG03,km,20260305-152307,1.0.2,20251113-095759,788,Experiment,Both,1,Automatic,main,68,20260305-152957,local,global,300,H,H,E,E,E-H.png,H-E.png,hH,hH,mask-2.png,mask-2.png,h,1,0.8115198999876156,s,0,0.12948159998632036,0.05077560001518577,0.05059410000103526,0.10101589999976568,0.10213770001428202,0.30060190000222065
RSVPLG03,km,20260305-152307,1.0.2,20251113-095759,788,Experiment,Both,1,Automatic,main,69,20260305-153002,global,global,300,S,H,E,A,S-E.png,H-A.png,sS,hH,mask-3.png,mask-1.png,s,1,0.6645828000037,h,1,0.17756609999923967,0.0497816999850329,0.04958890000125393,0.10014560000854544,0.09977719999733381,0.3008809000020847
RSVPLG03,km,20260305-152307,1.0.2,20251113-095759,788,Experiment,Both,1,Automatic,main,70,20260305-153006,local,local,300,S,H,E,E,E-S.png,E-H.png,sS,hH,mask-3.png,mask-2.png,s,1,0.6800672999816015,h,1,0.22035190000315197,0.05171189998509362,0.04974529999890365,0.09977859997889027,0.10151690000202507,0.3000461999909021
RSVPLG03,km,20260305-152307,1.0.2,20251113-095759,788,Experiment,Both,1,Automatic,main,71,20260305-153011,global,local,300,H,H,E,A,H-E.png,A-H.png,hH,hH,mask-4.png,mask-1.png,s,0,1.3598239999846555,h,1,0.20842959999572486,0.050016699999105185,0.049404799996409565,0.10099909998825751,0.10050820000469685,0.30096960000810213
RSVPLG03,km,20260305-152307,1.0.2,20251113-095759,788,Experiment,Both,1,Automatic,main,72,20260305-153016,global,local,750,H,S,A,E,H-A.png,E-S.png,hH,sS,mask-2.png,mask-1.png,h,1,0.5272850999899674,s,1,0.09503729999414645,0.04979059999459423,0.04942150000715628,0.09991940000327304,0.09887010001693852,0.7520706999930553
RSVPLG03,km,20260305-152307,1.0.2,20251113-095759,788,Experiment,Both,1,Automatic,main,73,20260305-153021,global,local,750,S,S,E,A,S-E.png,A-S.png,sS,sS,mask-1.png,mask-4.png,s,1,0.6278788000054192,s,1,0.14433499998995103,0.04920959999435581,0.05007250001654029,0.10002480002003722,0.09950270000263117,0.7522507999965455
RSVPLG03,km,20260305-152307,1.0.2,20251113-095759,788,Experiment,Both,1,Automatic,main,74,20260305-153025,local,global,750,S,S,E,E,E-S.png,S-E.png,sS,sS,mask-2.png,mask-3.png,s,1,0.7296605999872554,h,0,1.0885525999765377,0.049911499983863905,0.05031220000819303,0.10008009997545741,0.10182999999960884,0.7508315999875776
RSVPLG03,km,20260305-152307,1.0.2,20251113-095759,788,Experiment,Both,1,Automatic,main,75,20260305-153031,global,global,300,H,H,A,E,H-A.png,H-E.png,hH,hH,mask-1.png,mask-2.png,h,1,1.1163134000089485,s,0,0.17692930001066998,0.04939339999691583,0.05067689999123104,0.0999868999933824,0.10210290001123212,0.29890789999626577
RSVPLG03,km,20260305-152307,1.0.2,20251113-095759,788,Experiment,Both,1,Automatic,main,76,20260305-153057,local,global,750,S,H,A,E,A-S.png,H-E.png,sS,hH,mask-1.png,mask-3.png,s,1,0.7811605999886524,s,0,0.14069229998858646,0.04884690002654679,0.0513978999806568,0.09900740001467057,0.10038600000552833,0.7492346000217367
RSVPLG03,km,20260305-152307,1.0.2,20251113-095759,788,Experiment,Both,1,Automatic,main,77,20260305-153102,local,global,750,H,H,E,E,E-H.png,H-E.png,hH,hH,mask-2.png,mask-3.png,h,1,1.2204123999981675,s,0,0.23944000000483356,0.050109899981180206,0.05076409998582676,0.09921610000310466,0.09974489998421632,0.749954600003548
RSVPLG03,km,20260305-152307,1.0.2,20251113-095759,788,Experiment,Both,1,Automatic,main,78,20260305-153108,global,local,750,S,H,A,E,S-A.png,E-H.png,sS,hH,mask-2.png,mask-2.png,h,0,0.7741299999761395,h,1,0.25643310000305064,0.05069880001246929,0.05046199998469092,0.10059580000233836,0.10034649999579415,0.7505612000240944
RSVPLG03,km,20260305-152307,1.0.2,20251113-095759,788,Experiment,Both,1,Automatic,main,79,20260305-153113,local,global,300,S,S,A,A,A-S.png,S-A.png,sS,sS,mask-2.png,mask-2.png,s,1,1.015611800015904,h,0,0.17656930000521243,0.049702599993906915,0.05116830000770278,0.09975640001357533,0.09962190000806004,0.3009140999929514
RSVPLG03,km,20260305-152307,1.0.2,20251113-095759,788,Experiment,Both,1,Automatic,main,80,20260305-153118,global,global,300,H,H,E,E,H-E.png,H-E.png,hH,hH,mask-4.png,mask-4.png,s,0,1.146902600012254,s,0,0.17216609997558407,0.049671600019792095,0.04882809999980964,0.1010934000078123,0.09858609997900203,0.30137220001779497
RSVPLG03,km,20260305-152307,1.0.2,20251113-095759,788,Experiment,Both,1,Automatic,main,81,20260305-153123,local,local,750,H,H,E,E,E-H.png,E-H.png,hH,hH,mask-2.png,mask-2.png,h,1,0.5448838000011165,h,1,0.14180119999218732,0.05043179998756386,0.05029620000277646,0.1000462000083644,0.09903230000054464,0.751706999988528
RSVPLG03,km,20260305-152307,1.0.2,20251113-095759,788,Experiment,Both,1,Automatic,main,82,20260305-153128,local,local,300,S,S,A,A,A-S.png,A-S.png,sS,sS,mask-4.png,mask-3.png,s,1,0.49888550001196563,s,1,0.15892980000353418,0.0498410000000149,0.05259239999577403,0.10107679999782704,0.0995855999935884,0.2990375999943353
RSVPLG03,km,20260305-152307,1.0.2,20251113-095759,788,Experiment,Both,1,Automatic,main,83,20260305-153132,global,local,300,S,S,A,A,S-A.png,A-S.png,sS,sS,mask-3.png,mask-2.png,s,1,0.6528599000012036,s,1,0.16270809998968616,0.049495099985506386,0.050249499996425584,0.099393999989843,0.09926180000184104,0.30035449998104014
RSVPLG03,km,20260305-152307,1.0.2,20251113-095759,788,Experiment,Both,1,Automatic,main,84,20260305-153136,global,local,300,S,S,E,E,S-E.png,E-S.png,sS,sS,mask-4.png,mask-3.png,s,1,0.5081203999870922,s,1,0.15891470000497065,0.05014820001088083,0.0487892999954056,0.09925319999456406,0.10027209998224862,0.3002713000169024
RSVPLG03,km,20260305-152307,1.0.2,20251113-095759,788,Experiment,Both,1,Automatic,main,85,20260305-153141,global,global,300,H,S,E,A,H-E.png,S-A.png,hH,sS,mask-1.png,mask-4.png,h,1,0.6224124000000302,s,1,0.09544750000350177,0.0494098000053782,0.05242379999253899,0.09988670001621358,0.10073479998391122,0.2994687000173144
RSVPLG03,km,20260305-152307,1.0.2,20251113-095759,788,Experiment,Both,1,Automatic,main,86,20260305-153145,local,local,750,S,S,E,E,E-S.png,E-S.png,sS,sS,mask-4.png,mask-2.png,s,1,0.5000725999998394,s,1,0.14302129999850877,0.04989579998073168,0.050370800017844886,0.09977479997905903,0.10028650000458583,0.7511445999844
RSVPLG03,km,20260305-152307,1.0.2,20251113-095759,788,Experiment,Both,1,Automatic,main,87,20260305-153150,local,global,750,S,S,E,E,E-S.png,S-E.png,sS,sS,mask-3.png,mask-4.png,s,1,3.200351299979957,h,0,1.2948737999831792,0.051428699982352555,0.04999269999098033,0.10023229999933392,0.10000310000032187,0.75249640000402
RSVPLG03,km,20260305-152307,1.0.2,20251113-095759,788,Experiment,Both,1,Automatic,main,88,20260305-153159,global,local,750,H,S,E,E,H-E.png,E-S.png,hH,sS,mask-2.png,mask-4.png,h,1,0.2615881000238005,s,1,0.20661689998814836,0.04938310000579804,0.05086680001113564,0.09955190002801828,0.10253910001483746,0.7511403000098653
RSVPLG03,km,20260305-152307,1.0.2,20251113-095759,788,Experiment,Both,1,Automatic,main,89,20260305-153203,local,local,750,H,S,A,A,A-H.png,A-S.png,hH,sS,mask-3.png,mask-4.png,h,1,0.5395269000146072,s,1,0.11363899998832494,0.05038889998104423,0.050041899987263605,0.10109839998767711,0.10117599999648519,0.7514564000011887
RSVPLG03,km,20260305-152307,1.0.2,20251113-095759,788,Experiment,Both,1,Automatic,main,90,20260305-153208,global,local,300,S,H,A,A,S-A.png,A-H.png,sS,hH,mask-2.png,mask-1.png,s,1,0.5652807999867946,h,1,0.16120120001141913,0.05328620001091622,0.050025700009427965,0.10002949999761768,0.09828639999614097,0.3020120000001043
RSVPLG03,km,20260305-152307,1.0.2,20251113-095759,788,Experiment,Both,1,Automatic,main,91,20260305-153212,global,local,750,H,H,E,E,H-E.png,E-H.png,hH,hH,mask-2.png,mask-2.png,h,1,0.4000642000173684,s,0,0.1280622000049334,0.05143279998446815,0.04973749999771826,0.1014357999956701,0.10034510001423769,0.750128899991978
RSVPLG03,km,20260305-152307,1.0.2,20251113-095759,788,Experiment,Both,1,Automatic,main,92,20260305-153217,global,local,300,H,S,A,A,H-A.png,A-S.png,hH,sS,mask-2.png,mask-4.png,h,1,0.6812490999873262,s,1,0.1402935000078287,0.050268599996343255,0.051364799990551546,0.10102999999071471,0.10092169998097233,0.3005614000139758
RSVPLG03,km,20260305-152307,1.0.2,20251113-095759,788,Experiment,Both,1,Automatic,main,93,20260305-153221,local,global,300,H,H,E,E,E-H.png,H-E.png,hH,hH,mask-4.png,mask-2.png,s,0,1.2503076000139117,h,1,0.2397138999949675,0.049933700007386506,0.049538099992787465,0.10051970000495203,0.10006949998205528,0.2979114000045229
RSVPLG03,km,20260305-152307,1.0.2,20251113-095759,788,Experiment,Both,1,Automatic,main,94,20260305-153227,global,local,750,S,S,E,A,S-E.png,A-S.png,sS,sS,mask-4.png,mask-4.png,s,1,0.821406900009606,s,1,0.14176030000089668,0.05107829999178648,0.05051810000441037,0.10049099999014288,0.09975439999834634,0.752933599986136
RSVPLG03,km,20260305-152307,1.0.2,20251113-095759,788,Experiment,Both,1,Automatic,main,95,20260305-153232,global,global,300,H,H,A,A,H-A.png,H-A.png,hH,hH,mask-3.png,mask-4.png,h,1,0.5167558000248391,h,1,0.11416749999625608,0.051208099990617484,0.04934670001966879,0.10130700000445358,0.09846160002052784,0.30222079998929985
RSVPLG03,km,20260305-152307,1.0.2,20251113-095759,788,Experiment,Both,1,Automatic,main,96,20260305-153236,global,local,750,H,H,E,E,H-E.png,E-H.png,hH,hH,mask-1.png,mask-3.png,h,1,0.5191484999959357,h,1,0.11089760001050308,0.049709999992046505,0.0507340999902226,0.10063539998373017,0.10193299999809824,0.7507364999910351
RSVPLG03,km,20260305-152307,1.0.2,20251113-095759,788,Experiment,Both,1,Automatic,main,97,20260305-153241,global,local,300,H,S,A,E,H-A.png,E-S.png,hH,sS,mask-3.png,mask-2.png,h,1,0.5484045000048354,s,1,0.10832170001231134,0.05111840000608936,0.04890940000768751,0.10048079999978654,0.09941220001201145,0.3012354999955278
RSVPLG03,km,20260305-152307,1.0.2,20251113-095759,788,Experiment,Both,1,Automatic,main,98,20260305-153245,local,local,300,H,H,A,E,A-H.png,E-H.png,hH,hH,mask-4.png,mask-4.png,h,1,0.6156323999748565,h,1,0.10950289998436347,0.05076839998946525,0.050975499994819984,0.10033519999706186,0.10113880000426434,0.3000860000029206
RSVPLG03,km,20260305-152307,1.0.2,20251113-095759,788,Experiment,Both,1,Automatic,main,99,20260305-153250,global,global,750,S,H,A,E,S-A.png,H-E.png,sS,hH,mask-2.png,mask-1.png,s,1,0.6565222000062931,h,1,0.1603402000037022,0.05065739998826757,0.05106950001209043,0.100122099975124,0.10050650002085604,0.7507037999748718
RSVPLG03,km,20260305-152307,1.0.2,20251113-095759,788,Experiment,Both,1,Automatic,main,100,20260305-153255,local,global,750,S,S,E,A,E-S.png,S-A.png,sS,sS,mask-1.png,mask-2.png,s,1,1.8116112000134308,s,1,0.433085900003789,0.04961010001716204,0.04861480000545271,0.10048940000706352,0.09913770001730882,0.7520067000004929
RSVPLG03,km,20260305-153342,1.0.2,20251113-095759,788,Experiment,Both,1,Automatic,warmup,1,20260305-153433,global,local,300,H,H,A,E,H-A.png,E-H.png,hH,hH,mask-1.png,mask-3.png,s,0,1.0319071999983862,h,1,0.14290820001042448,0.046080199972493574,0.05078160000266507,0.09719589998712763,0.10101380001287907,0.2950880999851506
RSVPLG03,km,20260305-153342,1.0.2,20251113-095759,788,Experiment,Both,1,Automatic,warmup,2,20260305-153438,global,local,750,H,H,A,A,H-A.png,A-H.png,hH,hH,mask-4.png,mask-4.png,h,1,0.685673100000713,s,0,0.14415989999542944,0.05017319999751635,0.0509017999866046,0.10011800000211224,0.10001170000759885,0.7518243000085931
RSVPLG03,km,20260305-153342,1.0.2,20251113-095759,788,Experiment,Both,1,Automatic,warmup,3,20260305-153443,local,local,750,S,H,E,A,E-S.png,A-H.png,sS,hH,mask-2.png,mask-1.png,s,1,0.920188899995992,h,1,0.16161989999818616,0.04801739999675192,0.05150100000901148,0.09988439999870025,0.10100679998868145,0.75013180001406
RSVPLG03,km,20260305-153342,1.0.2,20251113-095759,788,Experiment,Both,1,Automatic,warmup,4,20260305-153448,global,global,750,S,H,A,A,S-A.png,H-A.png,sS,hH,mask-4.png,mask-1.png,s,1,0.5061759000236634,h,1,0.09658690000651404,0.04955840000184253,0.04887339999550022,0.09972749999724329,0.09990179998567328,0.7514657000137959
RSVPLG03,km,20260305-153342,1.0.2,20251113-095759,788,Experiment,Both,1,Automatic,main,5,20260305-153453,global,global,750,H,S,A,E,H-A.png,S-E.png,hH,sS,mask-2.png,mask-4.png,h,1,0.3602407000144012,s,1,0.04077970000798814,0.05347959999926388,0.051114800007781014,0.10092090000398457,0.10022010002285242,0.7523226999910548
RSVPLG03,km,20260305-153342,1.0.2,20251113-095759,788,Experiment,Both,1,Automatic,main,6,20260305-153457,global,local,750,S,S,A,E,S-A.png,E-S.png,sS,sS,mask-3.png,mask-3.png,s,1,0.4970300999993924,s,1,0.14545020001241937,0.050514600006863475,0.05108720000134781,0.0992885000014212,0.10036020001280122,0.7502733999863267
RSVPLG03,km,20260305-153342,1.0.2,20251113-095759,788,Experiment,Both,1,Automatic,main,7,20260305-153502,local,local,300,H,H,A,A,A-H.png,A-H.png,hH,hH,mask-2.png,mask-1.png,s,0,1.5431633999978658,h,1,0.1855480000085663,0.05019380000885576,0.04968880000524223,0.10020040001836605,0.0997139000101015,0.30141630000434816
RSVPLG03,km,20260305-153342,1.0.2,20251113-095759,788,Experiment,Both,1,Automatic,main,8,20260305-153507,local,local,300,S,S,A,A,A-S.png,A-S.png,sS,sS,mask-1.png,mask-4.png,s,1,0.5501601999858394,s,1,0.08257709999452345,0.047388499981025234,0.05144699997617863,0.09942009998485446,0.10152539997943677,0.29859980000765063
RSVPLG03,km,20260305-153342,1.0.2,20251113-095759,788,Experiment,Both,1,Automatic,main,9,20260305-153512,local,global,750,S,H,A,A,A-S.png,H-A.png,sS,hH,mask-3.png,mask-1.png,s,1,1.7056320999981835,h,1,0.15636090000043623,0.04914509999798611,0.05026650000945665,0.09854909998830408,0.09885439998470247,0.7503809999907389
RSVPLG03,km,20260305-153342,1.0.2,20251113-095759,788,Experiment,Both,1,Automatic,main,10,20260305-153518,local,local,750,S,H,E,E,E-S.png,E-H.png,sS,hH,mask-4.png,mask-3.png,s,1,0.4631937999802176,h,1,0.12290659997961484,0.0500733999942895,0.0499124999914784,0.10011189998476766,0.09984999999869615,0.7526986000011675
RSVPLG03,km,20260305-153342,1.0.2,20251113-095759,788,Experiment,Both,1,Automatic,main,11,20260305-153522,local,global,300,S,H,A,A,A-S.png,H-A.png,sS,hH,mask-2.png,mask-1.png,s,1,0.6852066999999806,h,1,0.09506749999127351,0.05102840001927689,0.05091819999506697,0.10071010002866387,0.09936689998721704,0.30059180001262575
RSVPLG03,km,20260305-153342,1.0.2,20251113-095759,788,Experiment,Both,1,Automatic,main,12,20260305-153527,local,global,300,H,H,A,E,A-H.png,H-E.png,hH,hH,mask-3.png,mask-1.png,h,1,0.9319451999908779,s,0,0.1405926999868825,0.049542499997187406,0.04951109999092296,0.10048699998878874,0.100247299997136,0.3009959000046365
RSVPLG03,km,20260305-153342,1.0.2,20251113-095759,788,Experiment,Both,1,Automatic,main,13,20260305-153532,global,local,750,H,H,E,E,H-E.png,E-H.png,hH,hH,mask-4.png,mask-2.png,h,1,0.7113557000120636,h,1,0.12450649999664165,0.04965199998696335,0.04851809999672696,0.10058199998456985,0.09889059999841265,0.7531338999979198
RSVPLG03,km,20260305-153342,1.0.2,20251113-095759,788,Experiment,Both,1,Automatic,main,14,20260305-153537,global,local,750,S,S,E,A,S-E.png,A-S.png,sS,sS,mask-2.png,mask-4.png,s,1,0.5080860999878496,s,1,0.10806639998918399,0.04933310000342317,0.0496514999831561,0.10085369998705573,0.10236769999028184,0.7509599000040907
RSVPLG03,km,20260305-153342,1.0.2,20251113-095759,788,Experiment,Both,1,Automatic,main,15,20260305-153541,global,global,300,S,H,E,A,S-E.png,H-A.png,sS,hH,mask-1.png,mask-4.png,s,1,0.9131899999920279,s,0,0.09710210000048392,0.04834280000068247,0.05004560001543723,0.10048229998210445,0.09998580001411028,0.30112769998959266
RSVPLG03,km,20260305-153342,1.0.2,20251113-095759,788,Experiment,Both,1,Automatic,main,16,20260305-153546,global,local,750,H,S,E,A,H-E.png,A-S.png,hH,sS,mask-2.png,mask-1.png,h,1,0.4236066000012215,s,1,0.07479159999638796,0.049619600002188236,0.05142790000536479,0.10037920001195744,0.10146810000878759,0.7503891999949701
RSVPLG03,km,20260305-153342,1.0.2,20251113-095759,788,Experiment,Both,1,Automatic,main,17,20260305-153551,local,global,750,S,H,A,E,A-S.png,H-E.png,sS,hH,mask-3.png,mask-3.png,s,1,0.5399730000062846,h,1,0.13125900001614355,0.05016250000335276,0.04970940001658164,0.10151989999576472,0.09895149999647401,0.7523066999856383
RSVPLG03,km,20260305-153342,1.0.2,20251113-095759,788,Experiment,Both,1,Automatic,main,18,20260305-153555,global,global,300,H,H,E,A,H-E.png,H-A.png,hH,hH,mask-1.png,mask-3.png,h,1,0.5271336000005249,s,0,0.06355890000122599,0.0481316999939736,0.05001189999165945,0.09781790000852197,0.1000147000013385,0.299448100005975
RSVPLG03,km,20260305-153342,1.0.2,20251113-095759,788,Experiment,Both,1,Automatic,main,19,20260305-153600,global,local,300,H,H,A,E,H-A.png,E-H.png,hH,hH,mask-1.png,mask-2.png,h,1,0.7357906000106595,s,0,0.04735249999794178,0.051818199979607016,0.048751299997093156,0.10074159997748211,0.09905299998354167,0.30135389999486506
RSVPLG03,km,20260305-153342,1.0.2,20251113-095759,788,Experiment,Both,1,Automatic,main,20,20260305-153604,local,global,750,S,H,E,E,E-S.png,H-E.png,sS,hH,mask-1.png,mask-3.png,s,1,0.6007096999965142,h,1,0.1572474999993574,0.05185200000414625,0.05072440000367351,0.10063210001681,0.09966169999097474,0.751361700007692
RSVPLG03,km,20260305-153342,1.0.2,20251113-095759,788,Experiment,Both,1,Automatic,main,21,20260305-153609,global,global,300,H,H,A,E,H-A.png,H-E.png,hH,hH,mask-3.png,mask-2.png,h,1,0.5687167999858502,s,0,0.16052120001404546,0.049818200001027435,0.05078950000461191,0.10072479999507777,0.10009610000997782,0.3013441000075545
RSVPLG03,km,20260305-153342,1.0.2,20251113-095759,788,Experiment,Both,1,Automatic,main,22,20260305-153613,global,global,300,H,S,A,E,H-A.png,S-E.png,hH,sS,mask-4.png,mask-2.png,h,1,0.5509869999950752,s,1,0.05631620000349358,0.05084729997906834,0.04966369998874143,0.09963299997616559,0.10024560001329519,0.3014140999875963
RSVPLG03,km,20260305-153342,1.0.2,20251113-095759,788,Experiment,Both,1,Automatic,main,23,20260305-153618,global,local,300,S,H,A,E,S-A.png,E-H.png,sS,hH,mask-1.png,mask-3.png,s,1,0.5643694000027608,s,0,0.11357230000430718,0.05076159999589436,0.0505954000109341,0.10082719998899847,0.09944059999543242,0.30053789998055436
RSVPLG03,km,20260305-153342,1.0.2,20251113-095759,788,Experiment,Both,1,Automatic,main,24,20260305-153622,local,global,750,H,H,E,E,E-H.png,H-E.png,hH,hH,mask-3.png,mask-2.png,h,1,1.0506898000021465,h,1,0.19248460000380874,0.049929400003748015,0.0502039999992121,0.09997799998382106,0.1002124999940861,0.7508875000057742
RSVPLG03,km,20260305-153342,1.0.2,20251113-095759,788,Experiment,Both,1,Automatic,main,25,20260305-153627,local,global,750,S,S,E,A,E-S.png,S-A.png,sS,sS,mask-3.png,mask-4.png,s,1,1.1370652000186965,s,1,0.13042110000969842,0.04997199997887947,0.049458299996331334,0.09888669999781996,0.099321499990765,0.7509355999936815
RSVPLG03,km,20260305-153342,1.0.2,20251113-095759,788,Experiment,Both,1,Automatic,main,26,20260305-153644,local,global,300,H,H,E,E,E-H.png,H-E.png,hH,hH,mask-4.png,mask-2.png,h,1,1.1315159000223503,s,0,0.1935352000000421,0.04997030002414249,0.049883400002727285,0.09978970000520349,0.0983686999825295,0.30076850001933053
RSVPLG03,km,20260305-153342,1.0.2,20251113-095759,788,Experiment,Both,1,Automatic,main,27,20260305-153649,global,local,750,S,S,A,E,S-A.png,E-S.png,sS,sS,mask-1.png,mask-3.png,s,1,0.2564719000074547,s,1,0.09772620000876486,0.0497793999966234,0.050833299988880754,0.0998062000144273,0.10014239998417906,0.7526999000110663
RSVPLG03,km,20260305-153342,1.0.2,20251113-095759,788,Experiment,Both,1,Automatic,main,28,20260305-153654,local,local,300,S,S,A,E,A-S.png,E-S.png,sS,sS,mask-2.png,mask-1.png,s,1,0.5538328000111505,s,1,0.09827550000045449,0.0488607999868691,0.051025900000240654,0.10008139998535626,0.10071460000472143,0.2999573999841232
RSVPLG03,km,20260305-153342,1.0.2,20251113-095759,788,Experiment,Both,1,Automatic,main,29,20260305-153658,local,local,300,H,H,A,E,A-H.png,E-H.png,hH,hH,mask-3.png,mask-1.png,h,1,0.6808114000014029,h,1,0.11051610001595691,0.04899690000456758,0.048253799992380664,0.09896210001897998,0.09832849999656901,0.3013783000060357
RSVPLG03,km,20260305-153342,1.0.2,20251113-095759,788,Experiment,Both,1,Automatic,main,30,20260305-153702,global,local,300,H,H,A,E,H-A.png,E-H.png,hH,hH,mask-4.png,mask-2.png,h,1,0.6005007000057958,h,1,0.14536579998093657,0.04917119999299757,0.04959260000032373,0.09841609999421053,0.10096169999451376,0.2994673000066541
RSVPLG03,km,20260305-153342,1.0.2,20251113-095759,788,Experiment,Both,1,Automatic,main,31,20260305-153707,local,local,300,H,S,A,A,A-H.png,A-S.png,hH,sS,mask-4.png,mask-4.png,h,1,1.488465800008271,s,1,0.12684370001079515,0.05134149998775683,0.05161439999938011,0.10068040000624023,0.10277070000302047,0.29978569998638704
RSVPLG03,km,20260305-153342,1.0.2,20251113-095759,788,Experiment,Both,1,Automatic,main,32,20260305-153712,global,global,750,S,H,E,A,S-E.png,H-A.png,sS,hH,mask-2.png,mask-2.png,s,1,0.4852775000035763,h,1,0.12088340002810583,0.048001800023484975,0.05092139999032952,0.09840909999911673,0.10154410000541247,0.7489051000156906
RSVPLG03,km,20260305-153342,1.0.2,20251113-095759,788,Experiment,Both,1,Automatic,main,33,20260305-153717,global,global,750,H,S,A,A,H-A.png,S-A.png,hH,sS,mask-4.png,mask-1.png,h,1,0.5212154999899212,s,1,0.11429729999508709,0.049447900004452094,0.04867250000825152,0.10056659998372197,0.0996486000076402,0.7528605999832507
RSVPLG03,km,20260305-153342,1.0.2,20251113-095759,788,Experiment,Both,1,Automatic,main,34,20260305-153721,global,global,750,H,H,E,E,H-E.png,H-E.png,hH,hH,mask-3.png,mask-4.png,h,1,0.5744759000081103,h,1,0.12765270000090823,0.04965329999686219,0.05006370000774041,0.09996560000581667,0.10294119999161921,0.7502858999941964
RSVPLG03,km,20260305-153342,1.0.2,20251113-095759,788,Experiment,Both,1,Automatic,main,35,20260305-153726,global,global,300,S,H,A,E,S-A.png,H-E.png,sS,hH,mask-4.png,mask-1.png,h,0,0.9869960999931209,s,0,0.12050669998279773,0.051975299982586876,0.050181099999463186,0.10174119999282993,0.09987010000622831,0.30169629998272285
RSVPLG03,km,20260305-153342,1.0.2,20251113-095759,788,Experiment,Both,1,Automatic,main,36,20260305-153731,local,local,750,S,S,E,A,E-S.png,A-S.png,sS,sS,mask-2.png,mask-4.png,h,0,0.8825102999981027,h,0,0.14645880000898615,0.05088819999946281,0.05131219999748282,0.09989219999988563,0.10030029999325052,0.7525099000195041
RSVPLG03,km,20260305-153342,1.0.2,20251113-095759,788,Experiment,Both,1,Automatic,main,37,20260305-153736,global,local,300,S,H,E,E,S-E.png,E-H.png,sS,hH,mask-3.png,mask-3.png,s,1,0.5537553000031039,s,0,0.07842320000054315,0.0500742000003811,0.04952699999557808,0.1037427999835927,0.09982230002060533,0.3024229999864474
RSVPLG03,km,20260305-153342,1.0.2,20251113-095759,788,Experiment,Both,1,Automatic,main,38,20260305-153740,global,local,750,S,H,E,E,S-E.png,E-H.png,sS,hH,mask-4.png,mask-2.png,s,1,1.380352899985155,h,1,0.18926480002119206,0.05014669999945909,0.0506722999853082,0.10152259998722002,0.10096489998977631,0.7521247999975458
RSVPLG03,km,20260305-153342,1.0.2,20251113-095759,788,Experiment,Both,1,Automatic,main,39,20260305-153746,local,local,750,H,H,E,E,E-H.png,E-H.png,hH,hH,mask-2.png,mask-4.png,h,1,0.43509329998050816,h,1,0.1136324999970384,0.05206519999774173,0.049182500020833686,0.10225960001116619,0.0995487000036519,0.7526361999916844
RSVPLG03,km,20260305-153342,1.0.2,20251113-095759,788,Experiment,Both,1,Automatic,main,40,20260305-153751,local,global,300,H,H,A,E,A-H.png,H-E.png,hH,hH,mask-4.png,mask-3.png,h,1,0.9840987999923527,h,1,0.1265869000053499,0.04978510001092218,0.04968560000997968,0.09899820000282489,0.1004460999974981,0.29905490000965074
RSVPLG03,km,20260305-153342,1.0.2,20251113-095759,788,Experiment,Both,1,Automatic,main,41,20260305-153755,local,global,300,S,S,A,E,A-S.png,S-E.png,sS,sS,mask-4.png,mask-4.png,s,1,1.5465725999965798,s,1,0.15394150000065565,0.0515795000246726,0.04971960000693798,0.10091170002124272,0.09935740000219084,0.301696600014111
RSVPLG03,km,20260305-153342,1.0.2,20251113-095759,788,Experiment,Both,1,Automatic,main,42,20260305-153801,global,global,300,S,S,A,E,S-A.png,S-E.png,sS,sS,mask-4.png,mask-3.png,h,0,0.9016690000134986,h,0,0.1399344999808818,0.04964389998349361,0.0511164000199642,0.1013334000017494,0.09985200001392514,0.3001108999887947
RSVPLG03,km,20260305-153342,1.0.2,20251113-095759,788,Experiment,Both,1,Automatic,main,43,20260305-153805,global,global,750,S,H,A,E,S-A.png,H-E.png,sS,hH,mask-4.png,mask-2.png,s,1,0.5822753000247758,h,1,0.17317650001496077,0.049964900012128055,0.05032569999457337,0.10238940000999719,0.1021191000181716,0.7516710000054445
RSVPLG03,km,20260305-153342,1.0.2,20251113-095759,788,Experiment,Both,1,Automatic,main,44,20260305-153810,local,local,300,S,H,A,A,A-S.png,A-H.png,sS,hH,mask-1.png,mask-2.png,s,1,0.7006600000022445,h,1,0.14699670000118203,0.050551499996799976,0.049336700001731515,0.09993070000200532,0.10125929999048822,0.30157840001629665
RSVPLG03,km,20260305-153342,1.0.2,20251113-095759,788,Experiment,Both,1,Automatic,main,45,20260305-153815,global,local,750,H,H,E,E,H-E.png,E-H.png,hH,hH,mask-2.png,mask-3.png,h,1,0.712794599996414,h,1,0.09713919999194331,0.04807230000733398,0.048243299999739975,0.0985651999944821,0.09813730002497323,0.7511419999937061
RSVPLG03,km,20260305-153342,1.0.2,20251113-095759,788,Experiment,Both,1,Automatic,main,46,20260305-153820,local,local,750,S,S,A,A,A-S.png,A-S.png,sS,sS,mask-4.png,mask-4.png,s,1,0.31693209998775274,s,1,0.0967188999929931,0.050212200003443286,0.049507200019434094,0.10105789999943227,0.10008180001750588,0.7517297999875154
RSVPLG03,km,20260305-153342,1.0.2,20251113-095759,788,Experiment,Both,1,Automatic,main,47,20260305-153824,global,global,750,S,S,E,E,S-E.png,S-E.png,sS,sS,mask-2.png,mask-4.png,s,1,1.959095400001388,s,1,0.11359539997647516,0.05078689998481423,0.04988710000179708,0.10033019998809323,0.09910960000706837,0.7524434999795631
RSVPLG03,km,20260305-153342,1.0.2,20251113-095759,788,Experiment,Both,1,Automatic,main,48,20260305-153830,local,local,300,H,H,E,A,E-H.png,A-H.png,hH,hH,mask-3.png,mask-2.png,s,0,0.8417932000011206,h,1,0.11224659997969866,0.04872510000132024,0.05127250001532957,0.09851239999989048,0.10092200001236051,0.29967509998823516
RSVPLG03,km,20260305-153342,1.0.2,20251113-095759,788,Experiment,Both,1,Automatic,main,49,20260305-153835,global,local,750,H,S,A,A,H-A.png,A-S.png,hH,sS,mask-2.png,mask-3.png,h,1,0.7932170999993104,s,1,0.061731900001177564,0.051133800006937236,0.050944399990839884,0.1008995000156574,0.10025429999222979,0.7514458000077866
RSVPLG03,km,20260305-153342,1.0.2,20251113-095759,788,Experiment,Both,1,Automatic,main,50,20260305-153840,global,local,300,S,H,E,E,S-E.png,E-H.png,sS,hH,mask-2.png,mask-4.png,s,1,0.5780737999884877,s,0,0.5737203999888152,0.0499998000159394,0.050728000001981854,0.10089030000381172,0.10026090001338162,0.3018805999890901
RSVPLG03,km,20260305-153342,1.0.2,20251113-095759,788,Experiment,Both,1,Automatic,main,51,20260305-153854,global,global,750,H,H,E,A,H-E.png,H-A.png,hH,hH,mask-2.png,mask-4.png,h,1,0.45075039999210276,h,1,0.09799830001429655,0.04986820000340231,0.051054100011242554,0.09997109998948872,0.09913529999903403,0.7516253999783657
RSVPLG03,km,20260305-153342,1.0.2,20251113-095759,788,Experiment,Both,1,Automatic,main,52,20260305-153859,local,global,300,H,S,E,A,E-H.png,S-A.png,hH,sS,mask-2.png,mask-1.png,h,1,0.5880217000085395,s,1,0.04814880000776611,0.04983089998131618,0.05035060000955127,0.09991059999447316,0.10109530002227984,0.3005076999834273
RSVPLG03,km,20260305-153342,1.0.2,20251113-095759,788,Experiment,Both,1,Automatic,main,53,20260305-153903,local,local,750,H,S,A,A,A-H.png,A-S.png,hH,sS,mask-4.png,mask-1.png,h,1,0.5323099000088405,s,1,0.06335419998504221,0.048915899998974055,0.04875050002010539,0.10054710000986233,0.0985930000024382,0.7527346999850124
RSVPLG03,km,20260305-153342,1.0.2,20251113-095759,788,Experiment,Both,1,Automatic,main,54,20260305-153908,local,global,750,H,S,E,A,E-H.png,S-A.png,hH,sS,mask-1.png,mask-3.png,h,1,0.6041061000141781,s,1,1.1065905999857932,0.04959949999465607,0.05114070000126958,0.10010869998950511,0.10129039999446832,0.7498837999883108
RSVPLG03,km,20260305-153342,1.0.2,20251113-095759,788,Experiment,Both,1,Automatic,main,55,20260305-153913,global,local,300,H,S,A,E,H-A.png,E-S.png,hH,sS,mask-3.png,mask-2.png,h,1,0.7037608999817166,s,1,0.049520200002007186,0.05150539998430759,0.048803499987116084,0.10222829997655936,0.09828050000942312,0.3022360999893863
RSVPLG03,km,20260305-153342,1.0.2,20251113-095759,788,Experiment,Both,1,Automatic,main,56,20260305-153918,global,local,300,H,H,E,A,H-E.png,A-H.png,hH,hH,mask-4.png,mask-4.png,h,1,0.881014700018568,h,1,0.11085029999958351,0.05191839998587966,0.05130039999494329,0.0997497999924235,0.10052579999319278,0.2996337999938987
RSVPLG03,km,20260305-153342,1.0.2,20251113-095759,788,Experiment,Both,1,Automatic,main,57,20260305-153922,local,local,300,S,S,E,E,E-S.png,E-S.png,sS,sS,mask-3.png,mask-3.png,s,1,1.3312072000117041,s,1,0.0922355999937281,0.05012089997762814,0.050950200005900115,0.09900669998023659,0.09974960002000444,0.3004157999821473
RSVPLG03,km,20260305-153342,1.0.2,20251113-095759,788,Experiment,Both,1,Automatic,main,58,20260305-153927,local,global,300,H,S,A,E,A-H.png,S-E.png,hH,sS,mask-2.png,mask-4.png,h,1,0.7997192000038922,s,1,0.10835950000910088,0.05137580001610331,0.05031840002629906,0.10201100000995211,0.09913750001578592,0.3020875999936834
RSVPLG03,km,20260305-153342,1.0.2,20251113-095759,788,Experiment,Both,1,Automatic,main,59,20260305-153932,global,global,750,S,S,A,A,S-A.png,S-A.png,sS,sS,mask-1.png,mask-3.png,s,1,0.7341641999955755,s,1,0.09245799999916926,0.047831600008066744,0.050668799987761304,0.09877199999755248,0.10036429998581298,0.7501154000055976
RSVPLG03,km,20260305-153342,1.0.2,20251113-095759,788,Experiment,Both,1,Automatic,main,60,20260305-153937,local,local,750,H,H,A,E,A-H.png,E-H.png,hH,hH,mask-2.png,mask-3.png,h,1,0.4100295999960508,h,1,0.11128489999100566,0.04831169999670237,0.05005190000520088,0.09950089998892508,0.09965039999224246,0.7486920999945141
RSVPLG03,km,20260305-153342,1.0.2,20251113-095759,788,Experiment,Both,1,Automatic,main,61,20260305-153941,local,global,300,S,H,E,E,E-S.png,H-E.png,sS,hH,mask-3.png,mask-1.png,s,1,1.1020651999861002,h,1,0.12865480000618845,0.05038689999491908,0.051787199976388365,0.10017140000127256,0.10103019999223761,0.2995250000094529
RSVPLG03,km,20260305-153342,1.0.2,20251113-095759,788,Experiment,Both,1,Automatic,main,62,20260305-153946,global,local,300,S,H,E,A,S-E.png,A-H.png,sS,hH,mask-1.png,mask-4.png,s,1,1.4868049999931827,h,1,0.20451630000025034,0.04942140000639483,0.04965449997689575,0.09983520000241697,0.09878999998909421,0.30039380001835525
RSVPLG03,km,20260305-153342,1.0.2,20251113-095759,788,Experiment,Both,1,Automatic,main,63,20260305-153952,local,global,750,H,S,A,E,A-H.png,S-E.png,hH,sS,mask-2.png,mask-4.png,h,1,0.6676044999912847,s,1,0.1117163999879267,0.05039670001133345,0.04992540000239387,0.10026129998732358,0.10081430000718683,0.7511677999864332
RSVPLG03,km,20260305-153342,1.0.2,20251113-095759,788,Experiment,Both,1,Automatic,main,64,20260305-153956,local,local,300,S,S,E,A,E-S.png,A-S.png,sS,sS,mask-2.png,mask-3.png,s,1,0.682267199998023,h,0,0.06378669998957776,0.048585400014417246,0.05087239999556914,0.10043880000011995,0.09902199998032302,0.2997134000179358
RSVPLG03,km,20260305-153342,1.0.2,20251113-095759,788,Experiment,Both,1,Automatic,main,65,20260305-154001,global,global,300,H,H,A,A,H-A.png,H-A.png,hH,hH,mask-4.png,mask-3.png,h,1,0.606977800023742,h,1,0.10568409998086281,0.05019829998491332,0.04992250000941567,0.10188459997880273,0.10043940000468865,0.3020403999835253
RSVPLG03,km,20260305-153342,1.0.2,20251113-095759,788,Experiment,Both,1,Automatic,main,66,20260305-154005,global,local,750,H,S,A,E,H-A.png,E-S.png,hH,sS,mask-1.png,mask-2.png,h,1,0.47436299998662435,s,1,0.08269409998320043,0.047683300013886765,0.04868720000376925,0.0978264000150375,0.09931419999338686,0.7497714000055566
RSVPLG03,km,20260305-153342,1.0.2,20251113-095759,788,Experiment,Both,1,Automatic,main,67,20260305-154010,local,local,750,S,S,A,E,A-S.png,E-S.png,sS,sS,mask-4.png,mask-4.png,s,1,0.3304694000107702,s,1,0.07220439999946393,0.04950659998576157,0.050187300017569214,0.10027199998148717,0.1003997000225354,0.7507578999793623
RSVPLG03,km,20260305-153342,1.0.2,20251113-095759,788,Experiment,Both,1,Automatic,main,68,20260305-154014,global,local,300,S,S,E,E,S-E.png,E-S.png,sS,sS,mask-2.png,mask-4.png,s,1,1.4898801000090316,s,1,0.18637999999918975,0.04890029999660328,0.04958680001436733,0.09854310000082478,0.09951289999298751,0.29963779999525286
RSVPLG03,km,20260305-153342,1.0.2,20251113-095759,788,Experiment,Both,1,Automatic,main,69,20260305-154020,global,local,300,S,H,A,E,S-A.png,E-H.png,sS,hH,mask-4.png,mask-4.png,h,0,1.8534633000090253,h,1,0.0915876999788452,0.04990809998707846,0.051255500002298504,0.1009734999970533,0.10131530000944622,0.2997386999777518
RSVPLG03,km,20260305-153342,1.0.2,20251113-095759,788,Experiment,Both,1,Automatic,main,70,20260305-154025,global,local,750,S,S,E,A,S-E.png,A-S.png,sS,sS,mask-4.png,mask-4.png,s,1,0.5926291000214405,s,1,0.09175230000982992,0.04785840000840835,0.0505639000039082,0.09847150000859983,0.10053250001510605,0.749800999998115
RSVPLG03,km,20260305-153342,1.0.2,20251113-095759,788,Experiment,Both,1,Automatic,main,71,20260305-154030,local,global,750,S,H,E,A,E-S.png,H-A.png,sS,hH,mask-3.png,mask-2.png,s,1,1.400089900009334,s,0,1.18166800000472,0.04935950000071898,0.05081749998498708,0.09934999997494742,0.10088660000474192,0.751615999994101
RSVPLG03,km,20260305-153342,1.0.2,20251113-095759,788,Experiment,Both,1,Automatic,main,72,20260305-154037,local,global,750,S,S,A,A,A-S.png,S-A.png,sS,sS,mask-1.png,mask-2.png,s,1,0.580742599995574,h,0,0.1298930999764707,0.05008990000351332,0.049952900008065626,0.10064509999938309,0.10068390000378713,0.7509659999923315
RSVPLG03,km,20260305-153342,1.0.2,20251113-095759,788,Experiment,Both,1,Automatic,main,73,20260305-154041,global,global,300,S,S,A,E,S-A.png,S-E.png,sS,sS,mask-2.png,mask-3.png,s,1,1.5633657000144012,h,0,0.11108919998514466,0.05022089998237789,0.048301200004061684,0.09999980000429787,0.09906550002051517,0.3015630999871064
RSVPLG03,km,20260305-153342,1.0.2,20251113-095759,788,Experiment,Both,1,Automatic,main,74,20260305-154047,local,local,300,H,S,A,E,A-H.png,E-S.png,hH,sS,mask-4.png,mask-2.png,h,1,0.7619540999876335,s,1,0.06549139998969622,0.04904559999704361,0.04964849998941645,0.09981329998117872,0.10027870000340044,0.3007649999926798
RSVPLG03,km,20260305-153342,1.0.2,20251113-095759,788,Experiment,Both,1,Automatic,main,75,20260305-154051,global,local,750,S,H,E,E,S-E.png,E-H.png,sS,hH,mask-1.png,mask-4.png,s,1,0.8268685000075493,s,0,0.11300850001862273,0.05109780002385378,0.05153950001113117,0.10015030001522973,0.10050760000012815,0.7522287000028882
RSVPLG03,km,20260305-153342,1.0.2,20251113-095759,788,Experiment,Both,1,Automatic,main,76,20260305-154108,local,global,750,H,S,E,A,E-H.png,S-A.png,hH,sS,mask-4.png,mask-2.png,h,1,0.694558799994411,s,1,0.09288589999778196,0.04992140000103973,0.05147239999496378,0.10121480000088923,0.10086959999171086,0.7505407000135165
RSVPLG03,km,20260305-153342,1.0.2,20251113-095759,788,Experiment,Both,1,Automatic,main,77,20260305-154113,global,local,300,H,S,A,E,H-A.png,E-S.png,hH,sS,mask-4.png,mask-1.png,h,1,0.5269860000116751,s,1,0.07920989999547601,0.049901299993507564,0.05037740000989288,0.10157609998714179,0.10017069999594241,0.3017018999962602
RSVPLG03,km,20260305-153342,1.0.2,20251113-095759,788,Experiment,Both,1,Automatic,main,78,20260305-154117,local,local,750,H,S,A,E,A-H.png,E-S.png,hH,sS,mask-2.png,mask-2.png,h,1,0.37417930000810884,s,1,0.03453639999497682,0.049785700015490875,0.04994830000214279,0.10085390001768246,0.09959690002142452,0.7521899999992456
RSVPLG03,km,20260305-153342,1.0.2,20251113-095759,788,Experiment,Both,1,Automatic,main,79,20260305-154122,local,local,750,H,S,A,E,A-H.png,E-S.png,hH,sS,mask-4.png,mask-2.png,h,1,0.2547608000168111,s,1,0.04901430002064444,0.0503121999790892,0.049933599977521226,0.09890610000002198,0.10061799999675713,0.7514637999993283
RSVPLG03,km,20260305-153342,1.0.2,20251113-095759,788,Experiment,Both,1,Automatic,main,80,20260305-154126,local,global,300,S,H,A,E,A-S.png,H-E.png,sS,hH,mask-1.png,mask-3.png,s,1,0.7065083000052255,h,1,0.0814816000056453,0.04959270000108518,0.04935710001154803,0.09990990001824684,0.09934790001716465,0.30174110000371
RSVPLG03,km,20260305-153342,1.0.2,20251113-095759,788,Experiment,Both,1,Automatic,main,81,20260305-154131,local,global,750,S,S,A,A,A-S.png,S-A.png,sS,sS,mask-1.png,mask-3.png,s,1,0.6839664000144694,h,0,0.0653077999886591,0.05244620001758449,0.05038640002021566,0.10170010000001639,0.10057510001934133,0.7523273999977391
RSVPLG03,km,20260305-153342,1.0.2,20251113-095759,788,Experiment,Both,1,Automatic,main,82,20260305-154135,global,global,300,H,S,A,E,H-A.png,S-E.png,hH,sS,mask-4.png,mask-4.png,s,0,2.029930600023363,h,0,0.07660020000184886,0.0508616000006441,0.05003270000452176,0.10003070000675507,0.10199240001384169,0.30018099999870174
RSVPLG03,km,20260305-153342,1.0.2,20251113-095759,788,Experiment,Both,1,Automatic,main,83,20260305-154141,local,local,300,H,S,A,E,A-H.png,E-S.png,hH,sS,mask-1.png,mask-4.png,h,1,0.44822709998697974,s,1,0.029406500019831583,0.048667199996998534,0.051025799999479204,0.09933550001005642,0.10101780001423322,0.29899989999830723
RSVPLG03,km,20260305-153342,1.0.2,20251113-095759,788,Experiment,Both,1,Automatic,main,84,20260305-154145,global,local,300,H,S,A,E,H-A.png,E-S.png,hH,sS,mask-1.png,mask-2.png,h,1,0.3682814000057988,s,1,0.008527800004230812,0.049015099997632205,0.0507060999807436,0.09991079999599606,0.099747500004014,0.2995451000169851
RSVPLG03,km,20260305-153342,1.0.2,20251113-095759,788,Experiment,Both,1,Automatic,main,85,20260305-154149,local,local,750,S,H,E,A,E-S.png,A-H.png,sS,hH,mask-3.png,mask-1.png,s,1,0.36588890000712126,h,1,0.04617260000668466,0.050062900001648813,0.04991500001051463,0.1023875999962911,0.1001451000047382,0.7530616000003647
RSVPLG03,km,20260305-153342,1.0.2,20251113-095759,788,Experiment,Both,1,Automatic,main,86,20260305-154154,local,global,300,H,S,A,A,A-H.png,S-A.png,hH,sS,mask-1.png,mask-1.png,h,1,0.5414149999851361,s,1,0.04897989999153651,0.049049399996874854,0.04966940000304021,0.09967529997811653,0.09964489997946657,0.300314599997364
RSVPLG03,km,20260305-153342,1.0.2,20251113-095759,788,Experiment,Both,1,Automatic,main,87,20260305-154158,global,global,300,S,H,A,E,S-A.png,H-E.png,sS,hH,mask-4.png,mask-3.png,s,1,0.6078058000130113,h,1,0.07384290001937188,0.0480321999930311,0.049734999978682026,0.09898919999250211,0.10122649997356348,0.2981350000191014
RSVPLG03,km,20260305-153342,1.0.2,20251113-095759,788,Experiment,Both,1,Automatic,main,88,20260305-154202,local,local,300,S,S,E,A,E-S.png,A-S.png,sS,sS,mask-2.png,mask-2.png,s,1,0.6079101000213996,h,0,0.05532499999389984,0.05054929998004809,0.04961720001301728,0.10024429997429252,0.10138620002544485,0.29940189997432753
RSVPLG03,km,20260305-153342,1.0.2,20251113-095759,788,Experiment,Both,1,Automatic,main,89,20260305-154207,local,global,300,S,H,E,E,E-S.png,H-E.png,sS,hH,mask-1.png,mask-3.png,s,1,1.5980188999965321,s,0,0.09806590000516735,0.049824099987745285,0.04886959999566898,0.10018869998748414,0.09867439998197369,0.30108380000456236
RSVPLG03,km,20260305-153342,1.0.2,20251113-095759,788,Experiment,Both,1,Automatic,main,90,20260305-154212,global,global,300,S,H,A,E,S-A.png,H-E.png,sS,hH,mask-2.png,mask-3.png,s,1,1.0167988000030164,h,1,0.07807750001666136,0.05141650000587106,0.04946160002145916,0.10007159999804571,0.1000361000187695,0.3019596999802161
RSVPLG03,km,20260305-153342,1.0.2,20251113-095759,788,Experiment,Both,1,Automatic,main,91,20260305-154217,local,local,750,S,H,E,A,E-S.png,A-H.png,sS,hH,mask-2.png,mask-1.png,s,1,0.7119478000095114,h,1,0.08070720001705922,0.048717600002419204,0.050148499984061345,0.10044760000891984,0.1014009999926202,0.7509351000189781
RSVPLG03,km,20260305-153342,1.0.2,20251113-095759,788,Experiment,Both,1,Automatic,main,92,20260305-154222,global,global,750,S,S,A,E,S-A.png,S-E.png,sS,sS,mask-4.png,mask-1.png,s,1,1.0136449999990873,s,1,0.10819830000400543,0.048680400010198355,0.04954189999261871,0.09874929999932647,0.1003175999794621,0.7490862000267953
RSVPLG03,km,20260305-153342,1.0.2,20251113-095759,788,Experiment,Both,1,Automatic,main,93,20260305-154227,global,global,300,S,H,E,E,S-E.png,H-E.png,sS,hH,mask-2.png,mask-1.png,s,1,0.5245367999887094,h,1,0.07948509999550879,0.05067080000299029,0.05100450001191348,0.10071970001445152,0.09985960001358762,0.3005059999995865
RSVPLG03,km,20260305-153342,1.0.2,20251113-095759,788,Experiment,Both,1,Automatic,main,94,20260305-154231,global,local,750,S,S,E,A,S-E.png,A-S.png,sS,sS,mask-4.png,mask-4.png,s,1,0.44251920000533573,s,1,0.08277259999886155,0.049336500000208616,0.048847900005057454,0.10017819999484345,0.10019530000863597,0.7509275999909732
RSVPLG03,km,20260305-153342,1.0.2,20251113-095759,788,Experiment,Both,1,Automatic,main,95,20260305-154236,local,global,750,S,S,A,A,A-S.png,S-A.png,sS,sS,mask-3.png,mask-2.png,s,1,0.47175540000898764,s,1,0.09858520000125282,0.04986369999824092,0.04784240000299178,0.09845230000792071,0.09907090000342578,0.7517117999959737
RSVPLG03,km,20260305-153342,1.0.2,20251113-095759,788,Experiment,Both,1,Automatic,main,96,20260305-154240,global,global,750,S,H,E,A,S-E.png,H-A.png,sS,hH,mask-3.png,mask-1.png,s,1,0.46425530000124127,h,1,0.09315930001321249,0.05125129999942146,0.0499095999985002,0.10150040002190508,0.09985309999319725,0.7526999000110663
RSVPLG03,km,20260305-153342,1.0.2,20251113-095759,788,Experiment,Both,1,Automatic,main,97,20260305-154245,local,local,750,H,S,E,E,E-H.png,E-S.png,hH,sS,mask-4.png,mask-3.png,h,1,0.8305829000019003,s,1,0.04949159998795949,0.050055200001224875,0.050557400012621656,0.10065389997907914,0.10130090001621284,0.75120609998703
RSVPLG03,km,20260305-153342,1.0.2,20251113-095759,788,Experiment,Both,1,Automatic,main,98,20260305-154250,global,global,750,S,H,A,A,S-A.png,H-A.png,sS,hH,mask-1.png,mask-4.png,s,1,0.3394525999901816,h,1,0.11358569998992607,0.050298400019528344,0.0507037999923341,0.10079830000177026,0.10107480001170188,0.7510599000088405
RSVPLG03,km,20260305-153342,1.0.2,20251113-095759,788,Experiment,Both,1,Automatic,main,99,20260305-154255,local,global,300,S,H,E,A,E-S.png,H-A.png,sS,hH,mask-4.png,mask-4.png,s,1,0.7367931999906432,h,1,0.07342440000502393,0.048733700008597225,0.04962490001344122,0.0989558000001125,0.1012273000087589,0.3000270999909844
RSVPLG03,km,20260305-153342,1.0.2,20251113-095759,788,Experiment,Both,1,Automatic,main,100,20260305-154259,global,global,750,S,S,A,A,S-A.png,S-A.png,sS,sS,mask-3.png,mask-4.png,s,1,0.7588596999994479,s,1,0.08259119998547249,0.04893289998290129,0.051039000012679026,0.09891889998107217,0.10023909999290481,0.7494904999912251
