exp,exp_initials,runtime,ver,modtime,sub,blocktype,targets,cuetype,mode,trialtype,trial,trialtime,t1_level,t2_level,t2_lag,t1,t2,distractor1,distractor2,stimfile1,stimfile2,t1_corr,t2_corr,maskfile1,maskfile2,t1_resp,t1_acc,t1_rt,t2_resp,t2_acc,t2_rt,t1_dur,t2_dur,t1mask_soa,t2mask_soa,t1t2_soa
RSVPLG03,km,20260416-151034,1.0.2,20251113-095759,822,Introduction,T1,1,Automatic,main,1,20260416-151110,local,global,750,H,S,E,E,E-H.png,S-E.png,hH,sS,mask-1.png,mask-1.png,s,0,2.9097722999285907,none,-5,0,0.09820200013928115,0.10039090015925467,0.1967307000886649,0.20057750004343688,0.7454174000304192
RSVPLG03,km,20260416-151034,1.0.2,20251113-095759,822,Introduction,T1,1,Automatic,main,2,20260416-151117,local,local,750,H,S,A,A,A-H.png,A-S.png,hH,sS,mask-3.png,mask-4.png,h,1,0.7738079999107867,none,-5,0,0.09942479990422726,0.10002429992891848,0.20059020002372563,0.1991198998875916,0.747711000032723
RSVPLG03,km,20260416-151034,1.0.2,20251113-095759,822,Introduction,T1,1,Automatic,main,3,20260416-151122,global,global,750,H,S,A,E,H-A.png,S-E.png,hH,sS,mask-4.png,mask-1.png,h,1,1.4948325001168996,none,-5,0,0.0990353999659419,0.09887300012633204,0.20000199996866286,0.1991409999318421,0.7483343000058085
RSVPLG03,km,20260416-151034,1.0.2,20251113-095759,822,Introduction,T1,1,Automatic,main,4,20260416-151127,local,local,750,H,S,A,A,A-H.png,A-S.png,hH,sS,mask-3.png,mask-1.png,h,1,0.5921364000532776,none,-5,0,0.10006259987130761,0.09993619984015822,0.19795530010014772,0.1985789998434484,0.7462216001003981
RSVPLG03,km,20260416-151034,1.0.2,20251113-095759,822,Introduction,T1,1,Automatic,main,5,20260416-151132,global,local,750,H,H,E,E,H-E.png,E-H.png,hH,hH,mask-1.png,mask-3.png,h,1,0.9895615999121219,none,-5,0,0.09857969987206161,0.10089589981362224,0.19891489995643497,0.19948809989728034,0.746032000053674
RSVPLG03,km,20260416-151034,1.0.2,20251113-095759,822,Introduction,T1,1,Automatic,main,6,20260416-151137,global,local,750,H,H,A,E,H-A.png,E-H.png,hH,hH,mask-1.png,mask-1.png,h,1,1.2993651998694986,none,-5,0,0.09913779981434345,0.10010979999788105,0.19963189982809126,0.19969199993647635,0.7469585998915136
RSVPLG03,km,20260416-151034,1.0.2,20251113-095759,822,Introduction,T1,1,Automatic,main,7,20260416-151143,local,local,750,S,S,E,A,E-S.png,A-S.png,sS,sS,mask-3.png,mask-3.png,s,1,0.5083337998948991,none,-5,0,0.09838930005207658,0.09800689993426204,0.19800910004414618,0.19818870001472533,0.7472061000298709
RSVPLG03,km,20260416-151034,1.0.2,20251113-095759,822,Introduction,T1,1,Automatic,main,8,20260416-151147,local,global,750,S,S,A,E,A-S.png,S-E.png,sS,sS,mask-4.png,mask-4.png,h,0,3.1070043998770416,none,-5,0,0.09818849992007017,0.09959249990060925,0.198405799921602,0.20023949979804456,0.7462728000245988
RSVPLG03,km,20260416-151034,1.0.2,20251113-095759,822,Introduction,T1,1,Automatic,main,9,20260416-151155,global,local,750,S,H,A,A,S-A.png,A-H.png,sS,hH,mask-4.png,mask-2.png,s,1,0.6311990998219699,none,-5,0,0.09900619997642934,0.1006735002156347,0.19932590005919337,0.19904940016567707,0.7489219999406487
RSVPLG03,km,20260416-151034,1.0.2,20251113-095759,822,Introduction,T1,1,Automatic,main,10,20260416-151159,global,local,750,S,S,A,A,S-A.png,A-S.png,sS,sS,mask-4.png,mask-1.png,h,0,1.596434999955818,none,-5,0,0.09786270000040531,0.09940119995735586,0.19768269988708198,0.19905920000746846,0.7465919000096619
RSVPLG03,km,20260416-151034,1.0.2,20251113-095759,822,Introduction,T1,1,Automatic,main,11,20260416-151205,local,local,750,S,S,A,A,A-S.png,A-S.png,sS,sS,mask-2.png,mask-4.png,s,1,0.7604342999402434,none,-5,0,0.09871869999915361,0.1003054000902921,0.19998289993964136,0.19872029987163842,0.7478193999268115
RSVPLG03,km,20260416-151034,1.0.2,20251113-095759,822,Introduction,T1,1,Automatic,main,12,20260416-151210,global,global,750,S,S,E,A,S-E.png,S-A.png,sS,sS,mask-4.png,mask-1.png,s,1,0.5255856001749635,none,-5,0,0.10091409995220602,0.10042789997532964,0.20061299996450543,0.19986199983395636,0.7482933001592755
RSVPLG03,km,20260416-151034,1.0.2,20251113-095759,822,Introduction,T1,1,Automatic,main,13,20260416-151215,global,global,750,S,H,A,A,S-A.png,H-A.png,sS,hH,mask-1.png,mask-1.png,h,0,0.710264699999243,none,-5,0,0.09861629991792142,0.0983316998463124,0.19833069993183017,0.19882129994221032,0.7487113999668509
RSVPLG03,km,20260416-151034,1.0.2,20251113-095759,822,Introduction,T1,1,Automatic,main,14,20260416-151220,global,global,750,H,H,A,E,H-A.png,H-E.png,hH,hH,mask-4.png,mask-4.png,h,1,0.7896682999562472,none,-5,0,0.09918290004134178,0.10000479989685118,0.19999000011011958,0.20006390009075403,0.7464248000178486
RSVPLG03,km,20260416-151034,1.0.2,20251113-095759,822,Introduction,T1,1,Automatic,main,15,20260416-151225,local,global,750,H,S,A,A,A-H.png,S-A.png,hH,sS,mask-1.png,mask-2.png,none,-6,0,none,-5,0,0.09826459991745651,0.10055729979649186,0.1991385999135673,0.19971759989857674,0.7466688000131398
RSVPLG03,km,20260416-151241,1.0.2,20251113-095759,822,Practice,T1,1,Automatic,main,1,20260416-151303,global,local,750,H,H,A,E,H-A.png,E-H.png,hH,hH,mask-3.png,mask-4.png,h,1,1.365011200075969,none,-5,0,0.04617229988798499,0.04910599999129772,0.09617659985087812,0.10007410007528961,0.7457087999209762
RSVPLG03,km,20260416-151241,1.0.2,20251113-095759,822,Practice,T1,1,Automatic,main,2,20260416-151309,global,global,750,H,S,E,E,H-E.png,S-E.png,hH,sS,mask-3.png,mask-4.png,h,1,0.7900608000345528,none,-5,0,0.047400400042533875,0.04950319998897612,0.09794080001302063,0.10073400009423494,0.7465486000292003
RSVPLG03,km,20260416-151241,1.0.2,20251113-095759,822,Practice,T1,1,Automatic,main,3,20260416-151314,local,global,300,H,S,A,A,A-H.png,S-A.png,hH,sS,mask-1.png,mask-3.png,h,1,1.1317280000075698,none,-5,0,0.0484009999781847,0.05101559986360371,0.0977673998568207,0.10166669986210763,0.29724689992144704
RSVPLG03,km,20260416-151241,1.0.2,20251113-095759,822,Practice,T1,1,Automatic,main,4,20260416-151318,local,local,300,H,H,A,E,A-H.png,E-H.png,hH,hH,mask-2.png,mask-2.png,h,1,0.6576817000750452,none,-5,0,0.04935480002313852,0.048759200144559145,0.0990565000101924,0.09969220007769763,0.2991593999322504
RSVPLG03,km,20260416-151241,1.0.2,20251113-095759,822,Practice,T1,1,Automatic,main,5,20260416-151322,global,local,300,S,S,A,A,S-A.png,A-S.png,sS,sS,mask-3.png,mask-3.png,s,1,0.7145803000312299,none,-5,0,0.04971499997191131,0.05089600011706352,0.09978480008430779,0.1006859999615699,0.29891399992629886
RSVPLG03,km,20260416-151241,1.0.2,20251113-095759,822,Practice,T1,1,Automatic,main,6,20260416-151327,local,local,750,H,H,E,A,E-H.png,A-H.png,hH,hH,mask-3.png,mask-1.png,h,1,0.39157580002211034,none,-5,0,0.05000600009225309,0.051200900226831436,0.09959300002083182,0.10023190011270344,0.7487977999262512
RSVPLG03,km,20260416-151241,1.0.2,20251113-095759,822,Practice,T1,1,Automatic,main,7,20260416-151331,global,global,300,H,H,E,A,H-E.png,H-A.png,hH,hH,mask-3.png,mask-4.png,s,0,4.517536399886012,none,-5,0,0.049145900178700686,0.05089109996333718,0.1004251001868397,0.09991769981570542,0.29831850016489625
RSVPLG03,km,20260416-151241,1.0.2,20251113-095759,822,Practice,T1,1,Automatic,main,8,20260416-151339,local,local,300,H,S,E,A,E-H.png,A-S.png,hH,sS,mask-3.png,mask-1.png,h,1,1.8075247998349369,none,-5,0,0.04924570000730455,0.04826600011438131,0.10124689992517233,0.09965730016119778,0.2997576999478042
RSVPLG03,km,20260416-151241,1.0.2,20251113-095759,822,Practice,T1,1,Automatic,main,9,20260416-151345,local,global,750,S,H,A,A,A-S.png,H-A.png,sS,hH,mask-1.png,mask-2.png,s,1,0.9651287999004126,none,-5,0,0.049901199992746115,0.04984849994070828,0.1000161999836564,0.09958389983512461,0.7485072000417858
RSVPLG03,km,20260416-151241,1.0.2,20251113-095759,822,Practice,T1,1,Automatic,main,10,20260416-151350,global,global,750,H,H,E,E,H-E.png,H-E.png,hH,hH,mask-4.png,mask-4.png,h,1,0.4484405000694096,none,-5,0,0.048606500029563904,0.04881249996833503,0.09865820012055337,0.09988689981400967,0.7492413001600653
RSVPLG03,km,20260416-151241,1.0.2,20251113-095759,822,Practice,T1,1,Automatic,main,11,20260416-151354,local,global,300,S,H,A,E,A-S.png,H-E.png,sS,hH,mask-2.png,mask-1.png,s,1,0.7734773000702262,none,-5,0,0.04875089996494353,0.050355999963358045,0.10110159986652434,0.10086000012233853,0.2992779999040067
RSVPLG03,km,20260416-151241,1.0.2,20251113-095759,822,Practice,T1,1,Automatic,main,12,20260416-151358,local,global,750,S,H,A,A,A-S.png,H-A.png,sS,hH,mask-2.png,mask-1.png,s,1,2.293126500211656,none,-5,0,0.050326500087976456,0.0502959000878036,0.10053980001248419,0.10139490012079477,0.7481499998830259
RSVPLG03,km,20260416-151241,1.0.2,20251113-095759,822,Practice,T1,1,Automatic,main,13,20260416-151405,global,local,750,H,S,E,A,H-E.png,A-S.png,hH,sS,mask-4.png,mask-3.png,h,1,0.48665360012091696,none,-5,0,0.05000339983962476,0.04999570013023913,0.09917819988913834,0.09970950009301305,0.7507975997868925
RSVPLG03,km,20260416-151241,1.0.2,20251113-095759,822,Practice,T1,1,Automatic,main,14,20260416-151409,global,global,300,S,H,E,E,S-E.png,H-E.png,sS,hH,mask-2.png,mask-2.png,s,1,0.421919499989599,none,-5,0,0.05311489989981055,0.050255500013008714,0.10182349989190698,0.10008169990032911,0.30039260000921786
RSVPLG03,km,20260416-151241,1.0.2,20251113-095759,822,Practice,T1,1,Automatic,main,15,20260416-151413,global,local,300,S,S,A,E,S-A.png,E-S.png,sS,sS,mask-1.png,mask-4.png,s,1,0.47932470007799566,none,-5,0,0.04948460008017719,0.049974000081419945,0.09962170012295246,0.10083710006438196,0.3012842000462115
RSVPLG03,km,20260416-151241,1.0.2,20251113-095759,822,Practice,T1,1,Automatic,main,16,20260416-151417,local,local,750,S,H,A,A,A-S.png,A-H.png,sS,hH,mask-1.png,mask-3.png,s,1,0.3886480999644846,none,-5,0,0.04942459985613823,0.05048649990931153,0.10110559989698231,0.10167140001431108,0.7479201999958605
RSVPLG03,km,20260416-151503,1.0.2,20251113-095759,822,Introduction,Both,1,Automatic,main,1,20260416-151549,local,global,750,S,S,A,A,A-S.png,S-A.png,sS,sS,mask-4.png,mask-4.png,h,0,2.424265299923718,s,1,3.1813715999014676,0.09211579989641905,0.09815090009942651,0.19244589982554317,0.19853890012018383,0.7454801998101175
RSVPLG03,km,20260416-151503,1.0.2,20251113-095759,822,Introduction,Both,1,Automatic,main,2,20260416-151559,local,local,750,S,S,A,A,A-S.png,A-S.png,sS,sS,mask-1.png,mask-4.png,h,0,2.690344100119546,s,1,0.705522800097242,0.1003245001193136,0.09982700017280877,0.20146110001951456,0.2018476000521332,0.7518899999558926
RSVPLG03,km,20260416-151503,1.0.2,20251113-095759,822,Introduction,Both,1,Automatic,main,3,20260416-151606,global,global,750,S,S,E,A,S-E.png,S-A.png,sS,sS,mask-1.png,mask-3.png,s,1,1.995330800069496,s,1,0.7864991000387818,0.09988540015183389,0.10038470011204481,0.20066510001197457,0.20052190008573234,0.750820399960503
RSVPLG03,km,20260416-151503,1.0.2,20251113-095759,822,Introduction,Both,1,Automatic,main,4,20260416-151614,local,global,750,H,S,A,E,A-H.png,S-E.png,hH,sS,mask-4.png,mask-3.png,h,1,2.9495638001244515,h,0,1.0807056999765337,0.10042609996162355,0.09989450010471046,0.20067719998769462,0.20036579994484782,0.7515576998703182
RSVPLG03,km,20260416-151503,1.0.2,20251113-095759,822,Introduction,Both,1,Automatic,main,5,20260416-151622,local,global,750,S,H,E,E,E-S.png,H-E.png,sS,hH,mask-1.png,mask-2.png,s,1,0.7854220999870449,s,0,1.8546871000435203,0.09919729991815984,0.10076039982959628,0.19944719993509352,0.19998819986358285,0.7502838000655174
RSVPLG03,km,20260416-151503,1.0.2,20251113-095759,822,Introduction,Both,1,Automatic,main,6,20260416-151629,global,local,750,S,S,E,A,S-E.png,A-S.png,sS,sS,mask-4.png,mask-3.png,s,1,0.9801201999653131,h,0,0.41690379986539483,0.10021300008520484,0.10307299997657537,0.1986984999384731,0.20160629996098578,0.750226000091061
RSVPLG03,km,20260416-151503,1.0.2,20251113-095759,822,Introduction,Both,1,Automatic,main,7,20260416-151635,local,global,750,S,H,A,E,A-S.png,H-E.png,sS,hH,mask-4.png,mask-4.png,s,1,2.453850300051272,h,1,0.8806090999860317,0.0997401000931859,0.10092750005424023,0.2022065999917686,0.20041620009578764,0.7507615999784321
RSVPLG03,km,20260416-151503,1.0.2,20251113-095759,822,Introduction,Both,1,Automatic,main,8,20260416-151642,local,local,750,S,S,A,A,A-S.png,A-S.png,sS,sS,mask-4.png,mask-4.png,s,1,1.925570399966091,h,0,1.344041199889034,0.09982199990190566,0.09964659996330738,0.19992699986323714,0.19967769994400442,0.752353599993512
RSVPLG03,km,20260416-151503,1.0.2,20251113-095759,822,Introduction,Both,1,Automatic,main,9,20260416-151650,global,local,750,H,S,A,A,H-A.png,A-S.png,hH,sS,mask-3.png,mask-3.png,s,0,5.286488299956545,h,0,0.5599392000585794,0.10188279999420047,0.09968849993310869,0.19987330003641546,0.1996833998709917,0.7517198000568897
RSVPLG03,km,20260416-151503,1.0.2,20251113-095759,822,Introduction,Both,1,Automatic,main,10,20260416-151700,local,local,750,H,S,A,E,A-H.png,E-S.png,hH,sS,mask-4.png,mask-1.png,h,1,0.6436099999118596,s,1,0.5293534998781979,0.10088990000076592,0.10148829990066588,0.20036210003308952,0.19834730005823076,0.7513792000245303
RSVPLG03,km,20260416-151503,1.0.2,20251113-095759,822,Introduction,Both,1,Automatic,main,11,20260416-151706,global,local,750,H,S,A,E,H-A.png,E-S.png,hH,sS,mask-1.png,mask-2.png,h,1,1.063103700056672,s,1,0.4168553000781685,0.1000554000493139,0.10058730002492666,0.20033739996142685,0.20227350015193224,0.7498265998438001
RSVPLG03,km,20260416-151503,1.0.2,20251113-095759,822,Introduction,Both,1,Automatic,main,12,20260416-151712,local,local,750,S,S,A,E,A-S.png,E-S.png,sS,sS,mask-4.png,mask-1.png,s,1,1.0683952998369932,s,1,0.38492710003629327,0.10187079990282655,0.10008920007385314,0.20086549990810454,0.20056110015138984,0.7528861998580396
RSVPLG03,km,20260416-151503,1.0.2,20251113-095759,822,Introduction,Both,1,Automatic,main,13,20260416-151717,global,global,750,S,H,A,A,S-A.png,H-A.png,sS,hH,mask-1.png,mask-2.png,s,1,0.49863689998164773,h,1,0.46549670002423227,0.099017099943012,0.10063600004650652,0.2014146998990327,0.20015770010650158,0.7506659999489784
RSVPLG03,km,20260416-151503,1.0.2,20251113-095759,822,Introduction,Both,1,Automatic,main,14,20260416-151723,global,global,750,S,S,A,A,S-A.png,S-A.png,sS,sS,mask-4.png,mask-1.png,s,1,0.29335279995575547,s,1,0.24090249999426305,0.09916960005648434,0.09921599994413555,0.19982590014114976,0.1992619999218732,0.751331000123173
RSVPLG03,km,20260416-151503,1.0.2,20251113-095759,822,Introduction,Both,1,Automatic,main,15,20260416-151728,global,global,750,S,H,A,E,S-A.png,H-E.png,sS,hH,mask-4.png,mask-2.png,s,1,0.5814559001009911,h,1,0.2569401999935508,0.0984102999791503,0.09934369986876845,0.199807999888435,0.2000907000619918,0.7509969000238925
RSVPLG03,km,20260416-151503,1.0.2,20251113-095759,822,Introduction,Both,1,Automatic,main,16,20260416-151733,global,local,750,H,S,A,A,H-A.png,A-S.png,hH,sS,mask-1.png,mask-4.png,s,0,0.6622218999546021,h,0,0.6404174000490457,0.09918309981003404,0.10012570000253618,0.19985609990544617,0.19912330014631152,0.7513412998523563
RSVPLG03,km,20260416-151818,1.0.2,20251113-095759,822,Practice,Both,1,Automatic,main,1,20260416-151839,local,global,300,S,S,A,E,A-S.png,S-E.png,sS,sS,mask-2.png,mask-4.png,s,1,1.2693191000726074,s,1,0.35180189996026456,0.048176399897783995,0.0491047000978142,0.09872039989568293,0.10113309998996556,0.3002581999171525
RSVPLG03,km,20260416-151818,1.0.2,20251113-095759,822,Practice,Both,1,Automatic,main,2,20260416-151845,local,global,300,H,H,E,A,E-H.png,H-A.png,hH,hH,mask-4.png,mask-1.png,h,1,2.309706199914217,s,0,0.5129627001006156,0.05240190005861223,0.050034499960020185,0.10019170003943145,0.10120830009691417,0.3010919000953436
RSVPLG03,km,20260416-151818,1.0.2,20251113-095759,822,Practice,Both,1,Automatic,main,3,20260416-151851,global,local,750,S,S,A,E,S-A.png,E-S.png,sS,sS,mask-1.png,mask-3.png,h,0,1.301081399898976,s,1,0.32154159992933273,0.05089520011097193,0.05064020003192127,0.10095770005136728,0.10227450006641448,0.7514079001266509
RSVPLG03,km,20260416-151818,1.0.2,20251113-095759,822,Practice,Both,1,Automatic,main,4,20260416-151857,global,global,750,H,H,E,E,H-E.png,H-E.png,hH,hH,mask-4.png,mask-4.png,h,1,1.3844087000470608,h,1,0.19245520001277328,0.05093480017967522,0.0492805999238044,0.10128960013389587,0.10115940007381141,0.7520002000965178
RSVPLG03,km,20260416-151818,1.0.2,20251113-095759,822,Practice,Both,1,Automatic,main,5,20260416-151903,global,global,300,H,H,A,E,H-A.png,H-E.png,hH,hH,mask-4.png,mask-2.png,s,0,2.2956656999886036,h,1,0.28897840017452836,0.05159829999320209,0.051025700056925416,0.10303879994899035,0.10151440021581948,0.30178219988010824
RSVPLG03,km,20260416-151818,1.0.2,20251113-095759,822,Practice,Both,1,Automatic,main,6,20260416-151909,local,local,300,S,H,E,A,E-S.png,A-H.png,sS,hH,mask-4.png,mask-1.png,s,1,1.013340399833396,h,1,0.3043384999036789,0.04878040007315576,0.050752000184729695,0.10062950011342764,0.10175620019435883,0.30008019995875657
RSVPLG03,km,20260416-151818,1.0.2,20251113-095759,822,Practice,Both,1,Automatic,main,7,20260416-151914,global,global,750,S,S,E,E,S-E.png,S-E.png,sS,sS,mask-1.png,mask-4.png,s,1,0.7695563999004662,s,1,0.20956080011092126,0.04908680007793009,0.05031680013053119,0.10006209998391569,0.09955379995517433,0.7519851999823004
RSVPLG03,km,20260416-151818,1.0.2,20251113-095759,822,Practice,Both,1,Automatic,main,8,20260416-151919,global,local,300,H,H,A,A,H-A.png,A-H.png,hH,hH,mask-4.png,mask-1.png,s,0,0.5758326998911798,h,1,1.0224544000811875,0.0507406999822706,0.05115559999831021,0.10076229996047914,0.10105379996821284,0.30041310004889965
RSVPLG03,km,20260416-151818,1.0.2,20251113-095759,822,Practice,Both,1,Automatic,main,9,20260416-151925,local,local,300,H,S,A,E,A-H.png,E-S.png,hH,sS,mask-1.png,mask-4.png,h,1,0.690671999938786,s,1,0.2556104001123458,0.05233750003390014,0.04847540007904172,0.10168269998393953,0.09864620002917945,0.30300650000572205
RSVPLG03,km,20260416-151818,1.0.2,20251113-095759,822,Practice,Both,1,Automatic,main,10,20260416-151929,local,local,750,S,S,A,A,A-S.png,A-S.png,sS,sS,mask-1.png,mask-1.png,h,0,1.1118936000857502,h,0,0.24043510016053915,0.04975890018977225,0.04963220003992319,0.10009700013324618,0.10205780016258359,0.7510975999757648
RSVPLG03,km,20260416-151818,1.0.2,20251113-095759,822,Practice,Both,1,Automatic,main,11,20260416-151935,local,global,750,S,S,A,E,A-S.png,S-E.png,sS,sS,mask-4.png,mask-2.png,s,1,1.4054520998615772,h,0,0.3370747999288142,0.05104689998552203,0.04881429998204112,0.10337879997678101,0.0988032000605017,0.7544941999949515
RSVPLG03,km,20260416-151818,1.0.2,20251113-095759,822,Practice,Both,1,Automatic,main,12,20260416-151941,local,local,750,H,H,A,A,A-H.png,A-H.png,hH,hH,mask-3.png,mask-3.png,h,1,1.3081470001488924,h,1,1.2507005000952631,0.049750500125810504,0.04998170002363622,0.09881890006363392,0.10001139994710684,0.7513429000973701
RSVPLG03,km,20260416-151818,1.0.2,20251113-095759,822,Practice,Both,1,Automatic,main,13,20260416-151948,global,local,750,H,S,A,E,H-A.png,E-S.png,hH,sS,mask-4.png,mask-4.png,h,1,1.519791099941358,s,1,0.3207777999341488,0.050667400006204844,0.04961300012655556,0.10034010000526905,0.1003519999794662,0.7529800999909639
RSVPLG03,km,20260416-151818,1.0.2,20251113-095759,822,Practice,Both,1,Automatic,main,14,20260416-151954,global,global,300,H,H,E,E,H-E.png,H-E.png,hH,hH,mask-1.png,mask-3.png,h,1,0.8536302000284195,s,0,0.5231206999160349,0.04966220003552735,0.04902000003494322,0.10045919986441731,0.10017809993587434,0.3009718998800963
RSVPLG03,km,20260416-151818,1.0.2,20251113-095759,822,Practice,Both,1,Automatic,main,15,20260416-151959,local,global,750,S,S,A,E,A-S.png,S-E.png,sS,sS,mask-1.png,mask-1.png,s,1,1.7314036001916975,h,0,0.29017900000326335,0.05043990002013743,0.04994910000823438,0.10018260008655488,0.09886860009282827,0.7528703999705613
RSVPLG03,km,20260416-151818,1.0.2,20251113-095759,822,Practice,Both,1,Automatic,main,16,20260416-152005,global,local,300,H,H,A,A,H-A.png,A-H.png,hH,hH,mask-4.png,mask-1.png,h,1,0.652866099961102,h,1,0.20897599984891713,0.0485601001419127,0.05175679991953075,0.10014920006506145,0.10236530005931854,0.2993123000487685
RSVPLG03,km,20260416-152034,1.0.2,20251113-095759,822,Practice,Both,1,Automatic,main,1,20260416-152103,global,local,750,H,S,A,A,H-A.png,A-S.png,hH,sS,mask-4.png,mask-4.png,h,1,0.5157494000159204,s,1,0.8006114999298006,0.04868740006349981,0.050200700061395764,0.09875090001150966,0.10007170005701482,0.7485904998611659
RSVPLG03,km,20260416-152034,1.0.2,20251113-095759,822,Practice,Both,1,Automatic,main,2,20260416-152109,local,global,300,H,S,A,A,A-H.png,S-A.png,hH,sS,mask-1.png,mask-3.png,h,1,0.8009689000900835,s,1,0.4650893001817167,0.04969620006158948,0.048903100192546844,0.0998301999643445,0.0988182001747191,0.30069269984960556
RSVPLG03,km,20260416-152034,1.0.2,20251113-095759,822,Practice,Both,1,Automatic,main,3,20260416-152114,local,local,750,S,H,A,A,A-S.png,A-H.png,sS,hH,mask-2.png,mask-4.png,s,1,0.5196464001201093,h,1,0.4987594000995159,0.04942399985156953,0.04972949996590614,0.09846400003880262,0.10082459985278547,0.7496654000133276
RSVPLG03,km,20260416-152034,1.0.2,20251113-095759,822,Practice,Both,1,Automatic,main,4,20260416-152119,global,local,300,H,H,A,E,H-A.png,E-H.png,hH,hH,mask-3.png,mask-4.png,h,1,0.6427744999527931,s,0,0.6547156998421997,0.049978299997746944,0.05085249990224838,0.10100089991465211,0.09975659986957908,0.30003500008024275
RSVPLG03,km,20260416-152034,1.0.2,20251113-095759,822,Practice,Both,1,Automatic,main,5,20260416-152124,global,global,750,H,S,E,A,H-E.png,S-A.png,hH,sS,mask-3.png,mask-3.png,h,1,1.1790606998838484,s,1,0.5936755000147969,0.0489463999401778,0.048671700060367584,0.09947640006430447,0.09846209990791976,0.750408299965784
RSVPLG03,km,20260416-152034,1.0.2,20251113-095759,822,Practice,Both,1,Automatic,main,6,20260416-152130,local,local,750,H,H,E,A,E-H.png,A-H.png,hH,hH,mask-3.png,mask-3.png,h,1,0.4340898001100868,h,1,0.25813729991205037,0.04967699991539121,0.05139819998294115,0.100499999942258,0.10125080007128417,0.7498923998791724
RSVPLG03,km,20260416-152034,1.0.2,20251113-095759,822,Practice,Both,1,Automatic,main,7,20260416-152135,global,local,300,S,H,E,A,S-E.png,A-H.png,sS,hH,mask-3.png,mask-2.png,s,1,0.9710145001299679,h,1,0.4500539000146091,0.04870459996163845,0.050776799907907844,0.09854339994490147,0.10144839994609356,0.29955530003644526
RSVPLG03,km,20260416-152034,1.0.2,20251113-095759,822,Practice,Both,1,Automatic,main,8,20260416-152140,local,local,300,S,H,A,E,A-S.png,E-H.png,sS,hH,mask-1.png,mask-2.png,s,1,0.9072133998852223,h,1,0.46645089983940125,0.05079500004649162,0.05042700003832579,0.09992709988728166,0.10020530014298856,0.2995970998890698
RSVPLG03,km,20260416-152034,1.0.2,20251113-095759,822,Practice,Both,1,Automatic,main,9,20260416-152146,global,local,750,S,S,A,E,S-A.png,E-S.png,sS,sS,mask-2.png,mask-4.png,s,1,0.846398799913004,s,1,0.2534304999280721,0.048793100053444505,0.04998520016670227,0.09947250015102327,0.10011570015922189,0.7498099999502301
RSVPLG03,km,20260416-152034,1.0.2,20251113-095759,822,Practice,Both,1,Automatic,main,10,20260416-152151,local,global,300,H,H,A,A,A-H.png,H-A.png,hH,hH,mask-1.png,mask-1.png,h,1,1.081074499990791,s,0,0.38349119992926717,0.05029899999499321,0.04976539989002049,0.09996100002899766,0.1016480999533087,0.3002804000861943
RSVPLG03,km,20260416-152034,1.0.2,20251113-095759,822,Practice,Both,1,Automatic,main,11,20260416-152156,global,global,300,S,S,A,A,S-A.png,S-A.png,sS,sS,mask-2.png,mask-4.png,s,1,0.49700789991766214,s,1,0.27931999997235835,0.05110789998434484,0.05111339990980923,0.09965039999224246,0.10146439983509481,0.3002132000401616
RSVPLG03,km,20260416-152034,1.0.2,20251113-095759,822,Practice,Both,1,Automatic,main,12,20260416-152201,local,local,300,H,S,A,E,A-H.png,E-S.png,hH,sS,mask-1.png,mask-3.png,h,1,1.1065325001254678,s,1,0.393465300090611,0.050270000007003546,0.051034400006756186,0.10077710007317364,0.10090969991870224,0.2995760999619961
RSVPLG03,km,20260416-152034,1.0.2,20251113-095759,822,Practice,Both,1,Automatic,main,13,20260416-152206,local,global,750,S,H,A,E,A-S.png,H-E.png,sS,hH,mask-3.png,mask-1.png,s,1,0.5008880000095814,h,1,0.41599040012806654,0.050146100111305714,0.04984829993918538,0.10083930008113384,0.09987109992653131,0.7504432001151145
RSVPLG03,km,20260416-152034,1.0.2,20251113-095759,822,Practice,Both,1,Automatic,main,14,20260416-152211,local,global,750,H,H,A,A,A-H.png,H-A.png,hH,hH,mask-2.png,mask-1.png,h,1,0.8637669999152422,h,1,0.1934692000504583,0.05009249993599951,0.051403600024059415,0.09968409989960492,0.09969860012643039,0.7508278999011964
RSVPLG03,km,20260416-152034,1.0.2,20251113-095759,822,Practice,Both,1,Automatic,main,15,20260416-152216,global,global,300,H,S,A,A,H-A.png,S-A.png,hH,sS,mask-1.png,mask-1.png,h,1,0.6490373997949064,s,1,0.4131026000250131,0.053079399978742,0.049578200094401836,0.10003410000354052,0.10077770007774234,0.3013230999931693
RSVPLG03,km,20260416-152034,1.0.2,20251113-095759,822,Practice,Both,1,Automatic,main,16,20260416-152221,global,global,750,S,S,A,E,S-A.png,S-E.png,sS,sS,mask-2.png,mask-4.png,s,1,0.7206244000699371,s,1,0.22747399983927608,0.05123399989679456,0.051576299825683236,0.10084239998832345,0.10003289999440312,0.7511873000767082
RSVPLG03,km,20260416-152400,1.0.2,20251113-095759,822,Experiment,Both,1,Automatic,warmup,1,20260416-152453,global,local,300,H,H,A,E,H-A.png,E-H.png,hH,hH,mask-1.png,mask-4.png,h,1,0.44388479995541275,s,0,0.38019319996237755,0.05004439991898835,0.04941889992915094,0.09908159985207021,0.09992419998161495,0.2993707999121398
RSVPLG03,km,20260416-152400,1.0.2,20251113-095759,822,Experiment,Both,1,Automatic,warmup,2,20260416-152458,local,global,300,S,H,E,A,E-S.png,H-A.png,sS,hH,mask-3.png,mask-4.png,s,1,0.7148323999717832,s,0,0.19048270001076162,0.05015209992416203,0.05058380006812513,0.10099149984307587,0.09994049998931587,0.300531999906525
RSVPLG03,km,20260416-152400,1.0.2,20251113-095759,822,Experiment,Both,1,Automatic,warmup,3,20260416-152503,local,local,300,S,H,E,E,E-S.png,E-H.png,sS,hH,mask-3.png,mask-3.png,s,1,1.3595581001136452,h,1,0.23746940004639328,0.05177140003070235,0.05028300010599196,0.10050479997880757,0.10258970013819635,0.30073109990917146
RSVPLG03,km,20260416-152400,1.0.2,20251113-095759,822,Experiment,Both,1,Automatic,warmup,4,20260416-152508,local,global,750,H,H,E,A,E-H.png,H-A.png,hH,hH,mask-4.png,mask-3.png,h,1,1.2516822000034153,h,1,0.256541799986735,0.050006600096821785,0.0512421999592334,0.09998139995150268,0.10031939996406436,0.7510750000365078
RSVPLG03,km,20260416-152400,1.0.2,20251113-095759,822,Experiment,Both,1,Automatic,main,5,20260416-152514,global,local,300,S,S,A,A,S-A.png,A-S.png,sS,sS,mask-3.png,mask-2.png,s,1,1.308191199786961,s,1,0.19094960018992424,0.048308599973097444,0.0506776999682188,0.0979512999765575,0.09996020002290606,0.2986069000326097
RSVPLG03,km,20260416-152400,1.0.2,20251113-095759,822,Experiment,Both,1,Automatic,main,6,20260416-152519,local,local,300,H,S,A,A,A-H.png,A-S.png,hH,sS,mask-2.png,mask-3.png,h,1,1.8593549001961946,h,0,0.25647079991176724,0.05172330001369119,0.05007970007136464,0.10080319992266595,0.10016060015186667,0.3001875998452306
RSVPLG03,km,20260416-152400,1.0.2,20251113-095759,822,Experiment,Both,1,Automatic,main,7,20260416-152525,local,global,750,H,H,A,E,A-H.png,H-E.png,hH,hH,mask-4.png,mask-3.png,s,0,2.294164199847728,s,0,0.4340963999275118,0.050463000079616904,0.04873680020682514,0.10066190012730658,0.09868050017394125,0.7526646999176592
RSVPLG03,km,20260416-152400,1.0.2,20251113-095759,822,Experiment,Both,1,Automatic,main,8,20260416-152531,global,local,300,H,H,A,A,H-A.png,A-H.png,hH,hH,mask-4.png,mask-2.png,h,1,1.536397899966687,h,1,0.35387320001609623,0.04888079990632832,0.04994309996254742,0.0998742999508977,0.10243949992582202,0.2996086999773979
RSVPLG03,km,20260416-152400,1.0.2,20251113-095759,822,Experiment,Both,1,Automatic,main,9,20260416-152537,local,local,300,S,S,A,A,A-S.png,A-S.png,sS,sS,mask-3.png,mask-1.png,s,1,2.2027276000007987,h,0,0.09860860020853579,0.050532800145447254,0.051054100040346384,0.10060940007679164,0.09978800010867417,0.3014263999648392
RSVPLG03,km,20260416-152400,1.0.2,20251113-095759,822,Experiment,Both,1,Automatic,main,10,20260416-152543,local,local,750,H,H,A,E,A-H.png,E-H.png,hH,hH,mask-3.png,mask-4.png,h,1,2.084991400130093,s,0,0.28920959983952343,0.04867060016840696,0.049989799968898296,0.0998647001106292,0.10106370016001165,0.751240500016138
RSVPLG03,km,20260416-152400,1.0.2,20251113-095759,822,Experiment,Both,1,Automatic,main,11,20260416-152550,global,local,300,S,H,A,E,S-A.png,E-H.png,sS,hH,mask-3.png,mask-1.png,s,1,0.9672258000355214,s,0,0.12995330011472106,0.049611799884587526,0.05162180005572736,0.10094329994171858,0.09983430011197925,0.3011035998351872
RSVPLG03,km,20260416-152400,1.0.2,20251113-095759,822,Experiment,Both,1,Automatic,main,12,20260416-152554,local,global,750,S,S,E,A,E-S.png,S-A.png,sS,sS,mask-1.png,mask-2.png,s,1,1.664753400022164,s,1,0.16236499999649823,0.050021300092339516,0.05001110001467168,0.09875050000846386,0.10118019999936223,0.7499812999740243
RSVPLG03,km,20260416-152400,1.0.2,20251113-095759,822,Experiment,Both,1,Automatic,main,13,20260416-152601,global,local,750,S,H,E,E,S-E.png,E-H.png,sS,hH,mask-3.png,mask-3.png,s,1,0.6724890999030322,h,1,0.24003669992089272,0.049037700053304434,0.04889440000988543,0.10017290012910962,0.09853789978660643,0.7521044001914561
RSVPLG03,km,20260416-152400,1.0.2,20251113-095759,822,Experiment,Both,1,Automatic,main,14,20260416-152606,global,global,300,H,S,E,A,H-E.png,S-A.png,hH,sS,mask-4.png,mask-4.png,h,1,0.854881800012663,s,1,0.128737400053069,0.04947960004210472,0.049184200121089816,0.10036539984866977,0.09966500010341406,0.30059019988402724
RSVPLG03,km,20260416-152400,1.0.2,20251113-095759,822,Experiment,Both,1,Automatic,main,15,20260416-152610,local,local,300,S,S,A,A,A-S.png,A-S.png,sS,sS,mask-4.png,mask-3.png,s,1,0.5990859000012279,s,1,0.15710490010678768,0.05095079983584583,0.0486693000420928,0.10029239999130368,0.09852429991587996,0.3020961999427527
RSVPLG03,km,20260416-152400,1.0.2,20251113-095759,822,Experiment,Both,1,Automatic,main,16,20260416-152615,local,global,300,S,S,E,A,E-S.png,S-A.png,sS,sS,mask-4.png,mask-2.png,s,1,0.7286408999934793,h,0,0.16074920003302395,0.05028900015167892,0.04996460000984371,0.10059639997780323,0.1009935000911355,0.3008830000180751
RSVPLG03,km,20260416-152400,1.0.2,20251113-095759,822,Experiment,Both,1,Automatic,main,17,20260416-152620,local,global,300,H,H,A,E,A-H.png,H-E.png,hH,hH,mask-3.png,mask-2.png,s,0,0.8364736998919398,h,1,0.14470990002155304,0.049748399993404746,0.050191600108519197,0.10076019982807338,0.10094370017759502,0.29969439981505275
RSVPLG03,km,20260416-152400,1.0.2,20251113-095759,822,Experiment,Both,1,Automatic,main,18,20260416-152624,global,global,300,S,S,A,E,S-A.png,S-E.png,sS,sS,mask-3.png,mask-2.png,s,1,0.5063563000876456,s,1,0.10739219980314374,0.05016519990749657,0.04985739989206195,0.10074559994973242,0.10005109990015626,0.3017029999755323
RSVPLG03,km,20260416-152400,1.0.2,20251113-095759,822,Experiment,Both,1,Automatic,main,19,20260416-152629,global,local,300,H,S,A,E,H-A.png,E-S.png,hH,sS,mask-2.png,mask-3.png,h,1,1.016228700056672,s,1,0.2102039000019431,0.052258099894970655,0.04958319989964366,0.10124980006366968,0.09971239999867976,0.3021207000128925
RSVPLG03,km,20260416-152400,1.0.2,20251113-095759,822,Experiment,Both,1,Automatic,main,20,20260416-152634,local,global,300,H,H,A,A,A-H.png,H-A.png,hH,hH,mask-2.png,mask-2.png,h,1,2.714355899952352,h,1,1.6878639999777079,0.049054599832743406,0.050481499871239066,0.09922780003398657,0.10039009992033243,0.29962439998053014
RSVPLG03,km,20260416-152400,1.0.2,20251113-095759,822,Experiment,Both,1,Automatic,main,21,20260416-152642,global,global,750,S,S,A,A,S-A.png,S-A.png,sS,sS,mask-1.png,mask-3.png,s,1,0.5520560001023114,s,1,0.16154520004056394,0.05002199998125434,0.05108669982291758,0.10044519999064505,0.1003997998777777,0.7509397000540048
RSVPLG03,km,20260416-152400,1.0.2,20251113-095759,822,Experiment,Both,1,Automatic,main,22,20260416-152647,global,local,300,H,H,E,E,H-E.png,E-H.png,hH,hH,mask-1.png,mask-1.png,h,1,1.3181083998642862,s,0,0.12873080000281334,0.04992180014960468,0.05066390009596944,0.09931179997511208,0.10092530003748834,0.2998850999865681
RSVPLG03,km,20260416-152400,1.0.2,20251113-095759,822,Experiment,Both,1,Automatic,main,23,20260416-152652,global,global,300,H,H,E,A,H-E.png,H-A.png,hH,hH,mask-4.png,mask-2.png,h,1,0.8425084999762475,h,1,0.15828249999321997,0.05154459993354976,0.0504248000215739,0.10165349999442697,0.09863310004584491,0.3023447999730706
RSVPLG03,km,20260416-152400,1.0.2,20251113-095759,822,Experiment,Both,1,Automatic,main,24,20260416-152657,global,global,750,S,S,E,A,S-E.png,S-A.png,sS,sS,mask-3.png,mask-4.png,s,1,0.6922701001167297,s,1,0.17505110008642077,0.049406500067561865,0.04932720004580915,0.09979130001738667,0.09842239995487034,0.7529744000639766
RSVPLG03,km,20260416-152400,1.0.2,20251113-095759,822,Experiment,Both,1,Automatic,main,25,20260416-152702,local,local,300,S,H,E,A,E-S.png,A-H.png,sS,hH,mask-1.png,mask-3.png,s,1,0.8080585999414325,h,1,0.04097669990733266,0.05174320004880428,0.04985259985551238,0.10067200008779764,0.09973919996991754,0.3001020001247525
RSVPLG03,km,20260416-152400,1.0.2,20251113-095759,822,Experiment,Both,1,Automatic,main,26,20260416-152714,global,global,750,S,H,A,A,S-A.png,H-A.png,sS,hH,mask-4.png,mask-4.png,s,1,1.6379419998265803,h,1,0.15524109988473356,0.051546100061386824,0.04835529997944832,0.10166619997471571,0.10029580001719296,0.753455099882558
RSVPLG03,km,20260416-152400,1.0.2,20251113-095759,822,Experiment,Both,1,Automatic,main,27,20260416-152720,global,local,750,S,S,E,E,S-E.png,E-S.png,sS,sS,mask-2.png,mask-2.png,s,1,0.28223860007710755,s,1,0.12392959999851882,0.04943839996121824,0.04958549980074167,0.10053689987398684,0.10115040000528097,0.7510315000545233
RSVPLG03,km,20260416-152400,1.0.2,20251113-095759,822,Experiment,Both,1,Automatic,main,28,20260416-152725,local,global,750,S,H,A,A,A-S.png,H-A.png,sS,hH,mask-2.png,mask-2.png,h,0,1.012389900162816,h,1,0.1138043999671936,0.05012290016748011,0.04927899991162121,0.10168780013918877,0.09978569997474551,0.7532211001962423
RSVPLG03,km,20260416-152400,1.0.2,20251113-095759,822,Experiment,Both,1,Automatic,main,29,20260416-152730,global,global,750,H,S,E,E,H-E.png,S-E.png,hH,sS,mask-4.png,mask-3.png,h,1,0.6799347000196576,s,1,0.06454339995980263,0.049397499999031425,0.048904200084507465,0.10164040001109242,0.10103650018572807,0.7521333999466151
RSVPLG03,km,20260416-152400,1.0.2,20251113-095759,822,Experiment,Both,1,Automatic,main,30,20260416-152735,global,local,750,H,S,A,A,H-A.png,A-S.png,hH,sS,mask-1.png,mask-2.png,h,1,0.6198186001274735,h,0,0.0809186000842601,0.04928590008057654,0.049033100018277764,0.09927159990184009,0.09889780008234084,0.7517605999018997
RSVPLG03,km,20260416-152400,1.0.2,20251113-095759,822,Experiment,Both,1,Automatic,main,31,20260416-152740,local,global,750,S,S,E,E,E-S.png,S-E.png,sS,sS,mask-3.png,mask-2.png,s,1,0.5532309000845999,s,1,0.1122092001605779,0.04991120006889105,0.05022089998237789,0.10083870007656515,0.09891880000941455,0.7532387000974268
RSVPLG03,km,20260416-152400,1.0.2,20251113-095759,822,Experiment,Both,1,Automatic,main,32,20260416-152745,local,local,750,H,S,A,A,A-H.png,A-S.png,hH,sS,mask-1.png,mask-2.png,h,1,0.6289655999280512,s,1,0.13877699989825487,0.04906810005195439,0.05215559992939234,0.09789320011623204,0.1010602000169456,0.749134800164029
RSVPLG03,km,20260416-152400,1.0.2,20251113-095759,822,Experiment,Both,1,Automatic,main,33,20260416-152750,global,global,750,H,H,A,E,H-A.png,H-E.png,hH,hH,mask-1.png,mask-3.png,h,1,0.5549258999526501,h,1,0.12974169990047812,0.048257899936288595,0.050896900007501245,0.09804529999382794,0.0995732001028955,0.75034169992432
RSVPLG03,km,20260416-152400,1.0.2,20251113-095759,822,Experiment,Both,1,Automatic,main,34,20260416-152754,local,local,300,S,S,E,A,E-S.png,A-S.png,sS,sS,mask-3.png,mask-2.png,s,1,1.105894299922511,s,1,0.0969930998980999,0.04965579998679459,0.050804599886760116,0.10097449994646013,0.10085300006903708,0.3007970000617206
RSVPLG03,km,20260416-152400,1.0.2,20251113-095759,822,Experiment,Both,1,Automatic,main,35,20260416-152759,local,global,300,H,H,E,E,E-H.png,H-E.png,hH,hH,mask-2.png,mask-4.png,h,1,0.6392488998826593,h,1,0.0968322001863271,0.048772200010716915,0.04879270005039871,0.0997872999869287,0.0997015000320971,0.3005937999114394
RSVPLG03,km,20260416-152400,1.0.2,20251113-095759,822,Experiment,Both,1,Automatic,main,36,20260416-152804,local,global,300,S,S,E,A,E-S.png,S-A.png,sS,sS,mask-2.png,mask-3.png,s,1,0.7922838998492807,s,1,0.07974339998327196,0.04878029995597899,0.04994950001128018,0.1019363000523299,0.09922109986655414,0.3013667000923306
RSVPLG03,km,20260416-152400,1.0.2,20251113-095759,822,Experiment,Both,1,Automatic,main,37,20260416-152808,local,global,750,H,H,A,A,A-H.png,H-A.png,hH,hH,mask-3.png,mask-3.png,s,0,0.5056857999879867,h,1,0.12937520002014935,0.048845000099390745,0.0494785001501441,0.10062080016359687,0.0999891001265496,0.7519978999625891
RSVPLG03,km,20260416-152400,1.0.2,20251113-095759,822,Experiment,Both,1,Automatic,main,38,20260416-152813,local,global,750,S,H,E,E,E-S.png,H-E.png,sS,hH,mask-4.png,mask-2.png,s,1,0.48331030015833676,h,1,0.25263740005902946,0.049133299849927425,0.05008760001510382,0.10063969995826483,0.10176030010916293,0.7522930998820812
RSVPLG03,km,20260416-152400,1.0.2,20251113-095759,822,Experiment,Both,1,Automatic,main,39,20260416-152818,local,local,750,S,S,E,A,E-S.png,A-S.png,sS,sS,mask-1.png,mask-1.png,s,1,1.217705799965188,h,0,0.11324289999902248,0.04995999997481704,0.05086519988253713,0.10039539984427392,0.10061579989269376,0.7508922999259084
RSVPLG03,km,20260416-152400,1.0.2,20251113-095759,822,Experiment,Both,1,Automatic,main,40,20260416-152824,global,local,750,S,S,A,A,S-A.png,A-S.png,sS,sS,mask-1.png,mask-4.png,s,1,0.706390299834311,s,1,0.12893610005266964,0.05088369990698993,0.05005459999665618,0.10272380011156201,0.10118260001763701,0.7532601000275463
RSVPLG03,km,20260416-152400,1.0.2,20251113-095759,822,Experiment,Both,1,Automatic,main,41,20260416-152829,global,local,300,S,H,A,E,S-A.png,E-H.png,sS,hH,mask-1.png,mask-4.png,s,1,0.5038139000535011,s,0,0.14591230009682477,0.049999000038951635,0.05035259993746877,0.10165450000204146,0.10216469992883503,0.3004010000731796
RSVPLG03,km,20260416-152400,1.0.2,20251113-095759,822,Experiment,Both,1,Automatic,main,42,20260416-152833,global,global,300,H,H,E,E,H-E.png,H-E.png,hH,hH,mask-2.png,mask-3.png,h,1,0.9896633999887854,h,1,0.12910329992882907,0.05003869999200106,0.05042029987089336,0.0999312000349164,0.10103999986313283,0.30005590012297034
RSVPLG03,km,20260416-152400,1.0.2,20251113-095759,822,Experiment,Both,1,Automatic,main,43,20260416-152838,global,global,300,H,H,E,E,H-E.png,H-E.png,hH,hH,mask-2.png,mask-3.png,h,1,0.38521550013683736,h,1,0.11302349995821714,0.04974120017141104,0.04810459981672466,0.10111350007355213,0.0983954998664558,0.30324350018054247
RSVPLG03,km,20260416-152400,1.0.2,20251113-095759,822,Experiment,Both,1,Automatic,main,44,20260416-152842,global,global,750,H,S,E,E,H-E.png,S-E.png,hH,sS,mask-2.png,mask-4.png,h,1,0.5005933998618275,s,1,0.09731259988620877,0.04950949992053211,0.04982959991320968,0.09982510004192591,0.09970729984343052,0.75153290014714
RSVPLG03,km,20260416-152400,1.0.2,20251113-095759,822,Experiment,Both,1,Automatic,main,45,20260416-152847,local,local,300,H,S,E,A,E-H.png,A-S.png,hH,sS,mask-4.png,mask-3.png,h,1,0.4474420000333339,s,1,0.11055650003254414,0.0503973001614213,0.050748900044709444,0.10123930010013282,0.1004385999403894,0.300901000155136
RSVPLG03,km,20260416-152400,1.0.2,20251113-095759,822,Experiment,Both,1,Automatic,main,46,20260416-152851,local,local,300,S,S,A,A,A-S.png,A-S.png,sS,sS,mask-4.png,mask-3.png,s,1,0.6924579001497477,s,1,0.14556109998375177,0.051363900071009994,0.04908389993943274,0.10219189990311861,0.09941769996657968,0.3031415001023561
RSVPLG03,km,20260416-152400,1.0.2,20251113-095759,822,Experiment,Both,1,Automatic,main,47,20260416-152855,local,local,750,H,S,A,E,A-H.png,E-S.png,hH,sS,mask-3.png,mask-4.png,h,1,0.5288623999804258,s,1,0.12872440018691123,0.050551299937069416,0.051009099930524826,0.10044660000130534,0.1011030999943614,0.7515288998838514
RSVPLG03,km,20260416-152400,1.0.2,20251113-095759,822,Experiment,Both,1,Automatic,main,48,20260416-152900,global,local,750,H,H,A,E,H-A.png,E-H.png,hH,hH,mask-1.png,mask-4.png,h,1,0.5280577000230551,s,0,0.17411039979197085,0.04936379985883832,0.04895969992503524,0.10006389999762177,0.1001414000056684,0.7523608000483364
RSVPLG03,km,20260416-152400,1.0.2,20251113-095759,822,Experiment,Both,1,Automatic,main,49,20260416-152905,local,local,750,H,H,A,A,A-H.png,A-H.png,hH,hH,mask-4.png,mask-2.png,h,1,2.4355295000132173,s,0,0.6404862999916077,0.049024400068446994,0.05035730008967221,0.09905110020190477,0.10212840000167489,0.7502385000698268
RSVPLG03,km,20260416-152400,1.0.2,20251113-095759,822,Experiment,Both,1,Automatic,main,50,20260416-152913,global,global,300,S,H,E,A,S-E.png,H-A.png,sS,hH,mask-1.png,mask-2.png,h,0,0.5182604000438005,s,0,0.5428148000501096,0.0522148001473397,0.05048730014823377,0.10094560007564723,0.10073440009728074,0.30206759995780885
RSVPLG03,km,20260416-152400,1.0.2,20251113-095759,822,Experiment,Both,1,Automatic,main,51,20260416-152919,global,global,300,H,S,A,A,H-A.png,S-A.png,hH,sS,mask-4.png,mask-1.png,h,1,0.3382674001622945,s,1,0.08144699991680682,0.050069999881088734,0.05045959982089698,0.099936299957335,0.10240279999561608,0.3005264999810606
RSVPLG03,km,20260416-152400,1.0.2,20251113-095759,822,Experiment,Both,1,Automatic,main,52,20260416-152923,global,local,300,S,S,A,E,S-A.png,E-S.png,sS,sS,mask-3.png,mask-1.png,s,1,0.7015351001173258,s,1,0.1456194999627769,0.04987949994392693,0.04976830002851784,0.10050769988447428,0.10104779992252588,0.2994212999474257
RSVPLG03,km,20260416-152400,1.0.2,20251113-095759,822,Experiment,Both,1,Automatic,main,53,20260416-152928,local,local,750,H,S,E,E,E-H.png,E-S.png,hH,sS,mask-2.png,mask-4.png,s,0,0.5121545000001788,s,1,0.09717220021411777,0.04927990003488958,0.05101950000971556,0.09997620014473796,0.10056779999285936,0.750836200080812
RSVPLG03,km,20260416-152400,1.0.2,20251113-095759,822,Experiment,Both,1,Automatic,main,54,20260416-152933,local,global,750,H,H,E,A,E-H.png,H-A.png,hH,hH,mask-4.png,mask-1.png,s,0,2.767031399998814,h,1,0.09734220011159778,0.04888199991546571,0.05173030006699264,0.09988379990682006,0.09961789986118674,0.7509975999128073
RSVPLG03,km,20260416-152400,1.0.2,20251113-095759,822,Experiment,Both,1,Automatic,main,55,20260416-152940,global,global,300,H,S,A,A,H-A.png,S-A.png,hH,sS,mask-4.png,mask-3.png,h,1,0.9227605999913067,s,1,0.14619629993103445,0.0499072999227792,0.049516099970787764,0.10023099998943508,0.09897389984689653,0.301921300124377
RSVPLG03,km,20260416-152400,1.0.2,20251113-095759,822,Experiment,Both,1,Automatic,main,56,20260416-152944,global,global,300,H,S,E,E,H-E.png,S-E.png,hH,sS,mask-2.png,mask-1.png,h,1,0.5351509000174701,s,1,0.11346629983745515,0.04954939987510443,0.04958220012485981,0.09900449984706938,0.100495700025931,0.3001851998269558
RSVPLG03,km,20260416-152400,1.0.2,20251113-095759,822,Experiment,Both,1,Automatic,main,57,20260416-152949,local,local,300,H,S,E,A,E-H.png,A-S.png,hH,sS,mask-3.png,mask-3.png,h,1,0.7403194000944495,s,1,0.08075629989616573,0.051000399980694056,0.05053770006634295,0.1008774999063462,0.10000160010531545,0.2992419998627156
RSVPLG03,km,20260416-152400,1.0.2,20251113-095759,822,Experiment,Both,1,Automatic,main,58,20260416-152953,local,local,300,S,H,A,A,A-S.png,A-H.png,sS,hH,mask-3.png,mask-2.png,s,1,1.2359845999162644,h,1,0.1426636001560837,0.051809600088745356,0.04879939998500049,0.1012612001504749,0.10012409999035299,0.3019235001411289
RSVPLG03,km,20260416-152400,1.0.2,20251113-095759,822,Experiment,Both,1,Automatic,main,59,20260416-152958,local,local,750,H,H,E,A,E-H.png,A-H.png,hH,hH,mask-1.png,mask-4.png,s,0,0.426418200135231,h,1,0.06329900003038347,0.05067929998040199,0.05019410001114011,0.09945109998807311,0.10118280001915991,0.7520812000147998
RSVPLG03,km,20260416-152400,1.0.2,20251113-095759,822,Experiment,Both,1,Automatic,main,60,20260416-153003,global,local,300,S,H,A,E,S-A.png,E-H.png,sS,hH,mask-2.png,mask-4.png,s,1,0.6556611999403685,s,0,0.10267579997889698,0.05139370006509125,0.04899660008959472,0.10041079996153712,0.09984269994311035,0.3027230000589043
RSVPLG03,km,20260416-152400,1.0.2,20251113-095759,822,Experiment,Both,1,Automatic,main,61,20260416-153008,global,local,300,H,H,A,A,H-A.png,A-H.png,hH,hH,mask-4.png,mask-3.png,h,1,0.37612119992263615,h,1,0.4810673000756651,0.04991539986804128,0.048910200130194426,0.09973199991509318,0.0986208999529481,0.30056699994020164
RSVPLG03,km,20260416-152400,1.0.2,20251113-095759,822,Experiment,Both,1,Automatic,main,62,20260416-153012,local,local,750,H,H,E,E,E-H.png,E-H.png,hH,hH,mask-4.png,mask-2.png,s,0,4.397561599966139,s,0,0.14004060020670295,0.04955630004405975,0.050854999804869294,0.09881610004231334,0.10123879997991025,0.7505432001780719
RSVPLG03,km,20260416-152400,1.0.2,20251113-095759,822,Experiment,Both,1,Automatic,main,63,20260416-153021,local,global,300,S,S,E,E,E-S.png,S-E.png,sS,sS,mask-3.png,mask-2.png,s,1,1.2101988000795245,h,0,0.061555700143799186,0.05201600003056228,0.0514405001886189,0.10089770006015897,0.10131270019337535,0.3011067998595536
RSVPLG03,km,20260416-152400,1.0.2,20251113-095759,822,Experiment,Both,1,Automatic,main,64,20260416-153026,local,global,300,S,S,A,A,A-S.png,S-A.png,sS,sS,mask-4.png,mask-4.png,s,1,1.173608500044793,h,0,0.1417094999924302,0.0508652999997139,0.0505929000210017,0.10101149999536574,0.10063650016672909,0.3010006998665631
RSVPLG03,km,20260416-152400,1.0.2,20251113-095759,822,Experiment,Both,1,Automatic,main,65,20260416-153031,local,global,750,H,S,E,A,E-H.png,S-A.png,hH,sS,mask-4.png,mask-4.png,s,0,0.5196181000210345,s,1,0.14717589993961155,0.050001899944618344,0.049914600094780326,0.10074699996039271,0.10037250001914799,0.7534917998127639
RSVPLG03,km,20260416-152400,1.0.2,20251113-095759,822,Experiment,Both,1,Automatic,main,66,20260416-153036,local,global,300,S,H,A,E,A-S.png,H-E.png,sS,hH,mask-2.png,mask-4.png,s,1,1.1227899000514299,h,1,0.09602289996109903,0.04864049982279539,0.05007000011391938,0.09865329996682703,0.10026720003224909,0.30071359989233315
RSVPLG03,km,20260416-152400,1.0.2,20251113-095759,822,Experiment,Both,1,Automatic,main,67,20260416-153041,local,global,300,S,H,A,A,A-S.png,H-A.png,sS,hH,mask-1.png,mask-4.png,h,0,2.17836429993622,s,0,0.01753640011884272,0.05145730008371174,0.051190200028941035,0.09975340007804334,0.09971880004741251,0.3002963000908494
RSVPLG03,km,20260416-152400,1.0.2,20251113-095759,822,Experiment,Both,1,Automatic,main,68,20260416-153047,global,global,750,S,S,E,E,S-E.png,S-E.png,sS,sS,mask-3.png,mask-2.png,s,1,0.7474247999489307,s,1,0.16145619982853532,0.05110049992799759,0.05210159998387098,0.09924319991841912,0.1015828000381589,0.7514235000126064
RSVPLG03,km,20260416-152400,1.0.2,20251113-095759,822,Experiment,Both,1,Automatic,main,69,20260416-153052,global,local,750,H,H,A,E,H-A.png,E-H.png,hH,hH,mask-3.png,mask-2.png,h,1,0.8510581001173705,s,0,0.09691610001027584,0.049886299995705485,0.05014820001088083,0.10159249999560416,0.10017820005305111,0.7517874999903142
RSVPLG03,km,20260416-152400,1.0.2,20251113-095759,822,Experiment,Both,1,Automatic,main,70,20260416-153057,global,global,750,S,H,E,A,S-E.png,H-A.png,sS,hH,mask-2.png,mask-4.png,s,1,0.40550430002622306,h,1,0.1458691000007093,0.05145139992237091,0.05217509996145964,0.10086999996565282,0.09999160002917051,0.7524407000746578
RSVPLG03,km,20260416-152400,1.0.2,20251113-095759,822,Experiment,Both,1,Automatic,main,71,20260416-153102,local,global,750,S,H,A,E,A-S.png,H-E.png,sS,hH,mask-4.png,mask-1.png,s,1,1.2583852000534534,h,1,0.8562487999442965,0.04983639996498823,0.048957500141113997,0.10090499999932945,0.09905260009691119,0.7516552999150008
RSVPLG03,km,20260416-152400,1.0.2,20251113-095759,822,Experiment,Both,1,Automatic,main,72,20260416-153108,local,local,300,S,H,A,E,A-S.png,E-H.png,sS,hH,mask-3.png,mask-1.png,s,1,0.44431009981781244,h,1,0.09649539995007217,0.05026550008915365,0.046958399936556816,0.10036880010738969,0.0974485999904573,0.3021990000270307
RSVPLG03,km,20260416-152400,1.0.2,20251113-095759,822,Experiment,Both,1,Automatic,main,73,20260416-153113,local,local,300,H,S,A,E,A-H.png,E-S.png,hH,sS,mask-3.png,mask-3.png,h,1,0.46445440012030303,s,1,0.16117089986801147,0.04715509992092848,0.05092370021156967,0.0989312999881804,0.1004485001321882,0.29831409989856184
RSVPLG03,km,20260416-152400,1.0.2,20251113-095759,822,Experiment,Both,1,Automatic,main,74,20260416-153117,local,global,750,S,H,E,A,E-S.png,H-A.png,sS,hH,mask-1.png,mask-2.png,s,1,0.843827199889347,h,1,0.1610920000821352,0.04830800020135939,0.05153470020741224,0.09914400009438396,0.10024440009146929,0.7506719999946654
RSVPLG03,km,20260416-152400,1.0.2,20251113-095759,822,Experiment,Both,1,Automatic,main,75,20260416-153122,global,local,750,H,S,A,A,H-A.png,A-S.png,hH,sS,mask-4.png,mask-4.png,h,1,0.764014899963513,h,0,0.11317750019952655,0.04848920018412173,0.049637299962341785,0.09907650016248226,0.10057200002484024,0.7505040001124144
RSVPLG03,km,20260416-152400,1.0.2,20251113-095759,822,Experiment,Both,1,Automatic,main,76,20260416-153129,local,global,750,H,H,E,E,E-H.png,H-E.png,hH,hH,mask-1.png,mask-1.png,s,0,1.0609577998984605,h,1,0.09629669995047152,0.05041589983738959,0.05047100014053285,0.09921179991215467,0.09836130007170141,0.7532376998569816
RSVPLG03,km,20260416-152400,1.0.2,20251113-095759,822,Experiment,Both,1,Automatic,main,77,20260416-153134,global,global,300,H,H,E,A,H-E.png,H-A.png,hH,hH,mask-1.png,mask-3.png,h,1,0.6480970000848174,h,1,0.09556250018067658,0.04948369995690882,0.04707510001026094,0.09972229995764792,0.09712940012104809,0.3030181999783963
RSVPLG03,km,20260416-152400,1.0.2,20251113-095759,822,Experiment,Both,1,Automatic,main,78,20260416-153139,global,global,750,H,H,A,E,H-A.png,H-E.png,hH,hH,mask-4.png,mask-4.png,h,1,0.5221005000639707,h,1,0.33677980001084507,0.049738600151613355,0.05079290014691651,0.10080460016615689,0.10064229997806251,0.7514496999792755
RSVPLG03,km,20260416-152400,1.0.2,20251113-095759,822,Experiment,Both,1,Automatic,main,79,20260416-153144,global,global,750,H,S,E,A,H-E.png,S-A.png,hH,sS,mask-4.png,mask-1.png,h,1,0.3996466000098735,s,1,0.06498080003075302,0.05033580004237592,0.05076529993675649,0.10119149996899068,0.10202049999497831,0.7515926999039948
RSVPLG03,km,20260416-152400,1.0.2,20251113-095759,822,Experiment,Both,1,Automatic,main,80,20260416-153149,global,local,750,S,H,A,A,S-A.png,A-H.png,sS,hH,mask-3.png,mask-3.png,h,0,0.2798325000330806,s,0,0.03303369996137917,0.04999840003438294,0.051570900017395616,0.10042620007880032,0.10061239986680448,0.7514141001738608
RSVPLG03,km,20260416-152400,1.0.2,20251113-095759,822,Experiment,Both,1,Automatic,main,81,20260416-153153,global,local,750,H,S,E,E,H-E.png,E-S.png,hH,sS,mask-1.png,mask-1.png,h,1,0.39245199994184077,s,1,0.16077629989013076,0.050982699962332845,0.04843350010924041,0.10096410010010004,0.09978449996560812,0.7542222000192851
RSVPLG03,km,20260416-152400,1.0.2,20251113-095759,822,Experiment,Both,1,Automatic,main,82,20260416-153158,local,local,750,H,H,A,A,A-H.png,A-H.png,hH,hH,mask-3.png,mask-2.png,h,1,0.5879806999582797,h,1,0.11288459994830191,0.05227870005182922,0.049832799937576056,0.10008380003273487,0.10020719980821013,0.7517626001499593
RSVPLG03,km,20260416-152400,1.0.2,20251113-095759,822,Experiment,Both,1,Automatic,main,83,20260416-153202,local,global,750,S,S,E,E,E-S.png,S-E.png,sS,sS,mask-3.png,mask-4.png,s,1,1.3393698998261243,h,0,0.05885619996115565,0.04934490006417036,0.050797299947589636,0.10035410011187196,0.10100069991312921,0.7516108001582325
RSVPLG03,km,20260416-152400,1.0.2,20251113-095759,822,Experiment,Both,1,Automatic,main,84,20260416-153208,local,local,750,S,S,A,A,A-S.png,A-S.png,sS,sS,mask-1.png,mask-1.png,s,1,0.2825587000697851,s,1,0.1290687001310289,0.04875990003347397,0.05002569989301264,0.09950349992141128,0.09974700002931058,0.7535216000396758
RSVPLG03,km,20260416-152400,1.0.2,20251113-095759,822,Experiment,Both,1,Automatic,main,85,20260416-153213,global,local,300,S,S,A,E,S-A.png,E-S.png,sS,sS,mask-4.png,mask-1.png,s,1,0.37402380001731217,s,1,0.10974650015123188,0.05011779977940023,0.04915919993072748,0.10297389980405569,0.09841670002788305,0.3028813998680562
RSVPLG03,km,20260416-152400,1.0.2,20251113-095759,822,Experiment,Both,1,Automatic,main,86,20260416-153217,global,global,300,H,H,A,A,H-A.png,H-A.png,hH,hH,mask-3.png,mask-1.png,h,1,0.42036410002037883,h,1,0.09257020009681582,0.05081130005419254,0.052136499900370836,0.10080719995312393,0.10114010004326701,0.3000296000391245
RSVPLG03,km,20260416-152400,1.0.2,20251113-095759,822,Experiment,Both,1,Automatic,main,87,20260416-153221,global,local,750,H,S,E,A,H-E.png,A-S.png,hH,sS,mask-3.png,mask-3.png,h,1,0.954193500103429,h,0,0.12955309986136854,0.04958860017359257,0.04905869998037815,0.09935360006056726,0.09984649997204542,0.7510857000015676
RSVPLG03,km,20260416-152400,1.0.2,20251113-095759,822,Experiment,Both,1,Automatic,main,88,20260416-153226,local,local,300,H,S,A,E,A-H.png,E-S.png,hH,sS,mask-1.png,mask-4.png,h,1,0.5623836999293417,s,1,0.13046390004456043,0.05112760001793504,0.0499849000480026,0.10051529994234443,0.1003292000386864,0.30078910011798143
RSVPLG03,km,20260416-152400,1.0.2,20251113-095759,822,Experiment,Both,1,Automatic,main,89,20260416-153231,global,global,750,S,S,E,A,S-E.png,S-A.png,sS,sS,mask-4.png,mask-4.png,s,1,0.7473150000441819,s,1,0.12938099983148277,0.04753719992004335,0.049966099904850125,0.0980519000440836,0.10046959994360805,0.7497449999209493
RSVPLG03,km,20260416-152400,1.0.2,20251113-095759,822,Experiment,Both,1,Automatic,main,90,20260416-153236,local,local,750,H,H,A,A,A-H.png,A-H.png,hH,hH,mask-3.png,mask-3.png,h,1,0.8064432998653501,h,1,0.10604420001618564,0.05091070011258125,0.049673100002110004,0.1027650001924485,0.10047349985688925,0.7532799001783133
RSVPLG03,km,20260416-152400,1.0.2,20251113-095759,822,Experiment,Both,1,Automatic,main,91,20260416-153241,local,global,300,S,H,E,A,E-S.png,H-A.png,sS,hH,mask-4.png,mask-4.png,s,1,1.0405923000071198,h,1,0.1426197998225689,0.049255300080403686,0.04975329991430044,0.09968460001982749,0.0999775999225676,0.29892370011657476
RSVPLG03,km,20260416-152400,1.0.2,20251113-095759,822,Experiment,Both,1,Automatic,main,92,20260416-153245,global,local,750,S,S,E,E,S-E.png,E-S.png,sS,sS,mask-3.png,mask-3.png,s,1,0.7649702001363039,s,1,0.09784910012967885,0.04947769991122186,0.049386699916794896,0.09973729983903468,0.10117889987304807,0.7501340999733657
RSVPLG03,km,20260416-152400,1.0.2,20251113-095759,822,Experiment,Both,1,Automatic,main,93,20260416-153251,local,global,300,S,H,A,A,A-S.png,H-A.png,sS,hH,mask-4.png,mask-3.png,s,1,1.2436194000765681,h,1,0.19226429983973503,0.051729700062423944,0.05079040001146495,0.1009364000055939,0.10008490015752614,0.3000590999145061
RSVPLG03,km,20260416-152400,1.0.2,20251113-095759,822,Experiment,Both,1,Automatic,main,94,20260416-153256,local,local,750,S,H,A,E,A-S.png,E-H.png,sS,hH,mask-4.png,mask-3.png,s,1,0.5062757998239249,h,1,0.19837499991990626,0.051008000038564205,0.050948800053447485,0.10027890000492334,0.09987570019438863,0.7519147999119014
RSVPLG03,km,20260416-152400,1.0.2,20251113-095759,822,Experiment,Both,1,Automatic,main,95,20260416-153301,global,global,300,H,H,A,A,H-A.png,H-A.png,hH,hH,mask-4.png,mask-3.png,h,1,0.760618400061503,h,1,0.11254610004834831,0.049581300001591444,0.050639500143006444,0.10047850012779236,0.1011264999397099,0.3005764000117779
RSVPLG03,km,20260416-152400,1.0.2,20251113-095759,822,Experiment,Both,1,Automatic,main,96,20260416-153305,local,global,300,S,H,E,E,E-S.png,H-E.png,sS,hH,mask-1.png,mask-1.png,s,1,0.9710635999217629,h,1,0.15853270003572106,0.050179800018668175,0.049243099987506866,0.10025290003977716,0.10015399986878037,0.30124290008097887
RSVPLG03,km,20260416-152400,1.0.2,20251113-095759,822,Experiment,Both,1,Automatic,main,97,20260416-153310,global,local,300,S,H,A,A,S-A.png,A-H.png,sS,hH,mask-3.png,mask-3.png,s,1,0.4120350999291986,h,1,0.25594429997727275,0.05145389982499182,0.05086840013973415,0.10163239995017648,0.09990010014735162,0.3020036998204887
RSVPLG03,km,20260416-152400,1.0.2,20251113-095759,822,Experiment,Both,1,Automatic,main,98,20260416-153315,global,local,750,H,H,E,E,H-E.png,E-H.png,hH,hH,mask-2.png,mask-4.png,h,1,0.562813299940899,s,0,0.27296319999732077,0.051009099930524826,0.05143440002575517,0.09957239986397326,0.10151319997385144,0.7510521998628974
RSVPLG03,km,20260416-152400,1.0.2,20251113-095759,822,Experiment,Both,1,Automatic,main,99,20260416-153320,global,local,300,S,S,A,E,S-A.png,E-S.png,sS,sS,mask-4.png,mask-2.png,s,1,0.76180460001342,s,1,0.14473709999583662,0.049697499955073,0.04953030007891357,0.09985539992339909,0.09926440007984638,0.30081079993397
RSVPLG03,km,20260416-152400,1.0.2,20251113-095759,822,Experiment,Both,1,Automatic,main,100,20260416-153324,global,global,750,S,H,A,A,S-A.png,H-A.png,sS,hH,mask-2.png,mask-4.png,s,1,0.38076950004324317,h,1,0.1454316999297589,0.04901020019315183,0.05034930002875626,0.09978920011781156,0.10131140006706119,0.7502960001584142
RSVPLG03,km,20260416-153438,1.0.2,20251113-095759,822,Experiment,Both,1,Automatic,warmup,1,20260416-153526,local,global,750,H,S,A,A,A-H.png,S-A.png,hH,sS,mask-4.png,mask-4.png,h,1,0.34079160005785525,s,1,0.0464975000359118,0.041782400105148554,0.04727099998854101,0.09467969997785985,0.098873799899593,0.7363703001756221
RSVPLG03,km,20260416-153438,1.0.2,20251113-095759,822,Experiment,Both,1,Automatic,warmup,2,20260416-153531,global,local,750,H,S,E,A,H-E.png,A-S.png,hH,sS,mask-3.png,mask-3.png,h,1,0.3880049998406321,s,1,0.5321954998653382,0.049810299882665277,0.05003069993108511,0.1013561999425292,0.10087090008892119,0.7433583999518305
RSVPLG03,km,20260416-153438,1.0.2,20251113-095759,822,Experiment,Both,1,Automatic,warmup,3,20260416-153536,global,local,300,H,H,E,E,H-E.png,E-H.png,hH,hH,mask-4.png,mask-1.png,h,1,0.37595429993234575,h,1,0.28894999995827675,0.050289300037547946,0.04987249989062548,0.09960220009088516,0.10009289998561144,0.3040980000514537
RSVPLG03,km,20260416-153438,1.0.2,20251113-095759,822,Experiment,Both,1,Automatic,warmup,4,20260416-153540,local,local,300,S,H,A,E,A-S.png,E-H.png,sS,hH,mask-1.png,mask-1.png,s,1,0.2762833000160754,h,1,0.1932189001236111,0.050647399853914976,0.050662900088354945,0.10088899987749755,0.1014376999810338,0.30449519981630147
RSVPLG03,km,20260416-153438,1.0.2,20251113-095759,822,Experiment,Both,1,Automatic,main,5,20260416-153544,local,local,750,H,H,E,A,E-H.png,A-H.png,hH,hH,mask-2.png,mask-3.png,h,1,0.4371479998808354,h,1,0.11404999997466803,0.0516444998793304,0.0511681002099067,0.10282290005125105,0.1011173001024872,0.7414966998621821
RSVPLG03,km,20260416-153438,1.0.2,20251113-095759,822,Experiment,Both,1,Automatic,main,6,20260416-153549,global,global,300,H,H,A,E,H-A.png,H-E.png,hH,hH,mask-2.png,mask-4.png,h,1,0.3033633998129517,h,1,0.15167369996197522,0.0518652000464499,0.0490193001460284,0.10187399992719293,0.10128260008059442,0.30494499998167157
RSVPLG03,km,20260416-153438,1.0.2,20251113-095759,822,Experiment,Both,1,Automatic,main,7,20260416-153553,global,global,750,S,S,A,A,S-A.png,S-A.png,sS,sS,mask-1.png,mask-4.png,s,1,0.27476050006225705,s,1,0.1768170001450926,0.051366299856454134,0.04974830010905862,0.1002708999440074,0.10012320009991527,0.7429272998124361
RSVPLG03,km,20260416-153438,1.0.2,20251113-095759,822,Experiment,Both,1,Automatic,main,8,20260416-153558,global,global,750,H,H,E,E,H-E.png,H-E.png,hH,hH,mask-3.png,mask-1.png,h,1,0.2857997000683099,h,1,0.3340535000897944,0.051653899950906634,0.05062069999985397,0.10116950003430247,0.10145139996893704,0.7413323998916894
RSVPLG03,km,20260416-153438,1.0.2,20251113-095759,822,Experiment,Both,1,Automatic,main,9,20260416-153602,local,local,750,S,H,E,A,E-S.png,A-H.png,sS,hH,mask-1.png,mask-2.png,s,1,0.4154929001815617,h,1,0.24230999988503754,0.05205500009469688,0.04800229985266924,0.10211870004422963,0.0999395998660475,0.7444450000766665
RSVPLG03,km,20260416-153438,1.0.2,20251113-095759,822,Experiment,Both,1,Automatic,main,10,20260416-153607,local,local,750,S,S,E,E,E-S.png,E-S.png,sS,sS,mask-2.png,mask-2.png,s,1,0.7977217000443488,s,1,0.20942720002494752,0.04943430004641414,0.05051590013317764,0.10123399994336069,0.10165420011617243,0.7410446999128908
RSVPLG03,km,20260416-153438,1.0.2,20251113-095759,822,Experiment,Both,1,Automatic,main,11,20260416-153613,local,local,300,S,H,E,A,E-S.png,A-H.png,sS,hH,mask-3.png,mask-1.png,s,1,0.36835099989548326,h,1,0.12813669978640974,0.04942360008135438,0.052754699951037765,0.10078230011276901,0.10285289981402457,0.3019652001094073
RSVPLG03,km,20260416-153438,1.0.2,20251113-095759,822,Experiment,Both,1,Automatic,main,12,20260416-153617,global,local,750,H,H,A,E,H-A.png,E-H.png,hH,hH,mask-2.png,mask-3.png,s,0,0.4719166997820139,s,0,0.2741861999966204,0.051748699974268675,0.0492147000040859,0.10208870004862547,0.10017760004848242,0.7440061999950558
RSVPLG03,km,20260416-153438,1.0.2,20251113-095759,822,Experiment,Both,1,Automatic,main,13,20260416-153622,local,global,300,S,H,E,E,E-S.png,H-E.png,sS,hH,mask-3.png,mask-3.png,s,1,0.493623600108549,h,1,0.19801370007917285,0.05093559995293617,0.05166009999811649,0.10204320005141199,0.10121090011671185,0.3035635999403894
RSVPLG03,km,20260416-153438,1.0.2,20251113-095759,822,Experiment,Both,1,Automatic,main,14,20260416-153626,local,local,300,S,H,A,A,A-S.png,A-H.png,sS,hH,mask-4.png,mask-1.png,s,1,0.39498929982073605,h,1,0.15975779993459582,0.05061780009418726,0.04943169979378581,0.0990520000923425,0.1008618997875601,0.3018629001453519
RSVPLG03,km,20260416-153438,1.0.2,20251113-095759,822,Experiment,Both,1,Automatic,main,15,20260416-153631,local,global,300,H,H,A,E,A-H.png,H-E.png,hH,hH,mask-3.png,mask-1.png,h,1,1.1578593000303954,h,1,0.35368079994805157,0.05262520001269877,0.05188360018655658,0.10003700014203787,0.10292740003205836,0.3019572999328375
RSVPLG03,km,20260416-153438,1.0.2,20251113-095759,822,Experiment,Both,1,Automatic,main,16,20260416-153636,global,local,750,H,H,E,A,H-E.png,A-H.png,hH,hH,mask-2.png,mask-1.png,h,1,0.291072899941355,h,1,0.19994050008244812,0.048905299976468086,0.04916119994595647,0.10017090011388063,0.10054220003075898,0.7415716000832617
RSVPLG03,km,20260416-153438,1.0.2,20251113-095759,822,Experiment,Both,1,Automatic,main,17,20260416-153641,global,local,300,S,H,E,E,S-E.png,E-H.png,sS,hH,mask-1.png,mask-4.png,s,1,0.30550700007006526,h,1,0.19043339998461306,0.05001899995841086,0.048710100119933486,0.10072269989177585,0.10019420017488301,0.3043982998933643
RSVPLG03,km,20260416-153438,1.0.2,20251113-095759,822,Experiment,Both,1,Automatic,main,18,20260416-153645,local,global,750,H,S,E,E,E-H.png,S-E.png,hH,sS,mask-1.png,mask-4.png,h,1,0.6719448999501765,h,0,0.25760650006122887,0.05026850011199713,0.051323299994692206,0.10148850013501942,0.10097239981405437,0.7425316001754254
RSVPLG03,km,20260416-153438,1.0.2,20251113-095759,822,Experiment,Both,1,Automatic,main,19,20260416-153650,global,local,300,S,S,E,A,S-E.png,A-S.png,sS,sS,mask-1.png,mask-4.png,s,1,0.5622457999270409,s,1,0.20843830006197095,0.049990199971944094,0.05099730007350445,0.10106330015696585,0.10263959993608296,0.30314780003391206
RSVPLG03,km,20260416-153438,1.0.2,20251113-095759,822,Experiment,Both,1,Automatic,main,20,20260416-153654,local,global,750,H,S,E,E,E-H.png,S-E.png,hH,sS,mask-4.png,mask-1.png,h,1,0.6218195999972522,h,0,0.17795370006933808,0.05172250000759959,0.05139819998294115,0.10222080000676215,0.10131619987078011,0.7422289000824094
RSVPLG03,km,20260416-153438,1.0.2,20251113-095759,822,Experiment,Both,1,Automatic,main,21,20260416-153659,local,local,750,S,S,A,E,A-S.png,E-S.png,sS,sS,mask-1.png,mask-1.png,s,1,0.48874260019510984,s,1,0.19304909999482334,0.05066980002447963,0.051596299977973104,0.10002029989846051,0.10176059999503195,0.7410512999631464
RSVPLG03,km,20260416-153438,1.0.2,20251113-095759,822,Experiment,Both,1,Automatic,main,22,20260416-153704,global,local,750,S,S,A,E,S-A.png,E-S.png,sS,sS,mask-2.png,mask-1.png,s,1,0.2551078998949379,s,1,0.15353560005314648,0.05141660012304783,0.05076229991391301,0.10261539998464286,0.10248529980890453,0.7419170001521707
RSVPLG03,km,20260416-153438,1.0.2,20251113-095759,822,Experiment,Both,1,Automatic,main,23,20260416-153709,global,local,300,H,H,A,E,H-A.png,E-H.png,hH,hH,mask-2.png,mask-3.png,h,1,1.1548069000709802,h,1,0.5567660999950022,0.050567999947816133,0.05097920005209744,0.1014844998717308,0.10401879996061325,0.3020563998725265
RSVPLG03,km,20260416-153438,1.0.2,20251113-095759,822,Experiment,Both,1,Automatic,main,24,20260416-153714,global,global,750,S,H,E,E,S-E.png,H-E.png,sS,hH,mask-4.png,mask-3.png,s,1,0.8479390998836607,h,1,0.2860035002231598,0.05231730011291802,0.05177230015397072,0.10137840011157095,0.10094769997522235,0.7419980999547988
RSVPLG03,km,20260416-153438,1.0.2,20251113-095759,822,Experiment,Both,1,Automatic,main,25,20260416-153720,local,global,750,H,H,E,A,E-H.png,H-A.png,hH,hH,mask-4.png,mask-4.png,h,1,0.7189691001549363,h,1,0.2898770000319928,0.05065800016745925,0.05055549996905029,0.10179190011695027,0.10142049985006452,0.7418822001200169
RSVPLG03,km,20260416-153438,1.0.2,20251113-095759,822,Experiment,Both,1,Automatic,main,26,20260416-153735,global,local,300,S,S,A,A,S-A.png,A-S.png,sS,sS,mask-1.png,mask-3.png,s,1,1.9572303001768887,h,0,0.30303279985673726,0.04884449997916818,0.049679100047796965,0.09960400010459125,0.0998116999398917,0.3031854999717325
RSVPLG03,km,20260416-153438,1.0.2,20251113-095759,822,Experiment,Both,1,Automatic,main,27,20260416-153741,global,local,750,H,S,E,A,H-E.png,A-S.png,hH,sS,mask-1.png,mask-4.png,h,1,0.45258949999697506,h,0,0.14987059985287488,0.04932189988903701,0.05194470006972551,0.10009690001606941,0.09947920008562505,0.7416270999237895
RSVPLG03,km,20260416-153438,1.0.2,20251113-095759,822,Experiment,Both,1,Automatic,main,28,20260416-153746,global,local,750,H,H,E,A,H-E.png,A-H.png,hH,hH,mask-2.png,mask-3.png,h,1,0.38692249986343086,h,1,0.22312729991972446,0.05176920001395047,0.051314600044861436,0.10122090019285679,0.10362800001166761,0.7415404000785202
RSVPLG03,km,20260416-153438,1.0.2,20251113-095759,822,Experiment,Both,1,Automatic,main,29,20260416-153751,global,local,300,H,S,E,A,H-E.png,A-S.png,hH,sS,mask-2.png,mask-4.png,h,1,0.2693618999328464,s,1,0.161949000088498,0.04978510015644133,0.05192180001176894,0.10151260020211339,0.10354580008424819,0.3032466000877321
RSVPLG03,km,20260416-153438,1.0.2,20251113-095759,822,Experiment,Both,1,Automatic,main,30,20260416-153755,global,local,750,S,S,E,E,S-E.png,E-S.png,sS,sS,mask-2.png,mask-1.png,s,1,0.36711400002241135,s,1,0.14487299998290837,0.049110500141978264,0.04916270007379353,0.09844140009954572,0.10002769995480776,0.7413234000559896
RSVPLG03,km,20260416-153438,1.0.2,20251113-095759,822,Experiment,Both,1,Automatic,main,31,20260416-153759,global,global,750,S,S,A,A,S-A.png,S-A.png,sS,sS,mask-1.png,mask-3.png,s,1,0.19066710001789033,s,1,0.15842949994839728,0.051272899843752384,0.050321799935773015,0.10274799983017147,0.10145279997959733,0.7434574998915195
RSVPLG03,km,20260416-153438,1.0.2,20251113-095759,822,Experiment,Both,1,Automatic,main,32,20260416-153804,global,local,300,S,S,A,E,S-A.png,E-S.png,sS,sS,mask-2.png,mask-2.png,s,1,0.4042030998971313,s,1,0.1453635001089424,0.04960089991800487,0.04983189981430769,0.09981249994598329,0.10201759985648096,0.3028245000168681
RSVPLG03,km,20260416-153438,1.0.2,20251113-095759,822,Experiment,Both,1,Automatic,main,33,20260416-153808,local,global,750,S,H,A,A,A-S.png,H-A.png,sS,hH,mask-1.png,mask-3.png,s,1,0.40421100007370114,h,1,0.09674669988453388,0.05078410007990897,0.0485447000246495,0.10222040000371635,0.1012476000469178,0.7439987000543624
RSVPLG03,km,20260416-153438,1.0.2,20251113-095759,822,Experiment,Both,1,Automatic,main,34,20260416-153813,local,local,300,H,H,A,A,A-H.png,A-H.png,hH,hH,mask-4.png,mask-3.png,h,1,0.3598571999464184,h,1,0.37526250001974404,0.05094949994236231,0.050072599900886416,0.10192549997009337,0.10126170003786683,0.3031013000290841
RSVPLG03,km,20260416-153438,1.0.2,20251113-095759,822,Experiment,Both,1,Automatic,main,35,20260416-153817,global,global,300,S,S,A,A,S-A.png,S-A.png,sS,sS,mask-1.png,mask-2.png,s,1,0.6306414999999106,s,1,0.1407914999872446,0.05045940005220473,0.051313000032678246,0.10082100005820394,0.1016326998360455,0.30262150010094047
RSVPLG03,km,20260416-153438,1.0.2,20251113-095759,822,Experiment,Both,1,Automatic,main,36,20260416-153822,global,local,300,S,S,A,A,S-A.png,A-S.png,sS,sS,mask-3.png,mask-3.png,s,1,0.5865325999911875,s,1,0.12443359987810254,0.050988800125196576,0.05086029996164143,0.10109789995476604,0.10293239983730018,0.3030513001140207
RSVPLG03,km,20260416-153438,1.0.2,20251113-095759,822,Experiment,Both,1,Automatic,main,37,20260416-153826,global,local,750,S,S,E,A,S-E.png,A-S.png,sS,sS,mask-4.png,mask-1.png,s,1,1.0121343000791967,s,1,0.32072099996730685,0.05127390008419752,0.05068850005045533,0.10387220000848174,0.10237440001219511,0.7426319001242518
RSVPLG03,km,20260416-153438,1.0.2,20251113-095759,822,Experiment,Both,1,Automatic,main,38,20260416-153832,local,local,300,S,H,E,E,E-S.png,E-H.png,sS,hH,mask-3.png,mask-3.png,s,1,0.39079260011203587,h,1,0.11059539997950196,0.051697400165721774,0.05151099991053343,0.10139299998991191,0.1031968998722732,0.3030100001487881
RSVPLG03,km,20260416-153438,1.0.2,20251113-095759,822,Experiment,Both,1,Automatic,main,39,20260416-153836,local,local,300,H,H,A,A,A-H.png,A-H.png,hH,hH,mask-2.png,mask-3.png,h,1,0.5443320998456329,h,1,0.14333799993619323,0.05080140009522438,0.04928379994817078,0.10097660007886589,0.10214440012350678,0.30388589994981885
RSVPLG03,km,20260416-153438,1.0.2,20251113-095759,822,Experiment,Both,1,Automatic,main,40,20260416-153841,local,local,300,H,H,E,A,E-H.png,A-H.png,hH,hH,mask-2.png,mask-1.png,h,1,0.15013840002939105,h,1,0.11908530001528561,0.050862699979916215,0.05055669997818768,0.10186399985104799,0.10078639979474247,0.3023693000432104
RSVPLG03,km,20260416-153438,1.0.2,20251113-095759,822,Experiment,Both,1,Automatic,main,41,20260416-153845,global,global,750,S,S,E,A,S-E.png,S-A.png,sS,sS,mask-4.png,mask-1.png,s,1,0.328811899991706,s,1,0.14071599999442697,0.05246639996767044,0.05143959983251989,0.10323309991508722,0.10268109990283847,0.7419197000563145
RSVPLG03,km,20260416-153438,1.0.2,20251113-095759,822,Experiment,Both,1,Automatic,main,42,20260416-153849,local,local,750,H,S,A,E,A-H.png,E-S.png,hH,sS,mask-2.png,mask-1.png,h,1,0.2896678999532014,s,1,0.11871440010145307,0.04956569988280535,0.050000099930912256,0.09963359986431897,0.10002269991673529,0.741472200024873
RSVPLG03,km,20260416-153438,1.0.2,20251113-095759,822,Experiment,Both,1,Automatic,main,43,20260416-153854,global,local,300,S,H,E,A,S-E.png,A-H.png,sS,hH,mask-3.png,mask-4.png,s,1,0.6857060000766069,h,1,0.17850390006788075,0.051353400107473135,0.04983449983410537,0.10042800009250641,0.09976609982550144,0.3033671001903713
RSVPLG03,km,20260416-153438,1.0.2,20251113-095759,822,Experiment,Both,1,Automatic,main,44,20260416-153858,global,local,750,S,H,E,A,S-E.png,A-H.png,sS,hH,mask-3.png,mask-3.png,s,1,0.20455559995025396,h,1,0.15281160012818873,0.05119599984027445,0.04958390002138913,0.10176429990679026,0.0997785001527518,0.7428672998212278
RSVPLG03,km,20260416-153438,1.0.2,20251113-095759,822,Experiment,Both,1,Automatic,main,45,20260416-153903,global,local,750,H,S,A,E,H-A.png,E-S.png,hH,sS,mask-2.png,mask-1.png,h,1,0.4586287001147866,s,1,0.14288110006600618,0.05003949999809265,0.048825900070369244,0.10166299995034933,0.10128140007145703,0.7418283000588417
RSVPLG03,km,20260416-153438,1.0.2,20251113-095759,822,Experiment,Both,1,Automatic,main,46,20260416-153908,global,global,300,S,S,E,E,S-E.png,S-E.png,sS,sS,mask-1.png,mask-1.png,s,1,0.5237460001371801,s,1,0.20934140007011592,0.05041549983434379,0.04943230003118515,0.10155149991624057,0.09944380004890263,0.30524239991791546
RSVPLG03,km,20260416-153438,1.0.2,20251113-095759,822,Experiment,Both,1,Automatic,main,47,20260416-153912,global,global,750,H,S,E,E,H-E.png,S-E.png,hH,sS,mask-3.png,mask-3.png,h,1,0.5180937999393791,s,1,0.17769529996439815,0.04957909998483956,0.05134240002371371,0.10050539998337626,0.10088480007834733,0.7413349999114871
RSVPLG03,km,20260416-153438,1.0.2,20251113-095759,822,Experiment,Both,1,Automatic,main,48,20260416-153917,local,global,300,S,S,E,A,E-S.png,S-A.png,sS,sS,mask-1.png,mask-2.png,s,1,0.5820870001334697,s,1,0.1919135998468846,0.04970560013316572,0.04872020008042455,0.10192600009031594,0.0997397000901401,0.3051307999994606
RSVPLG03,km,20260416-153438,1.0.2,20251113-095759,822,Experiment,Both,1,Automatic,main,49,20260416-153922,global,global,750,H,S,E,A,H-E.png,S-A.png,hH,sS,mask-2.png,mask-2.png,h,1,0.2751772999763489,s,1,0.16114560002461076,0.05035270005464554,0.0498920998070389,0.09952619997784495,0.10071599995717406,0.7402997000608593
RSVPLG03,km,20260416-153438,1.0.2,20251113-095759,822,Experiment,Both,1,Automatic,main,50,20260416-153926,local,global,750,S,S,A,A,A-S.png,S-A.png,sS,sS,mask-2.png,mask-1.png,s,1,0.5346151001285762,s,1,0.14453659998252988,0.049828199902549386,0.04956359998323023,0.10120549984276295,0.0996817999985069,0.7420347000006586
RSVPLG03,km,20260416-153438,1.0.2,20251113-095759,822,Experiment,Both,1,Automatic,main,51,20260416-154004,local,local,300,H,S,A,A,A-H.png,A-S.png,hH,sS,mask-2.png,mask-2.png,s,0,0.47093200008384883,s,1,3.1696780999191105,0.05112630012445152,0.05092609999701381,0.10082100005820394,0.10085740010254085,0.30270830006338656
RSVPLG03,km,20260416-153438,1.0.2,20251113-095759,822,Experiment,Both,1,Automatic,main,52,20260416-154011,global,global,750,H,S,E,A,H-E.png,S-A.png,hH,sS,mask-3.png,mask-3.png,s,0,0.3726308001205325,s,1,0.1458292999304831,0.053255500039085746,0.05181950004771352,0.10336730000562966,0.10132479993626475,0.7427622999530286
RSVPLG03,km,20260416-153438,1.0.2,20251113-095759,822,Experiment,Both,1,Automatic,main,53,20260416-154016,local,local,300,H,H,E,E,E-H.png,E-H.png,hH,hH,mask-2.png,mask-4.png,h,1,3.3179419999942183,h,1,1.2974658000748605,0.049782600020989776,0.049917399883270264,0.10202999995090067,0.10012819990515709,0.30398910003714263
RSVPLG03,km,20260416-153438,1.0.2,20251113-095759,822,Experiment,Both,1,Automatic,main,54,20260416-154024,global,global,300,S,S,A,E,S-A.png,S-E.png,sS,sS,mask-3.png,mask-4.png,s,1,0.45309139997698367,s,1,0.19217579998075962,0.05037900013849139,0.050900000147521496,0.10141670005396008,0.10105910012498498,0.3045034999959171
RSVPLG03,km,20260416-153438,1.0.2,20251113-095759,822,Experiment,Both,1,Automatic,main,55,20260416-154028,local,global,750,S,H,A,E,A-S.png,H-E.png,sS,hH,mask-3.png,mask-1.png,s,1,1.0859658000990748,h,1,0.2692471998743713,0.051016399869695306,0.048980899853631854,0.1008931000251323,0.10063519980758429,0.742310700006783
RSVPLG03,km,20260416-153438,1.0.2,20251113-095759,822,Experiment,Both,1,Automatic,main,56,20260416-154034,local,global,300,H,S,A,E,A-H.png,S-E.png,hH,sS,mask-4.png,mask-4.png,h,1,0.5633075998630375,s,1,0.3062074000481516,0.05037730000913143,0.05247189989313483,0.0990357999689877,0.10186419985257089,0.30093100015074015
RSVPLG03,km,20260416-153438,1.0.2,20251113-095759,822,Experiment,Both,1,Automatic,main,57,20260416-154039,local,local,300,H,H,A,E,A-H.png,E-H.png,hH,hH,mask-2.png,mask-1.png,h,1,0.6889046998694539,h,1,0.19272550009191036,0.051457899855449796,0.0489264999050647,0.10174249997362494,0.10043099988251925,0.3055026999209076
RSVPLG03,km,20260416-153438,1.0.2,20251113-095759,822,Experiment,Both,1,Automatic,main,58,20260416-154043,global,global,300,S,H,A,A,S-A.png,H-A.png,sS,hH,mask-4.png,mask-3.png,s,1,1.4345005999784917,h,1,0.24231509980745614,0.052153300028294325,0.050603500101715326,0.10302080004476011,0.10192409995943308,0.3051078000571579
RSVPLG03,km,20260416-153438,1.0.2,20251113-095759,822,Experiment,Both,1,Automatic,main,59,20260416-154049,local,global,750,S,S,E,E,E-S.png,S-E.png,sS,sS,mask-4.png,mask-3.png,s,1,0.5281108000781387,s,1,0.1759879000019282,0.050824200036004186,0.05071830004453659,0.1011659000068903,0.10292189987376332,0.7414086000062525
RSVPLG03,km,20260416-153438,1.0.2,20251113-095759,822,Experiment,Both,1,Automatic,main,60,20260416-154054,local,global,300,H,S,A,E,A-H.png,S-E.png,hH,sS,mask-2.png,mask-1.png,h,1,0.8414327998179942,s,1,0.19210479990579188,0.05089889978989959,0.049402000149711967,0.10405460000038147,0.09970120014622808,0.30520969978533685
RSVPLG03,km,20260416-153438,1.0.2,20251113-095759,822,Experiment,Both,1,Automatic,main,61,20260416-154058,global,local,300,H,H,E,A,H-E.png,A-H.png,hH,hH,mask-3.png,mask-2.png,h,1,0.38352540018968284,h,1,0.12363109993748367,0.05187730002216995,0.05146660003811121,0.10231139999814332,0.1022365998942405,0.30449020001105964
RSVPLG03,km,20260416-153438,1.0.2,20251113-095759,822,Experiment,Both,1,Automatic,main,62,20260416-154103,global,global,300,H,H,E,A,H-E.png,H-A.png,hH,hH,mask-2.png,mask-3.png,h,1,0.5798782999627292,h,1,0.12628919980488718,0.0515972999855876,0.05063769989646971,0.10133839980699122,0.10156810004264116,0.30300679989159107
RSVPLG03,km,20260416-153438,1.0.2,20251113-095759,822,Experiment,Both,1,Automatic,main,63,20260416-154107,local,global,300,S,S,A,A,A-S.png,S-A.png,sS,sS,mask-3.png,mask-2.png,s,1,0.5682238000445068,s,1,0.1577574999537319,0.051965800113976,0.04943179991096258,0.10175139992497861,0.1017196998000145,0.3058335001114756
RSVPLG03,km,20260416-153438,1.0.2,20251113-095759,822,Experiment,Both,1,Automatic,main,64,20260416-154112,global,global,750,H,H,A,E,H-A.png,H-E.png,hH,hH,mask-4.png,mask-1.png,h,1,0.32619190006516874,h,1,0.18511789990589023,0.0496651001740247,0.05083459988236427,0.10131440008990467,0.10274309990927577,0.7399012001696974
RSVPLG03,km,20260416-153438,1.0.2,20251113-095759,822,Experiment,Both,1,Automatic,main,65,20260416-154116,local,local,750,H,H,E,E,E-H.png,E-H.png,hH,hH,mask-2.png,mask-4.png,h,1,0.355564400088042,s,0,0.11400709999725223,0.04980750009417534,0.05124549986794591,0.10064930003136396,0.10262489994056523,0.7420246000401676
RSVPLG03,km,20260416-153438,1.0.2,20251113-095759,822,Experiment,Both,1,Automatic,main,66,20260416-154121,global,local,300,S,S,A,A,S-A.png,A-S.png,sS,sS,mask-2.png,mask-2.png,s,1,0.41259359987452626,s,1,0.24125030008144677,0.05003549996763468,0.04978220001794398,0.09990000003017485,0.1008455001283437,0.3037540998775512
RSVPLG03,km,20260416-153438,1.0.2,20251113-095759,822,Experiment,Both,1,Automatic,main,67,20260416-154125,local,global,300,H,H,A,A,A-H.png,H-A.png,hH,hH,mask-4.png,mask-4.png,h,1,0.5631050998345017,h,1,0.1923627001233399,0.04956109984777868,0.04762450000271201,0.10056369984522462,0.09758859989233315,0.3064641000237316
RSVPLG03,km,20260416-153438,1.0.2,20251113-095759,822,Experiment,Both,1,Automatic,main,68,20260416-154130,global,global,300,H,S,A,E,H-A.png,S-E.png,hH,sS,mask-4.png,mask-3.png,h,1,0.3235116999130696,s,1,0.19341009994968772,0.04903850005939603,0.05105570005252957,0.10092930006794631,0.10098320012912154,0.3020299000199884
RSVPLG03,km,20260416-153438,1.0.2,20251113-095759,822,Experiment,Both,1,Automatic,main,69,20260416-154134,global,local,750,H,S,E,A,H-E.png,A-S.png,hH,sS,mask-4.png,mask-2.png,h,1,0.31195040000602603,s,1,0.11244499986059964,0.052276199916377664,0.050541300093755126,0.10250620008446276,0.10049390001222491,0.7434157999232411
RSVPLG03,km,20260416-153438,1.0.2,20251113-095759,822,Experiment,Both,1,Automatic,main,70,20260416-154139,global,global,300,H,S,A,A,H-A.png,S-A.png,hH,sS,mask-3.png,mask-3.png,h,1,0.3302768000867218,s,1,0.07539630006067455,0.05082030012272298,0.05141910002566874,0.09929790021851659,0.10289610014297068,0.3025521000381559
RSVPLG03,km,20260416-153438,1.0.2,20251113-095759,822,Experiment,Both,1,Automatic,main,71,20260416-154143,local,local,750,H,S,A,E,A-H.png,E-S.png,hH,sS,mask-4.png,mask-4.png,h,1,0.35961519996635616,s,1,0.15527280000969768,0.05066769989207387,0.05146929994225502,0.10328609985299408,0.1004381999373436,0.7424294999800622
RSVPLG03,km,20260416-153438,1.0.2,20251113-095759,822,Experiment,Both,1,Automatic,main,72,20260416-154148,local,local,750,S,S,E,E,E-S.png,E-S.png,sS,sS,mask-1.png,mask-2.png,s,1,0.46633560000918806,s,1,0.14147270005196333,0.04914729995653033,0.05058920010924339,0.10106789995916188,0.10135120013728738,0.743030000012368
RSVPLG03,km,20260416-153438,1.0.2,20251113-095759,822,Experiment,Both,1,Automatic,main,73,20260416-154152,global,global,300,S,S,A,E,S-A.png,S-E.png,sS,sS,mask-1.png,mask-1.png,s,1,0.21835570014081895,s,1,0.09052169998176396,0.04917810019105673,0.05062439991161227,0.10049540014006197,0.10070579987950623,0.30231510009616613
RSVPLG03,km,20260416-153438,1.0.2,20251113-095759,822,Experiment,Both,1,Automatic,main,74,20260416-154156,global,global,750,S,S,E,E,S-E.png,S-E.png,sS,sS,mask-3.png,mask-3.png,s,1,0.1790577000938356,s,1,0.050235999980941415,0.051075000083073974,0.05117619992233813,0.10110219987109303,0.10144659993238747,0.7403579000383615
RSVPLG03,km,20260416-153438,1.0.2,20251113-095759,822,Experiment,Both,1,Automatic,main,75,20260416-154201,global,global,300,H,S,E,E,H-E.png,S-E.png,hH,sS,mask-3.png,mask-2.png,h,1,0.3786022998392582,s,1,0.14535670005716383,0.049331999849528074,0.05228389985859394,0.10060049989260733,0.10229419986717403,0.30144209996797144
RSVPLG03,km,20260416-153438,1.0.2,20251113-095759,822,Experiment,Both,1,Automatic,main,76,20260416-154213,local,local,750,H,S,A,A,A-H.png,A-S.png,hH,sS,mask-3.png,mask-4.png,h,1,0.2789032000582665,s,1,0.07363080000504851,0.05118670011870563,0.0500237001106143,0.09951309999451041,0.10097680008038878,0.7409618999809027
RSVPLG03,km,20260416-153438,1.0.2,20251113-095759,822,Experiment,Both,1,Automatic,main,77,20260416-154218,global,global,750,H,H,A,A,H-A.png,H-A.png,hH,hH,mask-3.png,mask-4.png,h,1,0.37167449994012713,h,1,0.13024150021374226,0.05002789990976453,0.05003440007567406,0.100897999946028,0.10128549998626113,0.7434030999429524
RSVPLG03,km,20260416-153438,1.0.2,20251113-095759,822,Experiment,Both,1,Automatic,main,78,20260416-154223,local,global,750,S,S,E,E,E-S.png,S-E.png,sS,sS,mask-2.png,mask-2.png,s,1,0.43183459993451834,s,1,0.09342749998904765,0.050371200079098344,0.05063249985687435,0.0994287000503391,0.10232389997690916,0.7400126000866294
RSVPLG03,km,20260416-153438,1.0.2,20251113-095759,822,Experiment,Both,1,Automatic,main,79,20260416-154227,local,global,750,H,S,A,A,A-H.png,S-A.png,hH,sS,mask-3.png,mask-2.png,h,1,1.2143198000267148,s,1,0.19917990011163056,0.050026699900627136,0.05090749985538423,0.09980909992009401,0.10168079985305667,0.7413840000517666
RSVPLG03,km,20260416-153438,1.0.2,20251113-095759,822,Experiment,Both,1,Automatic,main,80,20260416-154233,local,local,750,H,H,A,E,A-H.png,E-H.png,hH,hH,mask-2.png,mask-1.png,h,1,0.6098198997788131,h,1,0.10339689999818802,0.048925000010058284,0.051037299912422895,0.10044519999064505,0.09982659993693233,0.7411634000018239
RSVPLG03,km,20260416-153438,1.0.2,20251113-095759,822,Experiment,Both,1,Automatic,main,81,20260416-154238,local,local,750,S,S,A,E,A-S.png,E-S.png,sS,sS,mask-1.png,mask-2.png,s,1,0.2679907998535782,s,1,0.14345440012402833,0.05151419993489981,0.0499739998485893,0.10096490010619164,0.1008739999961108,0.741358800092712
RSVPLG03,km,20260416-153438,1.0.2,20251113-095759,822,Experiment,Both,1,Automatic,main,82,20260416-154242,local,local,300,H,S,E,E,E-H.png,E-S.png,hH,sS,mask-3.png,mask-2.png,s,0,1.4492717001121491,s,1,0.6081369000021368,0.049980799900367856,0.05076460004784167,0.10167879983782768,0.10269500012509525,0.30353529984131455
RSVPLG03,km,20260416-153438,1.0.2,20251113-095759,822,Experiment,Both,1,Automatic,main,83,20260416-154248,local,global,750,S,S,E,A,E-S.png,S-A.png,sS,sS,mask-1.png,mask-1.png,s,1,0.41747400001622736,h,0,0.12223470001481473,0.049296499928459525,0.05038310005329549,0.10018180008046329,0.10273079993203282,0.7411648000124842
RSVPLG03,km,20260416-153438,1.0.2,20251113-095759,822,Experiment,Both,1,Automatic,main,84,20260416-154253,local,local,300,S,H,E,A,E-S.png,A-H.png,sS,hH,mask-2.png,mask-3.png,s,1,0.4086177998688072,h,1,0.11328250006772578,0.05125320004299283,0.051302499836310744,0.10201640008017421,0.09953319979831576,0.30502600013278425
RSVPLG03,km,20260416-153438,1.0.2,20251113-095759,822,Experiment,Both,1,Automatic,main,85,20260416-154257,global,local,300,H,S,E,A,H-E.png,A-S.png,hH,sS,mask-3.png,mask-1.png,h,1,0.8564180999528617,h,0,0.2731077999342233,0.051197499968111515,0.05039840005338192,0.10220570000819862,0.10167800006456673,0.3039293000474572
RSVPLG03,km,20260416-153438,1.0.2,20251113-095759,822,Experiment,Both,1,Automatic,main,86,20260416-154302,local,global,300,S,S,E,E,E-S.png,S-E.png,sS,sS,mask-3.png,mask-4.png,s,1,0.6630810999777168,s,1,0.10255490010604262,0.04943529982119799,0.05130670010112226,0.10220049996860325,0.09965930017642677,0.3042382998391986
RSVPLG03,km,20260416-153438,1.0.2,20251113-095759,822,Experiment,Both,1,Automatic,main,87,20260416-154307,local,global,300,S,H,A,A,A-S.png,H-A.png,sS,hH,mask-1.png,mask-1.png,h,0,1.373751699924469,s,0,0.1759356998372823,0.04940239991992712,0.04986939998343587,0.1013994999229908,0.10178640019148588,0.3032960998825729
RSVPLG03,km,20260416-153438,1.0.2,20251113-095759,822,Experiment,Both,1,Automatic,main,88,20260416-154312,local,global,300,S,S,E,E,E-S.png,S-E.png,sS,sS,mask-3.png,mask-2.png,s,1,0.42566660000011325,s,1,0.13024239987134933,0.04977689986117184,0.051267600152641535,0.09987460006959736,0.10342089994810522,0.30163339991122484
RSVPLG03,km,20260416-153438,1.0.2,20251113-095759,822,Experiment,Both,1,Automatic,main,89,20260416-154316,local,global,300,S,H,E,E,E-S.png,H-E.png,sS,hH,mask-2.png,mask-1.png,s,1,0.531457600183785,h,1,0.13607480004429817,0.05199069995433092,0.04982319986447692,0.10236730007454753,0.10086230002343655,0.3048098001163453
RSVPLG03,km,20260416-153438,1.0.2,20251113-095759,822,Experiment,Both,1,Automatic,main,90,20260416-154321,local,global,300,H,S,E,A,E-H.png,S-A.png,hH,sS,mask-4.png,mask-4.png,h,1,0.42482990003190935,h,0,0.10911559988744557,0.0490748998709023,0.05276910006068647,0.10011449991725385,0.10111619997769594,0.3010746999643743
RSVPLG03,km,20260416-153438,1.0.2,20251113-095759,822,Experiment,Both,1,Automatic,main,91,20260416-154325,global,local,300,H,S,E,A,H-E.png,A-S.png,hH,sS,mask-3.png,mask-2.png,h,1,0.3559711000416428,s,1,0.09647580003365874,0.04992110002785921,0.05112840002402663,0.10022899997420609,0.10083510004915297,0.3036762000992894
RSVPLG03,km,20260416-153438,1.0.2,20251113-095759,822,Experiment,Both,1,Automatic,main,92,20260416-154329,local,local,300,H,S,A,E,A-H.png,E-S.png,hH,sS,mask-3.png,mask-3.png,s,0,0.6525766002014279,s,1,0.27837100019678473,0.05203339993022382,0.05059070000424981,0.10125379986129701,0.10050810012035072,0.3048464998137206
RSVPLG03,km,20260416-153438,1.0.2,20251113-095759,822,Experiment,Both,1,Automatic,main,93,20260416-154334,global,local,750,S,S,A,E,S-A.png,E-S.png,sS,sS,mask-4.png,mask-3.png,s,1,0.38721129996702075,s,1,0.11364160012453794,0.05029939999803901,0.0490854000672698,0.10022689984180033,0.09997340012341738,0.7433069997932762
RSVPLG03,km,20260416-153438,1.0.2,20251113-095759,822,Experiment,Both,1,Automatic,main,94,20260416-154338,global,local,750,S,S,A,A,S-A.png,A-S.png,sS,sS,mask-3.png,mask-1.png,s,1,0.20792499999515712,h,0,0.12020520004443824,0.04955079988576472,0.051101099932566285,0.10161689994856715,0.10260330000892282,0.7408225999679416
RSVPLG03,km,20260416-153438,1.0.2,20251113-095759,822,Experiment,Both,1,Automatic,main,95,20260416-154343,local,global,750,H,S,E,E,E-H.png,S-E.png,hH,sS,mask-3.png,mask-2.png,s,0,0.3739246998447925,h,0,0.3285809000954032,0.0507831999566406,0.05142380017787218,0.10040170000866055,0.10066550015471876,0.7420717999339104
RSVPLG03,km,20260416-153438,1.0.2,20251113-095759,822,Experiment,Both,1,Automatic,main,96,20260416-154348,global,global,300,S,H,A,E,S-A.png,H-E.png,sS,hH,mask-2.png,mask-1.png,s,1,0.2326640000101179,h,1,0.052273199893534184,0.0523246000520885,0.04901430010795593,0.10151439998298883,0.10043060011230409,0.30449409992434084
RSVPLG03,km,20260416-153438,1.0.2,20251113-095759,822,Experiment,Both,1,Automatic,main,97,20260416-154352,local,global,750,S,S,A,A,A-S.png,S-A.png,sS,sS,mask-4.png,mask-3.png,s,1,0.3327877998817712,h,0,0.11064839991740882,0.050036099972203374,0.05137310014106333,0.10017490014433861,0.10142550012096763,0.7404672999400645
RSVPLG03,km,20260416-153438,1.0.2,20251113-095759,822,Experiment,Both,1,Automatic,main,98,20260416-154356,global,global,300,H,H,A,A,H-A.png,H-A.png,hH,hH,mask-3.png,mask-4.png,h,1,0.6602690999861807,h,1,0.11304700002074242,0.049973800079897046,0.052720499923452735,0.10103080002591014,0.1016299999319017,0.3024093001149595
RSVPLG03,km,20260416-153438,1.0.2,20251113-095759,822,Experiment,Both,1,Automatic,main,99,20260416-154401,global,global,750,H,H,A,E,H-A.png,H-E.png,hH,hH,mask-3.png,mask-1.png,h,1,0.1834088999312371,h,1,0.09683299995958805,0.050594599917531013,0.05069510010071099,0.10042819986119866,0.10111010004766285,0.7406102998647839
RSVPLG03,km,20260416-153438,1.0.2,20251113-095759,822,Experiment,Both,1,Automatic,main,100,20260416-154405,local,local,750,H,H,E,E,E-H.png,E-H.png,hH,hH,mask-2.png,mask-2.png,h,1,0.23412959999404848,h,1,0.10623899986967444,0.05172940017655492,0.04916259995661676,0.10279550007544458,0.09887710004113615,0.7442149000708014
