exp,exp_initials,runtime,ver,modtime,sub,blocktype,targets,cuetype,mode,trialtype,trial,trialtime,t1_level,t2_level,t2_lag,t1,t2,distractor1,distractor2,stimfile1,stimfile2,t1_corr,t2_corr,maskfile1,maskfile2,t1_resp,t1_acc,t1_rt,t2_resp,t2_acc,t2_rt,t1_dur,t2_dur,t1mask_soa,t2mask_soa,t1t2_soa
RSVPLG03,km,20260305-172010,1.0.2,20251113-095759,792,Introduction,T1,1,Automatic,main,1,20260305-172037,local,global,750,S,S,A,A,A-S.png,S-A.png,sS,sS,mask-3.png,mask-3.png,s,1,2.2068723999836948,none,-5,0,0.08959349998622201,0.09898679997422732,0.19024070000159554,0.19854649997432716,0.7413780000060797
RSVPLG03,km,20260305-172010,1.0.2,20251113-095759,792,Introduction,T1,1,Automatic,main,2,20260305-172043,global,local,750,H,S,A,A,H-A.png,A-S.png,hH,sS,mask-2.png,mask-1.png,h,1,0.055344799999147654,none,-5,0,0.10014400002546608,0.09993210001266561,0.200687000004109,0.1995947000104934,0.7507919000054244
RSVPLG03,km,20260305-172010,1.0.2,20251113-095759,792,Introduction,T1,1,Automatic,main,3,20260305-172047,global,global,750,S,S,E,A,S-E.png,S-A.png,sS,sS,mask-3.png,mask-2.png,s,1,2.206705000018701,none,-5,0,0.09869699997943826,0.09979539999039844,0.19843459999538027,0.19976190000306815,0.750079099991126
RSVPLG03,km,20260305-172010,1.0.2,20251113-095759,792,Introduction,T1,1,Automatic,main,4,20260305-172054,local,local,750,H,S,E,E,E-H.png,E-S.png,hH,sS,mask-1.png,mask-1.png,s,0,3.368530000007013,none,-5,0,0.10047950001899153,0.10014580001006834,0.20100709999678656,0.1996178000117652,0.7515104000049178
RSVPLG03,km,20260305-172010,1.0.2,20251113-095759,792,Introduction,T1,1,Automatic,main,5,20260305-172101,local,global,750,S,S,A,E,A-S.png,S-E.png,sS,sS,mask-4.png,mask-4.png,h,0,2.4134164999995846,none,-5,0,0.100610699999379,0.1001199999882374,0.20093039999483153,0.1994305000116583,0.7513036000018474
RSVPLG03,km,20260305-172010,1.0.2,20251113-095759,792,Introduction,T1,1,Automatic,main,6,20260305-172108,global,global,750,H,H,E,E,H-E.png,H-E.png,hH,hH,mask-4.png,mask-4.png,h,1,1.0583169000165071,none,-5,0,0.1003035000176169,0.09986940000089817,0.201474400004372,0.20071539998752996,0.7510452000133228
RSVPLG03,km,20260305-172010,1.0.2,20251113-095759,792,Introduction,T1,1,Automatic,main,7,20260305-172113,local,global,750,S,S,A,A,A-S.png,S-A.png,sS,sS,mask-4.png,mask-4.png,s,1,1.0143185000051744,none,-5,0,0.10050960001535714,0.1002740999974776,0.20000549999531358,0.20039400001405738,0.7497526000079233
RSVPLG03,km,20260305-172010,1.0.2,20251113-095759,792,Introduction,T1,1,Automatic,main,8,20260305-172119,global,local,750,S,S,A,E,S-A.png,E-S.png,sS,sS,mask-2.png,mask-3.png,s,1,0.8386727999895811,none,-5,0,0.09828509998624213,0.09993759999633767,0.19830669998191297,0.20002250000834465,0.7507484999950975
RSVPLG03,km,20260305-172010,1.0.2,20251113-095759,792,Introduction,T1,1,Automatic,main,9,20260305-172124,global,global,750,H,S,E,E,H-E.png,S-E.png,hH,sS,mask-3.png,mask-2.png,s,0,1.6638939999975264,none,-5,0,0.10123130001011305,0.10121349999099039,0.1991555000131484,0.20076129998778924,0.7499983000161592
RSVPLG03,km,20260305-172010,1.0.2,20251113-095759,792,Introduction,T1,1,Automatic,main,10,20260305-172129,local,global,750,H,H,A,E,A-H.png,H-E.png,hH,hH,mask-1.png,mask-2.png,none,-6,0,none,-5,0,0.09997119999025017,0.09904239999013953,0.19933669999591075,0.19966770001337864,0.750136399990879
RSVPLG03,km,20260305-172142,1.0.2,20251113-095759,792,Practice,T1,1,Automatic,main,1,20260305-172200,global,global,750,H,S,A,E,H-A.png,S-E.png,hH,sS,mask-1.png,mask-3.png,h,1,7.071049899997888,none,-5,0,0.041021999990334734,0.04944699999759905,0.09114400000544265,0.09894279998843558,0.744427400000859
RSVPLG03,km,20260305-172142,1.0.2,20251113-095759,792,Practice,T1,1,Automatic,main,2,20260305-172211,global,global,300,H,H,A,A,H-A.png,H-A.png,hH,hH,mask-1.png,mask-4.png,h,1,1.0247926999873016,none,-5,0,0.04948960000183433,0.04898429999593645,0.0985592000070028,0.0992942999873776,0.2995740000042133
RSVPLG03,km,20260305-172142,1.0.2,20251113-095759,792,Practice,T1,1,Automatic,main,3,20260305-172216,global,global,750,H,S,A,E,H-A.png,S-E.png,hH,sS,mask-2.png,mask-2.png,h,1,1.0829043999838177,none,-5,0,0.047589800000423566,0.04896290000760928,0.09873670001979917,0.09904630001983605,0.7508758000039961
RSVPLG03,km,20260305-172142,1.0.2,20251113-095759,792,Practice,T1,1,Automatic,main,4,20260305-172221,local,local,750,H,H,A,E,A-H.png,E-H.png,hH,hH,mask-4.png,mask-2.png,h,1,0.8804063999850769,none,-5,0,0.04989180000848137,0.050660000008065253,0.10069239998119883,0.10042590001830831,0.7501971999881789
RSVPLG03,km,20260305-172142,1.0.2,20251113-095759,792,Practice,T1,1,Automatic,main,5,20260305-172226,global,local,750,H,S,A,A,H-A.png,A-S.png,hH,sS,mask-3.png,mask-4.png,h,1,0.8322775999840815,none,-5,0,0.0499091999954544,0.04876410000724718,0.09967450000112876,0.09871260001091287,0.752046599984169
RSVPLG03,km,20260305-172142,1.0.2,20251113-095759,792,Practice,T1,1,Automatic,main,6,20260305-172231,local,global,300,S,S,E,A,E-S.png,S-A.png,sS,sS,mask-2.png,mask-2.png,s,1,0.5124114000063855,none,-5,0,0.04863249999471009,0.04943230000208132,0.09902080000028946,0.09888989999308251,0.30087340000318363
RSVPLG03,km,20260305-172142,1.0.2,20251113-095759,792,Practice,T1,1,Automatic,main,7,20260305-172235,global,local,750,H,H,A,A,H-A.png,A-H.png,hH,hH,mask-1.png,mask-1.png,h,1,0.68523170001572,none,-5,0,0.047268299997085705,0.0509363999881316,0.0975128999853041,0.10090319998562336,0.7494942999910563
RSVPLG03,km,20260305-172142,1.0.2,20251113-095759,792,Practice,T1,1,Automatic,main,8,20260305-172240,local,local,300,S,S,A,A,A-S.png,A-S.png,sS,sS,mask-4.png,mask-2.png,s,1,0.3466088999994099,none,-5,0,0.05118640000000596,0.0497785999905318,0.10026900001685135,0.09955869999248534,0.30010820002644323
RSVPLG03,km,20260305-172142,1.0.2,20251113-095759,792,Practice,T1,1,Automatic,main,9,20260305-172244,global,local,300,H,H,A,E,H-A.png,E-H.png,hH,hH,mask-1.png,mask-1.png,h,1,0.5196836999966763,none,-5,0,0.04986199998529628,0.04889740000362508,0.10003979998873547,0.10052320000249892,0.29979639998055063
RSVPLG03,km,20260305-172142,1.0.2,20251113-095759,792,Practice,T1,1,Automatic,main,10,20260305-172248,local,local,300,H,S,A,A,A-H.png,A-S.png,hH,sS,mask-4.png,mask-3.png,h,1,0.43661979999160394,none,-5,0,0.04890909997629933,0.049994600005447865,0.09770250000292435,0.0992885000014212,0.299281699990388
RSVPLG03,km,20260305-172142,1.0.2,20251113-095759,792,Practice,T1,1,Automatic,main,11,20260305-172252,local,global,750,S,S,A,E,A-S.png,S-E.png,sS,sS,mask-1.png,mask-1.png,s,1,0.3955588999961037,none,-5,0,0.04937570000765845,0.050643599999602884,0.10023910002200864,0.09953989999485202,0.7496842000109609
RSVPLG03,km,20260305-172142,1.0.2,20251113-095759,792,Practice,T1,1,Automatic,main,12,20260305-172256,local,global,300,S,S,E,A,E-S.png,S-A.png,sS,sS,mask-1.png,mask-4.png,s,1,0.47783560000243597,none,-5,0,0.04996569998911582,0.04966489999787882,0.09988840000005439,0.09928249998483807,0.30085120000876486
RSVPLG03,km,20260305-172142,1.0.2,20251113-095759,792,Practice,T1,1,Automatic,main,13,20260305-172300,local,global,750,S,H,E,E,E-S.png,H-E.png,sS,hH,mask-2.png,mask-3.png,s,1,0.4913851000019349,none,-5,0,0.05041729999356903,0.049970699998084456,0.09979000000748783,0.10106489999452606,0.7497853999957442
RSVPLG03,km,20260305-172142,1.0.2,20251113-095759,792,Practice,T1,1,Automatic,main,14,20260305-172305,global,local,300,H,H,A,E,H-A.png,E-H.png,hH,hH,mask-2.png,mask-4.png,h,1,0.4298498000134714,none,-5,0,0.05039400001987815,0.04967800001031719,0.10010630000033416,0.10048180000740103,0.29950630001258105
RSVPLG03,km,20260305-172142,1.0.2,20251113-095759,792,Practice,T1,1,Automatic,main,15,20260305-172309,local,local,750,H,H,A,A,A-H.png,A-H.png,hH,hH,mask-4.png,mask-4.png,h,1,0.4581326000043191,none,-5,0,0.05094330001156777,0.04894209999474697,0.09966589999385178,0.09742229999392293,0.751698000007309
RSVPLG03,km,20260305-172142,1.0.2,20251113-095759,792,Practice,T1,1,Automatic,main,16,20260305-172313,global,global,300,S,H,E,A,S-E.png,H-A.png,sS,hH,mask-3.png,mask-1.png,s,1,0.3249366999953054,none,-5,0,0.05086049999226816,0.04963639998459257,0.09982040000613779,0.10045569998328574,0.3006450000102632
RSVPLG03,km,20260305-172413,1.0.2,20251113-095759,792,Introduction,Both,1,Automatic,main,1,20260305-172434,global,local,750,S,S,A,A,S-A.png,A-S.png,sS,sS,mask-3.png,mask-4.png,s,1,0.765840100008063,h,0,1.6132218000129797,0.09976139999344014,0.09967160000815056,0.2005176999955438,0.19841069998801686,0.7516733999946155
RSVPLG03,km,20260305-172413,1.0.2,20251113-095759,792,Introduction,Both,1,Automatic,main,2,20260305-172441,local,local,750,H,S,A,E,A-H.png,E-S.png,hH,sS,mask-2.png,mask-2.png,h,1,1.7042344999790657,s,1,1.3439713999978267,0.10175309999613091,0.10010000001057051,0.20154740000725724,0.19948060001479462,0.7503147999814246
RSVPLG03,km,20260305-172413,1.0.2,20251113-095759,792,Introduction,Both,1,Automatic,main,3,20260305-172449,global,global,750,H,H,A,A,H-A.png,H-A.png,hH,hH,mask-3.png,mask-1.png,h,1,1.7150296000181697,h,1,2.9275290000077803,0.10086320000118576,0.09978570000384934,0.2007875999843236,0.20081670000217855,0.7504808999947272
RSVPLG03,km,20260305-172413,1.0.2,20251113-095759,792,Introduction,Both,1,Automatic,main,4,20260305-172458,local,global,750,H,S,A,E,A-H.png,S-E.png,hH,sS,mask-4.png,mask-4.png,h,1,1.3251335000095423,s,1,0.655111100000795,0.09976840001763776,0.10012809999170713,0.19981160000315867,0.20001459997729398,0.7492654000234324
RSVPLG03,km,20260305-172413,1.0.2,20251113-095759,792,Introduction,Both,1,Automatic,main,5,20260305-172504,local,local,750,H,H,E,E,E-H.png,E-H.png,hH,hH,mask-2.png,mask-1.png,h,1,2.220352800010005,h,1,1.039557199983392,0.10019739999552257,0.10028859999147244,0.19964179999078624,0.19976190000306815,0.7514470999885816
RSVPLG03,km,20260305-172413,1.0.2,20251113-095759,792,Introduction,Both,1,Automatic,main,6,20260305-172512,global,local,750,S,S,E,A,S-E.png,A-S.png,sS,sS,mask-1.png,mask-4.png,s,1,2.1415159000025596,s,1,1.0708775999955833,0.09980539997923188,0.09983650001231581,0.1997131999814883,0.19888000001083128,0.7500544999784324
RSVPLG03,km,20260305-172413,1.0.2,20251113-095759,792,Introduction,Both,1,Automatic,main,7,20260305-172519,global,global,750,H,H,E,E,H-E.png,H-E.png,hH,hH,mask-4.png,mask-1.png,h,1,1.1626774000178557,s,0,1.0237095000047702,0.1000855999882333,0.10090279998257756,0.2000320999941323,0.20066780000342987,0.7493692999996711
RSVPLG03,km,20260305-172413,1.0.2,20251113-095759,792,Introduction,Both,1,Automatic,main,8,20260305-172526,global,local,750,S,S,E,A,S-E.png,A-S.png,sS,sS,mask-3.png,mask-3.png,s,1,1.3871797999890987,s,1,0.6549787000112701,0.10027850000187755,0.09861509999609552,0.20001530001172796,0.19859709998127073,0.7512303000257816
RSVPLG03,km,20260305-172413,1.0.2,20251113-095759,792,Introduction,Both,1,Automatic,main,9,20260305-172532,local,global,750,S,H,A,E,A-S.png,H-E.png,sS,hH,mask-4.png,mask-2.png,s,1,1.7576262999791652,h,1,0.5089951000118162,0.09861809998983517,0.09868870000354946,0.19934659998398274,0.20069019999937154,0.7485325000016019
RSVPLG03,km,20260305-172413,1.0.2,20251113-095759,792,Introduction,Both,1,Automatic,main,10,20260305-172539,local,global,750,S,H,A,E,A-S.png,H-E.png,sS,hH,mask-1.png,mask-1.png,s,1,0.8798289999831468,h,1,0.6828124999883585,0.09992870001588017,0.10012420002021827,0.19772399999783374,0.20117040001787245,0.7485279999964405
RSVPLG03,km,20260305-172413,1.0.2,20251113-095759,792,Introduction,Both,1,Automatic,main,11,20260305-172545,local,global,750,H,H,E,E,E-H.png,H-E.png,hH,hH,mask-4.png,mask-2.png,h,1,2.152936900005443,h,1,0.702549799985718,0.09771179998642765,0.09982220001984388,0.20023859999491833,0.19876830000430346,0.7506626999820583
RSVPLG03,km,20260305-172413,1.0.2,20251113-095759,792,Introduction,Both,1,Automatic,main,12,20260305-172552,global,local,750,S,H,E,E,S-E.png,E-H.png,sS,hH,mask-3.png,mask-4.png,h,0,0.8273530000005849,s,0,0.49575370000093244,0.09950060001574457,0.09985989998676814,0.20096360001480207,0.2009480999840889,0.7508017000218388
RSVPLG03,km,20260305-172413,1.0.2,20251113-095759,792,Introduction,Both,1,Automatic,main,13,20260305-172557,global,global,750,S,S,A,E,S-A.png,S-E.png,sS,sS,mask-1.png,mask-4.png,none,-6,0,none,-6,0,0.09980419999919832,0.09847060000174679,0.19971759998588823,0.19915619998937473,0.7511276000004727
RSVPLG03,km,20260305-172610,1.0.2,20251113-095759,792,Practice,Both,1,Automatic,main,1,20260305-172652,local,global,300,H,S,E,A,E-H.png,S-A.png,hH,sS,mask-4.png,mask-1.png,h,1,0.9110386999964248,s,1,0.5893995000224095,0.04979679998359643,0.04978380000102334,0.09945549999247305,0.09874849999323487,0.3015177999914158
RSVPLG03,km,20260305-172610,1.0.2,20251113-095759,792,Practice,Both,1,Automatic,main,2,20260305-172657,local,local,300,S,S,E,A,E-S.png,A-S.png,sS,sS,mask-1.png,mask-2.png,s,1,1.6069837000104599,h,0,0.5744523000030313,0.04996420000679791,0.051068500004475936,0.09994730001199059,0.10205060002044775,0.30048139998689294
RSVPLG03,km,20260305-172610,1.0.2,20251113-095759,792,Practice,Both,1,Automatic,main,3,20260305-172703,local,global,750,H,S,A,E,A-H.png,S-E.png,hH,sS,mask-2.png,mask-1.png,h,1,1.7916006000014022,h,0,0.3166172000055667,0.04822629998670891,0.048098100000061095,0.09900089999428019,0.0992013999784831,0.752860700013116
RSVPLG03,km,20260305-172610,1.0.2,20251113-095759,792,Practice,Both,1,Automatic,main,4,20260305-172709,global,local,750,H,H,A,E,H-A.png,E-H.png,hH,hH,mask-3.png,mask-4.png,h,1,1.420280799997272,s,0,0.38134580000769347,0.04987100002472289,0.05077420000452548,0.09990290002315305,0.1002681000099983,0.75094430000172
RSVPLG03,km,20260305-172610,1.0.2,20251113-095759,792,Practice,Both,1,Automatic,main,5,20260305-172715,global,local,300,H,H,E,A,H-E.png,A-H.png,hH,hH,mask-2.png,mask-3.png,h,1,1.6191587999928743,h,1,0.3831460999790579,0.0500025000073947,0.04966809999314137,0.09979659999953583,0.1005038000002969,0.30085590001544915
RSVPLG03,km,20260305-172610,1.0.2,20251113-095759,792,Practice,Both,1,Automatic,main,6,20260305-172721,local,global,750,H,H,E,A,E-H.png,H-A.png,hH,hH,mask-4.png,mask-4.png,h,1,1.8572697999770753,h,1,0.3822398000047542,0.05077339999843389,0.05176239999127574,0.10046300000976771,0.10173480000230484,0.7521162000193726
RSVPLG03,km,20260305-172610,1.0.2,20251113-095759,792,Practice,Both,1,Automatic,main,7,20260305-172727,local,local,750,S,H,A,E,A-S.png,E-H.png,sS,hH,mask-4.png,mask-4.png,s,1,0.8883165000006557,h,1,0.399889099993743,0.04997920000459999,0.0510548000165727,0.09777560000657104,0.10104720000526868,0.7518742999818642
RSVPLG03,km,20260305-172610,1.0.2,20251113-095759,792,Practice,Both,1,Automatic,main,8,20260305-172733,global,global,300,H,H,A,E,H-A.png,H-E.png,hH,hH,mask-1.png,mask-2.png,h,1,1.5723843000014313,h,1,0.33504949999041855,0.04899219999788329,0.048441899998579174,0.1011661000084132,0.09949429999687709,0.3008750000153668
RSVPLG03,km,20260305-172610,1.0.2,20251113-095759,792,Practice,Both,1,Automatic,main,9,20260305-172739,local,local,750,H,H,E,E,E-H.png,E-H.png,hH,hH,mask-1.png,mask-4.png,h,1,1.168142499984242,h,1,0.3204781000094954,0.04936589999124408,0.05098149998229928,0.09935780000523664,0.09964380000019446,0.7525057000166271
RSVPLG03,km,20260305-172610,1.0.2,20251113-095759,792,Practice,Both,1,Automatic,main,10,20260305-172744,local,local,300,H,S,E,A,E-H.png,A-S.png,hH,sS,mask-3.png,mask-1.png,s,0,2.140902900020592,h,0,0.046400099992752075,0.04864699998870492,0.050824200006900355,0.10008750000270084,0.10077950000413693,0.3007301999896299
RSVPLG03,km,20260305-172610,1.0.2,20251113-095759,792,Practice,Both,1,Automatic,main,11,20260305-172750,global,local,300,S,S,E,A,S-E.png,A-S.png,sS,sS,mask-2.png,mask-3.png,s,1,1.2123569000104908,s,1,1.0868539999937639,0.049920399993425235,0.049920499994186684,0.1009085999976378,0.09988340002018958,0.30073239997727796
RSVPLG03,km,20260305-172610,1.0.2,20251113-095759,792,Practice,Both,1,Automatic,main,12,20260305-172756,global,global,750,H,H,A,A,H-A.png,H-A.png,hH,hH,mask-3.png,mask-2.png,h,1,3.260213700006716,s,0,1.2475919999997132,0.04960989998653531,0.04765320001752116,0.10056560000521131,0.09818800000357442,0.7535886999976356
RSVPLG03,km,20260305-172610,1.0.2,20251113-095759,792,Practice,Both,1,Automatic,main,13,20260305-172805,global,global,300,H,S,A,E,H-A.png,S-E.png,hH,sS,mask-3.png,mask-3.png,h,1,1.7441143000032753,h,0,0.6865264999796636,0.04983819997869432,0.048831399995833635,0.09980599998380058,0.10080129999550991,0.3012309999903664
RSVPLG03,km,20260305-172610,1.0.2,20251113-095759,792,Practice,Both,1,Automatic,main,14,20260305-172811,local,global,300,H,H,E,E,E-H.png,H-E.png,hH,hH,mask-4.png,mask-4.png,h,1,2.4950995999970473,s,0,0.3306488999805879,0.04950900000403635,0.050314599997363985,0.09943470000871457,0.1005756999948062,0.29901660000905395
RSVPLG03,km,20260305-172610,1.0.2,20251113-095759,792,Practice,Both,1,Automatic,main,15,20260305-172818,global,global,750,S,S,E,E,S-E.png,S-E.png,sS,sS,mask-4.png,mask-2.png,s,1,2.247957400017185,h,0,0.4769932000199333,0.049923199985641986,0.048747199994977564,0.10006279998924583,0.10095499997260049,0.7523447000130545
RSVPLG03,km,20260305-172610,1.0.2,20251113-095759,792,Practice,Both,1,Automatic,main,16,20260305-172825,global,local,750,H,H,A,A,H-A.png,A-H.png,hH,hH,mask-3.png,mask-1.png,s,0,2.1131532000144944,h,1,1.0388158000132535,0.04986679999274202,0.04880230000708252,0.10088099999120459,0.09892499999841675,0.752564499998698
RSVPLG03,km,20260305-172849,1.0.2,20251113-095759,792,Practice,Both,1,Automatic,main,1,20260305-172911,local,local,300,S,S,A,E,A-S.png,E-S.png,sS,sS,mask-2.png,mask-2.png,s,1,1.1544432000082452,h,0,0.283825100021204,0.03979640000034124,0.050675999984377995,0.09097509999992326,0.10016299999551848,0.2901529000082519
RSVPLG03,km,20260305-172849,1.0.2,20251113-095759,792,Practice,Both,1,Automatic,main,2,20260305-172916,local,global,750,S,S,E,E,E-S.png,S-E.png,sS,sS,mask-3.png,mask-3.png,s,1,2.2273343999986537,s,1,0.37034290001611225,0.049191400001291186,0.04977750001125969,0.10055360000114888,0.09971650000079535,0.7490324999962468
RSVPLG03,km,20260305-172849,1.0.2,20251113-095759,792,Practice,Both,1,Automatic,main,3,20260305-172923,local,global,750,H,S,A,E,A-H.png,S-E.png,hH,sS,mask-3.png,mask-2.png,h,1,1.0659984999801964,s,1,0.5087019999918994,0.04982090002158657,0.04980129998875782,0.09904329999699257,0.10071929998230189,0.747912200022256
RSVPLG03,km,20260305-172849,1.0.2,20251113-095759,792,Practice,Both,1,Automatic,main,4,20260305-172929,local,global,300,H,S,A,E,A-H.png,S-E.png,hH,sS,mask-1.png,mask-2.png,h,1,1.7023124999832362,h,0,0.4486227000015788,0.049729399994248524,0.04969590000109747,0.09956279999460094,0.0995577999856323,0.2990684999967925
RSVPLG03,km,20260305-172849,1.0.2,20251113-095759,792,Practice,Both,1,Automatic,main,5,20260305-172935,local,global,300,S,H,A,A,A-S.png,H-A.png,sS,hH,mask-4.png,mask-3.png,s,1,1.7910477000114042,h,1,0.4625969999760855,0.04933160002110526,0.050388599978759885,0.09973170000012033,0.0987985999963712,0.3004508000158239
RSVPLG03,km,20260305-172849,1.0.2,20251113-095759,792,Practice,Both,1,Automatic,main,6,20260305-172941,global,global,300,S,H,E,A,S-E.png,H-A.png,sS,hH,mask-1.png,mask-4.png,s,1,1.2937041000113823,h,1,0.33572130001266487,0.0470453999878373,0.048617899999953806,0.09647859999677166,0.0994283999898471,0.2975354999944102
RSVPLG03,km,20260305-172849,1.0.2,20251113-095759,792,Practice,Both,1,Automatic,main,7,20260305-172946,local,local,750,H,H,A,E,A-H.png,E-H.png,hH,hH,mask-3.png,mask-4.png,h,1,1.0320363999926485,h,1,0.3983771000057459,0.04881589999422431,0.04984590000822209,0.09888629999477416,0.09956659999443218,0.7484597000002395
RSVPLG03,km,20260305-172849,1.0.2,20251113-095759,792,Practice,Both,1,Automatic,main,8,20260305-172952,global,global,300,S,S,E,E,S-E.png,S-E.png,sS,sS,mask-3.png,mask-2.png,s,1,2.7002388999972027,h,0,0.3997662999900058,0.049813799996627495,0.048799000011058524,0.10083539999322966,0.09827700001187623,0.30056340000010096
RSVPLG03,km,20260305-172849,1.0.2,20251113-095759,792,Practice,Both,1,Automatic,main,9,20260305-172959,global,local,750,S,H,E,E,S-E.png,E-H.png,sS,hH,mask-3.png,mask-2.png,s,1,0.9902598999906331,h,1,0.4770620999915991,0.049899500008905306,0.05075349999242462,0.10061970000970177,0.10071309999329969,0.750049800000852
RSVPLG03,km,20260305-172849,1.0.2,20251113-095759,792,Practice,Both,1,Automatic,main,10,20260305-173004,global,local,300,H,H,E,E,H-E.png,E-H.png,hH,hH,mask-2.png,mask-3.png,h,1,1.1356623999890871,s,0,3.358508300007088,0.05098900001030415,0.05057189997751266,0.10006250001606531,0.10017549997428432,0.2997336000262294
RSVPLG03,km,20260305-172849,1.0.2,20251113-095759,792,Practice,Both,1,Automatic,main,11,20260305-173013,local,local,300,H,S,A,A,A-H.png,A-S.png,hH,sS,mask-4.png,mask-3.png,h,1,1.0485792999970727,h,0,1.054912499996135,0.048584000003756955,0.0483613999967929,0.1010695000004489,0.09780529999989085,0.30083610001020133
RSVPLG03,km,20260305-172849,1.0.2,20251113-095759,792,Practice,Both,1,Automatic,main,12,20260305-173019,global,local,750,S,H,E,A,S-E.png,A-H.png,sS,hH,mask-2.png,mask-3.png,s,1,1.312181099987356,h,1,0.3975228000199422,0.04896710001048632,0.049216599989449605,0.10011180001311004,0.09934630000498146,0.7471465000126045
RSVPLG03,km,20260305-172849,1.0.2,20251113-095759,792,Practice,Both,1,Automatic,main,13,20260305-173025,global,global,750,H,H,A,A,H-A.png,H-A.png,hH,hH,mask-4.png,mask-3.png,h,1,1.3632746000075713,s,0,0.383153200004017,0.04995250000501983,0.05096569997840561,0.10105440000188537,0.10000099998433143,0.7491184000100475
RSVPLG03,km,20260305-172849,1.0.2,20251113-095759,792,Practice,Both,1,Automatic,main,14,20260305-173031,global,local,300,H,H,E,E,H-E.png,E-H.png,hH,hH,mask-4.png,mask-2.png,h,1,1.0955376999918371,h,1,0.9274153999867849,0.048298200010322034,0.0501329000107944,0.09847670001909137,0.10090849999687634,0.29716700001154095
RSVPLG03,km,20260305-172849,1.0.2,20251113-095759,792,Practice,Both,1,Automatic,main,15,20260305-173036,local,local,750,H,S,A,A,A-H.png,A-S.png,hH,sS,mask-4.png,mask-4.png,h,1,0.6855739000020549,h,0,0.5739462999918032,0.04994490000535734,0.0483183000178542,0.10009200000786223,0.09940720000304282,0.7500490999955218
RSVPLG03,km,20260305-172849,1.0.2,20251113-095759,792,Practice,Both,1,Automatic,main,16,20260305-173042,global,global,750,S,S,E,E,S-E.png,S-E.png,sS,sS,mask-3.png,mask-4.png,s,1,1.5429340999980923,h,0,0.36512129998300225,0.04860989999724552,0.0499402999994345,0.09934179999982007,0.09996099999989383,0.7483154999790713
RSVPLG03,km,20260305-173118,1.0.2,20251113-095759,792,Practice,Both,1,Automatic,main,1,20260305-173136,global,local,750,S,H,E,A,S-E.png,A-H.png,sS,hH,mask-4.png,mask-4.png,s,1,1.0210894999909215,h,1,0.5773109000001568,0.04841610000585206,0.04998490001889877,0.09896840000874363,0.10000360000412911,0.7512456999975257
RSVPLG03,km,20260305-173118,1.0.2,20251113-095759,792,Practice,Both,1,Automatic,main,2,20260305-173142,local,local,750,S,S,A,A,A-S.png,A-S.png,sS,sS,mask-2.png,mask-1.png,s,1,1.302326400007587,h,0,0.3213549999927636,0.05024680000497028,0.05061060001025908,0.09961260002455674,0.10059909999836236,0.7507166000141297
RSVPLG03,km,20260305-173118,1.0.2,20251113-095759,792,Practice,Both,1,Automatic,main,3,20260305-173148,global,global,300,S,S,E,E,S-E.png,S-E.png,sS,sS,mask-2.png,mask-2.png,s,1,3.332227699982468,h,0,0.6581898999866098,0.04986969998572022,0.051070099987555295,0.10096109998994507,0.10082079999847338,0.3009750999917742
RSVPLG03,km,20260305-173118,1.0.2,20251113-095759,792,Practice,Both,1,Automatic,main,4,20260305-173155,local,local,300,S,H,A,E,A-S.png,E-H.png,sS,hH,mask-1.png,mask-2.png,h,0,3.2115772999823093,h,1,0.541945000004489,0.05132609998690896,0.05064319999655709,0.10075459998915903,0.10148819998721592,0.3006838000146672
RSVPLG03,km,20260305-173118,1.0.2,20251113-095759,792,Practice,Both,1,Automatic,main,5,20260305-173203,local,global,750,H,S,E,E,E-H.png,S-E.png,hH,sS,mask-2.png,mask-3.png,h,1,1.4189422999916133,s,1,0.4937258000136353,0.05002679998870008,0.0475641000084579,0.10018299997318536,0.09842870000284165,0.7519156999769621
RSVPLG03,km,20260305-173118,1.0.2,20251113-095759,792,Practice,Both,1,Automatic,main,6,20260305-173209,local,global,300,S,H,E,A,E-S.png,H-A.png,sS,hH,mask-2.png,mask-1.png,s,1,2.602789099997608,h,1,1.5331626000115648,0.05061299999943003,0.04969420001725666,0.10068609999143519,0.10018680000212044,0.30086219997610897
RSVPLG03,km,20260305-173118,1.0.2,20251113-095759,792,Practice,Both,1,Automatic,main,7,20260305-173217,local,global,300,S,H,E,E,E-S.png,H-E.png,sS,hH,mask-1.png,mask-2.png,s,1,1.9142403000150807,h,1,0.9595588000083808,0.050886299984995276,0.048817999981110916,0.10075319997849874,0.09978990000672638,0.3014991999953054
RSVPLG03,km,20260305-173118,1.0.2,20251113-095759,792,Practice,Both,1,Automatic,main,8,20260305-173224,global,global,750,S,H,A,A,S-A.png,H-A.png,sS,hH,mask-4.png,mask-2.png,s,1,1.0192016999935731,h,1,1.0102120999945328,0.05036249998374842,0.05020880000665784,0.10097470000619069,0.10015630000270903,0.7536646999942604
RSVPLG03,km,20260305-173118,1.0.2,20251113-095759,792,Practice,Both,1,Automatic,main,9,20260305-173230,global,local,300,S,S,E,A,S-E.png,A-S.png,sS,sS,mask-2.png,mask-1.png,s,1,1.6658197999931872,h,0,1.1821479000209365,0.04983530001481995,0.05078649998176843,0.10079440000117756,0.10076489998027682,0.30124940001405776
RSVPLG03,km,20260305-173118,1.0.2,20251113-095759,792,Practice,Both,1,Automatic,main,10,20260305-173237,global,local,300,H,S,E,E,H-E.png,E-S.png,hH,sS,mask-1.png,mask-3.png,s,0,0.7643430999887642,s,1,1.8523752999899443,0.05160320000140928,0.0495006000273861,0.10016830000677146,0.09889610001118854,0.3020099999848753
RSVPLG03,km,20260305-173118,1.0.2,20251113-095759,792,Practice,Both,1,Automatic,main,11,20260305-173243,global,global,750,S,S,E,E,S-E.png,S-E.png,sS,sS,mask-4.png,mask-2.png,s,1,0.9400392000097781,h,0,0.290463000012096,0.05096739999135025,0.04999219998717308,0.09840950000216253,0.099719499994535,0.7506379999977071
RSVPLG03,km,20260305-173118,1.0.2,20251113-095759,792,Practice,Both,1,Automatic,main,12,20260305-173249,global,local,750,S,S,A,A,S-A.png,A-S.png,sS,sS,mask-2.png,mask-3.png,s,1,2.754526699980488,s,1,0.9261839000100736,0.05150359999970533,0.0499775999924168,0.10026809998089448,0.1000771000108216,0.7525523999938741
RSVPLG03,km,20260305-173118,1.0.2,20251113-095759,792,Practice,Both,1,Automatic,main,13,20260305-173257,local,local,750,H,S,E,E,E-H.png,E-S.png,hH,sS,mask-2.png,mask-1.png,h,1,1.3059470000152942,s,1,0.3993205000006128,0.04982779998681508,0.0499775999924168,0.10079399999813177,0.09999779998906888,0.7515188000106718
RSVPLG03,km,20260305-173118,1.0.2,20251113-095759,792,Practice,Both,1,Automatic,main,14,20260305-173303,global,global,300,H,S,A,E,H-A.png,S-E.png,hH,sS,mask-3.png,mask-2.png,h,1,2.324166900012642,s,1,0.5239034999976866,0.04980569999315776,0.050417000020388514,0.09974309999961406,0.09993250001571141,0.2994940999778919
RSVPLG03,km,20260305-173118,1.0.2,20251113-095759,792,Practice,Both,1,Automatic,main,15,20260305-173309,local,local,300,H,S,A,E,A-H.png,E-S.png,hH,sS,mask-2.png,mask-1.png,h,1,0.982915900007356,h,0,0.6899969999794848,0.05074760000570677,0.049856900004670024,0.10062610000022687,0.09902880000299774,0.3019612999923993
RSVPLG03,km,20260305-173118,1.0.2,20251113-095759,792,Practice,Both,1,Automatic,main,16,20260305-173315,local,global,750,S,H,E,A,E-S.png,H-A.png,sS,hH,mask-2.png,mask-4.png,s,1,1.0534896999888588,s,0,1.103888600016944,0.05098659999202937,0.04999490000773221,0.09974929998861626,0.10203820001333952,0.7513082999794278
RSVPLG03,km,20260305-173409,1.0.2,20251113-095759,792,Experiment,Both,1,Automatic,warmup,1,20260305-173437,local,local,300,S,S,E,E,E-S.png,E-S.png,sS,sS,mask-2.png,mask-3.png,s,1,0.9569207000022288,s,1,1.4425612000050023,0.04229849998955615,0.05028160000802018,0.09245630001532845,0.1009071999869775,0.2929432000091765
RSVPLG03,km,20260305-173409,1.0.2,20251113-095759,792,Experiment,Both,1,Automatic,warmup,2,20260305-173443,local,local,750,H,H,A,E,A-H.png,E-H.png,hH,hH,mask-3.png,mask-4.png,h,1,0.9739958999853116,h,1,0.5238133999810088,0.051023999985773116,0.049215100007131696,0.0988960999820847,0.10061610001139343,0.7506951999966986
RSVPLG03,km,20260305-173409,1.0.2,20251113-095759,792,Experiment,Both,1,Automatic,warmup,3,20260305-173449,global,global,750,S,H,E,A,S-E.png,H-A.png,sS,hH,mask-2.png,mask-3.png,s,1,0.7582620999892242,h,1,0.33665410001412965,0.049707700003637,0.0488918999908492,0.10054369998397306,0.099387399997795,0.7523690999951214
RSVPLG03,km,20260305-173409,1.0.2,20251113-095759,792,Experiment,Both,1,Automatic,warmup,4,20260305-173454,local,global,300,H,H,E,E,E-H.png,H-E.png,hH,hH,mask-1.png,mask-1.png,h,1,0.8284917999990284,h,1,0.34858180000446737,0.0519143000128679,0.04996689999825321,0.10165570001117885,0.09993389999726787,0.30156540000461973
RSVPLG03,km,20260305-173409,1.0.2,20251113-095759,792,Experiment,Both,1,Automatic,main,5,20260305-173459,global,global,750,S,S,E,A,S-E.png,S-A.png,sS,sS,mask-2.png,mask-2.png,s,1,0.6151276000018697,s,1,0.3010292000253685,0.04983070000889711,0.04950379999354482,0.10084960001404397,0.09913970000343397,0.7529211000073701
RSVPLG03,km,20260305-173409,1.0.2,20251113-095759,792,Experiment,Both,1,Automatic,main,6,20260305-173504,global,local,750,S,S,E,A,S-E.png,A-S.png,sS,sS,mask-4.png,mask-1.png,s,1,1.5200077000190504,h,0,0.28779830000712536,0.04997560000629164,0.04893779999110848,0.10008030000608414,0.09901400000671856,0.7512669000134338
RSVPLG03,km,20260305-173409,1.0.2,20251113-095759,792,Experiment,Both,1,Automatic,main,7,20260305-173510,global,global,300,S,H,E,E,S-E.png,H-E.png,sS,hH,mask-3.png,mask-4.png,s,1,0.6821244999882765,h,1,0.1899406000156887,0.05163339999853633,0.0484946999931708,0.10057809998397715,0.10053559998050332,0.30181000000447966
RSVPLG03,km,20260305-173409,1.0.2,20251113-095759,792,Experiment,Both,1,Automatic,main,8,20260305-173515,global,local,750,S,H,A,A,S-A.png,A-H.png,sS,hH,mask-3.png,mask-4.png,s,1,0.6739210000087041,h,1,0.3501667999953497,0.050824100006138906,0.048666799993952736,0.10169850001693703,0.10019699999247678,0.7519228000019211
RSVPLG03,km,20260305-173409,1.0.2,20251113-095759,792,Experiment,Both,1,Automatic,main,9,20260305-173520,global,local,300,H,H,E,E,H-E.png,E-H.png,hH,hH,mask-1.png,mask-3.png,h,1,0.6621788999764249,h,1,0.12328400000114925,0.04893260000972077,0.04997320001712069,0.09889970000949688,0.09994790001655929,0.29980179999256507
RSVPLG03,km,20260305-173409,1.0.2,20251113-095759,792,Experiment,Both,1,Automatic,main,10,20260305-173525,local,global,300,S,S,E,A,E-S.png,S-A.png,sS,sS,mask-4.png,mask-1.png,s,1,0.6846862000238616,s,1,0.6859407000010833,0.05032239999854937,0.05045300000347197,0.1009384999924805,0.10005999999702908,0.30205329999444075
RSVPLG03,km,20260305-173409,1.0.2,20251113-095759,792,Experiment,Both,1,Automatic,main,11,20260305-173530,local,local,750,H,S,A,E,A-H.png,E-S.png,hH,sS,mask-2.png,mask-1.png,h,1,0.445774399995571,s,1,0.20274280000012368,0.050637400010600686,0.04862590000266209,0.09931210000650026,0.10047180001856759,0.7517758999892976
RSVPLG03,km,20260305-173409,1.0.2,20251113-095759,792,Experiment,Both,1,Automatic,main,12,20260305-173535,global,global,300,H,H,E,E,H-E.png,H-E.png,hH,hH,mask-3.png,mask-3.png,h,1,0.5356525000242982,h,1,0.11055079998914152,0.050644800008740276,0.050666099996306,0.09950229999958538,0.101465299987467,0.30009550001705065
RSVPLG03,km,20260305-173409,1.0.2,20251113-095759,792,Experiment,Both,1,Automatic,main,13,20260305-173539,local,global,300,S,H,E,E,E-S.png,H-E.png,sS,hH,mask-4.png,mask-2.png,s,1,0.708962699980475,s,0,0.1264728000096511,0.05003099999157712,0.0504588000185322,0.10097699999460019,0.10034530001576059,0.3005886999890208
RSVPLG03,km,20260305-173409,1.0.2,20251113-095759,792,Experiment,Both,1,Automatic,main,14,20260305-173544,local,global,750,S,H,A,E,A-S.png,H-E.png,sS,hH,mask-2.png,mask-4.png,s,1,1.1322235999978147,h,1,0.07844050001585856,0.05001439998159185,0.050933899998199195,0.10168979997979477,0.09995549998711795,0.7529655999969691
RSVPLG03,km,20260305-173409,1.0.2,20251113-095759,792,Experiment,Both,1,Automatic,main,15,20260305-173549,local,local,300,H,S,E,A,E-H.png,A-S.png,hH,sS,mask-1.png,mask-4.png,h,1,0.5402748999767937,s,1,0.013476299995090812,0.05096270001376979,0.048978100006934255,0.10009130000253208,0.09953069998300634,0.3021584000089206
RSVPLG03,km,20260305-173409,1.0.2,20251113-095759,792,Experiment,Both,1,Automatic,main,16,20260305-173554,global,local,300,S,S,E,A,S-E.png,A-S.png,sS,sS,mask-1.png,mask-3.png,s,1,0.8005319999938365,h,0,0.0005435000057332218,0.04883819998940453,0.04955540000810288,0.09875149998697452,0.10115279999445193,0.29928449998260476
RSVPLG03,km,20260305-173409,1.0.2,20251113-095759,792,Experiment,Both,1,Automatic,main,17,20260305-173558,global,local,300,S,H,A,A,S-A.png,A-H.png,sS,hH,mask-4.png,mask-1.png,s,1,0.5853764000057708,h,1,0.031936899991706014,0.0493537999864202,0.05094220000319183,0.09970250001060776,0.10181240001111291,0.2985630999901332
RSVPLG03,km,20260305-173409,1.0.2,20251113-095759,792,Experiment,Both,1,Automatic,main,18,20260305-173603,global,global,300,S,H,A,A,S-A.png,H-A.png,sS,hH,mask-2.png,mask-1.png,s,1,0.46641630001249723,h,1,0.14244119997601956,0.05002380002406426,0.05136710000806488,0.1001758000056725,0.1018966999836266,0.29855140001745895
RSVPLG03,km,20260305-173409,1.0.2,20251113-095759,792,Experiment,Both,1,Automatic,main,19,20260305-173607,local,local,750,S,S,E,E,E-S.png,E-S.png,sS,sS,mask-4.png,mask-4.png,s,1,0.5183103000163101,s,1,0.317099900014,0.051691100001335144,0.051081799989333376,0.10138440001173876,0.10100890000467189,0.7507086000114214
RSVPLG03,km,20260305-173409,1.0.2,20251113-095759,792,Experiment,Both,1,Automatic,main,20,20260305-173612,global,global,750,S,S,A,E,S-A.png,S-E.png,sS,sS,mask-1.png,mask-2.png,s,1,0.4050384000001941,s,1,0.26928169999155216,0.049846199981402606,0.050196199998026714,0.09974599999259226,0.10069669998483732,0.7518903999880422
RSVPLG03,km,20260305-173409,1.0.2,20251113-095759,792,Experiment,Both,1,Automatic,main,21,20260305-173617,global,local,300,S,S,E,A,S-E.png,A-S.png,sS,sS,mask-2.png,mask-3.png,s,1,0.5515147000260185,h,0,0.22246509999968112,0.051695600006496534,0.05063380001229234,0.10049179999623448,0.10138810001080856,0.30059349999646656
RSVPLG03,km,20260305-173409,1.0.2,20251113-095759,792,Experiment,Both,1,Automatic,main,22,20260305-173622,global,global,750,S,H,A,E,S-A.png,H-E.png,sS,hH,mask-2.png,mask-2.png,s,1,0.6408968000032473,h,1,0.1433009000029415,0.04904559999704361,0.0499996000144165,0.09911350000766106,0.09995959998923354,0.7509132999985013
RSVPLG03,km,20260305-173409,1.0.2,20251113-095759,792,Experiment,Both,1,Automatic,main,23,20260305-173627,global,global,750,H,S,E,A,H-E.png,S-A.png,hH,sS,mask-2.png,mask-3.png,h,1,0.8676337999932002,s,1,0.16092190000927076,0.0509670999890659,0.050870200007921085,0.1019318999897223,0.10089249999145977,0.7523319000029005
RSVPLG03,km,20260305-173409,1.0.2,20251113-095759,792,Experiment,Both,1,Automatic,main,24,20260305-173632,global,global,750,S,S,E,A,S-E.png,S-A.png,sS,sS,mask-4.png,mask-1.png,s,1,0.423682100023143,s,1,0.20667889999458566,0.05082940001739189,0.049649399996269494,0.10163509999983944,0.09937559999525547,0.7531875999993645
RSVPLG03,km,20260305-173409,1.0.2,20251113-095759,792,Experiment,Both,1,Automatic,main,25,20260305-173637,local,local,300,H,H,E,A,E-H.png,A-H.png,hH,hH,mask-1.png,mask-3.png,h,1,0.6158869999926537,s,0,1.3735544999944977,0.05002009999589063,0.04977410001447424,0.10011950001353398,0.09962620001169853,0.3001339999900665
RSVPLG03,km,20260305-173409,1.0.2,20251113-095759,792,Experiment,Both,1,Automatic,main,26,20260305-173647,global,global,750,S,H,E,A,S-E.png,H-A.png,sS,hH,mask-4.png,mask-3.png,s,1,0.46821240001008846,h,1,0.14209410001058131,0.04961309998179786,0.05059730002540164,0.09885280000162311,0.0983645000087563,0.7517096999799833
RSVPLG03,km,20260305-173409,1.0.2,20251113-095759,792,Experiment,Both,1,Automatic,main,27,20260305-173652,local,global,750,H,H,E,A,E-H.png,H-A.png,hH,hH,mask-3.png,mask-1.png,h,1,1.1156808999949135,h,1,0.11351399999693967,0.05104890000075102,0.05000289998133667,0.10116970000672154,0.0992017999815289,0.7517737000016496
RSVPLG03,km,20260305-173409,1.0.2,20251113-095759,792,Experiment,Both,1,Automatic,main,28,20260305-173657,global,global,750,S,H,A,A,S-A.png,H-A.png,sS,hH,mask-3.png,mask-1.png,s,1,0.5296440999954939,h,1,0.7058226000226568,0.049606399988988414,0.050419699982739985,0.09994049998931587,0.10129459999734536,0.750561499997275
RSVPLG03,km,20260305-173409,1.0.2,20251113-095759,792,Experiment,Both,1,Automatic,main,29,20260305-173702,local,global,750,S,H,A,A,A-S.png,H-A.png,sS,hH,mask-1.png,mask-4.png,h,0,0.7684824999887496,h,1,0.09424069998203777,0.04986359999747947,0.04857419998734258,0.10040289998869412,0.10019709999323823,0.7524253000156023
RSVPLG03,km,20260305-173409,1.0.2,20251113-095759,792,Experiment,Both,1,Automatic,main,30,20260305-173707,local,local,300,S,S,E,A,E-S.png,A-S.png,sS,sS,mask-3.png,mask-2.png,s,1,0.5011823000095319,s,1,0.09358590000192635,0.048729200003435835,0.049653699999907985,0.10067509999498725,0.10145739998552017,0.30050280000432394
RSVPLG03,km,20260305-173409,1.0.2,20251113-095759,792,Experiment,Both,1,Automatic,main,31,20260305-173711,local,local,300,S,S,E,A,E-S.png,A-S.png,sS,sS,mask-4.png,mask-1.png,s,1,0.3990495999751147,s,1,0.0782990999869071,0.05136830001720227,0.05000690001179464,0.09999260000768118,0.10096660000272095,0.30100750000565313
RSVPLG03,km,20260305-173409,1.0.2,20251113-095759,792,Experiment,Both,1,Automatic,main,32,20260305-173715,global,global,300,S,S,A,E,S-A.png,S-E.png,sS,sS,mask-2.png,mask-3.png,s,1,0.4375841000000946,s,1,0.10916769999312237,0.049941300007048994,0.04852800001390278,0.09999529999913648,0.10069920000387356,0.29996969999046996
RSVPLG03,km,20260305-173409,1.0.2,20251113-095759,792,Experiment,Both,1,Automatic,main,33,20260305-173720,global,global,300,S,H,E,E,S-E.png,H-E.png,sS,hH,mask-1.png,mask-1.png,s,1,0.3520919000147842,h,1,0.5121800000197254,0.0509922000055667,0.050137999991420656,0.10095960000762716,0.10143079998670146,0.2995515000075102
RSVPLG03,km,20260305-173409,1.0.2,20251113-095759,792,Experiment,Both,1,Automatic,main,34,20260305-173724,local,global,300,S,H,A,A,A-S.png,H-A.png,sS,hH,mask-3.png,mask-4.png,s,1,0.5429790999914985,h,1,0.4454299999924842,0.050945800001500174,0.049862600018968806,0.09991429999354295,0.09880090001388453,0.3015702999837231
RSVPLG03,km,20260305-173409,1.0.2,20251113-095759,792,Experiment,Both,1,Automatic,main,35,20260305-173728,global,local,750,H,H,E,A,H-E.png,A-H.png,hH,hH,mask-1.png,mask-2.png,h,1,0.432428300002357,h,1,0.07768249997752719,0.04989169997861609,0.049880300008226186,0.10065290000056848,0.10187889999360777,0.7511440999805927
RSVPLG03,km,20260305-173409,1.0.2,20251113-095759,792,Experiment,Both,1,Automatic,main,36,20260305-173733,local,global,300,S,H,A,E,A-S.png,H-E.png,sS,hH,mask-1.png,mask-1.png,s,1,0.6773142000020016,h,1,1.0373890999762807,0.05092740000691265,0.05010450002737343,0.10090479999780655,0.10123930001282133,0.2988965999975335
RSVPLG03,km,20260305-173409,1.0.2,20251113-095759,792,Experiment,Both,1,Automatic,main,37,20260305-173739,global,local,300,S,H,A,E,S-A.png,E-H.png,sS,hH,mask-3.png,mask-4.png,s,1,0.5487532999832183,s,0,0.4924427999940235,0.04906799999298528,0.04989789999672212,0.10118259998853318,0.10061120000318624,0.30065670001204126
RSVPLG03,km,20260305-173409,1.0.2,20251113-095759,792,Experiment,Both,1,Automatic,main,38,20260305-173743,local,global,750,S,H,E,A,E-S.png,H-A.png,sS,hH,mask-1.png,mask-2.png,s,1,1.1564179999986663,h,1,1.2844175999925938,0.04838649998418987,0.051319099991815165,0.10019649998866953,0.10182109999004751,0.7491306999872904
RSVPLG03,km,20260305-173409,1.0.2,20251113-095759,792,Experiment,Both,1,Automatic,main,39,20260305-173749,global,local,750,S,S,E,A,S-E.png,A-S.png,sS,sS,mask-1.png,mask-1.png,s,1,0.3186991999973543,s,1,0.17443259997526184,0.05032290000235662,0.04984570000669919,0.09985230001620948,0.09868520000600256,0.7535074999905191
RSVPLG03,km,20260305-173409,1.0.2,20251113-095759,792,Experiment,Both,1,Automatic,main,40,20260305-173753,global,global,750,H,H,E,E,H-E.png,H-E.png,hH,hH,mask-2.png,mask-4.png,h,1,1.2817538999952376,h,1,0.09261629998218268,0.048820899974089116,0.05041280001751147,0.09975709998980165,0.10018270000000484,0.7503134999715257
RSVPLG03,km,20260305-173409,1.0.2,20251113-095759,792,Experiment,Both,1,Automatic,main,41,20260305-173759,global,local,750,S,H,A,A,S-A.png,A-H.png,sS,hH,mask-2.png,mask-2.png,s,1,1.5691089000029024,s,0,0.17327959998510778,0.050634400016861036,0.05094089999329299,0.09935930001665838,0.10110800000256859,0.7509825000015553
RSVPLG03,km,20260305-173409,1.0.2,20251113-095759,792,Experiment,Both,1,Automatic,main,42,20260305-173805,local,local,750,S,H,A,A,A-S.png,A-H.png,sS,hH,mask-3.png,mask-1.png,h,0,2.093245299998671,h,1,0.07754830000340007,0.04806440000538714,0.0520070000202395,0.09987060001003556,0.1021113000169862,0.7499987999908626
RSVPLG03,km,20260305-173409,1.0.2,20251113-095759,792,Experiment,Both,1,Automatic,main,43,20260305-173811,global,local,300,S,H,A,A,S-A.png,A-H.png,sS,hH,mask-2.png,mask-3.png,s,1,1.427603199990699,s,0,0.10963670001365244,0.05009159998735413,0.04867320001358166,0.09990319999633357,0.09941730002174154,0.30150899998261593
RSVPLG03,km,20260305-173409,1.0.2,20251113-095759,792,Experiment,Both,1,Automatic,main,44,20260305-173817,local,local,300,H,H,E,E,E-H.png,E-H.png,hH,hH,mask-1.png,mask-4.png,h,1,0.7812075999972876,h,1,0.09674590002396144,0.049884699983522296,0.049843499989947304,0.10079389999737032,0.09984149999218062,0.30036009999457747
RSVPLG03,km,20260305-173409,1.0.2,20251113-095759,792,Experiment,Both,1,Automatic,main,45,20260305-173821,global,global,750,S,H,A,A,S-A.png,H-A.png,sS,hH,mask-1.png,mask-3.png,s,1,0.5466324999870267,h,1,0.016899900016142055,0.04829190002055839,0.04948739998508245,0.09882690000813454,0.10027309998986311,0.750205200019991
RSVPLG03,km,20260305-173409,1.0.2,20251113-095759,792,Experiment,Both,1,Automatic,main,46,20260305-173826,local,global,750,H,H,A,A,A-H.png,H-A.png,hH,hH,mask-1.png,mask-2.png,h,1,0.801436100009596,h,1,0.11031069999444298,0.050544400000944734,0.04890959998010658,0.0994222000008449,0.09975959997973405,0.7526556000229903
RSVPLG03,km,20260305-173409,1.0.2,20251113-095759,792,Experiment,Both,1,Automatic,main,47,20260305-173831,local,global,750,S,H,E,A,E-S.png,H-A.png,sS,hH,mask-3.png,mask-1.png,s,1,1.0825786000059452,s,0,0.25848540000151843,0.047641899989685044,0.05081939999945462,0.09963909999351017,0.1009079999930691,0.7503441000008024
RSVPLG03,km,20260305-173409,1.0.2,20251113-095759,792,Experiment,Both,1,Automatic,main,48,20260305-173837,global,global,750,H,S,E,A,H-E.png,S-A.png,hH,sS,mask-3.png,mask-4.png,h,1,1.1820349000045098,s,1,1.3269291000033263,0.050868699996499345,0.049566499976208434,0.10084709999500774,0.1005103999923449,0.7521868000039831
RSVPLG03,km,20260305-173409,1.0.2,20251113-095759,792,Experiment,Both,1,Automatic,main,49,20260305-173842,local,local,750,H,H,E,A,E-H.png,A-H.png,hH,hH,mask-2.png,mask-1.png,h,1,0.4047479999717325,h,1,0.11412800001562573,0.05113910001819022,0.048831499996595085,0.10160660001565702,0.09887089999392629,0.7540907000075094
RSVPLG03,km,20260305-173409,1.0.2,20251113-095759,792,Experiment,Both,1,Automatic,main,50,20260305-173847,local,global,300,S,S,E,A,E-S.png,S-A.png,sS,sS,mask-1.png,mask-1.png,s,1,2.3254084000072908,h,0,2.469526400003815,0.04983670002548024,0.050878900015959516,0.10075420001521707,0.10064530000090599,0.2993133999989368
RSVPLG03,km,20260305-173409,1.0.2,20251113-095759,792,Experiment,Both,1,Automatic,main,51,20260305-173916,global,local,300,S,H,E,A,S-E.png,A-H.png,sS,hH,mask-1.png,mask-1.png,s,1,0.365489499992691,h,1,1.1172713999985717,0.05141909999656491,0.048911399993812665,0.10139029999845661,0.10093759998562746,0.30124200001591817
RSVPLG03,km,20260305-173409,1.0.2,20251113-095759,792,Experiment,Both,1,Automatic,main,52,20260305-173921,local,global,750,H,S,A,E,A-H.png,S-E.png,hH,sS,mask-4.png,mask-2.png,h,1,0.94257079999079,h,0,0.06155519999447279,0.04910459998063743,0.04961909999838099,0.09905309998430312,0.0986869000189472,0.7516685999871697
RSVPLG03,km,20260305-173409,1.0.2,20251113-095759,792,Experiment,Both,1,Automatic,main,53,20260305-173927,local,local,750,S,S,E,A,E-S.png,A-S.png,sS,sS,mask-1.png,mask-4.png,s,1,0.3895277999981772,s,1,0.09567409998271614,0.050566199992317706,0.0504394999879878,0.101268300000811,0.0999172999872826,0.7527662999927998
RSVPLG03,km,20260305-173409,1.0.2,20251113-095759,792,Experiment,Both,1,Automatic,main,54,20260305-173931,local,local,750,S,H,E,E,E-S.png,E-H.png,sS,hH,mask-4.png,mask-2.png,s,1,0.5895388000062667,h,1,0.11067490000277758,0.04991120001068339,0.04933790001086891,0.10018559999298304,0.0992538999998942,0.7511655999987852
RSVPLG03,km,20260305-173409,1.0.2,20251113-095759,792,Experiment,Both,1,Automatic,main,55,20260305-173936,local,global,750,S,H,E,A,E-S.png,H-A.png,sS,hH,mask-2.png,mask-3.png,s,1,0.8344043999968562,h,1,0.6706038000120316,0.04898670001421124,0.05072239998844452,0.09920170000987127,0.1010439999809023,0.7497855000256095
RSVPLG03,km,20260305-173409,1.0.2,20251113-095759,792,Experiment,Both,1,Automatic,main,56,20260305-173942,local,local,300,H,H,A,E,A-H.png,E-H.png,hH,hH,mask-2.png,mask-3.png,h,1,0.5063885000126902,h,1,0.06207069999072701,0.050482099992223084,0.05026829999405891,0.09984119998989627,0.10069550000480376,0.29947649998939596
RSVPLG03,km,20260305-173409,1.0.2,20251113-095759,792,Experiment,Both,1,Automatic,main,57,20260305-173946,global,global,300,S,H,E,A,S-E.png,H-A.png,sS,hH,mask-1.png,mask-3.png,s,1,1.0582130000111647,h,1,0.018842299992684275,0.05087259999709204,0.04974360001506284,0.10013299999991432,0.1018268000043463,0.30037979999906383
RSVPLG03,km,20260305-173409,1.0.2,20251113-095759,792,Experiment,Both,1,Automatic,main,58,20260305-173951,global,global,300,H,H,A,E,H-A.png,H-E.png,hH,hH,mask-3.png,mask-4.png,h,1,0.4659022999985609,h,1,0.0791392000101041,0.05093130000750534,0.049923500017030165,0.10098000001744367,0.10199040002771653,0.3000653999915812
RSVPLG03,km,20260305-173409,1.0.2,20251113-095759,792,Experiment,Both,1,Automatic,main,59,20260305-173955,local,global,750,H,S,A,E,A-H.png,S-E.png,hH,sS,mask-2.png,mask-1.png,h,1,1.195676100003766,s,1,0.03054780000820756,0.04931930001475848,0.050531100016087294,0.09929170002578758,0.10035660001449287,0.7502648000081535
RSVPLG03,km,20260305-173409,1.0.2,20251113-095759,792,Experiment,Both,1,Automatic,main,60,20260305-174001,local,local,300,H,H,A,E,A-H.png,E-H.png,hH,hH,mask-3.png,mask-3.png,h,1,1.0006481999880634,h,1,0.9889357999782078,0.05000530002871528,0.051241899986052886,0.09909810000681318,0.10163469999679364,0.2988354000262916
RSVPLG03,km,20260305-173409,1.0.2,20251113-095759,792,Experiment,Both,1,Automatic,main,61,20260305-174006,local,global,300,H,H,E,A,E-H.png,H-A.png,hH,hH,mask-2.png,mask-4.png,h,1,0.9252786999859381,h,1,0.14146670000627637,0.04992700001457706,0.04863840001053177,0.09991610000724904,0.09939270000904799,0.3015423000033479
RSVPLG03,km,20260305-173409,1.0.2,20251113-095759,792,Experiment,Both,1,Automatic,main,62,20260305-174011,global,local,750,S,S,E,A,S-E.png,A-S.png,sS,sS,mask-4.png,mask-2.png,s,1,0.6583053999929689,h,0,0.09447109999018721,0.05030780000379309,0.049544200010132045,0.10095399999408983,0.10080590000143275,0.7531219999946188
RSVPLG03,km,20260305-173409,1.0.2,20251113-095759,792,Experiment,Both,1,Automatic,main,63,20260305-174016,local,global,750,H,S,E,A,E-H.png,S-A.png,hH,sS,mask-3.png,mask-4.png,s,0,3.5951586000155658,h,0,3.6751496999931987,0.051593300013337284,0.050442000007024035,0.10058590001426637,0.1014963999914471,0.7515865000023041
RSVPLG03,km,20260305-173409,1.0.2,20251113-095759,792,Experiment,Both,1,Automatic,main,64,20260305-174024,global,local,300,S,S,E,A,S-E.png,A-S.png,sS,sS,mask-4.png,mask-4.png,s,1,1.4124351000064053,s,1,0.36615049999090843,0.049670099979266524,0.05014340000343509,0.10045529998023994,0.09978799999225885,0.29967609999584965
RSVPLG03,km,20260305-173409,1.0.2,20251113-095759,792,Experiment,Both,1,Automatic,main,65,20260305-174030,local,local,750,H,S,A,A,A-H.png,A-S.png,hH,sS,mask-1.png,mask-2.png,h,1,0.4678483000025153,s,1,0.09416849998524413,0.0493107000074815,0.05502349999733269,0.1002444000041578,0.10056069999700412,0.7505616999987978
RSVPLG03,km,20260305-173409,1.0.2,20251113-095759,792,Experiment,Both,1,Automatic,main,66,20260305-174035,global,local,300,H,H,E,A,H-E.png,A-H.png,hH,hH,mask-4.png,mask-2.png,h,1,0.5733385999919847,h,1,0.12695309999980964,0.05098169998382218,0.05111519998172298,0.10091949999332428,0.10101650000433438,0.301810300006764
RSVPLG03,km,20260305-173409,1.0.2,20251113-095759,792,Experiment,Both,1,Automatic,main,67,20260305-174039,global,local,750,H,S,A,E,H-A.png,E-S.png,hH,sS,mask-3.png,mask-2.png,h,1,0.5374004000041168,s,1,0.015059800003655255,0.05078299998422153,0.05094489999464713,0.10056369999074377,0.10005510001792572,0.751362099981634
RSVPLG03,km,20260305-173409,1.0.2,20251113-095759,792,Experiment,Both,1,Automatic,main,68,20260305-174044,global,global,300,H,H,E,A,H-E.png,H-A.png,hH,hH,mask-4.png,mask-2.png,h,1,0.6160429000156,h,1,0.12567320000380278,0.04985730000771582,0.04861319999326952,0.09963469998911023,0.10039389997837134,0.3013978000089992
RSVPLG03,km,20260305-173409,1.0.2,20251113-095759,792,Experiment,Both,1,Automatic,main,69,20260305-174048,local,local,750,H,H,A,E,A-H.png,E-H.png,hH,hH,mask-4.png,mask-1.png,h,1,0.7745693000033498,h,1,0.12689699998009019,0.05004870000993833,0.04881869998644106,0.10104290000163019,0.10082349998992868,0.7531654000049457
RSVPLG03,km,20260305-173409,1.0.2,20251113-095759,792,Experiment,Both,1,Automatic,main,70,20260305-174053,local,local,300,H,S,E,E,E-H.png,E-S.png,hH,sS,mask-2.png,mask-2.png,h,1,1.5518343000148889,s,1,1.6799238999956287,0.050199000019347295,0.05015429999912158,0.10012820002157241,0.10043109999969602,0.30062820002785884
RSVPLG03,km,20260305-173409,1.0.2,20251113-095759,792,Experiment,Both,1,Automatic,main,71,20260305-174059,local,local,750,H,H,A,E,A-H.png,E-H.png,hH,hH,mask-1.png,mask-4.png,h,1,0.6208796000282746,h,1,0.10788560000946745,0.04856399999698624,0.04956389998551458,0.09992259999853559,0.10033749998547137,0.752699600008782
RSVPLG03,km,20260305-173409,1.0.2,20251113-095759,792,Experiment,Both,1,Automatic,main,72,20260305-174103,global,global,300,H,H,A,A,H-A.png,H-A.png,hH,hH,mask-3.png,mask-4.png,h,1,0.3755056000081822,h,1,0.09324950000154786,0.050969499978236854,0.04995649997727014,0.10010089998831972,0.10003979998873547,0.3011636000010185
RSVPLG03,km,20260305-173409,1.0.2,20251113-095759,792,Experiment,Both,1,Automatic,main,73,20260305-174108,global,local,300,H,S,A,A,H-A.png,A-S.png,hH,sS,mask-4.png,mask-1.png,h,1,0.4958379000017885,h,0,0.3021371999930125,0.04951499999151565,0.048321900016162544,0.09935409997706302,0.09974320000037551,0.3004073999763932
RSVPLG03,km,20260305-173409,1.0.2,20251113-095759,792,Experiment,Both,1,Automatic,main,74,20260305-174112,global,local,750,S,S,A,A,S-A.png,A-S.png,sS,sS,mask-3.png,mask-4.png,s,1,0.41956839998601936,s,1,0.09357019999879412,0.05002830000012182,0.050236199982464314,0.09934089999296702,0.10003449997748248,0.7512210000131745
RSVPLG03,km,20260305-173409,1.0.2,20251113-095759,792,Experiment,Both,1,Automatic,main,75,20260305-174117,local,global,300,H,S,A,E,A-H.png,S-E.png,hH,sS,mask-4.png,mask-3.png,h,1,1.6505538999917917,s,1,0.030508099996950477,0.05030499998247251,0.0506720999837853,0.09868049999931827,0.10168970000813715,0.298911699996097
RSVPLG03,km,20260305-173409,1.0.2,20251113-095759,792,Experiment,Both,1,Automatic,main,76,20260305-174132,global,global,300,S,H,A,A,S-A.png,H-A.png,sS,hH,mask-1.png,mask-1.png,s,1,0.40121859998907894,h,1,0.5611894000030588,0.0500680000113789,0.04999110000790097,0.10044959999504499,0.09967840000172146,0.3001648999925237
RSVPLG03,km,20260305-173409,1.0.2,20251113-095759,792,Experiment,Both,1,Automatic,main,77,20260305-174136,local,local,750,S,S,E,A,E-S.png,A-S.png,sS,sS,mask-4.png,mask-1.png,s,1,0.3281182000064291,s,1,0.17358890001196414,0.0488177000079304,0.04786059999605641,0.09977169998455793,0.09916949999751523,0.7518197000026703
RSVPLG03,km,20260305-173409,1.0.2,20251113-095759,792,Experiment,Both,1,Automatic,main,78,20260305-174141,local,global,300,S,H,A,A,A-S.png,H-A.png,sS,hH,mask-2.png,mask-2.png,h,0,1.8571114999940619,s,0,1.9853348000033293,0.04895090000354685,0.05021280000801198,0.0988264000043273,0.10068170001613908,0.2995799999916926
RSVPLG03,km,20260305-173409,1.0.2,20251113-095759,792,Experiment,Both,1,Automatic,main,79,20260305-174146,global,local,750,S,H,A,E,S-A.png,E-H.png,sS,hH,mask-1.png,mask-1.png,s,1,0.6733264999929816,h,1,0.09539319999748841,0.050769599998602644,0.04966340001556091,0.10081959998933598,0.0997229999920819,0.7526421999791637
RSVPLG03,km,20260305-173409,1.0.2,20251113-095759,792,Experiment,Both,1,Automatic,main,80,20260305-174151,global,global,750,H,S,A,E,H-A.png,S-E.png,hH,sS,mask-4.png,mask-1.png,h,1,0.38661770001635887,s,1,0.07669340001302771,0.049886300024809316,0.04953320001368411,0.09947090002242476,0.10013400000752881,0.7500875999976415
RSVPLG03,km,20260305-173409,1.0.2,20251113-095759,792,Experiment,Both,1,Automatic,main,81,20260305-174156,global,global,300,H,H,A,E,H-A.png,H-E.png,hH,hH,mask-2.png,mask-1.png,h,1,0.3795371000014711,h,1,0.07858329999726266,0.0494503999943845,0.04962179998983629,0.09882429998833686,0.10060569999041036,0.29993859998648986
RSVPLG03,km,20260305-173409,1.0.2,20251113-095759,792,Experiment,Both,1,Automatic,main,82,20260305-174200,global,local,750,S,H,A,A,S-A.png,A-H.png,sS,hH,mask-3.png,mask-3.png,h,0,0.5413187999802176,s,0,0.02888850000454113,0.05106009999872185,0.049757400003727525,0.1002501999901142,0.09963539999444038,0.7525250999897253
RSVPLG03,km,20260305-173409,1.0.2,20251113-095759,792,Experiment,Both,1,Automatic,main,83,20260305-174205,local,local,300,H,S,E,E,E-H.png,E-S.png,hH,sS,mask-3.png,mask-1.png,h,1,1.9079923999961466,s,1,0.14423509998596273,0.04893440002342686,0.05167200000141747,0.09924390001106076,0.10061459999997169,0.29959140002029017
RSVPLG03,km,20260305-173409,1.0.2,20251113-095759,792,Experiment,Both,1,Automatic,main,84,20260305-174211,local,global,300,S,H,E,E,E-S.png,H-E.png,sS,hH,mask-2.png,mask-4.png,s,1,0.9607078999979421,h,1,0.07708419999107718,0.04866770000080578,0.05060730001423508,0.09969669999554753,0.10090150000178255,0.29888459999347106
RSVPLG03,km,20260305-173409,1.0.2,20251113-095759,792,Experiment,Both,1,Automatic,main,85,20260305-174216,local,local,300,S,S,E,E,E-S.png,E-S.png,sS,sS,mask-4.png,mask-3.png,s,1,0.5172092000138946,s,1,0.12989170002401806,0.04986319999443367,0.04989049999858253,0.10085220000473782,0.10076610001851805,0.299766299984185
RSVPLG03,km,20260305-173409,1.0.2,20251113-095759,792,Experiment,Both,1,Automatic,main,86,20260305-174220,local,global,300,H,H,E,A,E-H.png,H-A.png,hH,hH,mask-2.png,mask-3.png,h,1,0.4056079000001773,s,0,0.11140350002096966,0.0497163999825716,0.05050009998376481,0.09950459998799488,0.09940010000718758,0.3000936000025831
RSVPLG03,km,20260305-173409,1.0.2,20251113-095759,792,Experiment,Both,1,Automatic,main,87,20260305-174224,local,global,300,H,S,A,A,A-H.png,S-A.png,hH,sS,mask-4.png,mask-3.png,h,1,0.6783906999917235,s,1,0.19135999999707565,0.049558800004888326,0.049004800006514415,0.09952250000787899,0.10008370000286959,0.30065900000045076
RSVPLG03,km,20260305-173409,1.0.2,20251113-095759,792,Experiment,Both,1,Automatic,main,88,20260305-174229,global,local,750,S,S,A,E,S-A.png,E-S.png,sS,sS,mask-3.png,mask-4.png,s,1,1.1925047999829985,s,1,0.10857509999186732,0.050845000019762665,0.050830000021960586,0.1022819000063464,0.10198530001798645,0.7519872999982908
RSVPLG03,km,20260305-173409,1.0.2,20251113-095759,792,Experiment,Both,1,Automatic,main,89,20260305-174234,global,global,750,H,S,E,E,H-E.png,S-E.png,hH,sS,mask-4.png,mask-3.png,h,1,0.4136142000206746,s,1,2.589865699992515,0.049612100003287196,0.04891240000142716,0.0999766000022646,0.0988235000113491,0.75245209998684
RSVPLG03,km,20260305-173409,1.0.2,20251113-095759,792,Experiment,Both,1,Automatic,main,90,20260305-174242,global,local,300,S,S,E,E,S-E.png,E-S.png,sS,sS,mask-2.png,mask-1.png,s,1,0.9013986000209115,s,1,0.35109080001711845,0.04747339998721145,0.04844000001321547,0.09967559998040088,0.099747500004014,0.2995867999852635
RSVPLG03,km,20260305-173409,1.0.2,20251113-095759,792,Experiment,Both,1,Automatic,main,91,20260305-174247,local,global,750,H,S,E,A,E-H.png,S-A.png,hH,sS,mask-1.png,mask-2.png,h,1,0.8875300000072457,s,1,0.06113950000144541,0.050910199992358685,0.04983929998707026,0.10089229998993687,0.10079180001048371,0.7522552000009455
RSVPLG03,km,20260305-173409,1.0.2,20251113-095759,792,Experiment,Both,1,Automatic,main,92,20260305-174252,local,global,750,S,H,E,E,E-S.png,H-E.png,sS,hH,mask-3.png,mask-2.png,s,1,0.5309703000239097,s,0,0.17513940000208095,0.048130500013940036,0.05086519999895245,0.09995890001300722,0.10087840000051074,0.7501511000155006
RSVPLG03,km,20260305-173409,1.0.2,20251113-095759,792,Experiment,Both,1,Automatic,main,93,20260305-174257,local,global,300,H,H,E,E,E-H.png,H-E.png,hH,hH,mask-3.png,mask-3.png,h,1,0.5343491999956314,s,0,1.47051630000351,0.048892200022237375,0.049958999996306375,0.10085730001446791,0.10010129999136552,0.29951180002535693
RSVPLG03,km,20260305-173409,1.0.2,20251113-095759,792,Experiment,Both,1,Automatic,main,94,20260305-174303,local,local,300,S,S,A,E,A-S.png,E-S.png,sS,sS,mask-4.png,mask-4.png,s,1,0.4817748999921605,s,1,0.17215880000730976,0.047638599993661046,0.04915110001456924,0.09960220000357367,0.09965790002024733,0.29967609999584965
RSVPLG03,km,20260305-173409,1.0.2,20251113-095759,792,Experiment,Both,1,Automatic,main,95,20260305-174307,global,local,300,H,S,E,A,H-E.png,A-S.png,hH,sS,mask-2.png,mask-3.png,h,1,0.4384961000178009,h,0,0.17445900000166148,0.05055140002514236,0.049255299993092194,0.10016050000558607,0.0999393000092823,0.3012260000105016
RSVPLG03,km,20260305-173409,1.0.2,20251113-095759,792,Experiment,Both,1,Automatic,main,96,20260305-174311,global,local,750,S,S,E,E,S-E.png,E-S.png,sS,sS,mask-3.png,mask-1.png,s,1,0.754675700009102,h,0,0.9629543999908492,0.05091200000606477,0.052585800003726035,0.10105580001254566,0.1024625999853015,0.7504559000080917
RSVPLG03,km,20260305-173409,1.0.2,20251113-095759,792,Experiment,Both,1,Automatic,main,97,20260305-174316,local,local,750,H,S,E,A,E-H.png,A-S.png,hH,sS,mask-1.png,mask-2.png,h,1,0.8281274000182748,s,1,0.0636629999789875,0.05080840000300668,0.04982439999002963,0.1015021999774035,0.09982919998583384,0.7532629999914207
RSVPLG03,km,20260305-173409,1.0.2,20251113-095759,792,Experiment,Both,1,Automatic,main,98,20260305-174321,global,global,300,S,H,E,A,S-E.png,H-A.png,sS,hH,mask-4.png,mask-2.png,s,1,0.9579671999963466,h,1,0.2531347000040114,0.05081010001595132,0.04980890001752414,0.09983320001629181,0.10020390001591295,0.3006468999956269
RSVPLG03,km,20260305-173409,1.0.2,20251113-095759,792,Experiment,Both,1,Automatic,main,99,20260305-174327,local,local,300,H,H,A,E,A-H.png,E-H.png,hH,hH,mask-1.png,mask-1.png,h,1,0.5647622999968007,h,1,0.12302740002633072,0.04994289999012835,0.0489590999786742,0.09902509997482412,0.09902369999326766,0.3004707999934908
RSVPLG03,km,20260305-173409,1.0.2,20251113-095759,792,Experiment,Both,1,Automatic,main,100,20260305-174331,local,local,750,H,S,A,E,A-H.png,E-S.png,hH,sS,mask-4.png,mask-3.png,h,1,0.42770160001236945,s,1,0.06253289998858236,0.05155579998972826,0.04995069999131374,0.10018339997623116,0.10099579999223351,0.7520164999878034
RSVPLG03,km,20260305-174431,1.0.2,20251113-095759,792,Experiment,Both,1,Automatic,warmup,1,20260305-174521,local,global,750,H,S,A,E,A-H.png,S-E.png,hH,sS,mask-3.png,mask-1.png,h,1,1.6088517000025604,h,0,0.6999886000121478,0.03994089999468997,0.050855400011641905,0.08997569998609833,0.1017528000229504,0.7419331999844871
RSVPLG03,km,20260305-174431,1.0.2,20251113-095759,792,Experiment,Both,1,Automatic,warmup,2,20260305-174527,global,local,300,H,H,A,E,H-A.png,E-H.png,hH,hH,mask-3.png,mask-2.png,h,1,0.7043034999805968,h,1,0.6226845000055619,0.05182229998172261,0.05149769998388365,0.10178569998242892,0.1002779999980703,0.3011355999915395
RSVPLG03,km,20260305-174431,1.0.2,20251113-095759,792,Experiment,Both,1,Automatic,warmup,3,20260305-174533,global,local,750,H,H,E,A,H-E.png,A-H.png,hH,hH,mask-4.png,mask-2.png,h,1,0.4246456999971997,h,1,0.1591377000149805,0.0498500999819953,0.04840880000847392,0.09887620000517927,0.09907409999868833,0.7514660999877378
RSVPLG03,km,20260305-174431,1.0.2,20251113-095759,792,Experiment,Both,1,Automatic,warmup,4,20260305-174537,local,local,750,H,S,E,E,E-H.png,E-S.png,hH,sS,mask-3.png,mask-3.png,h,1,0.8224989000009373,s,1,0.06437569999252446,0.04984900000272319,0.05072010000003502,0.10046560000046156,0.10111430002143607,0.7515058999997564
RSVPLG03,km,20260305-174431,1.0.2,20251113-095759,792,Experiment,Both,1,Automatic,main,5,20260305-174543,local,local,750,S,S,E,A,E-S.png,A-S.png,sS,sS,mask-1.png,mask-4.png,s,1,0.37165049999020994,s,1,0.11144680000143126,0.05013459999463521,0.04900100000668317,0.10021919998689555,0.10007769998628646,0.7528080999909434
RSVPLG03,km,20260305-174431,1.0.2,20251113-095759,792,Experiment,Both,1,Automatic,main,6,20260305-174547,global,local,300,S,S,E,A,S-E.png,A-S.png,sS,sS,mask-4.png,mask-1.png,s,1,0.6235544999944977,s,1,0.14262440000311472,0.049999100010609254,0.04897180001717061,0.09979149998980574,0.09905769999022596,0.3016522999969311
RSVPLG03,km,20260305-174431,1.0.2,20251113-095759,792,Experiment,Both,1,Automatic,main,7,20260305-174552,global,global,750,H,H,E,A,H-E.png,H-A.png,hH,hH,mask-1.png,mask-4.png,h,1,0.36850389998289756,h,1,0.14172189999953844,0.05084469998837449,0.050887999997939914,0.10019309999188408,0.1018651999766007,0.7520351000130177
RSVPLG03,km,20260305-174431,1.0.2,20251113-095759,792,Experiment,Both,1,Automatic,main,8,20260305-174556,global,global,750,S,S,E,E,S-E.png,S-E.png,sS,sS,mask-3.png,mask-1.png,s,1,0.18513890000758693,s,1,0.15992219999316148,0.04882660001749173,0.050590300001204014,0.09986330001265742,0.10226600000169128,0.7503055999986827
RSVPLG03,km,20260305-174431,1.0.2,20251113-095759,792,Experiment,Both,1,Automatic,main,9,20260305-174601,global,local,750,S,H,E,E,S-E.png,E-H.png,sS,hH,mask-2.png,mask-1.png,s,1,0.4180083000101149,s,0,0.38237089998438023,0.04935119999572635,0.04996259999461472,0.09932259999914095,0.10095910000381991,0.7518614000000525
RSVPLG03,km,20260305-174431,1.0.2,20251113-095759,792,Experiment,Both,1,Automatic,main,10,20260305-174606,global,local,300,H,S,A,A,H-A.png,A-S.png,hH,sS,mask-2.png,mask-2.png,h,1,0.7957961000211071,h,0,0.23780130001250654,0.05010969997965731,0.049363400001311675,0.10118420000071637,0.10125750000588596,0.30152509998879395
RSVPLG03,km,20260305-174431,1.0.2,20251113-095759,792,Experiment,Both,1,Automatic,main,11,20260305-174611,global,global,300,H,H,A,A,H-A.png,H-A.png,hH,hH,mask-2.png,mask-3.png,h,1,0.6511539999919478,h,1,0.6693759000045247,0.049804999987827614,0.05128260000492446,0.10173999998369254,0.10069079999811947,0.29992659998242743
RSVPLG03,km,20260305-174431,1.0.2,20251113-095759,792,Experiment,Both,1,Automatic,main,12,20260305-174616,local,global,750,S,S,A,E,A-S.png,S-E.png,sS,sS,mask-1.png,mask-4.png,h,0,1.5637077999999747,s,1,0.015511100005824119,0.0507934000052046,0.048942699999315664,0.09963889999198727,0.10092180001083761,0.7531266000005417
RSVPLG03,km,20260305-174431,1.0.2,20251113-095759,792,Experiment,Both,1,Automatic,main,13,20260305-174622,local,global,300,S,S,A,A,A-S.png,S-A.png,sS,sS,mask-2.png,mask-3.png,s,1,0.7477239000145346,s,1,0.7665455999958795,0.04927349998615682,0.051244900008896366,0.10012079999432899,0.100867000001017,0.2995688999944832
RSVPLG03,km,20260305-174431,1.0.2,20251113-095759,792,Experiment,Both,1,Automatic,main,14,20260305-174627,local,global,750,S,H,E,A,E-S.png,H-A.png,sS,hH,mask-4.png,mask-2.png,s,1,0.9868000000133179,h,1,0.14157609999529086,0.04962390000582673,0.04995190000045113,0.1013649000087753,0.10002640000311658,0.7536840999964625
RSVPLG03,km,20260305-174431,1.0.2,20251113-095759,792,Experiment,Both,1,Automatic,main,15,20260305-174633,global,local,300,H,H,E,E,H-E.png,E-H.png,hH,hH,mask-4.png,mask-3.png,h,1,0.6147497000056319,h,1,0.0948355000000447,0.0498383000085596,0.04846349998842925,0.09976790001383051,0.10042010000324808,0.30148240001290105
RSVPLG03,km,20260305-174431,1.0.2,20251113-095759,792,Experiment,Both,1,Automatic,main,16,20260305-174637,global,local,750,H,S,A,E,H-A.png,E-S.png,hH,sS,mask-1.png,mask-1.png,h,1,0.48714479999034666,s,1,0.11043689999496564,0.049149899976328015,0.049041999998735264,0.09788789998856373,0.10097890000906773,0.7514119999832474
RSVPLG03,km,20260305-174431,1.0.2,20251113-095759,792,Experiment,Both,1,Automatic,main,17,20260305-174642,global,local,750,S,S,A,E,S-A.png,E-S.png,sS,sS,mask-3.png,mask-4.png,s,1,0.2938251000014134,s,1,0.28655190000426956,0.049834700010251254,0.05083240001113154,0.09995509998407215,0.09968970000045374,0.752405799983535
RSVPLG03,km,20260305-174431,1.0.2,20251113-095759,792,Experiment,Both,1,Automatic,main,18,20260305-174647,global,global,750,H,H,E,E,H-E.png,H-E.png,hH,hH,mask-4.png,mask-2.png,h,1,0.3074233000224922,h,1,0.14317940000910312,0.04981110000517219,0.04881189999287017,0.1006078000064008,0.09975330001907423,0.7528790000069421
RSVPLG03,km,20260305-174431,1.0.2,20251113-095759,792,Experiment,Both,1,Automatic,main,19,20260305-174651,global,global,300,S,H,E,A,S-E.png,H-A.png,sS,hH,mask-2.png,mask-3.png,s,1,0.5371904999774415,h,1,0.07870060001732782,0.04995980000239797,0.04999700002372265,0.10009039999567904,0.09922679999726824,0.30216639998252504
RSVPLG03,km,20260305-174431,1.0.2,20251113-095759,792,Experiment,Both,1,Automatic,main,20,20260305-174656,global,global,300,H,H,E,E,H-E.png,H-E.png,hH,hH,mask-2.png,mask-3.png,h,1,0.8305071000067983,h,1,0.1275642999971751,0.050062700000125915,0.048419700004160404,0.10016390000237152,0.09813590001431294,0.3010791999986395
RSVPLG03,km,20260305-174431,1.0.2,20251113-095759,792,Experiment,Both,1,Automatic,main,21,20260305-174701,local,global,300,H,H,E,E,E-H.png,H-E.png,hH,hH,mask-3.png,mask-2.png,h,1,0.8408704000175931,h,1,0.5428983999881893,0.04999079997651279,0.04995960000087507,0.09914959999150597,0.1000427000108175,0.30122989998199046
RSVPLG03,km,20260305-174431,1.0.2,20251113-095759,792,Experiment,Both,1,Automatic,main,22,20260305-174706,global,local,750,S,H,E,E,S-E.png,E-H.png,sS,hH,mask-4.png,mask-3.png,s,1,0.519812099984847,s,0,0.14284980000229552,0.05076850001933053,0.04996440000832081,0.10080360001302324,0.10102760000154376,0.7522515000018757
RSVPLG03,km,20260305-174431,1.0.2,20251113-095759,792,Experiment,Both,1,Automatic,main,23,20260305-174710,local,local,750,H,S,A,E,A-H.png,E-S.png,hH,sS,mask-4.png,mask-2.png,h,1,0.4425040999776684,s,1,0.095589700009441,0.04883270000573248,0.046741099999053404,0.09883539998554625,0.09849030000623316,0.753582200006349
RSVPLG03,km,20260305-174431,1.0.2,20251113-095759,792,Experiment,Both,1,Automatic,main,24,20260305-174715,local,local,750,S,S,A,E,A-S.png,E-S.png,sS,sS,mask-3.png,mask-2.png,s,1,0.410214100003941,s,1,0.11051040000165813,0.050550099986139685,0.04859640001086518,0.10145909999846481,0.09866069999407046,0.7539391999889631
RSVPLG03,km,20260305-174431,1.0.2,20251113-095759,792,Experiment,Both,1,Automatic,main,25,20260305-174720,local,local,300,H,H,A,E,A-H.png,E-H.png,hH,hH,mask-4.png,mask-4.png,h,1,0.37009659997420385,h,1,0.09807320000254549,0.049677300004987046,0.05066060001263395,0.10076499998103827,0.0997796000156086,0.30125649998080917
RSVPLG03,km,20260305-174431,1.0.2,20251113-095759,792,Experiment,Both,1,Automatic,main,26,20260305-174740,local,global,750,S,S,A,A,A-S.png,S-A.png,sS,sS,mask-3.png,mask-3.png,s,1,0.3761532000207808,s,1,0.23554259998491034,0.049976699985563755,0.049972500011790544,0.10003929998492822,0.09904400000232272,0.7535447999835014
RSVPLG03,km,20260305-174431,1.0.2,20251113-095759,792,Experiment,Both,1,Automatic,main,27,20260305-174745,local,global,750,H,H,E,A,E-H.png,H-A.png,hH,hH,mask-3.png,mask-2.png,h,1,1.004936799989082,h,1,0.35175790000357665,0.049680399999488145,0.04981870000483468,0.09849970001960173,0.10180180001771078,0.7508445999992546
RSVPLG03,km,20260305-174431,1.0.2,20251113-095759,792,Experiment,Both,1,Automatic,main,28,20260305-174751,global,local,300,H,S,E,A,H-E.png,A-S.png,hH,sS,mask-3.png,mask-2.png,h,1,0.7733394000097178,h,0,0.11097559999325313,0.05001479998463765,0.047561899991706014,0.1006389000103809,0.0982961000117939,0.30357899999944493
RSVPLG03,km,20260305-174431,1.0.2,20251113-095759,792,Experiment,Both,1,Automatic,main,29,20260305-174755,local,global,750,S,S,E,E,E-S.png,S-E.png,sS,sS,mask-4.png,mask-2.png,s,1,0.8103308999852743,h,0,0.2720590000099037,0.05003780001425184,0.04964519999339245,0.10047629999462515,0.09949689998757094,0.7523785000084899
RSVPLG03,km,20260305-174431,1.0.2,20251113-095759,792,Experiment,Both,1,Automatic,main,30,20260305-174801,local,global,300,H,H,A,A,A-H.png,H-A.png,hH,hH,mask-2.png,mask-1.png,h,1,0.48583410002174787,h,1,0.8800686000031419,0.049988499988103285,0.05004370000096969,0.10112109998590313,0.10012749998713844,0.30033140000887215
RSVPLG03,km,20260305-174431,1.0.2,20251113-095759,792,Experiment,Both,1,Automatic,main,31,20260305-174806,global,local,750,S,S,A,E,S-A.png,E-S.png,sS,sS,mask-3.png,mask-1.png,s,1,0.4134877000178676,s,1,0.1585590000031516,0.04972459998680279,0.05034950000117533,0.09987629999523051,0.10149319999618456,0.7516459999897052
RSVPLG03,km,20260305-174431,1.0.2,20251113-095759,792,Experiment,Both,1,Automatic,main,32,20260305-174811,global,global,300,H,H,E,E,H-E.png,H-E.png,hH,hH,mask-4.png,mask-4.png,h,1,0.3377343000029214,h,1,0.3643146000104025,0.050036500004353,0.04988539998885244,0.10012190000270493,0.09995569998864084,0.3011506000184454
RSVPLG03,km,20260305-174431,1.0.2,20251113-095759,792,Experiment,Both,1,Automatic,main,33,20260305-174815,global,global,750,S,S,E,A,S-E.png,S-A.png,sS,sS,mask-1.png,mask-3.png,s,1,0.7076117999968119,s,1,0.6375538999855053,0.04997930000536144,0.04902899998705834,0.09995360000175424,0.09899709999444894,0.752924600004917
RSVPLG03,km,20260305-174431,1.0.2,20251113-095759,792,Experiment,Both,1,Automatic,main,34,20260305-174821,local,global,750,H,S,E,E,E-H.png,S-E.png,hH,sS,mask-3.png,mask-3.png,h,1,1.0334039000154007,h,0,0.36731679999502376,0.05000100002507679,0.04920450001372956,0.09959290002007037,0.09957930000382476,0.7522138000058476
RSVPLG03,km,20260305-174431,1.0.2,20251113-095759,792,Experiment,Both,1,Automatic,main,35,20260305-174826,local,global,750,S,H,A,A,A-S.png,H-A.png,sS,hH,mask-4.png,mask-1.png,s,1,1.9462386000086553,h,1,0.0635331999801565,0.04983410000568256,0.04973729999619536,0.10003359999973327,0.09878639999078587,0.7527588999946602
RSVPLG03,km,20260305-174431,1.0.2,20251113-095759,792,Experiment,Both,1,Automatic,main,36,20260305-174832,global,global,300,S,S,A,A,S-A.png,S-A.png,sS,sS,mask-4.png,mask-2.png,s,1,0.42247930000303313,s,1,0.07730180001817644,0.05081469999277033,0.048909900011494756,0.09991940000327304,0.09992420001071878,0.30191509998985566
RSVPLG03,km,20260305-174431,1.0.2,20251113-095759,792,Experiment,Both,1,Automatic,main,37,20260305-174837,local,global,750,S,H,E,E,E-S.png,H-E.png,sS,hH,mask-2.png,mask-2.png,s,1,0.5404999000020325,h,1,0.04649269999936223,0.0498692000110168,0.04996970001957379,0.09999670000979677,0.10101820001727901,0.7519130999862682
RSVPLG03,km,20260305-174431,1.0.2,20251113-095759,792,Experiment,Both,1,Automatic,main,38,20260305-174842,global,global,750,H,H,A,A,H-A.png,H-A.png,hH,hH,mask-3.png,mask-3.png,h,1,0.4040775999892503,h,1,0.09453699999721721,0.05093320002197288,0.049827200011350214,0.10104520001914352,0.10077290001208894,0.7518693000019994
RSVPLG03,km,20260305-174431,1.0.2,20251113-095759,792,Experiment,Both,1,Automatic,main,39,20260305-174846,local,local,300,H,S,A,E,A-H.png,E-S.png,hH,sS,mask-1.png,mask-2.png,h,1,1.7512949999945704,s,1,0.0789500999962911,0.05042379998485558,0.04978619999019429,0.1012648000032641,0.09955990000162274,0.3020791999879293
RSVPLG03,km,20260305-174431,1.0.2,20251113-095759,792,Experiment,Both,1,Automatic,main,40,20260305-174852,global,global,750,H,H,A,E,H-A.png,H-E.png,hH,hH,mask-1.png,mask-3.png,h,1,0.30948009999701753,h,1,0.10858050000388175,0.04987819999223575,0.05193879999569617,0.09983989997999743,0.10185249999631196,0.7515543999907095
RSVPLG03,km,20260305-174431,1.0.2,20251113-095759,792,Experiment,Both,1,Automatic,main,41,20260305-174856,global,global,300,H,S,E,E,H-E.png,S-E.png,hH,sS,mask-1.png,mask-2.png,h,1,0.37682020000647753,s,1,0.04657180001959205,0.04984890000196174,0.04981729999417439,0.0987950999988243,0.10176710001542233,0.29954799998085946
RSVPLG03,km,20260305-174431,1.0.2,20251113-095759,792,Experiment,Both,1,Automatic,main,42,20260305-174901,local,local,300,H,S,E,A,E-H.png,A-S.png,hH,sS,mask-2.png,mask-2.png,h,1,0.36968599999090657,s,1,0.026929899991955608,0.05175379998399876,0.04864140000427142,0.10049339997931384,0.09947960000135936,0.30201559999841265
RSVPLG03,km,20260305-174431,1.0.2,20251113-095759,792,Experiment,Both,1,Automatic,main,43,20260305-174905,local,global,300,H,H,E,A,E-H.png,H-A.png,hH,hH,mask-3.png,mask-2.png,h,1,0.5449286000221036,h,1,0.47947170000406913,0.049969200015766546,0.04932520000147633,0.099754099996062,0.09989270000369288,0.2998690000094939
RSVPLG03,km,20260305-174431,1.0.2,20251113-095759,792,Experiment,Both,1,Automatic,main,44,20260305-174910,local,local,750,S,S,A,E,A-S.png,E-S.png,sS,sS,mask-1.png,mask-2.png,s,1,1.1592727999959607,s,1,0.22311890000128187,0.04855259999749251,0.05085020000115037,0.0984875000140164,0.09983739999006502,0.7503779999969993
RSVPLG03,km,20260305-174431,1.0.2,20251113-095759,792,Experiment,Both,1,Automatic,main,45,20260305-174915,local,local,300,H,H,A,A,A-H.png,A-H.png,hH,hH,mask-1.png,mask-1.png,h,1,0.6172417000052519,h,1,0.1424397999944631,0.04876269999658689,0.050393200013786554,0.09997340000700206,0.09985590001451783,0.3003463000059128
RSVPLG03,km,20260305-174431,1.0.2,20251113-095759,792,Experiment,Both,1,Automatic,main,46,20260305-174920,global,global,750,H,S,A,E,H-A.png,S-E.png,hH,sS,mask-3.png,mask-1.png,h,1,0.4076119999808725,s,1,0.12468670000089332,0.049132399988593534,0.04981500000576489,0.10069969997857697,0.09974030000739731,0.7512595999869518
RSVPLG03,km,20260305-174431,1.0.2,20251113-095759,792,Experiment,Both,1,Automatic,main,47,20260305-174925,global,local,750,H,H,A,A,H-A.png,A-H.png,hH,hH,mask-4.png,mask-4.png,h,1,0.31405139999696985,h,1,0.12448890000814572,0.0505925000179559,0.05079639999894425,0.10151659999974072,0.10069360001944005,0.7527472999936435
RSVPLG03,km,20260305-174431,1.0.2,20251113-095759,792,Experiment,Both,1,Automatic,main,48,20260305-174929,local,global,750,H,S,E,A,E-H.png,S-A.png,hH,sS,mask-2.png,mask-3.png,h,1,0.5096849999972619,s,1,0.02885560001595877,0.051643800019519404,0.052170999988447875,0.10147530000540428,0.10245700000086799,0.7512175000156276
RSVPLG03,km,20260305-174431,1.0.2,20251113-095759,792,Experiment,Both,1,Automatic,main,49,20260305-174934,local,local,300,H,S,E,E,E-H.png,E-S.png,hH,sS,mask-1.png,mask-1.png,h,1,0.3816921999969054,h,0,0.19123180001042783,0.05016539999633096,0.05071510002017021,0.10082510000211187,0.09962480000103824,0.30080159998033196
RSVPLG03,km,20260305-174431,1.0.2,20251113-095759,792,Experiment,Both,1,Automatic,main,50,20260305-174938,global,local,750,H,S,E,A,H-E.png,A-S.png,hH,sS,mask-2.png,mask-1.png,h,1,1.2113288999826182,s,1,1.0540056999889202,0.050655099999858066,0.05008089999319054,0.10035740002058446,0.10222349999821745,0.7517717000155244
RSVPLG03,km,20260305-174431,1.0.2,20251113-095759,792,Experiment,Both,1,Automatic,main,51,20260305-174954,local,global,300,S,H,A,E,A-S.png,H-E.png,sS,hH,mask-1.png,mask-3.png,s,1,1.2562406999932136,s,0,0.22257089999038726,0.04964979999931529,0.05047970000305213,0.09941309998976067,0.1012701999861747,0.3002541000023484
RSVPLG03,km,20260305-174431,1.0.2,20251113-095759,792,Experiment,Both,1,Automatic,main,52,20260305-175000,global,local,300,H,S,A,A,H-A.png,A-S.png,hH,sS,mask-4.png,mask-3.png,s,0,0.37154170000576414,h,0,0.01452720002271235,0.04883759998483583,0.049634399998467416,0.09965180000290275,0.09959019999951124,0.30000039999140427
RSVPLG03,km,20260305-174431,1.0.2,20251113-095759,792,Experiment,Both,1,Automatic,main,53,20260305-175004,local,global,750,S,H,A,A,A-S.png,H-A.png,sS,hH,mask-3.png,mask-1.png,s,1,1.2110871000040788,s,0,0.10919099999591708,0.04898969997884706,0.050951399985933676,0.10024369999882765,0.10102819997700863,0.7515099000011105
RSVPLG03,km,20260305-174431,1.0.2,20251113-095759,792,Experiment,Both,1,Automatic,main,54,20260305-175009,local,global,300,S,H,E,A,E-S.png,H-A.png,sS,hH,mask-3.png,mask-3.png,s,1,0.465526600019075,h,1,0.016270299995085225,0.05087249999633059,0.04976250001345761,0.09983160000410862,0.09975480000139214,0.30060600000433624
RSVPLG03,km,20260305-174431,1.0.2,20251113-095759,792,Experiment,Both,1,Automatic,main,55,20260305-175014,local,local,750,S,H,E,A,E-S.png,A-H.png,sS,hH,mask-1.png,mask-2.png,h,0,1.1311061999876983,h,1,0.129521199996816,0.049822799977846444,0.05001750000519678,0.09974700000020675,0.10017130000051111,0.7510365999769419
RSVPLG03,km,20260305-174431,1.0.2,20251113-095759,792,Experiment,Both,1,Automatic,main,56,20260305-175019,local,global,300,S,S,A,A,A-S.png,S-A.png,sS,sS,mask-4.png,mask-2.png,s,1,1.6853418000100646,h,0,0.03076100000180304,0.04987330001313239,0.04969879999407567,0.09799520001979545,0.0995175999996718,0.2997207000153139
RSVPLG03,km,20260305-174431,1.0.2,20251113-095759,792,Experiment,Both,1,Automatic,main,57,20260305-175024,local,local,750,H,H,A,A,A-H.png,A-H.png,hH,hH,mask-4.png,mask-1.png,h,1,0.5192061999987345,h,1,0.061896400002297014,0.05031859999871813,0.04968849997385405,0.1003128000011202,0.0995952999801375,0.7523480000090785
RSVPLG03,km,20260305-174431,1.0.2,20251113-095759,792,Experiment,Both,1,Automatic,main,58,20260305-175029,local,local,750,S,H,E,A,E-S.png,A-H.png,sS,hH,mask-4.png,mask-1.png,h,0,1.013538500003051,s,0,0.0640762000111863,0.0519569999887608,0.05101039999863133,0.10176910000154749,0.10148949999711476,0.7513248999894131
RSVPLG03,km,20260305-174431,1.0.2,20251113-095759,792,Experiment,Both,1,Automatic,main,59,20260305-175035,local,global,300,S,S,A,E,A-S.png,S-E.png,sS,sS,mask-3.png,mask-3.png,s,1,0.633947199996328,s,1,0.08221400002366863,0.051749999984167516,0.049656599992886186,0.10062049998668954,0.09841909998795018,0.3019796999869868
RSVPLG03,km,20260305-174431,1.0.2,20251113-095759,792,Experiment,Both,1,Automatic,main,60,20260305-175039,global,local,300,H,S,A,E,H-A.png,E-S.png,hH,sS,mask-3.png,mask-2.png,s,0,0.6079136999906041,h,0,0.7039027000137139,0.05177009999169968,0.04939040000317618,0.10132609997526743,0.09914970002137125,0.3022997999796644
RSVPLG03,km,20260305-174431,1.0.2,20251113-095759,792,Experiment,Both,1,Automatic,main,61,20260305-175043,global,local,750,S,H,E,A,S-E.png,A-H.png,sS,hH,mask-1.png,mask-1.png,s,1,0.8107495000003837,h,1,0.07638559999759309,0.048720199993113056,0.04903229998308234,0.10011840000515804,0.09898109998903237,0.7531833999964874
RSVPLG03,km,20260305-174431,1.0.2,20251113-095759,792,Experiment,Both,1,Automatic,main,62,20260305-175049,global,global,300,H,S,E,E,H-E.png,S-E.png,hH,sS,mask-2.png,mask-1.png,h,1,0.39751010001054965,s,1,0.06168099999194965,0.048508600011700764,0.0508871000201907,0.09966740000527352,0.10078700000303797,0.29957040000590496
RSVPLG03,km,20260305-174431,1.0.2,20251113-095759,792,Experiment,Both,1,Automatic,main,63,20260305-175053,local,local,300,S,S,A,A,A-S.png,A-S.png,sS,sS,mask-1.png,mask-4.png,s,1,0.41753390000667423,s,1,0.13063539998256601,0.05101900000590831,0.050947100011399016,0.1012992000032682,0.10028670000610873,0.29992970000603236
RSVPLG03,km,20260305-174431,1.0.2,20251113-095759,792,Experiment,Both,1,Automatic,main,64,20260305-175057,global,local,750,S,S,E,E,S-E.png,E-S.png,sS,sS,mask-2.png,mask-2.png,s,1,0.456858799996553,s,1,0.2718423999904189,0.05107660000794567,0.05083970000850968,0.10085399998934008,0.09959200001321733,0.7518718999926932
RSVPLG03,km,20260305-174431,1.0.2,20251113-095759,792,Experiment,Both,1,Automatic,main,65,20260305-175102,global,local,300,H,S,A,E,H-A.png,E-S.png,hH,sS,mask-1.png,mask-3.png,h,1,0.26698729998315684,s,1,0.044776999973692,0.05064849997870624,0.049292199983028695,0.0998494999948889,0.09869119999348186,0.3023983000020962
RSVPLG03,km,20260305-174431,1.0.2,20251113-095759,792,Experiment,Both,1,Automatic,main,66,20260305-175106,global,global,300,H,S,E,A,H-E.png,S-A.png,hH,sS,mask-1.png,mask-4.png,h,1,0.4525153999857139,s,1,0.06355220000841655,0.04984439999680035,0.04934210001374595,0.0997784000064712,0.09921730001224205,0.3007309999957215
RSVPLG03,km,20260305-174431,1.0.2,20251113-095759,792,Experiment,Both,1,Automatic,main,67,20260305-175111,local,global,300,H,H,E,A,E-H.png,H-A.png,hH,hH,mask-4.png,mask-1.png,h,1,0.6886541999992914,h,1,0.07662119998713024,0.049623999977484345,0.049429799983045086,0.10143349997815676,0.1003482999803964,0.3016860999923665
RSVPLG03,km,20260305-174431,1.0.2,20251113-095759,792,Experiment,Both,1,Automatic,main,68,20260305-175115,global,global,750,H,H,E,E,H-E.png,H-E.png,hH,hH,mask-3.png,mask-3.png,h,1,0.32120669999858364,h,1,0.11071690000244416,0.0510892000165768,0.0498782999929972,0.10199760002433322,0.09982629999285564,0.7534928000241052
RSVPLG03,km,20260305-174431,1.0.2,20251113-095759,792,Experiment,Both,1,Automatic,main,69,20260305-175120,local,global,750,H,H,E,A,E-H.png,H-A.png,hH,hH,mask-4.png,mask-3.png,h,1,1.5191945999977179,s,0,0.02948959998320788,0.04982059999019839,0.05080150000867434,0.10039599999436177,0.101751600013813,0.750912999996217
RSVPLG03,km,20260305-174431,1.0.2,20251113-095759,792,Experiment,Both,1,Automatic,main,70,20260305-175125,local,global,750,H,S,A,A,A-H.png,S-A.png,hH,sS,mask-1.png,mask-1.png,h,1,0.9438215999980457,h,0,0.1605275000038091,0.05062530000577681,0.05004089997964911,0.10057420001248829,0.09847949998220429,0.7533686000097077
RSVPLG03,km,20260305-174431,1.0.2,20251113-095759,792,Experiment,Both,1,Automatic,main,71,20260305-175131,local,local,300,S,S,A,E,A-S.png,E-S.png,sS,sS,mask-4.png,mask-4.png,s,1,0.3850335000024643,s,1,0.1395743000030052,0.05026220000581816,0.04908850000356324,0.10163630000897683,0.10069849999854341,0.3017128999927081
RSVPLG03,km,20260305-174431,1.0.2,20251113-095759,792,Experiment,Both,1,Automatic,main,72,20260305-175135,local,global,300,S,S,E,E,E-S.png,S-E.png,sS,sS,mask-3.png,mask-1.png,s,1,0.6995671000040602,h,0,0.01509910001186654,0.04917630000272766,0.04930899999453686,0.10041139999520965,0.10070909999194555,0.30085430000326596
RSVPLG03,km,20260305-174431,1.0.2,20251113-095759,792,Experiment,Both,1,Automatic,main,73,20260305-175139,local,local,300,S,S,E,A,E-S.png,A-S.png,sS,sS,mask-2.png,mask-1.png,s,1,1.661002599983476,s,1,0.09316830002353527,0.04897599999094382,0.05046890000812709,0.10013229999458417,0.09936680001555942,0.3001213999814354
RSVPLG03,km,20260305-174431,1.0.2,20251113-095759,792,Experiment,Both,1,Automatic,main,74,20260305-175145,global,global,300,H,S,E,E,H-E.png,S-E.png,hH,sS,mask-3.png,mask-4.png,s,0,1.0025323000154458,h,0,1.1625932000169996,0.04954050001106225,0.05025569998542778,0.10135219999938272,0.10060010000597686,0.3013523000117857
RSVPLG03,km,20260305-174431,1.0.2,20251113-095759,792,Experiment,Both,1,Automatic,main,75,20260305-175150,global,local,750,H,S,A,E,H-A.png,E-S.png,hH,sS,mask-3.png,mask-3.png,h,1,0.49122329999227077,s,1,0.1417492000036873,0.04985039998427965,0.04983679999713786,0.09976389998337254,0.0997909999859985,0.7525231000036001
RSVPLG03,km,20260305-174431,1.0.2,20251113-095759,792,Experiment,Both,1,Automatic,main,76,20260305-175214,local,local,300,S,H,E,E,E-S.png,E-H.png,sS,hH,mask-4.png,mask-3.png,s,1,2.887431800016202,s,0,0.18990450000273995,0.04890970000997186,0.04927790001966059,0.09887280000839382,0.10064809999312274,0.2998636999982409
RSVPLG03,km,20260305-174431,1.0.2,20251113-095759,792,Experiment,Both,1,Automatic,main,77,20260305-175221,global,global,750,H,S,E,E,H-E.png,S-E.png,hH,sS,mask-3.png,mask-1.png,h,1,0.5140928000037093,s,1,0.09582550000050105,0.050003299984382465,0.04984370002057403,0.09890280000399798,0.09979160001967102,0.7517519999819342
RSVPLG03,km,20260305-174431,1.0.2,20251113-095759,792,Experiment,Both,1,Automatic,main,78,20260305-175225,global,global,750,H,S,A,A,H-A.png,S-A.png,hH,sS,mask-2.png,mask-1.png,h,1,1.0025489999970887,s,1,0.1101660999993328,0.05020870000589639,0.051076100004138425,0.10018249999848194,0.10120809997897595,0.7506698000070173
RSVPLG03,km,20260305-174431,1.0.2,20251113-095759,792,Experiment,Both,1,Automatic,main,79,20260305-175231,local,local,750,H,S,E,E,E-H.png,E-S.png,hH,sS,mask-4.png,mask-1.png,s,0,2.9140301999868825,s,1,0.2693124999932479,0.04881849998491816,0.049798899999586865,0.09977249999064952,0.09971199999563396,0.75185380000039
RSVPLG03,km,20260305-174431,1.0.2,20251113-095759,792,Experiment,Both,1,Automatic,main,80,20260305-175238,local,global,300,H,S,E,A,E-H.png,S-A.png,hH,sS,mask-1.png,mask-1.png,h,1,0.8367121999908704,h,0,0.18950879998737946,0.050538399984361604,0.050142899999627843,0.10149189998628572,0.09943790000397712,0.3015494999999646
RSVPLG03,km,20260305-174431,1.0.2,20251113-095759,792,Experiment,Both,1,Automatic,main,81,20260305-175243,global,local,300,H,H,E,A,H-E.png,A-H.png,hH,hH,mask-4.png,mask-2.png,h,1,0.6735484999953769,h,1,0.09337879999657162,0.05123269997420721,0.049742300005164,0.10126249998575076,0.09964359999867156,0.3021013999823481
RSVPLG03,km,20260305-174431,1.0.2,20251113-095759,792,Experiment,Both,1,Automatic,main,82,20260305-175247,local,local,300,S,H,A,E,A-S.png,E-H.png,sS,hH,mask-1.png,mask-4.png,s,1,0.35769649999565445,s,0,0.1266349000215996,0.04859620000934228,0.05084519999218173,0.09912009999970905,0.10105430000112392,0.3002134000125807
RSVPLG03,km,20260305-174431,1.0.2,20251113-095759,792,Experiment,Both,1,Automatic,main,83,20260305-175252,local,global,300,S,S,A,E,A-S.png,S-E.png,sS,sS,mask-2.png,mask-3.png,s,1,2.050601299997652,h,0,0.0003491000097710639,0.050115999998524785,0.049758999986806884,0.09924009998212568,0.09887519999756478,0.2999357999942731
RSVPLG03,km,20260305-174431,1.0.2,20251113-095759,792,Experiment,Both,1,Automatic,main,84,20260305-175258,global,local,300,S,S,E,A,S-E.png,A-S.png,sS,sS,mask-3.png,mask-3.png,s,1,2.4164615999907255,s,1,0.14234900000155903,0.05202480001025833,0.051160400005755946,0.1006078000064008,0.10163390001980588,0.30110769998282194
RSVPLG03,km,20260305-174431,1.0.2,20251113-095759,792,Experiment,Both,1,Automatic,main,85,20260305-175304,global,local,300,S,H,A,A,S-A.png,A-H.png,sS,hH,mask-2.png,mask-2.png,s,1,0.9923834000073839,h,1,0.621761799993692,0.05004070000723004,0.050938100001076236,0.10055850000935607,0.0997159999969881,0.30138720001559705
RSVPLG03,km,20260305-174431,1.0.2,20251113-095759,792,Experiment,Both,1,Automatic,main,86,20260305-175310,local,local,750,H,S,A,E,A-H.png,E-S.png,hH,sS,mask-4.png,mask-1.png,s,0,1.1722720000252593,s,1,0.35064270001021214,0.04901029999018647,0.04996550001669675,0.09915090000140481,0.09905160000198521,0.7522392999962904
RSVPLG03,km,20260305-174431,1.0.2,20251113-095759,792,Experiment,Both,1,Automatic,main,87,20260305-175315,local,local,300,H,H,A,A,A-H.png,A-H.png,hH,hH,mask-4.png,mask-2.png,h,1,0.8475916000024881,s,0,0.016328300000168383,0.05081459999200888,0.0495156999968458,0.10179319998132996,0.09893740000552498,0.3012849999940954
RSVPLG03,km,20260305-174431,1.0.2,20251113-095759,792,Experiment,Both,1,Automatic,main,88,20260305-175320,global,local,300,S,H,E,A,S-E.png,A-H.png,sS,hH,mask-3.png,mask-3.png,s,1,0.6082479000033345,s,0,0.14252850000048056,0.049794599995948374,0.050398899998981506,0.09912729999632575,0.10092640001676045,0.29977599999983795
RSVPLG03,km,20260305-174431,1.0.2,20251113-095759,792,Experiment,Both,1,Automatic,main,89,20260305-175324,global,global,750,H,S,A,E,H-A.png,S-E.png,hH,sS,mask-4.png,mask-1.png,h,1,0.7816212000034284,s,1,0.686364000022877,0.0518259999807924,0.04939080000622198,0.10076119998120703,0.10089629999129102,0.7524878999975044
RSVPLG03,km,20260305-174431,1.0.2,20251113-095759,792,Experiment,Both,1,Automatic,main,90,20260305-175330,global,global,300,H,S,E,E,H-E.png,S-E.png,hH,sS,mask-1.png,mask-4.png,h,1,0.41416230000322685,s,1,0.19074160000309348,0.049835799989523366,0.050929499993799254,0.10082459999830462,0.09990719999768771,0.30045670000254177
RSVPLG03,km,20260305-174431,1.0.2,20251113-095759,792,Experiment,Both,1,Automatic,main,91,20260305-175335,global,local,750,S,H,A,A,S-A.png,A-H.png,sS,hH,mask-1.png,mask-2.png,s,1,1.509423199982848,h,1,0.17456779998610727,0.0486903999990318,0.049621300015132874,0.09893609999562614,0.1003645000164397,0.7517192999948747
RSVPLG03,km,20260305-174431,1.0.2,20251113-095759,792,Experiment,Both,1,Automatic,main,92,20260305-175341,local,local,750,H,H,E,A,E-H.png,A-H.png,hH,hH,mask-3.png,mask-2.png,h,1,0.7467880999902263,s,0,0.1264865999983158,0.04990009998437017,0.04888120002578944,0.09883299999637529,0.09900330001255497,0.7525853999832179
RSVPLG03,km,20260305-174431,1.0.2,20251113-095759,792,Experiment,Both,1,Automatic,main,93,20260305-175346,local,local,300,S,S,E,A,E-S.png,A-S.png,sS,sS,mask-4.png,mask-4.png,s,1,0.38433250001980923,s,1,0.09350330001325347,0.050820999982533976,0.04926820000400767,0.10055499998270534,0.09965720001491718,0.30095839998102747
RSVPLG03,km,20260305-174431,1.0.2,20251113-095759,792,Experiment,Both,1,Automatic,main,94,20260305-175350,global,local,750,H,S,E,E,H-E.png,E-S.png,hH,sS,mask-4.png,mask-4.png,h,1,1.292677299992647,h,0,1.13443490001373,0.05035679999855347,0.050817000010283664,0.09976459998870268,0.10174069998902269,0.7517646999913268
RSVPLG03,km,20260305-174431,1.0.2,20251113-095759,792,Experiment,Both,1,Automatic,main,95,20260305-175357,local,local,750,S,S,A,A,A-S.png,A-S.png,sS,sS,mask-2.png,mask-4.png,s,1,0.5125566000060644,s,1,0.2224634000158403,0.04867340001510456,0.048860999988391995,0.09943740000016987,0.09979239999665879,0.753277200012235
RSVPLG03,km,20260305-174431,1.0.2,20251113-095759,792,Experiment,Both,1,Automatic,main,96,20260305-175402,global,local,300,S,S,A,A,S-A.png,A-S.png,sS,sS,mask-4.png,mask-3.png,s,1,0.6689001000195276,h,0,0.10956250000162981,0.04971810002462007,0.04886489998898469,0.10077910000109114,0.10056349998922087,0.3004432000161614
RSVPLG03,km,20260305-174431,1.0.2,20251113-095759,792,Experiment,Both,1,Automatic,main,97,20260305-175406,global,global,750,H,H,E,E,H-E.png,H-E.png,hH,hH,mask-1.png,mask-2.png,h,1,0.751716500002658,h,1,0.22250820000772364,0.04882140000700019,0.04963179997866973,0.09976589999860153,0.10031369997886941,0.7516651000187267
RSVPLG03,km,20260305-174431,1.0.2,20251113-095759,792,Experiment,Both,1,Automatic,main,98,20260305-175412,local,local,750,S,S,E,E,E-S.png,E-S.png,sS,sS,mask-4.png,mask-3.png,s,1,0.6857675999926869,s,1,0.4288745999801904,0.04960819997359067,0.05084469998837449,0.09971239999867976,0.100804399990011,0.7509783999994397
RSVPLG03,km,20260305-174431,1.0.2,20251113-095759,792,Experiment,Both,1,Automatic,main,99,20260305-175417,global,global,300,S,S,E,A,S-E.png,S-A.png,sS,sS,mask-2.png,mask-4.png,s,1,0.4265155000030063,s,1,0.22053729998879135,0.04769109998596832,0.04964969999855384,0.10027659998741001,0.0992610999965109,0.3000916999881156
RSVPLG03,km,20260305-174431,1.0.2,20251113-095759,792,Experiment,Both,1,Automatic,main,100,20260305-175422,global,global,300,S,S,E,A,S-E.png,S-A.png,sS,sS,mask-4.png,mask-1.png,s,1,0.43030460001318716,s,1,0.22164519998477772,0.05049429999780841,0.04980460001388565,0.1005853999813553,0.10173920000670478,0.3009513999859337
