exp,exp_initials,runtime,ver,modtime,sub,blocktype,targets,cuetype,mode,trialtype,trial,trialtime,t1_level,t2_level,t2_lag,t1,t2,distractor1,distractor2,stimfile1,stimfile2,t1_corr,t2_corr,maskfile1,maskfile2,t1_resp,t1_acc,t1_rt,t2_resp,t2_acc,t2_rt,t1_dur,t2_dur,t1mask_soa,t2mask_soa,t1t2_soa
RSVPLG03,sg,20260420-154134,1.0.2,20251105-084826,827,Introduction,T1,1,Automatic,main,1,20260420-154227,local,global,750,S,S,E,A,E-S.png,S-A.png,sS,sS,mask-3.png,mask-3.png,s,1,4.164657700108364,none,-5,0,0.09043330000713468,0.09737360011786222,0.19192880019545555,0.20028130011633039,0.742403700016439
RSVPLG03,sg,20260420-154134,1.0.2,20251105-084826,827,Introduction,T1,1,Automatic,main,2,20260420-154235,global,local,750,H,H,A,E,H-A.png,E-H.png,hH,hH,mask-3.png,mask-3.png,h,1,1.0372013999149203,none,-5,0,0.09752850001677871,0.09667669981718063,0.2004147998522967,0.19894519983790815,0.7493612000253052
RSVPLG03,sg,20260420-154134,1.0.2,20251105-084826,827,Introduction,T1,1,Automatic,main,3,20260420-154241,local,global,750,H,H,E,A,E-H.png,H-A.png,hH,hH,mask-2.png,mask-2.png,h,1,0.8785717999562621,none,-5,0,0.09753129980526865,0.09674780000932515,0.19957369985058904,0.19969419995322824,0.7494413999374956
RSVPLG03,sg,20260420-154134,1.0.2,20251105-084826,827,Introduction,T1,1,Automatic,main,4,20260420-154246,global,local,750,H,S,E,A,H-E.png,A-S.png,hH,sS,mask-1.png,mask-4.png,h,1,0.7768569998443127,none,-5,0,0.0975486000534147,0.09755880013108253,0.2006226999219507,0.1996471001766622,0.7496471998747438
RSVPLG03,sg,20260420-154134,1.0.2,20251105-084826,827,Introduction,T1,1,Automatic,main,5,20260420-154250,local,local,750,H,H,A,A,A-H.png,A-H.png,hH,hH,mask-1.png,mask-4.png,h,1,0.6091903999913484,none,-5,0,0.09584230021573603,0.09771969984285533,0.19809950003400445,0.19976579979993403,0.7480555002111942
RSVPLG03,sg,20260420-154134,1.0.2,20251105-084826,827,Introduction,T1,1,Automatic,main,6,20260420-154255,global,local,750,H,H,E,A,H-E.png,A-H.png,hH,hH,mask-1.png,mask-4.png,h,1,0.645968500059098,none,-5,0,0.09736060001887381,0.09764760010875762,0.19844920001924038,0.19973810017108917,0.7479251998011023
RSVPLG03,sg,20260420-154134,1.0.2,20251105-084826,827,Introduction,T1,1,Automatic,main,7,20260420-154300,global,local,750,S,H,E,A,S-E.png,A-H.png,sS,hH,mask-1.png,mask-4.png,s,1,1.7175387998577207,none,-5,0,0.09756630007177591,0.09853109996765852,0.20047749998047948,0.19970809994265437,0.7484124999027699
RSVPLG03,sg,20260420-154134,1.0.2,20251105-084826,827,Introduction,T1,1,Automatic,main,8,20260420-154306,global,global,750,S,S,E,A,S-E.png,S-A.png,sS,sS,mask-4.png,mask-2.png,s,1,0.9302527999971062,none,-5,0,0.09765519993379712,0.09743739990517497,0.2005706001073122,0.19886750006116927,0.7500328000169247
RSVPLG03,sg,20260420-154134,1.0.2,20251105-084826,827,Introduction,T1,1,Automatic,main,9,20260420-154311,local,local,750,H,H,E,E,E-H.png,E-H.png,hH,hH,mask-3.png,mask-3.png,h,1,0.6090921000577509,none,-5,0,0.09744329983368516,0.09772700001485646,0.1990962999407202,0.19981230003759265,0.7482616999186575
RSVPLG03,sg,20260420-154134,1.0.2,20251105-084826,827,Introduction,T1,1,Automatic,main,10,20260420-154316,local,local,750,H,H,A,E,A-H.png,E-H.png,hH,hH,mask-2.png,mask-4.png,h,1,0.4832454000134021,none,-5,0,0.0978459999896586,0.09556120005436242,0.19936310010962188,0.1977127999998629,0.7504682999569923
RSVPLG03,sg,20260420-154134,1.0.2,20251105-084826,827,Introduction,T1,1,Automatic,main,11,20260420-154320,local,global,750,H,S,A,A,A-H.png,S-A.png,hH,sS,mask-1.png,mask-4.png,h,1,1.308162699919194,none,-5,0,0.09783459990285337,0.09582319995388389,0.19970649993047118,0.19969870010390878,0.7500835999380797
RSVPLG03,sg,20260420-154134,1.0.2,20251105-084826,827,Introduction,T1,1,Automatic,main,12,20260420-154326,local,global,750,H,S,A,E,A-H.png,S-E.png,hH,sS,mask-4.png,mask-3.png,h,1,0.705266600009054,none,-5,0,0.09724949998781085,0.0958366000559181,0.19922329997643828,0.19940720009617507,0.7500294998753816
RSVPLG03,sg,20260420-154134,1.0.2,20251105-084826,827,Introduction,T1,1,Automatic,main,13,20260420-154331,global,global,750,H,H,A,A,H-A.png,H-A.png,hH,hH,mask-4.png,mask-3.png,h,1,0.5126849999651313,none,-5,0,0.09654409997165203,0.09708219999447465,0.19962109997868538,0.19999260012991726,0.7475975998677313
RSVPLG03,sg,20260420-154134,1.0.2,20251105-084826,827,Introduction,T1,1,Automatic,main,14,20260420-154335,global,global,750,S,H,A,A,S-A.png,H-A.png,sS,hH,mask-1.png,mask-3.png,s,1,0.6776644999627024,none,-5,0,0.09664760017767549,0.0977059998549521,0.1987297001760453,0.19998779986053705,0.7489057001657784
RSVPLG03,sg,20260420-154134,1.0.2,20251105-084826,827,Introduction,T1,1,Automatic,main,15,20260420-154340,global,global,750,H,S,A,A,H-A.png,S-A.png,hH,sS,mask-2.png,mask-2.png,h,1,0.5665634998586029,none,-5,0,0.0956020001322031,0.09856740012764931,0.19937649997882545,0.20063330000266433,0.746991700027138
RSVPLG03,sg,20260420-154134,1.0.2,20251105-084826,827,Introduction,T1,1,Automatic,main,16,20260420-154345,local,local,750,H,S,A,E,A-H.png,E-S.png,hH,sS,mask-2.png,mask-4.png,h,1,0.2654740000143647,none,-5,0,0.097538499860093,0.09751600003801286,0.19960839999839664,0.19983460009098053,0.7494840999133885
RSVPLG03,sg,20260420-154400,1.0.2,20251105-084826,827,Practice,T1,1,Automatic,main,1,20260420-154423,global,global,750,S,S,A,A,S-A.png,S-A.png,sS,sS,mask-4.png,mask-2.png,s,1,0.7113910999614745,none,-5,0,0.039855799870565534,0.04784689983353019,0.09194559999741614,0.10015199985355139,0.7409508000127971
RSVPLG03,sg,20260420-154400,1.0.2,20251105-084826,827,Practice,T1,1,Automatic,main,2,20260420-154428,global,local,300,H,S,A,A,H-A.png,A-S.png,hH,sS,mask-3.png,mask-4.png,h,1,0.5733648000750691,none,-5,0,0.04775350005365908,0.04875690001063049,0.10130649991333485,0.09979339991696179,0.29983210004866123
RSVPLG03,sg,20260420-154400,1.0.2,20251105-084826,827,Practice,T1,1,Automatic,main,3,20260420-154432,local,local,300,H,S,E,A,E-H.png,A-S.png,hH,sS,mask-3.png,mask-1.png,h,1,0.5364988998044282,none,-5,0,0.04689079988747835,0.0485406001098454,0.09950540005229414,0.09992470010183752,0.29812249983660877
RSVPLG03,sg,20260420-154400,1.0.2,20251105-084826,827,Practice,T1,1,Automatic,main,4,20260420-154436,global,global,750,H,H,E,A,H-E.png,H-A.png,hH,hH,mask-3.png,mask-2.png,h,1,0.49464210006408393,none,-5,0,0.04768039984628558,0.048822199925780296,0.10017669992521405,0.10105589986778796,0.748371500056237
RSVPLG03,sg,20260420-154400,1.0.2,20251105-084826,827,Practice,T1,1,Automatic,main,5,20260420-154440,local,local,300,S,S,A,E,A-S.png,E-S.png,sS,sS,mask-1.png,mask-3.png,s,1,0.6600240999832749,none,-5,0,0.0458080000244081,0.04566009994596243,0.09995980001986027,0.09911129996180534,0.2998788000550121
RSVPLG03,sg,20260420-154400,1.0.2,20251105-084826,827,Practice,T1,1,Automatic,main,6,20260420-154445,global,global,300,H,H,A,E,H-A.png,H-E.png,hH,hH,mask-1.png,mask-1.png,h,1,0.4633670998737216,none,-5,0,0.047653499990701675,0.0476736999116838,0.0987452999688685,0.09990229993127286,0.2984229000285268
RSVPLG03,sg,20260420-154400,1.0.2,20251105-084826,827,Practice,T1,1,Automatic,main,7,20260420-154449,global,local,750,S,S,E,E,S-E.png,E-S.png,sS,sS,mask-2.png,mask-2.png,s,1,0.2715513000730425,none,-5,0,0.047554099932312965,0.04683470004238188,0.09961139992810786,0.10107109998352826,0.7487649000249803
RSVPLG03,sg,20260420-154400,1.0.2,20251105-084826,827,Practice,T1,1,Automatic,main,8,20260420-154453,local,global,750,S,S,A,A,A-S.png,S-A.png,sS,sS,mask-3.png,mask-4.png,s,1,0.5521150000859052,none,-5,0,0.04669109988026321,0.04768509999848902,0.10006699990481138,0.09893759991973639,0.747967999894172
RSVPLG03,sg,20260420-154400,1.0.2,20251105-084826,827,Practice,T1,1,Automatic,main,9,20260420-154458,global,local,750,H,H,A,E,H-A.png,E-H.png,hH,hH,mask-1.png,mask-1.png,h,1,0.428347900044173,none,-5,0,0.04768259986303747,0.046570400008931756,0.09997250000014901,0.09992519998922944,0.7479695999063551
RSVPLG03,sg,20260420-154400,1.0.2,20251105-084826,827,Practice,T1,1,Automatic,main,10,20260420-154502,global,local,300,S,H,A,A,S-A.png,A-H.png,sS,hH,mask-2.png,mask-2.png,s,1,0.33214220008812845,none,-5,0,0.04838240006938577,0.04737990000285208,0.10129790008068085,0.09917759988456964,0.30059360014274716
RSVPLG03,sg,20260420-154400,1.0.2,20251105-084826,827,Practice,T1,1,Automatic,main,11,20260420-154506,local,global,300,S,S,E,E,E-S.png,S-E.png,sS,sS,mask-1.png,mask-2.png,s,1,0.3198218001052737,none,-5,0,0.04760379996150732,0.04687680001370609,0.09975659986957908,0.09918190003372729,0.2994321999140084
RSVPLG03,sg,20260420-154400,1.0.2,20251105-084826,827,Practice,T1,1,Automatic,main,12,20260420-154510,local,global,750,S,S,E,A,E-S.png,S-A.png,sS,sS,mask-4.png,mask-4.png,s,1,0.8382331000175327,none,-5,0,0.04755529994145036,0.045736199943348765,0.10041149985045195,0.09794429992325604,0.7497694999910891
RSVPLG03,sg,20260420-154400,1.0.2,20251105-084826,827,Practice,T1,1,Automatic,main,13,20260420-154515,local,local,750,S,H,A,E,A-S.png,E-H.png,sS,hH,mask-2.png,mask-1.png,s,1,0.5773042999207973,none,-5,0,0.04672209988348186,0.0477551999501884,0.09901939984411001,0.09960409998893738,0.746989999897778
RSVPLG03,sg,20260420-154400,1.0.2,20251105-084826,827,Practice,T1,1,Automatic,main,14,20260420-154519,global,global,300,S,S,E,E,S-E.png,S-E.png,sS,sS,mask-2.png,mask-3.png,s,1,0.4717357000336051,none,-5,0,0.04696890013292432,0.04658809979446232,0.09881360013969243,0.0997452000156045,0.2998505001887679
RSVPLG03,sg,20260420-154400,1.0.2,20251105-084826,827,Practice,T1,1,Automatic,main,15,20260420-154523,local,local,750,S,S,E,A,E-S.png,A-S.png,sS,sS,mask-4.png,mask-2.png,s,1,0.10045190015807748,none,-5,0,0.04769450007006526,0.04986899998039007,0.0981995000038296,0.1021375001873821,0.746147699886933
RSVPLG03,sg,20260420-154400,1.0.2,20251105-084826,827,Practice,T1,1,Automatic,main,16,20260420-154528,local,global,300,H,H,E,E,E-H.png,H-E.png,hH,hH,mask-3.png,mask-2.png,h,1,0.5420561998616904,none,-5,0,0.04737859987653792,0.04593380005098879,0.10060249990783632,0.09841590002179146,0.30022779991850257
RSVPLG03,sg,20260420-154637,1.0.2,20251105-084826,827,Introduction,Both,1,Automatic,main,1,20260420-154659,local,global,750,H,S,A,A,A-H.png,S-A.png,hH,sS,mask-4.png,mask-2.png,h,1,0.9385517998598516,s,1,3.4655677000992,0.0900560999289155,0.09753710008226335,0.19274379988200963,0.20191940013319254,0.7429283999372274
RSVPLG03,sg,20260420-154637,1.0.2,20251105-084826,827,Introduction,Both,1,Automatic,main,2,20260420-154708,global,global,750,H,H,A,A,H-A.png,H-A.png,hH,hH,mask-1.png,mask-3.png,h,1,1.2451158999465406,h,1,0.47126190015114844,0.09858039999380708,0.09755280008539557,0.20165599999018013,0.19964330014772713,0.7513664998114109
RSVPLG03,sg,20260420-154637,1.0.2,20251105-084826,827,Introduction,Both,1,Automatic,main,3,20260420-154714,global,local,750,H,H,A,E,H-A.png,E-H.png,hH,hH,mask-1.png,mask-4.png,h,1,0.8439901999663562,h,1,0.4065181000623852,0.09866449981927872,0.09755649999715388,0.20173759991303086,0.19930870016105473,0.7516883998177946
RSVPLG03,sg,20260420-154637,1.0.2,20251105-084826,827,Introduction,Both,1,Automatic,main,4,20260420-154720,local,local,750,S,H,E,E,E-S.png,E-H.png,sS,hH,mask-1.png,mask-4.png,s,1,1.0565865999087691,h,1,0.49614789988845587,0.0956144998781383,0.09739119978621602,0.1985492999665439,0.20029659988358617,0.7493384000845253
RSVPLG03,sg,20260420-154637,1.0.2,20251105-084826,827,Introduction,Both,1,Automatic,main,5,20260420-154725,local,global,750,H,H,A,A,A-H.png,H-A.png,hH,hH,mask-4.png,mask-2.png,h,1,0.629093199968338,h,1,0.39122230000793934,0.09855549992062151,0.0974532999098301,0.20061469986103475,0.2016213999595493,0.7507803000044078
RSVPLG03,sg,20260420-154637,1.0.2,20251105-084826,827,Introduction,Both,1,Automatic,main,6,20260420-154731,global,global,750,S,S,E,A,S-E.png,S-A.png,sS,sS,mask-2.png,mask-4.png,s,1,0.4350922000594437,s,1,0.2980849000159651,0.09653769992291927,0.09854739997535944,0.19962269999086857,0.20063370000571012,0.7489124999847263
RSVPLG03,sg,20260420-154637,1.0.2,20251105-084826,827,Introduction,Both,1,Automatic,main,7,20260420-154736,global,local,750,H,H,E,E,H-E.png,E-H.png,hH,hH,mask-2.png,mask-1.png,h,1,0.6495544000063092,h,1,0.5059374999254942,0.09747810009866953,0.09677949990145862,0.1994402001146227,0.19994829990901053,0.7502152000088245
RSVPLG03,sg,20260420-154637,1.0.2,20251105-084826,827,Introduction,Both,1,Automatic,main,8,20260420-154741,local,local,750,S,S,E,A,E-S.png,A-S.png,sS,sS,mask-4.png,mask-3.png,s,1,0.43007200001738966,s,1,0.24815630004741251,0.09738590009510517,0.09839459997601807,0.200221800012514,0.1985033000819385,0.7502673000562936
RSVPLG03,sg,20260420-154637,1.0.2,20251105-084826,827,Introduction,Both,1,Automatic,main,9,20260420-154746,global,global,750,H,S,E,E,H-E.png,S-E.png,hH,sS,mask-2.png,mask-3.png,h,1,0.4506238999310881,s,1,0.25967620010487735,0.09742780006490648,0.09664579993113875,0.19926859997212887,0.20177129982039332,0.7498761001043022
RSVPLG03,sg,20260420-154637,1.0.2,20251105-084826,827,Introduction,Both,1,Automatic,main,10,20260420-154751,local,global,750,H,S,A,A,A-H.png,S-A.png,hH,sS,mask-2.png,mask-1.png,h,1,0.846337600145489,s,1,0.2340143001638353,0.09639979992061853,0.09738109982572496,0.19962450000457466,0.19944219989702106,0.7506270001176745
RSVPLG03,sg,20260420-154637,1.0.2,20251105-084826,827,Introduction,Both,1,Automatic,main,11,20260420-154756,global,local,750,S,S,E,A,S-E.png,A-S.png,sS,sS,mask-1.png,mask-2.png,s,1,0.6716493000276387,h,0,0.3605454000644386,0.09825849998742342,0.09614689997397363,0.20096539985388517,0.19885269994847476,0.7519461000338197
RSVPLG03,sg,20260420-154637,1.0.2,20251105-084826,827,Introduction,Both,1,Automatic,main,12,20260420-154802,local,local,750,H,H,E,E,E-H.png,E-H.png,hH,hH,mask-3.png,mask-1.png,h,1,0.5434298999607563,h,1,0.2178128999657929,0.09627790004014969,0.09837929997593164,0.20037239999510348,0.20143059990368783,0.7492116999346763
RSVPLG03,sg,20260420-154637,1.0.2,20251105-084826,827,Introduction,Both,1,Automatic,main,13,20260420-154807,local,global,750,H,S,E,A,E-H.png,S-A.png,hH,sS,mask-3.png,mask-4.png,h,1,0.4119750000536442,s,1,0.2319875000976026,0.09967599995434284,0.09755579987540841,0.20238259993493557,0.199633700074628,0.7526791000273079
RSVPLG03,sg,20260420-154637,1.0.2,20251105-084826,827,Introduction,Both,1,Automatic,main,14,20260420-154812,global,global,750,S,H,E,E,S-E.png,H-E.png,sS,hH,mask-3.png,mask-4.png,s,1,0.3022307001519948,h,1,0.1350839000660926,0.09721409995108843,0.09845930011942983,0.19927600002847612,0.20029690000228584,0.7495978998485953
RSVPLG03,sg,20260420-154637,1.0.2,20251105-084826,827,Introduction,Both,1,Automatic,main,15,20260420-154816,global,local,750,S,S,A,A,S-A.png,A-S.png,sS,sS,mask-2.png,mask-3.png,s,1,0.3609542001504451,h,0,0.08866290003061295,0.0974051000084728,0.09739709994755685,0.20027539995498955,0.20032560010440648,0.7494220999069512
RSVPLG03,sg,20260420-154637,1.0.2,20251105-084826,827,Introduction,Both,1,Automatic,main,16,20260420-154821,local,local,750,S,H,E,E,E-S.png,E-H.png,sS,hH,mask-4.png,mask-2.png,s,1,0.4422337000723928,h,1,0.26170140015892684,0.09742369991727173,0.09739429992623627,0.20029890001751482,0.1993721998296678,0.750537300016731
RSVPLG03,sg,20260420-154839,1.0.2,20251105-084826,827,Practice,Both,1,Automatic,main,1,20260420-154904,local,local,750,S,S,A,E,A-S.png,E-S.png,sS,sS,mask-3.png,mask-1.png,s,1,0.6575031999964267,s,1,0.17374360002577305,0.04203610005788505,0.047660799929872155,0.09497580002062023,0.09942210000008345,0.7430275999940932
RSVPLG03,sg,20260420-154839,1.0.2,20251105-084826,827,Practice,Both,1,Automatic,main,2,20260420-154909,local,global,750,H,S,A,A,A-H.png,S-A.png,hH,sS,mask-4.png,mask-1.png,h,1,1.0241366000846028,h,0,0.36009390000253916,0.04799139988608658,0.04871159978210926,0.10037770005874336,0.09976679994724691,0.7488476000726223
RSVPLG03,sg,20260420-154839,1.0.2,20251105-084826,827,Practice,Both,1,Automatic,main,3,20260420-154914,local,global,300,H,H,A,A,A-H.png,H-A.png,hH,hH,mask-2.png,mask-1.png,h,1,1.7230597999878228,h,1,0.3531943999696523,0.04830939997918904,0.047781100030988455,0.10031930007971823,0.09956750017590821,0.30012509995140135
RSVPLG03,sg,20260420-154839,1.0.2,20251105-084826,827,Practice,Both,1,Automatic,main,4,20260420-154920,global,local,750,S,S,A,A,S-A.png,A-S.png,sS,sS,mask-4.png,mask-3.png,s,1,0.6123297999147326,h,0,0.21614659996703267,0.04771049995906651,0.04671690007671714,0.09894369984976947,0.09891800000332296,0.7496789998840541
RSVPLG03,sg,20260420-154839,1.0.2,20251105-084826,827,Practice,Both,1,Automatic,main,5,20260420-154925,global,global,750,S,H,A,A,S-A.png,H-A.png,sS,hH,mask-4.png,mask-3.png,s,1,0.4441007000859827,h,1,0.18602910009212792,0.04715060000307858,0.04652650002390146,0.09809880005195737,0.09961179993115366,0.7484152000397444
RSVPLG03,sg,20260420-154839,1.0.2,20251105-084826,827,Practice,Both,1,Automatic,main,6,20260420-154930,global,local,300,S,S,A,E,S-A.png,E-S.png,sS,sS,mask-4.png,mask-3.png,s,1,0.588872899999842,s,1,0.19904339988715947,0.04739039996638894,0.04741110000759363,0.100289799971506,0.10025109979324043,0.2996684000827372
RSVPLG03,sg,20260420-154839,1.0.2,20251105-084826,827,Practice,Both,1,Automatic,main,7,20260420-154934,local,local,750,S,H,A,A,A-S.png,A-H.png,sS,hH,mask-3.png,mask-3.png,s,1,0.4346734001301229,h,1,0.15213850000873208,0.049078499898314476,0.047235900070518255,0.10011569992639124,0.09964250004850328,0.749141399981454
RSVPLG03,sg,20260420-154839,1.0.2,20251105-084826,827,Practice,Both,1,Automatic,main,8,20260420-154939,local,local,300,S,H,A,A,A-S.png,A-H.png,sS,hH,mask-4.png,mask-3.png,s,1,0.3916223000269383,h,1,0.13990180008113384,0.048669799929484725,0.04705829988233745,0.09968780004419386,0.10004929988645017,0.2991702000144869
RSVPLG03,sg,20260420-154839,1.0.2,20251105-084826,827,Practice,Both,1,Automatic,main,9,20260420-154943,local,global,750,H,S,A,A,A-H.png,S-A.png,hH,sS,mask-2.png,mask-1.png,h,1,0.6010727998800576,h,0,1.3566745999269187,0.047577899880707264,0.04761939984746277,0.09866630006581545,0.10066900006495416,0.7480631000362337
RSVPLG03,sg,20260420-154839,1.0.2,20251105-084826,827,Practice,Both,1,Automatic,main,10,20260420-154949,local,global,300,S,H,E,E,E-S.png,H-E.png,sS,hH,mask-4.png,mask-2.png,s,1,1.8648805001284927,h,1,0.3764290998224169,0.04769180016592145,0.04668719996698201,0.09989860001951456,0.0998970998916775,0.30063440022058785
RSVPLG03,sg,20260420-154839,1.0.2,20251105-084826,827,Practice,Both,1,Automatic,main,11,20260420-154955,global,local,300,S,H,A,A,S-A.png,A-H.png,sS,hH,mask-4.png,mask-3.png,s,1,0.45207379991188645,h,1,0.19739019987173378,0.049792899983003736,0.048452300019562244,0.10093510011211038,0.10057520004920661,0.30075079994276166
RSVPLG03,sg,20260420-154839,1.0.2,20251105-084826,827,Practice,Both,1,Automatic,main,12,20260420-154959,global,global,300,S,H,E,A,S-E.png,H-A.png,sS,hH,mask-2.png,mask-1.png,s,1,0.2617227998562157,h,1,0.15557070006616414,0.047558899968862534,0.047860699938610196,0.10074590006843209,0.10031830007210374,0.2989688999950886
RSVPLG03,sg,20260420-154839,1.0.2,20251105-084826,827,Practice,Both,1,Automatic,main,13,20260420-155003,local,local,300,S,S,E,E,E-S.png,E-S.png,sS,sS,mask-2.png,mask-4.png,s,1,0.31816980009898543,s,1,0.2944376999512315,0.04748310009017587,0.04756240011192858,0.10054720006883144,0.10137390019372106,0.29918189998716116
RSVPLG03,sg,20260420-154839,1.0.2,20251105-084826,827,Practice,Both,1,Automatic,main,14,20260420-155008,global,local,750,H,S,A,E,H-A.png,E-S.png,hH,sS,mask-4.png,mask-2.png,h,1,0.48831210006028414,s,1,0.15788420010358095,0.04753999994136393,0.04654420004226267,0.10062179993838072,0.09856699989177287,0.7504962999373674
RSVPLG03,sg,20260420-154839,1.0.2,20251105-084826,827,Practice,Both,1,Automatic,main,15,20260420-155013,global,global,750,S,S,E,A,S-E.png,S-A.png,sS,sS,mask-2.png,mask-1.png,s,1,0.3378580000717193,s,1,0.12191869993694127,0.045512699987739325,0.04750180011615157,0.09854869986884296,0.09933670004829764,0.7477662998717278
RSVPLG03,sg,20260420-154839,1.0.2,20251105-084826,827,Practice,Both,1,Automatic,main,16,20260420-155017,global,global,300,H,H,A,A,H-A.png,H-A.png,hH,hH,mask-3.png,mask-3.png,h,1,0.3621749000158161,h,1,0.11547329998575151,0.045613199938088655,0.04750060010701418,0.09973779995925725,0.10055490001104772,0.2980285999365151
RSVPLG03,sg,20260420-155248,1.0.2,20251105-084826,827,Experiment,Both,1,Automatic,warmup,1,20260420-155313,local,local,750,H,H,A,A,A-H.png,A-H.png,hH,hH,mask-3.png,mask-3.png,h,1,0.5941359999123961,h,1,0.20369450002908707,0.046536900103092194,0.047668599989265203,0.10049350000917912,0.09987259982153773,0.7489973001647741
RSVPLG03,sg,20260420-155248,1.0.2,20251105-084826,827,Experiment,Both,1,Automatic,warmup,2,20260420-155318,global,local,750,S,H,A,E,S-A.png,E-H.png,sS,hH,mask-3.png,mask-3.png,s,1,0.7705500998999923,h,1,1.0728698000311852,0.04709560004994273,0.047532200114801526,0.09810250019654632,0.09956280002370477,0.7480748000089079
RSVPLG03,sg,20260420-155248,1.0.2,20251105-084826,827,Experiment,Both,1,Automatic,warmup,3,20260420-155324,global,local,300,H,S,E,E,H-E.png,E-S.png,hH,sS,mask-1.png,mask-3.png,h,1,0.49958299985155463,h,0,0.090281100012362,0.047589399851858616,0.04722599987871945,0.09873209986835718,0.10025959997437894,0.29804249992594123
RSVPLG03,sg,20260420-155248,1.0.2,20251105-084826,827,Experiment,Both,1,Automatic,warmup,4,20260420-155328,local,global,750,S,S,E,E,E-S.png,S-E.png,sS,sS,mask-1.png,mask-2.png,s,1,0.6264070998877287,s,1,0.12275010021403432,0.046714500058442354,0.04771240008994937,0.10005000000819564,0.09990400006063282,0.7482547000981867
RSVPLG03,sg,20260420-155248,1.0.2,20251105-084826,827,Experiment,Both,1,Automatic,main,5,20260420-155333,local,global,300,H,S,E,E,E-H.png,S-E.png,hH,sS,mask-2.png,mask-4.png,h,1,1.7332520000636578,s,1,0.05995430005714297,0.047047700034454465,0.04729759995825589,0.10004280018620193,0.10020619980059564,0.29980200016871095
RSVPLG03,sg,20260420-155248,1.0.2,20251105-084826,827,Experiment,Both,1,Automatic,main,6,20260420-155339,local,global,750,S,H,A,A,A-S.png,H-A.png,sS,hH,mask-3.png,mask-3.png,h,0,0.4004846001043916,h,1,0.11912459996528924,0.045690299943089485,0.04767689993605018,0.09992369986139238,0.10087780002504587,0.7477390998974442
RSVPLG03,sg,20260420-155248,1.0.2,20251105-084826,827,Experiment,Both,1,Automatic,main,7,20260420-155343,local,global,300,H,S,A,A,A-H.png,S-A.png,hH,sS,mask-3.png,mask-1.png,h,1,0.3754929001443088,h,0,0.11203980003483593,0.04667260008864105,0.04766070004552603,0.09983490011654794,0.10054669994860888,0.29925930011086166
RSVPLG03,sg,20260420-155248,1.0.2,20251105-084826,827,Experiment,Both,1,Automatic,main,8,20260420-155347,local,global,300,H,S,E,A,E-H.png,S-A.png,hH,sS,mask-3.png,mask-3.png,h,1,0.4559997997712344,s,1,0.11706809978932142,0.048527299892157316,0.04652639990672469,0.1000397999305278,0.10046979994513094,0.3004302999470383
RSVPLG03,sg,20260420-155248,1.0.2,20251105-084826,827,Experiment,Both,1,Automatic,main,9,20260420-155352,global,global,750,S,S,E,E,S-E.png,S-E.png,sS,sS,mask-1.png,mask-4.png,s,1,0.3540686999913305,s,1,0.2042190998326987,0.047696599969640374,0.0465635999571532,0.1008977999445051,0.10058890003710985,0.7495309000369161
RSVPLG03,sg,20260420-155248,1.0.2,20251105-084826,827,Experiment,Both,1,Automatic,main,10,20260420-155356,local,local,300,H,S,E,E,E-H.png,E-S.png,hH,sS,mask-2.png,mask-1.png,h,1,1.3059048999566585,s,1,0.09212199994362891,0.04956539999693632,0.04751940001733601,0.10058040008880198,0.09956610016524792,0.30094079999253154
RSVPLG03,sg,20260420-155248,1.0.2,20251105-084826,827,Experiment,Both,1,Automatic,main,11,20260420-155401,local,global,750,S,S,A,E,A-S.png,S-E.png,sS,sS,mask-3.png,mask-3.png,s,1,0.6837602998130023,h,0,0.07614600006490946,0.04740660008974373,0.046573600033298135,0.09862730000168085,0.09878090000711381,0.7491606001276523
RSVPLG03,sg,20260420-155248,1.0.2,20251105-084826,827,Experiment,Both,1,Automatic,main,12,20260420-155406,local,global,750,S,H,A,A,A-S.png,H-A.png,sS,hH,mask-2.png,mask-1.png,s,1,1.2531121000647545,h,1,0.403417999856174,0.04779780004173517,0.04680450004525483,0.09993909997865558,0.09981970000080764,0.750192399835214
RSVPLG03,sg,20260420-155248,1.0.2,20251105-084826,827,Experiment,Both,1,Automatic,main,13,20260420-155412,global,global,300,H,S,A,E,H-A.png,S-E.png,hH,sS,mask-3.png,mask-1.png,h,1,0.44341700011864305,h,0,0.14106850000098348,0.047757399966940284,0.047536500031128526,0.10079320007935166,0.10081259999424219,0.2994073999579996
RSVPLG03,sg,20260420-155248,1.0.2,20251105-084826,827,Experiment,Both,1,Automatic,main,14,20260420-155416,local,local,300,H,H,E,A,E-H.png,A-H.png,hH,hH,mask-1.png,mask-3.png,h,1,0.7313015998806804,h,1,0.358965199906379,0.04769190005026758,0.04670160007663071,0.09998869989067316,0.09992239996790886,0.29977809987030923
RSVPLG03,sg,20260420-155248,1.0.2,20251105-084826,827,Experiment,Both,1,Automatic,main,15,20260420-155421,local,global,300,H,H,E,E,E-H.png,H-E.png,hH,hH,mask-1.png,mask-4.png,h,1,0.46579449996352196,h,1,0.2105374000966549,0.04770019999705255,0.04757180018350482,0.09903770009987056,0.09994320012629032,0.29948089993558824
RSVPLG03,sg,20260420-155248,1.0.2,20251105-084826,827,Experiment,Both,1,Automatic,main,16,20260420-155425,global,local,750,S,H,E,E,S-E.png,E-H.png,sS,hH,mask-3.png,mask-3.png,s,1,0.4319924998562783,s,0,0.47897910000756383,0.04705759999342263,0.04771319986321032,0.09924789983779192,0.09993009991012514,0.7488438999280334
RSVPLG03,sg,20260420-155248,1.0.2,20251105-084826,827,Experiment,Both,1,Automatic,main,17,20260420-155430,global,global,300,H,S,A,E,H-A.png,S-E.png,hH,sS,mask-4.png,mask-3.png,h,1,0.32579519995488226,s,1,0.02760379994288087,0.04750670003704727,0.04571769991889596,0.09971490013413131,0.09816240007057786,0.3007732001133263
RSVPLG03,sg,20260420-155248,1.0.2,20251105-084826,827,Experiment,Both,1,Automatic,main,18,20260420-155434,local,local,750,H,H,E,E,E-H.png,E-H.png,hH,hH,mask-1.png,mask-2.png,h,1,0.5139685000758618,h,1,0.11752490000799298,0.047380900010466576,0.04747370001859963,0.09936830005608499,0.09961799997836351,0.7491905000060797
RSVPLG03,sg,20260420-155248,1.0.2,20251105-084826,827,Experiment,Both,1,Automatic,main,19,20260420-155439,global,global,750,H,S,A,A,H-A.png,S-A.png,hH,sS,mask-3.png,mask-3.png,h,1,0.23218070017173886,s,1,0.37613130011595786,0.04766759998165071,0.04768730001524091,0.09891900001093745,0.09997200011275709,0.7482127998955548
RSVPLG03,sg,20260420-155248,1.0.2,20251105-084826,827,Experiment,Both,1,Automatic,main,20,20260420-155444,local,local,750,S,S,A,A,A-S.png,A-S.png,sS,sS,mask-3.png,mask-3.png,s,1,0.409157499903813,s,1,0.10658520017750561,0.04677229980006814,0.046738200122490525,0.10028089978732169,0.09894779999740422,0.748907599831
RSVPLG03,sg,20260420-155248,1.0.2,20251105-084826,827,Experiment,Both,1,Automatic,main,21,20260420-155448,local,local,300,S,H,A,E,A-S.png,E-H.png,sS,hH,mask-4.png,mask-1.png,s,1,0.3824779000133276,h,1,0.10390229988843203,0.04769839998334646,0.047704100143164396,0.0999269001185894,0.10010000015608966,0.2996090999804437
RSVPLG03,sg,20260420-155248,1.0.2,20251105-084826,827,Experiment,Both,1,Automatic,main,22,20260420-155452,global,global,750,H,H,A,A,H-A.png,H-A.png,hH,hH,mask-1.png,mask-4.png,h,1,0.22180410008877516,h,1,0.0712514000479132,0.047366200014948845,0.047701000003144145,0.10022790008224547,0.09990500006824732,0.7502943999134004
RSVPLG03,sg,20260420-155248,1.0.2,20251105-084826,827,Experiment,Both,1,Automatic,main,23,20260420-155457,local,local,300,S,S,E,A,E-S.png,A-S.png,sS,sS,mask-2.png,mask-2.png,s,1,0.24021239997819066,s,1,0.10363260004669428,0.0470036999322474,0.04671650007367134,0.09973829984664917,0.09787250007502735,0.30060549988411367
RSVPLG03,sg,20260420-155248,1.0.2,20251105-084826,827,Experiment,Both,1,Automatic,main,24,20260420-155501,global,global,300,H,S,E,E,H-E.png,S-E.png,hH,sS,mask-3.png,mask-1.png,h,1,0.3051855000667274,s,1,0.4494201000779867,0.04672389989718795,0.04902060003951192,0.09875710005871952,0.09996069991029799,0.2975906999781728
RSVPLG03,sg,20260420-155248,1.0.2,20251105-084826,827,Experiment,Both,1,Automatic,main,25,20260420-155505,global,local,750,S,S,E,E,S-E.png,E-S.png,sS,sS,mask-4.png,mask-3.png,s,1,0.207392199896276,s,1,0.06931230006739497,0.045707399956882,0.04965159995481372,0.10007659997791052,0.10175069980323315,0.7465415000915527
RSVPLG03,sg,20260420-155248,1.0.2,20251105-084826,827,Experiment,Both,1,Automatic,main,26,20260420-155605,local,global,750,H,H,E,A,E-H.png,H-A.png,hH,hH,mask-3.png,mask-4.png,h,1,0.45091850007884204,h,1,0.08290280005894601,0.04774469998665154,0.04660619981586933,0.10041470010764897,0.1000163999851793,0.7496908002067357
RSVPLG03,sg,20260420-155248,1.0.2,20251105-084826,827,Experiment,Both,1,Automatic,main,27,20260420-155610,local,local,300,S,H,E,A,E-S.png,A-H.png,sS,hH,mask-3.png,mask-4.png,s,1,0.35075080022215843,h,1,0.23631369997747242,0.04634419991634786,0.0474541001021862,0.09860399994067848,0.09969510021619499,0.298172399867326
RSVPLG03,sg,20260420-155248,1.0.2,20251105-084826,827,Experiment,Both,1,Automatic,main,28,20260420-155614,local,local,300,S,S,A,E,A-S.png,E-S.png,sS,sS,mask-1.png,mask-2.png,s,1,0.6133302999660373,s,1,0.8088279999792576,0.047568200156092644,0.04658009996637702,0.09957570000551641,0.0985877001658082,0.30085560004226863
RSVPLG03,sg,20260420-155248,1.0.2,20251105-084826,827,Experiment,Both,1,Automatic,main,29,20260420-155619,local,global,750,S,H,E,A,E-S.png,H-A.png,sS,hH,mask-2.png,mask-4.png,s,1,0.564752500038594,h,1,0.7129522999748588,0.047502300003543496,0.04661610000766814,0.09989880002103746,0.0998309999704361,0.7503847000189126
RSVPLG03,sg,20260420-155248,1.0.2,20251105-084826,827,Experiment,Both,1,Automatic,main,30,20260420-155624,local,global,300,S,S,E,E,E-S.png,S-E.png,sS,sS,mask-1.png,mask-4.png,s,1,0.3544228000100702,s,1,0.6992949999403208,0.04767749994061887,0.04672059998847544,0.09989430010318756,0.09819740010425448,0.3006726000458002
RSVPLG03,sg,20260420-155248,1.0.2,20251105-084826,827,Experiment,Both,1,Automatic,main,31,20260420-155629,local,local,750,S,S,E,A,E-S.png,A-S.png,sS,sS,mask-1.png,mask-4.png,s,1,0.3217397998087108,s,1,0.1733678998425603,0.047719699796289206,0.04768690001219511,0.09936369978822768,0.09992629988119006,0.7500396999530494
RSVPLG03,sg,20260420-155248,1.0.2,20251105-084826,827,Experiment,Both,1,Automatic,main,32,20260420-155634,local,global,750,S,S,E,E,E-S.png,S-E.png,sS,sS,mask-4.png,mask-1.png,s,1,0.5123793000821024,h,0,0.2883650998119265,0.047614899929612875,0.04769919998943806,0.10027679987251759,0.09822409995831549,0.750020399922505
RSVPLG03,sg,20260420-155248,1.0.2,20251105-084826,827,Experiment,Both,1,Automatic,main,33,20260420-155639,global,local,300,S,H,E,E,S-E.png,E-H.png,sS,hH,mask-4.png,mask-1.png,s,1,0.25324510014615953,h,1,0.023385200183838606,0.047680099960416555,0.04692919994704425,0.0998734999448061,0.10006820014677942,0.2995142999570817
RSVPLG03,sg,20260420-155248,1.0.2,20251105-084826,827,Experiment,Both,1,Automatic,main,34,20260420-155643,local,global,300,H,S,E,A,E-H.png,S-A.png,hH,sS,mask-3.png,mask-4.png,h,1,0.32282550004310906,s,1,0.07329599978402257,0.04757349984720349,0.04772529983893037,0.09977289987728,0.09992769989185035,0.2995724000502378
RSVPLG03,sg,20260420-155248,1.0.2,20251105-084826,827,Experiment,Both,1,Automatic,main,35,20260420-155647,local,global,750,H,S,E,E,E-H.png,S-E.png,hH,sS,mask-4.png,mask-1.png,h,1,0.4267802000977099,h,0,0.11421829997561872,0.04755060002207756,0.047618400072678924,0.10158360004425049,0.09960400010459125,0.7494957000017166
RSVPLG03,sg,20260420-155248,1.0.2,20251105-084826,827,Experiment,Both,1,Automatic,main,36,20260420-155651,local,global,750,S,H,A,A,A-S.png,H-A.png,sS,hH,mask-1.png,mask-4.png,s,1,0.3309505998622626,s,0,0.1383289999794215,0.046816699905321,0.0466255999635905,0.09902839991264045,0.10000379988923669,0.7497407000046223
RSVPLG03,sg,20260420-155248,1.0.2,20251105-084826,827,Experiment,Both,1,Automatic,main,37,20260420-155656,local,global,300,S,S,A,A,A-S.png,S-A.png,sS,sS,mask-4.png,mask-4.png,s,1,0.4047614000737667,h,0,0.03531229984946549,0.046597500098869205,0.04767220001667738,0.09880350017920136,0.10052910004742444,0.29890760011039674
RSVPLG03,sg,20260420-155248,1.0.2,20251105-084826,827,Experiment,Both,1,Automatic,main,38,20260420-155700,local,global,750,S,H,E,E,E-S.png,H-E.png,sS,hH,mask-4.png,mask-3.png,s,1,0.36302619986236095,h,1,0.12231110013090074,0.048659499967470765,0.04569669999182224,0.10001379996538162,0.10015750001184642,0.7504001001361758
RSVPLG03,sg,20260420-155248,1.0.2,20251105-084826,827,Experiment,Both,1,Automatic,main,39,20260420-155705,global,global,750,S,S,A,E,S-A.png,S-E.png,sS,sS,mask-4.png,mask-2.png,s,1,0.19951599999330938,s,1,0.07746790000237525,0.04756730003282428,0.046738200122490525,0.09988640015944839,0.10012690001167357,0.7492810999974608
RSVPLG03,sg,20260420-155248,1.0.2,20251105-084826,827,Experiment,Both,1,Automatic,main,40,20260420-155709,local,local,750,H,H,E,A,E-H.png,A-H.png,hH,hH,mask-1.png,mask-2.png,h,1,0.2617381999734789,h,1,0.12542499997653067,0.048811000073328614,0.047825600020587444,0.09939180011861026,0.10016830009408295,0.750304999994114
RSVPLG03,sg,20260420-155248,1.0.2,20251105-084826,827,Experiment,Both,1,Automatic,main,41,20260420-155713,global,global,750,S,H,E,E,S-E.png,H-E.png,sS,hH,mask-2.png,mask-4.png,s,1,0.18398509989492595,h,1,0.02749400003813207,0.04735380015335977,0.047546699875965714,0.10039900010451674,0.10158469993621111,0.7485830001533031
RSVPLG03,sg,20260420-155248,1.0.2,20251105-084826,827,Experiment,Both,1,Automatic,main,42,20260420-155718,local,global,750,S,S,A,E,A-S.png,S-E.png,sS,sS,mask-1.png,mask-4.png,s,1,0.32925840001553297,h,0,0.011753399856388569,0.04777120007202029,0.048406400019302964,0.10185019997879863,0.09943030006252229,0.7496879999525845
RSVPLG03,sg,20260420-155248,1.0.2,20251105-084826,827,Experiment,Both,1,Automatic,main,43,20260420-155722,local,local,300,H,S,E,A,E-H.png,A-S.png,hH,sS,mask-4.png,mask-1.png,h,1,0.29588089999742806,s,1,0.4771529999561608,0.04562580003403127,0.04744810005649924,0.09961759997531772,0.10030450019985437,0.29870299994945526
RSVPLG03,sg,20260420-155248,1.0.2,20251105-084826,827,Experiment,Both,1,Automatic,main,44,20260420-155727,local,global,300,S,S,A,E,A-S.png,S-E.png,sS,sS,mask-2.png,mask-1.png,s,1,0.2378229999449104,h,0,0.6029091998934746,0.047690299805253744,0.04683470004238188,0.10179949994198978,0.0988874000031501,0.3007091998588294
RSVPLG03,sg,20260420-155248,1.0.2,20251105-084826,827,Experiment,Both,1,Automatic,main,45,20260420-155731,global,local,750,S,H,A,A,S-A.png,A-H.png,sS,hH,mask-4.png,mask-1.png,s,1,0.1303437000606209,h,1,0.08518050005659461,0.04569460009224713,0.04763799998909235,0.09990650019608438,0.09895849996246397,0.7478685001842678
RSVPLG03,sg,20260420-155248,1.0.2,20251105-084826,827,Experiment,Both,1,Automatic,main,46,20260420-155736,global,local,750,S,S,A,A,S-A.png,A-S.png,sS,sS,mask-2.png,mask-1.png,s,1,0.34290360007435083,h,0,0.12002619984559715,0.047486500116065145,0.045657699927687645,0.09921610006131232,0.09950809995643795,0.7506115001160651
RSVPLG03,sg,20260420-155248,1.0.2,20251105-084826,827,Experiment,Both,1,Automatic,main,47,20260420-155740,global,global,300,H,S,A,E,H-A.png,S-E.png,hH,sS,mask-3.png,mask-2.png,h,1,0.23369870008900762,h,0,0.565221699886024,0.04767700005322695,0.048672599950805306,0.09984820010140538,0.10084520000964403,0.2990498000290245
RSVPLG03,sg,20260420-155248,1.0.2,20251105-084826,827,Experiment,Both,1,Automatic,main,48,20260420-155745,global,global,300,S,S,E,E,S-E.png,S-E.png,sS,sS,mask-4.png,mask-4.png,s,1,0.23161210003308952,s,1,0.09830920002423227,0.04856129991821945,0.04756810003891587,0.09991219989024103,0.10059119993820786,0.30027000000700355
RSVPLG03,sg,20260420-155248,1.0.2,20251105-084826,827,Experiment,Both,1,Automatic,main,49,20260420-155749,global,global,300,H,S,A,E,H-A.png,S-E.png,hH,sS,mask-2.png,mask-3.png,h,1,0.1838554001878947,s,1,0.17928779986687005,0.047429499914869666,0.048385800095275044,0.10070489998906851,0.10135410004295409,0.2990721999667585
RSVPLG03,sg,20260420-155248,1.0.2,20251105-084826,827,Experiment,Both,1,Automatic,main,50,20260420-155753,local,local,750,S,H,E,A,E-S.png,A-H.png,sS,hH,mask-2.png,mask-1.png,s,1,0.16008689999580383,h,1,0.15311699989251792,0.046726400032639503,0.04575180006213486,0.10010250005871058,0.09793499996885657,0.74951529991813
RSVPLG03,sg,20260420-155248,1.0.2,20251105-084826,827,Experiment,Both,1,Automatic,main,51,20260420-155802,local,local,750,S,H,E,A,E-S.png,A-H.png,sS,hH,mask-3.png,mask-3.png,s,1,0.13570880005136132,h,1,0.1242452000733465,0.048800099873915315,0.047912799986079335,0.10097429994493723,0.09993560006842017,0.7495734000112861
RSVPLG03,sg,20260420-155248,1.0.2,20251105-084826,827,Experiment,Both,1,Automatic,main,52,20260420-155807,local,global,750,H,H,A,A,A-H.png,H-A.png,hH,hH,mask-3.png,mask-4.png,h,1,0.3532954999245703,h,1,0.24579879990778863,0.04755090014077723,0.047216299921274185,0.10062310006469488,0.09869959997013211,0.7503739001695067
RSVPLG03,sg,20260420-155248,1.0.2,20251105-084826,827,Experiment,Both,1,Automatic,main,53,20260420-155811,global,local,750,H,H,E,E,H-E.png,E-H.png,hH,hH,mask-3.png,mask-2.png,h,1,0.1677584999706596,h,1,0.10810970002785325,0.048348299926146865,0.04877249989658594,0.10035620001144707,0.1009931000880897,0.7486364999786019
RSVPLG03,sg,20260420-155248,1.0.2,20251105-084826,827,Experiment,Both,1,Automatic,main,54,20260420-155816,local,local,300,S,S,A,E,A-S.png,E-S.png,sS,sS,mask-3.png,mask-1.png,s,1,0.24116610013879836,s,1,0.10695390007458627,0.047899700002744794,0.047413700027391315,0.10142920003272593,0.10023409989662468,0.29925830010324717
RSVPLG03,sg,20260420-155248,1.0.2,20251105-084826,827,Experiment,Both,1,Automatic,main,55,20260420-155820,global,global,750,H,S,E,E,H-E.png,S-E.png,hH,sS,mask-3.png,mask-4.png,h,1,0.28896220005117357,s,1,0.3757057001348585,0.047569300048053265,0.04805000009946525,0.10074520017951727,0.1003139999229461,0.7486491000745445
RSVPLG03,sg,20260420-155248,1.0.2,20251105-084826,827,Experiment,Both,1,Automatic,main,56,20260420-155825,local,local,750,S,S,A,E,A-S.png,E-S.png,sS,sS,mask-3.png,mask-1.png,h,0,0.4160501998849213,h,0,0.09932310017757118,0.046762599842622876,0.04576090001501143,0.10018159984610975,0.10003760014660656,0.7497814998496324
RSVPLG03,sg,20260420-155248,1.0.2,20251105-084826,827,Experiment,Both,1,Automatic,main,57,20260420-155829,global,global,750,H,S,A,A,H-A.png,S-A.png,hH,sS,mask-4.png,mask-2.png,h,1,0.2917803998570889,s,1,0.02615800010971725,0.04656549985520542,0.04672469990327954,0.09858729992993176,0.09986129985190928,0.7474144999869168
RSVPLG03,sg,20260420-155248,1.0.2,20251105-084826,827,Experiment,Both,1,Automatic,main,58,20260420-155834,global,local,300,S,H,A,A,S-A.png,A-H.png,sS,hH,mask-2.png,mask-2.png,s,1,0.17877370002679527,h,1,0.1573381000198424,0.04842290002852678,0.04759919992648065,0.10143339983187616,0.1005426999181509,0.29991389997303486
RSVPLG03,sg,20260420-155248,1.0.2,20251105-084826,827,Experiment,Both,1,Automatic,main,59,20260420-155838,local,global,300,S,S,E,A,E-S.png,S-A.png,sS,sS,mask-4.png,mask-1.png,s,1,0.25393619993701577,s,1,0.12466009985655546,0.04662490007467568,0.04858100018464029,0.09965169988572598,0.10056630009785295,0.2982548999134451
RSVPLG03,sg,20260420-155248,1.0.2,20251105-084826,827,Experiment,Both,1,Automatic,main,60,20260420-155842,global,local,300,H,H,A,A,H-A.png,A-H.png,hH,hH,mask-3.png,mask-4.png,h,1,0.19299560016952455,s,0,0.04441890004090965,0.046905600000172853,0.04668419994413853,0.09893360012210906,0.09972259984351695,0.2996899001300335
RSVPLG03,sg,20260420-155248,1.0.2,20251105-084826,827,Experiment,Both,1,Automatic,main,61,20260420-155846,local,global,300,S,H,A,E,A-S.png,H-E.png,sS,hH,mask-1.png,mask-3.png,s,1,0.7840126999653876,h,1,0.04052500007674098,0.04752829996868968,0.04743229993619025,0.10052040009759367,0.10057679982855916,0.2998214000836015
RSVPLG03,sg,20260420-155248,1.0.2,20251105-084826,827,Experiment,Both,1,Automatic,main,62,20260420-155850,global,global,300,H,H,E,E,H-E.png,H-E.png,hH,hH,mask-1.png,mask-2.png,h,1,0.18838850012980402,h,1,0.07455400004982948,0.04766180017031729,0.04761760006658733,0.09982850006781518,0.100008400157094,0.298632699996233
RSVPLG03,sg,20260420-155248,1.0.2,20251105-084826,827,Experiment,Both,1,Automatic,main,63,20260420-155854,global,global,750,S,S,E,A,S-E.png,S-A.png,sS,sS,mask-2.png,mask-4.png,s,1,0.31766790011897683,s,1,0.1347533999942243,0.04933269997127354,0.047575300093740225,0.10034210002049804,0.09946050005964935,0.7495493998285383
RSVPLG03,sg,20260420-155248,1.0.2,20251105-084826,827,Experiment,Both,1,Automatic,main,64,20260420-155859,global,global,750,H,H,E,A,H-E.png,H-A.png,hH,hH,mask-4.png,mask-3.png,h,1,0.19723719987086952,h,1,0.10131070017814636,0.04767560004256666,0.04734520008787513,0.09986110008321702,0.09969409997574985,0.7491868000943214
RSVPLG03,sg,20260420-155248,1.0.2,20251105-084826,827,Experiment,Both,1,Automatic,main,65,20260420-155903,global,global,300,S,H,E,A,S-E.png,H-A.png,sS,hH,mask-1.png,mask-2.png,s,1,0.19315310008823872,h,1,0.08492520009167492,0.048271199921146035,0.0467422001529485,0.09990029991604388,0.10007270006462932,0.3003121998626739
RSVPLG03,sg,20260420-155248,1.0.2,20251105-084826,827,Experiment,Both,1,Automatic,main,66,20260420-155907,local,local,300,H,S,E,E,E-H.png,E-S.png,hH,sS,mask-1.png,mask-2.png,h,1,0.22460779990069568,h,0,0.13124880008399487,0.047554099932312965,0.04652170022018254,0.0995821999385953,0.10034070000983775,0.3001826999243349
RSVPLG03,sg,20260420-155248,1.0.2,20251105-084826,827,Experiment,Both,1,Automatic,main,67,20260420-155911,local,local,750,H,H,E,A,E-H.png,A-H.png,hH,hH,mask-4.png,mask-1.png,h,1,0.27371830004267395,h,1,0.10734400013461709,0.048670300049707294,0.048412099946290255,0.09988990006968379,0.10075720003806055,0.7489907001145184
RSVPLG03,sg,20260420-155248,1.0.2,20251105-084826,827,Experiment,Both,1,Automatic,main,68,20260420-155916,global,global,750,H,H,A,E,H-A.png,H-E.png,hH,hH,mask-1.png,mask-4.png,h,1,0.15980009990744293,h,1,0.1085850999224931,0.04772549984045327,0.04762460011988878,0.09994599991478026,0.09983850014396012,0.7498013998847455
RSVPLG03,sg,20260420-155248,1.0.2,20251105-084826,827,Experiment,Both,1,Automatic,main,69,20260420-155920,global,local,300,S,S,A,A,S-A.png,A-S.png,sS,sS,mask-1.png,mask-2.png,s,1,0.2246763000730425,h,0,0.07686930010095239,0.0477312000002712,0.04771380010060966,0.09992969990707934,0.09991450002416968,0.29958719993010163
RSVPLG03,sg,20260420-155248,1.0.2,20251105-084826,827,Experiment,Both,1,Automatic,main,70,20260420-155924,global,local,300,S,H,A,E,S-A.png,E-H.png,sS,hH,mask-1.png,mask-2.png,s,1,0.4841334999073297,h,1,0.7746710998471826,0.04767820006236434,0.048518799943849444,0.09991379990242422,0.10053130006417632,0.2990882999729365
RSVPLG03,sg,20260420-155248,1.0.2,20251105-084826,827,Experiment,Both,1,Automatic,main,71,20260420-155929,global,local,750,S,H,E,A,S-E.png,A-H.png,sS,hH,mask-2.png,mask-3.png,s,1,0.1611611999105662,h,1,0.10680789989419281,0.04759970004670322,0.04697180003859103,0.10022869985550642,0.09965560003183782,0.7505786998663098
RSVPLG03,sg,20260420-155248,1.0.2,20251105-084826,827,Experiment,Both,1,Automatic,main,72,20260420-155934,global,global,300,S,H,A,E,S-A.png,H-E.png,sS,hH,mask-1.png,mask-1.png,s,1,0.2247710998635739,h,1,0.053881000028923154,0.04573470004834235,0.04755020001903176,0.0989786998834461,0.09951340011321008,0.2981265999842435
RSVPLG03,sg,20260420-155248,1.0.2,20251105-084826,827,Experiment,Both,1,Automatic,main,73,20260420-155938,global,local,300,S,S,A,A,S-A.png,A-S.png,sS,sS,mask-1.png,mask-3.png,s,1,0.18349600001238286,h,0,0.07238249992951751,0.04595269984565675,0.04782670014537871,0.09968939982354641,0.09906810009852052,0.2999137998558581
RSVPLG03,sg,20260420-155248,1.0.2,20251105-084826,827,Experiment,Both,1,Automatic,main,74,20260420-155941,global,local,300,H,S,A,A,H-A.png,A-S.png,hH,sS,mask-2.png,mask-3.png,h,1,0.17136009992100298,h,0,0.10581330000422895,0.04771670000627637,0.04654760006815195,0.10183520009741187,0.09940219996497035,0.30057310010306537
RSVPLG03,sg,20260420-155248,1.0.2,20251105-084826,827,Experiment,Both,1,Automatic,main,75,20260420-155945,global,local,300,H,S,A,E,H-A.png,E-S.png,hH,sS,mask-2.png,mask-2.png,h,1,0.1023617999162525,s,1,0.03671470005065203,0.04795469995588064,0.04672910016961396,0.10150020010769367,0.09894430008716881,0.30014539998956025
RSVPLG03,sg,20260420-155248,1.0.2,20251105-084826,827,Experiment,Both,1,Automatic,main,76,20260420-155950,local,local,300,H,H,E,A,E-H.png,A-H.png,hH,hH,mask-3.png,mask-4.png,h,1,0.38334539998322725,h,1,0.07465820014476776,0.04833649983629584,0.047392900101840496,0.10055629978887737,0.09961310005746782,0.29998889984562993
RSVPLG03,sg,20260420-155248,1.0.2,20251105-084826,827,Experiment,Both,1,Automatic,main,77,20260420-155954,local,local,750,H,H,E,E,E-H.png,E-H.png,hH,hH,mask-2.png,mask-4.png,h,1,0.3103680999483913,h,1,0.058404000010341406,0.04671230004169047,0.04871769994497299,0.09991430002264678,0.0999348999466747,0.7484717001207173
RSVPLG03,sg,20260420-155248,1.0.2,20251105-084826,827,Experiment,Both,1,Automatic,main,78,20260420-155959,global,local,750,S,H,A,A,S-A.png,A-H.png,sS,hH,mask-2.png,mask-4.png,s,1,0.25312160002067685,h,1,0.039475300116464496,0.047504899790510535,0.04758249991573393,0.10049749980680645,0.0995781000237912,0.7497523999772966
RSVPLG03,sg,20260420-155248,1.0.2,20251105-084826,827,Experiment,Both,1,Automatic,main,79,20260420-160003,local,local,750,H,H,E,E,E-H.png,E-H.png,hH,hH,mask-3.png,mask-3.png,h,1,0.3642633999697864,h,1,0.11278080008924007,0.04672509990632534,0.04753120010718703,0.0988638000562787,0.10167240002192557,0.7472002999857068
RSVPLG03,sg,20260420-155248,1.0.2,20251105-084826,827,Experiment,Both,1,Automatic,main,80,20260420-160008,global,global,300,H,H,A,E,H-A.png,H-E.png,hH,hH,mask-1.png,mask-2.png,h,1,0.2958102999255061,h,1,0.060467000119388103,0.048501500161364675,0.048569299979135394,0.10047850012779236,0.09885749989189208,0.29946920019574463
RSVPLG03,sg,20260420-155248,1.0.2,20251105-084826,827,Experiment,Both,1,Automatic,main,81,20260420-160012,global,global,300,H,S,A,A,H-A.png,S-A.png,hH,sS,mask-4.png,mask-1.png,h,1,0.2296508001163602,s,1,0.03483189991675317,0.047665099846199155,0.047210099874064326,0.09925889992155135,0.1010177000425756,0.29887149995192885
RSVPLG03,sg,20260420-155248,1.0.2,20251105-084826,827,Experiment,Both,1,Automatic,main,82,20260420-160016,global,global,750,H,H,A,E,H-A.png,H-E.png,hH,hH,mask-3.png,mask-2.png,h,1,0.2709315000101924,h,1,0.059698799857869744,0.04558849986642599,0.04634020011872053,0.09975419985130429,0.0991410999558866,0.7478902998846024
RSVPLG03,sg,20260420-155248,1.0.2,20251105-084826,827,Experiment,Both,1,Automatic,main,83,20260420-160020,local,global,750,H,S,A,A,A-H.png,S-A.png,hH,sS,mask-3.png,mask-1.png,h,1,0.6164652998559177,h,0,0.0826556000392884,0.04671510006301105,0.04673300008289516,0.09889469994232059,0.09920300007797778,0.7485825999174267
RSVPLG03,sg,20260420-155248,1.0.2,20251105-084826,827,Experiment,Both,1,Automatic,main,84,20260420-160025,local,local,750,H,S,E,A,E-H.png,A-S.png,hH,sS,mask-4.png,mask-1.png,h,1,0.28275900008156896,s,1,0.06535820011049509,0.04673920013010502,0.04641889990307391,0.09885279997251928,0.09964659996330738,0.7478998000733554
RSVPLG03,sg,20260420-155248,1.0.2,20251105-084826,827,Experiment,Both,1,Automatic,main,85,20260420-160030,global,local,300,H,H,E,A,H-E.png,A-H.png,hH,hH,mask-2.png,mask-1.png,h,1,0.44251980003900826,h,1,0.05624049995094538,0.04727340000681579,0.047633899841457605,0.09997109998948872,0.10080679995007813,0.29916070005856454
RSVPLG03,sg,20260420-155248,1.0.2,20251105-084826,827,Experiment,Both,1,Automatic,main,86,20260420-160034,local,local,750,S,S,E,E,E-S.png,E-S.png,sS,sS,mask-4.png,mask-2.png,s,1,0.23686509998515248,s,1,0.12104330002330244,0.04724119999445975,0.04852409986779094,0.09921030001714826,0.10055879992432892,0.7494710001628846
RSVPLG03,sg,20260420-155248,1.0.2,20251105-084826,827,Experiment,Both,1,Automatic,main,87,20260420-160038,global,local,750,S,H,E,A,S-E.png,A-H.png,sS,hH,mask-1.png,mask-3.png,s,1,0.28274130006320775,h,1,0.012484499951824546,0.04863229999318719,0.048769199987873435,0.10003420012071729,0.10011620004661381,0.7488166000694036
RSVPLG03,sg,20260420-155248,1.0.2,20251105-084826,827,Experiment,Both,1,Automatic,main,88,20260420-160043,local,local,300,H,H,A,A,A-H.png,A-H.png,hH,hH,mask-4.png,mask-2.png,h,1,0.2929583000950515,h,1,0.10041229985654354,0.04577710013836622,0.04832100006751716,0.0987363001331687,0.10051650018431246,0.29763599997386336
RSVPLG03,sg,20260420-155248,1.0.2,20251105-084826,827,Experiment,Both,1,Automatic,main,89,20260420-160047,global,local,300,H,H,A,A,H-A.png,A-H.png,hH,hH,mask-4.png,mask-3.png,h,1,0.420487699797377,h,1,0.07585839997045696,0.046690599992871284,0.0488179000094533,0.09892569994553924,0.10106949997134507,0.298111799871549
RSVPLG03,sg,20260420-155248,1.0.2,20251105-084826,827,Experiment,Both,1,Automatic,main,90,20260420-160051,global,local,750,H,S,E,E,H-E.png,E-S.png,hH,sS,mask-4.png,mask-2.png,h,1,0.2685698999557644,s,1,0.42504399991594255,0.045737900072708726,0.04852219996973872,0.09792659990489483,0.09915869985707104,0.7475324000697583
RSVPLG03,sg,20260420-155248,1.0.2,20251105-084826,827,Experiment,Both,1,Automatic,main,91,20260420-160056,global,local,300,S,H,E,E,S-E.png,E-H.png,sS,hH,mask-4.png,mask-3.png,s,1,0.4669127999804914,s,0,0.08518819999881089,0.04770189989358187,0.046483500162139535,0.10175799997523427,0.09951820014975965,0.3014103998430073
RSVPLG03,sg,20260420-155248,1.0.2,20251105-084826,827,Experiment,Both,1,Automatic,main,92,20260420-160100,local,local,300,S,S,E,E,E-S.png,E-S.png,sS,sS,mask-3.png,mask-4.png,s,1,0.1977491001598537,s,1,0.10222440003417432,0.04814859991893172,0.04761240002699196,0.10052650002762675,0.09976440016180277,0.3002022998407483
RSVPLG03,sg,20260420-155248,1.0.2,20251105-084826,827,Experiment,Both,1,Automatic,main,93,20260420-160104,global,local,750,H,S,E,A,H-E.png,A-S.png,hH,sS,mask-2.png,mask-1.png,h,1,0.3783097001723945,h,0,0.12207549996674061,0.046783800004050136,0.04744799993932247,0.09900519996881485,0.0996527997776866,0.7483218000270426
RSVPLG03,sg,20260420-155248,1.0.2,20251105-084826,827,Experiment,Both,1,Automatic,main,94,20260420-160109,global,local,300,S,H,E,A,S-E.png,A-H.png,sS,hH,mask-1.png,mask-4.png,s,1,0.19352680002339184,h,1,0.05991699988953769,0.04769270005635917,0.04746380005963147,0.09933450003154576,0.10027249995619059,0.29953880002722144
RSVPLG03,sg,20260420-155248,1.0.2,20251105-084826,827,Experiment,Both,1,Automatic,main,95,20260420-160112,local,global,300,H,H,E,E,E-H.png,H-E.png,hH,hH,mask-4.png,mask-1.png,h,1,0.20004599983803928,h,1,0.06777600012719631,0.045761400135234,0.04781139991246164,0.09963830001652241,0.10000009997747838,0.2987148000393063
RSVPLG03,sg,20260420-155248,1.0.2,20251105-084826,827,Experiment,Both,1,Automatic,main,96,20260420-160116,global,global,750,H,H,A,A,H-A.png,H-A.png,hH,hH,mask-1.png,mask-1.png,h,1,0.16304460004903376,h,1,0.07126650004647672,0.04764960007742047,0.04879950010217726,0.10005490016192198,0.10098100011236966,0.7485982000362128
RSVPLG03,sg,20260420-155248,1.0.2,20251105-084826,827,Experiment,Both,1,Automatic,main,97,20260420-160121,global,global,300,S,S,E,E,S-E.png,S-E.png,sS,sS,mask-2.png,mask-2.png,s,1,0.20859089982695878,s,1,0.07267010002397001,0.04772989987395704,0.04753119987435639,0.0999123000074178,0.10073119984008372,0.29946790006943047
RSVPLG03,sg,20260420-155248,1.0.2,20251105-084826,827,Experiment,Both,1,Automatic,main,98,20260420-160125,global,local,750,H,H,A,A,H-A.png,A-H.png,hH,hH,mask-2.png,mask-2.png,h,1,0.15011789998970926,h,1,0.10787789989262819,0.045728799887001514,0.0476929999422282,0.0992219999898225,0.09989459998905659,0.747963699977845
RSVPLG03,sg,20260420-155248,1.0.2,20251105-084826,827,Experiment,Both,1,Automatic,main,99,20260420-160129,global,local,750,H,H,E,A,H-E.png,A-H.png,hH,hH,mask-3.png,mask-4.png,h,1,0.13734979997389019,h,1,0.09265089989639819,0.04662479995749891,0.04811799991875887,0.09984109993092716,0.1009242997970432,0.7479245001450181
RSVPLG03,sg,20260420-155248,1.0.2,20251105-084826,827,Experiment,Both,1,Automatic,main,100,20260420-160133,local,global,300,S,H,A,E,A-S.png,H-E.png,sS,hH,mask-2.png,mask-2.png,s,1,0.24522949988022447,h,1,0.157478200038895,0.04657249990850687,0.047230100026354194,0.09900989988818765,0.10112829995341599,0.298697599908337
RSVPLG03,sg,20260420-160228,1.0.2,20251105-084826,827,Experiment,Both,1,Automatic,warmup,1,20260420-160248,global,local,300,H,S,A,A,H-A.png,A-S.png,hH,sS,mask-3.png,mask-3.png,h,1,0.38331910013221204,h,0,0.07239919994026423,0.04727820004336536,0.0476691999938339,0.10009990003891289,0.09969950001686811,0.30043649999424815
RSVPLG03,sg,20260420-160228,1.0.2,20251105-084826,827,Experiment,Both,1,Automatic,warmup,2,20260420-160252,local,global,300,S,S,E,A,E-S.png,S-A.png,sS,sS,mask-3.png,mask-2.png,s,1,0.27562039997428656,h,0,0.07189289992675185,0.0475208000279963,0.04684669990092516,0.10017789993435144,0.0998771998565644,0.29982560011558235
RSVPLG03,sg,20260420-160228,1.0.2,20251105-084826,827,Experiment,Both,1,Automatic,warmup,3,20260420-160256,global,global,300,S,S,A,A,S-A.png,S-A.png,sS,sS,mask-3.png,mask-1.png,s,1,0.3057000001426786,s,1,0.1363523001782596,0.046913000056520104,0.0489262999035418,0.09969609999097884,0.10008709994144738,0.3003943001385778
RSVPLG03,sg,20260420-160228,1.0.2,20251105-084826,827,Experiment,Both,1,Automatic,warmup,4,20260420-160300,global,global,750,H,S,E,A,H-E.png,S-A.png,hH,sS,mask-3.png,mask-3.png,h,1,0.11431859992444515,s,1,0.1022463000845164,0.047700899885967374,0.04749829997308552,0.09962249989621341,0.10150799993425608,0.7501755999401212
RSVPLG03,sg,20260420-160228,1.0.2,20251105-084826,827,Experiment,Both,1,Automatic,main,5,20260420-160304,local,global,300,H,S,A,A,A-H.png,S-A.png,hH,sS,mask-2.png,mask-1.png,h,1,0.2943933999631554,h,0,0.276228099828586,0.047697799978777766,0.04768239986151457,0.09890189999714494,0.09989499999210238,0.3003996000625193
RSVPLG03,sg,20260420-160228,1.0.2,20251105-084826,827,Experiment,Both,1,Automatic,main,6,20260420-160309,global,local,750,H,H,A,E,H-A.png,E-H.png,hH,hH,mask-3.png,mask-3.png,h,1,0.5068276000674814,h,1,0.13985959999263287,0.047709599835798144,0.04866840015165508,0.09991779993288219,0.09987909998744726,0.7506982998456806
RSVPLG03,sg,20260420-160228,1.0.2,20251105-084826,827,Experiment,Both,1,Automatic,main,7,20260420-160313,global,local,300,S,H,A,E,S-A.png,E-H.png,sS,hH,mask-3.png,mask-2.png,s,1,0.1866466999053955,h,1,0.2511499000247568,0.047703800024464726,0.04768270021304488,0.09993329993449152,0.09987320005893707,0.2999078999273479
RSVPLG03,sg,20260420-160228,1.0.2,20251105-084826,827,Experiment,Both,1,Automatic,main,8,20260420-160317,local,global,300,H,H,E,A,E-H.png,H-A.png,hH,hH,mask-3.png,mask-3.png,h,1,1.4009448001161218,h,1,0.106295500183478,0.04870319995097816,0.047525699948892,0.1009355999995023,0.10074779996648431,0.3005626001395285
RSVPLG03,sg,20260420-160228,1.0.2,20251105-084826,827,Experiment,Both,1,Automatic,main,9,20260420-160323,global,global,750,H,S,A,A,H-A.png,S-A.png,hH,sS,mask-1.png,mask-3.png,h,1,0.2803730999585241,s,1,0.02196929999627173,0.048559000017121434,0.04770349990576506,0.10078119998797774,0.09979390003718436,0.7513292001094669
RSVPLG03,sg,20260420-160228,1.0.2,20251105-084826,827,Experiment,Both,1,Automatic,main,10,20260420-160327,global,local,300,H,S,E,A,H-E.png,A-S.png,hH,sS,mask-3.png,mask-2.png,h,1,0.3051832001656294,s,1,0.03823770000599325,0.04864499997347593,0.048792999936267734,0.09923939988948405,0.10019530006684363,0.2999678999185562
RSVPLG03,sg,20260420-160228,1.0.2,20251105-084826,827,Experiment,Both,1,Automatic,main,11,20260420-160331,global,global,750,S,H,A,A,S-A.png,H-A.png,sS,hH,mask-4.png,mask-1.png,s,1,0.16376850008964539,h,1,0.03978900006040931,0.04780110018327832,0.047509599942713976,0.10088600008748472,0.09952809987589717,0.7510324001777917
RSVPLG03,sg,20260420-160228,1.0.2,20251105-084826,827,Experiment,Both,1,Automatic,main,12,20260420-160335,local,global,750,H,H,E,A,E-H.png,H-A.png,hH,hH,mask-1.png,mask-1.png,h,1,0.3622543001547456,h,1,0.0843501000199467,0.04834630014374852,0.04750919993966818,0.10134749999269843,0.09956420003436506,0.7513196000363678
RSVPLG03,sg,20260420-160228,1.0.2,20251105-084826,827,Experiment,Both,1,Automatic,main,13,20260420-160340,local,local,300,H,H,E,E,E-H.png,E-H.png,hH,hH,mask-1.png,mask-1.png,h,1,0.2306538000702858,h,1,0.07111839996650815,0.04683740017935634,0.04752540006302297,0.09905289998278022,0.10076089994981885,0.2997594000771642
RSVPLG03,sg,20260420-160228,1.0.2,20251105-084826,827,Experiment,Both,1,Automatic,main,14,20260420-160344,global,global,300,S,S,A,A,S-A.png,S-A.png,sS,sS,mask-3.png,mask-4.png,s,1,0.2600495000369847,s,1,0.11926280008628964,0.04824399994686246,0.045894999988377094,0.10103819984942675,0.09874129993841052,0.3016572999767959
RSVPLG03,sg,20260420-160228,1.0.2,20251105-084826,827,Experiment,Both,1,Automatic,main,15,20260420-160348,global,global,300,S,S,E,A,S-E.png,S-A.png,sS,sS,mask-4.png,mask-2.png,s,1,0.21925360010936856,s,1,0.07173410011455417,0.0485729998908937,0.046532899839803576,0.10056379996240139,0.09929089993238449,0.3006339999847114
RSVPLG03,sg,20260420-160228,1.0.2,20251105-084826,827,Experiment,Both,1,Automatic,main,16,20260420-160352,global,local,750,H,S,A,A,H-A.png,A-S.png,hH,sS,mask-2.png,mask-2.png,h,1,0.4117193999700248,h,0,0.06118760001845658,0.046718900091946125,0.04757079994305968,0.10026219999417663,0.10098120011389256,0.7492515000049025
RSVPLG03,sg,20260420-160228,1.0.2,20251105-084826,827,Experiment,Both,1,Automatic,main,17,20260420-160356,global,global,300,S,H,A,E,S-A.png,H-E.png,sS,hH,mask-3.png,mask-4.png,s,1,0.23133750003762543,h,1,0.09635730017907917,0.046794600086286664,0.04784559994004667,0.10099459998309612,0.10004629986360669,0.30060190008953214
RSVPLG03,sg,20260420-160228,1.0.2,20251105-084826,827,Experiment,Both,1,Automatic,main,18,20260420-160400,global,local,300,H,H,E,A,H-E.png,A-H.png,hH,hH,mask-2.png,mask-1.png,h,1,0.40389550011605024,h,1,0.09674440021626651,0.04674080014228821,0.04589689988642931,0.10091760009527206,0.09974860004149377,0.3003327001351863
RSVPLG03,sg,20260420-160228,1.0.2,20251105-084826,827,Experiment,Both,1,Automatic,main,19,20260420-160404,local,global,750,S,H,E,A,E-S.png,H-A.png,sS,hH,mask-1.png,mask-4.png,s,1,0.26747690001502633,h,1,0.07950910017825663,0.0467227001208812,0.04771489999257028,0.09895789995789528,0.10112899984233081,0.749009600142017
RSVPLG03,sg,20260420-160228,1.0.2,20251105-084826,827,Experiment,Both,1,Automatic,main,20,20260420-160409,local,local,300,H,S,A,A,A-H.png,A-S.png,hH,sS,mask-2.png,mask-2.png,h,1,0.1543603001628071,s,1,0.07056370005011559,0.04752420005388558,0.047547899885103106,0.09814750007353723,0.0989085000474006,0.29981260001659393
RSVPLG03,sg,20260420-160228,1.0.2,20251105-084826,827,Experiment,Both,1,Automatic,main,21,20260420-160413,local,local,300,S,S,A,E,A-S.png,E-S.png,sS,sS,mask-4.png,mask-1.png,s,1,0.14546729996800423,s,1,0.09161450015380979,0.04707550001330674,0.04620069987140596,0.10005550016649067,0.09962380002252758,0.30124290008097887
RSVPLG03,sg,20260420-160228,1.0.2,20251105-084826,827,Experiment,Both,1,Automatic,main,22,20260420-160417,global,local,300,H,H,A,A,H-A.png,A-H.png,hH,hH,mask-3.png,mask-4.png,h,1,0.1735292999073863,h,1,0.10889420006424189,0.047530699986964464,0.04885440017096698,0.09855149989016354,0.09987340006045997,0.2986142998561263
RSVPLG03,sg,20260420-160228,1.0.2,20251105-084826,827,Experiment,Both,1,Automatic,main,23,20260420-160420,local,local,300,H,S,A,E,A-H.png,E-S.png,hH,sS,mask-4.png,mask-4.png,h,1,0.2598361000418663,s,1,0.06832329998724163,0.04857740015722811,0.04770569992251694,0.1001810000743717,0.09994319989345968,0.3006943000946194
RSVPLG03,sg,20260420-160228,1.0.2,20251105-084826,827,Experiment,Both,1,Automatic,main,24,20260420-160424,local,local,750,H,S,E,A,E-H.png,A-S.png,hH,sS,mask-1.png,mask-4.png,h,1,0.13321650004945695,s,1,0.016805300023406744,0.04767520003952086,0.04658109997399151,0.0998742999508977,0.0997525998391211,0.749888600083068
RSVPLG03,sg,20260420-160228,1.0.2,20251105-084826,827,Experiment,Both,1,Automatic,main,25,20260420-160429,local,global,300,H,S,E,A,E-H.png,S-A.png,hH,sS,mask-1.png,mask-4.png,h,1,0.2420427999459207,s,1,0.00870610005222261,0.047066599829122424,0.046708300011232495,0.09983880002982914,0.10006490000523627,0.29916299995966256
RSVPLG03,sg,20260420-160228,1.0.2,20251105-084826,827,Experiment,Both,1,Automatic,main,26,20260420-160503,global,local,750,S,H,E,A,S-E.png,A-H.png,sS,hH,mask-3.png,mask-4.png,s,1,0.3330367999151349,h,1,0.006074200151488185,0.046951099997386336,0.04668890009634197,0.09927539993077517,0.10088660009205341,0.7500655998010188
RSVPLG03,sg,20260420-160228,1.0.2,20251105-084826,827,Experiment,Both,1,Automatic,main,27,20260420-160507,global,global,300,S,H,A,E,S-A.png,H-E.png,sS,hH,mask-2.png,mask-2.png,s,1,0.1950224000029266,h,1,0.04318309994414449,0.04740649997256696,0.04711569985374808,0.10053629986941814,0.1002519999165088,0.30027449992485344
RSVPLG03,sg,20260420-160228,1.0.2,20251105-084826,827,Experiment,Both,1,Automatic,main,28,20260420-160511,global,global,300,S,H,A,A,S-A.png,H-A.png,sS,hH,mask-1.png,mask-1.png,s,1,0.2155285000335425,h,1,0.04167529987171292,0.047748500015586615,0.04826169996522367,0.1000944001134485,0.09939319989643991,0.30026610009372234
RSVPLG03,sg,20260420-160228,1.0.2,20251105-084826,827,Experiment,Both,1,Automatic,main,29,20260420-160515,global,global,300,H,S,E,E,H-E.png,S-E.png,hH,sS,mask-1.png,mask-2.png,h,1,0.9993503999430686,s,1,0.004214900080114603,0.04788740002550185,0.04773689992725849,0.1000596999656409,0.09993380005471408,0.29995619994588196
RSVPLG03,sg,20260420-160228,1.0.2,20251105-084826,827,Experiment,Both,1,Automatic,main,30,20260420-160520,global,local,750,S,H,E,A,S-E.png,A-H.png,sS,hH,mask-3.png,mask-4.png,s,1,0.2527016999665648,h,1,0.03914389992132783,0.047034100163728,0.04786660009995103,0.10018680011853576,0.10025320015847683,0.749599999981001
RSVPLG03,sg,20260420-160228,1.0.2,20251105-084826,827,Experiment,Both,1,Automatic,main,31,20260420-160524,local,local,300,S,H,A,A,A-S.png,A-H.png,sS,hH,mask-2.png,mask-1.png,s,1,0.1662775999866426,h,1,0.06036009988747537,0.04763779998756945,0.04752420005388558,0.10070579987950623,0.09777310001663864,0.3009793998207897
RSVPLG03,sg,20260420-160228,1.0.2,20251105-084826,827,Experiment,Both,1,Automatic,main,32,20260420-160528,local,global,750,H,S,E,E,E-H.png,S-E.png,hH,sS,mask-3.png,mask-4.png,h,1,0.8706020000390708,s,1,0.017273900099098682,0.04820530000142753,0.04660189989954233,0.10025259992107749,0.09962109988555312,0.7505181001033634
RSVPLG03,sg,20260420-160228,1.0.2,20251105-084826,827,Experiment,Both,1,Automatic,main,33,20260420-160533,local,local,750,S,H,E,E,E-S.png,E-H.png,sS,hH,mask-4.png,mask-3.png,s,1,0.22623639996163547,h,1,0.021269100019708276,0.04686460015363991,0.04721160000190139,0.09995810012333095,0.10014829994179308,0.7496212001424283
RSVPLG03,sg,20260420-160228,1.0.2,20251105-084826,827,Experiment,Both,1,Automatic,main,34,20260420-160537,global,global,750,S,S,A,A,S-A.png,S-A.png,sS,sS,mask-4.png,mask-2.png,s,1,0.2551643999759108,s,1,0.056167200207710266,0.04792669997550547,0.048257699934765697,0.09996130014769733,0.09908850002102554,0.7504408000968397
RSVPLG03,sg,20260420-160228,1.0.2,20251105-084826,827,Experiment,Both,1,Automatic,main,35,20260420-160541,local,local,750,H,H,E,A,E-H.png,A-H.png,hH,hH,mask-3.png,mask-3.png,h,1,0.3347568998578936,h,1,0.09773619985207915,0.0470579001121223,0.04705559997819364,0.10027409996837378,0.09953550016507506,0.7502280999906361
RSVPLG03,sg,20260420-160228,1.0.2,20251105-084826,827,Experiment,Both,1,Automatic,main,36,20260420-160546,global,local,750,S,S,A,E,S-A.png,E-S.png,sS,sS,mask-1.png,mask-2.png,s,1,0.09876469988375902,s,1,0.12346099992282689,0.046530599938705564,0.048573500011116266,0.10055329999886453,0.10159139987081289,0.7487971000373363
RSVPLG03,sg,20260420-160228,1.0.2,20251105-084826,827,Experiment,Both,1,Automatic,main,37,20260420-160550,global,local,750,H,S,A,A,H-A.png,A-S.png,hH,sS,mask-1.png,mask-4.png,h,1,0.2605059000197798,s,1,0.08657360007055104,0.0478988999966532,0.04751459998078644,0.10019530006684363,0.09952490008436143,0.751412000041455
RSVPLG03,sg,20260420-160228,1.0.2,20251105-084826,827,Experiment,Both,1,Automatic,main,38,20260420-160555,global,local,750,S,S,A,A,S-A.png,A-S.png,sS,sS,mask-1.png,mask-2.png,s,1,0.15324750007130206,h,0,0.10402089986018836,0.046733299968764186,0.047659099800512195,0.09911399986594915,0.09954510000534356,0.7505208000075072
RSVPLG03,sg,20260420-160228,1.0.2,20251105-084826,827,Experiment,Both,1,Automatic,main,39,20260420-160559,local,global,300,H,H,E,A,E-H.png,H-A.png,hH,hH,mask-3.png,mask-2.png,h,1,0.3579534001182765,h,1,0.08298410009592772,0.04753340012393892,0.04763619997538626,0.10153029998764396,0.09864199999719858,0.3017676000017673
RSVPLG03,sg,20260420-160228,1.0.2,20251105-084826,827,Experiment,Both,1,Automatic,main,40,20260420-160603,local,global,300,S,H,E,E,E-S.png,H-E.png,sS,hH,mask-1.png,mask-1.png,s,1,0.2613846000749618,h,1,0.0006701999809592962,0.046744100051000714,0.046149699948728085,0.09961170004680753,0.09891800000332296,0.3002520001027733
RSVPLG03,sg,20260420-160228,1.0.2,20251105-084826,827,Experiment,Both,1,Automatic,main,41,20260420-160607,global,local,300,S,H,A,E,S-A.png,E-H.png,sS,hH,mask-1.png,mask-3.png,s,1,0.1730074998922646,h,1,0.0740737000014633,0.046525999903678894,0.04795820009894669,0.09984169993549585,0.0999503000639379,0.29926609992980957
RSVPLG03,sg,20260420-160228,1.0.2,20251105-084826,827,Experiment,Both,1,Automatic,main,42,20260420-160611,local,global,750,S,H,E,E,E-S.png,H-E.png,sS,hH,mask-2.png,mask-1.png,s,1,0.08169529982842505,s,0,0.19038350018672645,0.04670569999143481,0.0474157000426203,0.09939699992537498,0.09930750005878508,0.7492743998300284
RSVPLG03,sg,20260420-160228,1.0.2,20251105-084826,827,Experiment,Both,1,Automatic,main,43,20260420-160615,local,local,750,S,H,E,A,E-S.png,A-H.png,sS,hH,mask-1.png,mask-2.png,s,1,0.050526199862360954,h,1,0.05846049985848367,0.04782030009664595,0.04837009985931218,0.0998403001576662,0.10021080006845295,0.7493426001165062
RSVPLG03,sg,20260420-160228,1.0.2,20251105-084826,827,Experiment,Both,1,Automatic,main,44,20260420-160620,global,local,750,S,S,E,A,S-E.png,A-S.png,sS,sS,mask-1.png,mask-1.png,s,1,0.4975113000255078,h,0,0.12985310005024076,0.045985500095412135,0.04680230002850294,0.09883120004087687,0.10037690005265176,0.7489404000807554
RSVPLG03,sg,20260420-160228,1.0.2,20251105-084826,827,Experiment,Both,1,Automatic,main,45,20260420-160624,global,local,300,H,S,E,E,H-E.png,E-S.png,hH,sS,mask-3.png,mask-1.png,h,1,0.2814795000012964,s,1,0.01410040003247559,0.04679449996910989,0.04578429996035993,0.09810790000483394,0.10019570006988943,0.2998828000854701
RSVPLG03,sg,20260420-160228,1.0.2,20251105-084826,827,Experiment,Both,1,Automatic,main,46,20260420-160628,global,global,750,S,S,A,E,S-A.png,S-E.png,sS,sS,mask-2.png,mask-4.png,s,1,1.9213141000363976,s,1,0.07533839996904135,0.04852470010519028,0.04756719991564751,0.09956709994003177,0.09958310006186366,0.7509304000996053
RSVPLG03,sg,20260420-160228,1.0.2,20251105-084826,827,Experiment,Both,1,Automatic,main,47,20260420-160634,local,local,300,H,H,A,E,A-H.png,E-H.png,hH,hH,mask-3.png,mask-4.png,h,1,0.2059237000066787,h,1,0.06595019996166229,0.04721480002626777,0.04691350017674267,0.09891889989376068,0.10003080009482801,0.29985539987683296
RSVPLG03,sg,20260420-160228,1.0.2,20251105-084826,827,Experiment,Both,1,Automatic,main,48,20260420-160638,local,global,750,H,H,A,E,A-H.png,H-E.png,hH,hH,mask-4.png,mask-1.png,h,1,0.4040981999132782,s,0,0.17090240004472435,0.0475872999522835,0.046404399909079075,0.09960199985653162,0.10118729993700981,0.7496207000222057
RSVPLG03,sg,20260420-160228,1.0.2,20251105-084826,827,Experiment,Both,1,Automatic,main,49,20260420-160643,local,local,750,S,H,E,A,E-S.png,A-H.png,sS,hH,mask-4.png,mask-2.png,s,1,0.25190480006858706,h,1,0.0036830001045018435,0.04696579999290407,0.04793430003337562,0.10040270001627505,0.10043180012144148,0.7493787999264896
RSVPLG03,sg,20260420-160228,1.0.2,20251105-084826,827,Experiment,Both,1,Automatic,main,50,20260420-160648,global,global,300,H,H,A,E,H-A.png,H-E.png,hH,hH,mask-3.png,mask-3.png,h,1,0.22019240004010499,h,1,0.08742200001142919,0.04639829997904599,0.04752420005388558,0.09940700000151992,0.09954440011642873,0.2996990999672562
RSVPLG03,sg,20260420-160228,1.0.2,20251105-084826,827,Experiment,Both,1,Automatic,main,51,20260420-160754,global,local,750,S,S,E,E,S-E.png,E-S.png,sS,sS,mask-2.png,mask-4.png,s,1,0.3797420000191778,s,1,0.0896387998946011,0.04609700012952089,0.047010199865326285,0.09927210002206266,0.1011657000053674,0.7494740001857281
RSVPLG03,sg,20260420-160228,1.0.2,20251105-084826,827,Experiment,Both,1,Automatic,main,52,20260420-160758,global,local,750,H,S,E,E,H-E.png,E-S.png,hH,sS,mask-4.png,mask-2.png,h,1,0.30241909995675087,s,1,0.027229700004681945,0.046699099941179156,0.047523200046271086,0.09891390008851886,0.10053759999573231,0.7490177999716252
RSVPLG03,sg,20260420-160228,1.0.2,20251105-084826,827,Experiment,Both,1,Automatic,main,53,20260420-160803,global,global,750,S,H,A,E,S-A.png,H-E.png,sS,hH,mask-1.png,mask-2.png,s,1,0.20275539997965097,h,1,0.11069270013831556,0.04803710011765361,0.04704829980619252,0.09908030019141734,0.10060399980284274,0.7496447002049536
RSVPLG03,sg,20260420-160228,1.0.2,20251105-084826,827,Experiment,Both,1,Automatic,main,54,20260420-160807,global,local,300,H,S,E,A,H-E.png,A-S.png,hH,sS,mask-2.png,mask-3.png,h,1,0.26111299986951053,s,1,0.04193380009382963,0.04690279997885227,0.04737389995716512,0.10040999995544553,0.09921350004151464,0.3005329000297934
RSVPLG03,sg,20260420-160228,1.0.2,20251105-084826,827,Experiment,Both,1,Automatic,main,55,20260420-160811,global,global,300,S,S,E,A,S-E.png,S-A.png,sS,sS,mask-3.png,mask-2.png,s,1,0.19521729997359216,h,0,0.11037739994935691,0.047734699910506606,0.046619700035080314,0.10050599998794496,0.09990989998914301,0.29955810005776584
RSVPLG03,sg,20260420-160228,1.0.2,20251105-084826,827,Experiment,Both,1,Automatic,main,56,20260420-160815,global,local,300,H,H,E,E,H-E.png,E-H.png,hH,hH,mask-3.png,mask-4.png,h,1,0.18770250002853572,s,0,0.08589180000126362,0.046114200027659535,0.047778100008144975,0.09921769984066486,0.09981709998100996,0.299826999893412
RSVPLG03,sg,20260420-160228,1.0.2,20251105-084826,827,Experiment,Both,1,Automatic,main,57,20260420-160819,global,local,300,S,H,A,E,S-A.png,E-H.png,sS,hH,mask-2.png,mask-3.png,s,1,0.1750338999554515,h,1,0.026287300046533346,0.04821590008214116,0.04661279986612499,0.10001299995929003,0.09862810000777245,0.3006760000716895
RSVPLG03,sg,20260420-160228,1.0.2,20251105-084826,827,Experiment,Both,1,Automatic,main,58,20260420-160823,local,local,300,H,H,E,E,E-H.png,E-H.png,hH,hH,mask-3.png,mask-2.png,h,1,0.14444479998201132,h,1,0.08321880013681948,0.047522899927571416,0.04735429980792105,0.10053829988464713,0.09963579988107085,0.2998603000305593
RSVPLG03,sg,20260420-160228,1.0.2,20251105-084826,827,Experiment,Both,1,Automatic,main,59,20260420-160826,local,global,300,S,H,A,E,A-S.png,H-E.png,sS,hH,mask-4.png,mask-3.png,s,1,0.18206200003623962,h,1,0.05558450007811189,0.047514700097963214,0.047381999902427197,0.1005160000640899,0.10024429997429252,0.2996308000292629
RSVPLG03,sg,20260420-160228,1.0.2,20251105-084826,827,Experiment,Both,1,Automatic,main,60,20260420-160830,global,global,750,S,S,E,E,S-E.png,S-E.png,sS,sS,mask-3.png,mask-3.png,s,1,0.19291699980385602,s,1,0.0851431000046432,0.04808249999769032,0.04859040002338588,0.09965180000290275,0.0999824998434633,0.7504068000707775
RSVPLG03,sg,20260420-160228,1.0.2,20251105-084826,827,Experiment,Both,1,Automatic,main,61,20260420-160835,local,local,750,S,S,E,E,E-S.png,E-S.png,sS,sS,mask-1.png,mask-3.png,s,1,0.2214685999788344,s,1,0.06977269984781742,0.04688829998485744,0.04764960007742047,0.09996889997273684,0.09984740009531379,0.750684899976477
RSVPLG03,sg,20260420-160228,1.0.2,20251105-084826,827,Experiment,Both,1,Automatic,main,62,20260420-160839,local,global,750,H,H,E,A,E-H.png,H-A.png,hH,hH,mask-2.png,mask-2.png,h,1,0.2718167998827994,h,1,0.23764820001088083,0.04764220002107322,0.04771509999409318,0.09984329994767904,0.09900239994749427,0.7498248000629246
RSVPLG03,sg,20260420-160228,1.0.2,20251105-084826,827,Experiment,Both,1,Automatic,main,63,20260420-160844,local,local,300,H,S,A,A,A-H.png,A-S.png,hH,sS,mask-4.png,mask-4.png,h,1,0.19876540009863675,s,1,0.07594479992985725,0.04863100009970367,0.046506699873134494,0.09941160003654659,0.09969850000925362,0.3009962001815438
RSVPLG03,sg,20260420-160228,1.0.2,20251105-084826,827,Experiment,Both,1,Automatic,main,64,20260420-160848,global,global,750,S,S,A,A,S-A.png,S-A.png,sS,sS,mask-2.png,mask-2.png,s,1,0.26300829998217523,s,1,0.07518390007317066,0.04757860000245273,0.04750849981792271,0.09905790002085268,0.09951229998841882,0.7503264001570642
RSVPLG03,sg,20260420-160228,1.0.2,20251105-084826,827,Experiment,Both,1,Automatic,main,65,20260420-160852,local,local,750,S,S,A,A,A-S.png,A-S.png,sS,sS,mask-1.png,mask-4.png,s,1,0.18070319993421435,s,1,0.1250388000626117,0.04732999997213483,0.04893589997664094,0.09937650011852384,0.1010225999634713,0.7490258000325412
RSVPLG03,sg,20260420-160228,1.0.2,20251105-084826,827,Experiment,Both,1,Automatic,main,66,20260420-160857,local,global,750,H,H,E,E,E-H.png,H-E.png,hH,hH,mask-3.png,mask-2.png,h,1,0.3483911999501288,h,1,0.0754165998660028,0.04661260009743273,0.04751589987426996,0.09905870002694428,0.0997716998681426,0.7498453001026064
RSVPLG03,sg,20260420-160228,1.0.2,20251105-084826,827,Experiment,Both,1,Automatic,main,67,20260420-160901,global,local,750,S,H,E,A,S-E.png,A-H.png,sS,hH,mask-1.png,mask-3.png,s,1,0.10145869990810752,h,1,0.24610080011188984,0.04863599990494549,0.047706699930131435,0.10088580008596182,0.09881970006972551,0.7508771000429988
RSVPLG03,sg,20260420-160228,1.0.2,20251105-084826,827,Experiment,Both,1,Automatic,main,68,20260420-160906,local,global,750,S,H,E,E,E-S.png,H-E.png,sS,hH,mask-4.png,mask-3.png,s,1,0.401623000157997,s,0,0.11259129992686212,0.04775530006736517,0.04782489989884198,0.09995290008373559,0.09987080004066229,0.7497253001201898
RSVPLG03,sg,20260420-160228,1.0.2,20251105-084826,827,Experiment,Both,1,Automatic,main,69,20260420-160910,local,local,750,H,S,A,E,A-H.png,E-S.png,hH,sS,mask-2.png,mask-2.png,h,1,0.23864430002868176,s,1,0.013497700216248631,0.04752720007672906,0.04653850011527538,0.09952459996566176,0.09855820005759597,0.7515422999858856
RSVPLG03,sg,20260420-160228,1.0.2,20251105-084826,827,Experiment,Both,1,Automatic,main,70,20260420-160914,global,global,300,H,H,A,A,H-A.png,H-A.png,hH,hH,mask-4.png,mask-4.png,h,1,0.24863029993139207,h,1,0.0813684999011457,0.04652730002999306,0.047476999927312136,0.09902719990350306,0.09886409994214773,0.3003881999757141
RSVPLG03,sg,20260420-160228,1.0.2,20251105-084826,827,Experiment,Both,1,Automatic,main,71,20260420-160918,global,global,750,H,S,E,A,H-E.png,S-A.png,hH,sS,mask-1.png,mask-4.png,h,1,0.31169610004872084,s,1,0.10740450001321733,0.04747659992426634,0.047709399834275246,0.10178090003319085,0.09991479991003871,0.7503931000828743
RSVPLG03,sg,20260420-160228,1.0.2,20251105-084826,827,Experiment,Both,1,Automatic,main,72,20260420-160923,local,global,750,S,H,E,E,E-S.png,H-E.png,sS,hH,mask-3.png,mask-2.png,s,1,0.3414117000065744,s,0,0.10574929998256266,0.048729300033301115,0.04755579982884228,0.10030579986050725,0.1011118998285383,0.7502659000456333
RSVPLG03,sg,20260420-160228,1.0.2,20251105-084826,827,Experiment,Both,1,Automatic,main,73,20260420-160927,global,local,300,H,S,E,A,H-E.png,A-S.png,hH,sS,mask-1.png,mask-3.png,h,1,0.29267749981954694,h,0,0.10533759999088943,0.04610670008696616,0.047751300036907196,0.0987392000388354,0.0998883000575006,0.29927209997549653
RSVPLG03,sg,20260420-160228,1.0.2,20251105-084826,827,Experiment,Both,1,Automatic,main,74,20260420-160931,local,local,750,H,S,E,A,E-H.png,A-S.png,hH,sS,mask-4.png,mask-3.png,h,1,0.21332959993742406,s,1,0.009218000108376145,0.04585079988464713,0.047594600124284625,0.09989439998753369,0.09965570014901459,0.7503521998878568
RSVPLG03,sg,20260420-160228,1.0.2,20251105-084826,827,Experiment,Both,1,Automatic,main,75,20260420-160936,local,local,750,S,H,A,A,A-S.png,A-H.png,sS,hH,mask-4.png,mask-3.png,s,1,0.10658250004053116,h,1,0.06790530006401241,0.048675900092348456,0.04871250013820827,0.09989119996316731,0.09994149999693036,0.7502657999284565
RSVPLG03,sg,20260420-160228,1.0.2,20251105-084826,827,Experiment,Both,1,Automatic,main,76,20260420-160941,local,local,300,S,H,A,E,A-S.png,E-H.png,sS,hH,mask-3.png,mask-2.png,s,1,0.19801599998027086,h,1,0.034479600144550204,0.046860900009050965,0.047800400061532855,0.09906250005587935,0.10014320001937449,0.29919910011813045
RSVPLG03,sg,20260420-160228,1.0.2,20251105-084826,827,Experiment,Both,1,Automatic,main,77,20260420-160944,local,local,300,H,H,A,E,A-H.png,E-H.png,hH,hH,mask-2.png,mask-4.png,h,1,0.17326489998959005,h,1,0.07021789997816086,0.04871529992669821,0.047480500070378184,0.10067109996452928,0.10036450019106269,0.3010407998226583
RSVPLG03,sg,20260420-160228,1.0.2,20251105-084826,827,Experiment,Both,1,Automatic,main,78,20260420-160948,local,global,750,S,H,E,E,E-S.png,H-E.png,sS,hH,mask-1.png,mask-1.png,s,1,0.3431170000694692,h,1,0.06242999993264675,0.0486928999889642,0.04768980015069246,0.10016279993578792,0.09989510010927916,0.7517423999961466
RSVPLG03,sg,20260420-160228,1.0.2,20251105-084826,827,Experiment,Both,1,Automatic,main,79,20260420-160953,local,global,300,H,H,E,E,E-H.png,H-E.png,hH,hH,mask-1.png,mask-4.png,h,1,0.4142930000089109,h,1,0.09169579995796084,0.04762950004078448,0.04567759996280074,0.09869130002334714,0.0986164000350982,0.3000249001197517
RSVPLG03,sg,20260420-160228,1.0.2,20251105-084826,827,Experiment,Both,1,Automatic,main,80,20260420-160957,local,local,750,H,H,A,A,A-H.png,A-H.png,hH,hH,mask-3.png,mask-2.png,h,1,0.3075549998320639,h,1,0.06032969988882542,0.046524800127372146,0.04768700012937188,0.1006628000177443,0.09991390001960099,0.7510259000118822
RSVPLG03,sg,20260420-160228,1.0.2,20251105-084826,827,Experiment,Both,1,Automatic,main,81,20260420-161001,global,global,300,S,H,E,A,S-E.png,H-A.png,sS,hH,mask-4.png,mask-4.png,s,1,0.24099279986694455,h,1,0.01307840016670525,0.04733729991130531,0.0485101998783648,0.0991833999287337,0.10053739999420941,0.2991482000797987
RSVPLG03,sg,20260420-160228,1.0.2,20251105-084826,827,Experiment,Both,1,Automatic,main,82,20260420-161005,local,global,750,S,S,A,E,A-S.png,S-E.png,sS,sS,mask-4.png,mask-4.png,s,1,0.29627440008334816,h,0,0.041906600119546056,0.04663130012340844,0.0461535002104938,0.09999969997443259,0.09996970021165907,0.7499961999710649
RSVPLG03,sg,20260420-160228,1.0.2,20251105-084826,827,Experiment,Both,1,Automatic,main,83,20260420-161010,local,global,750,S,S,E,A,E-S.png,S-A.png,sS,sS,mask-3.png,mask-3.png,s,1,0.2682340999599546,s,1,0.14105729991570115,0.04667290020734072,0.04769270005635917,0.09904330014251173,0.09889190015383065,0.7503500999882817
RSVPLG03,sg,20260420-160228,1.0.2,20251105-084826,827,Experiment,Both,1,Automatic,main,84,20260420-161014,global,global,750,H,H,E,E,H-E.png,H-E.png,hH,hH,mask-1.png,mask-4.png,h,1,0.12248899997211993,h,1,0.08064209995791316,0.047781100030988455,0.04767650016583502,0.09999429993331432,0.09988150000572205,0.7502158998977393
RSVPLG03,sg,20260420-160228,1.0.2,20251105-084826,827,Experiment,Both,1,Automatic,main,85,20260420-161018,local,global,300,H,S,A,E,A-H.png,S-E.png,hH,sS,mask-1.png,mask-2.png,h,1,0.09737450000829995,h,0,0.1046327999792993,0.04771990003064275,0.04854170000180602,0.09994939994066954,0.10125980013981462,0.2987627999391407
RSVPLG03,sg,20260420-160228,1.0.2,20251105-084826,827,Experiment,Both,1,Automatic,main,86,20260420-161022,local,global,300,S,H,A,E,A-S.png,H-E.png,sS,hH,mask-4.png,mask-2.png,s,1,0.1561634000390768,h,1,0.0443100999109447,0.04728789976797998,0.04922409984283149,0.09986479999497533,0.10111469984985888,0.3002027999609709
RSVPLG03,sg,20260420-160228,1.0.2,20251105-084826,827,Experiment,Both,1,Automatic,main,87,20260420-161026,local,local,300,S,S,A,A,A-S.png,A-S.png,sS,sS,mask-1.png,mask-4.png,s,1,0.4130422999151051,s,1,0.38010390009731054,0.04851350001990795,0.04753279988653958,0.10152740008197725,0.1015437999740243,0.29999070009216666
RSVPLG03,sg,20260420-160228,1.0.2,20251105-084826,827,Experiment,Both,1,Automatic,main,88,20260420-161030,global,global,300,H,H,A,E,H-A.png,H-E.png,hH,hH,mask-3.png,mask-3.png,h,1,0.24036259995773435,h,1,0.08254060009494424,0.047521499916911125,0.04651339980773628,0.099538299953565,0.09881659992970526,0.29982440010644495
RSVPLG03,sg,20260420-160228,1.0.2,20251105-084826,827,Experiment,Both,1,Automatic,main,89,20260420-161034,global,global,750,S,S,E,E,S-E.png,S-E.png,sS,sS,mask-2.png,mask-2.png,s,1,0.16943370015360415,s,1,0.12902159988880157,0.04967659991234541,0.04885040014050901,0.1007254000287503,0.10111120017245412,0.7503219998907298
RSVPLG03,sg,20260420-160228,1.0.2,20251105-084826,827,Experiment,Both,1,Automatic,main,90,20260420-161039,local,global,300,S,S,E,A,E-S.png,S-A.png,sS,sS,mask-1.png,mask-4.png,s,1,0.1415165001526475,s,1,0.11928469990380108,0.045773199992254376,0.048566299956291914,0.09995789988897741,0.1016913999337703,0.298588200006634
RSVPLG03,sg,20260420-160228,1.0.2,20251105-084826,827,Experiment,Both,1,Automatic,main,91,20260420-161043,global,global,300,H,S,A,E,H-A.png,S-E.png,hH,sS,mask-4.png,mask-4.png,h,1,0.24907399993389845,s,1,0.054194699972867966,0.046825499972328544,0.04768819990567863,0.09912570007145405,0.09989969991147518,0.30074340011924505
RSVPLG03,sg,20260420-160228,1.0.2,20251105-084826,827,Experiment,Both,1,Automatic,main,92,20260420-161047,global,local,300,H,H,A,E,H-A.png,E-H.png,hH,hH,mask-2.png,mask-1.png,h,1,0.09420739999040961,h,1,0.26688749995082617,0.04745600000023842,0.04779969993978739,0.09866070002317429,0.10012850002385676,0.29900890006683767
RSVPLG03,sg,20260420-160228,1.0.2,20251105-084826,827,Experiment,Both,1,Automatic,main,93,20260420-161051,global,global,750,S,H,A,A,S-A.png,H-A.png,sS,hH,mask-1.png,mask-2.png,s,1,0.07654529996216297,h,1,0.1353144000750035,0.04673879989422858,0.04749069991521537,0.09879159997217357,0.1005963000934571,0.7484335999470204
RSVPLG03,sg,20260420-160228,1.0.2,20251105-084826,827,Experiment,Both,1,Automatic,main,94,20260420-161055,local,global,300,H,H,A,E,A-H.png,H-E.png,hH,hH,mask-4.png,mask-4.png,h,1,0.5683217998594046,h,1,0.10430689994245768,0.04740389995276928,0.04750069999136031,0.10010499996133149,0.09893139987252653,0.3006496001034975
RSVPLG03,sg,20260420-160228,1.0.2,20251105-084826,827,Experiment,Both,1,Automatic,main,95,20260420-161059,local,global,300,H,S,E,A,E-H.png,S-A.png,hH,sS,mask-1.png,mask-1.png,h,1,0.21013209992088377,h,0,0.13786280015483499,0.047158399829640985,0.0459177999291569,0.10027139983139932,0.10021079983562231,0.3002224999945611
RSVPLG03,sg,20260420-160228,1.0.2,20251105-084826,827,Experiment,Both,1,Automatic,main,96,20260420-161103,global,global,750,H,S,E,E,H-E.png,S-E.png,hH,sS,mask-4.png,mask-3.png,h,1,0.2245151000097394,s,1,0.0402538999915123,0.04880689992569387,0.04673800012096763,0.10085049993358552,0.09997480013407767,0.7508199999574572
RSVPLG03,sg,20260420-160228,1.0.2,20251105-084826,827,Experiment,Both,1,Automatic,main,97,20260420-161108,local,local,300,S,H,E,E,E-S.png,E-H.png,sS,hH,mask-2.png,mask-3.png,s,1,0.1764151998795569,h,1,0.12441140017472208,0.04680090001784265,0.04674050002358854,0.0990048001985997,0.09966180007904768,0.2990677000489086
RSVPLG03,sg,20260420-160228,1.0.2,20251105-084826,827,Experiment,Both,1,Automatic,main,98,20260420-161112,local,local,750,H,H,A,A,A-H.png,A-H.png,hH,hH,mask-2.png,mask-1.png,h,1,0.18411369994282722,h,1,0.10643819998949766,0.046714300056919456,0.048706799978390336,0.09889089991338551,0.09992569987662137,0.749363400042057
RSVPLG03,sg,20260420-160228,1.0.2,20251105-084826,827,Experiment,Both,1,Automatic,main,99,20260420-161116,global,local,750,H,H,E,A,H-E.png,A-H.png,hH,hH,mask-2.png,mask-3.png,h,1,0.03428190015256405,h,1,0.08552849991247058,0.048491100082173944,0.04697900009341538,0.09981500008143485,0.09938100003637373,0.7506899998988956
RSVPLG03,sg,20260420-160228,1.0.2,20251105-084826,827,Experiment,Both,1,Automatic,main,100,20260420-161120,global,local,300,H,H,E,E,H-E.png,E-H.png,hH,hH,mask-2.png,mask-1.png,h,1,0.2164739000145346,h,1,0.07158109988085926,0.04659050004556775,0.04750159988179803,0.09977969992905855,0.10070359986275434,0.29924730001948774
