exp,exp_initials,runtime,ver,modtime,sub,blocktype,targets,cuetype,mode,trialtype,trial,trialtime,t1_level,t2_level,t2_lag,t1,t2,distractor1,distractor2,stimfile1,stimfile2,t1_corr,t2_corr,maskfile1,maskfile2,t1_resp,t1_acc,t1_rt,t2_resp,t2_acc,t2_rt,t1_dur,t2_dur,t1mask_soa,t2mask_soa,t1t2_soa
RSVPLG03,cs,20260501-102021,1.0.2,20251105-084826,833,Introduction,T1,1,Automatic,main,1,20260501-102049,local,global,750,H,H,A,E,A-H.png,H-E.png,hH,hH,mask-3.png,mask-2.png,h,1,2.2617414998821914,none,-5,0,0.09573590010404587,0.09836239973083138,0.1980057000182569,0.20141409989446402,0.7482821000739932
RSVPLG03,cs,20260501-102021,1.0.2,20251105-084826,833,Introduction,T1,1,Automatic,main,2,20260501-102055,local,global,750,S,H,E,E,E-S.png,H-E.png,sS,hH,mask-3.png,mask-2.png,s,1,0.8196526998654008,none,-5,0,0.0985358003526926,0.09747340017929673,0.20065110037103295,0.20076770009472966,0.7519788001663983
RSVPLG03,cs,20260501-102021,1.0.2,20251105-084826,833,Introduction,T1,1,Automatic,main,3,20260501-102100,global,local,750,H,H,A,E,H-A.png,E-H.png,hH,hH,mask-4.png,mask-1.png,s,0,0.8389359000138938,none,-5,0,0.09701779996976256,0.09735620021820068,0.1997555997222662,0.20045470027253032,0.751560099888593
RSVPLG03,cs,20260501-102021,1.0.2,20251105-084826,833,Introduction,T1,1,Automatic,main,4,20260501-102105,local,local,750,H,S,E,E,E-H.png,E-S.png,hH,sS,mask-3.png,mask-2.png,s,0,0.7335057002492249,none,-5,0,0.09728799993172288,0.09756390005350113,0.2019110000692308,0.20070530008524656,0.752092800103128
RSVPLG03,cs,20260501-102021,1.0.2,20251105-084826,833,Introduction,T1,1,Automatic,main,5,20260501-102110,local,local,750,H,S,E,A,E-H.png,A-S.png,hH,sS,mask-2.png,mask-2.png,h,1,1.5977962999604642,none,-5,0,0.09838540013879538,0.09729439998045564,0.20175570016726851,0.20017739990726113,0.7529417001642287
RSVPLG03,cs,20260501-102021,1.0.2,20251105-084826,833,Introduction,T1,1,Automatic,main,6,20260501-102116,global,global,750,S,H,A,A,S-A.png,H-A.png,sS,hH,mask-1.png,mask-3.png,s,1,1.3592596999369562,none,-5,0,0.09740079985931516,0.09855190012603998,0.20031150011345744,0.20049870014190674,0.7508259997703135
RSVPLG03,cs,20260501-102021,1.0.2,20251105-084826,833,Introduction,T1,1,Automatic,main,7,20260501-102121,local,global,750,H,S,A,E,A-H.png,S-E.png,hH,sS,mask-3.png,mask-1.png,h,1,0.8695175000466406,none,-5,0,0.09829619992524385,0.09741320041939616,0.20005609979853034,0.20068440027534962,0.7506646998226643
RSVPLG03,cs,20260501-102021,1.0.2,20251105-084826,833,Introduction,T1,1,Automatic,main,8,20260501-102126,local,local,750,H,H,E,E,E-H.png,E-H.png,hH,hH,mask-2.png,mask-4.png,none,-6,0,none,-5,0,0.09785469993948936,0.09636789979413152,0.19970660004764795,0.20034570014104247,0.7519219000823796
RSVPLG03,cs,20260501-102137,1.0.2,20251105-084826,833,Practice,T1,1,Automatic,main,1,20260501-102154,global,global,300,S,H,E,E,S-E.png,H-E.png,sS,hH,mask-4.png,mask-2.png,h,0,1.372647300362587,none,-5,0,0.04413980012759566,0.04756509978324175,0.09703190019354224,0.10058269975706935,0.29721130011603236
RSVPLG03,cs,20260501-102137,1.0.2,20251105-084826,833,Practice,T1,1,Automatic,main,2,20260501-102159,local,local,300,H,H,E,A,E-H.png,A-H.png,hH,hH,mask-4.png,mask-2.png,h,1,0.5203979997895658,none,-5,0,0.0474825999699533,0.04750670026987791,0.09963210020214319,0.10034710029140115,0.30015579983592033
RSVPLG03,cs,20260501-102137,1.0.2,20251105-084826,833,Practice,T1,1,Automatic,main,3,20260501-102203,global,local,750,H,S,A,A,H-A.png,A-S.png,hH,sS,mask-1.png,mask-1.png,h,1,1.0377259002998471,none,-5,0,0.048668900039047,0.047681699972599745,0.10178769985213876,0.09987210016697645,0.7515727998688817
RSVPLG03,cs,20260501-102137,1.0.2,20251105-084826,833,Practice,T1,1,Automatic,main,4,20260501-102208,local,local,750,H,H,E,E,E-H.png,E-H.png,hH,hH,mask-2.png,mask-2.png,h,1,0.7374495998956263,none,-5,0,0.045739800203591585,0.04855399997904897,0.09990729996934533,0.09966970002278686,0.7496265000663698
RSVPLG03,cs,20260501-102137,1.0.2,20251105-084826,833,Practice,T1,1,Automatic,main,5,20260501-102213,local,global,300,S,H,E,A,E-S.png,H-A.png,sS,hH,mask-1.png,mask-4.png,s,1,0.42776589980348945,none,-5,0,0.04578640032559633,0.04749969998374581,0.09994470002129674,0.10052819969132543,0.29927400033921003
RSVPLG03,cs,20260501-102137,1.0.2,20251105-084826,833,Practice,T1,1,Automatic,main,6,20260501-102217,local,local,750,S,S,A,A,A-S.png,A-S.png,sS,sS,mask-3.png,mask-3.png,s,1,0.4018876999616623,none,-5,0,0.04755159979686141,0.04779309965670109,0.09988979995250702,0.10103309992700815,0.7491846000775695
RSVPLG03,cs,20260501-102137,1.0.2,20251105-084826,833,Practice,T1,1,Automatic,main,7,20260501-102222,global,local,750,H,H,E,A,H-E.png,A-H.png,hH,hH,mask-2.png,mask-3.png,s,0,0.9979604999534786,none,-5,0,0.04771219985559583,0.04669190011918545,0.10094569995999336,0.09888570010662079,0.7515650996938348
RSVPLG03,cs,20260501-102137,1.0.2,20251105-084826,833,Practice,T1,1,Automatic,main,8,20260501-102227,local,global,750,H,S,A,E,A-H.png,S-E.png,hH,sS,mask-3.png,mask-1.png,h,1,0.5938538000918925,none,-5,0,0.047662700060755014,0.04732160037383437,0.09886989975348115,0.10052169999107718,0.7504145996645093
RSVPLG03,cs,20260501-102137,1.0.2,20251105-084826,833,Practice,T1,1,Automatic,main,9,20260501-102231,global,global,750,S,S,A,A,S-A.png,S-A.png,sS,sS,mask-1.png,mask-4.png,s,1,0.7625878001563251,none,-5,0,0.047538799699395895,0.04758869996294379,0.09931479999795556,0.09866499993950129,0.7504966999404132
RSVPLG03,cs,20260501-102137,1.0.2,20251105-084826,833,Practice,T1,1,Automatic,main,10,20260501-102236,global,global,750,H,H,A,E,H-A.png,H-E.png,hH,hH,mask-3.png,mask-4.png,h,1,1.249857199843973,none,-5,0,0.047851699870079756,0.047554600052535534,0.10203600022941828,0.1005851998925209,0.7515254002064466
RSVPLG03,cs,20260501-102137,1.0.2,20251105-084826,833,Practice,T1,1,Automatic,main,11,20260501-102241,local,local,300,H,H,A,A,A-H.png,A-H.png,hH,hH,mask-3.png,mask-4.png,h,1,0.49382250010967255,none,-5,0,0.047309800051152706,0.047316199634224176,0.10119009995833039,0.09917789977043867,0.3011266002431512
RSVPLG03,cs,20260501-102137,1.0.2,20251105-084826,833,Practice,T1,1,Automatic,main,12,20260501-102245,global,global,300,S,S,A,A,S-A.png,S-A.png,sS,sS,mask-4.png,mask-4.png,h,0,0.49132189992815256,none,-5,0,0.047604200430214405,0.04864310007542372,0.10067040007561445,0.10173039976507425,0.2987733003683388
RSVPLG03,cs,20260501-102137,1.0.2,20251105-084826,833,Practice,T1,1,Automatic,main,13,20260501-102249,global,local,300,S,S,A,A,S-A.png,A-S.png,sS,sS,mask-1.png,mask-2.png,h,0,0.8911291998811066,none,-5,0,0.04751710034906864,0.047510700300335884,0.09953190013766289,0.09953220002353191,0.29979269998148084
RSVPLG03,cs,20260501-102137,1.0.2,20251105-084826,833,Practice,T1,1,Automatic,main,14,20260501-102254,local,global,750,H,S,A,A,A-H.png,S-A.png,hH,sS,mask-3.png,mask-2.png,s,0,1.0957451998256147,none,-5,0,0.047501400113105774,0.04662690032273531,0.0987788001075387,0.09866390004754066,0.7506508999504149
RSVPLG03,cs,20260501-102137,1.0.2,20251105-084826,833,Practice,T1,1,Automatic,main,15,20260501-102259,local,global,300,S,S,A,E,A-S.png,S-E.png,sS,sS,mask-2.png,mask-2.png,s,1,0.6292788996361196,none,-5,0,0.04881579987704754,0.04771939991042018,0.10121250012889504,0.09991799993440509,0.3014631001278758
RSVPLG03,cs,20260501-102137,1.0.2,20251105-084826,833,Practice,T1,1,Automatic,main,16,20260501-102303,global,local,300,H,S,E,E,H-E.png,E-S.png,hH,sS,mask-3.png,mask-1.png,s,0,0.4858761001378298,none,-5,0,0.04772990010678768,0.04673640010878444,0.09992399998009205,0.09985430026426911,0.2997094001621008
RSVPLG03,cs,20260501-102321,1.0.2,20251105-084826,833,Practice,T1,1,Automatic,main,1,20260501-102334,local,global,300,H,S,A,E,A-H.png,S-E.png,hH,sS,mask-2.png,mask-1.png,h,1,2.4456109004095197,none,-5,0,0.043468600139021873,0.04739939980208874,0.0954827000387013,0.0994452997110784,0.29602040024474263
RSVPLG03,cs,20260501-102321,1.0.2,20251105-084826,833,Practice,T1,1,Automatic,main,2,20260501-102340,global,global,300,S,S,A,A,S-A.png,S-A.png,sS,sS,mask-3.png,mask-1.png,s,1,0.8663479997776449,none,-5,0,0.04709010012447834,0.046078100334852934,0.09894370008260012,0.10030640009790659,0.29939959989860654
RSVPLG03,cs,20260501-102321,1.0.2,20251105-084826,833,Practice,T1,1,Automatic,main,3,20260501-102345,global,global,750,H,H,E,A,H-E.png,H-A.png,hH,hH,mask-3.png,mask-2.png,h,1,1.11304090032354,none,-5,0,0.047351500019431114,0.04735550004988909,0.09889999963343143,0.10000409977510571,0.7498695999383926
RSVPLG03,cs,20260501-102321,1.0.2,20251105-084826,833,Practice,T1,1,Automatic,main,4,20260501-102350,local,global,750,H,S,E,A,E-H.png,S-A.png,hH,sS,mask-3.png,mask-2.png,h,1,0.2704401002265513,none,-5,0,0.04664679989218712,0.048357800114899874,0.09964430006220937,0.09984399983659387,0.7489000000059605
RSVPLG03,cs,20260501-102321,1.0.2,20251105-084826,833,Practice,T1,1,Automatic,main,5,20260501-102354,local,local,300,S,S,A,A,A-S.png,A-S.png,sS,sS,mask-4.png,mask-4.png,s,1,0.35794819984585047,none,-5,0,0.04756140010431409,0.047406400088220835,0.10042200004681945,0.09981669997796416,0.29943470004945993
RSVPLG03,cs,20260501-102321,1.0.2,20251105-084826,833,Practice,T1,1,Automatic,main,6,20260501-102358,local,global,300,H,H,E,E,E-H.png,H-E.png,hH,hH,mask-4.png,mask-4.png,h,1,0.38641889998689294,none,-5,0,0.045841299928724766,0.04732629982754588,0.09949220018461347,0.1011234000325203,0.2992456001229584
RSVPLG03,cs,20260501-102321,1.0.2,20251105-084826,833,Practice,T1,1,Automatic,main,7,20260501-102402,global,global,300,H,S,E,E,H-E.png,S-E.png,hH,sS,mask-1.png,mask-1.png,h,1,0.49008690007030964,none,-5,0,0.047157600056380033,0.04618050018325448,0.09966500010341406,0.09988600015640259,0.30078200018033385
RSVPLG03,cs,20260501-102321,1.0.2,20251105-084826,833,Practice,T1,1,Automatic,main,8,20260501-102406,local,global,750,H,H,A,E,A-H.png,H-E.png,hH,hH,mask-3.png,mask-3.png,h,1,0.29371520038694143,none,-5,0,0.04478099988773465,0.046067300252616405,0.0990081001073122,0.09872350003570318,0.7494216999039054
RSVPLG03,cs,20260501-102321,1.0.2,20251105-084826,833,Practice,T1,1,Automatic,main,9,20260501-102410,global,local,750,S,H,E,A,S-E.png,A-H.png,sS,hH,mask-4.png,mask-1.png,h,0,0.832211300265044,none,-5,0,0.04725379962474108,0.04771309997886419,0.10038259997963905,0.09928879979997873,0.7496911999769509
RSVPLG03,cs,20260501-102321,1.0.2,20251105-084826,833,Practice,T1,1,Automatic,main,10,20260501-102415,global,local,300,H,H,E,E,H-E.png,E-H.png,hH,hH,mask-4.png,mask-1.png,s,0,1.0245997998863459,none,-5,0,0.04614569991827011,0.04710309999063611,0.09893730003386736,0.0987339997664094,0.3000861001200974
RSVPLG03,cs,20260501-102321,1.0.2,20251105-084826,833,Practice,T1,1,Automatic,main,11,20260501-102419,global,global,750,H,H,E,A,H-E.png,H-A.png,hH,hH,mask-1.png,mask-4.png,s,0,1.002723699901253,none,-5,0,0.047683299984782934,0.04659820022061467,0.09859080007299781,0.09968450013548136,0.7506086998619139
RSVPLG03,cs,20260501-102321,1.0.2,20251105-084826,833,Practice,T1,1,Automatic,main,12,20260501-102424,local,local,750,H,S,A,A,A-H.png,A-S.png,hH,sS,mask-2.png,mask-4.png,h,1,0.3035510997287929,none,-5,0,0.047557900194078684,0.04736379999667406,0.10054480005055666,0.1002517999149859,0.7504321001470089
RSVPLG03,cs,20260501-102321,1.0.2,20251105-084826,833,Practice,T1,1,Automatic,main,13,20260501-102429,local,local,300,H,S,E,E,E-H.png,E-S.png,hH,sS,mask-3.png,mask-3.png,h,1,0.3293375000357628,none,-5,0,0.04843420023098588,0.04693299997597933,0.099840700160712,0.09986050007864833,0.3005026001483202
RSVPLG03,cs,20260501-102321,1.0.2,20251105-084826,833,Practice,T1,1,Automatic,main,14,20260501-102433,local,local,750,S,H,A,E,A-S.png,E-H.png,sS,hH,mask-1.png,mask-1.png,s,1,0.2379343002103269,none,-5,0,0.04770859982818365,0.046719999983906746,0.10098449978977442,0.10049950005486608,0.7511418997310102
RSVPLG03,cs,20260501-102321,1.0.2,20251105-084826,833,Practice,T1,1,Automatic,main,15,20260501-102437,global,local,300,H,H,A,A,H-A.png,A-H.png,hH,hH,mask-4.png,mask-1.png,h,1,0.8183480999432504,none,-5,0,0.04660190036520362,0.047500799875706434,0.0998376002535224,0.10066419979557395,0.299326800275594
RSVPLG03,cs,20260501-102321,1.0.2,20251105-084826,833,Practice,T1,1,Automatic,main,16,20260501-102441,global,local,750,H,H,A,E,H-A.png,E-H.png,hH,hH,mask-3.png,mask-2.png,s,0,0.36172479996457696,none,-5,0,0.046872499864548445,0.048473700415343046,0.10006129974499345,0.10060580028221011,0.7492692996747792
RSVPLG03,cs,20260501-102458,1.0.2,20251105-084826,833,Practice,T1,1,Automatic,main,1,20260501-102515,local,global,750,H,H,A,A,A-H.png,H-A.png,hH,hH,mask-1.png,mask-3.png,h,1,1.8201708998531103,none,-5,0,0.039918600115925074,0.0458403998054564,0.09411639999598265,0.09993519959971309,0.7444691001437604
RSVPLG03,cs,20260501-102458,1.0.2,20251105-084826,833,Practice,T1,1,Automatic,main,2,20260501-102520,local,global,300,S,S,E,E,E-S.png,S-E.png,sS,sS,mask-3.png,mask-3.png,s,1,0.38262089993804693,none,-5,0,0.046142200008034706,0.04618360009044409,0.10031979996711016,0.10039740009233356,0.29993150010704994
RSVPLG03,cs,20260501-102458,1.0.2,20251105-084826,833,Practice,T1,1,Automatic,main,3,20260501-102524,global,global,750,S,S,E,E,S-E.png,S-E.png,sS,sS,mask-3.png,mask-1.png,s,1,0.5745023000054061,none,-5,0,0.0485601001419127,0.04740769974887371,0.10156200034543872,0.10062639974057674,0.7509194002486765
RSVPLG03,cs,20260501-102458,1.0.2,20251105-084826,833,Practice,T1,1,Automatic,main,4,20260501-102529,local,local,750,H,S,A,A,A-H.png,A-S.png,hH,sS,mask-1.png,mask-2.png,h,1,0.3076931000687182,none,-5,0,0.04770349990576506,0.04673330020159483,0.09993050014600158,0.09957140032202005,0.7504940000362694
RSVPLG03,cs,20260501-102458,1.0.2,20251105-084826,833,Practice,T1,1,Automatic,main,5,20260501-102533,local,local,300,S,S,A,A,A-S.png,A-S.png,sS,sS,mask-2.png,mask-2.png,h,0,0.4921996998600662,none,-5,0,0.04776549991220236,0.04751779977232218,0.09986479999497533,0.09896159963682294,0.2994667002931237
RSVPLG03,cs,20260501-102458,1.0.2,20251105-084826,833,Practice,T1,1,Automatic,main,6,20260501-102537,local,local,750,S,H,A,A,A-S.png,A-H.png,sS,hH,mask-3.png,mask-3.png,s,1,0.35465830005705357,none,-5,0,0.047623200342059135,0.04666260024532676,0.0989936999976635,0.09887920040637255,0.7496621999889612
RSVPLG03,cs,20260501-102458,1.0.2,20251105-084826,833,Practice,T1,1,Automatic,main,7,20260501-102542,local,local,300,S,S,A,A,A-S.png,A-S.png,sS,sS,mask-4.png,mask-4.png,s,1,0.37582700001075864,none,-5,0,0.04770210012793541,0.04769230028614402,0.0995817999355495,0.09968050010502338,0.2997519997879863
RSVPLG03,cs,20260501-102458,1.0.2,20251105-084826,833,Practice,T1,1,Automatic,main,8,20260501-102546,global,local,300,H,H,A,A,H-A.png,A-H.png,hH,hH,mask-2.png,mask-1.png,h,1,0.5409304001368582,none,-5,0,0.04770859982818365,0.04770210012793541,0.1009599999524653,0.09893690003082156,0.30158389965072274
RSVPLG03,cs,20260501-102458,1.0.2,20251105-084826,833,Practice,T1,1,Automatic,main,9,20260501-102550,global,global,300,S,S,A,A,S-A.png,S-A.png,sS,sS,mask-1.png,mask-2.png,s,1,0.5907243997789919,none,-5,0,0.048866599798202515,0.04701580014079809,0.10123249981552362,0.10046850005164742,0.3012279998511076
RSVPLG03,cs,20260501-102458,1.0.2,20251105-084826,833,Practice,T1,1,Automatic,main,10,20260501-102554,global,global,300,S,S,A,A,S-A.png,S-A.png,sS,sS,mask-2.png,mask-4.png,s,1,0.34667780017480254,none,-5,0,0.046802499797195196,0.04612499987706542,0.09846819983795285,0.09922199975699186,0.2991392998956144
RSVPLG03,cs,20260501-102458,1.0.2,20251105-084826,833,Practice,T1,1,Automatic,main,11,20260501-102558,global,local,300,H,S,A,A,H-A.png,A-S.png,hH,sS,mask-4.png,mask-2.png,h,1,0.3091672998853028,none,-5,0,0.04556450014933944,0.047135400120168924,0.09910099999979138,0.09818350011482835,0.30040539987385273
RSVPLG03,cs,20260501-102458,1.0.2,20251105-084826,833,Practice,T1,1,Automatic,main,12,20260501-102602,global,local,750,S,H,A,E,S-A.png,E-H.png,sS,hH,mask-3.png,mask-4.png,s,1,0.2790720001794398,none,-5,0,0.04852440021932125,0.0476299999281764,0.10077670030295849,0.10055019985884428,0.7507846001535654
RSVPLG03,cs,20260501-102458,1.0.2,20251105-084826,833,Practice,T1,1,Automatic,main,13,20260501-102606,global,local,750,S,S,A,A,S-A.png,A-S.png,sS,sS,mask-1.png,mask-4.png,s,1,0.3432126003317535,none,-5,0,0.04769820021465421,0.048133499920368195,0.09990560030564666,0.10139290010556579,0.7486332003027201
RSVPLG03,cs,20260501-102458,1.0.2,20251105-084826,833,Practice,T1,1,Automatic,main,14,20260501-102610,local,global,750,S,H,A,E,A-S.png,H-E.png,sS,hH,mask-3.png,mask-2.png,s,1,0.5152118001133204,none,-5,0,0.047634500078856945,0.047707200050354004,0.09868660010397434,0.10189880011603236,0.7486636000685394
RSVPLG03,cs,20260501-102458,1.0.2,20251105-084826,833,Practice,T1,1,Automatic,main,15,20260501-102615,local,global,300,H,H,E,E,E-H.png,H-E.png,hH,hH,mask-4.png,mask-2.png,h,1,0.3199127996340394,none,-5,0,0.04862139979377389,0.04741790005937219,0.09875919995829463,0.09943790035322309,0.3007649998180568
RSVPLG03,cs,20260501-102458,1.0.2,20251105-084826,833,Practice,T1,1,Automatic,main,16,20260501-102619,global,global,750,H,H,A,A,H-A.png,H-A.png,hH,hH,mask-4.png,mask-1.png,h,1,0.339953999966383,none,-5,0,0.04767870018258691,0.047713200096040964,0.09988630004227161,0.10090370010584593,0.7491888999938965
RSVPLG03,cs,20260501-102646,1.0.2,20251105-084826,833,Practice,Both,1,Automatic,main,1,20260501-102709,local,local,300,H,S,E,E,E-H.png,E-S.png,hH,sS,mask-2.png,mask-3.png,s,0,0.7788408999331295,h,0,1.3203878998756409,0.039712300058454275,0.04773190012201667,0.09176120022311807,0.10194300021976233,0.292395600117743
RSVPLG03,cs,20260501-102646,1.0.2,20251105-084826,833,Practice,Both,1,Automatic,main,2,20260501-102715,global,local,300,S,S,E,E,S-E.png,E-S.png,sS,sS,mask-3.png,mask-1.png,h,0,1.9946999996900558,s,1,2.1957236998714507,0.04857170023024082,0.04765920015051961,0.09996530041098595,0.09982459992170334,0.3017771001905203
RSVPLG03,cs,20260501-102646,1.0.2,20251105-084826,833,Practice,Both,1,Automatic,main,3,20260501-102723,local,local,750,S,S,A,A,A-S.png,A-S.png,sS,sS,mask-4.png,mask-4.png,h,0,2.2256240998394787,s,1,0.5405940003693104,0.047810900025069714,0.047502399887889624,0.10007659997791052,0.10040260013192892,0.7538843997754157
RSVPLG03,cs,20260501-102646,1.0.2,20251105-084826,833,Practice,Both,1,Automatic,main,4,20260501-102730,global,global,750,H,S,E,A,H-E.png,S-A.png,hH,sS,mask-4.png,mask-2.png,s,0,1.5365690002217889,s,1,0.5348706003278494,0.04663170035928488,0.04882519971579313,0.09884130023419857,0.10195509996265173,0.7513551004230976
RSVPLG03,cs,20260501-102646,1.0.2,20251105-084826,833,Practice,Both,1,Automatic,main,5,20260501-102736,local,local,750,S,S,A,E,A-S.png,E-S.png,sS,sS,mask-4.png,mask-4.png,h,0,1.4016686999239028,s,1,0.38871149998158216,0.04750009998679161,0.04766290029510856,0.10146970022469759,0.09968290012329817,0.7541912999004126
RSVPLG03,cs,20260501-102646,1.0.2,20251105-084826,833,Practice,Both,1,Automatic,main,6,20260501-102742,global,global,750,S,S,E,E,S-E.png,S-E.png,sS,sS,mask-3.png,mask-2.png,s,1,1.990371699910611,h,0,0.20380580006167293,0.04674769984558225,0.047804000321775675,0.1000478002242744,0.10181740019470453,0.7519570998847485
RSVPLG03,cs,20260501-102646,1.0.2,20251105-084826,833,Practice,Both,1,Automatic,main,7,20260501-102748,local,global,300,S,H,A,E,A-S.png,H-E.png,sS,hH,mask-4.png,mask-1.png,h,0,2.1033339998684824,s,0,0.09315889980643988,0.04754339996725321,0.04754510009661317,0.10062960023060441,0.09891409985721111,0.3012771001085639
RSVPLG03,cs,20260501-102646,1.0.2,20251105-084826,833,Practice,Both,1,Automatic,main,8,20260501-102754,global,global,300,S,S,E,A,S-E.png,S-A.png,sS,sS,mask-2.png,mask-4.png,h,0,3.6824774998240173,s,1,0.24650359991937876,0.048225900158286095,0.04749020002782345,0.10026600025594234,0.09939350001513958,0.3014026000164449
RSVPLG03,cs,20260501-102646,1.0.2,20251105-084826,833,Practice,Both,1,Automatic,main,9,20260501-102801,local,local,300,S,H,A,E,A-S.png,E-H.png,sS,hH,mask-1.png,mask-1.png,s,1,2.172413400374353,h,1,0.05431269994005561,0.047747999895364046,0.04852839978411794,0.10008260002359748,0.1018467997200787,0.3006629999727011
RSVPLG03,cs,20260501-102646,1.0.2,20251105-084826,833,Practice,Both,1,Automatic,main,10,20260501-102807,global,local,750,H,S,E,A,H-E.png,A-S.png,hH,sS,mask-2.png,mask-2.png,h,1,2.4493141998536885,s,1,0.28571399999782443,0.04768150020390749,0.04879030026495457,0.10192460007965565,0.10098910005763173,0.7528686998412013
RSVPLG03,cs,20260501-102646,1.0.2,20251105-084826,833,Practice,Both,1,Automatic,main,11,20260501-102814,local,global,300,S,H,E,A,E-S.png,H-A.png,sS,hH,mask-2.png,mask-1.png,s,1,2.200543299783021,h,1,0.13512240024283528,0.04738739971071482,0.047317400109022856,0.09987479960545897,0.10130950016900897,0.301244099624455
RSVPLG03,cs,20260501-102646,1.0.2,20251105-084826,833,Practice,Both,1,Automatic,main,12,20260501-102820,global,global,300,S,H,A,A,S-A.png,H-A.png,sS,hH,mask-2.png,mask-3.png,h,0,1.277607100084424,s,0,0.06119699962437153,0.04847279982641339,0.04730599978938699,0.10216029966250062,0.1015547001734376,0.30183999985456467
RSVPLG03,cs,20260501-102646,1.0.2,20251105-084826,833,Practice,Both,1,Automatic,main,13,20260501-102825,global,local,300,S,S,E,A,S-E.png,A-S.png,sS,sS,mask-4.png,mask-4.png,s,1,0.8446283000521362,s,1,0.12142019998282194,0.04720030026510358,0.04711769986897707,0.10194130009040236,0.09969979990273714,0.30252990033477545
RSVPLG03,cs,20260501-102646,1.0.2,20251105-084826,833,Practice,Both,1,Automatic,main,14,20260501-102830,local,global,750,S,H,A,E,A-S.png,H-E.png,sS,hH,mask-1.png,mask-3.png,s,1,1.144206500146538,h,1,0.021216799970716238,0.04741790005937219,0.04971909988671541,0.10092730028554797,0.1021310999058187,0.7525220001116395
RSVPLG03,cs,20260501-102646,1.0.2,20251105-084826,833,Practice,Both,1,Automatic,main,15,20260501-102835,global,local,750,S,H,A,A,S-A.png,A-H.png,sS,hH,mask-3.png,mask-4.png,s,1,0.7394429999403656,h,1,0.8522668997757137,0.04867580020800233,0.04683670029044151,0.10089450003579259,0.10004580020904541,0.7541481000371277
RSVPLG03,cs,20260501-102646,1.0.2,20251105-084826,833,Practice,Both,1,Automatic,main,16,20260501-102840,local,global,750,S,H,E,E,E-S.png,H-E.png,sS,hH,mask-1.png,mask-2.png,s,1,0.7946248999796808,h,1,0.9067819002084434,0.0475250999443233,0.04656219994649291,0.10030720010399818,0.10044879978522658,0.7530403002165258
RSVPLG03,cs,20260501-102934,1.0.2,20251105-084826,833,Practice,Both,1,Automatic,main,1,20260501-103006,local,local,750,S,H,A,A,A-S.png,A-H.png,sS,hH,mask-2.png,mask-2.png,s,1,2.5094602000899613,h,1,0.8677401999011636,0.04067370016127825,0.046178999822586775,0.09192930022254586,0.0990584995597601,0.7410068004392087
RSVPLG03,cs,20260501-102934,1.0.2,20251105-084826,833,Practice,Both,1,Automatic,main,2,20260501-103013,local,global,300,H,S,E,A,E-H.png,S-A.png,hH,sS,mask-4.png,mask-3.png,h,1,3.9784551998600364,s,1,0.25484689977020025,0.04644430009648204,0.04748419998213649,0.09929669974371791,0.09936269978061318,0.2995768999680877
RSVPLG03,cs,20260501-102934,1.0.2,20251105-084826,833,Practice,Both,1,Automatic,main,3,20260501-103021,local,global,750,S,H,E,A,E-S.png,H-A.png,sS,hH,mask-2.png,mask-3.png,s,1,0.8256331998854876,s,0,0.07715309970080853,0.04821310006082058,0.04749260004609823,0.09990409994497895,0.1015008999966085,0.7462921999394894
RSVPLG03,cs,20260501-102934,1.0.2,20251105-084826,833,Practice,Both,1,Automatic,main,4,20260501-103026,local,global,300,H,H,E,E,E-H.png,H-E.png,hH,hH,mask-4.png,mask-2.png,h,1,0.9380291001871228,h,1,0.10349360015243292,0.04686139989644289,0.04683589981868863,0.09925309987738729,0.0980545999482274,0.2994721997529268
RSVPLG03,cs,20260501-102934,1.0.2,20251105-084826,833,Practice,Both,1,Automatic,main,5,20260501-103031,global,global,300,S,S,A,E,S-A.png,S-E.png,sS,sS,mask-2.png,mask-3.png,h,0,1.3617571000941098,s,1,0.027582500129938126,0.04748209984973073,0.04769949987530708,0.09969299985095859,0.09986519999802113,0.2991685001179576
RSVPLG03,cs,20260501-102934,1.0.2,20251105-084826,833,Practice,Both,1,Automatic,main,6,20260501-103036,global,global,750,S,H,A,A,S-A.png,H-A.png,sS,hH,mask-3.png,mask-4.png,s,1,0.614536099601537,s,0,0.12587150000035763,0.046736299991607666,0.046724800020456314,0.0989398998208344,0.09991190023720264,0.7480099997483194
RSVPLG03,cs,20260501-102934,1.0.2,20251105-084826,833,Practice,Both,1,Automatic,main,7,20260501-103040,global,local,300,S,S,E,E,S-E.png,E-S.png,sS,sS,mask-2.png,mask-3.png,s,1,1.8326477999798954,s,1,0.09395870007574558,0.04674040013924241,0.046626499854028225,0.09912540018558502,0.09936759993433952,0.298418499995023
RSVPLG03,cs,20260501-102934,1.0.2,20251105-084826,833,Practice,Both,1,Automatic,main,8,20260501-103046,local,global,750,H,S,E,E,E-H.png,S-E.png,hH,sS,mask-3.png,mask-4.png,h,1,1.0951364003121853,s,1,0.18667800026014447,0.04773079976439476,0.04759830003604293,0.09992449963465333,0.09884770028293133,0.7485137996263802
RSVPLG03,cs,20260501-102934,1.0.2,20251105-084826,833,Practice,Both,1,Automatic,main,9,20260501-103051,local,local,300,H,H,A,A,A-H.png,A-H.png,hH,hH,mask-1.png,mask-3.png,h,1,0.5174206998199224,h,1,0.1414182004518807,0.04762239987030625,0.0467225001193583,0.09959009988233447,0.09935769997537136,0.29929160000756383
RSVPLG03,cs,20260501-102934,1.0.2,20251105-084826,833,Practice,Both,1,Automatic,main,10,20260501-103056,global,global,750,S,H,E,A,S-E.png,H-A.png,sS,hH,mask-2.png,mask-3.png,s,1,0.5095874997787178,s,0,0.08474280033260584,0.04771179985255003,0.04574979981407523,0.10091909999027848,0.09794549969956279,0.748273900244385
RSVPLG03,cs,20260501-102934,1.0.2,20251105-084826,833,Practice,Both,1,Automatic,main,11,20260501-103100,global,local,750,S,H,A,A,S-A.png,A-H.png,sS,hH,mask-2.png,mask-4.png,s,1,0.4740283000282943,h,1,0.04142469959333539,0.04731799988076091,0.04884020006284118,0.09936439990997314,0.09976179990917444,0.7469419999979436
RSVPLG03,cs,20260501-102934,1.0.2,20251105-084826,833,Practice,Both,1,Automatic,main,12,20260501-103105,local,local,750,S,H,E,A,E-S.png,A-H.png,sS,hH,mask-2.png,mask-3.png,s,1,0.9130607997067273,h,1,0.09164639981463552,0.0483561996370554,0.04759390000253916,0.10034769959747791,0.09967759996652603,0.7475963998585939
RSVPLG03,cs,20260501-102934,1.0.2,20251105-084826,833,Practice,Both,1,Automatic,main,13,20260501-103110,global,local,300,S,S,E,E,S-E.png,E-S.png,sS,sS,mask-4.png,mask-3.png,s,1,0.8603040003217757,s,1,0.10508690029382706,0.04763690009713173,0.046427200082689524,0.0989792998880148,0.09944309992715716,0.2996188998222351
RSVPLG03,cs,20260501-102934,1.0.2,20251105-084826,833,Practice,Both,1,Automatic,main,14,20260501-103114,local,local,300,H,H,E,E,E-H.png,E-H.png,hH,hH,mask-2.png,mask-3.png,h,1,0.7725154999643564,s,0,0.11654239986091852,0.04638630012050271,0.04728709999471903,0.0995006999000907,0.09830270009115338,0.2996844998560846
RSVPLG03,cs,20260501-102934,1.0.2,20251105-084826,833,Practice,Both,1,Automatic,main,15,20260501-103119,global,global,300,S,S,A,A,S-A.png,S-A.png,sS,sS,mask-1.png,mask-1.png,s,1,1.7863119998946786,h,0,0.6932373000308871,0.04755979962646961,0.04896239982917905,0.09804429998621345,0.10132900020107627,0.29719429975375533
RSVPLG03,cs,20260501-102934,1.0.2,20251105-084826,833,Practice,Both,1,Automatic,main,16,20260501-103125,global,local,750,H,S,E,A,H-E.png,A-S.png,hH,sS,mask-2.png,mask-4.png,h,1,0.5178890000097454,s,1,0.36539889965206385,0.04776669992133975,0.04641439998522401,0.09977460000663996,0.09941360028460622,0.7478467999026179
RSVPLG03,cs,20260501-103232,1.0.2,20251105-084826,833,Experiment,Both,1,Automatic,warmup,1,20260501-103307,global,local,300,S,S,E,A,S-E.png,A-S.png,sS,sS,mask-1.png,mask-2.png,h,0,0.8623167998157442,s,1,0.07909689983353019,0.04076270014047623,0.048154900316148996,0.09390470013022423,0.10022070026025176,0.29422649974003434
RSVPLG03,cs,20260501-103232,1.0.2,20251105-084826,833,Experiment,Both,1,Automatic,warmup,2,20260501-103312,global,local,750,H,H,E,A,H-E.png,A-H.png,hH,hH,mask-3.png,mask-3.png,h,1,0.5605361997149885,h,1,0.12255339976400137,0.04698210023343563,0.047626799903810024,0.0996457003057003,0.0991835999302566,0.7504698000848293
RSVPLG03,cs,20260501-103232,1.0.2,20251105-084826,833,Experiment,Both,1,Automatic,warmup,3,20260501-103317,local,global,300,S,S,E,E,E-S.png,S-E.png,sS,sS,mask-2.png,mask-3.png,s,1,0.7604972999542952,s,1,0.31018650019541383,0.04768669977784157,0.047610100358724594,0.10004010004922748,0.09969810023903847,0.29871549969539046
RSVPLG03,cs,20260501-103232,1.0.2,20251105-084826,833,Experiment,Both,1,Automatic,warmup,4,20260501-103322,global,global,300,H,H,A,A,H-A.png,H-A.png,hH,hH,mask-4.png,mask-4.png,h,1,0.9381562997587025,h,1,0.08247710019350052,0.04854129999876022,0.04757819976657629,0.10059879999607801,0.09828339982777834,0.3009385000914335
RSVPLG03,cs,20260501-103232,1.0.2,20251105-084826,833,Experiment,Both,1,Automatic,main,5,20260501-103326,global,global,300,S,S,A,E,S-A.png,S-E.png,sS,sS,mask-3.png,mask-2.png,s,1,0.5639575999230146,s,1,0.1803150000050664,0.04668539995327592,0.04765710001811385,0.10065620020031929,0.0996628999710083,0.30027579981833696
RSVPLG03,cs,20260501-103232,1.0.2,20251105-084826,833,Experiment,Both,1,Automatic,main,6,20260501-103331,local,global,750,S,H,A,E,A-S.png,H-E.png,sS,hH,mask-4.png,mask-2.png,s,1,0.5525376996956766,h,1,0.17624719999730587,0.04742079973220825,0.04778529983013868,0.10053069982677698,0.09999890020117164,0.7489740997552872
RSVPLG03,cs,20260501-103232,1.0.2,20251105-084826,833,Experiment,Both,1,Automatic,main,7,20260501-103336,global,local,750,H,H,E,E,H-E.png,E-H.png,hH,hH,mask-4.png,mask-3.png,h,1,0.4383521000854671,h,1,0.16493710037320852,0.04835049994289875,0.04682830022647977,0.10044900001958013,0.09991070022806525,0.7506840000860393
RSVPLG03,cs,20260501-103232,1.0.2,20251105-084826,833,Experiment,Both,1,Automatic,main,8,20260501-103340,local,global,300,S,H,E,E,E-S.png,H-E.png,sS,hH,mask-3.png,mask-1.png,s,1,0.554214300122112,h,1,0.1017064000479877,0.04753480013459921,0.04684520000591874,0.09916340000927448,0.09956099977716804,0.29974510008469224
RSVPLG03,cs,20260501-103232,1.0.2,20251105-084826,833,Experiment,Both,1,Automatic,main,9,20260501-103345,global,local,750,S,S,E,A,S-E.png,A-S.png,sS,sS,mask-3.png,mask-2.png,s,1,0.3862588000483811,s,1,0.10583710018545389,0.04733109986409545,0.04769500019028783,0.09925589989870787,0.098789700306952,0.7507157996296883
RSVPLG03,cs,20260501-103232,1.0.2,20251105-084826,833,Experiment,Both,1,Automatic,main,10,20260501-103349,local,global,300,S,H,E,A,E-S.png,H-A.png,sS,hH,mask-1.png,mask-3.png,s,1,0.5931595996953547,h,1,0.12186930002644658,0.0477742999792099,0.04780150018632412,0.10150149976834655,0.09923839988186955,0.3003977998159826
RSVPLG03,cs,20260501-103232,1.0.2,20251105-084826,833,Experiment,Both,1,Automatic,main,11,20260501-103354,local,local,750,S,S,A,E,A-S.png,E-S.png,sS,sS,mask-1.png,mask-3.png,s,1,0.4463868997991085,s,1,0.12557450029999018,0.048265999648720026,0.04687369987368584,0.09958639973774552,0.09961679996922612,0.75055419979617
RSVPLG03,cs,20260501-103232,1.0.2,20251105-084826,833,Experiment,Both,1,Automatic,main,12,20260501-103358,local,local,300,S,S,E,E,E-S.png,E-S.png,sS,sS,mask-3.png,mask-4.png,s,1,0.42474350007250905,h,0,0.0846412000246346,0.04774460010230541,0.045345500111579895,0.10080459993332624,0.09795409999787807,0.30204789992421865
RSVPLG03,cs,20260501-103232,1.0.2,20251105-084826,833,Experiment,Both,1,Automatic,main,13,20260501-103403,local,global,750,S,S,E,E,E-S.png,S-E.png,sS,sS,mask-1.png,mask-4.png,s,1,0.4964917995966971,s,1,0.1331771998666227,0.046671700198203325,0.047780100256204605,0.09889989998191595,0.09900210006162524,0.7501039998605847
RSVPLG03,cs,20260501-103232,1.0.2,20251105-084826,833,Experiment,Both,1,Automatic,main,14,20260501-103407,global,local,750,S,H,E,A,S-E.png,A-H.png,sS,hH,mask-4.png,mask-2.png,s,1,0.38366559986025095,h,1,0.1387324002571404,0.04734889976680279,0.04767689993605018,0.10101479990407825,0.0988888000138104,0.751303100027144
RSVPLG03,cs,20260501-103232,1.0.2,20251105-084826,833,Experiment,Both,1,Automatic,main,15,20260501-103412,local,global,750,H,H,A,A,A-H.png,H-A.png,hH,hH,mask-4.png,mask-4.png,h,1,0.6170781003311276,h,1,0.1352276001125574,0.04767080023884773,0.04758530016988516,0.0998415001668036,0.09984140004962683,0.7500291001051664
RSVPLG03,cs,20260501-103232,1.0.2,20251105-084826,833,Experiment,Both,1,Automatic,main,16,20260501-103417,global,local,300,S,S,E,E,S-E.png,E-S.png,sS,sS,mask-1.png,mask-4.png,s,1,0.8253712998703122,s,1,0.10589510016143322,0.047858900390565395,0.04869969980791211,0.1003106003627181,0.1000415999442339,0.29977980023249984
RSVPLG03,cs,20260501-103232,1.0.2,20251105-084826,833,Experiment,Both,1,Automatic,main,17,20260501-103422,global,local,750,H,H,E,A,H-E.png,A-H.png,hH,hH,mask-2.png,mask-1.png,h,1,0.7133549000136554,h,1,0.13507329998537898,0.047710100188851357,0.047610499896109104,0.10024899989366531,0.09909909963607788,0.7500487002544105
RSVPLG03,cs,20260501-103232,1.0.2,20251105-084826,833,Experiment,Both,1,Automatic,main,18,20260501-103427,global,local,300,H,H,A,A,H-A.png,A-H.png,hH,hH,mask-1.png,mask-4.png,h,1,1.9187742001377046,s,0,0.11203479999676347,0.04875240009278059,0.048019399866461754,0.10110210021957755,0.10030279960483313,0.3007030002772808
RSVPLG03,cs,20260501-103232,1.0.2,20251105-084826,833,Experiment,Both,1,Automatic,main,19,20260501-103432,global,local,300,H,S,A,E,H-A.png,E-S.png,hH,sS,mask-2.png,mask-4.png,s,0,1.5713301999494433,h,0,0.09086330002173781,0.04631880018860102,0.04766910010948777,0.09848729986697435,0.09955630032345653,0.2995088999159634
RSVPLG03,cs,20260501-103232,1.0.2,20251105-084826,833,Experiment,Both,1,Automatic,main,20,20260501-103438,local,local,750,S,S,E,E,E-S.png,E-S.png,sS,sS,mask-2.png,mask-2.png,s,1,0.38796869991347194,s,1,0.07538209995254874,0.04757049959152937,0.04753299988806248,0.09856329998001456,0.09958019992336631,0.7503068000078201
RSVPLG03,cs,20260501-103232,1.0.2,20251105-084826,833,Experiment,Both,1,Automatic,main,21,20260501-103442,local,local,750,S,S,A,E,A-S.png,E-S.png,sS,sS,mask-3.png,mask-2.png,s,1,0.44267400028184056,h,0,0.14983309991657734,0.048779099714010954,0.046676899772137403,0.10098080011084676,0.09868009993806481,0.752553400117904
RSVPLG03,cs,20260501-103232,1.0.2,20251105-084826,833,Experiment,Both,1,Automatic,main,22,20260501-103447,global,local,750,S,H,A,E,S-A.png,E-H.png,sS,hH,mask-1.png,mask-1.png,h,0,2.023282299749553,h,1,0.1374353002756834,0.04687609989196062,0.04853250039741397,0.09876949992030859,0.10155730042606592,0.7483814996667206
RSVPLG03,cs,20260501-103232,1.0.2,20251105-084826,833,Experiment,Both,1,Automatic,main,23,20260501-103453,global,global,300,H,S,A,E,H-A.png,S-E.png,hH,sS,mask-4.png,mask-1.png,h,1,0.5570657001808286,s,1,0.10714179975911975,0.047501999884843826,0.04730769991874695,0.09950959961861372,0.10021679988130927,0.29951469972729683
RSVPLG03,cs,20260501-103232,1.0.2,20251105-084826,833,Experiment,Both,1,Automatic,main,24,20260501-103458,local,global,750,H,S,E,E,E-H.png,S-E.png,hH,sS,mask-2.png,mask-4.png,s,0,0.3925855001434684,s,1,0.09050050005316734,0.04752000002190471,0.04775470029562712,0.09864560002461076,0.10088630020618439,0.7488784999586642
RSVPLG03,cs,20260501-103232,1.0.2,20251105-084826,833,Experiment,Both,1,Automatic,main,25,20260501-103502,global,local,300,H,H,A,E,H-A.png,E-H.png,hH,hH,mask-2.png,mask-2.png,h,1,0.6285711000673473,h,1,0.09045299980789423,0.04772510007023811,0.04649819992482662,0.09989449987187982,0.09969979990273714,0.3003601999953389
RSVPLG03,cs,20260501-103232,1.0.2,20251105-084826,833,Experiment,Both,1,Automatic,main,26,20260501-103514,local,local,750,S,S,E,A,E-S.png,A-S.png,sS,sS,mask-2.png,mask-1.png,s,1,0.3862974001094699,s,1,0.0864070001989603,0.046938300132751465,0.0465212999843061,0.10000550001859665,0.09953920030966401,0.7511843000538647
RSVPLG03,cs,20260501-103232,1.0.2,20251105-084826,833,Experiment,Both,1,Automatic,main,27,20260501-103519,local,global,300,H,S,A,A,A-H.png,S-A.png,hH,sS,mask-3.png,mask-1.png,h,1,0.43246159981936216,h,0,0.12368359975516796,0.04800239996984601,0.04653599997982383,0.10207210015505552,0.09952310007065535,0.3023757999762893
RSVPLG03,cs,20260501-103232,1.0.2,20251105-084826,833,Experiment,Both,1,Automatic,main,28,20260501-103523,global,global,750,H,H,A,E,H-A.png,H-E.png,hH,hH,mask-1.png,mask-3.png,h,1,0.7448284002020955,s,0,0.08722000010311604,0.0485449000261724,0.0476346998475492,0.10155540006235242,0.10065220016986132,0.7511424999684095
RSVPLG03,cs,20260501-103232,1.0.2,20251105-084826,833,Experiment,Both,1,Automatic,main,29,20260501-103528,local,global,750,S,H,E,E,E-S.png,H-E.png,sS,hH,mask-1.png,mask-3.png,s,1,0.5236138999462128,h,1,0.10523639991879463,0.04752299981191754,0.048451799899339676,0.1005052998661995,0.10037059988826513,0.7498008999973536
RSVPLG03,cs,20260501-103232,1.0.2,20251105-084826,833,Experiment,Both,1,Automatic,main,30,20260501-103533,local,local,750,H,H,E,A,E-H.png,A-H.png,hH,hH,mask-4.png,mask-1.png,s,0,1.1501516001299024,h,1,0.6415737997740507,0.04806050006300211,0.048738500103354454,0.09985709981992841,0.09991819970309734,0.7495585000142455
RSVPLG03,cs,20260501-103232,1.0.2,20251105-084826,833,Experiment,Both,1,Automatic,main,31,20260501-103539,local,local,750,H,H,A,E,A-H.png,E-H.png,hH,hH,mask-4.png,mask-4.png,h,1,0.4215200999751687,h,1,0.1573287001810968,0.046923100017011166,0.047660599928349257,0.09923150017857552,0.09984429972246289,0.7495002001523972
RSVPLG03,cs,20260501-103232,1.0.2,20251105-084826,833,Experiment,Both,1,Automatic,main,32,20260501-103544,global,global,750,S,S,E,E,S-E.png,S-E.png,sS,sS,mask-1.png,mask-3.png,s,1,0.651067600119859,h,0,0.5817911000922322,0.0479611000046134,0.0486735999584198,0.10132250003516674,0.10072079999372363,0.7507577002979815
RSVPLG03,cs,20260501-103232,1.0.2,20251105-084826,833,Experiment,Both,1,Automatic,main,33,20260501-103549,global,global,300,S,S,A,E,S-A.png,S-E.png,sS,sS,mask-2.png,mask-4.png,s,1,0.8204118004068732,h,0,0.10424309968948364,0.04808400012552738,0.04785449989140034,0.10033489996567369,0.09900779975578189,0.3011610000394285
RSVPLG03,cs,20260501-103232,1.0.2,20251105-084826,833,Experiment,Both,1,Automatic,main,34,20260501-103554,local,local,300,H,S,E,A,E-H.png,A-S.png,hH,sS,mask-2.png,mask-2.png,h,1,1.0501251998357475,h,0,0.15118160005658865,0.04667020030319691,0.047706099692732096,0.09985690005123615,0.10073489975184202,0.2994519001804292
RSVPLG03,cs,20260501-103232,1.0.2,20251105-084826,833,Experiment,Both,1,Automatic,main,35,20260501-103559,local,global,750,H,S,A,E,A-H.png,S-E.png,hH,sS,mask-1.png,mask-1.png,h,1,0.4485992002300918,s,1,0.10436729993671179,0.048677099868655205,0.04672229988500476,0.10095250001177192,0.09931330010294914,0.7505876999348402
RSVPLG03,cs,20260501-103232,1.0.2,20251105-084826,833,Experiment,Both,1,Automatic,main,36,20260501-103603,global,local,750,H,H,E,E,H-E.png,E-H.png,hH,hH,mask-1.png,mask-1.png,h,1,0.6178405000828207,h,1,0.11861460004001856,0.04662469960749149,0.048178700264543295,0.09980809967964888,0.10136070009320974,0.748962499666959
RSVPLG03,cs,20260501-103232,1.0.2,20251105-084826,833,Experiment,Both,1,Automatic,main,37,20260501-103608,local,global,750,S,S,A,A,A-S.png,S-A.png,sS,sS,mask-2.png,mask-2.png,h,0,1.2533498001284897,s,1,0.13896739995107055,0.047560099977999926,0.048610900063067675,0.09858959959819913,0.09960309974849224,0.7491136998869479
RSVPLG03,cs,20260501-103232,1.0.2,20251105-084826,833,Experiment,Both,1,Automatic,main,38,20260501-103614,global,global,750,S,S,A,A,S-A.png,S-A.png,sS,sS,mask-1.png,mask-4.png,s,1,0.38543839985504746,s,1,0.09358839970082045,0.04785179998725653,0.04750650003552437,0.0999058997258544,0.1005216003395617,0.7496411995962262
RSVPLG03,cs,20260501-103232,1.0.2,20251105-084826,833,Experiment,Both,1,Automatic,main,39,20260501-103618,local,global,300,S,S,A,A,A-S.png,S-A.png,sS,sS,mask-1.png,mask-4.png,s,1,1.3358126999810338,h,0,0.06065119989216328,0.04761100001633167,0.046038399916142225,0.1001733997836709,0.09827820025384426,0.30178269976750016
RSVPLG03,cs,20260501-103232,1.0.2,20251105-084826,833,Experiment,Both,1,Automatic,main,40,20260501-103623,global,global,750,S,S,E,A,S-E.png,S-A.png,sS,sS,mask-4.png,mask-4.png,s,1,0.7167954999022186,s,1,0.09143200004473329,0.047595399897545576,0.0469502997584641,0.09990129992365837,0.10030469996854663,0.7497029998339713
RSVPLG03,cs,20260501-103232,1.0.2,20251105-084826,833,Experiment,Both,1,Automatic,main,41,20260501-103628,global,local,300,S,S,A,E,S-A.png,E-S.png,sS,sS,mask-1.png,mask-1.png,s,1,1.0655164001509547,s,1,0.3281995002180338,0.04567029979079962,0.048256299924105406,0.09984310017898679,0.10138519993051887,0.298248799983412
RSVPLG03,cs,20260501-103232,1.0.2,20251105-084826,833,Experiment,Both,1,Automatic,main,42,20260501-103634,local,global,300,H,H,E,A,E-H.png,H-A.png,hH,hH,mask-2.png,mask-3.png,s,0,0.8396964003331959,h,1,0.10281379986554384,0.048022700008004904,0.047325000166893005,0.10040469979867339,0.1006636000238359,0.29989989986643195
RSVPLG03,cs,20260501-103232,1.0.2,20251105-084826,833,Experiment,Both,1,Automatic,main,43,20260501-103638,global,global,750,S,S,A,E,S-A.png,S-E.png,sS,sS,mask-3.png,mask-4.png,h,0,0.7347261998802423,s,1,0.09282580018043518,0.04828839981928468,0.04858169984072447,0.100651899818331,0.09957400010898709,0.7513661999255419
RSVPLG03,cs,20260501-103232,1.0.2,20251105-084826,833,Experiment,Both,1,Automatic,main,44,20260501-103643,local,global,300,H,S,A,E,A-H.png,S-E.png,hH,sS,mask-1.png,mask-2.png,s,0,0.7187640001066029,s,1,1.1472685001790524,0.0475407000631094,0.04751569963991642,0.0985916000790894,0.10056949965655804,0.29987460002303123
RSVPLG03,cs,20260501-103232,1.0.2,20251105-084826,833,Experiment,Both,1,Automatic,main,45,20260501-103649,global,local,300,S,H,E,E,S-E.png,E-H.png,sS,hH,mask-4.png,mask-3.png,s,1,1.0997008001431823,s,0,0.07303619990125299,0.04750390024855733,0.047595399897545576,0.10072700027376413,0.10078740026801825,0.3005295000039041
RSVPLG03,cs,20260501-103232,1.0.2,20251105-084826,833,Experiment,Both,1,Automatic,main,46,20260501-103654,global,global,300,S,H,E,E,S-E.png,H-E.png,sS,hH,mask-2.png,mask-3.png,s,1,0.40622320026159286,h,1,0.06147899990901351,0.046670999843627214,0.048715800046920776,0.09889639960601926,0.09989270009100437,0.29874669993296266
RSVPLG03,cs,20260501-103232,1.0.2,20251105-084826,833,Experiment,Both,1,Automatic,main,47,20260501-103658,global,local,300,S,H,A,E,S-A.png,E-H.png,sS,hH,mask-1.png,mask-4.png,s,1,1.2669601999223232,s,0,0.08639930002391338,0.04753299988806248,0.046689999755471945,0.1007256000302732,0.09881890006363392,0.30119469994679093
RSVPLG03,cs,20260501-103232,1.0.2,20251105-084826,833,Experiment,Both,1,Automatic,main,48,20260501-103703,global,global,750,H,S,A,A,H-A.png,S-A.png,hH,sS,mask-1.png,mask-2.png,h,1,1.714040799997747,s,1,0.10308249993249774,0.04752900032326579,0.04766079969704151,0.09969380032271147,0.0994752999395132,0.7500659003853798
RSVPLG03,cs,20260501-103232,1.0.2,20251105-084826,833,Experiment,Both,1,Automatic,main,49,20260501-103709,global,global,750,S,H,A,A,S-A.png,H-A.png,sS,hH,mask-3.png,mask-3.png,s,1,0.5979491998441517,h,1,0.24679799983277917,0.04703640006482601,0.04808039963245392,0.10116790002211928,0.09917379962280393,0.750104300212115
RSVPLG03,cs,20260501-103232,1.0.2,20251105-084826,833,Experiment,Both,1,Automatic,main,50,20260501-103714,local,local,300,S,S,E,E,E-S.png,E-S.png,sS,sS,mask-3.png,mask-4.png,s,1,2.996137900277972,h,0,0.12367580039426684,0.04600430000573397,0.04875299986451864,0.09907160000875592,0.10079050017520785,0.2987500997260213
RSVPLG03,cs,20260501-103232,1.0.2,20251105-084826,833,Experiment,Both,1,Automatic,main,51,20260501-103726,global,local,750,H,S,E,E,H-E.png,E-S.png,hH,sS,mask-2.png,mask-4.png,s,0,0.6239645001478493,h,0,0.10924449982121587,0.04650449985638261,0.04751749988645315,0.09855140000581741,0.10051129991188645,0.7496838001534343
RSVPLG03,cs,20260501-103232,1.0.2,20251105-084826,833,Experiment,Both,1,Automatic,main,52,20260501-103731,local,local,300,S,H,A,A,A-S.png,A-H.png,sS,hH,mask-3.png,mask-3.png,s,1,0.7685826001688838,h,1,0.010317800100892782,0.04751629987731576,0.048573500011116266,0.09853410022333264,0.09958619996905327,0.2989722001366317
RSVPLG03,cs,20260501-103232,1.0.2,20251105-084826,833,Experiment,Both,1,Automatic,main,53,20260501-103736,global,global,300,S,S,E,E,S-E.png,S-E.png,sS,sS,mask-4.png,mask-3.png,s,1,0.4858011999167502,s,1,0.12907519983127713,0.04627930000424385,0.04625200014561415,0.10051100002601743,0.09939010022208095,0.3001044997945428
RSVPLG03,cs,20260501-103232,1.0.2,20251105-084826,833,Experiment,Both,1,Automatic,main,54,20260501-103740,global,global,300,H,H,A,E,H-A.png,H-E.png,hH,hH,mask-2.png,mask-1.png,h,1,1.440564800053835,s,0,0.07937239995226264,0.04765519965440035,0.04630610020831227,0.1008897996507585,0.09919620025902987,0.30064049968495965
RSVPLG03,cs,20260501-103232,1.0.2,20251105-084826,833,Experiment,Both,1,Automatic,main,55,20260501-103745,global,global,750,H,S,E,A,H-E.png,S-A.png,hH,sS,mask-2.png,mask-3.png,h,1,0.77565550012514,s,1,0.13559099985286593,0.046989900059998035,0.04861319996416569,0.09838169999420643,0.09982329979538918,0.7484003002755344
RSVPLG03,cs,20260501-103232,1.0.2,20251105-084826,833,Experiment,Both,1,Automatic,main,56,20260501-103750,local,global,750,S,H,E,A,E-S.png,H-A.png,sS,hH,mask-3.png,mask-4.png,s,1,2.365421900060028,h,1,0.07805299991741776,0.048050000332295895,0.047479599714279175,0.10017460025846958,0.10073979990556836,0.7495648004114628
RSVPLG03,cs,20260501-103232,1.0.2,20251105-084826,833,Experiment,Both,1,Automatic,main,57,20260501-103757,local,local,300,H,H,A,A,A-H.png,A-H.png,hH,hH,mask-3.png,mask-1.png,h,1,1.4728747000917792,h,1,0.10925159975886345,0.046712299808859825,0.04750159988179803,0.10069079976528883,0.09932370018213987,0.300900099799037
RSVPLG03,cs,20260501-103232,1.0.2,20251105-084826,833,Experiment,Both,1,Automatic,main,58,20260501-103802,local,global,300,H,S,A,E,A-H.png,S-E.png,hH,sS,mask-2.png,mask-3.png,s,0,1.728148799855262,h,0,0.076369300018996,0.04870350006967783,0.04768790025264025,0.09977940004318953,0.0998528003692627,0.3007120997644961
RSVPLG03,cs,20260501-103232,1.0.2,20251105-084826,833,Experiment,Both,1,Automatic,main,59,20260501-103808,local,local,750,H,S,E,A,E-H.png,A-S.png,hH,sS,mask-2.png,mask-4.png,h,1,0.7232212000526488,s,1,0.04007160011678934,0.047715799883008,0.047703399788588285,0.09924839995801449,0.09987139981240034,0.750078100245446
RSVPLG03,cs,20260501-103232,1.0.2,20251105-084826,833,Experiment,Both,1,Automatic,main,60,20260501-103812,global,global,300,S,S,E,E,S-E.png,S-E.png,sS,sS,mask-2.png,mask-1.png,s,1,0.4222903000190854,s,1,0.09297209978103638,0.04755700007081032,0.047536800149828196,0.09901269990950823,0.0995579999871552,0.30037180008366704
RSVPLG03,cs,20260501-103232,1.0.2,20251105-084826,833,Experiment,Both,1,Automatic,main,61,20260501-103817,local,global,300,H,S,A,A,A-H.png,S-A.png,hH,sS,mask-4.png,mask-4.png,h,1,0.6901265000924468,s,1,0.10867330012843013,0.04776549991220236,0.04837010009214282,0.09964219992980361,0.0995423998683691,0.30000940011814237
RSVPLG03,cs,20260501-103232,1.0.2,20251105-084826,833,Experiment,Both,1,Automatic,main,62,20260501-103821,global,global,300,H,H,E,E,H-E.png,H-E.png,hH,hH,mask-1.png,mask-2.png,h,1,0.5007458003237844,h,1,0.17542860005050898,0.04776709992438555,0.0482103000395,0.09980359999462962,0.10038170032203197,0.2995662000030279
RSVPLG03,cs,20260501-103232,1.0.2,20251105-084826,833,Experiment,Both,1,Automatic,main,63,20260501-103826,local,local,300,H,H,E,A,E-H.png,A-H.png,hH,hH,mask-3.png,mask-4.png,h,1,1.0151519998908043,s,0,0.04345720028504729,0.048045000061392784,0.04839339992031455,0.09918939974159002,0.10049320012331009,0.29969129990786314
RSVPLG03,cs,20260501-103232,1.0.2,20251105-084826,833,Experiment,Both,1,Automatic,main,64,20260501-103830,global,local,750,S,H,E,A,S-E.png,A-H.png,sS,hH,mask-4.png,mask-2.png,s,1,0.5334847001358867,s,0,0.9439542996697128,0.047081499826163054,0.045323200058192015,0.09825889999046922,0.09961389983072877,0.7499484000727534
RSVPLG03,cs,20260501-103232,1.0.2,20251105-084826,833,Experiment,Both,1,Automatic,main,65,20260501-103836,local,global,750,S,H,A,A,A-S.png,H-A.png,sS,hH,mask-1.png,mask-4.png,s,1,0.9816903001628816,h,1,0.18802579957991838,0.047349799890071154,0.0458774003200233,0.10002670018002391,0.09946610033512115,0.7504190998151898
RSVPLG03,cs,20260501-103232,1.0.2,20251105-084826,833,Experiment,Both,1,Automatic,main,66,20260501-103841,global,global,300,S,H,A,E,S-A.png,H-E.png,sS,hH,mask-2.png,mask-1.png,s,1,1.3455685996450484,h,1,0.1848238999955356,0.04747409978881478,0.04748599976301193,0.09829630004242063,0.09857219969853759,0.2999877999536693
RSVPLG03,cs,20260501-103232,1.0.2,20251105-084826,833,Experiment,Both,1,Automatic,main,67,20260501-103847,local,local,300,S,H,E,E,E-S.png,E-H.png,sS,hH,mask-2.png,mask-3.png,s,1,1.5953069003298879,s,0,0.5562922996468842,0.047769099939614534,0.04765590000897646,0.09978669974952936,0.09884819993749261,0.3001811997964978
RSVPLG03,cs,20260501-103232,1.0.2,20251105-084826,833,Experiment,Both,1,Automatic,main,68,20260501-103852,global,global,300,S,H,E,E,S-E.png,H-E.png,sS,hH,mask-4.png,mask-4.png,s,1,0.7810622998513281,h,1,0.1312849996611476,0.04768509976565838,0.0480039999820292,0.09887799993157387,0.10081540001556277,0.2985036997124553
RSVPLG03,cs,20260501-103232,1.0.2,20251105-084826,833,Experiment,Both,1,Automatic,main,69,20260501-103857,local,global,750,S,H,A,A,A-S.png,H-A.png,sS,hH,mask-3.png,mask-4.png,h,0,1.148357099853456,h,1,0.23118859995156527,0.04768520034849644,0.048490299843251705,0.09987820032984018,0.10153109999373555,0.7485552001744509
RSVPLG03,cs,20260501-103232,1.0.2,20251105-084826,833,Experiment,Both,1,Automatic,main,70,20260501-103903,global,global,300,S,S,E,E,S-E.png,S-E.png,sS,sS,mask-2.png,mask-4.png,h,0,1.9782571997493505,s,1,0.05961789982393384,0.045736399944871664,0.047316699754446745,0.1003344003111124,0.1004097000695765,0.2998970001935959
RSVPLG03,cs,20260501-103232,1.0.2,20251105-084826,833,Experiment,Both,1,Automatic,main,71,20260501-103908,local,local,750,H,H,A,E,A-H.png,E-H.png,hH,hH,mask-3.png,mask-3.png,h,1,0.3615215001627803,h,1,0.13335480028763413,0.04679520009085536,0.046890000347048044,0.0999846002086997,0.10023300023749471,0.7505956999957561
RSVPLG03,cs,20260501-103232,1.0.2,20251105-084826,833,Experiment,Both,1,Automatic,main,72,20260501-103913,global,global,750,H,S,E,E,H-E.png,S-E.png,hH,sS,mask-3.png,mask-4.png,h,1,0.4811112000606954,s,1,0.07008390035480261,0.04866830026730895,0.04744020011276007,0.09986580023542047,0.09967220015823841,0.750331100076437
RSVPLG03,cs,20260501-103232,1.0.2,20251105-084826,833,Experiment,Both,1,Automatic,main,73,20260501-103918,global,local,300,S,S,E,E,S-E.png,E-S.png,sS,sS,mask-3.png,mask-1.png,h,0,2.149920499883592,s,1,0.039955600164830685,0.04842940019443631,0.04760819999501109,0.10020940005779266,0.0986438998952508,0.30098550021648407
RSVPLG03,cs,20260501-103232,1.0.2,20251105-084826,833,Experiment,Both,1,Automatic,main,74,20260501-103924,local,global,300,S,S,A,E,A-S.png,S-E.png,sS,sS,mask-4.png,mask-2.png,s,1,0.5455745002254844,h,0,0.09144609980285168,0.04770090011879802,0.047735000029206276,0.09875610005110502,0.09974689967930317,0.2990882000885904
RSVPLG03,cs,20260501-103232,1.0.2,20251105-084826,833,Experiment,Both,1,Automatic,main,75,20260501-103928,global,local,300,S,S,A,E,S-A.png,E-S.png,sS,sS,mask-1.png,mask-2.png,s,1,1.1282860999926925,s,1,0.11948199989274144,0.047680099960416555,0.047707800287753344,0.09990620007738471,0.09987820032984018,0.2995315999723971
RSVPLG03,cs,20260501-103232,1.0.2,20251105-084826,833,Experiment,Both,1,Automatic,main,76,20260501-103940,local,local,750,S,S,E,E,E-S.png,E-S.png,sS,sS,mask-1.png,mask-3.png,s,1,0.28716629976406693,s,1,0.06668060040101409,0.04618870001286268,0.04851049976423383,0.10018480010330677,0.10153819993138313,0.7488873000256717
RSVPLG03,cs,20260501-103232,1.0.2,20251105-084826,833,Experiment,Both,1,Automatic,main,77,20260501-103945,local,global,750,S,H,E,E,E-S.png,H-E.png,sS,hH,mask-1.png,mask-1.png,s,1,0.6433875001966953,h,1,0.060984100215137005,0.047374799847602844,0.04852700000628829,0.10040039988234639,0.1005294001661241,0.7499900995753706
RSVPLG03,cs,20260501-103232,1.0.2,20251105-084826,833,Experiment,Both,1,Automatic,main,78,20260501-103950,local,local,300,H,H,E,A,E-H.png,A-H.png,hH,hH,mask-2.png,mask-3.png,h,1,0.9122080998495221,h,1,0.1004845998249948,0.048170499969273806,0.046624799724668264,0.10099990013986826,0.09955629985779524,0.3013741001486778
RSVPLG03,cs,20260501-103232,1.0.2,20251105-084826,833,Experiment,Both,1,Automatic,main,79,20260501-103954,global,local,750,H,S,A,E,H-A.png,E-S.png,hH,sS,mask-1.png,mask-2.png,h,1,0.9107052003964782,s,1,0.11874850001186132,0.045818000100553036,0.04671429982408881,0.09947809996083379,0.10096780024468899,0.7494935998693109
RSVPLG03,cs,20260501-103232,1.0.2,20251105-084826,833,Experiment,Both,1,Automatic,main,80,20260501-103959,global,local,300,S,S,A,A,S-A.png,A-S.png,sS,sS,mask-3.png,mask-3.png,s,1,0.46845339983701706,h,0,0.04094189964234829,0.04760059993714094,0.04760650033131242,0.09977369988337159,0.10054629994556308,0.2994769997894764
RSVPLG03,cs,20260501-103232,1.0.2,20251105-084826,833,Experiment,Both,1,Automatic,main,81,20260501-104004,local,local,750,S,H,E,E,E-S.png,E-H.png,sS,hH,mask-2.png,mask-2.png,s,1,0.2593388999812305,h,1,0.02364230016246438,0.04682059958577156,0.04862800007686019,0.09908790001645684,0.09987020026892424,0.7486965996213257
RSVPLG03,cs,20260501-103232,1.0.2,20251105-084826,833,Experiment,Both,1,Automatic,main,82,20260501-104008,global,global,750,H,H,A,E,H-A.png,H-E.png,hH,hH,mask-2.png,mask-2.png,h,1,0.4850301998667419,h,1,0.12399059999734163,0.04748670011758804,0.04867429984733462,0.09969870001077652,0.09992859978228807,0.7489459002390504
RSVPLG03,cs,20260501-103232,1.0.2,20251105-084826,833,Experiment,Both,1,Automatic,main,83,20260501-104013,local,local,300,H,H,A,A,A-H.png,A-H.png,hH,hH,mask-3.png,mask-2.png,h,1,1.0452054999768734,s,0,0.5074971001595259,0.04670040030032396,0.047788099851459265,0.0998730999417603,0.10078170010820031,0.2994778002612293
RSVPLG03,cs,20260501-103232,1.0.2,20251105-084826,833,Experiment,Both,1,Automatic,main,84,20260501-104018,global,local,300,H,S,A,A,H-A.png,A-S.png,hH,sS,mask-2.png,mask-3.png,h,1,1.4200420998968184,s,1,0.0765888998284936,0.04809809988364577,0.047577999997884035,0.10060969972983003,0.10158429993316531,0.2995319999754429
RSVPLG03,cs,20260501-103232,1.0.2,20251105-084826,833,Experiment,Both,1,Automatic,main,85,20260501-104023,global,global,300,S,H,A,A,S-A.png,H-A.png,sS,hH,mask-2.png,mask-4.png,s,1,0.37879709992557764,h,1,0.13487219996750355,0.04678360000252724,0.0475165001116693,0.09992410009726882,0.09854200016707182,0.30018500005826354
RSVPLG03,cs,20260501-103232,1.0.2,20251105-084826,833,Experiment,Both,1,Automatic,main,86,20260501-104027,local,local,300,S,H,E,E,E-S.png,E-H.png,sS,hH,mask-3.png,mask-3.png,s,1,0.5307410997338593,h,1,0.2496610996313393,0.0466920998878777,0.04763679997995496,0.09888589987531304,0.10180869977921247,0.29874480003491044
RSVPLG03,cs,20260501-103232,1.0.2,20251105-084826,833,Experiment,Both,1,Automatic,main,87,20260501-104032,global,local,750,S,S,E,A,S-E.png,A-S.png,sS,sS,mask-4.png,mask-1.png,s,1,0.856453699991107,h,0,0.08538160007447004,0.048193799797445536,0.04761969996616244,0.10103829996660352,0.0986298001371324,0.751929699908942
RSVPLG03,cs,20260501-103232,1.0.2,20251105-084826,833,Experiment,Both,1,Automatic,main,88,20260501-104037,local,local,300,H,S,E,E,E-H.png,E-S.png,hH,sS,mask-1.png,mask-3.png,h,1,0.5306840999983251,s,1,0.13642949983477592,0.04669740004464984,0.04771560011431575,0.09983570035547018,0.09990900009870529,0.29941949993371964
RSVPLG03,cs,20260501-103232,1.0.2,20251105-084826,833,Experiment,Both,1,Automatic,main,89,20260501-104041,global,local,750,S,S,A,E,S-A.png,E-S.png,sS,sS,mask-2.png,mask-3.png,s,1,0.5640321001410484,h,0,0.2629340998828411,0.04766769986599684,0.04767169989645481,0.09986549988389015,0.09986210009083152,0.7495349999517202
RSVPLG03,cs,20260501-103232,1.0.2,20251105-084826,833,Experiment,Both,1,Automatic,main,90,20260501-104046,global,global,750,S,H,E,E,S-E.png,H-E.png,sS,hH,mask-4.png,mask-4.png,s,1,0.4910615002736449,h,1,0.14913920033723116,0.04757559997960925,0.04770210012793541,0.0987839000299573,0.10076469974592328,0.7499750000424683
RSVPLG03,cs,20260501-103232,1.0.2,20251105-084826,833,Experiment,Both,1,Automatic,main,91,20260501-104051,local,local,300,S,S,E,A,E-S.png,A-S.png,sS,sS,mask-4.png,mask-2.png,s,1,0.6566896000877023,s,1,0.0808076998218894,0.045680500101298094,0.04768029972910881,0.09985509980469942,0.09987569972872734,0.29844640009105206
RSVPLG03,cs,20260501-103232,1.0.2,20251105-084826,833,Experiment,Both,1,Automatic,main,92,20260501-104055,local,global,300,S,H,E,E,E-S.png,H-E.png,sS,hH,mask-2.png,mask-3.png,s,1,0.2772152000106871,h,1,0.15778949996456504,0.04853689996525645,0.048555000219494104,0.10153019987046719,0.1005957000888884,0.299813199788332
RSVPLG03,cs,20260501-103232,1.0.2,20251105-084826,833,Experiment,Both,1,Automatic,main,93,20260501-104100,local,local,750,H,S,A,E,A-H.png,E-S.png,hH,sS,mask-3.png,mask-4.png,h,1,0.2704981998540461,s,1,0.1499826000072062,0.046104599721729755,0.046192099805921316,0.09933919971808791,0.09927969984710217,0.7496926998719573
RSVPLG03,cs,20260501-103232,1.0.2,20251105-084826,833,Experiment,Both,1,Automatic,main,94,20260501-104104,local,global,300,S,S,E,A,E-S.png,S-A.png,sS,sS,mask-1.png,mask-2.png,s,1,0.605755599681288,s,1,0.13197079999372363,0.04752669995650649,0.048983000218868256,0.09953079978004098,0.10048040002584457,0.2982052997685969
RSVPLG03,cs,20260501-103232,1.0.2,20251105-084826,833,Experiment,Both,1,Automatic,main,95,20260501-104109,global,local,750,S,S,E,A,S-E.png,A-S.png,sS,sS,mask-4.png,mask-2.png,s,1,0.46907499991357327,s,1,0.11279810033738613,0.047548800241202116,0.04755860008299351,0.09953130036592484,0.09957260033115745,0.7502174000255764
RSVPLG03,cs,20260501-103232,1.0.2,20251105-084826,833,Experiment,Both,1,Automatic,main,96,20260501-104113,local,local,750,S,H,E,A,E-S.png,A-H.png,sS,hH,mask-1.png,mask-2.png,s,1,0.21224800031632185,h,1,0.09489830024540424,0.047684899996966124,0.047643800266087055,0.09970739996060729,0.09980279998853803,0.7502516997046769
RSVPLG03,cs,20260501-103232,1.0.2,20251105-084826,833,Experiment,Both,1,Automatic,main,97,20260501-104118,global,local,300,S,H,E,E,S-E.png,E-H.png,sS,hH,mask-3.png,mask-4.png,s,1,0.5020695999264717,s,0,0.15011489996686578,0.047720099799335,0.047983200289309025,0.10017609968781471,0.10174129996448755,0.29865189967676997
RSVPLG03,cs,20260501-103232,1.0.2,20251105-084826,833,Experiment,Both,1,Automatic,main,98,20260501-104122,local,global,300,S,H,E,A,E-S.png,H-A.png,sS,hH,mask-4.png,mask-4.png,s,1,0.37038549967110157,s,0,0.187758999876678,0.04750080034136772,0.047492300160229206,0.10054410016164184,0.10050310008227825,0.29989879997447133
RSVPLG03,cs,20260501-103232,1.0.2,20251105-084826,833,Experiment,Both,1,Automatic,main,99,20260501-104127,global,global,750,H,H,E,E,H-E.png,H-E.png,hH,hH,mask-4.png,mask-3.png,h,1,0.3378157000988722,h,1,0.1152672003954649,0.0475874999538064,0.04755070013925433,0.09959070011973381,0.09960380010306835,0.7499585999175906
RSVPLG03,cs,20260501-103232,1.0.2,20251105-084826,833,Experiment,Both,1,Automatic,main,100,20260501-104131,local,global,750,S,S,A,E,A-S.png,S-E.png,sS,sS,mask-3.png,mask-4.png,s,1,0.4455176000483334,s,1,1.5732522998005152,0.04772760020568967,0.04651269968599081,0.09982610028237104,0.09955739974975586,0.7515051001682878
RSVPLG03,cs,20260501-104234,1.0.2,20251105-084826,833,Experiment,Both,1,Automatic,warmup,1,20260501-104255,local,local,300,H,H,A,E,A-H.png,E-H.png,hH,hH,mask-4.png,mask-4.png,h,1,2.251922400202602,h,1,0.0866667996160686,0.04417180037125945,0.047432399820536375,0.09595630038529634,0.09934470010921359,0.29689900018274784
RSVPLG03,cs,20260501-104234,1.0.2,20251105-084826,833,Experiment,Both,1,Automatic,warmup,2,20260501-104301,local,local,750,H,H,A,A,A-H.png,A-H.png,hH,hH,mask-2.png,mask-4.png,h,1,0.3455993002280593,h,1,0.14287999970838428,0.04579450003802776,0.047536700032651424,0.09891499998047948,0.09957269998267293,0.7519048000685871
RSVPLG03,cs,20260501-104234,1.0.2,20251105-084826,833,Experiment,Both,1,Automatic,warmup,3,20260501-104306,local,global,750,H,S,A,A,A-H.png,S-A.png,hH,sS,mask-1.png,mask-4.png,h,1,0.8317579999566078,s,1,0.3538474999368191,0.048547899816185236,0.04753450024873018,0.10059789987280965,0.10056280018761754,0.7518163998611271
RSVPLG03,cs,20260501-104234,1.0.2,20251105-084826,833,Experiment,Both,1,Automatic,warmup,4,20260501-104311,local,global,300,S,H,E,A,E-S.png,H-A.png,sS,hH,mask-4.png,mask-2.png,s,1,0.5963775999844074,s,0,0.10165019985288382,0.046502700075507164,0.04770369967445731,0.09973039990291,0.09991730004549026,0.29995410004630685
RSVPLG03,cs,20260501-104234,1.0.2,20251105-084826,833,Experiment,Both,1,Automatic,main,5,20260501-104316,global,local,300,H,H,E,A,H-E.png,A-H.png,hH,hH,mask-4.png,mask-1.png,h,1,1.0974918003194034,s,0,0.20433069998398423,0.0482684001326561,0.04786890000104904,0.10065879998728633,0.10026980005204678,0.3007626999169588
RSVPLG03,cs,20260501-104234,1.0.2,20251105-084826,833,Experiment,Both,1,Automatic,main,6,20260501-104321,local,local,300,S,H,E,E,E-S.png,E-H.png,sS,hH,mask-4.png,mask-1.png,s,1,0.47004459984600544,h,1,0.13022859999909997,0.04745610011741519,0.04754739999771118,0.09958530031144619,0.10075849993154407,0.29973250022158027
RSVPLG03,cs,20260501-104234,1.0.2,20251105-084826,833,Experiment,Both,1,Automatic,main,7,20260501-104325,local,global,750,H,H,E,A,E-H.png,H-A.png,hH,hH,mask-3.png,mask-4.png,h,1,0.8783550001680851,h,1,0.14619169989600778,0.04743010038509965,0.04748369986191392,0.10092820040881634,0.10048339981585741,0.7512790001928806
RSVPLG03,cs,20260501-104234,1.0.2,20251105-084826,833,Experiment,Both,1,Automatic,main,8,20260501-104330,global,global,300,H,H,E,E,H-E.png,H-E.png,hH,hH,mask-2.png,mask-4.png,h,1,0.5008129999041557,h,1,0.14694650005549192,0.0467357998713851,0.0468426002189517,0.09998050006106496,0.10000189999118447,0.30050979973748326
RSVPLG03,cs,20260501-104234,1.0.2,20251105-084826,833,Experiment,Both,1,Automatic,main,9,20260501-104335,local,global,300,H,S,E,E,E-H.png,S-E.png,hH,sS,mask-4.png,mask-2.png,s,0,0.7624712996184826,h,0,0.15049319993704557,0.048683999571949244,0.048685899935662746,0.10192379960790277,0.10089219966903329,0.3005282999947667
RSVPLG03,cs,20260501-104234,1.0.2,20251105-084826,833,Experiment,Both,1,Automatic,main,10,20260501-104339,local,local,300,H,S,A,A,A-H.png,A-S.png,hH,sS,mask-3.png,mask-3.png,h,1,0.4987641000188887,s,1,0.07263069972395897,0.04715239955112338,0.04617269989103079,0.10151039995253086,0.09947590017691255,0.30170399975031614
RSVPLG03,cs,20260501-104234,1.0.2,20251105-084826,833,Experiment,Both,1,Automatic,main,11,20260501-104344,global,global,300,S,H,A,E,S-A.png,H-E.png,sS,hH,mask-1.png,mask-1.png,s,1,0.3609135998412967,h,1,0.26150540029630065,0.04768999991938472,0.04851600015535951,0.0995400003157556,0.099639100022614,0.29991389997303486
RSVPLG03,cs,20260501-104234,1.0.2,20251105-084826,833,Experiment,Both,1,Automatic,main,12,20260501-104348,local,global,750,S,S,E,E,E-S.png,S-E.png,sS,sS,mask-2.png,mask-4.png,s,1,0.7455516001209617,s,1,0.1191966999322176,0.04648130014538765,0.046545700170099735,0.09882580023258924,0.09934369986876845,0.7510567000135779
RSVPLG03,cs,20260501-104234,1.0.2,20251105-084826,833,Experiment,Both,1,Automatic,main,13,20260501-104353,local,global,750,H,H,E,A,E-H.png,H-A.png,hH,hH,mask-4.png,mask-3.png,h,1,0.5378756998106837,s,0,0.1669908999465406,0.046952900011092424,0.04872100008651614,0.10029879957437515,0.0999214998446405,0.7518285997211933
RSVPLG03,cs,20260501-104234,1.0.2,20251105-084826,833,Experiment,Both,1,Automatic,main,14,20260501-104358,global,global,750,H,H,E,E,H-E.png,H-E.png,hH,hH,mask-2.png,mask-2.png,h,1,0.4309950997121632,h,1,0.19981670007109642,0.04775259969756007,0.04717360017821193,0.10184590006247163,0.09996740007773042,0.7529342998750508
RSVPLG03,cs,20260501-104234,1.0.2,20251105-084826,833,Experiment,Both,1,Automatic,main,15,20260501-104403,local,global,750,H,S,A,E,A-H.png,S-E.png,hH,sS,mask-4.png,mask-1.png,h,1,1.2926688003353775,s,1,0.13451389968395233,0.04652540013194084,0.04753310000523925,0.09957539988681674,0.09955490007996559,0.7515028999187052
RSVPLG03,cs,20260501-104234,1.0.2,20251105-084826,833,Experiment,Both,1,Automatic,main,16,20260501-104408,global,local,750,H,S,A,E,H-A.png,E-S.png,hH,sS,mask-4.png,mask-4.png,h,1,0.6658724001608789,s,1,0.1857696999795735,0.04745499975979328,0.04811560036614537,0.09969109995290637,0.10021790023893118,0.7504539997316897
RSVPLG03,cs,20260501-104234,1.0.2,20251105-084826,833,Experiment,Both,1,Automatic,main,17,20260501-104413,local,global,750,H,H,A,E,A-H.png,H-E.png,hH,hH,mask-3.png,mask-2.png,h,1,0.8556854999624193,h,1,0.33237130008637905,0.04756270023062825,0.047736999578773975,0.09998490009456873,0.09993889974430203,0.752332600299269
RSVPLG03,cs,20260501-104234,1.0.2,20251105-084826,833,Experiment,Both,1,Automatic,main,18,20260501-104419,local,local,300,S,H,E,A,E-S.png,A-H.png,sS,hH,mask-2.png,mask-4.png,s,1,0.5803338997066021,h,1,0.05219809990376234,0.04767540004104376,0.04751030029729009,0.09988550003618002,0.10169999999925494,0.30025639990344644
RSVPLG03,cs,20260501-104234,1.0.2,20251105-084826,833,Experiment,Both,1,Automatic,main,19,20260501-104423,global,global,750,H,S,A,E,H-A.png,S-E.png,hH,sS,mask-3.png,mask-2.png,h,1,0.3792429002933204,s,1,0.15808730013668537,0.04733460023999214,0.047537199687212706,0.09975980035960674,0.10064039984717965,0.7515318002551794
RSVPLG03,cs,20260501-104234,1.0.2,20251105-084826,833,Experiment,Both,1,Automatic,main,20,20260501-104428,local,local,300,H,S,E,A,E-H.png,A-S.png,hH,sS,mask-1.png,mask-2.png,h,1,2.083557200152427,s,1,0.029684199951589108,0.04830370005220175,0.048190700355917215,0.10032359976321459,0.1002096002921462,0.3001047996804118
RSVPLG03,cs,20260501-104234,1.0.2,20251105-084826,833,Experiment,Both,1,Automatic,main,21,20260501-104433,local,global,300,S,S,A,E,A-S.png,S-E.png,sS,sS,mask-1.png,mask-1.png,h,0,1.289675199892372,s,1,0.06904810015112162,0.04712110012769699,0.0466652000322938,0.0998692000284791,0.09989099996164441,0.3003135002218187
RSVPLG03,cs,20260501-104234,1.0.2,20251105-084826,833,Experiment,Both,1,Automatic,main,22,20260501-104439,global,local,750,H,S,E,E,H-E.png,E-S.png,hH,sS,mask-4.png,mask-1.png,h,1,0.4669412998482585,s,1,0.1240285998210311,0.04651430016383529,0.04951769998297095,0.10051130037754774,0.10060069989413023,0.7504164003767073
RSVPLG03,cs,20260501-104234,1.0.2,20251105-084826,833,Experiment,Both,1,Automatic,main,23,20260501-104443,global,local,750,H,S,A,A,H-A.png,A-S.png,hH,sS,mask-4.png,mask-1.png,h,1,0.5618537999689579,s,1,0.0915044997818768,0.04753000009804964,0.046410299837589264,0.10052639991044998,0.10040019964799285,0.7518159002065659
RSVPLG03,cs,20260501-104234,1.0.2,20251105-084826,833,Experiment,Both,1,Automatic,main,24,20260501-104448,global,global,300,H,S,E,A,H-E.png,S-A.png,hH,sS,mask-2.png,mask-4.png,h,1,0.3252070997841656,s,1,0.103141900151968,0.04843430034816265,0.04829620011150837,0.10045130038633943,0.10036260029301047,0.3001135000959039
RSVPLG03,cs,20260501-104234,1.0.2,20251105-084826,833,Experiment,Both,1,Automatic,main,25,20260501-104452,local,local,750,S,S,A,A,A-S.png,A-S.png,sS,sS,mask-1.png,mask-4.png,h,0,0.8656331999227405,h,0,0.1381202000193298,0.04850859986618161,0.04754759976640344,0.10188779979944229,0.10155369993299246,0.7519771000370383
RSVPLG03,cs,20260501-104234,1.0.2,20251105-084826,833,Experiment,Both,1,Automatic,main,26,20260501-104505,global,global,300,H,H,A,E,H-A.png,H-E.png,hH,hH,mask-1.png,mask-4.png,h,1,0.5273209000006318,h,1,0.11500940006226301,0.04750869981944561,0.04681909969076514,0.10051860008388758,0.09951560012996197,0.30222770012915134
RSVPLG03,cs,20260501-104234,1.0.2,20251105-084826,833,Experiment,Both,1,Automatic,main,27,20260501-104509,local,local,750,S,H,A,A,A-S.png,A-H.png,sS,hH,mask-3.png,mask-2.png,s,1,0.2634348999708891,h,1,0.17106330022215843,0.04853199981153011,0.047677400056272745,0.10162470024079084,0.10079740034416318,0.7524036997929215
RSVPLG03,cs,20260501-104234,1.0.2,20251105-084826,833,Experiment,Both,1,Automatic,main,28,20260501-104514,local,global,300,S,S,E,E,E-S.png,S-E.png,sS,sS,mask-2.png,mask-4.png,s,1,0.5885876999236643,s,1,0.10242519993335009,0.04701829981058836,0.04861410008743405,0.10023139975965023,0.10170709993690252,0.2997893998399377
RSVPLG03,cs,20260501-104234,1.0.2,20251105-084826,833,Experiment,Both,1,Automatic,main,29,20260501-104518,global,global,300,H,S,A,A,H-A.png,S-A.png,hH,sS,mask-4.png,mask-3.png,h,1,0.6472286996431649,s,1,0.1807213998399675,0.0468445997685194,0.04768470022827387,0.09961869986727834,0.09988120011985302,0.30108159966766834
RSVPLG03,cs,20260501-104234,1.0.2,20251105-084826,833,Experiment,Both,1,Automatic,main,30,20260501-104523,global,local,300,S,H,A,E,S-A.png,E-H.png,sS,hH,mask-2.png,mask-3.png,s,1,0.8591860001906753,s,0,0.10182640003040433,0.047679000068455935,0.047934799920767546,0.10187180014327168,0.1008351999334991,0.30027890019118786
RSVPLG03,cs,20260501-104234,1.0.2,20251105-084826,833,Experiment,Both,1,Automatic,main,31,20260501-104527,local,global,300,S,S,E,E,E-S.png,S-E.png,sS,sS,mask-4.png,mask-2.png,s,1,2.3196201003156602,h,0,0.013896399643272161,0.0486778998747468,0.04684680001810193,0.10173840029165149,0.09998119994997978,0.3014047001488507
RSVPLG03,cs,20260501-104234,1.0.2,20251105-084826,833,Experiment,Both,1,Automatic,main,32,20260501-104533,global,global,300,H,S,E,E,H-E.png,S-E.png,hH,sS,mask-2.png,mask-1.png,h,1,0.36674619978293777,s,1,0.23356090020388365,0.04771919967606664,0.04763479996472597,0.10077039990574121,0.09972369996830821,0.30041899997740984
RSVPLG03,cs,20260501-104234,1.0.2,20251105-084826,833,Experiment,Both,1,Automatic,main,33,20260501-104538,global,local,750,H,H,E,A,H-E.png,A-H.png,hH,hH,mask-1.png,mask-3.png,h,1,0.4425783003680408,h,1,0.18597920006141067,0.04831409966573119,0.047736499924212694,0.10067579988390207,0.10099489986896515,0.7515576998703182
RSVPLG03,cs,20260501-104234,1.0.2,20251105-084826,833,Experiment,Both,1,Automatic,main,34,20260501-104542,global,global,750,H,S,A,A,H-A.png,S-A.png,hH,sS,mask-4.png,mask-4.png,h,1,0.2776609999127686,s,1,0.18121880013495684,0.04874680005013943,0.04770349990576506,0.10091449972242117,0.09877160005271435,0.7528248000890017
RSVPLG03,cs,20260501-104234,1.0.2,20251105-084826,833,Experiment,Both,1,Automatic,main,35,20260501-104547,local,local,750,S,H,E,A,E-S.png,A-H.png,sS,hH,mask-3.png,mask-2.png,s,1,0.2055487004108727,h,1,0.15410639997571707,0.045721299946308136,0.04770160000771284,0.09995410032570362,0.10189250018447638,0.7496805000118911
RSVPLG03,cs,20260501-104234,1.0.2,20251105-084826,833,Experiment,Both,1,Automatic,main,36,20260501-104552,local,global,300,S,H,A,A,A-S.png,H-A.png,sS,hH,mask-2.png,mask-2.png,h,0,0.7215332998894155,h,1,0.11832719994708896,0.04648280004039407,0.048028900288045406,0.09953740006312728,0.10227760020643473,0.2986638997681439
RSVPLG03,cs,20260501-104234,1.0.2,20251105-084826,833,Experiment,Both,1,Automatic,main,37,20260501-104556,global,local,750,S,S,E,A,S-E.png,A-S.png,sS,sS,mask-2.png,mask-1.png,s,1,1.1491845999844372,h,0,0.15460490016266704,0.04768190020695329,0.04751519998535514,0.10082769999280572,0.10070230020210147,0.7514406000263989
RSVPLG03,cs,20260501-104234,1.0.2,20251105-084826,833,Experiment,Both,1,Automatic,main,38,20260501-104602,local,global,300,H,H,E,A,E-H.png,H-A.png,hH,hH,mask-4.png,mask-1.png,h,1,1.4388685002923012,h,1,0.10750359995290637,0.04753390001133084,0.04851819993928075,0.1006016000173986,0.10060769971460104,0.30090520018711686
RSVPLG03,cs,20260501-104234,1.0.2,20251105-084826,833,Experiment,Both,1,Automatic,main,39,20260501-104607,local,global,300,S,H,E,E,E-S.png,H-E.png,sS,hH,mask-2.png,mask-2.png,h,0,1.2619563997723162,s,0,0.09269469976425171,0.04671509983018041,0.04681799979880452,0.10007350007072091,0.09909169981256127,0.30068570002913475
RSVPLG03,cs,20260501-104234,1.0.2,20251105-084826,833,Experiment,Both,1,Automatic,main,40,20260501-104612,local,local,750,S,H,E,E,E-S.png,E-H.png,sS,hH,mask-4.png,mask-1.png,s,1,0.17131959972903132,h,1,0.10846649995073676,0.0474049998447299,0.04642189992591739,0.10131820011883974,0.09930619969964027,0.7520185001194477
RSVPLG03,cs,20260501-104234,1.0.2,20251105-084826,833,Experiment,Both,1,Automatic,main,41,20260501-104616,global,global,750,H,S,A,A,H-A.png,S-A.png,hH,sS,mask-4.png,mask-4.png,h,1,1.5274618999101222,s,1,0.15108710015192628,0.04751529963687062,0.046819199807941914,0.09953869972378016,0.09987330017611384,0.7520261998288333
RSVPLG03,cs,20260501-104234,1.0.2,20251105-084826,833,Experiment,Both,1,Automatic,main,42,20260501-104622,global,local,300,S,S,A,E,S-A.png,E-S.png,sS,sS,mask-4.png,mask-1.png,s,1,0.49737520003691316,s,1,0.24903579987585545,0.046705199871212244,0.0475898003205657,0.09991199988871813,0.10080480016767979,0.2995310998521745
RSVPLG03,cs,20260501-104234,1.0.2,20251105-084826,833,Experiment,Both,1,Automatic,main,43,20260501-104627,local,global,300,H,S,A,A,A-H.png,S-A.png,hH,sS,mask-4.png,mask-2.png,h,1,1.7494935998693109,h,0,0.29505599988624454,0.04766380041837692,0.04767390014603734,0.09981560008600354,0.09986399998888373,0.29997010016813874
RSVPLG03,cs,20260501-104234,1.0.2,20251105-084826,833,Experiment,Both,1,Automatic,main,44,20260501-104632,local,global,750,H,H,A,E,A-H.png,H-E.png,hH,hH,mask-1.png,mask-2.png,h,1,0.5546169998124242,s,0,1.2279281001538038,0.04756959993392229,0.04754119971767068,0.09957759967073798,0.09856469975784421,0.7519020000472665
RSVPLG03,cs,20260501-104234,1.0.2,20251105-084826,833,Experiment,Both,1,Automatic,main,45,20260501-104638,global,global,750,H,S,A,A,H-A.png,S-A.png,hH,sS,mask-2.png,mask-1.png,h,1,0.36020200001075864,s,1,0.15399889973923564,0.04827129980549216,0.04872380010783672,0.10030319960787892,0.09972590021789074,0.7508037998341024
RSVPLG03,cs,20260501-104234,1.0.2,20251105-084826,833,Experiment,Both,1,Automatic,main,46,20260501-104643,global,local,300,H,S,A,E,H-A.png,E-S.png,hH,sS,mask-4.png,mask-4.png,s,0,0.6476953001692891,s,1,0.19937229994684458,0.04738389980047941,0.04675169987604022,0.10034679993987083,0.09980669990181923,0.3005564999766648
RSVPLG03,cs,20260501-104234,1.0.2,20251105-084826,833,Experiment,Both,1,Automatic,main,47,20260501-104647,global,local,300,S,S,A,A,S-A.png,A-S.png,sS,sS,mask-4.png,mask-2.png,h,0,2.919042100198567,s,1,0.03871010011062026,0.04883739957585931,0.04676249995827675,0.10103559959679842,0.09896069997921586,0.30263209994882345
RSVPLG03,cs,20260501-104234,1.0.2,20251105-084826,833,Experiment,Both,1,Automatic,main,48,20260501-104654,global,local,750,S,S,A,A,S-A.png,A-S.png,sS,sS,mask-3.png,mask-2.png,s,1,1.3734956001862884,s,1,0.1334649003110826,0.04762490000575781,0.04759769979864359,0.1008339999243617,0.10080870008096099,0.7512751999311149
RSVPLG03,cs,20260501-104234,1.0.2,20251105-084826,833,Experiment,Both,1,Automatic,main,49,20260501-104700,global,local,750,S,S,E,E,S-E.png,E-S.png,sS,sS,mask-2.png,mask-4.png,s,1,0.9029836002737284,h,0,0.11970310006290674,0.047524800058454275,0.04858569987118244,0.10012960014864802,0.10003500012680888,0.7503508999943733
RSVPLG03,cs,20260501-104234,1.0.2,20251105-084826,833,Experiment,Both,1,Automatic,main,50,20260501-104705,local,local,750,S,H,E,E,E-S.png,E-H.png,sS,hH,mask-3.png,mask-3.png,s,1,0.38125710003077984,h,1,0.010263800155371428,0.048606600146740675,0.04910940025001764,0.10178849985823035,0.10229220008477569,0.7510673999786377
RSVPLG03,cs,20260501-104234,1.0.2,20251105-084826,833,Experiment,Both,1,Automatic,main,51,20260501-104714,global,local,750,H,S,A,A,H-A.png,A-S.png,hH,sS,mask-4.png,mask-4.png,h,1,0.5753970998339355,h,0,0.41268289973959327,0.047403200063854456,0.04853180004283786,0.10037160012871027,0.10154380043968558,0.7515871999785304
RSVPLG03,cs,20260501-104234,1.0.2,20251105-084826,833,Experiment,Both,1,Automatic,main,52,20260501-104719,global,local,300,S,H,E,A,S-E.png,A-H.png,sS,hH,mask-3.png,mask-3.png,s,1,0.492644099984318,h,1,0.10314179956912994,0.049570000264793634,0.04663529992103577,0.10159780038520694,0.09898549970239401,0.3024910003878176
RSVPLG03,cs,20260501-104234,1.0.2,20251105-084826,833,Experiment,Both,1,Automatic,main,53,20260501-104723,local,global,300,S,S,E,E,E-S.png,S-E.png,sS,sS,mask-4.png,mask-3.png,s,1,0.6095214001834393,s,1,0.10213820030912757,0.04768730001524091,0.04852359974756837,0.10188469989225268,0.10161140002310276,0.30093570007011294
RSVPLG03,cs,20260501-104234,1.0.2,20251105-084826,833,Experiment,Both,1,Automatic,main,54,20260501-104728,global,local,750,S,S,E,A,S-E.png,A-S.png,sS,sS,mask-4.png,mask-3.png,s,1,0.996900100260973,h,0,0.08743529999628663,0.04586099972948432,0.04767049988731742,0.10014829970896244,0.09984470019116998,0.7508502998389304
RSVPLG03,cs,20260501-104234,1.0.2,20251105-084826,833,Experiment,Both,1,Automatic,main,55,20260501-104733,local,global,300,S,S,A,A,A-S.png,S-A.png,sS,sS,mask-2.png,mask-3.png,s,1,1.1338374000042677,h,0,0.0514058000408113,0.047558899968862534,0.048566900193691254,0.09962640004232526,0.10057199979200959,0.2999233999289572
RSVPLG03,cs,20260501-104234,1.0.2,20251105-084826,833,Experiment,Both,1,Automatic,main,56,20260501-104738,local,global,750,S,H,E,E,E-S.png,H-E.png,sS,hH,mask-2.png,mask-1.png,s,1,1.3525727996602654,h,1,0.053626100067049265,0.0470770001411438,0.046590800397098064,0.09911860013380647,0.10071520041674376,0.7513362998142838
RSVPLG03,cs,20260501-104234,1.0.2,20251105-084826,833,Experiment,Both,1,Automatic,main,57,20260501-104743,global,global,300,S,H,A,A,S-A.png,H-A.png,sS,hH,mask-3.png,mask-4.png,s,1,0.39074950013309717,h,1,0.07627000007778406,0.04626320023089647,0.04716259986162186,0.10025920020416379,0.09837739961221814,0.3002202003262937
RSVPLG03,cs,20260501-104234,1.0.2,20251105-084826,833,Experiment,Both,1,Automatic,main,58,20260501-104747,local,local,300,H,H,A,E,A-H.png,E-H.png,hH,hH,mask-4.png,mask-2.png,h,1,1.8519892003387213,s,0,0.045119300018996,0.04757949989289045,0.0461601996794343,0.1006312002427876,0.09912999998778105,0.301963500212878
RSVPLG03,cs,20260501-104234,1.0.2,20251105-084826,833,Experiment,Both,1,Automatic,main,59,20260501-104753,global,local,750,H,H,E,E,H-E.png,E-H.png,hH,hH,mask-2.png,mask-2.png,h,1,0.6734810001216829,s,0,0.15535909961909056,0.04634190024808049,0.04755420004948974,0.0991126000881195,0.09958120016381145,0.752165799960494
RSVPLG03,cs,20260501-104234,1.0.2,20251105-084826,833,Experiment,Both,1,Automatic,main,60,20260501-104758,global,global,750,H,S,E,A,H-E.png,S-A.png,hH,sS,mask-2.png,mask-1.png,h,1,1.3545502997003496,s,1,0.07531590014696121,0.04719799989834428,0.04880939982831478,0.10013769986107945,0.09986640000715852,0.7505751000717282
RSVPLG03,cs,20260501-104234,1.0.2,20251105-084826,833,Experiment,Both,1,Automatic,main,61,20260501-104804,local,local,750,S,H,A,A,A-S.png,A-H.png,sS,hH,mask-4.png,mask-4.png,s,1,0.6597547000274062,h,1,0.0403506001457572,0.04897619970142841,0.049273000098764896,0.10001870011910796,0.10146040003746748,0.7518437998369336
RSVPLG03,cs,20260501-104234,1.0.2,20251105-084826,833,Experiment,Both,1,Automatic,main,62,20260501-104808,local,local,300,S,H,E,A,E-S.png,A-H.png,sS,hH,mask-2.png,mask-1.png,s,1,0.43650800036266446,h,1,0.06665580021217465,0.04685560008510947,0.04671599995344877,0.0991617999970913,0.10009799990803003,0.29971300018951297
RSVPLG03,cs,20260501-104234,1.0.2,20251105-084826,833,Experiment,Both,1,Automatic,main,63,20260501-104813,local,local,750,H,H,E,A,E-H.png,A-H.png,hH,hH,mask-2.png,mask-1.png,h,1,0.1732551003806293,h,1,0.11438939999789,0.04869530024006963,0.04771179985255003,0.0999112999998033,0.09979930007830262,0.7516101002693176
RSVPLG03,cs,20260501-104234,1.0.2,20251105-084826,833,Experiment,Both,1,Automatic,main,64,20260501-104817,local,local,300,H,S,A,A,A-H.png,A-S.png,hH,sS,mask-3.png,mask-4.png,h,1,0.37758579989895225,s,1,0.05977489985525608,0.0477399998344481,0.04752840008586645,0.09940249985083938,0.10031839972361922,0.300044700037688
RSVPLG03,cs,20260501-104234,1.0.2,20251105-084826,833,Experiment,Both,1,Automatic,main,65,20260501-104821,local,local,750,S,S,A,E,A-S.png,E-S.png,sS,sS,mask-4.png,mask-2.png,s,1,0.2898977999575436,s,1,0.10656099999323487,0.04772209981456399,0.048039600253105164,0.09991030022501945,0.10126559995114803,0.7508196998387575
RSVPLG03,cs,20260501-104234,1.0.2,20251105-084826,833,Experiment,Both,1,Automatic,main,66,20260501-104826,local,global,750,H,H,E,E,E-H.png,H-E.png,hH,hH,mask-1.png,mask-3.png,h,1,0.5577339003793895,h,1,0.13675710000097752,0.04726549983024597,0.04753120010718703,0.10077229980379343,0.10068520018830895,0.7518473998643458
RSVPLG03,cs,20260501-104234,1.0.2,20251105-084826,833,Experiment,Both,1,Automatic,main,67,20260501-104831,global,local,300,H,S,E,A,H-E.png,A-S.png,hH,sS,mask-3.png,mask-2.png,s,0,2.0955413999035954,h,0,0.02635579975321889,0.047698600217700005,0.046510699670761824,0.09950850019231439,0.09945999970659614,0.30041660042479634
RSVPLG03,cs,20260501-104234,1.0.2,20251105-084826,833,Experiment,Both,1,Automatic,main,68,20260501-104836,global,global,300,S,H,E,E,S-E.png,H-E.png,sS,hH,mask-2.png,mask-2.png,h,0,4.008216899819672,h,1,0.19793500006198883,0.046662400010973215,0.04980180040001869,0.09986950038000941,0.10101560037583113,0.2987820999696851
RSVPLG03,cs,20260501-104234,1.0.2,20251105-084826,833,Experiment,Both,1,Automatic,main,69,20260501-104844,global,local,750,S,S,A,E,S-A.png,E-S.png,sS,sS,mask-4.png,mask-4.png,s,1,0.3952462999150157,s,1,0.12294370029121637,0.046796499751508236,0.047163700219243765,0.09946539998054504,0.10033030016347766,0.7518377997912467
RSVPLG03,cs,20260501-104234,1.0.2,20251105-084826,833,Experiment,Both,1,Automatic,main,70,20260501-104849,local,global,750,H,H,E,A,E-H.png,H-A.png,hH,hH,mask-3.png,mask-4.png,s,0,1.5321158999577165,s,0,0.16348859993740916,0.047743699979037046,0.04762870026752353,0.1021455000154674,0.10074990009889007,0.7520717000588775
RSVPLG03,cs,20260501-104234,1.0.2,20251105-084826,833,Experiment,Both,1,Automatic,main,71,20260501-104855,local,global,750,S,S,E,A,E-S.png,S-A.png,sS,sS,mask-4.png,mask-3.png,h,0,2.2145616998896003,s,1,0.10435020038858056,0.04865180002525449,0.04616919998079538,0.1004993999376893,0.0992148001678288,0.7528773997910321
RSVPLG03,cs,20260501-104234,1.0.2,20251105-084826,833,Experiment,Both,1,Automatic,main,72,20260501-104901,global,global,300,S,S,E,A,S-E.png,S-A.png,sS,sS,mask-3.png,mask-2.png,s,1,0.39573869993910193,s,1,0.08760050032287836,0.0475102998316288,0.04752000002190471,0.09971300000324845,0.09953359980136156,0.30110529996454716
RSVPLG03,cs,20260501-104234,1.0.2,20251105-084826,833,Experiment,Both,1,Automatic,main,73,20260501-104905,local,global,300,H,S,E,A,E-H.png,S-A.png,hH,sS,mask-1.png,mask-4.png,h,1,0.48050499986857176,h,0,0.10640039993450046,0.047648100182414055,0.0477208998054266,0.09988579992204905,0.09996249992400408,0.2998019000515342
RSVPLG03,cs,20260501-104234,1.0.2,20251105-084826,833,Experiment,Both,1,Automatic,main,74,20260501-104910,global,local,750,H,S,E,E,H-E.png,E-S.png,hH,sS,mask-4.png,mask-4.png,h,1,1.2537909001111984,s,1,0.09775070007890463,0.04690340021625161,0.04753160011023283,0.100970100145787,0.10154759977012873,0.7509397002868354
RSVPLG03,cs,20260501-104234,1.0.2,20251105-084826,833,Experiment,Both,1,Automatic,main,75,20260501-104915,global,global,300,H,S,E,A,H-E.png,S-A.png,hH,sS,mask-3.png,mask-4.png,h,1,0.32990929996594787,s,1,0.04182099970057607,0.046782399993389845,0.04695750027894974,0.09961879998445511,0.09889669995754957,0.300891499966383
RSVPLG03,cs,20260501-104234,1.0.2,20251105-084826,833,Experiment,Both,1,Automatic,main,76,20260501-104928,local,local,750,H,H,E,E,E-H.png,E-H.png,hH,hH,mask-4.png,mask-4.png,s,0,0.6612902004271746,h,1,1.0600701998919249,0.04753139987587929,0.04852900002151728,0.10053509986028075,0.10157789988443255,0.751061299815774
RSVPLG03,cs,20260501-104234,1.0.2,20251105-084826,833,Experiment,Both,1,Automatic,main,77,20260501-104934,global,global,300,H,S,A,A,H-A.png,S-A.png,hH,sS,mask-2.png,mask-1.png,h,1,0.2528348001651466,s,1,0.07585749961435795,0.048588200006634,0.04751030029729009,0.10062289983034134,0.10054530017077923,0.3008694997988641
RSVPLG03,cs,20260501-104234,1.0.2,20251105-084826,833,Experiment,Both,1,Automatic,main,78,20260501-104938,global,local,300,H,H,A,A,H-A.png,A-H.png,hH,hH,mask-2.png,mask-1.png,h,1,1.2780619002878666,h,1,0.08241729997098446,0.046634099911898375,0.04670180007815361,0.09980979980900884,0.09989199973642826,0.30046349996700883
RSVPLG03,cs,20260501-104234,1.0.2,20251105-084826,833,Experiment,Both,1,Automatic,main,79,20260501-104943,local,local,300,S,S,A,E,A-S.png,E-S.png,sS,sS,mask-3.png,mask-3.png,s,1,0.348808899987489,s,1,0.07563759991899133,0.048702800180763006,0.04672939982265234,0.10110809979960322,0.0999346999451518,0.3017607000656426
RSVPLG03,cs,20260501-104234,1.0.2,20251105-084826,833,Experiment,Both,1,Automatic,main,80,20260501-104947,global,global,300,H,H,E,A,H-E.png,H-A.png,hH,hH,mask-2.png,mask-4.png,h,1,0.4685175004415214,h,1,0.147643500007689,0.04779959982261062,0.04674030002206564,0.10097499983385205,0.09977729991078377,0.3015712001360953
RSVPLG03,cs,20260501-104234,1.0.2,20251105-084826,833,Experiment,Both,1,Automatic,main,81,20260501-104951,global,global,750,S,S,E,E,S-E.png,S-E.png,sS,sS,mask-2.png,mask-1.png,s,1,1.7171545000746846,h,0,0.0336257996968925,0.048738899640738964,0.04576430004090071,0.10087169986218214,0.0989274000748992,0.753076299559325
RSVPLG03,cs,20260501-104234,1.0.2,20251105-084826,833,Experiment,Both,1,Automatic,main,82,20260501-104957,local,local,300,H,H,A,E,A-H.png,E-H.png,hH,hH,mask-2.png,mask-2.png,h,1,0.7511227000504732,h,1,0.10957220010459423,0.04752510040998459,0.0475188996642828,0.099541200324893,0.10053899977356195,0.2998411003500223
RSVPLG03,cs,20260501-104234,1.0.2,20251105-084826,833,Experiment,Both,1,Automatic,main,83,20260501-105002,local,global,750,S,H,E,E,E-S.png,H-E.png,sS,hH,mask-4.png,mask-4.png,s,1,0.6339088999666274,s,0,0.07295039994642138,0.0475106998346746,0.0475122001953423,0.0995155000127852,0.09954170044511557,0.7521479995921254
RSVPLG03,cs,20260501-104234,1.0.2,20251105-084826,833,Experiment,Both,1,Automatic,main,84,20260501-105006,local,local,750,S,S,A,A,A-S.png,A-S.png,sS,sS,mask-4.png,mask-4.png,s,1,0.38236649986356497,s,1,0.11387789994478226,0.047926800325512886,0.047734899912029505,0.10007499996572733,0.0998696000315249,0.7516914000734687
RSVPLG03,cs,20260501-104234,1.0.2,20251105-084826,833,Experiment,Both,1,Automatic,main,85,20260501-105011,global,global,750,S,S,A,E,S-A.png,S-E.png,sS,sS,mask-4.png,mask-2.png,s,1,1.3665678002871573,s,1,0.14583019958809018,0.04770170012488961,0.04750510025769472,0.1010894002392888,0.1005739001557231,0.7523572999052703
RSVPLG03,cs,20260501-104234,1.0.2,20251105-084826,833,Experiment,Both,1,Automatic,main,86,20260501-105017,local,global,750,H,S,E,A,E-H.png,S-A.png,hH,sS,mask-1.png,mask-4.png,h,1,0.7394023002125323,s,1,0.08647050010040402,0.04731909977272153,0.04777480009943247,0.09952889988198876,0.09873679978772998,0.7520184000022709
RSVPLG03,cs,20260501-104234,1.0.2,20251105-084826,833,Experiment,Both,1,Automatic,main,87,20260501-105022,local,local,300,S,S,A,E,A-S.png,E-S.png,sS,sS,mask-1.png,mask-4.png,s,1,0.18826059997081757,s,1,0.1970295999199152,0.04740240005776286,0.048465299885720015,0.10059530008584261,0.10103120002895594,0.2988022002391517
RSVPLG03,cs,20260501-104234,1.0.2,20251105-084826,833,Experiment,Both,1,Automatic,main,88,20260501-105026,global,local,300,S,S,E,A,S-E.png,A-S.png,sS,sS,mask-2.png,mask-1.png,s,1,1.524698999710381,s,1,0.12199780019000173,0.04869189998134971,0.04754719976335764,0.10169460019096732,0.09958779998123646,0.3019561003893614
RSVPLG03,cs,20260501-104234,1.0.2,20251105-084826,833,Experiment,Both,1,Automatic,main,89,20260501-105031,local,local,300,S,S,E,E,E-S.png,E-S.png,sS,sS,mask-4.png,mask-3.png,s,1,0.548121000174433,s,1,0.10782420029863715,0.04758210014551878,0.048529999796301126,0.10084079997614026,0.10055229999125004,0.30123400036245584
RSVPLG03,cs,20260501-104234,1.0.2,20251105-084826,833,Experiment,Both,1,Automatic,main,90,20260501-105036,global,global,750,H,S,E,E,H-E.png,S-E.png,hH,sS,mask-1.png,mask-2.png,h,1,0.7258289000019431,s,1,0.05363440001383424,0.04572980012744665,0.04660720005631447,0.09913660027086735,0.0999273001216352,0.7516918000765145
RSVPLG03,cs,20260501-104234,1.0.2,20251105-084826,833,Experiment,Both,1,Automatic,main,91,20260501-105041,global,global,750,H,H,E,A,H-E.png,H-A.png,hH,hH,mask-1.png,mask-2.png,s,0,0.9223201000131667,h,1,0.17990839993581176,0.04858759976923466,0.04697109991684556,0.10200579976662993,0.09998810011893511,0.7534016999416053
RSVPLG03,cs,20260501-104234,1.0.2,20251105-084826,833,Experiment,Both,1,Automatic,main,92,20260501-105046,global,global,750,S,S,E,A,S-E.png,S-A.png,sS,sS,mask-1.png,mask-2.png,s,1,0.4366037999279797,s,1,0.08582349959760904,0.0475488998927176,0.04745549988001585,0.09957179985940456,0.10091249970719218,0.7501197000965476
RSVPLG03,cs,20260501-104234,1.0.2,20251105-084826,833,Experiment,Both,1,Automatic,main,93,20260501-105051,local,local,750,S,H,A,E,A-S.png,E-H.png,sS,hH,mask-4.png,mask-1.png,s,1,0.269716199953109,h,1,0.09055820014327765,0.04769429983571172,0.046910000033676624,0.10088150016963482,0.0999635998159647,0.7528269002214074
RSVPLG03,cs,20260501-104234,1.0.2,20251105-084826,833,Experiment,Both,1,Automatic,main,94,20260501-105055,global,local,300,H,S,E,A,H-E.png,A-S.png,hH,sS,mask-3.png,mask-2.png,h,1,0.7847784999758005,h,0,0.15247720014303923,0.047977099660784006,0.048589800018817186,0.10034919995814562,0.10067710001021624,0.30035849986597896
RSVPLG03,cs,20260501-104234,1.0.2,20251105-084826,833,Experiment,Both,1,Automatic,main,95,20260501-105100,global,local,300,S,H,A,E,S-A.png,E-H.png,sS,hH,mask-4.png,mask-3.png,s,1,0.600942799821496,h,1,0.13555889995768666,0.04869129974395037,0.04767000023275614,0.10162899969145656,0.10084309987723827,0.3006699997931719
RSVPLG03,cs,20260501-104234,1.0.2,20251105-084826,833,Experiment,Both,1,Automatic,main,96,20260501-105104,global,global,750,H,H,E,E,H-E.png,H-E.png,hH,hH,mask-4.png,mask-4.png,h,1,0.516047699842602,h,1,0.13703119987621903,0.047389399725943804,0.046598199754953384,0.10037099989131093,0.10063049988821149,0.7526795999146998
RSVPLG03,cs,20260501-104234,1.0.2,20251105-084826,833,Experiment,Both,1,Automatic,main,97,20260501-105109,local,local,750,S,H,A,E,A-S.png,E-H.png,sS,hH,mask-2.png,mask-2.png,s,1,1.699219100177288,h,1,0.12164740031585097,0.04750620014965534,0.047365200240164995,0.10005360003560781,0.10023220023140311,0.7518140999600291
RSVPLG03,cs,20260501-104234,1.0.2,20251105-084826,833,Experiment,Both,1,Automatic,main,98,20260501-105115,local,local,300,H,S,E,A,E-H.png,A-S.png,hH,sS,mask-2.png,mask-1.png,h,1,1.1759285000152886,h,0,0.11610870016738772,0.04653630033135414,0.04639940010383725,0.09955580020323396,0.10048120003193617,0.30086540011689067
RSVPLG03,cs,20260501-104234,1.0.2,20251105-084826,833,Experiment,Both,1,Automatic,main,99,20260501-105120,local,global,300,H,S,E,A,E-H.png,S-A.png,hH,sS,mask-4.png,mask-2.png,s,0,1.325825299602002,s,1,0.07123150024563074,0.04768300009891391,0.04659060016274452,0.10088410042226315,0.100772799924016,0.3014480001293123
RSVPLG03,cs,20260501-104234,1.0.2,20251105-084826,833,Experiment,Both,1,Automatic,main,100,20260501-105125,global,local,300,S,H,E,A,S-E.png,A-H.png,sS,hH,mask-1.png,mask-1.png,s,1,0.6203931998461485,s,0,0.18316949997097254,0.04770029988139868,0.047919999808073044,0.0989156998693943,0.10031219990924001,0.30001180013641715
