exp,exp_initials,runtime,ver,modtime,sub,blocktype,targets,cuetype,mode,trialtype,trial,trialtime,t1_level,t2_level,t2_lag,t1,t2,distractor1,distractor2,stimfile1,stimfile2,t1_corr,t2_corr,maskfile1,maskfile2,t1_resp,t1_acc,t1_rt,t2_resp,t2_acc,t2_rt,t1_dur,t2_dur,t1mask_soa,t2mask_soa,t1t2_soa
RSVPLG03,sg,20251028-121937,1.0.1,20251020-085245,720,Introduction,T1,1,Automatic,main,1,20251028-122037,global,local,750,S,S,E,E,S-E.png,E-S.png,sS,sS,mask-1.png,mask-2.png,s,1,1.972731800051406,none,-5,0,0.09038349997717887,0.09761419997084886,0.19326829991769046,0.2007580999052152,0.7416549000190571
RSVPLG03,sg,20251028-121937,1.0.1,20251020-085245,720,Introduction,T1,1,Automatic,main,2,20251028-122043,global,global,750,H,H,E,A,H-E.png,H-A.png,hH,hH,mask-2.png,mask-1.png,h,1,0.5232857000082731,none,-5,0,0.0982180000282824,0.09691029996611178,0.2003332000458613,0.19997229997534305,0.7504625000292435
RSVPLG03,sg,20251028-121937,1.0.1,20251020-085245,720,Introduction,T1,1,Automatic,main,3,20251028-122048,local,local,750,H,H,A,E,A-H.png,E-H.png,hH,hH,mask-4.png,mask-2.png,h,1,0.33592400001361966,none,-5,0,0.09756420005578548,0.09756959998048842,0.2006062000291422,0.19859739998355508,0.7501358999870718
RSVPLG03,sg,20251028-121937,1.0.1,20251020-085245,720,Introduction,T1,1,Automatic,main,4,20251028-122053,local,global,750,H,S,A,E,A-H.png,S-E.png,hH,sS,mask-2.png,mask-2.png,h,1,0.4533459999365732,none,-5,0,0.09645890002138913,0.09847389999777079,0.20038519997615367,0.19938949996139854,0.749131300020963
RSVPLG03,sg,20251028-121937,1.0.1,20251020-085245,720,Introduction,T1,1,Automatic,main,5,20251028-122057,global,local,750,H,H,A,A,H-A.png,A-H.png,hH,hH,mask-3.png,mask-2.png,h,1,0.5024315000046045,none,-5,0,0.09757400001399219,0.09736460004933178,0.19961190002504736,0.1992088999832049,0.7488490999676287
RSVPLG03,sg,20251028-121937,1.0.1,20251020-085245,720,Introduction,T1,1,Automatic,main,6,20251028-122102,global,global,750,S,H,E,E,S-E.png,H-E.png,sS,hH,mask-2.png,mask-3.png,s,1,0.3364039999432862,none,-5,0,0.09646310005337,0.09742060001008213,0.19920430006459355,0.2002640999853611,0.7495732000097632
RSVPLG03,sg,20251028-121937,1.0.1,20251020-085245,720,Introduction,T1,1,Automatic,main,7,20251028-122107,local,local,750,H,S,E,A,E-H.png,A-S.png,hH,sS,mask-2.png,mask-3.png,h,1,0.23754360002931207,none,-5,0,0.09737199998926371,0.09811130003072321,0.20126530004199594,0.19996560004074126,0.7503250000299886
RSVPLG03,sg,20251028-121937,1.0.1,20251020-085245,720,Introduction,T1,1,Automatic,main,8,20251028-122111,local,global,750,S,S,A,A,A-S.png,S-A.png,sS,sS,mask-3.png,mask-3.png,s,1,0.14978470001369715,none,-5,0,0.09489089995622635,0.09708830004092306,0.1978298999601975,0.19998789997771382,0.7478220999473706
RSVPLG03,sg,20251028-121937,1.0.1,20251020-085245,720,Introduction,T1,1,Automatic,main,9,20251028-122115,global,global,750,S,H,A,E,S-A.png,H-E.png,sS,hH,mask-3.png,mask-3.png,s,1,0.4116300999885425,none,-5,0,0.09938390005845577,0.09884710004553199,0.20025550003629178,0.2007721000118181,0.7487781000090763
RSVPLG03,sg,20251028-121937,1.0.1,20251020-085245,720,Introduction,T1,1,Automatic,main,10,20251028-122120,local,global,750,S,S,A,A,A-S.png,S-A.png,sS,sS,mask-1.png,mask-2.png,s,1,1.0502410000190139,none,-5,0,0.09845609997864813,0.09675649995915592,0.20130820001941174,0.19972469995263964,0.7496467999881133
RSVPLG03,sg,20251028-121937,1.0.1,20251020-085245,720,Introduction,T1,1,Automatic,main,11,20251028-122125,local,global,750,S,H,E,E,E-S.png,H-E.png,sS,hH,mask-1.png,mask-1.png,s,1,0.9854781999019906,none,-5,0,0.09846420004032552,0.09740809991490096,0.20031660003587604,0.20037709991447628,0.7491820000577718
RSVPLG03,sg,20251028-121937,1.0.1,20251020-085245,720,Introduction,T1,1,Automatic,main,12,20251028-122131,local,local,750,S,S,A,A,A-S.png,A-S.png,sS,sS,mask-2.png,mask-2.png,s,1,0.48005770007148385,none,-5,0,0.09746920003090054,0.097610600059852,0.19963440007995814,0.20057260000612587,0.7489452000008896
RSVPLG03,sg,20251028-121937,1.0.1,20251020-085245,720,Introduction,T1,1,Automatic,main,13,20251028-122135,global,local,750,S,H,E,A,S-E.png,A-H.png,sS,hH,mask-2.png,mask-3.png,s,1,0.41201800003182143,none,-5,0,0.09762609994504601,0.09759040002245456,0.1987673999974504,0.19962369999848306,0.7482396999839693
RSVPLG03,sg,20251028-121937,1.0.1,20251020-085245,720,Introduction,T1,1,Automatic,main,14,20251028-122140,local,local,750,S,S,A,E,A-S.png,E-S.png,sS,sS,mask-3.png,mask-3.png,s,1,0.5088564000325277,none,-5,0,0.09858649992384017,0.09757059998810291,0.20137019990943372,0.19960010005161166,0.7493468999164179
RSVPLG03,sg,20251028-121937,1.0.1,20251020-085245,720,Introduction,T1,1,Automatic,main,15,20251028-122145,global,local,750,S,S,E,A,S-E.png,A-S.png,sS,sS,mask-1.png,mask-3.png,s,1,0.3029398999642581,none,-5,0,0.09782469994388521,0.09847620001528412,0.19995729997754097,0.201329099945724,0.7487116999691352
RSVPLG03,sg,20251028-121937,1.0.1,20251020-085245,720,Introduction,T1,1,Automatic,main,16,20251028-122149,global,global,750,S,S,A,A,S-A.png,S-A.png,sS,sS,mask-3.png,mask-4.png,s,1,0.3187945999670774,none,-5,0,0.09754380001686513,0.09754450002219528,0.20061689999420196,0.19957840000279248,0.7499552000081167
RSVPLG03,sg,20251028-122211,1.0.1,20251020-085245,720,Practice,T1,1,Automatic,main,1,20251028-122229,global,local,300,H,S,A,A,H-A.png,A-S.png,hH,sS,mask-3.png,mask-4.png,h,1,1.148641400039196,none,-5,0,0.04213400010485202,0.04869620001409203,0.09434569999575615,0.10075959993992001,0.29408960009459406
RSVPLG03,sg,20251028-122211,1.0.1,20251020-085245,720,Practice,T1,1,Automatic,main,2,20251028-122234,local,local,750,H,S,A,A,A-H.png,A-S.png,hH,sS,mask-1.png,mask-1.png,h,1,0.47472379996906966,none,-5,0,0.047560399980284274,0.04858680011238903,0.0991097999503836,0.09947320003993809,0.7495601999107748
RSVPLG03,sg,20251028-122211,1.0.1,20251020-085245,720,Practice,T1,1,Automatic,main,3,20251028-122239,local,local,300,H,S,A,A,A-H.png,A-S.png,hH,sS,mask-3.png,mask-3.png,h,1,0.5439102000091225,none,-5,0,0.04752540006302297,0.04935949994251132,0.10154189995955676,0.10036959999706596,0.2998611000366509
RSVPLG03,sg,20251028-122211,1.0.1,20251020-085245,720,Practice,T1,1,Automatic,main,4,20251028-122243,global,global,750,S,H,E,E,S-E.png,H-E.png,sS,hH,mask-4.png,mask-2.png,s,1,0.21633279998786747,none,-5,0,0.047518700012005866,0.048590100021101534,0.10067620000336319,0.10063560004346073,0.7498326000059023
RSVPLG03,sg,20251028-122211,1.0.1,20251020-085245,720,Practice,T1,1,Automatic,main,5,20251028-122247,global,local,750,H,H,A,A,H-A.png,A-H.png,hH,hH,mask-3.png,mask-2.png,h,1,0.417010800098069,none,-5,0,0.04751330008730292,0.04723480006214231,0.09956880006939173,0.09822330006863922,0.7513935000170022
RSVPLG03,sg,20251028-122211,1.0.1,20251020-085245,720,Practice,T1,1,Automatic,main,6,20251028-122252,global,local,750,H,H,E,A,H-E.png,A-H.png,hH,hH,mask-2.png,mask-3.png,h,1,0.4242642999161035,none,-5,0,0.04665819997899234,0.04751219996251166,0.09976969996932894,0.10056220006663352,0.7503005999606103
RSVPLG03,sg,20251028-122211,1.0.1,20251020-085245,720,Practice,T1,1,Automatic,main,7,20251028-122256,local,global,750,H,S,A,E,A-H.png,S-E.png,hH,sS,mask-3.png,mask-1.png,h,1,0.5267573000164703,none,-5,0,0.04756659991107881,0.046547100064344704,0.10138889995869249,0.09959400002844632,0.7519030999392271
RSVPLG03,sg,20251028-122211,1.0.1,20251020-085245,720,Practice,T1,1,Automatic,main,8,20251028-122301,local,local,300,S,H,E,E,E-S.png,E-H.png,sS,hH,mask-4.png,mask-1.png,s,1,0.6856428000610322,none,-5,0,0.04548210010398179,0.047580900019966066,0.0984371000668034,0.10067369998432696,0.2990787000162527
RSVPLG03,sg,20251028-122211,1.0.1,20251020-085245,720,Practice,T1,1,Automatic,main,9,20251028-122305,global,global,300,S,H,A,E,S-A.png,H-E.png,sS,hH,mask-2.png,mask-4.png,s,1,0.6628964999690652,none,-5,0,0.0466995999449864,0.047386799938976765,0.099258599919267,0.10025519994087517,0.2983570999931544
RSVPLG03,sg,20251028-122211,1.0.1,20251020-085245,720,Practice,T1,1,Automatic,main,10,20251028-122309,local,global,300,H,S,E,E,E-H.png,S-E.png,hH,sS,mask-2.png,mask-4.png,h,1,0.6339312999043614,none,-5,0,0.04748250008560717,0.04752209992147982,0.09952879999764264,0.09933939995244145,0.2997887000674382
RSVPLG03,sg,20251028-122211,1.0.1,20251020-085245,720,Practice,T1,1,Automatic,main,11,20251028-122313,global,local,300,H,H,A,E,H-A.png,E-H.png,hH,hH,mask-3.png,mask-4.png,h,1,0.3790359999984503,none,-5,0,0.047613600036129355,0.04756550001911819,0.09962330001872033,0.09959869994781911,0.29986710008233786
RSVPLG03,sg,20251028-122211,1.0.1,20251020-085245,720,Practice,T1,1,Automatic,main,12,20251028-122317,global,global,300,H,H,E,E,H-E.png,H-E.png,hH,hH,mask-1.png,mask-3.png,h,1,0.2736397999105975,none,-5,0,0.047491899924352765,0.04691929998807609,0.10048349993303418,0.10099479998461902,0.30018299992661923
RSVPLG03,sg,20251028-122211,1.0.1,20251020-085245,720,Practice,T1,1,Automatic,main,13,20251028-122321,global,global,750,S,H,E,A,S-E.png,H-A.png,sS,hH,mask-4.png,mask-1.png,s,1,1.085678800009191,none,-5,0,0.04654310003388673,0.048594099935144186,0.09962000011000782,0.10062159993685782,0.7491074000718072
RSVPLG03,sg,20251028-122211,1.0.1,20251020-085245,720,Practice,T1,1,Automatic,main,14,20251028-122326,local,local,750,H,H,A,A,A-H.png,A-H.png,hH,hH,mask-1.png,mask-3.png,h,1,0.9409523999784142,none,-5,0,0.046389900031499565,0.04755520005710423,0.0992183000780642,0.09953140001744032,0.7500145999947563
RSVPLG03,sg,20251028-122211,1.0.1,20251020-085245,720,Practice,T1,1,Automatic,main,15,20251028-122331,local,global,750,S,S,E,A,E-S.png,S-A.png,sS,sS,mask-2.png,mask-3.png,s,1,0.5397606000769883,none,-5,0,0.04757579998113215,0.04754739999771118,0.09962260001339018,0.09834549995139241,0.7504366000648588
RSVPLG03,sg,20251028-122211,1.0.1,20251020-085245,720,Practice,T1,1,Automatic,main,16,20251028-122336,local,global,300,S,H,E,E,E-S.png,H-E.png,sS,hH,mask-1.png,mask-1.png,s,1,0.6748549999902025,none,-5,0,0.04745469999033958,0.046920199994929135,0.0998183999909088,0.09906230005435646,0.3006200999952853
RSVPLG03,sg,20251028-122404,1.0.1,20251020-085245,720,Introduction,Both,1,Automatic,main,1,20251028-122504,global,global,750,H,H,E,A,H-E.png,H-A.png,hH,hH,mask-3.png,mask-3.png,h,1,0.687735200044699,s,0,2.1595635999692604,0.09113910002633929,0.09721879998687655,0.19195290002971888,0.1992966999532655,0.7421223000856116
RSVPLG03,sg,20251028-122404,1.0.1,20251020-085245,720,Introduction,Both,1,Automatic,main,2,20251028-122511,global,local,750,S,H,E,A,S-E.png,A-H.png,sS,hH,mask-2.png,mask-3.png,s,1,1.8404897999716923,h,1,0.12656230002176017,0.09733879996929318,0.09755539998877794,0.19843979994766414,0.19962179998401552,0.7484127000207081
RSVPLG03,sg,20251028-122404,1.0.1,20251020-085245,720,Introduction,Both,1,Automatic,main,3,20251028-122517,global,local,750,H,H,A,E,H-A.png,E-H.png,hH,hH,mask-2.png,mask-2.png,h,1,2.593764799996279,h,1,2.0073095000116155,0.09702500002458692,0.09716190001927316,0.19909210002515465,0.2013208999997005,0.7483205000171438
RSVPLG03,sg,20251028-122404,1.0.1,20251020-085245,720,Introduction,Both,1,Automatic,main,4,20251028-122526,global,global,750,H,S,E,E,H-E.png,S-E.png,hH,sS,mask-4.png,mask-4.png,h,1,0.4282474999781698,s,1,0.03928779996931553,0.09840000001713634,0.09737560001667589,0.2013386000180617,0.20025080000050366,0.750502199982293
RSVPLG03,sg,20251028-122404,1.0.1,20251020-085245,720,Introduction,Both,1,Automatic,main,5,20251028-122531,local,local,750,H,H,A,E,A-H.png,E-H.png,hH,hH,mask-1.png,mask-4.png,s,0,0.5148743001045659,h,1,0.5805618000449613,0.0975337999407202,0.09756999998353422,0.20062419993337244,0.19905269995797426,0.7500130999833345
RSVPLG03,sg,20251028-122404,1.0.1,20251020-085245,720,Introduction,Both,1,Automatic,main,6,20251028-122536,local,global,750,S,H,E,E,E-S.png,H-E.png,sS,hH,mask-3.png,mask-1.png,h,0,2.8372577000409365,s,0,0.28345750004518777,0.09738729998935014,0.09738060005474836,0.19926859997212887,0.1993215000256896,0.7502289999974892
RSVPLG03,sg,20251028-122404,1.0.1,20251020-085245,720,Introduction,Both,1,Automatic,main,7,20251028-122544,local,local,750,S,S,E,A,E-S.png,A-S.png,sS,sS,mask-1.png,mask-2.png,s,1,0.8920277999714017,s,1,0.11606690008193254,0.09875819995068014,0.09754510002676398,0.20074919995386153,0.1984952000202611,0.7508090999908745
RSVPLG03,sg,20251028-122404,1.0.1,20251020-085245,720,Introduction,Both,1,Automatic,main,8,20251028-122549,global,global,750,S,H,E,E,S-E.png,H-E.png,sS,hH,mask-1.png,mask-3.png,h,0,1.2517065999563783,h,1,0.3043793000979349,0.09864240000024438,0.09913250000681728,0.20178130001295358,0.20025420002639294,0.7495208000764251
RSVPLG03,sg,20251028-122404,1.0.1,20251020-085245,720,Introduction,Both,1,Automatic,main,9,20251028-122555,global,local,750,H,S,E,E,H-E.png,E-S.png,hH,sS,mask-3.png,mask-3.png,h,1,0.5012205999810249,s,1,0.22418360004667193,0.09753789997193962,0.0975492000579834,0.1996190999634564,0.20053580007515848,0.7485552999423817
RSVPLG03,sg,20251028-122404,1.0.1,20251020-085245,720,Introduction,Both,1,Automatic,main,10,20251028-122600,local,local,750,S,S,E,A,E-S.png,A-S.png,sS,sS,mask-3.png,mask-3.png,s,1,0.6248734999680892,s,1,0.14400500000920147,0.09737710002809763,0.09701260004658252,0.20045000000391155,0.20074580004438758,0.7495739000150934
RSVPLG03,sg,20251028-122404,1.0.1,20251020-085245,720,Introduction,Both,1,Automatic,main,11,20251028-122605,local,global,750,H,H,E,A,E-H.png,H-A.png,hH,hH,mask-3.png,mask-4.png,s,0,3.56892849993892,s,0,0.8452134999679402,0.09738389996346086,0.09699270001146942,0.19917099992744625,0.19994869991205633,0.7494028999935836
RSVPLG03,sg,20251028-122404,1.0.1,20251020-085245,720,Introduction,Both,1,Automatic,main,12,20251028-122614,local,global,750,H,S,A,E,A-H.png,S-E.png,hH,sS,mask-1.png,mask-1.png,h,1,4.7702918000286445,h,0,0.5727897000033408,0.09741659997962415,0.09841879992745817,0.20132919994648546,0.19929949997458607,0.7502122999867424
RSVPLG03,sg,20251028-122404,1.0.1,20251020-085245,720,Introduction,Both,1,Automatic,main,13,20251028-122624,global,global,750,S,S,E,E,S-E.png,S-E.png,sS,sS,mask-4.png,mask-2.png,s,1,3.006118100020103,s,1,0.23702820006292313,0.09741329995449632,0.09737140010111034,0.2002996999071911,0.20030030002817512,0.7482591998996213
RSVPLG03,sg,20251028-122404,1.0.1,20251020-085245,720,Introduction,Both,1,Automatic,main,14,20251028-122631,local,local,750,S,S,A,E,A-S.png,E-S.png,sS,sS,mask-1.png,mask-4.png,s,1,1.034191200044006,s,1,0.1587751000188291,0.09752780001144856,0.0973126000026241,0.20146780007053167,0.20014359999913722,0.7493011000333354
RSVPLG03,sg,20251028-122404,1.0.1,20251020-085245,720,Introduction,Both,1,Automatic,main,15,20251028-122637,local,global,750,H,S,E,E,E-H.png,S-E.png,hH,sS,mask-4.png,mask-4.png,h,1,3.930348000023514,h,0,1.755616599926725,0.09746509999968112,0.09738900000229478,0.20033659995533526,0.201161100063473,0.7483125999569893
RSVPLG03,sg,20251028-122404,1.0.1,20251020-085245,720,Introduction,Both,1,Automatic,main,16,20251028-122647,global,local,750,H,H,A,A,H-A.png,A-H.png,hH,hH,mask-2.png,mask-3.png,h,1,0.8588749999180436,h,1,0.11906519997864962,0.09701559995301068,0.0984052000567317,0.19821229996159673,0.20030870009213686,0.747467799927108
RSVPLG03,sg,20251028-122710,1.0.1,20251020-085245,720,Practice,Both,1,Automatic,main,1,20251028-122728,global,global,750,S,S,E,A,S-E.png,S-A.png,sS,sS,mask-1.png,mask-4.png,s,1,0.9728393999394029,s,1,0.18836399994324893,0.048024100018665195,0.04753099998924881,0.09940750000532717,0.09853580000344664,0.7508352999575436
RSVPLG03,sg,20251028-122710,1.0.1,20251020-085245,720,Practice,Both,1,Automatic,main,2,20251028-122733,local,local,750,S,H,A,E,A-S.png,E-H.png,sS,hH,mask-2.png,mask-2.png,s,1,1.1299785000737756,h,1,0.14051479997579008,0.04757129994686693,0.04755050002131611,0.09962440002709627,0.09890940005425364,0.7496420999523252
RSVPLG03,sg,20251028-122710,1.0.1,20251020-085245,720,Practice,Both,1,Automatic,main,3,20251028-122738,local,global,300,H,H,A,E,A-H.png,H-E.png,hH,hH,mask-4.png,mask-2.png,h,1,1.8089257000247017,h,1,0.09062800009269267,0.046702500083483756,0.04575920000206679,0.09892380004748702,0.09892549994401634,0.29963410005439073
RSVPLG03,sg,20251028-122710,1.0.1,20251020-085245,720,Practice,Both,1,Automatic,main,4,20251028-122744,global,global,300,H,S,E,A,H-E.png,S-A.png,hH,sS,mask-1.png,mask-1.png,h,1,0.8304473999887705,h,0,0.15046189993154258,0.046520199975930154,0.04956590000074357,0.0995264999801293,0.10056579997763038,0.2974231999833137
RSVPLG03,sg,20251028-122710,1.0.1,20251020-085245,720,Practice,Both,1,Automatic,main,5,20251028-122749,global,global,300,H,S,A,E,H-A.png,S-E.png,hH,sS,mask-4.png,mask-2.png,h,1,0.6642143999924883,s,1,0.07544639997649938,0.04664229997433722,0.04753330000676215,0.09929019992705435,0.0995647000381723,0.29957729997113347
RSVPLG03,sg,20251028-122710,1.0.1,20251020-085245,720,Practice,Both,1,Automatic,main,6,20251028-122753,global,local,750,H,S,E,A,H-E.png,A-S.png,hH,sS,mask-3.png,mask-3.png,h,1,0.6185449999757111,s,1,0.044196999981068075,0.04754749999847263,0.04754619998857379,0.09856860002037138,0.0994772999547422,0.7494237000355497
RSVPLG03,sg,20251028-122710,1.0.1,20251020-085245,720,Practice,Both,1,Automatic,main,7,20251028-122758,global,global,750,S,H,E,A,S-E.png,H-A.png,sS,hH,mask-4.png,mask-3.png,s,1,0.5770508999703452,h,1,0.15538470004685223,0.0467270000372082,0.04771519999485463,0.09988069999963045,0.10000890004448593,0.749805000028573
RSVPLG03,sg,20251028-122710,1.0.1,20251020-085245,720,Practice,Both,1,Automatic,main,8,20251028-122803,local,global,750,H,H,A,E,A-H.png,H-E.png,hH,hH,mask-3.png,mask-2.png,h,1,1.5466642000246793,s,0,0.06393129995558411,0.04736109997611493,0.04656930000055581,0.09943659999407828,0.09956869995221496,0.7503483999753371
RSVPLG03,sg,20251028-122710,1.0.1,20251020-085245,720,Practice,Both,1,Automatic,main,9,20251028-122809,local,local,300,S,S,E,A,E-S.png,A-S.png,sS,sS,mask-3.png,mask-3.png,s,1,1.1858167999889702,h,0,0.021187399979680777,0.047472700010985136,0.04738579993136227,0.10046980006154627,0.10035189997870475,0.29958920006174594
RSVPLG03,sg,20251028-122710,1.0.1,20251020-085245,720,Practice,Both,1,Automatic,main,10,20251028-122814,global,local,750,S,S,E,A,S-E.png,A-S.png,sS,sS,mask-2.png,mask-2.png,s,1,1.106462899944745,h,0,0.2839454000350088,0.04751359997317195,0.04751169995870441,0.0985416000476107,0.10088329995051026,0.7483800000045449
RSVPLG03,sg,20251028-122710,1.0.1,20251020-085245,720,Practice,Both,1,Automatic,main,11,20251028-122819,local,local,300,H,S,E,A,E-H.png,A-S.png,hH,sS,mask-2.png,mask-3.png,h,1,2.322838999913074,s,1,0.34905560000333935,0.04754429997410625,0.047506900038570166,0.10055620002094656,0.10176610003691167,0.2988663000287488
RSVPLG03,sg,20251028-122710,1.0.1,20251020-085245,720,Practice,Both,1,Automatic,main,12,20251028-122826,global,local,300,S,S,E,E,S-E.png,E-S.png,sS,sS,mask-4.png,mask-1.png,s,1,1.5376774000469595,s,1,1.0688943000277504,0.04652939992956817,0.04754139995202422,0.0996126999380067,0.0985458999639377,0.30086499999742955
RSVPLG03,sg,20251028-122710,1.0.1,20251020-085245,720,Practice,Both,1,Automatic,main,13,20251028-122832,local,global,300,S,S,A,E,A-S.png,S-E.png,sS,sS,mask-4.png,mask-3.png,s,1,0.8120372999692336,h,0,0.07755839999299496,0.047490299912169576,0.04758719995152205,0.09920830000191927,0.09966959990561008,0.29986979998648167
RSVPLG03,sg,20251028-122710,1.0.1,20251020-085245,720,Practice,Both,1,Automatic,main,14,20251028-122837,global,local,300,S,S,E,E,S-E.png,E-S.png,sS,sS,mask-2.png,mask-1.png,s,1,1.7934677000157535,s,1,0.5254900999134406,0.048557200003415346,0.048511500004678965,0.1005422999151051,0.10155529994517565,0.29968359996564686
RSVPLG03,sg,20251028-122710,1.0.1,20251020-085245,720,Practice,Both,1,Automatic,main,15,20251028-122843,local,local,750,S,H,E,E,E-S.png,E-H.png,sS,hH,mask-3.png,mask-3.png,s,1,0.7423922999296337,h,1,0.02236349997110665,0.045568799949251115,0.04752389993518591,0.09958189993631095,0.09958659997209907,0.7497259000083432
RSVPLG03,sg,20251028-122710,1.0.1,20251020-085245,720,Practice,Both,1,Automatic,main,16,20251028-122848,local,global,750,H,H,E,A,E-H.png,H-A.png,hH,hH,mask-3.png,mask-2.png,s,0,2.30334529990796,h,1,0.5625732000917196,0.04770450002979487,0.048532200045883656,0.10004859999753535,0.10054160002619028,0.7494876999408007
RSVPLG03,sg,20251028-123101,1.0.1,20251020-085245,720,Experiment,Both,1,Automatic,warmup,1,20251028-123145,local,global,750,S,H,E,A,E-S.png,H-A.png,sS,hH,mask-4.png,mask-2.png,s,1,1.9318929000291973,h,1,0.7917021999601275,0.04107040003873408,0.04769350006245077,0.09432999999262393,0.10087130009196699,0.7443801999324933
RSVPLG03,sg,20251028-123101,1.0.1,20251020-085245,720,Experiment,Both,1,Automatic,warmup,2,20251028-123152,local,global,300,S,H,E,E,E-S.png,H-E.png,sS,hH,mask-2.png,mask-3.png,s,1,1.1713130000280216,h,1,0.23803230002522469,0.047832899959757924,0.04698350001126528,0.10198809998109937,0.1000666000181809,0.3016323000192642
RSVPLG03,sg,20251028-123101,1.0.1,20251020-085245,720,Experiment,Both,1,Automatic,warmup,3,20251028-123157,local,local,750,H,S,E,E,E-H.png,E-S.png,hH,sS,mask-2.png,mask-1.png,h,1,2.364784099976532,s,1,0.11354409996420145,0.048635800019837916,0.04755470005329698,0.09967369993682951,0.10121930006425828,0.7504823999479413
RSVPLG03,sg,20251028-123101,1.0.1,20251020-085245,720,Experiment,Both,1,Automatic,warmup,4,20251028-123204,global,local,750,H,H,E,A,H-E.png,A-H.png,hH,hH,mask-4.png,mask-1.png,h,1,0.9541436999570578,h,1,0.1410539000062272,0.04880089999642223,0.04755989997647703,0.10200189996976405,0.10056009993422776,0.7506297000218183
RSVPLG03,sg,20251028-123101,1.0.1,20251020-085245,720,Experiment,Both,1,Automatic,warmup,5,20251028-123209,global,global,300,H,H,A,E,H-A.png,H-E.png,hH,hH,mask-1.png,mask-3.png,h,1,0.7505876000504941,h,1,0.10360729997046292,0.04752949997782707,0.047526500071398914,0.10053719999268651,0.09962890006136149,0.3018782999133691
RSVPLG03,sg,20251028-123101,1.0.1,20251020-085245,720,Experiment,Both,1,Automatic,main,6,20251028-123213,local,local,300,H,S,A,E,A-H.png,E-S.png,hH,sS,mask-1.png,mask-1.png,h,1,1.8923917999491096,h,0,0.11531409993767738,0.04766339994966984,0.04772799997590482,0.09987649996764958,0.10074829997029155,0.2994952000444755
RSVPLG03,sg,20251028-123101,1.0.1,20251020-085245,720,Experiment,Both,1,Automatic,main,7,20251028-123219,global,local,750,S,H,A,E,S-A.png,E-H.png,sS,hH,mask-2.png,mask-2.png,s,1,0.5549675000365824,h,1,0.14046599995344877,0.04841749998740852,0.048689099960029125,0.10022979998029768,0.10085809999145567,0.7500488000223413
RSVPLG03,sg,20251028-123101,1.0.1,20251020-085245,720,Experiment,Both,1,Automatic,main,8,20251028-123224,local,local,300,H,H,E,A,E-H.png,A-H.png,hH,hH,mask-4.png,mask-1.png,h,1,0.9966152000706643,s,0,0.32808160001877695,0.0467894000466913,0.04767799994442612,0.0999812000663951,0.09977069997694343,0.3004403000231832
RSVPLG03,sg,20251028-123101,1.0.1,20251020-085245,720,Experiment,Both,1,Automatic,main,9,20251028-123229,global,global,300,H,H,E,E,H-E.png,H-E.png,hH,hH,mask-2.png,mask-4.png,h,1,0.48002809996251017,h,1,0.11646459996700287,0.046729300054721534,0.046670999960042536,0.09961370006203651,0.09957999992184341,0.29970810003578663
RSVPLG03,sg,20251028-123101,1.0.1,20251020-085245,720,Experiment,Both,1,Automatic,main,10,20251028-123234,local,local,300,H,S,E,E,E-H.png,E-S.png,hH,sS,mask-2.png,mask-4.png,h,1,0.8250996000133455,s,1,0.3129713999805972,0.046669599949382246,0.04756849992554635,0.09973589994478971,0.1007922999560833,0.29888180003035814
RSVPLG03,sg,20251028-123101,1.0.1,20251020-085245,720,Experiment,Both,1,Automatic,main,11,20251028-123238,global,local,300,S,H,E,E,S-E.png,E-H.png,sS,hH,mask-2.png,mask-3.png,s,1,0.4746629000874236,h,1,0.06901259999722242,0.047728999983519316,0.04789279995020479,0.09991480002645403,0.09979359991848469,0.29956750001292676
RSVPLG03,sg,20251028-123101,1.0.1,20251020-085245,720,Experiment,Both,1,Automatic,main,12,20251028-123243,local,global,750,S,H,A,E,A-S.png,H-E.png,sS,hH,mask-2.png,mask-2.png,s,1,0.5864013000391424,h,1,0.11492129997350276,0.047397100017406046,0.04846800002269447,0.09851889999117702,0.0994718000292778,0.7492035999894142
RSVPLG03,sg,20251028-123101,1.0.1,20251020-085245,720,Experiment,Both,1,Automatic,main,13,20251028-123248,local,global,300,S,H,E,A,E-S.png,H-A.png,sS,hH,mask-1.png,mask-2.png,s,1,1.2783818999305367,h,1,0.13349689997266978,0.04757579998113215,0.04738130001351237,0.10052039998117834,0.10025630006566644,0.3004938999656588
RSVPLG03,sg,20251028-123101,1.0.1,20251020-085245,720,Experiment,Both,1,Automatic,main,14,20251028-123253,global,global,750,H,H,A,A,H-A.png,H-A.png,hH,hH,mask-2.png,mask-4.png,h,1,0.3486417999956757,h,1,0.12363300006836653,0.046523199998773634,0.0475134999724105,0.10055820003617555,0.09955489996355027,0.7508200000738725
RSVPLG03,sg,20251028-123101,1.0.1,20251020-085245,720,Experiment,Both,1,Automatic,main,15,20251028-123257,global,local,300,S,H,E,E,S-E.png,E-H.png,sS,hH,mask-1.png,mask-1.png,h,0,0.7979039000347257,s,0,0.5982593999942765,0.04751539998687804,0.047570399940013885,0.10056579997763038,0.1007412999169901,0.29968990001361817
RSVPLG03,sg,20251028-123101,1.0.1,20251020-085245,720,Experiment,Both,1,Automatic,main,16,20251028-123302,local,local,300,H,S,A,E,A-H.png,E-S.png,hH,sS,mask-2.png,mask-4.png,h,1,1.8224607999436557,s,1,0.06025119998957962,0.047281700070016086,0.047533400007523596,0.10009309998713434,0.10158230003435165,0.2994005000218749
RSVPLG03,sg,20251028-123101,1.0.1,20251020-085245,720,Experiment,Both,1,Automatic,main,17,20251028-123308,global,local,300,H,S,A,A,H-A.png,A-S.png,hH,sS,mask-2.png,mask-2.png,h,1,1.2713289000093937,h,0,0.10388830001465976,0.04752390005160123,0.04754950001370162,0.1005932999541983,0.10062309994827956,0.29993700003251433
RSVPLG03,sg,20251028-123101,1.0.1,20251020-085245,720,Experiment,Both,1,Automatic,main,18,20251028-123313,global,global,750,H,H,A,E,H-A.png,H-E.png,hH,hH,mask-4.png,mask-3.png,h,1,0.46310349996201694,h,1,0.07585370005108416,0.04719680000562221,0.04688570008147508,0.10018870001658797,0.10007500008214265,0.75045259995386
RSVPLG03,sg,20251028-123101,1.0.1,20251020-085245,720,Experiment,Both,1,Automatic,main,19,20251028-123318,global,global,750,S,H,E,E,S-E.png,H-E.png,sS,hH,mask-4.png,mask-1.png,s,1,0.3902676999568939,h,1,0.08441730006597936,0.04889000009279698,0.04768160008825362,0.10016909998375922,0.10189130005892366,0.749997999984771
RSVPLG03,sg,20251028-123101,1.0.1,20251020-085245,720,Experiment,Both,1,Automatic,main,20,20251028-123322,global,global,300,H,S,E,A,H-E.png,S-A.png,hH,sS,mask-1.png,mask-1.png,h,1,0.5451733999652788,s,1,0.11743340000975877,0.047708600061014295,0.047517300001345575,0.09979110001586378,0.10155959997791797,0.30004210001789033
RSVPLG03,sg,20251028-123101,1.0.1,20251020-085245,720,Experiment,Both,1,Automatic,main,21,20251028-123327,local,local,300,H,S,A,E,A-H.png,E-S.png,hH,sS,mask-2.png,mask-2.png,h,1,2.029899200075306,s,1,0.0706153999781236,0.04648869996890426,0.04761100001633167,0.10032759991008788,0.09980630001518875,0.29891049989964813
RSVPLG03,sg,20251028-123101,1.0.1,20251020-085245,720,Experiment,Both,1,Automatic,main,22,20251028-123333,local,local,750,S,S,A,A,A-S.png,A-S.png,sS,sS,mask-3.png,mask-2.png,s,1,0.5392901999875903,s,1,0.08857510006055236,0.04854820005130023,0.047647600062191486,0.10056070005521178,0.10077170003205538,0.7501971999881789
RSVPLG03,sg,20251028-123101,1.0.1,20251020-085245,720,Experiment,Both,1,Automatic,main,23,20251028-123337,global,local,300,S,H,A,E,S-A.png,E-H.png,sS,hH,mask-4.png,mask-2.png,s,1,2.3335956999799237,s,0,0.09958719997666776,0.045693600084632635,0.046697999932803214,0.09940509998705238,0.0989121999591589,0.30035250005312264
RSVPLG03,sg,20251028-123101,1.0.1,20251020-085245,720,Experiment,Both,1,Automatic,main,24,20251028-123343,global,global,300,H,H,A,E,H-A.png,H-E.png,hH,hH,mask-1.png,mask-3.png,h,1,0.40013229998294264,h,1,0.10517619992606342,0.047711700084619224,0.04667650000192225,0.09988340002018958,0.10084650001954287,0.2994078000774607
RSVPLG03,sg,20251028-123101,1.0.1,20251020-085245,720,Experiment,Both,1,Automatic,main,25,20251028-123348,local,local,300,S,H,A,A,A-S.png,A-H.png,sS,hH,mask-4.png,mask-1.png,s,1,0.562656500027515,h,1,0.02621580008417368,0.048683600034564734,0.04768310009967536,0.10021549998782575,0.09947820007801056,0.300940899993293
RSVPLG03,sg,20251028-123101,1.0.1,20251020-085245,720,Experiment,Both,1,Automatic,main,26,20251028-123424,global,local,750,H,H,A,A,H-A.png,A-H.png,hH,hH,mask-3.png,mask-3.png,h,1,0.4979605000698939,h,1,0.14141020004171878,0.04867200006265193,0.04751199996098876,0.10069039999507368,0.0995155000127852,0.7508419000077993
RSVPLG03,sg,20251028-123101,1.0.1,20251020-085245,720,Experiment,Both,1,Automatic,main,27,20251028-123429,global,global,750,H,H,E,A,H-E.png,H-A.png,hH,hH,mask-1.png,mask-1.png,h,1,0.3994276999728754,h,1,0.06972479994874448,0.04655169998295605,0.047533400007523596,0.0995645000366494,0.09954079997260123,0.7502677000593394
RSVPLG03,sg,20251028-123101,1.0.1,20251020-085245,720,Experiment,Both,1,Automatic,main,28,20251028-123433,global,global,750,H,H,E,A,H-E.png,H-A.png,hH,hH,mask-1.png,mask-3.png,h,1,0.3584358999505639,h,1,0.07643550005741417,0.04755919997114688,0.04757269995752722,0.09964610007591546,0.09962959995027632,0.7499621000606567
RSVPLG03,sg,20251028-123101,1.0.1,20251020-085245,720,Experiment,Both,1,Automatic,main,29,20251028-123438,local,local,300,S,H,A,A,A-S.png,A-H.png,sS,hH,mask-2.png,mask-4.png,s,1,0.6666417999658734,h,1,0.1733158000279218,0.04677569994237274,0.04750890005379915,0.09993519994895905,0.09957229997962713,0.3002485999604687
RSVPLG03,sg,20251028-123101,1.0.1,20251020-085245,720,Experiment,Both,1,Automatic,main,30,20251028-123443,local,local,300,S,H,A,E,A-S.png,E-H.png,sS,hH,mask-1.png,mask-4.png,s,1,0.7030788999982178,h,1,0.13354559999424964,0.04761120001785457,0.04769899998791516,0.10080420004669577,0.0990050999680534,0.3005841000704095
RSVPLG03,sg,20251028-123101,1.0.1,20251020-085245,720,Experiment,Both,1,Automatic,main,31,20251028-123447,global,local,300,H,S,E,A,H-E.png,A-S.png,hH,sS,mask-4.png,mask-3.png,h,1,0.43339510005898774,h,0,0.0898233000189066,0.047689000028185546,0.04712500004097819,0.10087670001666993,0.10005999996792525,0.3015055999858305
RSVPLG03,sg,20251028-123101,1.0.1,20251020-085245,720,Experiment,Both,1,Automatic,main,32,20251028-123451,local,global,750,H,H,A,A,A-H.png,H-A.png,hH,hH,mask-1.png,mask-3.png,h,1,1.7843807999743149,s,0,0.04187880002427846,0.04674899997189641,0.04753910005092621,0.09940740000456572,0.099576500011608,0.7498489998979494
RSVPLG03,sg,20251028-123101,1.0.1,20251020-085245,720,Experiment,Both,1,Automatic,main,33,20251028-123457,global,global,300,S,S,A,E,S-A.png,S-E.png,sS,sS,mask-3.png,mask-1.png,s,1,1.2671033999649808,h,0,0.06700659997295588,0.046366199967451394,0.04851700004655868,0.10044139996170998,0.10035570000763983,0.2985573000041768
RSVPLG03,sg,20251028-123101,1.0.1,20251020-085245,720,Experiment,Both,1,Automatic,main,34,20251028-123502,local,global,750,H,S,A,A,A-H.png,S-A.png,hH,sS,mask-2.png,mask-1.png,h,1,1.6307536999229342,h,0,0.261753199971281,0.04768509999848902,0.04754359996877611,0.09767699998337775,0.10065150004811585,0.7495906000258401
RSVPLG03,sg,20251028-123101,1.0.1,20251020-085245,720,Experiment,Both,1,Automatic,main,35,20251028-123508,global,local,300,H,H,E,A,H-E.png,A-H.png,hH,hH,mask-4.png,mask-4.png,h,1,0.48109000001568347,h,1,0.054768500034697354,0.048493399983271956,0.04747820005286485,0.10033180005848408,0.10049370001070201,0.3006391000235453
RSVPLG03,sg,20251028-123101,1.0.1,20251020-085245,720,Experiment,Both,1,Automatic,main,36,20251028-123513,local,local,750,H,S,E,E,E-H.png,E-S.png,hH,sS,mask-3.png,mask-3.png,h,1,0.61618420004379,s,1,0.005026700091548264,0.047758799977600574,0.04770779993850738,0.09945410001091659,0.10092659993097186,0.7493432000046596
RSVPLG03,sg,20251028-123101,1.0.1,20251020-085245,720,Experiment,Both,1,Automatic,main,37,20251028-123517,local,global,750,S,S,A,E,A-S.png,S-E.png,sS,sS,mask-4.png,mask-3.png,s,1,2.08245879993774,h,0,0.0413395999930799,0.04709749994799495,0.0485024000518024,0.09813109994865954,0.09950800007209182,0.749507199972868
RSVPLG03,sg,20251028-123101,1.0.1,20251020-085245,720,Experiment,Both,1,Automatic,main,38,20251028-123524,global,local,750,S,S,A,A,S-A.png,A-S.png,sS,sS,mask-2.png,mask-1.png,s,1,0.3611256000585854,s,1,0.10096479998901486,0.047659700037911534,0.0475870999507606,0.09966770000755787,0.09975229995325208,0.7504607000155374
RSVPLG03,sg,20251028-123101,1.0.1,20251020-085245,720,Experiment,Both,1,Automatic,main,39,20251028-123528,local,local,750,H,H,A,A,A-H.png,A-H.png,hH,hH,mask-1.png,mask-1.png,h,1,1.24050359998364,h,1,0.1366580999456346,0.047687600017525256,0.04771179996896535,0.10165590001270175,0.10085029993206263,0.7508234999841079
RSVPLG03,sg,20251028-123101,1.0.1,20251020-085245,720,Experiment,Both,1,Automatic,main,40,20251028-123534,global,local,750,S,H,E,A,S-E.png,A-H.png,sS,hH,mask-3.png,mask-3.png,s,1,0.6816456000087783,s,0,0.10033609997481108,0.047502500005066395,0.047666699974797666,0.09985430003143847,0.09988090000115335,0.7503541000187397
RSVPLG03,sg,20251028-123101,1.0.1,20251020-085245,720,Experiment,Both,1,Automatic,main,41,20251028-123539,local,global,300,H,S,E,A,E-H.png,S-A.png,hH,sS,mask-3.png,mask-1.png,h,1,0.5920237000100315,h,0,0.06954419997055084,0.04751519998535514,0.046549499966204166,0.09953969996422529,0.10050169995520264,0.2991768999490887
RSVPLG03,sg,20251028-123101,1.0.1,20251020-085245,720,Experiment,Both,1,Automatic,main,42,20251028-123543,local,global,300,S,S,E,A,E-S.png,S-A.png,sS,sS,mask-4.png,mask-4.png,s,1,0.960349400062114,h,0,0.5992052999790758,0.04768209997564554,0.047664200072176754,0.0999895998975262,0.09891780000180006,0.2996027999324724
RSVPLG03,sg,20251028-123101,1.0.1,20251020-085245,720,Experiment,Both,1,Automatic,main,43,20251028-123548,global,local,750,H,H,E,A,H-E.png,A-H.png,hH,hH,mask-1.png,mask-3.png,h,1,0.3009484000504017,h,1,0.07988830003887415,0.04756980005186051,0.04770980007015169,0.0985406000399962,0.09988620004151016,0.7502398999640718
RSVPLG03,sg,20251028-123101,1.0.1,20251020-085245,720,Experiment,Both,1,Automatic,main,44,20251028-123553,global,global,300,H,H,A,A,H-A.png,H-A.png,hH,hH,mask-3.png,mask-3.png,h,1,0.4535351999802515,h,1,0.05629470001440495,0.04769699997268617,0.047284399974159896,0.09990879998076707,0.10055610002018511,0.3005374000640586
RSVPLG03,sg,20251028-123101,1.0.1,20251020-085245,720,Experiment,Both,1,Automatic,main,45,20251028-123557,local,global,750,H,H,A,A,A-H.png,H-A.png,hH,hH,mask-1.png,mask-4.png,s,0,2.7837738000089303,s,0,0.050292399944737554,0.04716189997270703,0.04642639996018261,0.10020870005246252,0.10049250000156462,0.7497309000464156
RSVPLG03,sg,20251028-123101,1.0.1,20251020-085245,720,Experiment,Both,1,Automatic,main,46,20251028-123604,local,global,750,S,H,E,E,E-S.png,H-E.png,sS,hH,mask-1.png,mask-4.png,h,0,1.246115199988708,s,0,1.3580589999910444,0.0472053000703454,0.04740060004405677,0.09921020001638681,0.10049440001603216,0.7498018000042066
RSVPLG03,sg,20251028-123101,1.0.1,20251020-085245,720,Experiment,Both,1,Automatic,main,47,20251028-123609,local,local,750,H,S,A,E,A-H.png,E-S.png,hH,sS,mask-3.png,mask-2.png,h,1,0.8360220000613481,s,1,0.9641157001024112,0.04751830000896007,0.04751229996327311,0.09952879999764264,0.09953979996498674,0.7498586000874639
RSVPLG03,sg,20251028-123101,1.0.1,20251020-085245,720,Experiment,Both,1,Automatic,main,48,20251028-123614,local,local,300,S,S,A,A,A-S.png,A-S.png,sS,sS,mask-4.png,mask-3.png,s,1,0.7645124000264332,s,1,0.09012740000616759,0.046563099953345954,0.04705150006338954,0.09978219994809479,0.09843950008507818,0.3000759999267757
RSVPLG03,sg,20251028-123101,1.0.1,20251020-085245,720,Experiment,Both,1,Automatic,main,49,20251028-123619,local,local,750,S,H,A,A,A-S.png,A-H.png,sS,hH,mask-1.png,mask-3.png,s,1,0.5443211999954656,h,1,0.02711050002835691,0.047515799989923835,0.04716539999935776,0.100705899996683,0.10028009989764541,0.7498436000896618
RSVPLG03,sg,20251028-123101,1.0.1,20251020-085245,720,Experiment,Both,1,Automatic,main,50,20251028-123624,global,local,750,H,H,A,E,H-A.png,E-H.png,hH,hH,mask-3.png,mask-4.png,h,1,1.011847999994643,s,0,0.15598300006240606,0.046629999997094274,0.0477236999431625,0.09991770004853606,0.09997590002603829,0.7493774000322446
RSVPLG03,sg,20251028-123101,1.0.1,20251020-085245,720,Experiment,Both,1,Automatic,main,51,20251028-123653,local,local,750,H,S,E,E,E-H.png,E-S.png,hH,sS,mask-4.png,mask-4.png,h,1,0.9285412000026554,s,1,0.7227814000798389,0.046687700087204576,0.0477000999962911,0.09987939998973161,0.100893700029701,0.7489920000080019
RSVPLG03,sg,20251028-123101,1.0.1,20251020-085245,720,Experiment,Both,1,Automatic,main,52,20251028-123659,local,global,750,H,S,A,E,A-H.png,S-E.png,hH,sS,mask-2.png,mask-2.png,h,1,1.246720000053756,s,1,0.5071926999371499,0.047183699905872345,0.04684980004094541,0.10040839994326234,0.0999974999576807,0.7503141999477521
RSVPLG03,sg,20251028-123101,1.0.1,20251020-085245,720,Experiment,Both,1,Automatic,main,53,20251028-123705,global,local,750,S,H,E,E,S-E.png,E-H.png,sS,hH,mask-4.png,mask-3.png,s,1,0.5913857999257743,s,0,0.08829169999808073,0.0477431999752298,0.04572250007186085,0.09985090000554919,0.09918320004362613,0.7516629999736324
RSVPLG03,sg,20251028-123101,1.0.1,20251020-085245,720,Experiment,Both,1,Automatic,main,54,20251028-123709,local,local,750,H,H,A,E,A-H.png,E-H.png,hH,hH,mask-1.png,mask-1.png,s,0,3.260114199947566,h,1,0.47578489989973605,0.04773009999189526,0.04699389997404069,0.10093319998122752,0.10028350003995001,0.7503102000337094
RSVPLG03,sg,20251028-123101,1.0.1,20251020-085245,720,Experiment,Both,1,Automatic,main,55,20251028-123717,global,global,750,S,H,A,A,S-A.png,H-A.png,sS,hH,mask-2.png,mask-4.png,s,1,0.39579760003834963,h,1,0.14621149993035942,0.047710200073197484,0.0485646000597626,0.10186729999259114,0.10080600006040186,0.7506080999737605
RSVPLG03,sg,20251028-123101,1.0.1,20251020-085245,720,Experiment,Both,1,Automatic,main,56,20251028-123722,global,global,750,H,H,A,A,H-A.png,H-A.png,hH,hH,mask-1.png,mask-1.png,h,1,0.6017699000658467,h,1,0.12201719998847693,0.0477000999962911,0.045865499996580184,0.09990260004997253,0.09916350001003593,0.7501201999839395
RSVPLG03,sg,20251028-123101,1.0.1,20251020-085245,720,Experiment,Both,1,Automatic,main,57,20251028-123727,global,local,750,H,H,E,A,H-E.png,A-H.png,hH,hH,mask-3.png,mask-4.png,h,1,0.31830529996659607,h,1,0.11289340001530945,0.04758450004737824,0.047588499961420894,0.10056689998600632,0.09995780000463128,0.7503539000172168
RSVPLG03,sg,20251028-123101,1.0.1,20251020-085245,720,Experiment,Both,1,Automatic,main,58,20251028-123732,global,global,300,S,H,A,A,S-A.png,H-A.png,sS,hH,mask-4.png,mask-2.png,s,1,1.1520393000682816,h,1,1.29623860004358,0.04777730000205338,0.046724800020456314,0.10022150003351271,0.09981620009057224,0.30156099994201213
RSVPLG03,sg,20251028-123101,1.0.1,20251020-085245,720,Experiment,Both,1,Automatic,main,59,20251028-123737,local,local,750,H,S,E,A,E-H.png,A-S.png,hH,sS,mask-2.png,mask-1.png,h,1,0.5722505999729037,s,1,0.18280579999554902,0.04794429999310523,0.04751059995032847,0.10159820003900677,0.09951299999374896,0.7520693000406027
RSVPLG03,sg,20251028-123101,1.0.1,20251020-085245,720,Experiment,Both,1,Automatic,main,60,20251028-123742,global,local,300,H,H,A,E,H-A.png,E-H.png,hH,hH,mask-3.png,mask-1.png,h,1,0.8535207000095397,s,0,0.03813889995217323,0.048527600010856986,0.04752679995726794,0.10053269995842129,0.09953939996194094,0.30082230002153665
RSVPLG03,sg,20251028-123101,1.0.1,20251020-085245,720,Experiment,Both,1,Automatic,main,61,20251028-123746,global,local,300,H,S,E,E,H-E.png,E-S.png,hH,sS,mask-3.png,mask-3.png,h,1,0.8963408999843523,s,1,1.040555499959737,0.04768650000914931,0.04926020000129938,0.099681599996984,0.10019639995880425,0.2995323999784887
RSVPLG03,sg,20251028-123101,1.0.1,20251020-085245,720,Experiment,Both,1,Automatic,main,62,20251028-123751,local,local,300,S,S,A,A,A-S.png,A-S.png,sS,sS,mask-2.png,mask-3.png,s,1,1.110355900018476,s,1,0.1543993999948725,0.04560050007421523,0.04560049995779991,0.0997334000421688,0.099562699906528,0.3001713000703603
RSVPLG03,sg,20251028-123101,1.0.1,20251020-085245,720,Experiment,Both,1,Automatic,main,63,20251028-123756,local,local,300,S,H,E,A,E-S.png,A-H.png,sS,hH,mask-3.png,mask-4.png,s,1,0.47373729990795255,h,1,0.13787560001946986,0.04746660008095205,0.04757579998113215,0.10014330002013594,0.10062339995056391,0.3002636000746861
RSVPLG03,sg,20251028-123101,1.0.1,20251020-085245,720,Experiment,Both,1,Automatic,main,64,20251028-123800,global,global,300,S,H,A,A,S-A.png,H-A.png,sS,hH,mask-3.png,mask-3.png,s,1,0.8961716999765486,h,1,0.10617299994919449,0.04769549996126443,0.04733149998355657,0.10181260004173964,0.09837649995461106,0.30204500001855195
RSVPLG03,sg,20251028-123101,1.0.1,20251020-085245,720,Experiment,Both,1,Automatic,main,65,20251028-123805,global,global,750,S,H,A,E,S-A.png,H-E.png,sS,hH,mask-3.png,mask-4.png,s,1,0.5248822999419644,h,1,0.10432759998366237,0.04761550005059689,0.04744629992637783,0.10095480002928525,0.10026550001930445,0.7514701000181958
RSVPLG03,sg,20251028-123101,1.0.1,20251020-085245,720,Experiment,Both,1,Automatic,main,66,20251028-123810,local,local,300,S,S,E,E,E-S.png,E-S.png,sS,sS,mask-1.png,mask-3.png,s,1,0.45855780004058033,s,1,0.10672959999646991,0.04667459998745471,0.04673830000683665,0.09975789999589324,0.09994350001215935,0.300545800011605
RSVPLG03,sg,20251028-123101,1.0.1,20251020-085245,720,Experiment,Both,1,Automatic,main,67,20251028-123814,global,local,300,S,S,A,E,S-A.png,E-S.png,sS,sS,mask-4.png,mask-3.png,s,1,1.0587081999983639,h,0,0.5022969000274315,0.04651629994623363,0.04671040002722293,0.09977900004014373,0.098974599968642,0.3004705000203103
RSVPLG03,sg,20251028-123101,1.0.1,20251020-085245,720,Experiment,Both,1,Automatic,main,68,20251028-123819,local,local,750,H,S,A,A,A-H.png,A-S.png,hH,sS,mask-2.png,mask-3.png,h,1,0.5658267999533564,s,1,0.08322609995957464,0.04613369994331151,0.046704000094905496,0.10029029997531325,0.09997030009981245,0.7507856999291107
RSVPLG03,sg,20251028-123101,1.0.1,20251020-085245,720,Experiment,Both,1,Automatic,main,69,20251028-123824,global,local,750,S,S,A,E,S-A.png,E-S.png,sS,sS,mask-3.png,mask-2.png,s,1,0.4594700000016019,s,1,0.10215429996605963,0.049597600009292364,0.048565000062808394,0.10167850006837398,0.10156239999923855,0.7504709999775514
RSVPLG03,sg,20251028-123101,1.0.1,20251020-085245,720,Experiment,Both,1,Automatic,main,70,20251028-123829,local,global,300,S,S,E,A,E-S.png,S-A.png,sS,sS,mask-4.png,mask-3.png,s,1,1.9818073000060394,h,0,1.1957652000710368,0.04768680001143366,0.04855479998514056,0.09989910002332181,0.10079100006259978,0.2988430999685079
RSVPLG03,sg,20251028-123101,1.0.1,20251020-085245,720,Experiment,Both,1,Automatic,main,71,20251028-123836,local,global,300,H,H,A,A,A-H.png,H-A.png,hH,hH,mask-3.png,mask-1.png,h,1,1.3235990999964997,h,1,0.815131500014104,0.04750320001039654,0.046225400059483945,0.09950949996709824,0.09816080005839467,0.2997726999456063
RSVPLG03,sg,20251028-123101,1.0.1,20251020-085245,720,Experiment,Both,1,Automatic,main,72,20251028-123842,local,global,300,H,H,A,A,A-H.png,H-A.png,hH,hH,mask-3.png,mask-4.png,h,1,2.0325636999914423,s,0,2.160765999928117,0.048505199956707656,0.04752719996031374,0.09954810002818704,0.09954279998783022,0.3007867999840528
RSVPLG03,sg,20251028-123101,1.0.1,20251020-085245,720,Experiment,Both,1,Automatic,main,73,20251028-123848,local,local,300,H,H,E,A,E-H.png,A-H.png,hH,hH,mask-4.png,mask-1.png,h,1,1.1754559999099001,h,1,0.05787109991069883,0.04679920000489801,0.04767960007302463,0.09821309999097139,0.09884840005543083,0.2997387999203056
RSVPLG03,sg,20251028-123101,1.0.1,20251020-085245,720,Experiment,Both,1,Automatic,main,74,20251028-123852,global,global,750,H,S,E,A,H-E.png,S-A.png,hH,sS,mask-1.png,mask-1.png,h,1,0.4775427000131458,s,1,0.0004588000010699034,0.04837940004654229,0.04668520006816834,0.09964880009647459,0.10075019998475909,0.7507355000125244
RSVPLG03,sg,20251028-123101,1.0.1,20251020-085245,720,Experiment,Both,1,Automatic,main,75,20251028-123857,local,global,300,H,H,E,A,E-H.png,H-A.png,hH,hH,mask-2.png,mask-2.png,h,1,1.7397122000111267,s,0,1.8515641000121832,0.048689299961552024,0.04759309999644756,0.101884700008668,0.09964589995797724,0.3015123000368476
RSVPLG03,sg,20251028-123101,1.0.1,20251020-085245,720,Experiment,Both,1,Automatic,main,76,20251028-123916,global,local,750,H,S,A,E,H-A.png,E-S.png,hH,sS,mask-4.png,mask-1.png,h,1,0.3923573000356555,s,1,0.21657079993747175,0.04651639994699508,0.046509499894455075,0.09852669993415475,0.10050479997880757,0.7497298000380397
RSVPLG03,sg,20251028-123101,1.0.1,20251020-085245,720,Experiment,Both,1,Automatic,main,77,20251028-123921,local,global,300,H,H,E,A,E-H.png,H-A.png,hH,hH,mask-4.png,mask-3.png,h,1,1.3291673000203446,s,0,0.010043000103905797,0.047265299945138395,0.04636660008691251,0.10026699991431087,0.09948179998900741,0.30004259990528226
RSVPLG03,sg,20251028-123101,1.0.1,20251020-085245,720,Experiment,Both,1,Automatic,main,78,20251028-123926,local,global,750,S,S,E,E,E-S.png,S-E.png,sS,sS,mask-1.png,mask-4.png,s,1,0.46901680005248636,s,1,0.09222669992595911,0.04751209996175021,0.04651610006112605,0.09951059997547418,0.09951560001354665,0.7504358999431133
RSVPLG03,sg,20251028-123101,1.0.1,20251020-085245,720,Experiment,Both,1,Automatic,main,79,20251028-123931,global,global,300,S,S,A,A,S-A.png,S-A.png,sS,sS,mask-2.png,mask-4.png,h,0,1.1608363999985158,s,1,1.3206620999844745,0.04718480003066361,0.04697000002488494,0.0985348999965936,0.09929309994913638,0.30022099998313934
RSVPLG03,sg,20251028-123101,1.0.1,20251020-085245,720,Experiment,Both,1,Automatic,main,80,20251028-123936,global,local,300,H,H,A,A,H-A.png,A-H.png,hH,hH,mask-2.png,mask-4.png,h,1,0.9894015999743715,h,1,0.07842609996441752,0.04748740000650287,0.04865989997051656,0.09959430003073066,0.10082759999204427,0.29988830001093447
RSVPLG03,sg,20251028-123101,1.0.1,20251020-085245,720,Experiment,Both,1,Automatic,main,81,20251028-123940,local,global,750,H,S,A,A,A-H.png,S-A.png,hH,sS,mask-1.png,mask-1.png,h,1,2.1596843999577686,h,0,0.06431560008786619,0.04652410000562668,0.04765570000745356,0.09971219999715686,0.09980610001366585,0.7495395999867469
RSVPLG03,sg,20251028-123101,1.0.1,20251020-085245,720,Experiment,Both,1,Automatic,main,82,20251028-123947,global,local,300,S,S,E,A,S-E.png,A-S.png,sS,sS,mask-2.png,mask-3.png,h,0,0.750242399983108,h,0,0.10502869996707886,0.04869740002322942,0.047832900076173246,0.09993999998550862,0.09991820005234331,0.30157649994362146
RSVPLG03,sg,20251028-123101,1.0.1,20251020-085245,720,Experiment,Both,1,Automatic,main,83,20251028-123951,local,local,750,S,S,A,A,A-S.png,A-S.png,sS,sS,mask-1.png,mask-3.png,s,1,0.48071100004017353,s,1,0.12350730004254729,0.04751820000819862,0.04751970001962036,0.09952839999459684,0.09954239998478442,0.7502692000707611
RSVPLG03,sg,20251028-123101,1.0.1,20251020-085245,720,Experiment,Both,1,Automatic,main,84,20251028-123956,global,global,300,S,H,E,A,S-E.png,H-A.png,sS,hH,mask-2.png,mask-3.png,h,0,3.037287799990736,h,1,0.09071400004904717,0.047648899955675006,0.04779079998843372,0.10073619999457151,0.0993711999617517,0.3002774999476969
RSVPLG03,sg,20251028-123101,1.0.1,20251020-085245,720,Experiment,Both,1,Automatic,main,85,20251028-124003,global,global,750,S,H,A,E,S-A.png,H-E.png,sS,hH,mask-3.png,mask-1.png,s,1,0.4936355999670923,h,1,0.12020649993792176,0.04571149998810142,0.04772499995306134,0.0998177999863401,0.0998232999118045,0.7498851000564173
RSVPLG03,sg,20251028-123101,1.0.1,20251020-085245,720,Experiment,Both,1,Automatic,main,86,20251028-124008,local,local,750,S,S,E,E,E-S.png,E-S.png,sS,sS,mask-3.png,mask-2.png,s,1,0.4106922000646591,s,1,0.09536919998936355,0.04870339995250106,0.04673369997180998,0.1009398999158293,0.10000630002468824,0.7515682999510318
RSVPLG03,sg,20251028-123101,1.0.1,20251020-085245,720,Experiment,Both,1,Automatic,main,87,20251028-124012,global,local,750,S,H,A,E,S-A.png,E-H.png,sS,hH,mask-4.png,mask-3.png,s,1,0.860375800053589,s,0,0.08586800005286932,0.04766559996642172,0.04777559998910874,0.09986770001705736,0.10095989995170385,0.7493834999622777
RSVPLG03,sg,20251028-123101,1.0.1,20251020-085245,720,Experiment,Both,1,Automatic,main,88,20251028-124017,local,global,750,H,S,A,A,A-H.png,S-A.png,hH,sS,mask-1.png,mask-2.png,h,1,1.4651133000152186,h,0,0.08093840000219643,0.046795699978247285,0.04676860000472516,0.10092050000093877,0.09962789993733168,0.7514053999911994
RSVPLG03,sg,20251028-123101,1.0.1,20251020-085245,720,Experiment,Both,1,Automatic,main,89,20251028-124023,local,local,750,S,S,A,E,A-S.png,E-S.png,sS,sS,mask-2.png,mask-4.png,s,1,0.39806319994386286,s,1,0.10429669998120517,0.0475488998927176,0.04755349992774427,0.10055339999962598,0.10055669990833849,0.7503036999842152
RSVPLG03,sg,20251028-123101,1.0.1,20251020-085245,720,Experiment,Both,1,Automatic,main,90,20251028-124028,local,global,300,H,S,A,E,A-H.png,S-E.png,hH,sS,mask-3.png,mask-1.png,h,1,0.9415807999903336,s,1,0.04320630000438541,0.04751169995870441,0.047394499997608364,0.09953210002277046,0.09945560002233833,0.2998324999352917
RSVPLG03,sg,20251028-123101,1.0.1,20251020-085245,720,Experiment,Both,1,Automatic,main,91,20251028-124032,global,local,300,S,S,E,E,S-E.png,E-S.png,sS,sS,mask-4.png,mask-3.png,s,1,2.7137221000157297,s,1,0.08778699999675155,0.047495400067418814,0.04751529998611659,0.1006945000262931,0.10050579998642206,0.300104400026612
RSVPLG03,sg,20251028-123101,1.0.1,20251020-085245,720,Experiment,Both,1,Automatic,main,92,20251028-124039,global,global,750,H,S,E,A,H-E.png,S-A.png,hH,sS,mask-3.png,mask-2.png,h,1,0.5403053000336513,s,1,0.1354674999602139,0.046601800015196204,0.04880460002459586,0.09861009998712689,0.09982130001299083,0.7489537999499589
RSVPLG03,sg,20251028-123101,1.0.1,20251020-085245,720,Experiment,Both,1,Automatic,main,93,20251028-124044,local,global,300,S,S,E,E,E-S.png,S-E.png,sS,sS,mask-2.png,mask-4.png,s,1,1.1694206999382004,s,1,0.07374769996386021,0.04787020001094788,0.04555519996210933,0.10093039995990694,0.09964629996102303,0.3012334000086412
RSVPLG03,sg,20251028-123101,1.0.1,20251020-085245,720,Experiment,Both,1,Automatic,main,94,20251028-124049,global,global,300,S,S,A,E,S-A.png,S-E.png,sS,sS,mask-3.png,mask-2.png,h,0,0.8123961000237614,s,1,0.005963000003248453,0.04767230001743883,0.04766349995043129,0.09988789993803948,0.09984799998346716,0.29950570000801235
RSVPLG03,sg,20251028-123101,1.0.1,20251020-085245,720,Experiment,Both,1,Automatic,main,95,20251028-124053,global,global,300,S,S,E,E,S-E.png,S-E.png,sS,sS,mask-2.png,mask-4.png,s,1,1.6984599999850616,s,1,0.07733659993391484,0.0470853999722749,0.04680329991970211,0.09943179995752871,0.09990049991756678,0.2998704999918118
RSVPLG03,sg,20251028-123101,1.0.1,20251020-085245,720,Experiment,Both,1,Automatic,main,96,20251028-124059,global,global,300,H,H,A,E,H-A.png,H-E.png,hH,hH,mask-3.png,mask-2.png,h,1,0.4077432999620214,h,1,0.08607620000839233,0.046994299977086484,0.047730699996463954,0.10126160003710538,0.0999322000425309,0.30092249996960163
RSVPLG03,sg,20251028-123101,1.0.1,20251020-085245,720,Experiment,Both,1,Automatic,main,97,20251028-124103,global,global,750,S,H,E,A,S-E.png,H-A.png,sS,hH,mask-1.png,mask-2.png,s,1,0.7990216999314725,h,1,0.044416100019589067,0.047255500103347,0.0473657000111416,0.10043660004157573,0.10152799997013062,0.7497202000813559
RSVPLG03,sg,20251028-123101,1.0.1,20251020-085245,720,Experiment,Both,1,Automatic,main,98,20251028-124108,global,local,300,H,H,E,A,H-E.png,A-H.png,hH,hH,mask-4.png,mask-3.png,h,1,0.9140517999185249,h,1,0.06950009998399764,0.047975099994800985,0.0472335999365896,0.101034399936907,0.09943549998570234,0.3009258999954909
RSVPLG03,sg,20251028-123101,1.0.1,20251020-085245,720,Experiment,Both,1,Automatic,main,99,20251028-124113,global,local,750,S,S,A,E,S-A.png,E-S.png,sS,sS,mask-4.png,mask-1.png,s,1,0.5394862999673933,s,1,0.07149080000817776,0.047702700016088784,0.04672979994211346,0.09910330001730472,0.10009600000921637,0.7502296000020579
RSVPLG03,sg,20251028-123101,1.0.1,20251020-085245,720,Experiment,Both,1,Automatic,main,100,20251028-124117,local,local,750,H,S,A,E,A-H.png,E-S.png,hH,sS,mask-4.png,mask-1.png,s,0,0.6984555999515578,s,1,0.08353259996511042,0.04751990002114326,0.04653870000038296,0.09782429994083941,0.0995315999025479,0.7504321000305936
RSVPLG03,sg,20251028-123101,1.0.1,20251020-085245,720,Experiment,Both,1,Automatic,main,101,20251028-124230,global,local,300,S,H,A,A,S-A.png,A-H.png,sS,hH,mask-3.png,mask-3.png,h,0,0.6269528999691829,h,1,0.06042890006210655,0.04769610008224845,0.04694649996235967,0.1009441000642255,0.09855589992366731,0.3005841000704095
RSVPLG03,sg,20251028-123101,1.0.1,20251020-085245,720,Experiment,Both,1,Automatic,main,102,20251028-124234,global,global,750,S,H,A,A,S-A.png,H-A.png,sS,hH,mask-1.png,mask-4.png,s,1,0.38874359999317676,s,0,0.07558169995900244,0.048758800025098026,0.04775390005670488,0.0999793999362737,0.10001789999660105,0.751921399962157
RSVPLG03,sg,20251028-123101,1.0.1,20251020-085245,720,Experiment,Both,1,Automatic,main,103,20251028-124238,local,global,300,H,H,E,A,E-H.png,H-A.png,hH,hH,mask-2.png,mask-2.png,h,1,0.8521273001097143,h,1,0.06854380003642291,0.04755200003273785,0.04710039997007698,0.09959879994858056,0.10104690003208816,0.2994310000212863
RSVPLG03,sg,20251028-123101,1.0.1,20251020-085245,720,Experiment,Both,1,Automatic,main,104,20251028-124243,global,local,300,S,S,E,A,S-E.png,A-S.png,sS,sS,mask-4.png,mask-1.png,s,1,0.638230700045824,h,0,0.052509000059217215,0.04716580000240356,0.047197400010190904,0.0983362999977544,0.09842890000436455,0.29998749995138496
RSVPLG03,sg,20251028-123101,1.0.1,20251020-085245,720,Experiment,Both,1,Automatic,main,105,20251028-124247,global,global,750,S,H,E,A,S-E.png,H-A.png,sS,hH,mask-4.png,mask-3.png,s,1,0.45009160006884485,h,1,0.05677030002698302,0.047591199981980026,0.04624820000026375,0.10056120005901903,0.10134589998051524,0.7501730000367388
RSVPLG03,sg,20251028-123101,1.0.1,20251020-085245,720,Experiment,Both,1,Automatic,main,106,20251028-124252,local,local,300,H,S,E,A,E-H.png,A-S.png,hH,sS,mask-2.png,mask-4.png,s,0,1.2067056000232697,s,1,0.08544589998200536,0.047634700080379844,0.047812300035730004,0.10198909998871386,0.09889290004502982,0.3015990999992937
RSVPLG03,sg,20251028-123101,1.0.1,20251020-085245,720,Experiment,Both,1,Automatic,main,107,20251028-124257,global,global,750,H,S,E,E,H-E.png,S-E.png,hH,sS,mask-4.png,mask-4.png,h,1,0.4471142999827862,s,1,0.12257090001367033,0.04759019997436553,0.04683240002486855,0.10155809996649623,0.10092140000779182,0.7506174000445753
RSVPLG03,sg,20251028-123101,1.0.1,20251020-085245,720,Experiment,Both,1,Automatic,main,108,20251028-124302,local,global,300,H,S,E,A,E-H.png,S-A.png,hH,sS,mask-1.png,mask-4.png,h,1,0.7600722999777645,s,1,0.5459215000737458,0.04566150007303804,0.04870049993041903,0.0998494999948889,0.09988929994869977,0.2985058000776917
RSVPLG03,sg,20251028-123101,1.0.1,20251020-085245,720,Experiment,Both,1,Automatic,main,109,20251028-124307,local,global,750,H,S,E,E,E-H.png,S-E.png,hH,sS,mask-2.png,mask-4.png,h,1,0.6395993999904022,s,1,0.042478399933315814,0.048137799953110516,0.048092199955135584,0.09954289998859167,0.10098459990695119,0.7495095999911427
RSVPLG03,sg,20251028-123101,1.0.1,20251020-085245,720,Experiment,Both,1,Automatic,main,110,20251028-124312,local,global,750,H,H,E,A,E-H.png,H-A.png,hH,hH,mask-2.png,mask-1.png,h,1,0.7795140000525862,h,1,0.3876260999822989,0.04822160000912845,0.04749919997993857,0.09995489998254925,0.0994945999700576,0.7510103000095114
RSVPLG03,sg,20251028-123101,1.0.1,20251020-085245,720,Experiment,Both,1,Automatic,main,111,20251028-124317,local,local,750,H,S,A,E,A-H.png,E-S.png,hH,sS,mask-3.png,mask-2.png,h,1,0.8784602999221534,s,1,0.07171360007487237,0.04751040006522089,0.048055300023406744,0.09952070005238056,0.10116259998176247,0.7482324000447989
RSVPLG03,sg,20251028-123101,1.0.1,20251020-085245,720,Experiment,Both,1,Automatic,main,112,20251028-124322,global,global,300,H,H,E,E,H-E.png,H-E.png,hH,hH,mask-1.png,mask-2.png,h,1,0.5531512999441475,h,1,0.07516170002054423,0.04750610003247857,0.04748369997832924,0.09951580001506954,0.10047289996873587,0.2997452999697998
RSVPLG03,sg,20251028-123101,1.0.1,20251020-085245,720,Experiment,Both,1,Automatic,main,113,20251028-124326,local,global,300,S,S,E,E,E-S.png,S-E.png,sS,sS,mask-1.png,mask-4.png,s,1,0.5424892000155523,s,1,0.09145229996647686,0.04739530000369996,0.047361799981445074,0.10022460005711764,0.0995763000100851,0.3002912000520155
RSVPLG03,sg,20251028-123101,1.0.1,20251020-085245,720,Experiment,Both,1,Automatic,main,114,20251028-124331,local,global,300,S,H,E,A,E-S.png,H-A.png,sS,hH,mask-3.png,mask-3.png,s,1,2.711484800092876,s,0,0.07527399994432926,0.04756530001759529,0.046834300039336085,0.10179860005155206,0.09998990001622587,0.3003026000224054
RSVPLG03,sg,20251028-123101,1.0.1,20251020-085245,720,Experiment,Both,1,Automatic,main,115,20251028-124337,global,local,750,H,H,E,A,H-E.png,A-H.png,hH,hH,mask-3.png,mask-2.png,h,1,0.462109399959445,h,1,0.0656454999698326,0.047523500048555434,0.047588400077074766,0.09956840006634593,0.09962740004993975,0.7514209999935701
RSVPLG03,sg,20251028-123101,1.0.1,20251020-085245,720,Experiment,Both,1,Automatic,main,116,20251028-124342,local,global,750,H,S,E,A,E-H.png,S-A.png,hH,sS,mask-1.png,mask-2.png,h,1,1.1533958000363782,h,0,0.07675730006303638,0.04656970000360161,0.048814100096933544,0.09870670002419502,0.10098109999671578,0.7488953999709338
RSVPLG03,sg,20251028-123101,1.0.1,20251020-085245,720,Experiment,Both,1,Automatic,main,117,20251028-124347,global,global,300,S,S,E,E,S-E.png,S-E.png,sS,sS,mask-3.png,mask-4.png,h,0,2.0938784000463784,h,0,0.5634072000393644,0.04770210001152009,0.04773320001550019,0.10005349991843104,0.09995529998559505,0.3002162999473512
RSVPLG03,sg,20251028-123101,1.0.1,20251020-085245,720,Experiment,Both,1,Automatic,main,118,20251028-124354,local,local,300,H,S,A,A,A-H.png,A-S.png,hH,sS,mask-3.png,mask-4.png,h,1,0.8512074999744073,s,1,0.3116082000778988,0.046709399903193116,0.04661469999700785,0.10004299995489419,0.09949429996777326,0.2996970999520272
RSVPLG03,sg,20251028-123101,1.0.1,20251020-085245,720,Experiment,Both,1,Automatic,main,119,20251028-124358,local,local,750,H,S,E,A,E-H.png,A-S.png,hH,sS,mask-1.png,mask-1.png,h,1,0.6507080000592396,s,1,0.7787611000239849,0.04653689998667687,0.04748509998898953,0.09852120000869036,0.09949769999366254,0.7501449999399483
RSVPLG03,sg,20251028-123101,1.0.1,20251020-085245,720,Experiment,Both,1,Automatic,main,120,20251028-124403,global,global,300,H,S,A,A,H-A.png,S-A.png,hH,sS,mask-1.png,mask-4.png,h,1,0.4697328999172896,s,1,0.5164221000159159,0.04775670007802546,0.04768650000914931,0.09884410002268851,0.09975329996086657,0.30012160004116595
RSVPLG03,sg,20251028-123101,1.0.1,20251020-085245,720,Experiment,Both,1,Automatic,main,121,20251028-124408,local,global,750,H,H,A,A,A-H.png,H-A.png,hH,hH,mask-4.png,mask-2.png,h,1,0.9130040999734774,h,1,0.06959510000888258,0.04634880006778985,0.04770180000923574,0.09928229998331517,0.09985320002306253,0.7496463999850675
RSVPLG03,sg,20251028-123101,1.0.1,20251020-085245,720,Experiment,Both,1,Automatic,main,122,20251028-124413,global,local,750,H,S,E,E,H-E.png,E-S.png,hH,sS,mask-1.png,mask-2.png,h,1,0.4090779999969527,s,1,0.23464060004334897,0.048699399922043085,0.04770950006786734,0.09997099998872727,0.09991019999142736,0.7511969999177381
RSVPLG03,sg,20251028-123101,1.0.1,20251020-085245,720,Experiment,Both,1,Automatic,main,123,20251028-124418,local,global,300,S,H,A,A,A-S.png,H-A.png,sS,hH,mask-1.png,mask-3.png,s,1,0.7909808000549674,h,1,0.15339769993443042,0.04670629999600351,0.047732200007885695,0.10095190000720322,0.09983720001764596,0.29975570004899055
RSVPLG03,sg,20251028-123101,1.0.1,20251020-085245,720,Experiment,Both,1,Automatic,main,124,20251028-124423,global,local,750,S,H,E,E,S-E.png,E-H.png,sS,hH,mask-1.png,mask-3.png,s,1,0.8685174999991432,s,0,0.0903699001064524,0.0476730999071151,0.04757750011049211,0.09988189989235252,0.09986970003228635,0.7505964998854324
RSVPLG03,sg,20251028-123101,1.0.1,20251020-085245,720,Experiment,Both,1,Automatic,main,125,20251028-124428,local,global,750,H,H,A,A,A-H.png,H-A.png,hH,hH,mask-3.png,mask-1.png,h,1,1.155873900046572,h,1,0.05440420005470514,0.046422500046901405,0.04708280006889254,0.09838520002085716,0.09808410005643964,0.7504168000305071
RSVPLG03,sg,20251028-124522,1.0.1,20251020-085245,720,Experiment,Both,1,Automatic,warmup,1,20251028-124602,global,global,300,S,H,E,A,S-E.png,H-A.png,sS,hH,mask-3.png,mask-2.png,s,1,0.4505909000290558,h,1,0.012237099930644035,0.04015599994454533,0.0472797000547871,0.09293319995049387,0.09863350004889071,0.29318179993424565
RSVPLG03,sg,20251028-124522,1.0.1,20251020-085245,720,Experiment,Both,1,Automatic,warmup,2,20251028-124606,local,local,300,S,H,E,E,E-S.png,E-H.png,sS,hH,mask-4.png,mask-1.png,s,1,0.3578348000301048,h,1,0.6497201999882236,0.04758869996294379,0.04585390002466738,0.09963800001423806,0.09944609995000064,0.3000258000101894
RSVPLG03,sg,20251028-124522,1.0.1,20251020-085245,720,Experiment,Both,1,Automatic,warmup,3,20251028-124611,local,global,750,S,S,E,E,E-S.png,S-E.png,sS,sS,mask-4.png,mask-3.png,s,1,0.48861990007571876,s,1,0.07026119995862246,0.045829599956050515,0.04858159995637834,0.10001529997680336,0.09958579996600747,0.7487606999929994
RSVPLG03,sg,20251028-124522,1.0.1,20251020-085245,720,Experiment,Both,1,Automatic,warmup,4,20251028-124616,global,local,750,H,H,A,E,H-A.png,E-H.png,hH,hH,mask-1.png,mask-2.png,h,1,0.7954743000445887,h,1,0.07921810005791485,0.04778010002337396,0.04772360005881637,0.09988230001181364,0.1008731999900192,0.7492375000147149
RSVPLG03,sg,20251028-124522,1.0.1,20251020-085245,720,Experiment,Both,1,Automatic,warmup,5,20251028-124621,global,local,300,S,H,A,A,S-A.png,A-H.png,sS,hH,mask-3.png,mask-1.png,s,1,0.4400250999024138,h,1,0.031529500032775104,0.04814650001935661,0.04762069997377694,0.10016849997919053,0.09955239994451404,0.3003325000172481
RSVPLG03,sg,20251028-124522,1.0.1,20251020-085245,720,Experiment,Both,1,Automatic,main,6,20251028-124625,local,global,300,H,S,A,A,A-H.png,S-A.png,hH,sS,mask-2.png,mask-2.png,h,1,0.8266384999733418,s,1,0.5225815000012517,0.045699500013142824,0.04773440002463758,0.09961989999283105,0.10100549994967878,0.29925549996551126
RSVPLG03,sg,20251028-124522,1.0.1,20251020-085245,720,Experiment,Both,1,Automatic,main,7,20251028-124630,local,global,300,H,S,E,E,E-H.png,S-E.png,hH,sS,mask-3.png,mask-3.png,h,1,0.46760179998818785,s,1,0.07492120005190372,0.047591500100679696,0.045721700065769255,0.09869010001420975,0.09999110002536327,0.30033590004313737
RSVPLG03,sg,20251028-124522,1.0.1,20251020-085245,720,Experiment,Both,1,Automatic,main,8,20251028-124634,local,global,750,S,H,A,A,A-S.png,H-A.png,sS,hH,mask-3.png,mask-4.png,s,1,0.6845205000136048,s,0,0.07128399994689971,0.04647830000612885,0.04753149999305606,0.10029159998521209,0.099558399990201,0.7508489000611007
RSVPLG03,sg,20251028-124522,1.0.1,20251020-085245,720,Experiment,Both,1,Automatic,main,9,20251028-124639,global,local,750,S,H,E,E,S-E.png,E-H.png,sS,hH,mask-2.png,mask-4.png,s,1,0.5689352001063526,s,0,0.08827039995230734,0.04660570004489273,0.04673699999693781,0.09929419995751232,0.09987729997374117,0.7495568000013009
RSVPLG03,sg,20251028-124522,1.0.1,20251020-085245,720,Experiment,Both,1,Automatic,main,10,20251028-124644,global,local,300,S,H,A,E,S-A.png,E-H.png,sS,hH,mask-1.png,mask-4.png,s,1,0.9813535999273881,s,0,0.08807219995651394,0.047526199952699244,0.04850919998716563,0.10062919999472797,0.10058430000208318,0.2989997999975458
RSVPLG03,sg,20251028-124522,1.0.1,20251020-085245,720,Experiment,Both,1,Automatic,main,11,20251028-124649,local,global,750,S,S,A,A,A-S.png,S-A.png,sS,sS,mask-3.png,mask-2.png,s,1,0.9970355000114068,s,1,0.10206380009185523,0.04752709995955229,0.04850190004799515,0.09853770001791418,0.10153640003409237,0.7489907999988645
RSVPLG03,sg,20251028-124522,1.0.1,20251020-085245,720,Experiment,Both,1,Automatic,main,12,20251028-124654,local,global,750,H,H,A,E,A-H.png,H-E.png,hH,hH,mask-4.png,mask-3.png,s,0,0.633096200064756,s,0,0.08520339999813586,0.048526400001719594,0.04562560003250837,0.10064810002222657,0.09875929995905608,0.7518039999995381
RSVPLG03,sg,20251028-124522,1.0.1,20251020-085245,720,Experiment,Both,1,Automatic,main,13,20251028-124659,global,local,300,S,S,A,E,S-A.png,E-S.png,sS,sS,mask-2.png,mask-4.png,h,0,1.5251201000064611,s,1,1.6369951999513432,0.04770140000618994,0.0457108000991866,0.09988220001105219,0.09990180004388094,0.30160739994607866
RSVPLG03,sg,20251028-124522,1.0.1,20251020-085245,720,Experiment,Both,1,Automatic,main,14,20251028-124704,global,global,750,S,S,E,E,S-E.png,S-E.png,sS,sS,mask-3.png,mask-3.png,s,1,0.6463909999001771,s,1,0.0761599000543356,0.04766449995804578,0.04770430002827197,0.10089040000457317,0.09991450002416968,0.750365599989891
RSVPLG03,sg,20251028-124522,1.0.1,20251020-085245,720,Experiment,Both,1,Automatic,main,15,20251028-124709,local,global,750,S,S,A,E,A-S.png,S-E.png,sS,sS,mask-2.png,mask-4.png,s,1,1.8616110000293702,s,1,0.09145599999465048,0.04771650000475347,0.047681699972599745,0.09994230000302196,0.09984599996823817,0.7502769000129774
RSVPLG03,sg,20251028-124522,1.0.1,20251020-085245,720,Experiment,Both,1,Automatic,main,16,20251028-124715,global,global,750,S,S,A,A,S-A.png,S-A.png,sS,sS,mask-3.png,mask-4.png,s,1,0.6311740999808535,s,1,0.09055119997356087,0.04669400001876056,0.047692100051790476,0.09994139999616891,0.09992169996257871,0.7504437000025064
RSVPLG03,sg,20251028-124522,1.0.1,20251020-085245,720,Experiment,Both,1,Automatic,main,17,20251028-124720,global,local,750,H,H,A,E,H-A.png,E-H.png,hH,hH,mask-3.png,mask-4.png,h,1,0.8332416999619454,s,0,0.9772776999743655,0.045756899984553456,0.049130800063721836,0.0989627999952063,0.09994610003195703,0.7483753999695182
RSVPLG03,sg,20251028-124522,1.0.1,20251020-085245,720,Experiment,Both,1,Automatic,main,18,20251028-124725,local,global,300,S,S,A,E,A-S.png,S-E.png,sS,sS,mask-3.png,mask-4.png,s,1,0.7341046000365168,s,1,0.07399040006566793,0.04869190009776503,0.048578200046904385,0.09987840009853244,0.09959150000941008,0.30019680003169924
RSVPLG03,sg,20251028-124522,1.0.1,20251020-085245,720,Experiment,Both,1,Automatic,main,19,20251028-124730,global,local,300,S,S,A,A,S-A.png,A-S.png,sS,sS,mask-2.png,mask-3.png,s,1,0.9307672999566421,h,0,0.6354068999644369,0.047089200001209974,0.04701920005027205,0.10009900003205985,0.09923270007129759,0.30026509996969253
RSVPLG03,sg,20251028-124522,1.0.1,20251020-085245,720,Experiment,Both,1,Automatic,main,20,20251028-124735,global,local,300,S,S,A,E,S-A.png,E-S.png,sS,sS,mask-2.png,mask-2.png,s,1,0.6049044999526814,s,1,0.1027959999628365,0.04768580000381917,0.04650769999716431,0.10007419995963573,0.09954099997412413,0.29971910000313073
RSVPLG03,sg,20251028-124522,1.0.1,20251020-085245,720,Experiment,Both,1,Automatic,main,21,20251028-124739,global,local,750,H,H,A,E,H-A.png,E-H.png,hH,hH,mask-3.png,mask-3.png,h,1,0.6360987999942154,s,0,0.1283355999039486,0.04733129998203367,0.04724890005309135,0.10071909998077899,0.10041169996839017,0.7501647999743
RSVPLG03,sg,20251028-124522,1.0.1,20251020-085245,720,Experiment,Both,1,Automatic,main,22,20251028-124744,global,local,750,H,H,E,E,H-E.png,E-H.png,hH,hH,mask-1.png,mask-1.png,h,1,0.6766274999827147,h,1,0.10316880000755191,0.04774349997751415,0.04599339992273599,0.09998090006411076,0.10035939991939813,0.7504665000597015
RSVPLG03,sg,20251028-124522,1.0.1,20251020-085245,720,Experiment,Both,1,Automatic,main,23,20251028-124749,global,global,750,S,S,E,A,S-E.png,S-A.png,sS,sS,mask-4.png,mask-4.png,s,1,0.36654200009070337,s,1,0.09129719994962215,0.04716460010968149,0.046705099986866117,0.09939970006234944,0.09988519991748035,0.7503312000771984
RSVPLG03,sg,20251028-124522,1.0.1,20251020-085245,720,Experiment,Both,1,Automatic,main,24,20251028-124754,global,local,300,H,H,E,E,H-E.png,E-H.png,hH,hH,mask-2.png,mask-4.png,h,1,0.811856499989517,h,1,0.09016600006725639,0.04753140010870993,0.047506899922154844,0.10158590006176382,0.09856549999676645,0.3018572001019493
RSVPLG03,sg,20251028-124522,1.0.1,20251020-085245,720,Experiment,Both,1,Automatic,main,25,20251028-124758,global,global,300,H,S,E,E,H-E.png,S-E.png,hH,sS,mask-3.png,mask-1.png,h,1,0.5475718000670895,s,1,0.009934399975463748,0.04686740005854517,0.04673219996038824,0.09965700004249811,0.09879660001024604,0.3009797000559047
RSVPLG03,sg,20251028-124522,1.0.1,20251020-085245,720,Experiment,Both,1,Automatic,main,26,20251028-124833,local,global,750,H,S,E,E,E-H.png,S-E.png,hH,sS,mask-4.png,mask-1.png,h,1,1.2763715999899432,s,1,1.3723388999933377,0.04686629993375391,0.0475445999763906,0.10006670001894236,0.09956080000847578,0.7508275000145659
RSVPLG03,sg,20251028-124522,1.0.1,20251020-085245,720,Experiment,Both,1,Automatic,main,27,20251028-124838,local,local,300,H,S,E,A,E-H.png,A-S.png,hH,sS,mask-3.png,mask-4.png,h,1,1.16919919999782,s,1,0.08161350002046674,0.0475289000896737,0.046593000064603984,0.0996275000507012,0.09958030004054308,0.3009151000296697
RSVPLG03,sg,20251028-124522,1.0.1,20251020-085245,720,Experiment,Both,1,Automatic,main,28,20251028-124843,local,local,750,S,S,A,E,A-S.png,E-S.png,sS,sS,mask-4.png,mask-2.png,s,1,0.38109719997737557,s,1,0.10753079992718995,0.047613500035367906,0.04753420001361519,0.09964989998843521,0.09955829998943955,0.7493682999629527
RSVPLG03,sg,20251028-124522,1.0.1,20251020-085245,720,Experiment,Both,1,Automatic,main,29,20251028-124848,global,local,750,H,S,E,A,H-E.png,A-S.png,hH,sS,mask-3.png,mask-3.png,h,1,1.1112389999907464,s,1,0.2747429000446573,0.04752409993670881,0.046520099975168705,0.10053259995765984,0.10053499997593462,0.7513986999401823
RSVPLG03,sg,20251028-124522,1.0.1,20251020-085245,720,Experiment,Both,1,Automatic,main,30,20251028-124853,global,global,300,H,S,A,E,H-A.png,S-E.png,hH,sS,mask-3.png,mask-4.png,h,1,1.331041599973105,s,1,0.11943489999976009,0.04755090002436191,0.0475561999483034,0.10057120001874864,0.10159710003063083,0.2998940000543371
RSVPLG03,sg,20251028-124522,1.0.1,20251020-085245,720,Experiment,Both,1,Automatic,main,31,20251028-124859,local,global,300,H,H,E,E,E-H.png,H-E.png,hH,hH,mask-3.png,mask-1.png,h,1,1.7873411000473425,s,0,0.08455050003249198,0.04721109999809414,0.04671780008357018,0.0998541999142617,0.09924090001732111,0.3006240999093279
RSVPLG03,sg,20251028-124522,1.0.1,20251020-085245,720,Experiment,Both,1,Automatic,main,32,20251028-124904,local,local,300,H,S,E,E,E-H.png,E-S.png,hH,sS,mask-2.png,mask-4.png,h,1,0.8747246999992058,s,1,0.0065963000524789095,0.04743270005565137,0.045976300025358796,0.09947350004222244,0.09925810003187507,0.3007442000089213
RSVPLG03,sg,20251028-124522,1.0.1,20251020-085245,720,Experiment,Both,1,Automatic,main,33,20251028-124909,local,local,300,S,H,A,E,A-S.png,E-H.png,sS,hH,mask-3.png,mask-4.png,s,1,0.4284623999847099,h,1,0.09522359992843121,0.04864349996205419,0.04824250005185604,0.09985819994471967,0.10046049999073148,0.2995754999574274
RSVPLG03,sg,20251028-124522,1.0.1,20251020-085245,720,Experiment,Both,1,Automatic,main,34,20251028-124913,local,local,750,S,H,A,A,A-S.png,A-H.png,sS,hH,mask-2.png,mask-2.png,s,1,0.5414478000020608,h,1,0.07574590004514903,0.04735090001486242,0.04849809990264475,0.1001972999656573,0.10032869991846383,0.7497598000336438
RSVPLG03,sg,20251028-124522,1.0.1,20251020-085245,720,Experiment,Both,1,Automatic,main,35,20251028-124918,global,local,300,H,H,A,A,H-A.png,A-H.png,hH,hH,mask-4.png,mask-1.png,h,1,0.8556745999958366,h,1,0.07083719992078841,0.04855189996305853,0.04731850000098348,0.10164230002555996,0.1003202999709174,0.3005913000088185
RSVPLG03,sg,20251028-124522,1.0.1,20251020-085245,720,Experiment,Both,1,Automatic,main,36,20251028-124923,global,global,750,H,H,E,A,H-E.png,H-A.png,hH,hH,mask-3.png,mask-2.png,h,1,0.4587988000130281,h,1,0.09057639993261546,0.046657799975946546,0.04752700007520616,0.09894769999664277,0.09948370000347495,0.7503800999838859
RSVPLG03,sg,20251028-124522,1.0.1,20251020-085245,720,Experiment,Both,1,Automatic,main,37,20251028-124927,local,global,750,H,H,E,E,E-H.png,H-E.png,hH,hH,mask-4.png,mask-3.png,h,1,1.029923899914138,h,1,0.84056599996984,0.047053399961441755,0.04720389994326979,0.10009049996733665,0.10037640004884452,0.7497282000258565
RSVPLG03,sg,20251028-124522,1.0.1,20251020-085245,720,Experiment,Both,1,Automatic,main,38,20251028-124933,local,global,300,S,H,A,A,A-S.png,H-A.png,sS,hH,mask-4.png,mask-1.png,s,1,0.7723953999811783,h,1,0.040300199994817376,0.047582099912688136,0.04643220000434667,0.09861159999854863,0.10050780000165105,0.2999200999038294
RSVPLG03,sg,20251028-124522,1.0.1,20251020-085245,720,Experiment,Both,1,Automatic,main,39,20251028-124938,global,global,300,H,H,A,A,H-A.png,H-A.png,hH,hH,mask-3.png,mask-3.png,h,1,0.3084977000253275,h,1,0.08968830003868788,0.04849539999850094,0.04695550003089011,0.10049420001450926,0.09917880001012236,0.30105159990489483
RSVPLG03,sg,20251028-124522,1.0.1,20251020-085245,720,Experiment,Both,1,Automatic,main,40,20251028-124942,local,global,750,S,S,E,E,E-S.png,S-E.png,sS,sS,mask-2.png,mask-4.png,s,1,0.569165900000371,s,1,0.0892685999860987,0.04752719996031374,0.04798419994767755,0.09954490000382066,0.09926819999236614,0.7496478999964893
RSVPLG03,sg,20251028-124522,1.0.1,20251020-085245,720,Experiment,Both,1,Automatic,main,41,20251028-124946,local,global,300,S,S,E,A,E-S.png,S-A.png,sS,sS,mask-3.png,mask-2.png,s,1,0.7044394999975339,s,1,0.10354609997011721,0.04869470000267029,0.047705600038170815,0.10178839997388422,0.09996969997882843,0.3014130999799818
RSVPLG03,sg,20251028-124522,1.0.1,20251020-085245,720,Experiment,Both,1,Automatic,main,42,20251028-124951,global,global,750,S,S,E,E,S-E.png,S-E.png,sS,sS,mask-3.png,mask-1.png,s,1,2.209721399936825,s,1,0.08667800005059689,0.04768979991786182,0.046724600018933415,0.10156929993536323,0.10031220002565533,0.7513039999175817
RSVPLG03,sg,20251028-124522,1.0.1,20251020-085245,720,Experiment,Both,1,Automatic,main,43,20251028-124957,local,local,300,S,S,E,E,E-S.png,E-S.png,sS,sS,mask-2.png,mask-1.png,s,1,0.7682722000172362,h,0,0.06569090008269995,0.04619530006311834,0.04743779997806996,0.09870189998764545,0.0999009000370279,0.2997387000359595
RSVPLG03,sg,20251028-124522,1.0.1,20251020-085245,720,Experiment,Both,1,Automatic,main,44,20251028-125002,local,local,300,H,S,E,E,E-H.png,E-S.png,hH,sS,mask-4.png,mask-2.png,h,1,1.2546431999653578,s,1,1.3669320000335574,0.0488601999823004,0.046700900071300566,0.10109450004529208,0.099869400030002,0.301873299991712
RSVPLG03,sg,20251028-124522,1.0.1,20251020-085245,720,Experiment,Both,1,Automatic,main,45,20251028-125007,global,local,750,H,H,E,E,H-E.png,E-H.png,hH,hH,mask-4.png,mask-4.png,h,1,0.9745747999986634,h,1,0.07586729992181063,0.04752550006378442,0.048561799922026694,0.10054200002923608,0.10038820002228022,0.7503738000523299
RSVPLG03,sg,20251028-124522,1.0.1,20251020-085245,720,Experiment,Both,1,Automatic,main,46,20251028-125012,global,local,750,H,S,E,A,H-E.png,A-S.png,hH,sS,mask-2.png,mask-1.png,h,1,1.095693500014022,s,1,0.2166747999144718,0.04750750004313886,0.04652999993413687,0.09952159994281828,0.10054499993566424,0.7498668000334874
RSVPLG03,sg,20251028-124522,1.0.1,20251020-085245,720,Experiment,Both,1,Automatic,main,47,20251028-125017,global,local,300,S,H,A,A,S-A.png,A-H.png,sS,hH,mask-2.png,mask-4.png,s,1,0.47228850005194545,h,1,0.04031640000175685,0.04655049997381866,0.046561600058339536,0.09962660004384816,0.10063200001604855,0.2994402999756858
RSVPLG03,sg,20251028-124522,1.0.1,20251020-085245,720,Experiment,Both,1,Automatic,main,48,20251028-125022,global,local,300,H,S,A,A,H-A.png,A-S.png,hH,sS,mask-2.png,mask-3.png,h,1,0.5791259000543505,s,1,0.2840466999914497,0.04703200003132224,0.04748790001031011,0.09924490004777908,0.10050649999175221,0.2996367000741884
RSVPLG03,sg,20251028-124522,1.0.1,20251020-085245,720,Experiment,Both,1,Automatic,main,49,20251028-125026,global,global,300,S,S,A,A,S-A.png,S-A.png,sS,sS,mask-2.png,mask-4.png,s,1,0.4457117000129074,h,0,0.08800630003679544,0.04751830000896007,0.047505599912256,0.09854090004228055,0.10052149998955429,0.2998005000408739
RSVPLG03,sg,20251028-124522,1.0.1,20251020-085245,720,Experiment,Both,1,Automatic,main,50,20251028-125030,local,local,300,H,S,E,E,E-H.png,E-S.png,hH,sS,mask-1.png,mask-3.png,h,1,1.3748209999175742,s,1,0.042146800085902214,0.046771599911153316,0.04570660006720573,0.09908279997762293,0.09971900004893541,0.3003203999251127
RSVPLG03,sg,20251028-124522,1.0.1,20251020-085245,720,Experiment,Both,1,Automatic,main,51,20251028-125133,global,global,300,S,H,A,A,S-A.png,H-A.png,sS,hH,mask-1.png,mask-4.png,s,1,0.5290266000665724,h,1,0.06019999994896352,0.04755349992774427,0.047520100022666156,0.0996872999239713,0.09924910007975996,0.30038019991479814
RSVPLG03,sg,20251028-124522,1.0.1,20251020-085245,720,Experiment,Both,1,Automatic,main,52,20251028-125138,global,global,750,S,S,E,A,S-E.png,S-A.png,sS,sS,mask-3.png,mask-3.png,s,1,0.3666038999799639,s,1,0.12053800001740456,0.04777579999063164,0.047651999979279935,0.10098180000204593,0.10076569998636842,0.7503842000151053
RSVPLG03,sg,20251028-124522,1.0.1,20251020-085245,720,Experiment,Both,1,Automatic,main,53,20251028-125142,global,local,300,H,S,E,E,H-E.png,E-S.png,hH,sS,mask-4.png,mask-4.png,h,1,0.6738092999439687,s,1,0.021981999976560473,0.04964440001640469,0.04723149992059916,0.10068509995471686,0.10030309995636344,0.30086820002179593
RSVPLG03,sg,20251028-124522,1.0.1,20251020-085245,720,Experiment,Both,1,Automatic,main,54,20251028-125147,local,local,300,H,H,A,E,A-H.png,E-H.png,hH,hH,mask-1.png,mask-1.png,h,1,0.6080701999599114,h,1,0.08785840007476509,0.0487479999428615,0.04860840004403144,0.0997444000095129,0.10078810004051775,0.2999617999885231
RSVPLG03,sg,20251028-124522,1.0.1,20251020-085245,720,Experiment,Both,1,Automatic,main,55,20251028-125151,global,global,750,H,H,E,A,H-E.png,H-A.png,hH,hH,mask-3.png,mask-1.png,h,1,0.3137709000147879,h,1,0.08155340002849698,0.048749799956567585,0.04773400002159178,0.10000610002316535,0.09994089999236166,0.7498064000392333
RSVPLG03,sg,20251028-124522,1.0.1,20251020-085245,720,Experiment,Both,1,Automatic,main,56,20251028-125155,global,local,300,H,H,A,E,H-A.png,E-H.png,hH,hH,mask-2.png,mask-2.png,h,1,0.8157650999492034,s,0,0.1051426000194624,0.04709869995713234,0.04750069999136031,0.10023089998867363,0.10152100003324449,0.2985341999446973
RSVPLG03,sg,20251028-124522,1.0.1,20251020-085245,720,Experiment,Both,1,Automatic,main,57,20251028-125200,global,local,300,H,H,A,E,H-A.png,E-H.png,hH,hH,mask-3.png,mask-2.png,h,1,0.6769742999458686,h,1,0.0861438000574708,0.04754060006234795,0.04656049993354827,0.09955090004950762,0.09956839994993061,0.30079750006552786
RSVPLG03,sg,20251028-124522,1.0.1,20251020-085245,720,Experiment,Both,1,Automatic,main,58,20251028-125205,global,local,300,H,S,E,A,H-E.png,A-S.png,hH,sS,mask-4.png,mask-1.png,h,1,0.8817352000623941,h,0,0.059841100010089576,0.04842599993571639,0.04855489998590201,0.10038439999334514,0.10045879997778684,0.29936559998895973
RSVPLG03,sg,20251028-124522,1.0.1,20251020-085245,720,Experiment,Both,1,Automatic,main,59,20251028-125209,local,global,750,S,H,A,A,A-S.png,H-A.png,sS,hH,mask-4.png,mask-3.png,s,1,0.7860536000225693,h,1,0.9300403000088409,0.04652839992195368,0.04769110004417598,0.10052310000173748,0.09895949997007847,0.7507748999632895
RSVPLG03,sg,20251028-124522,1.0.1,20251020-085245,720,Experiment,Both,1,Automatic,main,60,20251028-125214,local,local,750,S,H,E,A,E-S.png,A-H.png,sS,hH,mask-4.png,mask-4.png,s,1,0.4270808999426663,h,1,0.5872502001002431,0.046696100034751,0.04767260001972318,0.09882970002945513,0.0995149000082165,0.7492465999675915
RSVPLG03,sg,20251028-124522,1.0.1,20251020-085245,720,Experiment,Both,1,Automatic,main,61,20251028-125219,local,local,750,H,S,E,A,E-H.png,A-S.png,hH,sS,mask-3.png,mask-1.png,h,1,0.3546082000248134,s,1,0.10828489996492863,0.04866640002001077,0.04769549996126443,0.09990290005225688,0.09989750001113862,0.7513034000294283
RSVPLG03,sg,20251028-124522,1.0.1,20251020-085245,720,Experiment,Both,1,Automatic,main,62,20251028-125224,local,local,300,H,S,A,E,A-H.png,E-S.png,hH,sS,mask-1.png,mask-2.png,h,1,1.3436191999353468,s,1,0.07500930002424866,0.04772999999113381,0.04785109998192638,0.09993130003567785,0.09990119992289692,0.29985310009215027
RSVPLG03,sg,20251028-124522,1.0.1,20251020-085245,720,Experiment,Both,1,Automatic,main,63,20251028-125229,local,local,750,H,S,A,E,A-H.png,E-S.png,hH,sS,mask-4.png,mask-1.png,h,1,1.4544058999745175,s,1,0.08024779998231679,0.04755499993916601,0.04751929990015924,0.10058490000665188,0.10002469993196428,0.7502961000427604
RSVPLG03,sg,20251028-124522,1.0.1,20251020-085245,720,Experiment,Both,1,Automatic,main,64,20251028-125235,local,local,750,H,S,A,A,A-H.png,A-S.png,hH,sS,mask-1.png,mask-1.png,h,1,0.690564600052312,h,0,0.873901000013575,0.04749450006056577,0.04664730001240969,0.10060630005318671,0.1031008999561891,0.751088900025934
RSVPLG03,sg,20251028-124522,1.0.1,20251020-085245,720,Experiment,Both,1,Automatic,main,65,20251028-125241,global,global,300,S,H,E,A,S-E.png,H-A.png,sS,hH,mask-4.png,mask-1.png,s,1,0.4567199000157416,h,1,0.47626210004091263,0.048323399969376624,0.046958900056779385,0.09922640002332628,0.09883499995339662,0.30127579998224974
RSVPLG03,sg,20251028-124522,1.0.1,20251020-085245,720,Experiment,Both,1,Automatic,main,66,20251028-125246,local,global,750,H,S,A,E,A-H.png,S-E.png,hH,sS,mask-3.png,mask-1.png,h,1,1.3516203999752179,s,1,0.13781280000694096,0.04751780000515282,0.046521499985828996,0.10053319996222854,0.09854719997383654,0.7511946000158787
RSVPLG03,sg,20251028-124522,1.0.1,20251020-085245,720,Experiment,Both,1,Automatic,main,67,20251028-125251,global,local,750,S,H,E,E,S-E.png,E-H.png,sS,hH,mask-1.png,mask-3.png,s,1,0.28813200001604855,h,1,0.032873100019060075,0.04851069999858737,0.04752959997858852,0.10053980001248419,0.09954299998935312,0.7510319000575691
RSVPLG03,sg,20251028-124522,1.0.1,20251020-085245,720,Experiment,Both,1,Automatic,main,68,20251028-125256,local,global,750,S,S,A,A,A-S.png,S-A.png,sS,sS,mask-3.png,mask-3.png,s,1,0.8238926000194624,s,1,0.10352179990150034,0.04714030004106462,0.047225499991327524,0.09815840004011989,0.09828550007659942,0.7501088000135496
RSVPLG03,sg,20251028-124522,1.0.1,20251020-085245,720,Experiment,Both,1,Automatic,main,69,20251028-125301,global,global,750,S,S,E,A,S-E.png,S-A.png,sS,sS,mask-4.png,mask-4.png,s,1,0.5150290000019595,s,1,0.1025435000192374,0.047691799933090806,0.04767470003571361,0.09873620001599193,0.09986379998736084,0.7494567999383435
RSVPLG03,sg,20251028-124522,1.0.1,20251020-085245,720,Experiment,Both,1,Automatic,main,70,20251028-125306,local,local,750,H,H,A,E,A-H.png,E-H.png,hH,hH,mask-3.png,mask-4.png,h,1,0.5245645999675617,s,0,0.03971749998163432,0.04755239991936833,0.04754960001446307,0.09967799996957183,0.09866350004449487,0.7511271999683231
RSVPLG03,sg,20251028-124522,1.0.1,20251020-085245,720,Experiment,Both,1,Automatic,main,71,20251028-125310,local,local,750,H,H,E,A,E-H.png,A-H.png,hH,hH,mask-3.png,mask-2.png,h,1,0.40725629997905344,h,1,0.09325060003902763,0.04736820003017783,0.047330900095403194,0.10042140004225075,0.10035070008598268,0.7500773000065237
RSVPLG03,sg,20251028-124522,1.0.1,20251020-085245,720,Experiment,Both,1,Automatic,main,72,20251028-125315,local,global,750,S,H,E,A,E-S.png,H-A.png,sS,hH,mask-3.png,mask-1.png,s,1,0.5918043999699876,s,0,0.07590459997300059,0.04801600007340312,0.04750620003324002,0.10090239997953176,0.10054450004827231,0.7511129999766126
RSVPLG03,sg,20251028-124522,1.0.1,20251020-085245,720,Experiment,Both,1,Automatic,main,73,20251028-125320,global,local,750,S,S,A,A,S-A.png,A-S.png,sS,sS,mask-3.png,mask-1.png,s,1,0.4275045999092981,s,1,0.06891660008113831,0.04630020004697144,0.047422700095921755,0.10011990007478744,0.10044439998455346,0.7498013000003994
RSVPLG03,sg,20251028-124522,1.0.1,20251020-085245,720,Experiment,Both,1,Automatic,main,74,20251028-125325,local,local,750,H,H,E,E,E-H.png,E-H.png,hH,hH,mask-2.png,mask-4.png,h,1,0.29509030003100634,h,1,0.08280249999370426,0.047572200070135295,0.04755400004796684,0.09880620008334517,0.10168950003571808,0.7484184000641108
RSVPLG03,sg,20251028-124522,1.0.1,20251020-085245,720,Experiment,Both,1,Automatic,main,75,20251028-125329,global,global,750,S,H,E,E,S-E.png,H-E.png,sS,hH,mask-1.png,mask-3.png,s,1,0.8069766000844538,h,1,0.024199499981477857,0.046628399984911084,0.04753740003798157,0.09866719995625317,0.09856910002417862,0.750039599952288
RSVPLG03,sg,20251028-124522,1.0.1,20251020-085245,720,Experiment,Both,1,Automatic,main,76,20251028-125432,global,local,300,S,H,A,E,S-A.png,E-H.png,sS,hH,mask-3.png,mask-3.png,s,1,0.5441400998970494,h,1,0.6884922999888659,0.04697709996253252,0.04763120005372912,0.09913999994751066,0.10167400003410876,0.2984688999131322
RSVPLG03,sg,20251028-124522,1.0.1,20251020-085245,720,Experiment,Both,1,Automatic,main,77,20251028-125436,global,global,300,H,H,E,E,H-E.png,H-E.png,hH,hH,mask-3.png,mask-1.png,h,1,0.26827820006292313,h,1,0.0641926999669522,0.04867100005503744,0.04782569990493357,0.10078510001767427,0.10006919992156327,0.30084140005055815
RSVPLG03,sg,20251028-124522,1.0.1,20251020-085245,720,Experiment,Both,1,Automatic,main,78,20251028-125440,global,local,300,H,H,E,E,H-E.png,E-H.png,hH,hH,mask-3.png,mask-1.png,h,1,1.205450400011614,s,0,0.007930699968710542,0.04670569999143481,0.04869109997525811,0.10109859996009618,0.10094329994171858,0.29974960000254214
RSVPLG03,sg,20251028-124522,1.0.1,20251020-085245,720,Experiment,Both,1,Automatic,main,79,20251028-125445,local,local,300,H,S,A,E,A-H.png,E-S.png,hH,sS,mask-2.png,mask-3.png,h,1,0.6639227999839932,s,1,0.006156700081191957,0.04767989995889366,0.04760799999348819,0.10086410003714263,0.09982489992398769,0.30048870004247874
RSVPLG03,sg,20251028-124522,1.0.1,20251020-085245,720,Experiment,Both,1,Automatic,main,80,20251028-125450,global,global,750,H,S,A,E,H-A.png,S-E.png,hH,sS,mask-4.png,mask-4.png,h,1,0.49542609998025,s,1,0.6558359999908134,0.04752829996868968,0.047563300002366304,0.09855890006292611,0.09957009996287525,0.7501102000242099
RSVPLG03,sg,20251028-124522,1.0.1,20251020-085245,720,Experiment,Both,1,Automatic,main,81,20251028-125454,global,local,750,H,H,A,E,H-A.png,E-H.png,hH,hH,mask-1.png,mask-1.png,h,1,0.2795952999731526,h,1,0.07218639994971454,0.04742960003204644,0.04760970000643283,0.1003218999831006,0.0996399000287056,0.7499647999648005
RSVPLG03,sg,20251028-124522,1.0.1,20251020-085245,720,Experiment,Both,1,Automatic,main,82,20251028-125459,local,global,300,H,H,E,E,E-H.png,H-E.png,hH,hH,mask-1.png,mask-3.png,h,1,0.6384016999509186,s,0,0.8146823999704793,0.047540799947455525,0.04853300005197525,0.09960489999502897,0.1005822999868542,0.299920899909921
RSVPLG03,sg,20251028-124522,1.0.1,20251020-085245,720,Experiment,Both,1,Automatic,main,83,20251028-125503,local,global,300,S,S,E,E,E-S.png,S-E.png,sS,sS,mask-4.png,mask-4.png,s,1,0.7234993000747636,h,0,0.0031831000233069062,0.04752110003028065,0.04756890004500747,0.1005812999792397,0.0996468000812456,0.300444099935703
RSVPLG03,sg,20251028-124522,1.0.1,20251020-085245,720,Experiment,Both,1,Automatic,main,84,20251028-125508,local,global,300,H,H,E,A,E-H.png,H-A.png,hH,hH,mask-4.png,mask-1.png,h,1,1.0219327000668272,h,1,0.1813002999406308,0.04687670001294464,0.04640210000798106,0.09976549993734807,0.09918759996071458,0.2998286000220105
RSVPLG03,sg,20251028-124522,1.0.1,20251020-085245,720,Experiment,Both,1,Automatic,main,85,20251028-125513,local,local,750,S,S,A,A,A-S.png,A-S.png,sS,sS,mask-3.png,mask-3.png,s,1,0.4544561000075191,s,1,0.08614989998750389,0.04558609996456653,0.045589499990455806,0.09859950002282858,0.09859899990260601,0.7503398000262678
RSVPLG03,sg,20251028-124522,1.0.1,20251020-085245,720,Experiment,Both,1,Automatic,main,86,20251028-125517,local,local,750,S,S,A,A,A-S.png,A-S.png,sS,sS,mask-1.png,mask-2.png,s,1,0.41165809996891767,s,1,0.07510769995860755,0.047085199970752,0.04808109998703003,0.09942310000769794,0.1011960000032559,0.7487335000187159
RSVPLG03,sg,20251028-124522,1.0.1,20251020-085245,720,Experiment,Both,1,Automatic,main,87,20251028-125522,local,global,750,S,H,E,A,E-S.png,H-A.png,sS,hH,mask-4.png,mask-2.png,s,1,1.2494431000668555,h,1,0.09181020001415163,0.047536499914713204,0.04859410005155951,0.10065229993779212,0.1006319000152871,0.7488864999031648
RSVPLG03,sg,20251028-124522,1.0.1,20251020-085245,720,Experiment,Both,1,Automatic,main,88,20251028-125528,global,local,300,S,S,A,E,S-A.png,E-S.png,sS,sS,mask-2.png,mask-1.png,s,1,1.9139613999286667,h,0,0.5214669000124559,0.047546699992381036,0.04752049990929663,0.09957169997505844,0.10054659994784743,0.2998635000549257
RSVPLG03,sg,20251028-124522,1.0.1,20251020-085245,720,Experiment,Both,1,Automatic,main,89,20251028-125534,local,local,300,H,H,E,E,E-H.png,E-H.png,hH,hH,mask-4.png,mask-1.png,h,1,0.6793672000057995,h,1,0.05530399992130697,0.04671200003940612,0.04751760000362992,0.10080240003298968,0.09955189994070679,0.30107190005946904
RSVPLG03,sg,20251028-124522,1.0.1,20251020-085245,720,Experiment,Both,1,Automatic,main,90,20251028-125538,global,local,750,H,S,E,E,H-E.png,E-S.png,hH,sS,mask-1.png,mask-1.png,h,1,0.6022708000382408,h,0,0.10226269997656345,0.047530399984680116,0.04754080006387085,0.09817859996110201,0.09954339999239892,0.7498433999717236
RSVPLG03,sg,20251028-124522,1.0.1,20251020-085245,720,Experiment,Both,1,Automatic,main,91,20251028-125543,local,local,300,H,H,E,E,E-H.png,E-H.png,hH,hH,mask-2.png,mask-2.png,h,1,0.8005396000808105,s,0,0.461284099961631,0.04760419996455312,0.04750320001039654,0.10065939999185503,0.10051510005723685,0.30096239992417395
RSVPLG03,sg,20251028-124522,1.0.1,20251020-085245,720,Experiment,Both,1,Automatic,main,92,20251028-125548,local,local,300,H,H,A,E,A-H.png,E-H.png,hH,hH,mask-2.png,mask-4.png,h,1,0.6728575000306591,h,1,0.47645409998949617,0.04644639999605715,0.04739349998999387,0.10042629996314645,0.10024759999942034,0.2994046000530943
RSVPLG03,sg,20251028-124522,1.0.1,20251020-085245,720,Experiment,Both,1,Automatic,main,93,20251028-125553,local,local,750,H,H,E,A,E-H.png,A-H.png,hH,hH,mask-4.png,mask-4.png,h,1,0.32824340008664876,h,1,0.08690619992557913,0.04754739999771118,0.047548400005325675,0.10055630002170801,0.10058790002949536,0.749926200020127
RSVPLG03,sg,20251028-124522,1.0.1,20251020-085245,720,Experiment,Both,1,Automatic,main,94,20251028-125557,global,global,750,H,H,E,E,H-E.png,H-E.png,hH,hH,mask-2.png,mask-4.png,h,1,0.22454779990948737,h,1,0.10147530003450811,0.04750440001953393,0.04751270008273423,0.0985231000231579,0.09853710001334548,0.7505032999906689
RSVPLG03,sg,20251028-124522,1.0.1,20251020-085245,720,Experiment,Both,1,Automatic,main,95,20251028-125602,global,global,300,H,S,E,E,H-E.png,S-E.png,hH,sS,mask-3.png,mask-3.png,h,1,0.7002095999196172,h,0,0.08147610002197325,0.04748820001259446,0.04750520002562553,0.10052219999488443,0.09953979996498674,0.3005737999919802
RSVPLG03,sg,20251028-124522,1.0.1,20251020-085245,720,Experiment,Both,1,Automatic,main,96,20251028-125606,global,local,750,S,H,A,E,S-A.png,E-H.png,sS,hH,mask-3.png,mask-2.png,s,1,0.30375580000691116,h,1,0.028365900041535497,0.04606610001064837,0.04571819992270321,0.0988989999750629,0.10000939993187785,0.7503003000747412
RSVPLG03,sg,20251028-124522,1.0.1,20251020-085245,720,Experiment,Both,1,Automatic,main,97,20251028-125611,global,local,750,H,S,A,E,H-A.png,E-S.png,hH,sS,mask-1.png,mask-3.png,h,1,0.4700739000691101,s,1,0.6307605999754742,0.04756259999703616,0.04760370007716119,0.1004032000200823,0.09967630007304251,0.7505789999850094
RSVPLG03,sg,20251028-124522,1.0.1,20251020-085245,720,Experiment,Both,1,Automatic,main,98,20251028-125616,local,local,750,H,H,A,A,A-H.png,A-H.png,hH,hH,mask-3.png,mask-2.png,h,1,1.208223900059238,h,1,0.07162309996783733,0.04623680002987385,0.04728689999319613,0.09953989996574819,0.10029470000881702,0.749922199989669
RSVPLG03,sg,20251028-124522,1.0.1,20251020-085245,720,Experiment,Both,1,Automatic,main,99,20251028-125621,local,global,300,H,H,E,A,E-H.png,H-A.png,hH,hH,mask-3.png,mask-4.png,h,1,0.731581800035201,s,0,0.8917966999579221,0.047563000000081956,0.047631199937313795,0.09956710005644709,0.09992990002501756,0.3000432000262663
RSVPLG03,sg,20251028-124522,1.0.1,20251020-085245,720,Experiment,Both,1,Automatic,main,100,20251028-125625,local,global,750,H,S,E,E,E-H.png,S-E.png,hH,sS,mask-4.png,mask-2.png,h,1,0.8635487999999896,s,1,0.4713342000031844,0.04752789996564388,0.04608939995523542,0.10155040002427995,0.1000367000233382,0.7518666000105441
RSVPLG03,sg,20251028-124522,1.0.1,20251020-085245,720,Experiment,Both,1,Automatic,main,101,20251028-125633,global,global,300,S,H,E,A,S-E.png,H-A.png,sS,hH,mask-2.png,mask-4.png,s,1,0.33284779998939484,h,1,0.017680900054983795,0.047583599924109876,0.04655690002255142,0.09962549991905689,0.09962170000653714,0.3003644999116659
RSVPLG03,sg,20251028-124522,1.0.1,20251020-085245,720,Experiment,Both,1,Automatic,main,102,20251028-125637,global,global,300,H,S,E,E,H-E.png,S-E.png,hH,sS,mask-4.png,mask-4.png,h,1,0.19373270007781684,s,1,0.02227170008700341,0.0466331000206992,0.04739920003339648,0.09907210001256317,0.10028659994713962,0.29966160003095865
RSVPLG03,sg,20251028-124522,1.0.1,20251020-085245,720,Experiment,Both,1,Automatic,main,103,20251028-125641,local,global,750,S,S,E,A,E-S.png,S-A.png,sS,sS,mask-4.png,mask-1.png,s,1,0.5103439999511465,s,1,0.0743696999270469,0.04761770006734878,0.04840170009993017,0.09972340008243918,0.10068380006123334,0.7495403999928385
RSVPLG03,sg,20251028-124522,1.0.1,20251020-085245,720,Experiment,Both,1,Automatic,main,104,20251028-125645,local,global,300,S,H,A,E,A-S.png,H-E.png,sS,hH,mask-4.png,mask-1.png,s,1,0.44536180002614856,h,1,0.5894522001035511,0.046712800045497715,0.048724799999035895,0.10094470006879419,0.10096969990991056,0.29957420006394386
RSVPLG03,sg,20251028-124522,1.0.1,20251020-085245,720,Experiment,Both,1,Automatic,main,105,20251028-125649,global,global,750,H,H,A,A,H-A.png,H-A.png,hH,hH,mask-1.png,mask-4.png,h,1,0.3668449999531731,h,1,0.04241959995124489,0.04866430000402033,0.048668199917301536,0.0998889000620693,0.10184839996509254,0.74982310004998
RSVPLG03,sg,20251028-124522,1.0.1,20251020-085245,720,Experiment,Both,1,Automatic,main,106,20251028-125654,local,global,300,S,S,A,A,A-S.png,S-A.png,sS,sS,mask-4.png,mask-3.png,s,1,0.6450047999387607,s,1,0.07353319996036589,0.047708400059491396,0.04776590003166348,0.10098510002717376,0.10008919995743781,0.30065660004038364
RSVPLG03,sg,20251028-124522,1.0.1,20251020-085245,720,Experiment,Both,1,Automatic,main,107,20251028-125658,global,global,300,S,H,A,E,S-A.png,H-E.png,sS,hH,mask-2.png,mask-3.png,s,1,0.46449919999577105,h,1,0.03226400003768504,0.04672270000446588,0.047721399925649166,0.10070360009558499,0.09977849991992116,0.29924200009554625
RSVPLG03,sg,20251028-124522,1.0.1,20251020-085245,720,Experiment,Both,1,Automatic,main,108,20251028-125703,local,local,750,H,S,E,E,E-H.png,E-S.png,hH,sS,mask-2.png,mask-2.png,h,1,0.42985529999714345,s,1,0.00678989989683032,0.04818929999601096,0.04702739999629557,0.10114709998015314,0.0992492000805214,0.7511527999304235
RSVPLG03,sg,20251028-124522,1.0.1,20251020-085245,720,Experiment,Both,1,Automatic,main,109,20251028-125707,global,global,750,H,H,E,E,H-E.png,H-E.png,hH,hH,mask-4.png,mask-4.png,h,1,0.3088829000480473,h,1,0.02036319999024272,0.0475323999999091,0.04853030003141612,0.09966180007904768,0.1001719000050798,0.7494519000174478
RSVPLG03,sg,20251028-124522,1.0.1,20251020-085245,720,Experiment,Both,1,Automatic,main,110,20251028-125712,global,global,300,H,H,E,A,H-E.png,H-A.png,hH,hH,mask-2.png,mask-4.png,h,1,0.7201016000472009,h,1,0.06926000001840293,0.04693040007259697,0.047247500042431056,0.1001062000868842,0.10024990001693368,0.3014534000540152
RSVPLG03,sg,20251028-124522,1.0.1,20251020-085245,720,Experiment,Both,1,Automatic,main,111,20251028-125716,local,global,750,S,H,E,A,E-S.png,H-A.png,sS,hH,mask-2.png,mask-4.png,s,1,0.5438932999968529,s,0,0.07145439996384084,0.04758210002910346,0.04757079994305968,0.09956940007396042,0.10056439996697009,0.7497767000459135
RSVPLG03,sg,20251028-124522,1.0.1,20251020-085245,720,Experiment,Both,1,Automatic,main,112,20251028-125721,global,global,750,S,S,E,A,S-E.png,S-A.png,sS,sS,mask-1.png,mask-2.png,s,1,0.34723549999762326,s,1,0.07629120000638068,0.047782299923710525,0.04784989997278899,0.09975940000731498,0.09932170005049556,0.7510615999344736
RSVPLG03,sg,20251028-124522,1.0.1,20251020-085245,720,Experiment,Both,1,Automatic,main,113,20251028-125726,global,global,300,H,S,A,A,H-A.png,S-A.png,hH,sS,mask-2.png,mask-4.png,h,1,0.36937420000322163,s,1,0.04009619995485991,0.047009099973365664,0.046561699942685664,0.10002090001944453,0.09948169998824596,0.300317500019446
RSVPLG03,sg,20251028-124522,1.0.1,20251020-085245,720,Experiment,Both,1,Automatic,main,114,20251028-125730,local,local,750,H,S,A,A,A-H.png,A-S.png,hH,sS,mask-1.png,mask-2.png,h,1,0.6205597999505699,h,0,0.13395679998211563,0.04769150004722178,0.04671749996487051,0.10071270004846156,0.0999509000685066,0.7509960000170395
RSVPLG03,sg,20251028-124522,1.0.1,20251020-085245,720,Experiment,Both,1,Automatic,main,115,20251028-125735,global,local,750,S,H,A,A,S-A.png,A-H.png,sS,hH,mask-2.png,mask-1.png,s,1,0.7912459999788553,h,1,0.5219476000638679,0.046706799999810755,0.04669480002485216,0.09988719993270934,0.09985620004590601,0.7503567999228835
RSVPLG03,sg,20251028-124522,1.0.1,20251020-085245,720,Experiment,Both,1,Automatic,main,116,20251028-125740,local,global,300,H,H,A,A,A-H.png,H-A.png,hH,hH,mask-2.png,mask-4.png,h,1,0.768352699931711,h,1,0.07061880000401288,0.048729199916124344,0.04570040001999587,0.1009351999964565,0.09988200000952929,0.3014690999407321
RSVPLG03,sg,20251028-124522,1.0.1,20251020-085245,720,Experiment,Both,1,Automatic,main,117,20251028-125745,local,global,300,S,H,E,E,E-S.png,H-E.png,sS,hH,mask-2.png,mask-4.png,s,1,0.5169005999341607,s,0,0.10743770003318787,0.04724590003024787,0.04751520010177046,0.09936460002791137,0.10052550002001226,0.2997088999254629
RSVPLG03,sg,20251028-124522,1.0.1,20251020-085245,720,Experiment,Both,1,Automatic,main,118,20251028-125749,global,local,750,H,H,E,E,H-E.png,E-H.png,hH,hH,mask-1.png,mask-1.png,h,1,2.123189099947922,h,1,0.9232647001044825,0.0465127999195829,0.04849640000611544,0.10051919997204095,0.10054160002619028,0.7497430999064818
RSVPLG03,sg,20251028-124522,1.0.1,20251020-085245,720,Experiment,Both,1,Automatic,main,119,20251028-125756,local,local,300,S,H,A,A,A-S.png,A-H.png,sS,hH,mask-1.png,mask-2.png,s,1,0.8816689000232145,h,1,0.17099000001326203,0.04881609999574721,0.0477318000048399,0.09985130000859499,0.09860469994600862,0.3009717999957502
RSVPLG03,sg,20251028-124522,1.0.1,20251020-085245,720,Experiment,Both,1,Automatic,main,120,20251028-125801,local,global,300,S,H,E,A,E-S.png,H-A.png,sS,hH,mask-1.png,mask-3.png,s,1,0.7663881999906152,h,1,0.11652819998562336,0.047730699996463954,0.04775170003995299,0.09993899997789413,0.09994670003652573,0.299677100032568
RSVPLG03,sg,20251028-124522,1.0.1,20251020-085245,720,Experiment,Both,1,Automatic,main,121,20251028-125805,global,global,300,S,S,A,A,S-A.png,S-A.png,sS,sS,mask-1.png,mask-2.png,s,1,0.6041540999431163,h,0,0.0028942000353708863,0.04701659991405904,0.046178000047802925,0.0994339999742806,0.1003406000090763,0.2999088999349624
RSVPLG03,sg,20251028-124522,1.0.1,20251020-085245,720,Experiment,Both,1,Automatic,main,122,20251028-125810,global,global,750,S,S,E,A,S-E.png,S-A.png,sS,sS,mask-2.png,mask-4.png,s,1,0.3801601999439299,s,1,0.07321750000119209,0.046687399968504906,0.04707189998589456,0.09988130000419915,0.10026850004214793,0.7496093999361619
