exp,exp_initials,runtime,ver,modtime,sub,blocktype,targets,cuetype,mode,trialtype,trial,trialtime,t1_level,t2_level,t2_lag,t1,t2,distractor1,distractor2,stimfile1,stimfile2,t1_corr,t2_corr,maskfile1,maskfile2,t1_resp,t1_acc,t1_rt,t2_resp,t2_acc,t2_rt,t1_dur,t2_dur,t1mask_soa,t2mask_soa,t1t2_soa
RSVPLG03,km,20251120-111314,1.0.2,20251113-095759,749,Introduction,T1,1,Automatic,main,1,20251120-111345,local,global,750,S,S,E,A,E-S.png,S-A.png,sS,sS,mask-1.png,mask-2.png,s,1,2.013207300013164,none,-5,0,0.08919269999023527,0.10026199999265373,0.18975329998647794,0.19980559998657554,0.7371803999994881
RSVPLG03,km,20251120-111314,1.0.2,20251113-095759,749,Introduction,T1,1,Automatic,main,2,20251120-111351,local,local,750,H,H,E,E,E-H.png,E-H.png,hH,hH,mask-3.png,mask-4.png,h,1,2.3145602000004146,none,-5,0,0.09833750000689179,0.09854050001013093,0.19939170000725426,0.1982369000033941,0.7477106000005733
RSVPLG03,km,20251120-111314,1.0.2,20251113-095759,749,Introduction,T1,1,Automatic,main,3,20251120-111357,global,global,750,S,S,A,E,S-A.png,S-E.png,sS,sS,mask-2.png,mask-2.png,s,1,1.8069858999806456,none,-5,0,0.10029449997819029,0.09998020000057295,0.19823789998190477,0.2003872999921441,0.7469866999890655
RSVPLG03,km,20251120-111314,1.0.2,20251113-095759,749,Introduction,T1,1,Automatic,main,4,20251120-111403,global,local,750,H,H,E,E,H-E.png,E-H.png,hH,hH,mask-4.png,mask-2.png,h,1,1.3071919000067282,none,-5,0,0.09907910000765696,0.0991204000019934,0.20050599999376573,0.19936980001511984,0.7501033000007737
RSVPLG03,km,20251120-111314,1.0.2,20251113-095759,749,Introduction,T1,1,Automatic,main,5,20251120-111409,global,local,750,S,H,A,A,S-A.png,A-H.png,sS,hH,mask-2.png,mask-3.png,none,-6,0,none,-5,0,0.10023809998529032,0.09842579998075962,0.20024460001150146,0.19718089999514632,0.7486786000081338
RSVPLG03,km,20251120-111424,1.0.2,20251113-095759,749,Practice,T1,1,Automatic,main,1,20251120-111448,local,local,300,H,H,E,E,E-H.png,E-H.png,hH,hH,mask-1.png,mask-2.png,h,1,1.3565391000011005,none,-5,0,0.040749400010099635,0.050299599999561906,0.09182530001271516,0.10151440001209266,0.29108190000988543
RSVPLG03,km,20251120-111424,1.0.2,20251113-095759,749,Practice,T1,1,Automatic,main,2,20251120-111453,local,local,300,H,S,A,A,A-H.png,A-S.png,hH,sS,mask-3.png,mask-3.png,h,1,0.7629802000010386,none,-5,0,0.048668599978554994,0.0488850999972783,0.1003484999819193,0.09941729999263771,0.3002987999934703
RSVPLG03,km,20251120-111424,1.0.2,20251113-095759,749,Practice,T1,1,Automatic,main,3,20251120-111458,local,global,300,H,H,E,E,E-H.png,H-E.png,hH,hH,mask-4.png,mask-3.png,h,1,0.6148958000121638,none,-5,0,0.04893550000269897,0.05080379999708384,0.0989558000001125,0.10091450001345947,0.29880920000141487
RSVPLG03,km,20251120-111424,1.0.2,20251113-095759,749,Practice,T1,1,Automatic,main,4,20251120-111502,local,global,300,S,S,A,E,A-S.png,S-E.png,sS,sS,mask-1.png,mask-1.png,s,1,0.5640722000098322,none,-5,0,0.05003189999843016,0.049305399996228516,0.09993090000352822,0.098827000008896,0.2993467999913264
RSVPLG03,km,20251120-111424,1.0.2,20251113-095759,749,Practice,T1,1,Automatic,main,5,20251120-111506,local,local,750,S,S,E,E,E-S.png,E-S.png,sS,sS,mask-2.png,mask-2.png,s,1,1.7775146999920253,none,-5,0,0.04993619999731891,0.049756099993828684,0.09973410001839511,0.10001359999296255,0.7514312000130303
RSVPLG03,km,20251120-111424,1.0.2,20251113-095759,749,Practice,T1,1,Automatic,main,6,20251120-111512,local,local,750,S,H,A,E,A-S.png,E-H.png,sS,hH,mask-1.png,mask-3.png,s,1,2.365798100014217,none,-5,0,0.04989170000771992,0.0499497999844607,0.09988370002247393,0.09888139998656698,0.7496469000179786
RSVPLG03,km,20251120-111424,1.0.2,20251113-095759,749,Practice,T1,1,Automatic,main,7,20251120-111518,global,local,300,H,S,A,A,H-A.png,A-S.png,hH,sS,mask-4.png,mask-2.png,h,1,1.6900002000038512,none,-5,0,0.049423999997088686,0.05112980000558309,0.09961299999849871,0.10117790001095273,0.30057059999671765
RSVPLG03,km,20251120-111424,1.0.2,20251113-095759,749,Practice,T1,1,Automatic,main,8,20251120-111523,local,global,750,S,H,E,E,E-S.png,H-E.png,sS,hH,mask-4.png,mask-2.png,s,1,0.7657530000142287,none,-5,0,0.04984729998977855,0.05023989998153411,0.09977359999902546,0.10063649999210611,0.7505995999963488
RSVPLG03,km,20251120-111424,1.0.2,20251113-095759,749,Practice,T1,1,Automatic,main,9,20251120-111528,global,local,750,H,S,E,A,H-E.png,A-S.png,hH,sS,mask-4.png,mask-4.png,h,1,0.8660051000188105,none,-5,0,0.049912999995285645,0.04977950002648868,0.10058530000969768,0.09969240002101287,0.7518321999814361
RSVPLG03,km,20251120-111424,1.0.2,20251113-095759,749,Practice,T1,1,Automatic,main,10,20251120-111533,local,global,750,H,H,E,E,E-H.png,H-E.png,hH,hH,mask-3.png,mask-3.png,h,1,2.2901820999977645,none,-5,0,0.05086609997670166,0.050492400012444705,0.09891549998428673,0.09998240001732484,0.7498030999850016
RSVPLG03,km,20251120-111424,1.0.2,20251113-095759,749,Practice,T1,1,Automatic,main,11,20251120-111539,global,global,750,S,H,A,E,S-A.png,H-E.png,sS,hH,mask-1.png,mask-4.png,s,1,1.1058789000089746,none,-5,0,0.048674599995138124,0.0498811999859754,0.09802389997639693,0.09979700000258163,0.7502700999903027
RSVPLG03,km,20251120-111424,1.0.2,20251113-095759,749,Practice,T1,1,Automatic,main,12,20251120-111544,global,local,300,H,S,E,A,H-E.png,A-S.png,hH,sS,mask-1.png,mask-3.png,h,1,1.0731665999919642,none,-5,0,0.04925169999478385,0.05026920000091195,0.09931409999262542,0.09950420001405291,0.2990374999935739
RSVPLG03,km,20251120-111424,1.0.2,20251113-095759,749,Practice,T1,1,Automatic,main,13,20251120-111549,global,local,750,H,H,A,E,H-A.png,E-H.png,hH,hH,mask-3.png,mask-4.png,h,1,0.7284700000018347,none,-5,0,0.0500797999848146,0.05144460001611151,0.09999210000387393,0.09998190001351759,0.7497418999846559
RSVPLG03,km,20251120-111424,1.0.2,20251113-095759,749,Practice,T1,1,Automatic,main,14,20251120-111554,global,global,750,H,H,E,E,H-E.png,H-E.png,hH,hH,mask-1.png,mask-1.png,h,1,1.3315046000061557,none,-5,0,0.049591599992709234,0.05082970001967624,0.10051629997906275,0.10083790001226589,0.7497641999798361
RSVPLG03,km,20251120-111424,1.0.2,20251113-095759,749,Practice,T1,1,Automatic,main,15,20251120-111559,global,global,300,H,S,A,E,H-A.png,S-E.png,hH,sS,mask-2.png,mask-2.png,h,1,0.6358683999860659,none,-5,0,0.049799100001109764,0.049772500002291054,0.09960090002277866,0.09967609998420812,0.3003445000213105
RSVPLG03,km,20251120-111424,1.0.2,20251113-095759,749,Practice,T1,1,Automatic,main,16,20251120-111603,global,global,300,H,H,E,A,H-E.png,H-A.png,hH,hH,mask-1.png,mask-4.png,h,1,1.408188400004292,none,-5,0,0.04977330000838265,0.05028900000615977,0.09966620002523996,0.10072720001335256,0.29896680000820197
RSVPLG03,km,20251120-111631,1.0.2,20251113-095759,749,Introduction,Both,1,Automatic,main,1,20251120-111723,global,global,750,S,H,A,E,S-A.png,H-E.png,sS,hH,mask-1.png,mask-3.png,h,0,1.7682916999910958,s,0,6.460943600017345,0.09608380001736805,0.100684499979252,0.19562760001281276,0.20160450000548735,0.7460618000186514
RSVPLG03,km,20251120-111631,1.0.2,20251113-095759,749,Introduction,Both,1,Automatic,main,2,20251120-111736,global,global,750,H,H,E,E,H-E.png,H-E.png,hH,hH,mask-3.png,mask-3.png,h,1,1.690963400003966,h,1,0.49317110000993125,0.09891480000806041,0.09842600001138635,0.19893539999611676,0.19887680001556873,0.7505181999877095
RSVPLG03,km,20251120-111631,1.0.2,20251113-095759,749,Introduction,Both,1,Automatic,main,3,20251120-111742,local,global,750,S,H,A,A,A-S.png,H-A.png,sS,hH,mask-1.png,mask-1.png,s,1,1.8808497999852989,h,1,0.5115536999946926,0.10034740000264719,0.09992479998618364,0.20093150000320747,0.20097239999449812,0.7517785000090953
RSVPLG03,km,20251120-111631,1.0.2,20251113-095759,749,Introduction,Both,1,Automatic,main,4,20251120-111749,local,local,750,H,H,E,A,E-H.png,A-H.png,hH,hH,mask-3.png,mask-4.png,h,1,1.1423637999978382,s,0,1.2226475000206847,0.09948639999493025,0.10017449999577366,0.20079799997620285,0.20042059998377226,0.749552199995378
RSVPLG03,km,20251120-111631,1.0.2,20251113-095759,749,Introduction,Both,1,Automatic,main,5,20251120-111754,global,local,750,S,S,A,E,S-A.png,E-S.png,sS,sS,mask-3.png,mask-1.png,s,1,1.3900456000119448,s,1,0.16051499999593943,0.09937149999313988,0.09920470000361092,0.19975179998436943,0.199003099987749,0.7510542999953032
RSVPLG03,km,20251120-111631,1.0.2,20251113-095759,749,Introduction,Both,1,Automatic,main,6,20251120-111800,global,local,750,H,S,E,A,H-E.png,A-S.png,hH,sS,mask-2.png,mask-4.png,h,1,1.5691287999798078,s,1,0.7048124000139069,0.09997999999905005,0.09989879999193363,0.19990369997685775,0.19926769999437965,0.7515802999841981
RSVPLG03,km,20251120-111631,1.0.2,20251113-095759,749,Introduction,Both,1,Automatic,main,7,20251120-111807,local,global,750,S,H,E,E,E-S.png,H-E.png,sS,hH,mask-4.png,mask-3.png,s,1,1.3027450000226963,h,1,0.015287899994291365,0.10058460000436753,0.10088510002242401,0.20030309999128804,0.20099070001742803,0.7503834999806713
RSVPLG03,km,20251120-111631,1.0.2,20251113-095759,749,Introduction,Both,1,Automatic,main,8,20251120-111812,global,local,750,S,H,A,E,S-A.png,E-H.png,sS,hH,mask-1.png,mask-3.png,none,-6,0,none,-6,0,0.10155959997791797,0.0998154999979306,0.2018730999843683,0.19873470001039095,0.7516682999848854
RSVPLG03,km,20251120-111831,1.0.2,20251113-095759,749,Practice,Both,1,Automatic,main,1,20251120-111850,local,global,750,H,H,E,A,E-H.png,H-A.png,hH,hH,mask-3.png,mask-3.png,h,1,2.102599099976942,s,0,2.198932200000854,0.038854500016896054,0.05021849999320693,0.08881620000465773,0.1016282000055071,0.7391048000135925
RSVPLG03,km,20251120-111831,1.0.2,20251113-095759,749,Practice,Both,1,Automatic,main,2,20251120-111856,local,local,300,H,S,A,E,A-H.png,E-S.png,hH,sS,mask-4.png,mask-3.png,h,1,0.8689410000224598,s,1,0.9330729000212159,0.04924219998065382,0.04986090000602417,0.09954199998173863,0.10033260000636801,0.2991590999881737
RSVPLG03,km,20251120-111831,1.0.2,20251113-095759,749,Practice,Both,1,Automatic,main,3,20251120-111901,local,local,300,H,H,A,A,A-H.png,A-H.png,hH,hH,mask-1.png,mask-4.png,h,1,0.854464799980633,s,0,0.9348013999988325,0.04923790000611916,0.05098510000971146,0.10048419999657199,0.10084900000947528,0.29910750000271946
RSVPLG03,km,20251120-111831,1.0.2,20251113-095759,749,Practice,Both,1,Automatic,main,4,20251120-111905,global,global,300,S,H,E,A,S-E.png,H-A.png,sS,hH,mask-3.png,mask-3.png,s,1,1.247125900001265,h,1,0.03154200001154095,0.049816099985037,0.050302899995585904,0.10072699998272583,0.10159029997885227,0.29908440000144765
RSVPLG03,km,20251120-111831,1.0.2,20251113-095759,749,Practice,Both,1,Automatic,main,5,20251120-111910,local,local,750,S,H,E,E,E-S.png,E-H.png,sS,hH,mask-3.png,mask-1.png,s,1,2.980769700021483,s,0,0.1115103000192903,0.04864860000088811,0.050511599984019995,0.09881890000542626,0.10006460000295192,0.7477717000001576
RSVPLG03,km,20251120-111831,1.0.2,20251113-095759,749,Practice,Both,1,Automatic,main,6,20251120-111917,global,local,750,H,H,A,E,H-A.png,E-H.png,hH,hH,mask-2.png,mask-2.png,h,1,1.925381400011247,s,0,2.0375467999838293,0.05086540000047535,0.049763199989683926,0.100173500017263,0.0996844999899622,0.748267000017222
RSVPLG03,km,20251120-111831,1.0.2,20251113-095759,749,Practice,Both,1,Automatic,main,7,20251120-111923,local,global,300,H,S,A,A,A-H.png,S-A.png,hH,sS,mask-3.png,mask-1.png,h,1,0.6098648000042886,s,1,0.6902297000051476,0.05058969999663532,0.04951700000674464,0.10132809999049641,0.0998752000159584,0.30122860000119545
RSVPLG03,km,20251120-111831,1.0.2,20251113-095759,749,Practice,Both,1,Automatic,main,8,20251120-111928,global,local,300,H,S,E,E,H-E.png,E-S.png,hH,sS,mask-1.png,mask-3.png,h,1,1.4268720999825746,h,0,0.8643920999893453,0.048898199980612844,0.04972249999991618,0.09846349997678772,0.10135250000166707,0.29859679998480715
RSVPLG03,km,20251120-111831,1.0.2,20251113-095759,749,Practice,Both,1,Automatic,main,9,20251120-111934,local,local,750,H,H,E,A,E-H.png,A-H.png,hH,hH,mask-1.png,mask-1.png,h,1,0.7747425999841653,h,1,0.1409595999866724,0.050659600005019456,0.048744100000476465,0.10141209998982958,0.09952750001684763,0.7506592999852728
RSVPLG03,km,20251120-111831,1.0.2,20251113-095759,749,Practice,Both,1,Automatic,main,10,20251120-111939,global,global,750,S,H,A,E,S-A.png,H-E.png,sS,hH,mask-1.png,mask-4.png,h,0,2.037846699997317,s,0,0.06661959999473765,0.04851910000434145,0.05173010000726208,0.0986241000064183,0.10030710001592524,0.7481465000018943
RSVPLG03,km,20251120-111831,1.0.2,20251113-095759,749,Practice,Both,1,Automatic,main,11,20251120-111945,local,global,300,S,S,E,A,E-S.png,S-A.png,sS,sS,mask-4.png,mask-4.png,s,1,1.3693957999930717,h,0,0.03428279998479411,0.050348500022664666,0.051317400007974356,0.09971500001847744,0.10045880000689067,0.29961489999550395
RSVPLG03,km,20251120-111831,1.0.2,20251113-095759,749,Practice,Both,1,Automatic,main,12,20251120-111950,local,global,750,H,H,E,E,E-H.png,H-E.png,hH,hH,mask-2.png,mask-1.png,h,1,1.2021150999935344,s,0,0.46255970001220703,0.05276259998208843,0.04966669998248108,0.10114969999995083,0.09939879999728873,0.7513689000043087
RSVPLG03,km,20251120-111831,1.0.2,20251113-095759,749,Practice,Both,1,Automatic,main,13,20251120-111956,global,global,750,H,S,A,E,H-A.png,S-E.png,hH,sS,mask-1.png,mask-2.png,h,1,1.2394485999830067,s,1,1.3678046999848448,0.05046919998130761,0.049627300002612174,0.1010037999949418,0.10010389998205937,0.7504881999921054
RSVPLG03,km,20251120-111831,1.0.2,20251113-095759,749,Practice,Both,1,Automatic,main,14,20251120-112001,global,local,300,S,S,E,E,S-E.png,E-S.png,sS,sS,mask-1.png,mask-4.png,h,0,0.8759079000155907,s,1,0.9398096000077203,0.04864510000334121,0.04966350001632236,0.09730309998849407,0.1007990000071004,0.298525599995628
RSVPLG03,km,20251120-111831,1.0.2,20251113-095759,749,Practice,Both,1,Automatic,main,15,20251120-112006,global,local,750,S,S,A,E,S-A.png,E-S.png,sS,sS,mask-3.png,mask-1.png,s,1,0.40861039998708293,h,0,0.5366535999928601,0.04961860002367757,0.050520699995104223,0.09937400001217611,0.09953239999595098,0.7491646000125911
RSVPLG03,km,20251120-111831,1.0.2,20251113-095759,749,Practice,Both,1,Automatic,main,16,20251120-112010,global,global,300,S,S,E,A,S-E.png,S-A.png,sS,sS,mask-1.png,mask-3.png,h,0,0.6953558000095654,s,1,0.018352100014453754,0.048681699990993366,0.047748599987244233,0.09843730001011863,0.09947099999408238,0.2993754000053741
RSVPLG03,km,20251120-112038,1.0.2,20251113-095759,749,Practice,Both,1,Automatic,main,1,20251120-112058,local,local,300,H,H,A,A,A-H.png,A-H.png,hH,hH,mask-4.png,mask-4.png,h,1,1.1206400000082795,s,0,0.012171000009402633,0.048852100007934496,0.049430099985329434,0.09837120000156574,0.09894900000654161,0.30035470001166686
RSVPLG03,km,20251120-112038,1.0.2,20251113-095759,749,Practice,Both,1,Automatic,main,2,20251120-112103,global,local,750,H,H,A,E,H-A.png,E-H.png,hH,hH,mask-3.png,mask-2.png,h,1,1.2474110999901313,s,0,0.60762959998101,0.04987999997683801,0.050268399994820356,0.10083169999415986,0.10073629999533296,0.7485070999828167
RSVPLG03,km,20251120-112038,1.0.2,20251113-095759,749,Practice,Both,1,Automatic,main,3,20251120-112109,global,global,300,H,S,A,E,H-A.png,S-E.png,hH,sS,mask-3.png,mask-2.png,h,1,0.4830677999998443,s,1,0.5631345999718178,0.05090920001384802,0.05044970000744797,0.10157970001455396,0.1019007999857422,0.30052960000466555
RSVPLG03,km,20251120-112038,1.0.2,20251113-095759,749,Practice,Both,1,Automatic,main,4,20251120-112113,global,local,300,H,H,A,E,H-A.png,E-H.png,hH,hH,mask-3.png,mask-4.png,h,1,0.6524855000025127,s,0,0.732484200008912,0.05045899999095127,0.04944249999243766,0.10062979999929667,0.10076470000785775,0.30098699999507517
RSVPLG03,km,20251120-112038,1.0.2,20251113-095759,749,Practice,Both,1,Automatic,main,5,20251120-112117,local,global,750,S,H,E,A,E-S.png,H-A.png,sS,hH,mask-1.png,mask-2.png,s,1,1.0173311999824364,h,1,1.0077686000149697,0.05034680000972003,0.04973700002301484,0.10000040000886656,0.09839200001442805,0.7506073999975342
RSVPLG03,km,20251120-112038,1.0.2,20251113-095759,749,Practice,Both,1,Automatic,main,6,20251120-112123,global,global,300,H,S,E,A,H-E.png,S-A.png,hH,sS,mask-3.png,mask-1.png,h,1,0.5764091000019107,s,1,0.6404545999830589,0.051720600022235885,0.050728100002743304,0.10164090001489967,0.09943050000583753,0.3010417000041343
RSVPLG03,km,20251120-112038,1.0.2,20251113-095759,749,Practice,Both,1,Automatic,main,7,20251120-112127,local,global,300,S,S,A,E,A-S.png,S-E.png,sS,sS,mask-2.png,mask-4.png,s,1,0.6755831000045873,h,0,0.03155490002245642,0.04980839998461306,0.0517212999984622,0.09999129999778233,0.10147399999550544,0.2985517999914009
RSVPLG03,km,20251120-112038,1.0.2,20251113-095759,749,Practice,Both,1,Automatic,main,8,20251120-112132,global,global,750,H,H,A,E,H-A.png,H-E.png,hH,hH,mask-4.png,mask-1.png,h,1,0.6572068000095896,s,0,0.7037225000094622,0.04977130002225749,0.05114389999653213,0.10010480001801625,0.10087789999670349,0.7506046000053175
RSVPLG03,km,20251120-112038,1.0.2,20251113-095759,749,Practice,Both,1,Automatic,main,9,20251120-112137,local,global,750,S,S,E,E,E-S.png,S-E.png,sS,sS,mask-4.png,mask-4.png,s,1,1.1677465999964625,h,0,2.222339200001443,0.049713100015651435,0.05009500001324341,0.09987269999692217,0.10030049999477342,0.7500576000020374
RSVPLG03,km,20251120-112038,1.0.2,20251113-095759,749,Practice,Both,1,Automatic,main,10,20251120-112145,local,local,750,S,H,E,E,E-S.png,E-H.png,sS,hH,mask-1.png,mask-4.png,s,1,0.6640853999997489,h,1,0.03079230000730604,0.05079040001146495,0.04965050000464544,0.10242969999671914,0.09957099999883212,0.7530920999997761
RSVPLG03,km,20251120-112038,1.0.2,20251113-095759,749,Practice,Both,1,Automatic,main,11,20251120-112150,global,local,300,S,S,E,E,S-E.png,E-S.png,sS,sS,mask-3.png,mask-1.png,h,0,0.9958587000146508,s,1,0.014282099989941344,0.05086250000749715,0.05079509998904541,0.10169609999866225,0.10203519999049604,0.29917959999875166
RSVPLG03,km,20251120-112038,1.0.2,20251113-095759,749,Practice,Both,1,Automatic,main,12,20251120-112154,local,global,300,S,H,A,A,A-S.png,H-A.png,sS,hH,mask-1.png,mask-3.png,s,1,0.48447970001143403,h,1,0.01528429999598302,0.049108599981991574,0.04971709998790175,0.1010744999803137,0.10048490000190213,0.2993545999925118
RSVPLG03,km,20251120-112038,1.0.2,20251113-095759,749,Practice,Both,1,Automatic,main,13,20251120-112158,local,local,750,S,S,A,E,A-S.png,E-S.png,sS,sS,mask-2.png,mask-3.png,s,1,0.5304080999922007,h,0,0.015647899999748915,0.04955399999744259,0.04975979999289848,0.09965739998733625,0.09959480000543408,0.7519449999963399
RSVPLG03,km,20251120-112038,1.0.2,20251113-095759,749,Practice,Both,1,Automatic,main,14,20251120-112203,global,local,750,S,H,A,E,S-A.png,E-H.png,sS,hH,mask-1.png,mask-3.png,h,0,0.4341863000008743,s,0,0.530502500012517,0.04973889997927472,0.049723500007530674,0.09957930000382476,0.09956349999993108,0.7504213999782223
RSVPLG03,km,20251120-112038,1.0.2,20251113-095759,749,Practice,Both,1,Automatic,main,15,20251120-112208,global,global,750,S,S,E,E,S-E.png,S-E.png,sS,sS,mask-1.png,mask-4.png,h,0,0.6880583000020124,s,1,0.7683161000022665,0.049545799993211403,0.05031350001809187,0.09817889999249019,0.10014029999729246,0.7503628999984358
RSVPLG03,km,20251120-112038,1.0.2,20251113-095759,749,Practice,Both,1,Automatic,main,16,20251120-112212,local,local,300,S,H,A,A,A-S.png,A-H.png,sS,hH,mask-3.png,mask-4.png,s,1,0.7652611999947112,s,0,0.09433949997765012,0.048858299996936694,0.0513241000007838,0.09836520001408644,0.10173100000247359,0.298305900010746
RSVPLG03,km,20251120-112233,1.0.2,20251113-095759,749,Practice,Both,1,Automatic,main,1,20251120-112251,global,global,300,H,S,E,A,H-E.png,S-A.png,hH,sS,mask-3.png,mask-3.png,h,1,0.9418942999909632,s,1,1.005849599983776,0.03925020000315271,0.05017719999887049,0.09028450000914745,0.09992559999227524,0.2902081999927759
RSVPLG03,km,20251120-112233,1.0.2,20251113-095759,749,Practice,Both,1,Automatic,main,2,20251120-112255,global,global,750,H,S,A,E,H-A.png,S-E.png,hH,sS,mask-4.png,mask-3.png,s,0,1.0582712000177708,h,0,1.1542689999914728,0.048745699983555824,0.05076459998963401,0.0985332999844104,0.09959639998851344,0.7492283000028692
RSVPLG03,km,20251120-112233,1.0.2,20251113-095759,749,Practice,Both,1,Automatic,main,3,20251120-112300,global,local,300,S,S,A,A,S-A.png,A-S.png,sS,sS,mask-1.png,mask-4.png,h,0,0.9360777999972925,s,1,1.0160711999924388,0.051422999997157604,0.0490836999961175,0.10137329998542555,0.09961000000475906,0.30243359997984953
RSVPLG03,km,20251120-112233,1.0.2,20251113-095759,749,Practice,Both,1,Automatic,main,4,20251120-112305,local,global,750,H,H,A,A,A-H.png,H-A.png,hH,hH,mask-3.png,mask-3.png,s,0,0.47304569999687374,h,1,0.5846972000144888,0.04973759999847971,0.04976090000127442,0.09959019999951124,0.10053950001019984,0.7489889999851584
RSVPLG03,km,20251120-112233,1.0.2,20251113-095759,749,Practice,Both,1,Automatic,main,5,20251120-112310,local,local,750,H,S,E,E,E-H.png,E-S.png,hH,sS,mask-1.png,mask-2.png,h,1,0.7774182999855839,s,1,0.8736496999918018,0.04856379999546334,0.048898200009716675,0.10023789998376742,0.09988769999472424,0.7511032999900635
RSVPLG03,km,20251120-112233,1.0.2,20251113-095759,749,Practice,Both,1,Automatic,main,6,20251120-112315,global,global,300,S,S,A,A,S-A.png,S-A.png,sS,sS,mask-3.png,mask-3.png,s,1,0.5256736000010278,h,0,0.6379688000015449,0.04983420000644401,0.050610800011781976,0.099456600000849,0.1004045000008773,0.29863529998692684
RSVPLG03,km,20251120-112233,1.0.2,20251113-095759,749,Practice,Both,1,Automatic,main,7,20251120-112319,local,local,300,H,S,A,A,A-H.png,A-S.png,hH,sS,mask-4.png,mask-2.png,h,1,0.6344126999902073,s,1,0.589260499982629,0.050216599978739396,0.05038739999872632,0.10008389997528866,0.09982150001451373,0.3000713999790605
RSVPLG03,km,20251120-112233,1.0.2,20251113-095759,749,Practice,Both,1,Automatic,main,8,20251120-112324,global,local,300,S,S,A,A,S-A.png,A-S.png,sS,sS,mask-2.png,mask-3.png,s,1,1.456730800011428,h,0,0.7193382999976166,0.04871949998778291,0.0491526999976486,0.09826430000248365,0.09854769997764379,0.3000672000052873
RSVPLG03,km,20251120-112233,1.0.2,20251113-095759,749,Practice,Both,1,Automatic,main,9,20251120-112330,local,local,300,H,S,E,A,E-H.png,A-S.png,hH,sS,mask-4.png,mask-3.png,s,0,0.4625379999924917,h,0,0.015529399999650195,0.05057870000018738,0.05055280000669882,0.10083310000482015,0.10023089998867363,0.3000831000099424
RSVPLG03,km,20251120-112233,1.0.2,20251113-095759,749,Practice,Both,1,Automatic,main,10,20251120-112334,local,global,750,S,S,A,E,A-S.png,S-E.png,sS,sS,mask-4.png,mask-3.png,s,1,0.6545575000054669,h,0,0.36378179999883287,0.049732199986465275,0.05046060000313446,0.1006414000003133,0.10002230000100099,0.750155799993081
RSVPLG03,km,20251120-112233,1.0.2,20251113-095759,749,Practice,Both,1,Automatic,main,11,20251120-112339,local,global,300,H,H,E,A,E-H.png,H-A.png,hH,hH,mask-4.png,mask-4.png,s,0,0.8218903999950271,h,1,0.20672970000305213,0.049696600006427616,0.049741299997549504,0.10064009999041446,0.09994149999693036,0.3005182000051718
RSVPLG03,km,20251120-112233,1.0.2,20251113-095759,749,Practice,Both,1,Automatic,main,12,20251120-112344,local,global,300,H,H,A,E,A-H.png,H-E.png,hH,hH,mask-2.png,mask-1.png,h,1,0.39455850000376813,h,1,1.2911797999986447,0.04973149998113513,0.049558900005649775,0.09943159998510964,0.09824940000544302,0.3014756999909878
RSVPLG03,km,20251120-112233,1.0.2,20251113-095759,749,Practice,Both,1,Automatic,main,13,20251120-112349,global,local,750,S,S,A,A,S-A.png,A-S.png,sS,sS,mask-1.png,mask-3.png,h,0,0.9753048999991734,s,1,0.013576800003647804,0.04944599998998456,0.05141020001610741,0.09902140000485815,0.10052550002001226,0.7496108999766875
RSVPLG03,km,20251120-112233,1.0.2,20251113-095759,749,Practice,Both,1,Automatic,main,14,20251120-112354,global,global,750,S,H,E,E,S-E.png,H-E.png,sS,hH,mask-3.png,mask-3.png,h,0,0.7179055000015069,s,0,0.8460293000098318,0.05113030000939034,0.04970390000380576,0.10144299999228679,0.09987929998897016,0.7519973000162281
RSVPLG03,km,20251120-112233,1.0.2,20251113-095759,749,Practice,Both,1,Automatic,main,15,20251120-112359,local,local,750,H,S,A,A,A-H.png,A-S.png,hH,sS,mask-4.png,mask-4.png,h,1,0.5641389000229537,s,1,0.31915170000866055,0.05060909999883734,0.0489788000122644,0.10068780000437982,0.09841690000030212,0.7504246000025887
RSVPLG03,km,20251120-112233,1.0.2,20251113-095759,749,Practice,Both,1,Automatic,main,16,20251120-112404,global,local,750,H,H,E,A,H-E.png,A-H.png,hH,hH,mask-3.png,mask-4.png,h,1,0.6036611000017729,h,1,0.18811650000861846,0.049181000009411946,0.049395800015190616,0.1004024000139907,0.10100910000619479,0.7497775999945588
RSVPLG03,km,20251120-112501,1.0.2,20251113-095759,749,Experiment,Both,1,Automatic,warmup,1,20251120-112524,local,global,300,S,S,E,A,E-S.png,S-A.png,sS,sS,mask-2.png,mask-2.png,s,1,0.8812199999811128,h,0,0.31897039999603294,0.04395310001564212,0.049448000005213544,0.09403890001703985,0.10102170001482591,0.2936254999949597
RSVPLG03,km,20251120-112501,1.0.2,20251113-095759,749,Experiment,Both,1,Automatic,warmup,2,20251120-112529,local,global,750,S,H,E,A,E-S.png,H-A.png,sS,hH,mask-3.png,mask-4.png,s,1,0.684410999994725,s,0,0.0792420000070706,0.05053490001591854,0.05084989999886602,0.1003752000106033,0.10010350000811741,0.7491762000136077
RSVPLG03,km,20251120-112501,1.0.2,20251113-095759,749,Experiment,Both,1,Automatic,warmup,3,20251120-112534,local,local,750,H,S,A,A,A-H.png,A-S.png,hH,sS,mask-1.png,mask-1.png,h,1,0.5054280000040308,s,1,0.22138010000344366,0.05076880002161488,0.049759000015910715,0.09996449999744073,0.09961960001965053,0.7507382000039797
RSVPLG03,km,20251120-112501,1.0.2,20251113-095759,749,Experiment,Both,1,Automatic,warmup,4,20251120-112539,global,local,300,H,S,A,A,H-A.png,A-S.png,hH,sS,mask-4.png,mask-1.png,h,1,0.7017904999956954,s,1,1.1010953999939375,0.050984200002858415,0.05041019999771379,0.1010690999974031,0.09832320001441985,0.3007247999776155
RSVPLG03,km,20251120-112501,1.0.2,20251113-095759,749,Experiment,Both,1,Automatic,main,5,20251120-112545,local,global,300,S,H,A,E,A-S.png,H-E.png,sS,hH,mask-4.png,mask-2.png,s,1,0.5043935000139754,h,1,0.33697650002432056,0.049834700010251254,0.049398899980587885,0.09969560001627542,0.09986519999802113,0.29944670002441853
RSVPLG03,km,20251120-112501,1.0.2,20251113-095759,749,Experiment,Both,1,Automatic,main,6,20251120-112549,local,global,750,H,S,A,E,A-H.png,S-E.png,hH,sS,mask-1.png,mask-4.png,h,1,0.559526700002607,s,1,0.189418800000567,0.05073749998700805,0.048221500008367,0.09963439998682588,0.09780960000352934,0.7500630999857094
RSVPLG03,km,20251120-112501,1.0.2,20251113-095759,749,Experiment,Both,1,Automatic,main,7,20251120-112554,local,global,750,H,S,A,A,A-H.png,S-A.png,hH,sS,mask-4.png,mask-4.png,h,1,0.8626312999986112,s,1,0.36732310001389123,0.04970629999297671,0.04886049998458475,0.09968810001737438,0.09788270000717603,0.749098900007084
RSVPLG03,km,20251120-112501,1.0.2,20251113-095759,749,Experiment,Both,1,Automatic,main,8,20251120-112559,global,global,300,H,S,A,E,H-A.png,S-E.png,hH,sS,mask-1.png,mask-1.png,h,1,0.6791757000028156,s,1,0.30355250000138767,0.04980459998478182,0.05033279999042861,0.0999143999943044,0.1011714999913238,0.29840850000618957
RSVPLG03,km,20251120-112501,1.0.2,20251113-095759,749,Experiment,Both,1,Automatic,main,9,20251120-112604,local,local,750,H,S,A,A,A-H.png,A-S.png,hH,sS,mask-2.png,mask-3.png,h,1,1.026759000000311,s,1,0.04737859999295324,0.05157520002103411,0.049816099985037,0.10035459999926388,0.10069709998788312,0.749650500016287
RSVPLG03,km,20251120-112501,1.0.2,20251113-095759,749,Experiment,Both,1,Automatic,main,10,20251120-112609,local,global,300,H,S,A,A,A-H.png,S-A.png,hH,sS,mask-1.png,mask-1.png,h,1,0.6350876000069547,h,0,0.142857400001958,0.05035199999110773,0.04949760000454262,0.10088919999543577,0.09971159999258816,0.30096120000234805
RSVPLG03,km,20251120-112501,1.0.2,20251113-095759,749,Experiment,Both,1,Automatic,main,11,20251120-112614,global,global,750,H,S,E,E,H-E.png,S-E.png,hH,sS,mask-2.png,mask-1.png,h,1,0.4940122000116389,s,1,0.3334305000025779,0.04967569999280386,0.049290599999949336,0.10038910000002943,0.09942149999551475,0.7485521000053268
RSVPLG03,km,20251120-112501,1.0.2,20251113-095759,749,Experiment,Both,1,Automatic,main,12,20251120-112619,global,local,300,S,H,A,A,S-A.png,A-H.png,sS,hH,mask-1.png,mask-2.png,s,1,0.5702894999994896,h,1,0.2386607999796979,0.04573560002609156,0.050030099984724075,0.09663440001895651,0.0999463000043761,0.296254900022177
RSVPLG03,km,20251120-112501,1.0.2,20251113-095759,749,Experiment,Both,1,Automatic,main,13,20251120-112623,global,local,300,H,H,E,E,H-E.png,E-H.png,hH,hH,mask-1.png,mask-2.png,h,1,0.38596049998886883,s,0,0.2993570000107866,0.049772300000768155,0.051388499996392056,0.09804110002005473,0.09999919999972917,0.2976390000258107
RSVPLG03,km,20251120-112501,1.0.2,20251113-095759,749,Experiment,Both,1,Automatic,main,14,20251120-112628,global,global,750,H,S,A,E,H-A.png,S-E.png,hH,sS,mask-2.png,mask-3.png,h,1,0.4766431000025477,h,0,0.25535880000097677,0.04958799999440089,0.050424100016243756,0.09927909998805262,0.1009304000181146,0.7484206999943126
RSVPLG03,km,20251120-112501,1.0.2,20251113-095759,749,Experiment,Both,1,Automatic,main,15,20251120-112633,local,global,750,H,H,A,A,A-H.png,H-A.png,hH,hH,mask-4.png,mask-3.png,h,1,0.7045921999961138,h,1,0.19109830001252703,0.05022229999303818,0.04929589998209849,0.10065920001943596,0.09966639999765903,0.7507864000217523
RSVPLG03,km,20251120-112501,1.0.2,20251113-095759,749,Experiment,Both,1,Automatic,main,16,20251120-112638,global,global,300,S,S,E,E,S-E.png,S-E.png,sS,sS,mask-4.png,mask-1.png,s,1,0.5057635999983177,s,1,0.41358399999444373,0.049719000002369285,0.05080290001933463,0.09832089999690652,0.10071980001521297,0.29805929999565706
RSVPLG03,km,20251120-112501,1.0.2,20251113-095759,749,Experiment,Both,1,Automatic,main,17,20251120-112642,global,global,750,S,S,A,A,S-A.png,S-A.png,sS,sS,mask-4.png,mask-3.png,s,1,0.5564519999898039,s,1,0.30314430000726134,0.04990910002379678,0.049634700000751764,0.09995030000573024,0.10043059999588877,0.7478523000027053
RSVPLG03,km,20251120-112501,1.0.2,20251113-095759,749,Experiment,Both,1,Automatic,main,18,20251120-112647,local,local,300,S,H,A,A,A-S.png,A-H.png,sS,hH,mask-1.png,mask-3.png,s,1,0.6013479999965057,h,1,0.43009980002534576,0.05095120001351461,0.049719100003130734,0.10082449999754317,0.10058369999751449,0.2994814999983646
RSVPLG03,km,20251120-112501,1.0.2,20251113-095759,749,Experiment,Both,1,Automatic,main,19,20251120-112652,global,local,300,S,H,E,A,S-E.png,A-H.png,sS,hH,mask-3.png,mask-2.png,h,0,0.3825162000139244,s,0,0.07711209999979474,0.04880670001148246,0.049461300019174814,0.10029820000636391,0.101163200015435,0.2986718000029214
RSVPLG03,km,20251120-112501,1.0.2,20251113-095759,749,Experiment,Both,1,Automatic,main,20,20251120-112656,global,global,750,S,H,E,A,S-E.png,H-A.png,sS,hH,mask-2.png,mask-1.png,s,1,0.507121400005417,s,0,0.22060500000952743,0.05013789999065921,0.049695199995767325,0.10043639998184517,0.09898199999588542,0.7502854999911506
RSVPLG03,km,20251120-112501,1.0.2,20251113-095759,749,Experiment,Both,1,Automatic,main,21,20251120-112701,global,local,750,S,S,E,E,S-E.png,E-S.png,sS,sS,mask-4.png,mask-2.png,s,1,0.5142054000170901,s,1,0.14157690000138246,0.049548500013770536,0.049363199999788776,0.09946739999577403,0.1002528999815695,0.7473183000111021
RSVPLG03,km,20251120-112501,1.0.2,20251113-095759,749,Experiment,Both,1,Automatic,main,22,20251120-112706,global,global,300,S,S,E,A,S-E.png,S-A.png,sS,sS,mask-3.png,mask-2.png,h,0,0.41444250001222827,s,1,0.2855561999895144,0.050726199988275766,0.049751699989428744,0.10053189998143353,0.09954579998156987,0.3006775999965612
RSVPLG03,km,20251120-112501,1.0.2,20251113-095759,749,Experiment,Both,1,Automatic,main,23,20251120-112711,local,global,750,H,S,A,A,A-H.png,S-A.png,hH,sS,mask-1.png,mask-2.png,h,1,0.5060026000137441,h,0,0.3490153000166174,0.04885260001174174,0.04888749998644926,0.09963300000526942,0.0989316999912262,0.749920900008874
RSVPLG03,km,20251120-112501,1.0.2,20251113-095759,749,Experiment,Both,1,Automatic,main,24,20251120-112716,global,local,300,H,H,A,E,H-A.png,E-H.png,hH,hH,mask-4.png,mask-3.png,s,0,0.8680065000080504,h,1,0.0955219000170473,0.04985740000847727,0.04887210001470521,0.09987229999387637,0.09889030002523214,0.3007373999862466
RSVPLG03,km,20251120-112501,1.0.2,20251113-095759,749,Experiment,Both,1,Automatic,main,25,20251120-112720,global,global,750,H,H,A,E,H-A.png,H-E.png,hH,hH,mask-3.png,mask-2.png,h,1,0.496347300009802,s,0,0.22259150000172667,0.05138170000282116,0.049341300007654354,0.10132469999371096,0.09922780000488274,0.7505610999942292
RSVPLG03,km,20251120-112501,1.0.2,20251113-095759,749,Experiment,Both,1,Automatic,main,26,20251120-112850,global,global,750,H,S,E,E,H-E.png,S-E.png,hH,sS,mask-4.png,mask-2.png,h,1,0.7587919000070542,s,1,0.8390060000238009,0.05064430000493303,0.049839200015412644,0.10090069999569096,0.09952620000694878,0.7506639999919571
RSVPLG03,km,20251120-112501,1.0.2,20251113-095759,749,Experiment,Both,1,Automatic,main,27,20251120-112854,local,global,750,S,S,E,E,E-S.png,S-E.png,sS,sS,mask-1.png,mask-2.png,s,1,0.4943249000061769,s,1,0.9595498999988195,0.05051790000288747,0.04947100000572391,0.09894940000958741,0.09942189999856055,0.7501324999902863
RSVPLG03,km,20251120-112501,1.0.2,20251113-095759,749,Experiment,Both,1,Automatic,main,28,20251120-112900,global,global,750,S,S,E,E,S-E.png,S-E.png,sS,sS,mask-3.png,mask-4.png,s,1,0.38505810001515783,h,0,0.29059640000923537,0.049101099983090535,0.05079129998921417,0.09993840000242926,0.09960899999714456,0.7488836999982595
RSVPLG03,km,20251120-112501,1.0.2,20251113-095759,749,Experiment,Both,1,Automatic,main,29,20251120-112905,local,global,750,H,H,A,E,A-H.png,H-E.png,hH,hH,mask-2.png,mask-3.png,h,1,0.5045982000010554,h,1,0.22276479998254217,0.05037019998417236,0.04927250000764616,0.10155319998739287,0.09826199998497032,0.7522544999956153
RSVPLG03,km,20251120-112501,1.0.2,20251113-095759,749,Experiment,Both,1,Automatic,main,30,20251120-112910,global,local,300,S,H,E,A,S-E.png,A-H.png,sS,hH,mask-1.png,mask-1.png,s,1,0.5096119999943767,h,1,0.6509305000072345,0.04873919999226928,0.04981140000745654,0.1006407999957446,0.09857709999778308,0.300258200004464
RSVPLG03,km,20251120-112501,1.0.2,20251113-095759,749,Experiment,Both,1,Automatic,main,31,20251120-112915,global,global,300,H,H,E,A,H-E.png,H-A.png,hH,hH,mask-3.png,mask-2.png,h,1,0.49795089999679476,h,1,0.3169340000022203,0.04974669998046011,0.049751599988667294,0.09884819999570027,0.10067970000091009,0.29948469999362715
RSVPLG03,km,20251120-112501,1.0.2,20251113-095759,749,Experiment,Both,1,Automatic,main,32,20251120-112919,local,global,300,H,S,A,A,A-H.png,S-A.png,hH,sS,mask-2.png,mask-4.png,h,1,0.6739991000213195,h,0,0.23801820000517182,0.04787629999918863,0.049468800018075854,0.09975850000046194,0.09937010001158342,0.29841139999916777
RSVPLG03,km,20251120-112501,1.0.2,20251113-095759,749,Experiment,Both,1,Automatic,main,33,20251120-112924,global,global,300,S,H,E,E,S-E.png,H-E.png,sS,hH,mask-2.png,mask-1.png,s,1,0.4956611000234261,h,1,0.11120189999928698,0.04803399997763336,0.05100560002028942,0.09842139997635968,0.10081480001099408,0.29914979997556657
RSVPLG03,km,20251120-112501,1.0.2,20251113-095759,749,Experiment,Both,1,Automatic,main,34,20251120-112928,global,global,300,S,H,E,E,S-E.png,H-E.png,sS,hH,mask-1.png,mask-3.png,s,1,0.4592547000211198,h,1,0.06352570001035929,0.04974019998917356,0.04936220002127811,0.0986650999984704,0.1000802000053227,0.29959739997866563
RSVPLG03,km,20251120-112501,1.0.2,20251113-095759,749,Experiment,Both,1,Automatic,main,35,20251120-112932,global,local,750,H,H,A,A,H-A.png,A-H.png,hH,hH,mask-2.png,mask-2.png,h,1,0.40816110000014305,h,1,0.14419620000990108,0.05011529999319464,0.04973459997563623,0.10138700000243261,0.100643299985677,0.7506083000043873
RSVPLG03,km,20251120-112501,1.0.2,20251113-095759,749,Experiment,Both,1,Automatic,main,36,20251120-112937,global,local,750,H,H,A,A,H-A.png,A-H.png,hH,hH,mask-4.png,mask-3.png,h,1,0.4195115999900736,h,1,0.1897793000098318,0.049723399977665395,0.048747199994977564,0.09998149998136796,0.09965369998826645,0.750543000001926
RSVPLG03,km,20251120-112501,1.0.2,20251113-095759,749,Experiment,Both,1,Automatic,main,37,20251120-112941,local,global,750,H,H,E,A,E-H.png,H-A.png,hH,hH,mask-1.png,mask-2.png,s,0,0.4476446000044234,h,1,0.0959595000022091,0.050514600006863475,0.04995080002117902,0.10043190000578761,0.09874770001624711,0.7487637999875005
RSVPLG03,km,20251120-112501,1.0.2,20251113-095759,749,Experiment,Both,1,Automatic,main,38,20251120-112946,local,local,300,H,S,A,E,A-H.png,E-S.png,hH,sS,mask-2.png,mask-2.png,h,1,0.5024126000062097,h,0,0.23900549998506904,0.04971769999247044,0.04971930000465363,0.0999110999982804,0.10051509999902919,0.2995669999800157
RSVPLG03,km,20251120-112501,1.0.2,20251113-095759,749,Experiment,Both,1,Automatic,main,39,20251120-112950,local,local,750,H,S,E,E,E-H.png,E-S.png,hH,sS,mask-4.png,mask-2.png,h,1,0.832326000003377,h,0,0.22364939999533817,0.0512958999897819,0.05094609997468069,0.10009220000938512,0.10068599999067374,0.7494479000160936
RSVPLG03,km,20251120-112501,1.0.2,20251113-095759,749,Experiment,Both,1,Automatic,main,40,20251120-112956,global,local,750,H,H,A,E,H-A.png,E-H.png,hH,hH,mask-2.png,mask-2.png,h,1,0.68634590000147,h,1,0.11247630001162179,0.04877389999455772,0.05095559998881072,0.09749489999376237,0.09977910001180135,0.7481240000051912
RSVPLG03,km,20251120-112501,1.0.2,20251113-095759,749,Experiment,Both,1,Automatic,main,41,20251120-113000,global,local,300,S,H,E,E,S-E.png,E-H.png,sS,hH,mask-2.png,mask-2.png,s,1,0.4014581000083126,h,1,0.11250359998666681,0.05090040000504814,0.04935670000850223,0.1009042999939993,0.09957370001939125,0.29963349999161437
RSVPLG03,km,20251120-112501,1.0.2,20251113-095759,749,Experiment,Both,1,Automatic,main,42,20251120-113005,local,local,300,H,H,E,A,E-H.png,A-H.png,hH,hH,mask-2.png,mask-2.png,s,0,0.5683125000214204,h,1,0.11033450000104494,0.049791700002970174,0.05082519998541102,0.09956030000466853,0.10077930000261404,0.29937490000156686
RSVPLG03,km,20251120-112501,1.0.2,20251113-095759,749,Experiment,Both,1,Automatic,main,43,20251120-113009,local,local,300,S,H,A,A,A-S.png,A-H.png,sS,hH,mask-3.png,mask-2.png,h,0,0.400395100004971,s,0,0.04718860000139102,0.04782909998903051,0.05008089999319054,0.09809189999941736,0.10026320000179112,0.298548299993854
RSVPLG03,km,20251120-112501,1.0.2,20251113-095759,749,Experiment,Both,1,Automatic,main,44,20251120-113013,global,global,300,H,H,A,A,H-A.png,H-A.png,hH,hH,mask-4.png,mask-1.png,h,1,0.43240820002392866,h,1,0.22427330000209622,0.050173700001323596,0.04987339998479001,0.10044890001881868,0.0995824999990873,0.2995975000085309
RSVPLG03,km,20251120-112501,1.0.2,20251113-095759,749,Experiment,Both,1,Automatic,main,45,20251120-113018,local,local,300,S,S,E,A,E-S.png,A-S.png,sS,sS,mask-2.png,mask-4.png,s,1,0.41254530000151135,h,0,0.09754389998852275,0.05004810000536963,0.050037499982863665,0.10058690002188087,0.10058490000665188,0.2999386000155937
RSVPLG03,km,20251120-112501,1.0.2,20251113-095759,749,Experiment,Both,1,Automatic,main,46,20251120-113022,local,global,750,H,S,A,E,A-H.png,S-E.png,hH,sS,mask-1.png,mask-1.png,h,1,0.495920000015758,h,0,0.2886211999866646,0.04855989999487065,0.048757300013676286,0.09983610000927001,0.09874720001243986,0.7492878999910317
RSVPLG03,km,20251120-112501,1.0.2,20251113-095759,749,Experiment,Both,1,Automatic,main,47,20251120-113027,global,global,750,H,S,E,A,H-E.png,S-A.png,hH,sS,mask-1.png,mask-1.png,h,1,0.38274420000379905,s,1,0.13188599998829886,0.04992560000391677,0.05014769997796975,0.09873649998917244,0.10059220000403002,0.7490763000096194
RSVPLG03,km,20251120-112501,1.0.2,20251113-095759,749,Experiment,Both,1,Automatic,main,48,20251120-113031,local,local,750,H,S,E,E,E-H.png,E-S.png,hH,sS,mask-4.png,mask-2.png,s,0,0.6556884000019636,h,0,0.04699959998833947,0.04862670000875369,0.05042179999873042,0.09846049998304807,0.10090029999264516,0.7470790999941528
RSVPLG03,km,20251120-112501,1.0.2,20251113-095759,749,Experiment,Both,1,Automatic,main,49,20251120-113036,global,local,750,S,H,A,A,S-A.png,A-H.png,sS,hH,mask-1.png,mask-4.png,s,1,0.015330900001572445,h,1,0.7665273000020534,0.050887899997178465,0.0488795000128448,0.10062469998956658,0.0999800999998115,0.750220799993258
RSVPLG03,km,20251120-112501,1.0.2,20251113-095759,749,Experiment,Both,1,Automatic,main,50,20251120-113041,local,local,300,S,H,A,A,A-S.png,A-H.png,sS,hH,mask-3.png,mask-2.png,s,1,0.4281794999842532,h,1,0.013905600004363805,0.05037420001463033,0.04959360000793822,0.09877290000440553,0.09886629998800345,0.29949830000987276
RSVPLG03,km,20251120-112501,1.0.2,20251113-095759,749,Experiment,Both,1,Automatic,main,51,20251120-113201,global,global,750,S,S,A,E,S-A.png,S-E.png,sS,sS,mask-1.png,mask-3.png,s,1,0.426472899998771,h,0,0.01602490001823753,0.04901930000050925,0.04977459998917766,0.10109739998006262,0.10073559999000281,0.7490758000058122
RSVPLG03,km,20251120-112501,1.0.2,20251113-095759,749,Experiment,Both,1,Automatic,main,52,20251120-113205,global,local,300,S,H,A,A,S-A.png,A-H.png,sS,hH,mask-1.png,mask-1.png,s,1,0.35228469999856316,h,1,0.030132200015941635,0.04944860000978224,0.049240399996051565,0.09845190000487491,0.10001610001199879,0.2985874000005424
RSVPLG03,km,20251120-112501,1.0.2,20251113-095759,749,Experiment,Both,1,Automatic,main,53,20251120-113209,local,local,750,H,S,E,E,E-H.png,E-S.png,hH,sS,mask-1.png,mask-1.png,h,1,0.9531027000048198,s,1,0.2057922000240069,0.049338299984810874,0.051191900012781844,0.10145819999161176,0.10031410001101904,0.749119599990081
RSVPLG03,km,20251120-112501,1.0.2,20251113-095759,749,Experiment,Both,1,Automatic,main,54,20251120-113215,local,global,750,S,H,E,A,E-S.png,H-A.png,sS,hH,mask-3.png,mask-4.png,h,0,0.5213194999960251,s,0,0.000665100000333041,0.05137709999689832,0.049055300012696534,0.10171190000255592,0.10180640002363361,0.7495897999906447
RSVPLG03,km,20251120-112501,1.0.2,20251113-095759,749,Experiment,Both,1,Automatic,main,55,20251120-113220,local,local,300,H,H,E,E,E-H.png,E-H.png,hH,hH,mask-4.png,mask-3.png,h,1,0.44039649999467656,s,0,0.11313929999596439,0.04883369998424314,0.04956690000835806,0.0984974000020884,0.09995940001681447,0.2984816999814939
RSVPLG03,km,20251120-112501,1.0.2,20251113-095759,749,Experiment,Both,1,Automatic,main,56,20251120-113224,local,local,750,S,S,E,A,E-S.png,A-S.png,sS,sS,mask-4.png,mask-1.png,s,1,0.4922990000050049,h,0,0.1283705999958329,0.04979230000753887,0.05012020000140183,0.10086540001793765,0.09987670002738014,0.749131499993382
RSVPLG03,km,20251120-112501,1.0.2,20251113-095759,749,Experiment,Both,1,Automatic,main,57,20251120-113229,global,global,750,S,H,E,E,S-E.png,H-E.png,sS,hH,mask-1.png,mask-1.png,s,1,1.1662835000024643,h,1,0.3681331999832764,0.048954600002616644,0.04949350000242703,0.09842310001840815,0.10021340000093915,0.747928700002376
RSVPLG03,km,20251120-112501,1.0.2,20251113-095759,749,Experiment,Both,1,Automatic,main,58,20251120-113234,local,local,750,S,S,A,A,A-S.png,A-S.png,sS,sS,mask-1.png,mask-1.png,h,0,0.838508599990746,s,1,0.9025915999955032,0.049897999997483566,0.05109860000084154,0.09923290001461282,0.09987090001231991,0.7485782000003383
RSVPLG03,km,20251120-112501,1.0.2,20251113-095759,749,Experiment,Both,1,Automatic,main,59,20251120-113239,global,global,300,H,H,A,E,H-A.png,H-E.png,hH,hH,mask-1.png,mask-2.png,h,1,0.5312168000091333,h,1,0.2075706000032369,0.048505399987334386,0.04906819999450818,0.09889140000450425,0.09831149998353794,0.2994870000111405
RSVPLG03,km,20251120-112501,1.0.2,20251113-095759,749,Experiment,Both,1,Automatic,main,60,20251120-113243,local,global,300,S,H,A,E,A-S.png,H-E.png,sS,hH,mask-3.png,mask-1.png,s,1,0.8115540999860968,h,1,0.0647434999991674,0.049417999980505556,0.04940079999505542,0.09880409998004325,0.09926320001250133,0.29986939998343587
RSVPLG03,km,20251120-112501,1.0.2,20251113-095759,749,Experiment,Both,1,Automatic,main,61,20251120-113248,local,global,300,H,S,E,E,E-H.png,S-E.png,hH,sS,mask-1.png,mask-2.png,h,1,0.4095824000251014,s,1,0.0316781000001356,0.04873710000538267,0.048326500022085384,0.10017029999289662,0.0998847000009846,0.2995482999831438
RSVPLG03,km,20251120-112501,1.0.2,20251113-095759,749,Experiment,Both,1,Automatic,main,62,20251120-113252,global,local,750,S,S,E,E,S-E.png,E-S.png,sS,sS,mask-1.png,mask-1.png,s,1,0.4767870999930892,s,1,0.15949510000064038,0.04863659999682568,0.04956600000150502,0.09934459999203682,0.09831149998353794,0.7490448000025935
RSVPLG03,km,20251120-112501,1.0.2,20251113-095759,749,Experiment,Both,1,Automatic,main,63,20251120-113257,global,local,750,S,H,A,E,S-A.png,E-H.png,sS,hH,mask-1.png,mask-1.png,s,1,0.39821859999210574,h,1,0.09612790000392124,0.04943330000969581,0.04929350002203137,0.09843549999641255,0.10022310001659207,0.7487441999837756
RSVPLG03,km,20251120-112501,1.0.2,20251113-095759,749,Experiment,Both,1,Automatic,main,64,20251120-113301,local,local,750,S,S,E,E,E-S.png,E-S.png,sS,sS,mask-4.png,mask-4.png,s,1,0.5495116999954917,s,1,0.09749700000975281,0.049210600001970306,0.05102530002477579,0.10091639999882318,0.10147990001132712,0.7490458999818657
RSVPLG03,km,20251120-112501,1.0.2,20251113-095759,749,Experiment,Both,1,Automatic,main,65,20251120-113306,local,global,300,H,H,A,A,A-H.png,H-A.png,hH,hH,mask-1.png,mask-3.png,h,1,0.33849960000952706,h,1,0.19069330001366325,0.04974509999738075,0.048929299984592944,0.09967029999825172,0.09841949999099597,0.29989320001914166
RSVPLG03,km,20251120-112501,1.0.2,20251113-095759,749,Experiment,Both,1,Automatic,main,66,20251120-113310,local,local,300,H,H,E,A,E-H.png,A-H.png,hH,hH,mask-4.png,mask-3.png,h,1,0.3250891999923624,h,1,0.1436558999994304,0.049699499999405816,0.04920090001542121,0.09957140000187792,0.1003960000234656,0.2997185999993235
RSVPLG03,km,20251120-112501,1.0.2,20251113-095759,749,Experiment,Both,1,Automatic,main,67,20251120-113314,local,local,750,H,S,E,A,E-H.png,A-S.png,hH,sS,mask-1.png,mask-1.png,h,1,0.39407260000007227,h,0,0.111522099992726,0.048745400010375306,0.05002970001078211,0.09965429999283515,0.10015159999602474,0.747633399994811
RSVPLG03,km,20251120-112501,1.0.2,20251113-095759,749,Experiment,Both,1,Automatic,main,68,20251120-113319,global,local,750,S,H,A,E,S-A.png,E-H.png,sS,hH,mask-1.png,mask-1.png,s,1,0.42920610000146553,s,0,0.1436381999810692,0.050591800012625754,0.049754299980122596,0.10137509999913163,0.09888609999325126,0.7498757000139449
RSVPLG03,km,20251120-112501,1.0.2,20251113-095759,749,Experiment,Both,1,Automatic,main,69,20251120-113324,local,global,300,H,S,A,E,A-H.png,S-E.png,hH,sS,mask-2.png,mask-2.png,h,1,0.575029400002677,s,1,0.0644449999963399,0.048575300024822354,0.049069900007452816,0.09880230002454482,0.10025230000610463,0.29968570001074113
RSVPLG03,km,20251120-112501,1.0.2,20251113-095759,749,Experiment,Both,1,Automatic,main,70,20251120-113328,local,local,750,S,S,A,A,A-S.png,A-S.png,sS,sS,mask-1.png,mask-2.png,s,1,0.6536710000073072,h,0,0.04797000001417473,0.051394600013736635,0.048552699998253956,0.09985729999607429,0.09891780000180006,0.7504877999890596
RSVPLG03,km,20251120-112501,1.0.2,20251113-095759,749,Experiment,Both,1,Automatic,main,71,20251120-113333,local,global,750,H,S,A,A,A-H.png,S-A.png,hH,sS,mask-4.png,mask-4.png,h,1,0.34541699997498654,s,1,0.06466450000880286,0.05084770001121797,0.050668599986238405,0.09948259999509901,0.0998519999848213,0.7492280000005849
RSVPLG03,km,20251120-112501,1.0.2,20251113-095759,749,Experiment,Both,1,Automatic,main,72,20251120-113337,global,local,750,H,H,A,A,H-A.png,A-H.png,hH,hH,mask-1.png,mask-1.png,h,1,0.33804120001150295,h,1,0.12672199998633005,0.04967039998155087,0.04915859998436645,0.09890029998496175,0.09786519999033771,0.749410699994769
RSVPLG03,km,20251120-112501,1.0.2,20251113-095759,749,Experiment,Both,1,Automatic,main,73,20251120-113342,global,global,300,S,S,E,E,S-E.png,S-E.png,sS,sS,mask-3.png,mask-1.png,s,1,0.9636072999855969,s,1,0.0796766999992542,0.05024909999337979,0.05119279999053106,0.09947640000609681,0.0993690999748651,0.2993925000191666
RSVPLG03,km,20251120-112501,1.0.2,20251113-095759,749,Experiment,Both,1,Automatic,main,74,20251120-113346,global,local,750,H,H,A,A,H-A.png,A-H.png,hH,hH,mask-1.png,mask-4.png,h,1,0.3749956999963615,s,0,0.4952167999872472,0.04952599998796359,0.048714600008679554,0.09871819999534637,0.09784159998525865,0.749448399990797
RSVPLG03,km,20251120-112501,1.0.2,20251113-095759,749,Experiment,Both,1,Automatic,main,75,20251120-113351,global,global,300,S,H,A,E,S-A.png,H-E.png,sS,hH,mask-2.png,mask-1.png,h,0,0.6724829000013415,s,0,0.09651709999889135,0.04821330000413582,0.04885859999922104,0.09828840001136996,0.09887529999832623,0.2990593999857083
RSVPLG03,km,20251120-112501,1.0.2,20251113-095759,749,Experiment,Both,1,Automatic,main,76,20251120-113358,local,local,750,S,H,E,A,E-S.png,A-H.png,sS,hH,mask-1.png,mask-3.png,s,1,0.272861900011776,h,1,0.03215949999867007,0.05082350000157021,0.04962390000582673,0.10024179998436011,0.10022000002209097,0.7487101999868173
RSVPLG03,km,20251120-112501,1.0.2,20251113-095759,749,Experiment,Both,1,Automatic,main,77,20251120-113402,local,local,750,S,H,A,E,A-S.png,E-H.png,sS,hH,mask-4.png,mask-1.png,s,1,0.3594777999969665,h,1,0.04679769999347627,0.04909420001786202,0.04980149999028072,0.09894180000992492,0.09832669998286292,0.7494829000206664
RSVPLG03,km,20251120-112501,1.0.2,20251113-095759,749,Experiment,Both,1,Automatic,main,78,20251120-113406,global,local,750,S,H,A,A,S-A.png,A-H.png,sS,hH,mask-3.png,mask-1.png,s,1,0.48567609998281114,s,0,0.09458710000035353,0.04803639999590814,0.04902919998858124,0.09923540000454523,0.09934449999127537,0.748933599999873
RSVPLG03,km,20251120-112501,1.0.2,20251113-095759,749,Experiment,Both,1,Automatic,main,79,20251120-113411,global,local,300,S,S,A,E,S-A.png,E-S.png,sS,sS,mask-4.png,mask-3.png,s,1,0.2832584000134375,s,1,0.08200679998844862,0.04931779997423291,0.047938099974999204,0.1004419999953825,0.09932339997612871,0.30054050000035204
RSVPLG03,km,20251120-112501,1.0.2,20251113-095759,749,Experiment,Both,1,Automatic,main,80,20251120-113415,local,local,300,H,H,A,A,A-H.png,A-H.png,hH,hH,mask-4.png,mask-1.png,s,0,0.5345323999936227,h,1,0.045799999992595986,0.049856900004670024,0.050792900001397356,0.09986779998871498,0.10038530000019819,0.30023199997958727
RSVPLG03,km,20251120-112501,1.0.2,20251113-095759,749,Experiment,Both,1,Automatic,main,81,20251120-113419,local,global,300,S,H,E,E,E-S.png,H-E.png,sS,hH,mask-3.png,mask-1.png,s,1,0.46793569999863394,h,1,0.1725319999968633,0.05045459998655133,0.04935179997119121,0.10001940000802279,0.09941409999737516,0.2996702000091318
RSVPLG03,km,20251120-112501,1.0.2,20251113-095759,749,Experiment,Both,1,Automatic,main,82,20251120-113424,global,local,300,H,S,A,A,H-A.png,A-S.png,hH,sS,mask-2.png,mask-1.png,h,1,0.3353670000215061,h,0,0.12687110001570545,0.04974629997741431,0.04950069999904372,0.0974768000014592,0.09972630001720972,0.298320399975637
RSVPLG03,km,20251120-112501,1.0.2,20251113-095759,749,Experiment,Both,1,Automatic,main,83,20251120-113428,local,local,300,H,H,A,A,A-H.png,A-H.png,hH,hH,mask-3.png,mask-2.png,s,0,0.2798674000077881,h,1,0.129473400011193,0.049443199997767806,0.04967059998307377,0.09972729999572039,0.10105189998284914,0.29891770001268014
RSVPLG03,km,20251120-112501,1.0.2,20251113-095759,749,Experiment,Both,1,Automatic,main,84,20251120-113432,local,local,300,S,H,A,A,A-S.png,A-H.png,sS,hH,mask-3.png,mask-2.png,h,0,0.7852077999850735,h,1,0.1436210999963805,0.04925020001246594,0.050040500005707145,0.09873450000304729,0.10029880001093261,0.29892309999559075
RSVPLG03,km,20251120-112501,1.0.2,20251113-095759,749,Experiment,Both,1,Automatic,main,85,20251120-113436,local,global,300,H,S,E,A,E-H.png,S-A.png,hH,sS,mask-2.png,mask-3.png,h,1,0.5303973999980371,s,1,0.06314400001429021,0.04841869999654591,0.050880399998277426,0.09925820000353269,0.10026569999172352,0.29899390001082793
RSVPLG03,km,20251120-112501,1.0.2,20251113-095759,749,Experiment,Both,1,Automatic,main,86,20251120-113441,global,local,300,H,S,A,E,H-A.png,E-S.png,hH,sS,mask-2.png,mask-3.png,h,1,0.5050730000075419,s,1,0.5852422000025399,0.05032000000937842,0.05180470002233051,0.10167699999874458,0.10106960000121035,0.2995807999977842
RSVPLG03,km,20251120-112501,1.0.2,20251113-095759,749,Experiment,Both,1,Automatic,main,87,20251120-113445,local,global,750,H,S,E,A,E-H.png,S-A.png,hH,sS,mask-1.png,mask-1.png,h,1,0.39752060000319034,s,1,0.07733050000388175,0.049680199997965246,0.04896310000913218,0.09998120000818744,0.09953169999062084,0.7498256000108086
RSVPLG03,km,20251120-112501,1.0.2,20251113-095759,749,Experiment,Both,1,Automatic,main,88,20251120-113450,global,local,300,S,S,E,A,S-E.png,A-S.png,sS,sS,mask-4.png,mask-2.png,h,0,0.7935269000008702,h,0,0.12886719999369234,0.04825319998781197,0.04941430001053959,0.09962850000010803,0.09953890001634136,0.29908629998681135
RSVPLG03,km,20251120-112501,1.0.2,20251113-095759,749,Experiment,Both,1,Automatic,main,89,20251120-113454,global,global,750,H,H,E,E,H-E.png,H-E.png,hH,hH,mask-4.png,mask-3.png,h,1,0.919495599984657,s,0,0.9831264000094961,0.04974909999873489,0.05059990001609549,0.09965540000121109,0.09968790001585148,0.7493056999810506
RSVPLG03,km,20251120-112501,1.0.2,20251113-095759,749,Experiment,Both,1,Automatic,main,90,20251120-113459,local,global,300,H,S,E,E,E-H.png,S-E.png,hH,sS,mask-4.png,mask-1.png,h,1,0.36997420000261627,s,1,0.06143060000613332,0.049994300003163517,0.049951400025747716,0.09887929999968037,0.09983030002331361,0.29821359997731633
RSVPLG03,km,20251120-112501,1.0.2,20251113-095759,749,Experiment,Both,1,Automatic,main,91,20251120-113503,global,global,750,H,S,A,A,H-A.png,S-A.png,hH,sS,mask-2.png,mask-3.png,h,1,0.33183500001905486,s,1,0.07782430000952445,0.04976719999103807,0.04968520000693388,0.09864690000540577,0.10083430001395755,0.7479878999874927
RSVPLG03,km,20251120-112501,1.0.2,20251113-095759,749,Experiment,Both,1,Automatic,main,92,20251120-113508,global,global,300,H,S,E,E,H-E.png,S-E.png,hH,sS,mask-2.png,mask-4.png,h,1,0.37449950000154786,h,0,0.17723709999700077,0.048646199982613325,0.04916150000644848,0.09896089998073876,0.09959630001685582,0.2995371999859344
RSVPLG03,km,20251120-112501,1.0.2,20251113-095759,749,Experiment,Both,1,Automatic,main,93,20251120-113512,local,global,300,H,S,A,E,A-H.png,S-E.png,hH,sS,mask-4.png,mask-3.png,h,1,0.26019949998590164,s,1,0.016860000003362074,0.04911329998867586,0.048616399988532066,0.09999950000201352,0.09811069999705069,0.3001776000019163
RSVPLG03,km,20251120-112501,1.0.2,20251113-095759,749,Experiment,Both,1,Automatic,main,94,20251120-113516,global,global,300,H,H,A,E,H-A.png,H-E.png,hH,hH,mask-1.png,mask-3.png,h,1,0.49142929998924956,h,1,0.22349709999980405,0.050647800002479926,0.04912129999138415,0.10084130000905134,0.09936230001039803,0.30056830000830814
RSVPLG03,km,20251120-112501,1.0.2,20251113-095759,749,Experiment,Both,1,Automatic,main,95,20251120-113520,global,local,300,S,H,A,A,S-A.png,A-H.png,sS,hH,mask-3.png,mask-4.png,s,1,0.5055366999877151,h,1,0.6221692000108305,0.04966439999407157,0.050505600025644526,0.10071349999634549,0.09962449999875389,0.299521899985848
RSVPLG03,km,20251120-112501,1.0.2,20251113-095759,749,Experiment,Both,1,Automatic,main,96,20251120-113525,local,local,750,H,H,A,E,A-H.png,E-H.png,hH,hH,mask-4.png,mask-3.png,h,1,0.3482864000252448,s,0,0.07923360000131652,0.04956889999448322,0.049047700013034046,0.10003939998568967,0.09924900002079085,0.7501431999844499
RSVPLG03,km,20251120-112501,1.0.2,20251113-095759,749,Experiment,Both,1,Automatic,main,97,20251120-113530,local,global,750,H,H,A,A,A-H.png,H-A.png,hH,hH,mask-2.png,mask-2.png,h,1,0.1210521999746561,h,1,0.46306040001218207,0.049649400025373325,0.04906589997699484,0.10044590002507903,0.09878579998621717,0.750052700022934
RSVPLG03,km,20251120-112501,1.0.2,20251113-095759,749,Experiment,Both,1,Automatic,main,98,20251120-113534,local,global,300,S,H,A,E,A-S.png,H-E.png,sS,hH,mask-2.png,mask-3.png,h,0,0.3470315999875311,s,0,0.06400579999899492,0.04860080001526512,0.050360599998384714,0.09989569999743253,0.10077000001911074,0.29875829999218695
RSVPLG03,km,20251120-112501,1.0.2,20251113-095759,749,Experiment,Both,1,Automatic,main,99,20251120-113538,global,local,750,H,H,A,A,H-A.png,A-H.png,hH,hH,mask-2.png,mask-4.png,h,1,0.21362210001097992,h,1,0.15918279998004436,0.049621299986029044,0.05091379999066703,0.10026469998410903,0.10117879998870194,0.7483986000006553
RSVPLG03,km,20251120-112501,1.0.2,20251113-095759,749,Experiment,Both,1,Automatic,main,100,20251120-113543,local,local,300,H,S,A,E,A-H.png,E-S.png,hH,sS,mask-3.png,mask-4.png,h,1,0.49764599997433834,s,1,0.12719389999983832,0.04889289999846369,0.050875899993116036,0.09816339999088086,0.10009590000845492,0.2978896999848075
RSVPLG03,km,20251120-113614,1.0.2,20251113-095759,749,Experiment,Both,1,Automatic,warmup,1,20251120-113645,local,global,750,S,H,E,A,E-S.png,H-A.png,sS,hH,mask-4.png,mask-4.png,s,1,0.1646871000120882,s,0,0.04751309999846853,0.045035799994366243,0.049275800003670156,0.09397210000315681,0.10008740000193939,0.7445516999869142
RSVPLG03,km,20251120-113614,1.0.2,20251113-095759,749,Experiment,Both,1,Automatic,warmup,2,20251120-113649,local,local,750,H,S,A,A,A-H.png,A-S.png,hH,sS,mask-1.png,mask-4.png,h,1,0.5468492000072729,h,0,0.17498199999681674,0.05016230000182986,0.05045420001260936,0.10165280001820065,0.09906390000833198,0.7506883000023663
RSVPLG03,km,20251120-113614,1.0.2,20251113-095759,749,Experiment,Both,1,Automatic,warmup,3,20251120-113654,local,local,300,H,H,E,A,E-H.png,A-H.png,hH,hH,mask-3.png,mask-2.png,h,1,0.27809700000216253,s,0,0.03154950001044199,0.04951099999016151,0.050144300010288134,0.09831160001340322,0.10059680000995286,0.2988354999979492
RSVPLG03,km,20251120-113614,1.0.2,20251113-095759,749,Experiment,Both,1,Automatic,warmup,4,20251120-113658,global,local,750,S,S,E,A,S-E.png,A-S.png,sS,sS,mask-2.png,mask-2.png,s,1,0.3415542999864556,h,0,0.030975200003013015,0.05088840000098571,0.049831599986646324,0.09973819999140687,0.10114419998717494,0.7488097000168636
RSVPLG03,km,20251120-113614,1.0.2,20251113-095759,749,Experiment,Both,1,Automatic,main,5,20251120-113702,global,global,750,H,H,A,E,H-A.png,H-E.png,hH,hH,mask-4.png,mask-4.png,s,0,0.2421858000161592,h,1,0.19184740001219325,0.05031210000743158,0.05023870000150055,0.10031660000095144,0.0995802000106778,0.7486859000055119
RSVPLG03,km,20251120-113614,1.0.2,20251113-095759,749,Experiment,Both,1,Automatic,main,6,20251120-113707,global,local,750,H,H,A,A,H-A.png,A-H.png,hH,hH,mask-1.png,mask-4.png,s,0,0.5495438999787439,s,0,2.2232727999798954,0.05077130001154728,0.050166300003184006,0.10190770000917837,0.09953159998985939,0.74983010001597
RSVPLG03,km,20251120-113614,1.0.2,20251113-095759,749,Experiment,Both,1,Automatic,main,7,20251120-113714,global,global,750,H,H,A,E,H-A.png,H-E.png,hH,hH,mask-1.png,mask-2.png,h,1,0.08150439997552894,h,1,0.09577919999719597,0.05085309999412857,0.050698500010184944,0.10058980001485907,0.10016050000558607,0.7494994000007864
RSVPLG03,km,20251120-113614,1.0.2,20251113-095759,749,Experiment,Both,1,Automatic,main,8,20251120-113718,local,global,300,S,H,E,E,E-S.png,H-E.png,sS,hH,mask-3.png,mask-1.png,s,1,0.4269000999920536,h,1,0.06562070001382381,0.05096839999896474,0.0504392999864649,0.10021979999146424,0.10004219997790642,0.299783499998739
RSVPLG03,km,20251120-113614,1.0.2,20251113-095759,749,Experiment,Both,1,Automatic,main,9,20251120-113722,local,global,300,H,H,E,A,E-H.png,H-A.png,hH,hH,mask-4.png,mask-4.png,s,0,0.3934564999944996,h,1,0.22579019999830052,0.0491123000101652,0.04984269998385571,0.09880300000077114,0.09953439998207614,0.298294000007445
RSVPLG03,km,20251120-113614,1.0.2,20251113-095759,749,Experiment,Both,1,Automatic,main,10,20251120-113727,global,local,750,H,H,A,E,H-A.png,E-H.png,hH,hH,mask-2.png,mask-3.png,h,1,0.46559849998448044,s,0,0.1271003000147175,0.05051410000305623,0.05065869999816641,0.10094920001574792,0.09987100001308136,0.7493542000011075
RSVPLG03,km,20251120-113614,1.0.2,20251113-095759,749,Experiment,Both,1,Automatic,main,11,20251120-113731,local,local,750,S,S,A,A,A-S.png,A-S.png,sS,sS,mask-4.png,mask-2.png,h,0,0.41307470001629554,s,1,0.03225109999766573,0.048764800012577325,0.05113460001302883,0.0984314999950584,0.10041569999884814,0.7477303000050597
RSVPLG03,km,20251120-113614,1.0.2,20251113-095759,749,Experiment,Both,1,Automatic,main,12,20251120-113736,local,local,750,S,S,A,A,A-S.png,A-S.png,sS,sS,mask-3.png,mask-4.png,s,1,0.35653210000600666,h,0,0.07835590001195669,0.050076099985744804,0.0504341000050772,0.0993261999974493,0.09926240000640973,0.7501961999805644
RSVPLG03,km,20251120-113614,1.0.2,20251113-095759,749,Experiment,Both,1,Automatic,main,13,20251120-113741,global,local,300,H,S,A,A,H-A.png,A-S.png,hH,sS,mask-1.png,mask-4.png,h,1,0.4926421999989543,s,1,0.16180110001005232,0.05072569998446852,0.05078489999868907,0.10096549999434501,0.10042230001999997,0.3002902999869548
RSVPLG03,km,20251120-113614,1.0.2,20251113-095759,749,Experiment,Both,1,Automatic,main,14,20251120-113745,global,global,300,H,S,A,A,H-A.png,S-A.png,hH,sS,mask-4.png,mask-2.png,h,1,0.36947069998132065,h,0,0.28813719999743626,0.049647899984847754,0.05030689999694005,0.09928619998390786,0.10030190000543371,0.29777679999824613
RSVPLG03,km,20251120-113614,1.0.2,20251113-095759,749,Experiment,Both,1,Automatic,main,15,20251120-113749,global,global,300,S,H,A,E,S-A.png,H-E.png,sS,hH,mask-3.png,mask-4.png,s,1,0.3654261000046972,h,1,0.1598748000105843,0.0499800999823492,0.049774999992223457,0.09956639999290928,0.09904410000308417,0.29998159999377094
RSVPLG03,km,20251120-113614,1.0.2,20251113-095759,749,Experiment,Both,1,Automatic,main,16,20251120-113753,local,local,300,S,S,A,E,A-S.png,E-S.png,sS,sS,mask-1.png,mask-3.png,h,0,0.41960729999118485,s,1,0.07908099997439422,0.05009149998659268,0.04894139998941682,0.10029949998715892,0.10005680000176653,0.3000612999894656
RSVPLG03,km,20251120-113614,1.0.2,20251113-095759,749,Experiment,Both,1,Automatic,main,17,20251120-113758,local,global,300,S,H,E,E,E-S.png,H-E.png,sS,hH,mask-2.png,mask-4.png,s,1,0.3731693999725394,h,1,0.22364260000176728,0.048426900000777096,0.049177999986568466,0.09962459999951534,0.09979050001129508,0.29952380000031553
RSVPLG03,km,20251120-113614,1.0.2,20251113-095759,749,Experiment,Both,1,Automatic,main,18,20251120-113802,global,global,300,H,S,A,E,H-A.png,S-E.png,hH,sS,mask-3.png,mask-1.png,s,0,0.31478519999654964,h,0,0.14362180000171065,0.04987980000441894,0.051325200009159744,0.10098690001177602,0.09901520001585595,0.30007940001087263
RSVPLG03,km,20251120-113614,1.0.2,20251113-095759,749,Experiment,Both,1,Automatic,main,19,20251120-113806,global,global,750,H,S,E,E,H-E.png,S-E.png,hH,sS,mask-2.png,mask-4.png,h,1,0.32758620000095107,s,1,0.16027320001740009,0.05032129999017343,0.04902199999196455,0.09966669999994338,0.099262199975783,0.748674000002211
RSVPLG03,km,20251120-113614,1.0.2,20251113-095759,749,Experiment,Both,1,Automatic,main,20,20251120-113811,global,local,300,H,S,A,E,H-A.png,E-S.png,hH,sS,mask-2.png,mask-2.png,h,1,0.4038957000011578,h,0,0.20862240000860766,0.05176030000438914,0.049751399987144396,0.10164450001320802,0.09966859998530708,0.30157120001967996
RSVPLG03,km,20251120-113614,1.0.2,20251113-095759,749,Experiment,Both,1,Automatic,main,21,20251120-113815,local,local,750,H,H,E,A,E-H.png,A-H.png,hH,hH,mask-1.png,mask-3.png,h,1,0.45537989999866113,s,0,0.27359740002430044,0.050185700005386025,0.049581200000829995,0.10164320000330918,0.10025260000838898,0.7512680999934673
RSVPLG03,km,20251120-113614,1.0.2,20251113-095759,749,Experiment,Both,1,Automatic,main,22,20251120-113820,global,global,300,S,S,E,E,S-E.png,S-E.png,sS,sS,mask-2.png,mask-1.png,s,1,0.3820125999918673,s,1,0.1753022999910172,0.04912460001651198,0.049167799996212125,0.10070480001741089,0.09878679999383166,0.3002250000135973
RSVPLG03,km,20251120-113614,1.0.2,20251113-095759,749,Experiment,Both,1,Automatic,main,23,20251120-113824,local,local,300,H,S,A,A,A-H.png,A-S.png,hH,sS,mask-2.png,mask-4.png,h,1,0.5534552999888547,s,1,0.12758029997348785,0.04999400000087917,0.04971379999187775,0.1010342999943532,0.10039710000273772,0.3004521999973804
RSVPLG03,km,20251120-113614,1.0.2,20251113-095759,749,Experiment,Both,1,Automatic,main,24,20251120-113829,global,local,300,H,S,E,A,H-E.png,A-S.png,hH,sS,mask-1.png,mask-2.png,h,1,0.3466393999988213,s,1,0.1277090999938082,0.05064069997752085,0.0498416000045836,0.0999522999918554,0.09895030001644045,0.3009547999827191
RSVPLG03,km,20251120-113614,1.0.2,20251113-095759,749,Experiment,Both,1,Automatic,main,25,20251120-113833,local,local,750,S,S,A,E,A-S.png,E-S.png,sS,sS,mask-4.png,mask-2.png,h,0,0.709539000003133,s,1,0.41667999999481253,0.05114329999196343,0.04893339998670854,0.09969770000316203,0.10014299998874776,0.7505816000048071
RSVPLG03,km,20251120-113614,1.0.2,20251113-095759,749,Experiment,Both,1,Automatic,main,26,20251120-114042,global,global,750,H,S,E,E,H-E.png,S-E.png,hH,sS,mask-3.png,mask-1.png,h,1,1.6442822999961209,h,0,0.11050539999268949,0.049722099996870384,0.05020759999752045,0.10000760000548325,0.10002179999719374,0.7481679999909829
RSVPLG03,km,20251120-113614,1.0.2,20251113-095759,749,Experiment,Both,1,Automatic,main,27,20251120-114048,local,local,300,S,S,A,A,A-S.png,A-S.png,sS,sS,mask-1.png,mask-4.png,h,0,0.32989189997897483,s,1,0.526757199986605,0.050041699985740706,0.04873860001680441,0.10146309999981895,0.10086609999416396,0.3001747999805957
RSVPLG03,km,20251120-113614,1.0.2,20251113-095759,749,Experiment,Both,1,Automatic,main,28,20251120-114053,global,local,750,H,H,A,E,H-A.png,E-H.png,hH,hH,mask-2.png,mask-3.png,h,1,2.8595448000123724,s,0,0.36830709999776445,0.048259600007440895,0.04977449998841621,0.09803239998291247,0.09961870001279749,0.7482597999915015
RSVPLG03,km,20251120-113614,1.0.2,20251113-095759,749,Experiment,Both,1,Automatic,main,29,20251120-114100,global,global,300,H,H,E,E,H-E.png,H-E.png,hH,hH,mask-3.png,mask-2.png,h,1,0.47920780000276864,h,1,0.19200009998166934,0.04908290001912974,0.04983519998495467,0.09774019999895245,0.09933830000227317,0.29935380001552403
RSVPLG03,km,20251120-113614,1.0.2,20251113-095759,749,Experiment,Both,1,Automatic,main,30,20251120-114105,local,local,300,H,S,E,A,E-H.png,A-S.png,hH,sS,mask-2.png,mask-2.png,h,1,0.3756658000056632,s,1,0.22220430002198555,0.05017770000267774,0.0495000000228174,0.09946800000034273,0.099142600025516,0.30058209999697283
RSVPLG03,km,20251120-113614,1.0.2,20251113-095759,749,Experiment,Both,1,Automatic,main,31,20251120-114109,global,global,750,S,S,A,E,S-A.png,S-E.png,sS,sS,mask-2.png,mask-4.png,s,1,0.43204630000400357,s,1,0.16269480000482872,0.05002769999555312,0.04933000000892207,0.10083159999339841,0.10027349999290891,0.7500797999964561
RSVPLG03,km,20251120-113614,1.0.2,20251113-095759,749,Experiment,Both,1,Automatic,main,32,20251120-114114,local,local,750,H,H,A,A,A-H.png,A-H.png,hH,hH,mask-1.png,mask-3.png,h,1,0.37732189998496324,h,1,0.20792549999896437,0.05026199997519143,0.04865429998608306,0.09864929999457672,0.09933409999939613,0.749564099998679
RSVPLG03,km,20251120-113614,1.0.2,20251113-095759,749,Experiment,Both,1,Automatic,main,33,20251120-114118,global,global,300,S,H,A,A,S-A.png,H-A.png,sS,hH,mask-2.png,mask-1.png,s,1,0.3547471000056248,h,1,0.22471119998954237,0.04862650000723079,0.05020160001004115,0.0985958999954164,0.10065850001410581,0.2991889999830164
RSVPLG03,km,20251120-113614,1.0.2,20251113-095759,749,Experiment,Both,1,Automatic,main,34,20251120-114123,local,global,300,S,H,E,A,E-S.png,H-A.png,sS,hH,mask-2.png,mask-1.png,s,1,0.3486504999746103,h,1,0.12798489999840967,0.05022929998813197,0.05054799999925308,0.099561699986225,0.09935280002537183,0.2988636999798473
RSVPLG03,km,20251120-113614,1.0.2,20251113-095759,749,Experiment,Both,1,Automatic,main,35,20251120-114127,global,local,750,S,S,E,E,S-E.png,E-S.png,sS,sS,mask-1.png,mask-2.png,h,0,0.46209159999853,s,1,0.11134750000201166,0.04889790000743233,0.049123400007374585,0.09846080001443624,0.10016810000524856,0.7493051000055857
RSVPLG03,km,20251120-113614,1.0.2,20251113-095759,749,Experiment,Both,1,Automatic,main,36,20251120-114132,global,global,750,H,S,A,A,H-A.png,S-A.png,hH,sS,mask-4.png,mask-2.png,h,1,0.44980269999359734,s,1,0.0795448999851942,0.049857999983942136,0.050231600005645305,0.09963690000586212,0.10065720000420697,0.7492048999993131
RSVPLG03,km,20251120-113614,1.0.2,20251113-095759,749,Experiment,Both,1,Automatic,main,37,20251120-114136,global,global,750,H,H,A,E,H-A.png,H-E.png,hH,hH,mask-2.png,mask-2.png,h,1,0.49188060002052225,h,1,0.3201680999773089,0.04988569999113679,0.050428600021405146,0.09951569998520426,0.10113880000426434,0.7495361999899615
RSVPLG03,km,20251120-113614,1.0.2,20251113-095759,749,Experiment,Both,1,Automatic,main,38,20251120-114141,local,global,300,S,S,A,A,A-S.png,S-A.png,sS,sS,mask-2.png,mask-3.png,h,0,0.39523779999581166,s,1,0.17563249997328967,0.049029799993149936,0.04981789999874309,0.09853479999583215,0.09999440002138726,0.29853949998505414
RSVPLG03,km,20251120-113614,1.0.2,20251113-095759,749,Experiment,Both,1,Automatic,main,39,20251120-114146,global,global,750,S,H,E,A,S-E.png,H-A.png,sS,hH,mask-4.png,mask-2.png,h,0,0.6694269000145141,h,1,0.8310103999974672,0.04881859998567961,0.050899699999717996,0.09971779998159036,0.10166379998554476,0.7476989999995567
RSVPLG03,km,20251120-113614,1.0.2,20251113-095759,749,Experiment,Both,1,Automatic,main,40,20251120-114151,local,global,750,S,H,E,A,E-S.png,H-A.png,sS,hH,mask-2.png,mask-2.png,h,0,0.4183410000114236,s,0,0.19215490002534352,0.05019710000487976,0.05011519999243319,0.10004049999406561,0.10027499997522682,0.750098100019386
RSVPLG03,km,20251120-113614,1.0.2,20251113-095759,749,Experiment,Both,1,Automatic,main,41,20251120-114156,global,local,300,S,H,E,E,S-E.png,E-H.png,sS,hH,mask-4.png,mask-4.png,h,0,0.3474800999974832,s,0,0.22508920001564547,0.048763400001917034,0.05028090000269003,0.09888400000636466,0.1011560000188183,0.29903019999619573
RSVPLG03,km,20251120-113614,1.0.2,20251113-095759,749,Experiment,Both,1,Automatic,main,42,20251120-114201,local,local,300,S,S,A,E,A-S.png,E-S.png,sS,sS,mask-1.png,mask-1.png,h,0,0.3282091000000946,s,1,0.2562511000141967,0.049569299997529015,0.050207499996759,0.0997808999964036,0.10006859997520223,0.29784270000527613
RSVPLG03,km,20251120-113614,1.0.2,20251113-095759,749,Experiment,Both,1,Automatic,main,43,20251120-114205,local,local,300,S,S,E,E,E-S.png,E-S.png,sS,sS,mask-3.png,mask-1.png,s,1,0.34982730000047013,h,0,0.11481079997611232,0.04906469999696128,0.04900499997893348,0.09937449998687953,0.10003999999025837,0.29956630000378937
RSVPLG03,km,20251120-113614,1.0.2,20251113-095759,749,Experiment,Both,1,Automatic,main,44,20251120-114209,global,local,750,S,S,A,E,S-A.png,E-S.png,sS,sS,mask-3.png,mask-3.png,s,1,0.3311776999908034,s,1,0.20968930001254193,0.050490699999500066,0.0496794999926351,0.0999032000254374,0.10080630000447854,0.7490950000064913
RSVPLG03,km,20251120-113614,1.0.2,20251113-095759,749,Experiment,Both,1,Automatic,main,45,20251120-114214,global,global,300,H,H,A,A,H-A.png,H-A.png,hH,hH,mask-3.png,mask-1.png,h,1,0.4213247000006959,h,1,0.22342339999158867,0.04923250002320856,0.049958999996306375,0.09876470000017434,0.0996918999881018,0.29886500001884997
RSVPLG03,km,20251120-113614,1.0.2,20251113-095759,749,Experiment,Both,1,Automatic,main,46,20251120-114218,local,local,300,S,H,E,A,E-S.png,A-H.png,sS,hH,mask-2.png,mask-3.png,s,1,0.39535709997289814,h,1,0.2084325999894645,0.04920400000992231,0.04960580001352355,0.10082469999906607,0.09847040000022389,0.3004752999986522
RSVPLG03,km,20251120-113614,1.0.2,20251113-095759,749,Experiment,Both,1,Automatic,main,47,20251120-114222,global,global,300,S,H,E,A,S-E.png,H-A.png,sS,hH,mask-2.png,mask-1.png,h,0,0.6646627000009175,s,0,0.25741669998387806,0.051021299994317815,0.05083540000487119,0.1009665000019595,0.10112020000815392,0.29962330000125803
RSVPLG03,km,20251120-113614,1.0.2,20251113-095759,749,Experiment,Both,1,Automatic,main,48,20251120-114227,local,global,300,H,S,E,E,E-H.png,S-E.png,hH,sS,mask-4.png,mask-3.png,h,1,0.4483272999932524,s,1,0.0474953000084497,0.04919830002472736,0.049173700012033805,0.09918440002365969,0.09958340000594035,0.29861019999952987
RSVPLG03,km,20251120-113614,1.0.2,20251113-095759,749,Experiment,Both,1,Automatic,main,49,20251120-114231,local,local,750,S,S,A,E,A-S.png,E-S.png,sS,sS,mask-4.png,mask-3.png,s,1,0.9102788000018336,s,1,0.09547780000139028,0.05088250001426786,0.04975720000220463,0.10059990000445396,0.09966159999021329,0.7501747000205796
RSVPLG03,km,20251120-113614,1.0.2,20251113-095759,749,Experiment,Both,1,Automatic,main,50,20251120-114236,local,global,300,S,H,A,A,A-S.png,H-A.png,sS,hH,mask-4.png,mask-1.png,s,1,0.38327039999421686,h,1,0.46309040000778623,0.05052600000635721,0.04955029999837279,0.10001250001369044,0.10006520000752062,0.30047930000000633
RSVPLG03,km,20251120-113614,1.0.2,20251113-095759,749,Experiment,Both,1,Automatic,main,51,20251120-114241,global,global,300,S,S,A,E,S-A.png,S-E.png,sS,sS,mask-1.png,mask-1.png,s,1,0.6514842000033241,s,1,0.0617086999991443,0.05057140000280924,0.04938780001248233,0.09921630000462756,0.09979320000275038,0.3001137000101153
RSVPLG03,km,20251120-113614,1.0.2,20251113-095759,749,Experiment,Both,1,Automatic,main,52,20251120-114246,global,global,750,H,S,A,E,H-A.png,S-E.png,hH,sS,mask-2.png,mask-1.png,h,1,0.4057972000155132,s,1,0.1273411999864038,0.05058979999739677,0.049030199996195734,0.10042209998937324,0.10021010000491515,0.7495376000006218
RSVPLG03,km,20251120-113614,1.0.2,20251113-095759,749,Experiment,Both,1,Automatic,main,53,20251120-114250,local,local,750,S,S,A,A,A-S.png,A-S.png,sS,sS,mask-4.png,mask-4.png,s,1,0.6735543999820948,s,1,0.09505579998949543,0.04975360000389628,0.04939469997771084,0.09881910000694916,0.10061129997484386,0.7490821000246797
RSVPLG03,km,20251120-113614,1.0.2,20251113-095759,749,Experiment,Both,1,Automatic,main,54,20251120-114255,global,local,750,S,H,A,A,S-A.png,A-H.png,sS,hH,mask-4.png,mask-4.png,s,1,0.3590706999821123,h,1,0.17768680001609027,0.04975340000237338,0.048332300008041784,0.09983160000410862,0.09826430000248365,0.7504558000073303
RSVPLG03,km,20251120-113614,1.0.2,20251113-095759,749,Experiment,Both,1,Automatic,main,55,20251120-114300,local,global,750,H,H,A,A,A-H.png,H-A.png,hH,hH,mask-1.png,mask-4.png,h,1,0.6149045999918599,h,1,0.1792686999833677,0.04913490000762977,0.04934480000520125,0.10037630001897924,0.10134850000031292,0.7490248999965843
RSVPLG03,km,20251120-113614,1.0.2,20251113-095759,749,Experiment,Both,1,Automatic,main,56,20251120-114305,global,local,300,S,H,E,A,S-E.png,A-H.png,sS,hH,mask-1.png,mask-1.png,s,1,0.4429756999888923,h,1,1.248663000005763,0.04972670000279322,0.04924409999512136,0.09958239999832585,0.09985490000690334,0.29952880000928417
RSVPLG03,km,20251120-113614,1.0.2,20251113-095759,749,Experiment,Both,1,Automatic,main,57,20251120-114310,local,global,750,H,H,A,E,A-H.png,H-E.png,hH,hH,mask-3.png,mask-1.png,h,1,0.384772499994142,h,1,0.2707689999951981,0.05016310000792146,0.04987790001905523,0.09936310001648962,0.09995340000023134,0.7494680999952834
RSVPLG03,km,20251120-113614,1.0.2,20251113-095759,749,Experiment,Both,1,Automatic,main,58,20251120-114315,local,local,750,H,H,E,A,E-H.png,A-H.png,hH,hH,mask-4.png,mask-3.png,h,1,0.47544439998455346,h,1,0.27245779999066144,0.049593000003369525,0.05009740000241436,0.09929270000429824,0.10131749999709427,0.7483369999972638
RSVPLG03,km,20251120-113614,1.0.2,20251113-095759,749,Experiment,Both,1,Automatic,main,59,20251120-114320,global,local,300,S,S,E,A,S-E.png,A-S.png,sS,sS,mask-4.png,mask-1.png,s,1,0.46583479997934774,s,1,0.5114297999825794,0.048815099988132715,0.049830199975986034,0.09960029998910613,0.10082619998138398,0.2976446000102442
RSVPLG03,km,20251120-113614,1.0.2,20251113-095759,749,Experiment,Both,1,Automatic,main,60,20251120-114324,local,global,750,H,S,E,E,E-H.png,S-E.png,hH,sS,mask-4.png,mask-1.png,h,1,0.7064720999915153,s,1,0.3035738000180572,0.04993009997997433,0.05064699999638833,0.10060999999404885,0.10018419998232275,0.748978999996325
RSVPLG03,km,20251120-113614,1.0.2,20251113-095759,749,Experiment,Both,1,Automatic,main,61,20251120-114329,local,global,750,H,S,A,E,A-H.png,S-E.png,hH,sS,mask-4.png,mask-2.png,h,1,0.5694846000114921,s,1,0.12763979998999275,0.049483600014355034,0.051025799999479204,0.09876400002394803,0.10057830001460388,0.7485951000126079
RSVPLG03,km,20251120-113614,1.0.2,20251113-095759,749,Experiment,Both,1,Automatic,main,62,20251120-114334,local,global,300,S,H,E,A,E-S.png,H-A.png,sS,hH,mask-2.png,mask-2.png,s,1,0.5086494999995921,h,1,0.1627036000136286,0.048234199988655746,0.050554499990539625,0.09939909999957308,0.10095920000458136,0.2990325999853667
RSVPLG03,km,20251120-113614,1.0.2,20251113-095759,749,Experiment,Both,1,Automatic,main,63,20251120-114339,local,global,300,H,S,E,E,E-H.png,S-E.png,hH,sS,mask-3.png,mask-4.png,h,1,0.45530659999349155,h,0,0.33353560001705773,0.04998199999681674,0.049200299981748685,0.10067139999591745,0.10017079999670386,0.30115569999907166
RSVPLG03,km,20251120-113614,1.0.2,20251113-095759,749,Experiment,Both,1,Automatic,main,64,20251120-114343,local,global,750,H,S,A,A,A-H.png,S-A.png,hH,sS,mask-1.png,mask-1.png,h,1,0.3258120999962557,s,1,0.12748389999615029,0.05047730001388118,0.04910780000500381,0.09975920000579208,0.09906869998667389,0.7500470000086352
RSVPLG03,km,20251120-113614,1.0.2,20251113-095759,749,Experiment,Both,1,Automatic,main,65,20251120-114348,global,local,750,H,S,A,A,H-A.png,A-S.png,hH,sS,mask-4.png,mask-1.png,h,1,0.4225229000148829,h,0,0.23843460000352934,0.04973589998553507,0.05068600000231527,0.10139519997755997,0.10096989999874495,0.7491969999973662
RSVPLG03,km,20251120-113614,1.0.2,20251113-095759,749,Experiment,Both,1,Automatic,main,66,20251120-114352,local,global,750,H,S,E,E,E-H.png,S-E.png,hH,sS,mask-4.png,mask-1.png,h,1,0.3716077000135556,s,1,0.09518120001303032,0.05013879999751225,0.049462499999208376,0.09988939997856505,0.09900529999868013,0.7496749999991152
RSVPLG03,km,20251120-113614,1.0.2,20251113-095759,749,Experiment,Both,1,Automatic,main,67,20251120-114357,global,local,750,H,H,A,A,H-A.png,A-H.png,hH,hH,mask-4.png,mask-1.png,h,1,0.3775557999906596,h,1,0.20747220001067035,0.04963510000379756,0.048659499996574596,0.10010419998434372,0.09766559998388402,0.7500263999972958
RSVPLG03,km,20251120-113614,1.0.2,20251113-095759,749,Experiment,Both,1,Automatic,main,68,20251120-114402,global,global,750,H,H,E,A,H-E.png,H-A.png,hH,hH,mask-3.png,mask-2.png,h,1,0.38206579998950474,h,1,0.2549268000002485,0.05087220002315007,0.04983679999713786,0.10081670002546161,0.09956100000999868,0.7494771000056062
RSVPLG03,km,20251120-113614,1.0.2,20251113-095759,749,Experiment,Both,1,Automatic,main,69,20251120-114406,local,global,300,H,H,E,E,E-H.png,H-E.png,hH,hH,mask-2.png,mask-4.png,h,1,0.34671670000534505,h,1,0.19201699999393895,0.04983930001617409,0.05114919997868128,0.10126450000097975,0.1003521999809891,0.29949560001841746
RSVPLG03,km,20251120-113614,1.0.2,20251113-095759,749,Experiment,Both,1,Automatic,main,70,20251120-114411,local,global,750,S,H,E,E,E-S.png,H-E.png,sS,hH,mask-4.png,mask-2.png,s,1,0.4302896999870427,h,1,0.1921860000002198,0.04904509999323636,0.04959239999880083,0.09916710000834428,0.10075159999541938,0.749373700004071
RSVPLG03,km,20251120-113614,1.0.2,20251113-095759,749,Experiment,Both,1,Automatic,main,71,20251120-114415,local,global,750,H,S,A,A,A-H.png,S-A.png,hH,sS,mask-4.png,mask-4.png,h,1,0.3645650999969803,s,1,0.2869531000033021,0.05059960001381114,0.051170699996873736,0.09980300001916476,0.10184790001949295,0.7480776000011247
RSVPLG03,km,20251120-113614,1.0.2,20251113-095759,749,Experiment,Both,1,Automatic,main,72,20251120-114420,global,local,300,H,H,A,A,H-A.png,A-H.png,hH,hH,mask-3.png,mask-4.png,h,1,0.38960450000013225,h,1,0.1737682999810204,0.050862800009781495,0.05006979999598116,0.10138979999464937,0.09917709999717772,0.30074470001272857
RSVPLG03,km,20251120-113614,1.0.2,20251113-095759,749,Experiment,Both,1,Automatic,main,73,20251120-114424,local,global,750,H,S,E,E,E-H.png,S-E.png,hH,sS,mask-2.png,mask-2.png,s,0,0.4574348999885842,h,0,0.12739229999715462,0.05037060001632199,0.049791400000685826,0.1011041000019759,0.09928239998407662,0.751126800023485
RSVPLG03,km,20251120-113614,1.0.2,20251113-095759,749,Experiment,Both,1,Automatic,main,74,20251120-114429,global,local,300,H,S,E,A,H-E.png,A-S.png,hH,sS,mask-4.png,mask-4.png,h,1,0.4579358999908436,h,0,0.11177869999664836,0.04983340000035241,0.0507625000027474,0.09989169999607839,0.10039060001145117,0.2986151999793947
RSVPLG03,km,20251120-113614,1.0.2,20251113-095759,749,Experiment,Both,1,Automatic,main,75,20251120-114433,local,global,750,S,H,A,A,A-S.png,H-A.png,sS,hH,mask-2.png,mask-1.png,s,1,0.36311260002548806,h,1,0.22293279998120852,0.05058660000213422,0.048578000016277656,0.10043340001720935,0.09951540001202375,0.7498511000012513
RSVPLG03,km,20251120-113614,1.0.2,20251113-095759,749,Experiment,Both,1,Automatic,main,76,20251120-114439,global,local,750,H,H,A,E,H-A.png,E-H.png,hH,hH,mask-4.png,mask-4.png,s,0,0.3002229000267107,h,1,0.12709779999568127,0.04952410000259988,0.051173799991374835,0.09865650002029724,0.09972959998412989,0.7486109000165015
RSVPLG03,km,20251120-113614,1.0.2,20251113-095759,749,Experiment,Both,1,Automatic,main,77,20251120-114444,global,global,750,S,H,E,A,S-E.png,H-A.png,sS,hH,mask-2.png,mask-2.png,s,1,0.4717116999963764,h,1,0.09637440001824871,0.04878429998643696,0.05056559998774901,0.0991331999830436,0.09924969999701716,0.7484906000026967
RSVPLG03,km,20251120-113614,1.0.2,20251113-095759,749,Experiment,Both,1,Automatic,main,78,20251120-114448,local,local,750,S,H,A,E,A-S.png,E-H.png,sS,hH,mask-1.png,mask-4.png,s,1,0.8863326999999117,h,1,0.11163659999147058,0.04999569998471998,0.05141070001991466,0.10061749999294989,0.10170349999680184,0.7495839999755844
RSVPLG03,km,20251120-113614,1.0.2,20251113-095759,749,Experiment,Both,1,Automatic,main,79,20251120-114454,local,local,750,S,H,A,A,A-S.png,A-H.png,sS,hH,mask-3.png,mask-1.png,h,0,0.5146055999794044,s,0,0.15731840001535602,0.04869409999810159,0.05121799997868948,0.10023350000847131,0.09985309999319725,0.748261700005969
RSVPLG03,km,20251120-113614,1.0.2,20251113-095759,749,Experiment,Both,1,Automatic,main,80,20251120-114458,global,global,300,S,S,A,E,S-A.png,S-E.png,sS,sS,mask-4.png,mask-1.png,h,0,0.3911219000001438,s,1,0.04405239998595789,0.04974970000330359,0.048824099998455495,0.09940619999542832,0.10051970000495203,0.29936979999183677
RSVPLG03,km,20251120-113614,1.0.2,20251113-095759,749,Experiment,Both,1,Automatic,main,81,20251120-114502,global,local,300,S,S,A,E,S-A.png,E-S.png,sS,sS,mask-1.png,mask-2.png,h,0,0.7940482000121847,s,1,0.030126099998597056,0.05075549997854978,0.04919499999959953,0.10033019998809323,0.09854549998999573,0.3007534999924246
RSVPLG03,km,20251120-113614,1.0.2,20251113-095759,749,Experiment,Both,1,Automatic,main,82,20251120-114507,local,local,300,H,S,E,E,E-H.png,E-S.png,hH,sS,mask-1.png,mask-4.png,h,1,0.2715044000069611,s,1,0.4318751000100747,0.04976689998875372,0.05034230000455864,0.09963280000374652,0.09983740001916885,0.29817749999347143
RSVPLG03,km,20251120-113614,1.0.2,20251113-095759,749,Experiment,Both,1,Automatic,main,83,20251120-114511,global,global,750,H,S,E,A,H-E.png,S-A.png,hH,sS,mask-1.png,mask-1.png,h,1,0.36834680000902154,h,0,0.20641149999573827,0.049736800021491945,0.04867359998752363,0.09979010000824928,0.09948740000254475,0.7502211000246461
RSVPLG03,km,20251120-113614,1.0.2,20251113-095759,749,Experiment,Both,1,Automatic,main,84,20251120-114516,local,local,750,H,H,A,A,A-H.png,A-H.png,hH,hH,mask-2.png,mask-3.png,h,1,0.4479767000011634,s,0,0.14594560000114143,0.04982919999747537,0.04997249998268671,0.09814899999764748,0.09999509999761358,0.7482797999982722
RSVPLG03,km,20251120-113614,1.0.2,20251113-095759,749,Experiment,Both,1,Automatic,main,85,20251120-114520,local,local,300,S,H,A,E,A-S.png,E-H.png,sS,hH,mask-4.png,mask-2.png,s,1,0.44651280000107363,h,1,0.10954689999925904,0.04870179999852553,0.0498066000000108,0.09970230000908487,0.09979279999970458,0.2996951999957673
RSVPLG03,km,20251120-113614,1.0.2,20251113-095759,749,Experiment,Both,1,Automatic,main,86,20251120-114525,global,local,300,S,S,A,A,S-A.png,A-S.png,sS,sS,mask-4.png,mask-3.png,s,1,0.37460040001315065,h,0,0.14011350000509992,0.04956079999101348,0.04955520000657998,0.10024430000339635,0.10009870000067167,0.30033410000032745
RSVPLG03,km,20251120-113614,1.0.2,20251113-095759,749,Experiment,Both,1,Automatic,main,87,20251120-114529,global,local,750,S,S,A,E,S-A.png,E-S.png,sS,sS,mask-4.png,mask-1.png,s,1,0.40391580000869,h,0,0.10882819999824278,0.04762040000059642,0.049261300009675324,0.09944619997986592,0.09915930000715889,0.748630799993407
RSVPLG03,km,20251120-113614,1.0.2,20251113-095759,749,Experiment,Both,1,Automatic,main,88,20251120-114533,global,local,750,H,H,A,E,H-A.png,E-H.png,hH,hH,mask-2.png,mask-4.png,h,1,0.3586455999757163,s,0,0.2346640000178013,0.048743999999715015,0.04983490001177415,0.10006609998526983,0.09976240000105463,0.7494898999866564
RSVPLG03,km,20251120-113614,1.0.2,20251113-095759,749,Experiment,Both,1,Automatic,main,89,20251120-114538,global,local,300,S,H,E,E,S-E.png,E-H.png,sS,hH,mask-3.png,mask-4.png,s,1,0.3623522999987472,h,1,0.127406699990388,0.049723500007530674,0.0482585999998264,0.0977030000067316,0.09863630001200363,0.29930340001010336
RSVPLG03,km,20251120-113614,1.0.2,20251113-095759,749,Experiment,Both,1,Automatic,main,90,20251120-114542,global,global,300,S,S,E,E,S-E.png,S-E.png,sS,sS,mask-4.png,mask-4.png,s,1,0.36985500002629124,h,0,0.11303459998453036,0.0505389999889303,0.049686299986205995,0.09935599999153055,0.10082279998459853,0.29883990000234917
RSVPLG03,km,20251120-113614,1.0.2,20251113-095759,749,Experiment,Both,1,Automatic,main,91,20251120-114547,global,local,750,H,H,A,E,H-A.png,E-H.png,hH,hH,mask-1.png,mask-3.png,h,1,0.4019467000034638,h,1,0.13975180001580156,0.05017750000115484,0.04960070000379346,0.10024790000170469,0.09924320000573061,0.7497699999948964
RSVPLG03,km,20251120-113614,1.0.2,20251113-095759,749,Experiment,Both,1,Automatic,main,92,20251120-114551,global,global,300,S,H,A,A,S-A.png,H-A.png,sS,hH,mask-1.png,mask-1.png,h,0,0.33860010001808405,h,1,0.09435969998594373,0.04973480000626296,0.04975510001531802,0.10052060001180507,0.0995861999981571,0.30021250000572763
RSVPLG03,km,20251120-113614,1.0.2,20251113-095759,749,Experiment,Both,1,Automatic,main,93,20251120-114555,global,local,300,H,H,E,E,H-E.png,E-H.png,hH,hH,mask-4.png,mask-3.png,h,1,0.3446057999972254,s,0,0.03308439999818802,0.04990490002091974,0.05078750001848675,0.09989230000064708,0.10024060000432655,0.2994616999931168
RSVPLG03,km,20251120-113614,1.0.2,20251113-095759,749,Experiment,Both,1,Automatic,main,94,20251120-114559,local,local,300,S,S,E,A,E-S.png,A-S.png,sS,sS,mask-1.png,mask-4.png,s,1,0.27399030001834035,h,0,0.40168050001375377,0.04978000000119209,0.049704000004567206,0.09968409998691641,0.0999526999949012,0.2983234999992419
RSVPLG03,km,20251120-113614,1.0.2,20251113-095759,749,Experiment,Both,1,Automatic,main,95,20251120-114603,local,local,300,S,S,E,E,E-S.png,E-S.png,sS,sS,mask-2.png,mask-2.png,s,1,0.31999309998354875,s,1,0.16258950001792982,0.04987570000230335,0.04921119997743517,0.09993810000014491,0.09955640000407584,0.29985860001761466
RSVPLG03,km,20251120-113614,1.0.2,20251113-095759,749,Experiment,Both,1,Automatic,main,96,20251120-114607,local,global,300,H,S,E,A,E-H.png,S-A.png,hH,sS,mask-2.png,mask-2.png,h,1,0.3024818999983836,h,0,0.11030680002295412,0.04956260000471957,0.04933149999123998,0.09995689999777824,0.10002579999854788,0.3009086000092793
RSVPLG03,km,20251120-113614,1.0.2,20251113-095759,749,Experiment,Both,1,Automatic,main,97,20251120-114611,local,global,750,S,S,E,A,E-S.png,S-A.png,sS,sS,mask-3.png,mask-3.png,s,1,0.6434195000038017,h,0,0.7714433000073768,0.049745599972084165,0.050559099996462464,0.09963249997235835,0.10001769999507815,0.7489359999890439
RSVPLG03,km,20251120-113614,1.0.2,20251113-095759,749,Experiment,Both,1,Automatic,main,98,20251120-114616,local,local,300,H,H,E,E,E-H.png,E-H.png,hH,hH,mask-2.png,mask-2.png,h,1,0.28564330001245253,s,0,0.03174199999193661,0.0492204999900423,0.05116079997969791,0.09890790001372807,0.09997759998077527,0.2993264000106137
RSVPLG03,km,20251120-113614,1.0.2,20251113-095759,749,Experiment,Both,1,Automatic,main,99,20251120-114620,local,local,750,H,H,E,E,E-H.png,E-H.png,hH,hH,mask-2.png,mask-4.png,h,1,0.3173560000141151,s,0,0.191910800000187,0.050175099982880056,0.04975130001548678,0.09989579999819398,0.10063269999227487,0.748614699987229
RSVPLG03,km,20251120-113614,1.0.2,20251113-095759,749,Experiment,Both,1,Automatic,main,100,20251120-114625,local,global,300,H,S,E,E,E-H.png,S-E.png,hH,sS,mask-4.png,mask-4.png,h,1,0.5924811000004411,s,1,0.0655603000195697,0.049775299994507805,0.05112250000820495,0.09970120000070892,0.09988280001562089,0.29835579998325557
