exp,exp_initials,runtime,ver,modtime,sub,blocktype,targets,cuetype,mode,trialtype,trial,trialtime,t1_level,t2_level,t2_lag,t1,t2,distractor1,distractor2,stimfile1,stimfile2,t1_corr,t2_corr,maskfile1,maskfile2,t1_resp,t1_acc,t1_rt,t2_resp,t2_acc,t2_rt,t1_dur,t2_dur,t1mask_soa,t2mask_soa,t1t2_soa
RSVPLG03,km,20251202-111047,1.0.2,20251202-094321,755,Introduction,T1,1,Automatic,main,1,20251202-111109,local,local,750,S,H,A,A,A-S.png,A-H.png,sS,hH,mask-3.png,mask-2.png,s,1,2.121201599948108,none,-5,0,0.0911809999961406,0.09894540021196008,0.1910484000109136,0.19895510002970695,0.7424659999087453
RSVPLG03,km,20251202-111047,1.0.2,20251202-094321,755,Introduction,T1,1,Automatic,main,2,20251202-111116,local,global,750,H,S,A,A,A-H.png,S-A.png,hH,sS,mask-4.png,mask-1.png,h,1,0.8400338999927044,none,-5,0,0.09898729994893074,0.09995359997265041,0.20020530000329018,0.20052010007202625,0.7492348998785019
RSVPLG03,km,20251202-111047,1.0.2,20251202-094321,755,Introduction,T1,1,Automatic,main,3,20251202-111121,global,local,750,S,H,A,E,S-A.png,E-H.png,sS,hH,mask-2.png,mask-3.png,s,1,0.3374427000526339,none,-5,0,0.10012120008468628,0.09991850005462766,0.19974979991093278,0.1998329998459667,0.7504940000362694
RSVPLG03,km,20251202-111047,1.0.2,20251202-094321,755,Introduction,T1,1,Automatic,main,4,20251202-111125,global,global,750,H,H,A,A,H-A.png,H-A.png,hH,hH,mask-1.png,mask-3.png,h,1,0.9240144998766482,none,-5,0,0.09998719999566674,0.09999210014939308,0.1985512999817729,0.2007170000579208,0.748705199919641
RSVPLG03,km,20251202-111047,1.0.2,20251202-094321,755,Introduction,T1,1,Automatic,main,5,20251202-111130,local,local,750,S,S,A,E,A-S.png,E-S.png,sS,sS,mask-2.png,mask-4.png,s,1,0.39762430009432137,none,-5,0,0.10016530007123947,0.0990176999475807,0.19866920006461442,0.19924809993244708,0.7508929001633078
RSVPLG03,km,20251202-111047,1.0.2,20251202-094321,755,Introduction,T1,1,Automatic,main,6,20251202-111135,global,global,750,H,S,A,E,H-A.png,S-E.png,hH,sS,mask-1.png,mask-2.png,none,-6,0,none,-5,0,0.10089569981209934,0.09936450002714992,0.20098059996962547,0.19883179990574718,0.7509689999278635
RSVPLG03,km,20251202-111148,1.0.2,20251202-094321,755,Practice,T1,1,Automatic,main,1,20251202-111210,local,local,300,S,S,A,E,A-S.png,E-S.png,sS,sS,mask-4.png,mask-4.png,s,1,0.362195499939844,none,-5,0,0.03822750016115606,0.05095429997891188,0.08767800009809434,0.10177220008336008,0.287704800022766
RSVPLG03,km,20251202-111148,1.0.2,20251202-094321,755,Practice,T1,1,Automatic,main,2,20251202-111214,global,local,300,S,S,A,E,S-A.png,E-S.png,sS,sS,mask-4.png,mask-4.png,s,1,0.34273330005817115,none,-5,0,0.049104100093245506,0.04921630001626909,0.09941989998333156,0.09843560005538166,0.3004234000109136
RSVPLG03,km,20251202-111148,1.0.2,20251202-094321,755,Practice,T1,1,Automatic,main,3,20251202-111218,local,local,750,H,H,A,A,A-H.png,A-H.png,hH,hH,mask-1.png,mask-4.png,h,1,0.5236206999979913,none,-5,0,0.049837199971079826,0.05000579985789955,0.09972870000638068,0.09938709996640682,0.7500672000460327
RSVPLG03,km,20251202-111148,1.0.2,20251202-094321,755,Practice,T1,1,Automatic,main,4,20251202-111223,global,local,300,H,S,E,A,H-E.png,A-S.png,hH,sS,mask-4.png,mask-1.png,h,1,0.7513042998034507,none,-5,0,0.05020659998990595,0.050388399977236986,0.10009659989736974,0.10040330002084374,0.29991329996846616
RSVPLG03,km,20251202-111148,1.0.2,20251202-094321,755,Practice,T1,1,Automatic,main,5,20251202-111227,local,global,300,S,H,A,A,A-S.png,H-A.png,sS,hH,mask-3.png,mask-3.png,h,0,1.4760150001384318,none,-5,0,0.05025650002062321,0.048539699986577034,0.1003676000982523,0.09948819992132485,0.30061920010484755
RSVPLG03,km,20251202-111148,1.0.2,20251202-094321,755,Practice,T1,1,Automatic,main,6,20251202-111232,local,global,750,S,H,E,A,E-S.png,H-A.png,sS,hH,mask-1.png,mask-3.png,s,1,1.4041661000810564,none,-5,0,0.04999450012110174,0.048311599995940924,0.09999900008551776,0.09829169977456331,0.7504254002124071
RSVPLG03,km,20251202-111148,1.0.2,20251202-094321,755,Practice,T1,1,Automatic,main,7,20251202-111237,global,global,750,H,S,E,E,H-E.png,S-E.png,hH,sS,mask-4.png,mask-1.png,h,1,0.3406187000218779,none,-5,0,0.05072390008717775,0.0506071001291275,0.10054960008710623,0.10071330005303025,0.7493523999582976
RSVPLG03,km,20251202-111148,1.0.2,20251202-094321,755,Practice,T1,1,Automatic,main,8,20251202-111242,global,local,750,H,H,A,A,H-A.png,A-H.png,hH,hH,mask-3.png,mask-2.png,h,1,0.35982130002230406,none,-5,0,0.05005320021882653,0.04889010009355843,0.10055080009624362,0.09983530011959374,0.7483047000132501
RSVPLG03,km,20251202-111148,1.0.2,20251202-094321,755,Practice,T1,1,Automatic,main,9,20251202-111246,global,global,300,S,H,E,E,S-E.png,H-E.png,sS,hH,mask-4.png,mask-1.png,s,1,0.8370775999501348,none,-5,0,0.0499464999884367,0.04931669984944165,0.09993449994362891,0.10011519980616868,0.29974130005575716
RSVPLG03,km,20251202-111148,1.0.2,20251202-094321,755,Practice,T1,1,Automatic,main,10,20251202-111251,local,global,300,H,H,E,A,E-H.png,H-A.png,hH,hH,mask-3.png,mask-4.png,h,1,1.7539428998716176,none,-5,0,0.05066929990425706,0.04957909998483956,0.10057839984074235,0.09861650015227497,0.30113359983079135
RSVPLG03,km,20251202-111148,1.0.2,20251202-094321,755,Practice,T1,1,Automatic,main,11,20251202-111256,global,global,300,S,H,E,A,S-E.png,H-A.png,sS,hH,mask-4.png,mask-4.png,s,1,0.4327936000190675,none,-5,0,0.050943100126460195,0.04990370012819767,0.09995430009439588,0.09955539996735752,0.2994411999825388
RSVPLG03,km,20251202-111148,1.0.2,20251202-094321,755,Practice,T1,1,Automatic,main,12,20251202-111300,global,local,750,H,H,A,A,H-A.png,A-H.png,hH,hH,mask-1.png,mask-2.png,h,1,0.12345089996233582,none,-5,0,0.049087899969890714,0.04909410001710057,0.09910200000740588,0.10041110008023679,0.7481992999091744
RSVPLG03,km,20251202-111148,1.0.2,20251202-094321,755,Practice,T1,1,Automatic,main,13,20251202-111304,local,local,750,H,S,A,A,A-H.png,A-S.png,hH,sS,mask-3.png,mask-2.png,h,1,0.27045700000599027,none,-5,0,0.0497749000787735,0.04999410011805594,0.09767889999784529,0.10001590009778738,0.747765599982813
RSVPLG03,km,20251202-111148,1.0.2,20251202-094321,755,Practice,T1,1,Automatic,main,14,20251202-111309,global,global,750,S,H,E,A,S-E.png,H-A.png,sS,hH,mask-3.png,mask-2.png,s,1,0.39080090005882084,none,-5,0,0.04940370004624128,0.05092539987526834,0.09935740008950233,0.10005629993975163,0.7474025001283735
RSVPLG03,km,20251202-111148,1.0.2,20251202-094321,755,Practice,T1,1,Automatic,main,15,20251202-111313,local,global,750,H,S,E,A,E-H.png,S-A.png,hH,sS,mask-3.png,mask-2.png,h,1,0.3757746999617666,none,-5,0,0.049922100035473704,0.05063430010341108,0.09995379997417331,0.10005309991538525,0.7485785000026226
RSVPLG03,km,20251202-111148,1.0.2,20251202-094321,755,Practice,T1,1,Automatic,main,16,20251202-111318,local,local,300,H,S,E,E,E-H.png,E-S.png,hH,sS,mask-1.png,mask-1.png,s,0,1.624741300009191,none,-5,0,0.04884920013137162,0.048782299971207976,0.10053170006722212,0.09919650014489889,0.3001550000626594
RSVPLG03,km,20251202-111346,1.0.2,20251202-094321,755,Introduction,Both,1,Automatic,main,1,20251202-111407,global,local,750,H,S,A,A,H-A.png,A-S.png,hH,sS,mask-4.png,mask-1.png,h,1,4.1250497999135405,s,1,1.135974199976772,0.09610159997828305,0.09881639992818236,0.19602630008012056,0.19876950001344085,0.7464118001516908
RSVPLG03,km,20251202-111346,1.0.2,20251202-094321,755,Introduction,Both,1,Automatic,main,2,20251202-111416,local,global,750,S,H,E,A,E-S.png,H-A.png,sS,hH,mask-1.png,mask-3.png,s,1,0.6284841999877244,h,1,0.9055748998653144,0.09983729990199208,0.09966400009579957,0.20156800001859665,0.1983837999869138,0.7508890999015421
RSVPLG03,km,20251202-111346,1.0.2,20251202-094321,755,Introduction,Both,1,Automatic,main,3,20251202-111422,local,global,750,S,H,A,A,A-S.png,H-A.png,sS,hH,mask-1.png,mask-3.png,s,1,1.3309849998913705,h,1,0.3952645999379456,0.09976080013439059,0.09977450012229383,0.20069690002128482,0.2009853001218289,0.7495488000568002
RSVPLG03,km,20251202-111346,1.0.2,20251202-094321,755,Introduction,Both,1,Automatic,main,4,20251202-111428,global,global,750,S,S,E,A,S-E.png,S-A.png,sS,sS,mask-3.png,mask-1.png,h,0,1.299252900062129,s,1,0.31597370002418756,0.10085869999602437,0.10085400007665157,0.19952140003442764,0.19983460009098053,0.7486743999179453
RSVPLG03,km,20251202-111346,1.0.2,20251202-094321,755,Introduction,Both,1,Automatic,main,5,20251202-111434,global,global,750,S,S,E,E,S-E.png,S-E.png,sS,sS,mask-2.png,mask-1.png,s,1,1.6553550001699477,s,1,0.6567944001872092,0.09988359990529716,0.09878590004518628,0.19913990003988147,0.19864289998076856,0.7492595999501646
RSVPLG03,km,20251202-111346,1.0.2,20251202-094321,755,Introduction,Both,1,Automatic,main,6,20251202-111441,global,global,750,H,H,A,A,H-A.png,H-A.png,hH,hH,mask-1.png,mask-4.png,h,1,1.0654704000335187,h,1,0.4096282001119107,0.09944680007174611,0.10026980005204678,0.1984933998901397,0.1993023999966681,0.7484883998986334
RSVPLG03,km,20251202-111346,1.0.2,20251202-094321,755,Introduction,Both,1,Automatic,main,7,20251202-111447,local,local,750,H,S,A,E,A-H.png,E-S.png,hH,sS,mask-1.png,mask-2.png,h,1,0.7062713999766856,s,1,0.3710887001361698,0.09990409994497895,0.09963869978673756,0.1999961999244988,0.1994123999029398,0.750201600138098
RSVPLG03,km,20251202-111346,1.0.2,20251202-094321,755,Introduction,Both,1,Automatic,main,8,20251202-111452,global,local,750,H,H,E,E,H-E.png,E-H.png,hH,hH,mask-2.png,mask-3.png,s,0,1.1569072999991477,s,0,0.19536020001396537,0.09987609996460378,0.09956549992784858,0.19933939981274307,0.19984390004538,0.7488617999479175
RSVPLG03,km,20251202-111346,1.0.2,20251202-094321,755,Introduction,Both,1,Automatic,main,9,20251202-111458,local,global,750,H,S,A,A,A-H.png,S-A.png,hH,sS,mask-1.png,mask-1.png,h,1,2.315529700135812,s,1,0.3617757000029087,0.09865839988924563,0.09789959993213415,0.19901739992201328,0.19897809997200966,0.7497624000534415
RSVPLG03,km,20251202-111346,1.0.2,20251202-094321,755,Introduction,Both,1,Automatic,main,10,20251202-111505,global,global,750,S,S,A,A,S-A.png,S-A.png,sS,sS,mask-1.png,mask-3.png,h,0,0.8682739001233131,s,1,0.037362700095400214,0.10062440019100904,0.09986110008321702,0.2003689999692142,0.19858619989827275,0.7494924000930041
RSVPLG03,km,20251202-111346,1.0.2,20251202-094321,755,Introduction,Both,1,Automatic,main,11,20251202-111511,global,local,750,H,H,E,A,H-E.png,A-H.png,hH,hH,mask-1.png,mask-1.png,h,1,2.4116849000565708,s,0,0.08997630001977086,0.10019150003790855,0.10055679990909994,0.19917319994419813,0.199011699995026,0.7484709999989718
RSVPLG03,km,20251202-111346,1.0.2,20251202-094321,755,Introduction,Both,1,Automatic,main,12,20251202-111517,local,local,750,S,S,A,E,A-S.png,E-S.png,sS,sS,mask-2.png,mask-2.png,s,1,1.8859377999324352,h,0,0.1666465001180768,0.10086290002800524,0.09902129997499287,0.20080740004777908,0.19915790017694235,0.7499553998932242
RSVPLG03,km,20251202-111346,1.0.2,20251202-094321,755,Introduction,Both,1,Automatic,main,13,20251202-111524,local,global,750,H,H,E,E,E-H.png,H-E.png,hH,hH,mask-4.png,mask-4.png,s,0,7.110143000027165,h,1,0.0811881001573056,0.09809790016151965,0.09960920014418662,0.1989610001910478,0.1997784001287073,0.7483224000316113
RSVPLG03,km,20251202-111346,1.0.2,20251202-094321,755,Introduction,Both,1,Automatic,main,14,20251202-111536,global,local,750,S,H,E,A,S-E.png,A-H.png,sS,hH,mask-4.png,mask-4.png,s,1,0.9479956000577658,h,1,0.5684926998801529,0.09815039997920394,0.09995259996503592,0.19970540003851056,0.19958420004695654,0.7480812999419868
RSVPLG03,km,20251202-111346,1.0.2,20251202-094321,755,Introduction,Both,1,Automatic,main,15,20251202-111541,local,local,750,H,H,E,E,E-H.png,E-H.png,hH,hH,mask-1.png,mask-2.png,h,1,0.4014768998604268,h,1,0.12203370011411607,0.09847139986231923,0.1006058999337256,0.19987010001204908,0.20044200005941093,0.749297299887985
RSVPLG03,km,20251202-111346,1.0.2,20251202-094321,755,Introduction,Both,1,Automatic,main,16,20251202-111546,local,local,750,H,H,E,A,E-H.png,A-H.png,hH,hH,mask-1.png,mask-4.png,h,1,0.3833550999406725,h,1,0.24461880000308156,0.09990329993888736,0.10015469999052584,0.2005159999243915,0.1995937000028789,0.749911000020802
RSVPLG03,km,20251202-111603,1.0.2,20251202-094321,755,Practice,Both,1,Automatic,main,1,20251202-111618,global,global,300,S,S,E,E,S-E.png,S-E.png,sS,sS,mask-3.png,mask-3.png,s,1,2.982347299810499,s,1,0.3247544998303056,0.04123350000008941,0.050554299959912896,0.08946399996057153,0.10041249985806644,0.290044300025329
RSVPLG03,km,20251202-111603,1.0.2,20251202-094321,755,Practice,Both,1,Automatic,main,2,20251202-111626,local,global,300,H,S,E,E,E-H.png,S-E.png,hH,sS,mask-1.png,mask-2.png,h,1,0.3800969000440091,h,0,0.12624310003593564,0.04951140005141497,0.05021960008889437,0.09954249998554587,0.09932410018518567,0.2993002999573946
RSVPLG03,km,20251202-111603,1.0.2,20251202-094321,755,Practice,Both,1,Automatic,main,3,20251202-111630,local,local,300,S,S,E,A,E-S.png,A-S.png,sS,sS,mask-3.png,mask-1.png,s,1,1.445890200091526,h,0,0.15346869989298284,0.049814100144430995,0.051008200040087104,0.09948670002631843,0.10077330004423857,0.2987063000909984
RSVPLG03,km,20251202-111603,1.0.2,20251202-094321,755,Practice,Both,1,Automatic,main,4,20251202-111635,local,local,750,H,S,A,E,A-H.png,E-S.png,hH,sS,mask-4.png,mask-2.png,h,1,1.1023198999464512,s,1,0.07453959994018078,0.04952430003322661,0.04985999991185963,0.10122580011375248,0.10016139992512763,0.7496619001030922
RSVPLG03,km,20251202-111603,1.0.2,20251202-094321,755,Practice,Both,1,Automatic,main,5,20251202-111641,global,global,300,H,H,E,A,H-E.png,H-A.png,hH,hH,mask-3.png,mask-2.png,h,1,0.8774993000552058,h,1,0.08903540018945932,0.049786599818617105,0.050972600001841784,0.09899169998243451,0.10026340000331402,0.298487399937585
RSVPLG03,km,20251202-111603,1.0.2,20251202-094321,755,Practice,Both,1,Automatic,main,6,20251202-111645,global,global,750,H,H,A,A,H-A.png,H-A.png,hH,hH,mask-2.png,mask-4.png,h,1,0.30841010017320514,h,1,0.10615290002897382,0.05062610004097223,0.04910519998520613,0.10039559984579682,0.09995780000463128,0.7501882000360638
RSVPLG03,km,20251202-111603,1.0.2,20251202-094321,755,Practice,Both,1,Automatic,main,7,20251202-111650,local,global,750,S,H,A,A,A-S.png,H-A.png,sS,hH,mask-1.png,mask-4.png,s,1,1.2376212999224663,s,0,0.09038820001296699,0.05012209992855787,0.04931210004724562,0.10042189992964268,0.10041960002854466,0.7480562999844551
RSVPLG03,km,20251202-111603,1.0.2,20251202-094321,755,Practice,Both,1,Automatic,main,8,20251202-111655,global,local,300,S,S,A,E,S-A.png,E-S.png,sS,sS,mask-2.png,mask-3.png,h,0,3.4111401999834925,s,1,0.1463498999364674,0.049591900082305074,0.05080359987914562,0.10035100020468235,0.1000558000523597,0.29963230015709996
RSVPLG03,km,20251202-111603,1.0.2,20251202-094321,755,Practice,Both,1,Automatic,main,9,20251202-111702,local,local,750,H,H,E,E,E-H.png,E-H.png,hH,hH,mask-2.png,mask-2.png,h,1,0.36227030004374683,h,1,0.17014549998566508,0.04978460003621876,0.04900640016421676,0.1017060000449419,0.099370599957183,0.7511464999988675
RSVPLG03,km,20251202-111603,1.0.2,20251202-094321,755,Practice,Both,1,Automatic,main,10,20251202-111707,global,local,750,H,S,E,E,H-E.png,E-S.png,hH,sS,mask-1.png,mask-2.png,h,1,0.5963669000193477,s,1,0.1974830999970436,0.0482143999543041,0.05183740006759763,0.09860450006090105,0.10179489990696311,0.7463702000677586
RSVPLG03,km,20251202-111603,1.0.2,20251202-094321,755,Practice,Both,1,Automatic,main,11,20251202-111712,global,global,750,S,S,A,E,S-A.png,S-E.png,sS,sS,mask-1.png,mask-2.png,s,1,0.4056421001441777,s,1,0.10564589989371598,0.04991029994562268,0.04992069979198277,0.10099539998918772,0.09917009994387627,0.7500434999819845
RSVPLG03,km,20251202-111603,1.0.2,20251202-094321,755,Practice,Both,1,Automatic,main,12,20251202-111717,local,local,300,S,H,E,E,E-S.png,E-H.png,sS,hH,mask-4.png,mask-4.png,h,0,0.7718499999027699,h,1,0.1302652999293059,0.04986950010061264,0.049612100003287196,0.0998889000620693,0.10038330010138452,0.3003378000576049
RSVPLG03,km,20251202-111603,1.0.2,20251202-094321,755,Practice,Both,1,Automatic,main,13,20251202-111721,local,global,750,S,S,A,E,A-S.png,S-E.png,sS,sS,mask-2.png,mask-1.png,s,1,0.978386800037697,s,1,0.09842590009793639,0.05155979981645942,0.04958210000768304,0.10181079991161823,0.09929329995065928,0.7497353998478502
RSVPLG03,km,20251202-111603,1.0.2,20251202-094321,755,Practice,Both,1,Automatic,main,14,20251202-111726,global,local,750,S,H,A,E,S-A.png,E-H.png,sS,hH,mask-3.png,mask-1.png,s,1,0.904945399845019,h,1,0.23724739998579025,0.049803399946540594,0.04994149995036423,0.09982319991104305,0.10069489991292357,0.7483320001047105
RSVPLG03,km,20251202-111603,1.0.2,20251202-094321,755,Practice,Both,1,Automatic,main,15,20251202-111732,local,global,300,S,S,A,E,A-S.png,S-E.png,sS,sS,mask-3.png,mask-4.png,s,1,2.3652134998701513,s,1,0.28234650008380413,0.04992870008572936,0.048965200083330274,0.10139120020903647,0.09897239995189011,0.3004866000264883
RSVPLG03,km,20251202-111603,1.0.2,20251202-094321,755,Practice,Both,1,Automatic,main,16,20251202-111738,global,local,300,S,S,E,A,S-E.png,A-S.png,sS,sS,mask-4.png,mask-2.png,s,1,0.6735515999607742,h,0,0.14738310012035072,0.04798160004429519,0.04893480008468032,0.0980655001476407,0.10006220010109246,0.29846780002117157
RSVPLG03,km,20251202-111823,1.0.2,20251202-094321,755,Experiment,Both,1,Automatic,warmup,1,20251202-111854,global,local,300,H,H,E,A,H-E.png,A-H.png,hH,hH,mask-3.png,mask-3.png,h,1,0.5349943998735398,h,1,0.0395255999173969,0.04125710017979145,0.0503117002081126,0.09056750009767711,0.10025950009003282,0.29007210000418127
RSVPLG03,km,20251202-111823,1.0.2,20251202-094321,755,Experiment,Both,1,Automatic,warmup,2,20251202-111859,local,global,750,H,H,A,A,A-H.png,H-A.png,hH,hH,mask-3.png,mask-4.png,h,1,0.8267922000959516,s,0,0.12125219986774027,0.04855420021340251,0.05071209999732673,0.0999517000745982,0.0994378998875618,0.7480398002080619
RSVPLG03,km,20251202-111823,1.0.2,20251202-094321,755,Experiment,Both,1,Automatic,warmup,3,20251202-111904,local,global,300,S,S,A,E,A-S.png,S-E.png,sS,sS,mask-2.png,mask-3.png,s,1,0.507470500189811,h,0,0.0735905000474304,0.05086369998753071,0.050403499975800514,0.10218499996699393,0.10124989994801581,0.30026590009219944
RSVPLG03,km,20251202-111823,1.0.2,20251202-094321,755,Experiment,Both,1,Automatic,warmup,4,20251202-111908,global,local,750,H,H,A,A,H-A.png,A-H.png,hH,hH,mask-2.png,mask-3.png,s,0,0.6612199998926371,h,1,0.1119061999488622,0.049676400143653154,0.05080020008608699,0.09980870014987886,0.09979490004479885,0.7492243000306189
RSVPLG03,km,20251202-111823,1.0.2,20251202-094321,755,Experiment,Both,1,Automatic,main,5,20251202-111913,global,local,750,S,H,A,A,S-A.png,A-H.png,sS,hH,mask-2.png,mask-3.png,s,1,1.849400700069964,h,1,0.1167128998786211,0.050585499964654446,0.04988130019046366,0.10062730009667575,0.09889610018581152,0.7504048999398947
RSVPLG03,km,20251202-111823,1.0.2,20251202-094321,755,Experiment,Both,1,Automatic,main,6,20251202-111919,local,global,750,S,H,A,E,A-S.png,H-E.png,sS,hH,mask-2.png,mask-2.png,s,1,1.153516000136733,h,1,0.27383520011790097,0.050707700196653605,0.049812400015071034,0.0989268000703305,0.09981289994902909,0.7485580001957715
RSVPLG03,km,20251202-111823,1.0.2,20251202-094321,755,Experiment,Both,1,Automatic,main,7,20251202-111925,local,global,300,H,H,A,A,A-H.png,H-A.png,hH,hH,mask-2.png,mask-3.png,h,1,1.0085650000255555,h,1,0.15406369999982417,0.04896809998899698,0.05000180006027222,0.09999550017528236,0.10007549985311925,0.29993150010704994
RSVPLG03,km,20251202-111823,1.0.2,20251202-094321,755,Experiment,Both,1,Automatic,main,8,20251202-111929,local,local,750,S,H,E,E,E-S.png,E-H.png,sS,hH,mask-1.png,mask-2.png,s,1,0.4306612000800669,h,1,0.23408120009116828,0.050603599986061454,0.04987150011584163,0.09899049997329712,0.10134120006114244,0.7490175999701023
RSVPLG03,km,20251202-111823,1.0.2,20251202-094321,755,Experiment,Both,1,Automatic,main,9,20251202-111934,global,global,750,H,H,A,A,H-A.png,H-A.png,hH,hH,mask-4.png,mask-4.png,h,1,0.9940650002099574,h,1,0.11431169998832047,0.05003849999047816,0.048649200005456805,0.09986819978803396,0.09834960009902716,0.7496083998121321
RSVPLG03,km,20251202-111823,1.0.2,20251202-094321,755,Experiment,Both,1,Automatic,main,10,20251202-111940,local,local,750,H,S,A,A,A-H.png,A-S.png,hH,sS,mask-1.png,mask-3.png,h,1,0.4316690999548882,s,1,0.26542919990606606,0.049971000058576465,0.04960000002756715,0.0991177000105381,0.09896869980730116,0.7487369000446051
RSVPLG03,km,20251202-111823,1.0.2,20251202-094321,755,Experiment,Both,1,Automatic,main,11,20251202-111945,global,local,300,H,S,E,E,H-E.png,E-S.png,hH,sS,mask-1.png,mask-1.png,h,1,0.582117399899289,s,1,0.0329241999424994,0.0508173000998795,0.04969449993222952,0.09993570018559694,0.10048449994064867,0.3003849000670016
RSVPLG03,km,20251202-111823,1.0.2,20251202-094321,755,Experiment,Both,1,Automatic,main,12,20251202-111949,global,local,750,S,S,E,A,S-E.png,A-S.png,sS,sS,mask-1.png,mask-1.png,s,1,0.7120355002116412,h,0,0.05856769997626543,0.04997960012406111,0.049902800004929304,0.10006110020913184,0.09992430009879172,0.7482076000887901
RSVPLG03,km,20251202-111823,1.0.2,20251202-094321,755,Experiment,Both,1,Automatic,main,13,20251202-111954,global,global,300,S,H,E,A,S-E.png,H-A.png,sS,hH,mask-3.png,mask-1.png,h,0,1.0678701000288129,h,1,0.11429390008561313,0.049880800070241094,0.049834399949759245,0.0988209000788629,0.0990989999845624,0.299737700028345
RSVPLG03,km,20251202-111823,1.0.2,20251202-094321,755,Experiment,Both,1,Automatic,main,14,20251202-111959,global,local,750,S,H,A,A,S-A.png,A-H.png,sS,hH,mask-3.png,mask-2.png,s,1,0.3470821001101285,h,1,0.2114452999085188,0.050009600119665265,0.04986770008690655,0.09979790006764233,0.09979370003566146,0.7480242000892758
RSVPLG03,km,20251202-111823,1.0.2,20251202-094321,755,Experiment,Both,1,Automatic,main,15,20251202-112003,local,global,750,S,H,E,E,E-S.png,H-E.png,sS,hH,mask-3.png,mask-4.png,s,1,2.69657939998433,h,1,0.4502016000915319,0.04887629998847842,0.05110629997216165,0.10088899987749755,0.10089439991861582,0.7499043999705464
RSVPLG03,km,20251202-111823,1.0.2,20251202-094321,755,Experiment,Both,1,Automatic,main,16,20251202-112011,global,global,300,S,H,A,A,S-A.png,H-A.png,sS,hH,mask-2.png,mask-4.png,s,1,0.7412864998914301,h,1,0.09743169997818768,0.049813600024208426,0.04980969987809658,0.09980390011332929,0.10078429989516735,0.30045600002631545
RSVPLG03,km,20251202-111823,1.0.2,20251202-094321,755,Experiment,Both,1,Automatic,main,17,20251202-112016,local,local,750,S,H,E,A,E-S.png,A-H.png,sS,hH,mask-4.png,mask-3.png,s,1,0.6507840000558645,h,1,0.18665429996326566,0.04995649983175099,0.0508844000287354,0.09989389986731112,0.10168329998850822,0.7477380000054836
RSVPLG03,km,20251202-111823,1.0.2,20251202-094321,755,Experiment,Both,1,Automatic,main,18,20251202-112021,global,global,750,S,S,A,A,S-A.png,S-A.png,sS,sS,mask-1.png,mask-2.png,s,1,0.43670770013704896,s,1,0.11875750008039176,0.049874400021508336,0.04990609991364181,0.1000181999988854,0.09983969992026687,0.7495053000748158
RSVPLG03,km,20251202-111823,1.0.2,20251202-094321,755,Experiment,Both,1,Automatic,main,19,20251202-112025,local,local,300,H,S,E,A,E-H.png,A-S.png,hH,sS,mask-2.png,mask-1.png,h,1,1.1254072999581695,h,0,0.13117319997400045,0.05019790004007518,0.049548699986189604,0.10041730012744665,0.1002621001098305,0.2990886999759823
RSVPLG03,km,20251202-111823,1.0.2,20251202-094321,755,Experiment,Both,1,Automatic,main,20,20251202-112030,global,local,300,S,S,A,E,S-A.png,E-S.png,sS,sS,mask-2.png,mask-4.png,s,1,0.5494197001680732,s,1,0.13321990007534623,0.051157800015062094,0.05131929996423423,0.10130150010809302,0.1001308998093009,0.3005421000998467
RSVPLG03,km,20251202-111823,1.0.2,20251202-094321,755,Experiment,Both,1,Automatic,main,21,20251202-112035,global,global,750,H,S,A,E,H-A.png,S-E.png,hH,sS,mask-2.png,mask-2.png,h,1,0.40254110004752874,s,1,0.21931239985860884,0.05005740001797676,0.05003369995392859,0.09846620005555451,0.09822089993394911,0.7497847001068294
RSVPLG03,km,20251202-111823,1.0.2,20251202-094321,755,Experiment,Both,1,Automatic,main,22,20251202-112039,global,global,750,S,H,A,A,S-A.png,H-A.png,sS,hH,mask-1.png,mask-4.png,s,1,0.37088459986262023,h,1,0.2038797999266535,0.049745299853384495,0.048846400110051036,0.10005899984389544,0.09893650002777576,0.7505200998857617
RSVPLG03,km,20251202-111823,1.0.2,20251202-094321,755,Experiment,Both,1,Automatic,main,23,20251202-112044,global,global,300,S,H,A,E,S-A.png,H-E.png,sS,hH,mask-2.png,mask-4.png,s,1,0.4250533999875188,h,1,0.18684980017133057,0.049988299841061234,0.049767799908295274,0.09986889990977943,0.09974919981323183,0.2999454999808222
RSVPLG03,km,20251202-111823,1.0.2,20251202-094321,755,Experiment,Both,1,Automatic,main,24,20251202-112048,local,global,300,H,H,E,E,E-H.png,H-E.png,hH,hH,mask-2.png,mask-2.png,h,1,0.7881263999734074,h,1,0.40954119991511106,0.049992999993264675,0.04998759995214641,0.10085249994881451,0.10086959996260703,0.2996777000371367
RSVPLG03,km,20251202-111823,1.0.2,20251202-094321,755,Experiment,Both,1,Automatic,main,25,20251202-112053,global,global,300,S,H,A,A,S-A.png,H-A.png,sS,hH,mask-2.png,mask-2.png,s,1,0.31098830001428723,h,1,0.2238597997929901,0.04962619999423623,0.05089620011858642,0.10067859990522265,0.09892560006119311,0.29968729987740517
RSVPLG03,km,20251202-111823,1.0.2,20251202-094321,755,Experiment,Both,1,Automatic,main,26,20251202-112211,global,local,300,S,S,A,A,S-A.png,A-S.png,sS,sS,mask-1.png,mask-3.png,s,1,0.3419904999900609,h,0,0.13536190008744597,0.04807369993068278,0.04967400012537837,0.0981521001085639,0.10002460004761815,0.29801469994708896
RSVPLG03,km,20251202-111823,1.0.2,20251202-094321,755,Experiment,Both,1,Automatic,main,27,20251202-112215,local,global,300,H,S,A,A,A-H.png,S-A.png,hH,sS,mask-2.png,mask-2.png,h,1,0.4586602000053972,s,1,0.2594803001265973,0.05248429998755455,0.05077569978311658,0.10041510011069477,0.0997496999334544,0.29892020020633936
RSVPLG03,km,20251202-111823,1.0.2,20251202-094321,755,Experiment,Both,1,Automatic,main,28,20251202-112219,local,global,300,H,S,A,A,A-H.png,S-A.png,hH,sS,mask-4.png,mask-1.png,h,1,1.41062179999426,s,1,0.14554339996539056,0.04991089995019138,0.050381100038066506,0.09991860017180443,0.09908950002864003,0.2994423001073301
RSVPLG03,km,20251202-111823,1.0.2,20251202-094321,755,Experiment,Both,1,Automatic,main,29,20251202-112225,global,local,750,H,S,A,A,H-A.png,A-S.png,hH,sS,mask-3.png,mask-4.png,h,1,0.3794962000101805,h,0,0.545778000028804,0.0496308000292629,0.04787790006957948,0.10053299996070564,0.09781780000776052,0.7504392000846565
RSVPLG03,km,20251202-111823,1.0.2,20251202-094321,755,Experiment,Both,1,Automatic,main,30,20251202-112230,global,local,300,S,S,A,E,S-A.png,E-S.png,sS,sS,mask-3.png,mask-3.png,s,1,0.41819339990615845,s,1,0.14668550016358495,0.049129500053822994,0.050732099916785955,0.09994279989041388,0.1005473998375237,0.2992132999934256
RSVPLG03,km,20251202-111823,1.0.2,20251202-094321,755,Experiment,Both,1,Automatic,main,31,20251202-112234,global,local,750,H,H,A,E,H-A.png,E-H.png,hH,hH,mask-3.png,mask-3.png,h,1,0.3651813000906259,s,0,0.1346309999935329,0.05077839992009103,0.05004010000266135,0.10020469990558922,0.09928829991258681,0.7495609000325203
RSVPLG03,km,20251202-111823,1.0.2,20251202-094321,755,Experiment,Both,1,Automatic,main,32,20251202-112239,global,local,300,S,H,A,E,S-A.png,E-H.png,sS,hH,mask-3.png,mask-1.png,s,1,0.9990255001466721,h,1,0.10121460002847016,0.04926470015197992,0.049641699995845556,0.1000133000779897,0.09973459993489087,0.2995007000863552
RSVPLG03,km,20251202-111823,1.0.2,20251202-094321,755,Experiment,Both,1,Automatic,main,33,20251202-112244,local,local,300,S,H,A,E,A-S.png,E-H.png,sS,hH,mask-1.png,mask-2.png,s,1,0.3539853999391198,h,1,0.13008749997243285,0.05046200007200241,0.050492299953475595,0.10040939995087683,0.10102190007455647,0.29880300001241267
RSVPLG03,km,20251202-111823,1.0.2,20251202-094321,755,Experiment,Both,1,Automatic,main,34,20251202-112248,local,global,750,H,H,E,A,E-H.png,H-A.png,hH,hH,mask-3.png,mask-4.png,h,1,0.5848515999969095,h,1,0.12212139996699989,0.04860860016196966,0.050723399966955185,0.10029530012980103,0.10140689997933805,0.7489057001657784
RSVPLG03,km,20251202-111823,1.0.2,20251202-094321,755,Experiment,Both,1,Automatic,main,35,20251202-112253,global,local,300,H,S,A,E,H-A.png,E-S.png,hH,sS,mask-3.png,mask-4.png,h,1,0.3922310001216829,s,1,0.5917365001514554,0.049623699858784676,0.04847029992379248,0.0988298999145627,0.09898629994131625,0.30079809995368123
RSVPLG03,km,20251202-111823,1.0.2,20251202-094321,755,Experiment,Both,1,Automatic,main,36,20251202-112258,local,global,750,H,H,A,A,A-H.png,H-A.png,hH,hH,mask-4.png,mask-3.png,h,1,0.9337702000048012,h,1,0.24098900007084012,0.05006400006823242,0.05006429995410144,0.10005800006911159,0.1000979000236839,0.7483445999678224
RSVPLG03,km,20251202-111823,1.0.2,20251202-094321,755,Experiment,Both,1,Automatic,main,37,20251202-112303,global,local,300,S,S,A,E,S-A.png,E-S.png,sS,sS,mask-2.png,mask-3.png,s,1,0.7791251000016928,s,1,0.36140910000540316,0.05025220010429621,0.04971669986844063,0.09936049999669194,0.10031889984384179,0.29998960020020604
RSVPLG03,km,20251202-111823,1.0.2,20251202-094321,755,Experiment,Both,1,Automatic,main,38,20251202-112308,local,global,300,H,H,E,A,E-H.png,H-A.png,hH,hH,mask-1.png,mask-3.png,h,1,1.350663400022313,s,0,1.106261800043285,0.05102429981343448,0.04858219996094704,0.10166419995948672,0.10024389997124672,0.30025259987451136
RSVPLG03,km,20251202-111823,1.0.2,20251202-094321,755,Experiment,Both,1,Automatic,main,39,20251202-112314,local,global,750,S,H,A,A,A-S.png,H-A.png,sS,hH,mask-2.png,mask-3.png,h,0,0.6280379998497665,h,1,0.11383059993386269,0.05132910003885627,0.049451999831944704,0.1010567001067102,0.10028219991363585,0.7498704001773149
RSVPLG03,km,20251202-111823,1.0.2,20251202-094321,755,Experiment,Both,1,Automatic,main,40,20251202-112319,local,local,300,S,S,A,E,A-S.png,E-S.png,sS,sS,mask-2.png,mask-3.png,s,1,0.3848661999218166,s,1,0.14262709999457002,0.05002159997820854,0.05090619996190071,0.10022059991024435,0.10170549992471933,0.29732350003905594
RSVPLG03,km,20251202-111823,1.0.2,20251202-094321,755,Experiment,Both,1,Automatic,main,41,20251202-112323,local,local,300,H,H,A,E,A-H.png,E-H.png,hH,hH,mask-4.png,mask-1.png,h,1,0.4169860000256449,h,1,0.12215030007064342,0.04992139991372824,0.049744500080123544,0.10027980012819171,0.10079000005498528,0.29962539998814464
RSVPLG03,km,20251202-111823,1.0.2,20251202-094321,755,Experiment,Both,1,Automatic,main,42,20251202-112327,local,global,300,H,H,A,A,A-H.png,H-A.png,hH,hH,mask-2.png,mask-1.png,h,1,0.9019920998252928,h,1,0.13809339981526136,0.051192599814385176,0.05056099989451468,0.10089969984255731,0.1012941999360919,0.2998571000061929
RSVPLG03,km,20251202-111823,1.0.2,20251202-094321,755,Experiment,Both,1,Automatic,main,43,20251202-112332,global,global,750,S,H,A,A,S-A.png,H-A.png,sS,hH,mask-4.png,mask-3.png,s,1,0.4768411999102682,h,1,0.12328459997661412,0.04986749985255301,0.04960880009457469,0.10013289982452989,0.10035079997032881,0.7489391998387873
RSVPLG03,km,20251202-111823,1.0.2,20251202-094321,755,Experiment,Both,1,Automatic,main,44,20251202-112337,local,global,300,H,S,A,A,A-H.png,S-A.png,hH,sS,mask-4.png,mask-3.png,h,1,0.639531800057739,h,0,0.13027339987456799,0.049671499989926815,0.049424200085923076,0.0984570998698473,0.0984438001178205,0.2991106999106705
RSVPLG03,km,20251202-111823,1.0.2,20251202-094321,755,Experiment,Both,1,Automatic,main,45,20251202-112341,local,local,750,S,S,A,E,A-S.png,E-S.png,sS,sS,mask-2.png,mask-1.png,s,1,0.3207123999018222,s,1,0.17684359988197684,0.04870019992813468,0.04812139994464815,0.09983069985173643,0.09925179998390377,0.7500014000106603
RSVPLG03,km,20251202-111823,1.0.2,20251202-094321,755,Experiment,Both,1,Automatic,main,46,20251202-112346,local,local,750,H,S,A,E,A-H.png,E-S.png,hH,sS,mask-4.png,mask-1.png,h,1,0.4212263999506831,s,1,0.17186190001666546,0.04985149996355176,0.04908269993029535,0.09878369979560375,0.10024349996820092,0.7496231999248266
RSVPLG03,km,20251202-111823,1.0.2,20251202-094321,755,Experiment,Both,1,Automatic,main,47,20251202-112350,local,global,300,H,S,A,A,A-H.png,S-A.png,hH,sS,mask-4.png,mask-2.png,h,1,0.7453453000634909,h,0,0.18522690003737807,0.050124699948355556,0.05026479996740818,0.1005202999804169,0.09832299989648163,0.3004433000460267
RSVPLG03,km,20251202-111823,1.0.2,20251202-094321,755,Experiment,Both,1,Automatic,main,48,20251202-112355,global,local,300,S,H,E,E,S-E.png,E-H.png,sS,hH,mask-3.png,mask-2.png,s,1,0.9254981998819858,h,1,0.24312960007227957,0.050779700046405196,0.04871060000732541,0.09998780000023544,0.09871480008587241,0.3012816000264138
RSVPLG03,km,20251202-111823,1.0.2,20251202-094321,755,Experiment,Both,1,Automatic,main,49,20251202-112400,local,global,750,H,H,A,A,A-H.png,H-A.png,hH,hH,mask-3.png,mask-4.png,h,1,0.9884856999851763,h,1,0.618547199992463,0.05089719989337027,0.05106429988518357,0.100001199869439,0.10121049988083541,0.7487983999308199
RSVPLG03,km,20251202-111823,1.0.2,20251202-094321,755,Experiment,Both,1,Automatic,main,50,20251202-112406,local,local,750,S,S,A,A,A-S.png,A-S.png,sS,sS,mask-3.png,mask-2.png,s,1,0.36611329996958375,s,1,0.1294303999748081,0.04922729986719787,0.04895779979415238,0.10012029996141791,0.0996207999996841,0.7498389000538737
RSVPLG03,km,20251202-111823,1.0.2,20251202-094321,755,Experiment,Both,1,Automatic,main,51,20251202-112426,local,global,750,S,S,A,A,A-S.png,S-A.png,sS,sS,mask-1.png,mask-2.png,s,1,0.37362860003486276,s,1,0.12833130010403693,0.04968579998239875,0.04814369999803603,0.09876190009526908,0.09944869996979833,0.7498771001119167
RSVPLG03,km,20251202-111823,1.0.2,20251202-094321,755,Experiment,Both,1,Automatic,main,52,20251202-112430,local,local,300,H,H,E,A,E-H.png,A-H.png,hH,hH,mask-1.png,mask-2.png,h,1,0.36435559997335076,h,1,0.11189459986053407,0.05075090005993843,0.04966209991835058,0.10016059991903603,0.10146309994161129,0.2998877000063658
RSVPLG03,km,20251202-111823,1.0.2,20251202-094321,755,Experiment,Both,1,Automatic,main,53,20251202-112435,local,local,750,H,S,E,A,E-H.png,A-S.png,hH,sS,mask-2.png,mask-3.png,h,1,0.45333930011838675,s,1,0.1232105998788029,0.050894000101834536,0.04892949992790818,0.10108119994401932,0.0992193000856787,0.7500734999775887
RSVPLG03,km,20251202-111823,1.0.2,20251202-094321,755,Experiment,Both,1,Automatic,main,54,20251202-112439,local,global,300,H,S,A,A,A-H.png,S-A.png,hH,sS,mask-3.png,mask-2.png,h,1,0.43663479993119836,h,0,0.1412043001037091,0.04989780019968748,0.04971690010279417,0.09990770020522177,0.09969249996356666,0.30022060009650886
RSVPLG03,km,20251202-111823,1.0.2,20251202-094321,755,Experiment,Both,1,Automatic,main,55,20251202-112443,local,local,750,H,S,A,E,A-H.png,E-S.png,hH,sS,mask-2.png,mask-4.png,h,1,0.3821008000522852,s,1,0.1274411000777036,0.049904400017112494,0.05068450001999736,0.101012600120157,0.09866050002165139,0.7509522000327706
RSVPLG03,km,20251202-111823,1.0.2,20251202-094321,755,Experiment,Both,1,Automatic,main,56,20251202-112448,global,local,750,H,H,A,A,H-A.png,A-H.png,hH,hH,mask-4.png,mask-4.png,h,1,0.29752980009652674,h,1,0.12064559990540147,0.04975919984281063,0.05032559996470809,0.09969449997879565,0.1000985000282526,0.7495587000157684
RSVPLG03,km,20251202-111823,1.0.2,20251202-094321,755,Experiment,Both,1,Automatic,main,57,20251202-112453,global,local,750,H,S,E,E,H-E.png,E-S.png,hH,sS,mask-1.png,mask-3.png,h,1,0.6273929998278618,s,1,0.28976909979246557,0.0489457999356091,0.04909610003232956,0.09964619996026158,0.10003890004009008,0.7499166999477893
RSVPLG03,km,20251202-111823,1.0.2,20251202-094321,755,Experiment,Both,1,Automatic,main,58,20251202-112458,global,local,750,H,H,E,E,H-E.png,E-H.png,hH,hH,mask-1.png,mask-1.png,h,1,0.5219229001086205,s,0,0.4736702998634428,0.04877109988592565,0.048938200110569596,0.10064099985174835,0.10000140010379255,0.7491422998718917
RSVPLG03,km,20251202-111823,1.0.2,20251202-094321,755,Experiment,Both,1,Automatic,main,59,20251202-112503,local,global,750,S,S,A,E,A-S.png,S-E.png,sS,sS,mask-4.png,mask-1.png,s,1,0.8258052999153733,h,0,0.13681879988871515,0.05004400014877319,0.050026699900627136,0.10016300017014146,0.09902570000849664,0.7497728001326323
RSVPLG03,km,20251202-111823,1.0.2,20251202-094321,755,Experiment,Both,1,Automatic,main,60,20251202-112508,local,local,750,S,S,E,E,E-S.png,E-S.png,sS,sS,mask-2.png,mask-1.png,s,1,0.43845300003886223,s,1,0.13658529985696077,0.049378300085663795,0.04927839990705252,0.0974864000454545,0.09822709998115897,0.7491761001292616
RSVPLG03,km,20251202-111823,1.0.2,20251202-094321,755,Experiment,Both,1,Automatic,main,61,20251202-112513,global,local,750,H,H,A,E,H-A.png,E-H.png,hH,hH,mask-3.png,mask-4.png,h,1,0.4342177000362426,s,0,0.04382519982755184,0.0494478999171406,0.05096690007485449,0.1011927998624742,0.1009784999769181,0.7502959999255836
RSVPLG03,km,20251202-111823,1.0.2,20251202-094321,755,Experiment,Both,1,Automatic,main,62,20251202-112518,global,global,300,S,S,E,E,S-E.png,S-E.png,sS,sS,mask-4.png,mask-3.png,s,1,0.3454530001617968,s,1,0.11578320013359189,0.049970699939876795,0.049708700040355325,0.10004610009491444,0.09977650013752282,0.30035199993290007
RSVPLG03,km,20251202-111823,1.0.2,20251202-094321,755,Experiment,Both,1,Automatic,main,63,20251202-112522,local,local,300,S,H,E,A,E-S.png,A-H.png,sS,hH,mask-1.png,mask-1.png,s,1,0.48953950009308755,h,1,0.09747659997083247,0.0490667000412941,0.049223999958485365,0.09924370003864169,0.10042909998446703,0.2990654001478106
RSVPLG03,km,20251202-111823,1.0.2,20251202-094321,755,Experiment,Both,1,Automatic,main,64,20251202-112526,local,global,750,H,H,A,A,A-H.png,H-A.png,hH,hH,mask-3.png,mask-2.png,h,1,0.4467196997720748,h,1,0.16131170000880957,0.050799500197172165,0.05128389992751181,0.09970910008996725,0.10134109994396567,0.7490958000998944
RSVPLG03,km,20251202-111823,1.0.2,20251202-094321,755,Experiment,Both,1,Automatic,main,65,20251202-112531,global,global,300,H,H,E,A,H-E.png,H-A.png,hH,hH,mask-4.png,mask-1.png,h,1,0.38528970000334084,h,1,0.12639230000786483,0.05001399992033839,0.05000190017744899,0.10105479997582734,0.10103390016593039,0.29992549982853234
RSVPLG03,km,20251202-111823,1.0.2,20251202-094321,755,Experiment,Both,1,Automatic,main,66,20251202-112535,local,local,300,H,S,A,E,A-H.png,E-S.png,hH,sS,mask-2.png,mask-1.png,h,1,0.8484561000950634,s,1,0.02698879991658032,0.04984969994984567,0.04973699990659952,0.09951480012387037,0.09888050006702542,0.29995490005239844
RSVPLG03,km,20251202-111823,1.0.2,20251202-094321,755,Experiment,Both,1,Automatic,main,67,20251202-112540,global,global,750,H,S,A,E,H-A.png,S-E.png,hH,sS,mask-1.png,mask-2.png,h,1,0.5621401998214424,s,1,0.08120990009047091,0.049880299950018525,0.04990949993953109,0.10008390014991164,0.0999129000119865,0.7498729000799358
RSVPLG03,km,20251202-111823,1.0.2,20251202-094321,755,Experiment,Both,1,Automatic,main,68,20251202-112544,local,local,750,S,S,E,A,E-S.png,A-S.png,sS,sS,mask-3.png,mask-2.png,s,1,0.7689084999728948,s,1,0.12154259998351336,0.05092020006850362,0.047949499916285276,0.10068130004219711,0.09905039984732866,0.7510065000969917
RSVPLG03,km,20251202-111823,1.0.2,20251202-094321,755,Experiment,Both,1,Automatic,main,69,20251202-112549,global,local,750,S,H,A,E,S-A.png,E-H.png,sS,hH,mask-2.png,mask-1.png,s,1,1.319906699936837,s,0,0.11566970008425415,0.04998479993082583,0.04978649993427098,0.10000029997900128,0.0998271000571549,0.7501087000127882
RSVPLG03,km,20251202-111823,1.0.2,20251202-094321,755,Experiment,Both,1,Automatic,main,70,20251202-112555,local,global,750,S,H,A,E,A-S.png,H-E.png,sS,hH,mask-4.png,mask-4.png,s,1,1.6641869999002665,h,1,0.06128339981660247,0.04968010005541146,0.051511900033801794,0.09871920011937618,0.10011529992334545,0.7475240000057966
RSVPLG03,km,20251202-111823,1.0.2,20251202-094321,755,Experiment,Both,1,Automatic,main,71,20251202-112601,local,local,300,H,S,A,E,A-H.png,E-S.png,hH,sS,mask-3.png,mask-2.png,h,1,1.6120293999556452,s,1,0.025722600053995848,0.049060799879953265,0.048869100166484714,0.09909159992821515,0.10071670007891953,0.2991195998620242
RSVPLG03,km,20251202-111823,1.0.2,20251202-094321,755,Experiment,Both,1,Automatic,main,72,20251202-112606,global,global,750,S,S,A,E,S-A.png,S-E.png,sS,sS,mask-4.png,mask-3.png,s,1,0.30185819999314845,s,1,0.10952650010585785,0.05092970002442598,0.05007919995114207,0.10104970005340874,0.10022130003198981,0.7492269000504166
RSVPLG03,km,20251202-111823,1.0.2,20251202-094321,755,Experiment,Both,1,Automatic,main,73,20251202-112611,global,global,300,H,S,A,E,H-A.png,S-E.png,hH,sS,mask-1.png,mask-1.png,h,1,0.39985309983603656,s,1,0.0973437000066042,0.049889199901372194,0.04973119986243546,0.09990599984303117,0.10078440001234412,0.29910279996693134
RSVPLG03,km,20251202-111823,1.0.2,20251202-094321,755,Experiment,Both,1,Automatic,main,74,20251202-112615,global,local,300,S,H,E,E,S-E.png,E-H.png,sS,hH,mask-1.png,mask-2.png,s,1,1.0006026001647115,h,1,0.13835730007849634,0.05049070017412305,0.04944239999167621,0.09972749999724329,0.09905810002237558,0.3009190000593662
RSVPLG03,km,20251202-111823,1.0.2,20251202-094321,755,Experiment,Both,1,Automatic,main,75,20251202-112620,global,global,300,H,H,A,E,H-A.png,H-E.png,hH,hH,mask-2.png,mask-3.png,h,1,0.3495559000875801,h,1,0.12149500008672476,0.05091010010801256,0.04939709999598563,0.09960940014570951,0.09950080001726747,0.30001710006035864
RSVPLG03,km,20251202-111823,1.0.2,20251202-094321,755,Experiment,Both,1,Automatic,main,76,20251202-112644,local,global,750,S,S,E,A,E-S.png,S-A.png,sS,sS,mask-1.png,mask-2.png,s,1,0.6429073000326753,h,0,0.0960346998181194,0.04991060006432235,0.049905800027772784,0.09954930003732443,0.10027060005813837,0.7489410999696702
RSVPLG03,km,20251202-111823,1.0.2,20251202-094321,755,Experiment,Both,1,Automatic,main,77,20251202-112648,global,local,750,S,S,E,E,S-E.png,E-S.png,sS,sS,mask-3.png,mask-1.png,s,1,0.4534169000107795,s,1,0.10671640001237392,0.0473776999861002,0.051103000063449144,0.09757909993641078,0.10132650006562471,0.7467449998948723
RSVPLG03,km,20251202-111823,1.0.2,20251202-094321,755,Experiment,Both,1,Automatic,main,78,20251202-112653,local,local,750,H,S,E,A,E-H.png,A-S.png,hH,sS,mask-1.png,mask-2.png,h,1,0.3482934001367539,s,1,0.10454870015382767,0.048029799945652485,0.05141790001653135,0.09803969995118678,0.09995780000463128,0.7472740998491645
RSVPLG03,km,20251202-111823,1.0.2,20251202-094321,755,Experiment,Both,1,Automatic,main,79,20251202-112658,global,global,300,H,S,A,E,H-A.png,S-E.png,hH,sS,mask-1.png,mask-1.png,h,1,0.45670640002936125,s,1,0.08484979998320341,0.05029429984278977,0.049558699829503894,0.0988485999405384,0.10122249997220933,0.29976510000415146
RSVPLG03,km,20251202-111823,1.0.2,20251202-094321,755,Experiment,Both,1,Automatic,main,80,20251202-112702,global,local,750,H,H,A,A,H-A.png,A-H.png,hH,hH,mask-1.png,mask-3.png,h,1,0.20362080004997551,h,1,0.12904449994675815,0.050338299944996834,0.049489500001072884,0.09864099998958409,0.09957680013030767,0.7485809999052435
RSVPLG03,km,20251202-111823,1.0.2,20251202-094321,755,Experiment,Both,1,Automatic,main,81,20251202-112706,global,global,750,S,H,A,A,S-A.png,H-A.png,sS,hH,mask-3.png,mask-3.png,s,1,0.28694489994086325,h,1,0.21803410002030432,0.04919990012422204,0.04997020005248487,0.09825900010764599,0.10013749985955656,0.7494231001473963
RSVPLG03,km,20251202-111823,1.0.2,20251202-094321,755,Experiment,Both,1,Automatic,main,82,20251202-112711,global,global,750,H,H,E,E,H-E.png,H-E.png,hH,hH,mask-2.png,mask-4.png,h,1,0.4644482000730932,h,1,0.14345479989424348,0.04963279981166124,0.05091840005479753,0.10059789987280965,0.10088560008443892,0.748937799828127
RSVPLG03,km,20251202-111823,1.0.2,20251202-094321,755,Experiment,Both,1,Automatic,main,83,20251202-112716,global,global,300,S,S,E,E,S-E.png,S-E.png,sS,sS,mask-1.png,mask-4.png,s,1,0.8607483999803662,s,1,0.2835619000252336,0.049983699806034565,0.04737849999219179,0.10000979993492365,0.09812769992277026,0.30127499997615814
RSVPLG03,km,20251202-111823,1.0.2,20251202-094321,755,Experiment,Both,1,Automatic,main,84,20251202-112721,local,global,300,H,S,E,E,E-H.png,S-E.png,hH,sS,mask-3.png,mask-1.png,h,1,0.5013925998937339,s,1,0.3855567001737654,0.0487160999327898,0.05030220001935959,0.09874589997343719,0.10045489994809031,0.29790670005604625
RSVPLG03,km,20251202-111823,1.0.2,20251202-094321,755,Experiment,Both,1,Automatic,main,85,20251202-112725,global,global,300,H,S,A,A,H-A.png,S-A.png,hH,sS,mask-3.png,mask-1.png,h,1,0.3429863001219928,s,1,0.19647029996849597,0.048933699959889054,0.0515771999489516,0.10004659998230636,0.10112560004927218,0.2978187999688089
RSVPLG03,km,20251202-111823,1.0.2,20251202-094321,755,Experiment,Both,1,Automatic,main,86,20251202-112730,global,local,300,S,S,E,E,S-E.png,E-S.png,sS,sS,mask-3.png,mask-4.png,s,1,0.5001569001469761,s,1,0.11844860017299652,0.04991440009325743,0.05035760020837188,0.10096419998444617,0.10057650017552078,0.29971039993688464
RSVPLG03,km,20251202-111823,1.0.2,20251202-094321,755,Experiment,Both,1,Automatic,main,87,20251202-112734,local,global,300,S,H,E,E,E-S.png,H-E.png,sS,hH,mask-4.png,mask-3.png,s,1,0.8308409000746906,h,1,0.17700959998182952,0.04987480002455413,0.05108230002224445,0.10012700012885034,0.10101069998927414,0.29917230014689267
RSVPLG03,km,20251202-111823,1.0.2,20251202-094321,755,Experiment,Both,1,Automatic,main,88,20251202-112739,local,global,750,H,H,E,E,E-H.png,H-E.png,hH,hH,mask-2.png,mask-3.png,h,1,0.7625147998332977,s,0,1.8653145001735538,0.049923700047656894,0.049772300058975816,0.09991530003026128,0.09990320005454123,0.7490129000507295
RSVPLG03,km,20251202-111823,1.0.2,20251202-094321,755,Experiment,Both,1,Automatic,main,89,20251202-112745,global,global,750,S,H,A,E,S-A.png,H-E.png,sS,hH,mask-4.png,mask-1.png,s,1,1.4278972998727113,h,1,0.09095580014400184,0.05096349981613457,0.04999449988827109,0.10014789993874729,0.09901309991255403,0.7491093999706209
RSVPLG03,km,20251202-111823,1.0.2,20251202-094321,755,Experiment,Both,1,Automatic,main,90,20251202-112751,global,local,300,H,H,E,A,H-E.png,A-H.png,hH,hH,mask-3.png,mask-2.png,h,1,0.6998085000086576,h,1,0.13051829999312758,0.049938200041651726,0.051661800127476454,0.09982779994606972,0.09982150001451373,0.30004119989462197
RSVPLG03,km,20251202-111823,1.0.2,20251202-094321,755,Experiment,Both,1,Automatic,main,91,20251202-112756,global,global,750,S,S,E,E,S-E.png,S-E.png,sS,sS,mask-2.png,mask-1.png,s,1,0.4781498999800533,h,0,0.7532864001113921,0.0497206998988986,0.049490700010210276,0.09986350010149181,0.10013020015321672,0.7491083999630064
RSVPLG03,km,20251202-111823,1.0.2,20251202-094321,755,Experiment,Both,1,Automatic,main,92,20251202-112801,global,global,300,S,H,A,A,S-A.png,H-A.png,sS,hH,mask-2.png,mask-2.png,s,1,0.5169860001187772,h,1,0.12991450005210936,0.04849239997565746,0.04884349997155368,0.09912190004251897,0.09946450009010732,0.29926540004089475
RSVPLG03,km,20251202-111823,1.0.2,20251202-094321,755,Experiment,Both,1,Automatic,main,93,20251202-112806,local,local,300,S,S,E,E,E-S.png,E-S.png,sS,sS,mask-2.png,mask-4.png,s,1,5.397875900147483,h,0,5.573843300109729,0.049845100147649646,0.04972729994915426,0.09996540006250143,0.10073489998467267,0.29951580008491874
RSVPLG03,km,20251202-111823,1.0.2,20251202-094321,755,Experiment,Both,1,Automatic,main,94,20251202-112815,local,local,300,H,H,E,A,E-H.png,A-H.png,hH,hH,mask-1.png,mask-3.png,h,1,0.24823809997178614,h,1,0.21662810002453625,0.04966269992291927,0.050053799990564585,0.1001657999586314,0.10007210006006062,0.29906210000626743
RSVPLG03,km,20251202-111823,1.0.2,20251202-094321,755,Experiment,Both,1,Automatic,main,95,20251202-112819,local,local,300,S,S,E,E,E-S.png,E-S.png,sS,sS,mask-4.png,mask-2.png,s,1,0.40040650009177625,s,1,0.13023829995654523,0.05054350011050701,0.0520286001265049,0.09999730018898845,0.10098300012759864,0.2992533000651747
RSVPLG03,km,20251202-111823,1.0.2,20251202-094321,755,Experiment,Both,1,Automatic,main,96,20251202-112823,local,local,750,H,H,A,E,A-H.png,E-H.png,hH,hH,mask-1.png,mask-2.png,h,1,0.2887887000106275,h,1,0.1784682001452893,0.049908499931916595,0.050747199915349483,0.10000890004448593,0.10066369990818202,0.7483070001471788
RSVPLG03,km,20251202-111823,1.0.2,20251202-094321,755,Experiment,Both,1,Automatic,main,97,20251202-112828,global,global,750,H,H,E,A,H-E.png,H-A.png,hH,hH,mask-3.png,mask-1.png,h,1,0.3474703000392765,h,1,0.14062259998172522,0.049700799863785505,0.04994400008581579,0.10080459993332624,0.10000770003534853,0.7503601999487728
RSVPLG03,km,20251202-111823,1.0.2,20251202-094321,755,Experiment,Both,1,Automatic,main,98,20251202-112832,global,local,300,H,S,E,A,H-E.png,A-S.png,hH,sS,mask-4.png,mask-4.png,h,1,1.2230400000698864,s,1,0.07352430000901222,0.04991269996389747,0.04858579998835921,0.10126010002568364,0.0991947001311928,0.3007656999398023
RSVPLG03,km,20251202-111823,1.0.2,20251202-094321,755,Experiment,Both,1,Automatic,main,99,20251202-112837,local,global,300,H,S,E,A,E-H.png,S-A.png,hH,sS,mask-2.png,mask-1.png,h,1,0.634309200104326,h,0,0.16838140017352998,0.050597700057551265,0.04979700013063848,0.09917960013262928,0.0997436000034213,0.30012649996206164
RSVPLG03,km,20251202-111823,1.0.2,20251202-094321,755,Experiment,Both,1,Automatic,main,100,20251202-112842,local,local,300,H,S,A,E,A-H.png,E-S.png,hH,sS,mask-1.png,mask-1.png,h,1,0.46165519999340177,s,1,0.11429980001412332,0.05011800001375377,0.04848780017346144,0.10017380001954734,0.09991330001503229,0.3007243999745697
RSVPLG03,km,20251202-112926,1.0.2,20251202-094321,755,Experiment,Both,1,Automatic,warmup,1,20251202-112950,global,global,300,S,H,A,A,S-A.png,H-A.png,sS,hH,mask-4.png,mask-1.png,s,1,0.7991274001542479,h,1,0.2431445000693202,0.040408500004559755,0.050699600018560886,0.0897605000063777,0.10131920012645423,0.2896544998511672
RSVPLG03,km,20251202-112926,1.0.2,20251202-094321,755,Experiment,Both,1,Automatic,warmup,2,20251202-112955,local,global,750,S,S,A,E,A-S.png,S-E.png,sS,sS,mask-2.png,mask-1.png,s,1,0.5195230999961495,h,0,0.06651500007137656,0.04990929993800819,0.04995149979367852,0.10003640013746917,0.09913279977627099,0.7509072001557797
RSVPLG03,km,20251202-112926,1.0.2,20251202-094321,755,Experiment,Both,1,Automatic,warmup,3,20251202-113000,global,local,300,S,H,A,E,S-A.png,E-H.png,sS,hH,mask-3.png,mask-4.png,s,1,0.33561849989928305,s,0,0.31459790002554655,0.049726299941539764,0.05082250013947487,0.0995478997938335,0.10060600005090237,0.29988299985416234
RSVPLG03,km,20251202-112926,1.0.2,20251202-094321,755,Experiment,Both,1,Automatic,warmup,4,20251202-113004,global,local,750,S,H,E,A,S-E.png,A-H.png,sS,hH,mask-2.png,mask-3.png,s,1,0.21003139996901155,h,1,0.1601092000491917,0.04976340010762215,0.04871420003473759,0.09967570006847382,0.09991550003178418,0.7502331000287086
RSVPLG03,km,20251202-112926,1.0.2,20251202-094321,755,Experiment,Both,1,Automatic,main,5,20251202-113009,local,local,300,H,S,E,E,E-H.png,E-S.png,hH,sS,mask-1.png,mask-4.png,h,1,0.4346314000431448,s,1,0.32339340006001294,0.05102930008433759,0.05092480010353029,0.1011268999427557,0.10064670001156628,0.2994452998973429
RSVPLG03,km,20251202-112926,1.0.2,20251202-094321,755,Experiment,Both,1,Automatic,main,6,20251202-113013,local,local,750,S,S,E,A,E-S.png,A-S.png,sS,sS,mask-2.png,mask-1.png,s,1,0.33028899994678795,s,1,0.1146368000190705,0.04802399990148842,0.04911500005982816,0.0982082998380065,0.10013140016235411,0.7491219998337328
RSVPLG03,km,20251202-112926,1.0.2,20251202-094321,755,Experiment,Both,1,Automatic,main,7,20251202-113018,local,global,300,S,H,E,A,E-S.png,H-A.png,sS,hH,mask-2.png,mask-2.png,s,1,1.3025608002208173,h,1,0.04896849999204278,0.05002920003607869,0.05095229996368289,0.10020019998773932,0.10121460002847016,0.30032810010015965
RSVPLG03,km,20251202-112926,1.0.2,20251202-094321,755,Experiment,Both,1,Automatic,main,8,20251202-113023,global,local,300,S,H,A,E,S-A.png,E-H.png,sS,hH,mask-2.png,mask-4.png,s,1,0.39043099991977215,h,1,0.6038010998163372,0.049366299994289875,0.05015820008702576,0.09886780008673668,0.09984999988228083,0.2989968000911176
RSVPLG03,km,20251202-112926,1.0.2,20251202-094321,755,Experiment,Both,1,Automatic,main,9,20251202-113028,local,local,300,H,S,E,A,E-H.png,A-S.png,hH,sS,mask-1.png,mask-3.png,h,1,0.5990555000025779,s,1,0.06742090010084212,0.04995519993826747,0.04989360016770661,0.09999499982222915,0.0999222001992166,0.3007448997814208
RSVPLG03,km,20251202-112926,1.0.2,20251202-094321,755,Experiment,Both,1,Automatic,main,10,20251202-113032,global,global,300,H,S,A,A,H-A.png,S-A.png,hH,sS,mask-1.png,mask-4.png,h,1,0.3815422998741269,s,1,0.015798200154677033,0.049857799895107746,0.04895339999347925,0.09989229985512793,0.1001232999842614,0.30090309982188046
RSVPLG03,km,20251202-112926,1.0.2,20251202-094321,755,Experiment,Both,1,Automatic,main,11,20251202-113036,local,global,300,H,S,E,E,E-H.png,S-E.png,hH,sS,mask-3.png,mask-3.png,h,1,0.5825454001314938,s,1,0.0979742999188602,0.04891399992629886,0.04854460014030337,0.099088299786672,0.09924350003711879,0.3000985998660326
RSVPLG03,km,20251202-112926,1.0.2,20251202-094321,755,Experiment,Both,1,Automatic,main,12,20251202-113041,local,local,750,S,H,E,A,E-S.png,A-H.png,sS,hH,mask-3.png,mask-1.png,h,0,0.3959648001473397,h,1,0.11654320009984076,0.051065499894320965,0.050886099925264716,0.10145769990049303,0.10117249982431531,0.751135400030762
RSVPLG03,km,20251202-112926,1.0.2,20251202-094321,755,Experiment,Both,1,Automatic,main,13,20251202-113045,global,global,750,S,H,E,E,S-E.png,H-E.png,sS,hH,mask-2.png,mask-1.png,s,1,1.1073227000888437,h,1,0.8349441001191735,0.04963989998213947,0.05004570004530251,0.10042310017161071,0.10022609983570874,0.7508736001327634
RSVPLG03,km,20251202-112926,1.0.2,20251202-094321,755,Experiment,Both,1,Automatic,main,14,20251202-113051,local,global,300,S,H,A,E,A-S.png,H-E.png,sS,hH,mask-4.png,mask-1.png,s,1,0.8255944999400526,h,1,0.09050230006687343,0.05074469977989793,0.04975120001472533,0.10051859985105693,0.09964340017177165,0.30048559978604317
RSVPLG03,km,20251202-112926,1.0.2,20251202-094321,755,Experiment,Both,1,Automatic,main,15,20251202-113056,local,global,300,S,H,E,E,E-S.png,H-E.png,sS,hH,mask-2.png,mask-2.png,s,1,0.7375805000774562,h,1,0.1306807000655681,0.04987260000780225,0.049685300095006824,0.10052819992415607,0.10109260003082454,0.2994874999858439
RSVPLG03,km,20251202-112926,1.0.2,20251202-094321,755,Experiment,Both,1,Automatic,main,16,20251202-113101,global,global,750,S,S,E,E,S-E.png,S-E.png,sS,sS,mask-2.png,mask-1.png,s,1,0.36893390002660453,s,1,0.12309950008057058,0.05106940004043281,0.049981300020590425,0.09992050006985664,0.0999153999146074,0.7507511000148952
RSVPLG03,km,20251202-112926,1.0.2,20251202-094321,755,Experiment,Both,1,Automatic,main,17,20251202-113105,global,global,300,S,H,E,E,S-E.png,H-E.png,sS,hH,mask-2.png,mask-3.png,s,1,0.567383199930191,h,1,0.0608260000590235,0.04908349993638694,0.05044219992123544,0.0994177998509258,0.10023079998791218,0.29885279992595315
RSVPLG03,km,20251202-112926,1.0.2,20251202-094321,755,Experiment,Both,1,Automatic,main,18,20251202-113110,local,local,750,S,S,E,E,E-S.png,E-S.png,sS,sS,mask-2.png,mask-4.png,s,1,0.33983589988201857,s,1,0.11198089993558824,0.050867100013419986,0.048148500034585595,0.09979659994132817,0.09831549995578825,0.7527121999301016
RSVPLG03,km,20251202-112926,1.0.2,20251202-094321,755,Experiment,Both,1,Automatic,main,19,20251202-113114,local,local,750,S,H,E,A,E-S.png,A-H.png,sS,hH,mask-3.png,mask-4.png,s,1,0.33844150020740926,h,1,0.14981499989517033,0.05017330008558929,0.05017970013432205,0.10041740001179278,0.10038620000705123,0.7499345999676734
RSVPLG03,km,20251202-112926,1.0.2,20251202-094321,755,Experiment,Both,1,Automatic,main,20,20251202-113119,local,global,750,H,H,A,A,A-H.png,H-A.png,hH,hH,mask-1.png,mask-3.png,h,1,0.44400450005196035,h,1,0.3067121999338269,0.05117470002733171,0.048908500000834465,0.10084130009636283,0.09803830017335713,0.7521736000198871
RSVPLG03,km,20251202-112926,1.0.2,20251202-094321,755,Experiment,Both,1,Automatic,main,21,20251202-113124,local,global,300,H,S,A,E,A-H.png,S-E.png,hH,sS,mask-2.png,mask-4.png,h,1,0.6985303000546992,h,0,0.09708049986511469,0.05056160013191402,0.04973800014704466,0.09972440009005368,0.09980159997940063,0.3015924000646919
RSVPLG03,km,20251202-112926,1.0.2,20251202-094321,755,Experiment,Both,1,Automatic,main,22,20251202-113128,local,local,300,S,H,E,A,E-S.png,A-H.png,sS,hH,mask-2.png,mask-2.png,s,1,0.4022844999562949,h,1,0.0678213001228869,0.04968109983019531,0.049637299962341785,0.1012937999330461,0.10034639993682504,0.30096989986486733
RSVPLG03,km,20251202-112926,1.0.2,20251202-094321,755,Experiment,Both,1,Automatic,main,23,20251202-113132,global,local,300,H,S,E,E,H-E.png,E-S.png,hH,sS,mask-4.png,mask-3.png,h,1,0.6274628001265228,s,1,0.07388049992732704,0.04927820013836026,0.05102370004169643,0.09952290006913245,0.10108469985425472,0.2987254001200199
RSVPLG03,km,20251202-112926,1.0.2,20251202-094321,755,Experiment,Both,1,Automatic,main,24,20251202-113137,global,local,750,S,H,E,E,S-E.png,E-H.png,sS,hH,mask-1.png,mask-3.png,s,1,0.27860650001093745,h,1,0.05338859977200627,0.05094449990428984,0.04958499991334975,0.10100799985229969,0.1002853000536561,0.7507301999721676
RSVPLG03,km,20251202-112926,1.0.2,20251202-094321,755,Experiment,Both,1,Automatic,main,25,20251202-113141,global,global,750,H,S,E,E,H-E.png,S-E.png,hH,sS,mask-1.png,mask-1.png,h,1,0.4030390998814255,s,1,0.15239170007407665,0.050208300119265914,0.049975099973380566,0.100281200138852,0.1013374999165535,0.7493354000616819
RSVPLG03,km,20251202-112926,1.0.2,20251202-094321,755,Experiment,Both,1,Automatic,main,26,20251202-113209,global,global,300,H,S,E,E,H-E.png,S-E.png,hH,sS,mask-1.png,mask-2.png,h,1,0.55467540002428,s,1,0.16324730007909238,0.04822449991479516,0.049124599900096655,0.09863250004127622,0.10057009989395738,0.29990920005366206
RSVPLG03,km,20251202-112926,1.0.2,20251202-094321,755,Experiment,Both,1,Automatic,main,27,20251202-113213,local,global,300,H,H,E,E,E-H.png,H-E.png,hH,hH,mask-2.png,mask-4.png,s,0,0.47647709981538355,h,1,1.2648408999666572,0.050652300007641315,0.049237099941819906,0.09967160015366971,0.09928259998559952,0.30051170010119677
RSVPLG03,km,20251202-112926,1.0.2,20251202-094321,755,Experiment,Both,1,Automatic,main,28,20251202-113219,global,global,750,H,H,A,A,H-A.png,H-A.png,hH,hH,mask-4.png,mask-2.png,h,1,0.37554590008221567,h,1,0.11472159996628761,0.048811000073328614,0.05028799991123378,0.09834129991941154,0.10029829991981387,0.748993800021708
RSVPLG03,km,20251202-112926,1.0.2,20251202-094321,755,Experiment,Both,1,Automatic,main,29,20251202-113223,global,global,750,H,S,E,A,H-E.png,S-A.png,hH,sS,mask-4.png,mask-2.png,h,1,0.39748979988507926,s,1,0.13682859996333718,0.04901370010338724,0.04981609992682934,0.1002582001965493,0.10084939980879426,0.7491696001961827
RSVPLG03,km,20251202-112926,1.0.2,20251202-094321,755,Experiment,Both,1,Automatic,main,30,20251202-113228,global,global,750,S,H,E,A,S-E.png,H-A.png,sS,hH,mask-2.png,mask-4.png,s,1,0.2725182001013309,h,1,0.323555399896577,0.048368999967351556,0.04991109995171428,0.09934950014576316,0.09992920001968741,0.7498062001541257
RSVPLG03,km,20251202-112926,1.0.2,20251202-094321,755,Experiment,Both,1,Automatic,main,31,20251202-113233,local,local,750,S,S,E,A,E-S.png,A-S.png,sS,sS,mask-2.png,mask-1.png,s,1,5.302643599919975,s,1,0.11762439995072782,0.05084879999049008,0.04944729991257191,0.10045940009877086,0.09936879994347692,0.7506756000220776
RSVPLG03,km,20251202-112926,1.0.2,20251202-094321,755,Experiment,Both,1,Automatic,main,32,20251202-113242,global,global,750,H,S,E,A,H-E.png,S-A.png,hH,sS,mask-3.png,mask-4.png,h,1,0.8777107000350952,s,1,0.1623665001243353,0.05049880011938512,0.04994980012997985,0.10012280009686947,0.09976300015114248,0.7511553999502212
RSVPLG03,km,20251202-112926,1.0.2,20251202-094321,755,Experiment,Both,1,Automatic,main,33,20251202-113248,global,global,300,S,S,A,E,S-A.png,S-E.png,sS,sS,mask-4.png,mask-3.png,h,0,0.6826722000259906,s,1,0.12333100009709597,0.050935300067067146,0.04894470004364848,0.10009309998713434,0.09927310002967715,0.3019505999982357
RSVPLG03,km,20251202-112926,1.0.2,20251202-094321,755,Experiment,Both,1,Automatic,main,34,20251202-113252,global,local,300,H,S,E,A,H-E.png,A-S.png,hH,sS,mask-4.png,mask-4.png,h,1,0.4305877999868244,s,1,1.698274299968034,0.04994139983318746,0.04812539997510612,0.09996100002899766,0.09825520007871091,0.300491499947384
RSVPLG03,km,20251202-112926,1.0.2,20251202-094321,755,Experiment,Both,1,Automatic,main,35,20251202-113258,global,local,300,H,H,E,E,H-E.png,E-H.png,hH,hH,mask-2.png,mask-3.png,h,1,1.5921910000033677,h,1,0.13856670004315674,0.05062359990552068,0.05025890003889799,0.10072200000286102,0.10019789985381067,0.30001330003142357
RSVPLG03,km,20251202-112926,1.0.2,20251202-094321,755,Experiment,Both,1,Automatic,main,36,20251202-113304,local,local,300,H,H,A,E,A-H.png,E-H.png,hH,hH,mask-1.png,mask-3.png,h,1,0.6283038000110537,h,1,0.2980375001206994,0.05049249995499849,0.050884699914604425,0.09997750003822148,0.10040339990518987,0.2996511000674218
RSVPLG03,km,20251202-112926,1.0.2,20251202-094321,755,Experiment,Both,1,Automatic,main,37,20251202-113309,global,local,750,S,S,E,E,S-E.png,E-S.png,sS,sS,mask-4.png,mask-3.png,s,1,0.32582370005548,s,1,0.13044230011291802,0.04911200003698468,0.0479696998372674,0.09919110010378063,0.09988909983076155,0.7512396001257002
RSVPLG03,km,20251202-112926,1.0.2,20251202-094321,755,Experiment,Both,1,Automatic,main,38,20251202-113313,global,local,300,H,S,A,A,H-A.png,A-S.png,hH,sS,mask-4.png,mask-3.png,h,1,0.5914725000038743,s,1,0.17064219992607832,0.050230600172653794,0.050114599987864494,0.10098570003174245,0.09986720001325011,0.3007964000571519
RSVPLG03,km,20251202-112926,1.0.2,20251202-094321,755,Experiment,Both,1,Automatic,main,39,20251202-113318,local,local,300,S,S,E,A,E-S.png,A-S.png,sS,sS,mask-1.png,mask-3.png,s,1,0.3442281000316143,s,1,0.1287191000301391,0.050739800091832876,0.04980130004696548,0.099932000041008,0.09982199990190566,0.3001327000092715
RSVPLG03,km,20251202-112926,1.0.2,20251202-094321,755,Experiment,Both,1,Automatic,main,40,20251202-113322,local,local,750,S,H,A,E,A-S.png,E-H.png,sS,hH,mask-4.png,mask-2.png,s,1,0.35232080006971955,h,1,0.20953190000727773,0.049858600134029984,0.04905640007928014,0.09994839993305504,0.09912580018863082,0.7504682999569923
RSVPLG03,km,20251202-112926,1.0.2,20251202-094321,755,Experiment,Both,1,Automatic,main,41,20251202-113327,local,global,750,H,S,E,A,E-H.png,S-A.png,hH,sS,mask-3.png,mask-4.png,h,1,0.5674576000310481,h,0,0.1524855000898242,0.047193000093102455,0.051168200094252825,0.09800290013663471,0.10001499997451901,0.7477893000468612
RSVPLG03,km,20251202-112926,1.0.2,20251202-094321,755,Experiment,Both,1,Automatic,main,42,20251202-113332,local,local,300,H,S,A,E,A-H.png,E-S.png,hH,sS,mask-2.png,mask-3.png,h,1,0.3924359998200089,s,1,0.13357069995254278,0.04916399996727705,0.049920700024813414,0.09889900009147823,0.09920260007493198,0.3008423999417573
RSVPLG03,km,20251202-112926,1.0.2,20251202-094321,755,Experiment,Both,1,Automatic,main,43,20251202-113336,local,global,300,S,H,E,A,E-S.png,H-A.png,sS,hH,mask-3.png,mask-1.png,s,1,0.6511085999663919,h,1,0.3104709000326693,0.04869340010918677,0.049974999856203794,0.0987009999807924,0.10082609998062253,0.29978530015796423
RSVPLG03,km,20251202-112926,1.0.2,20251202-094321,755,Experiment,Both,1,Automatic,main,44,20251202-113341,global,local,300,H,H,E,E,H-E.png,E-H.png,hH,hH,mask-3.png,mask-2.png,h,1,0.6534918998368084,s,0,0.042095000157132745,0.04853040003217757,0.05115669989027083,0.09987680008634925,0.10001199995167553,0.2989781000651419
RSVPLG03,km,20251202-112926,1.0.2,20251202-094321,755,Experiment,Both,1,Automatic,main,45,20251202-113345,local,global,750,H,H,E,E,E-H.png,H-E.png,hH,hH,mask-3.png,mask-1.png,s,0,2.5901731001213193,h,1,0.513980999821797,0.05006829998455942,0.04923689994029701,0.09996129991486669,0.10037239990197122,0.7501954999752343
RSVPLG03,km,20251202-112926,1.0.2,20251202-094321,755,Experiment,Both,1,Automatic,main,46,20251202-113352,global,local,750,H,S,E,A,H-E.png,A-S.png,hH,sS,mask-1.png,mask-1.png,h,1,0.35059090005233884,s,1,0.18624449986964464,0.04983810009434819,0.050736800068989396,0.10028679994866252,0.1012183001730591,0.7501717999111861
RSVPLG03,km,20251202-112926,1.0.2,20251202-094321,755,Experiment,Both,1,Automatic,main,47,20251202-113357,local,local,300,H,H,A,E,A-H.png,E-H.png,hH,hH,mask-3.png,mask-1.png,h,1,4.707853100029752,s,0,1.5147551000118256,0.050237299874424934,0.04979080008342862,0.10019079991616309,0.09922740003094077,0.2998322998173535
RSVPLG03,km,20251202-112926,1.0.2,20251202-094321,755,Experiment,Both,1,Automatic,main,48,20251202-113407,global,global,300,H,H,E,A,H-E.png,H-A.png,hH,hH,mask-4.png,mask-3.png,h,1,3.081464400049299,s,0,0.10609749983996153,0.049809099873527884,0.050354900071397424,0.0999749000184238,0.10036589996889234,0.30006249994039536
RSVPLG03,km,20251202-112926,1.0.2,20251202-094321,755,Experiment,Both,1,Automatic,main,49,20251202-113414,global,local,750,H,S,A,A,H-A.png,A-S.png,hH,sS,mask-4.png,mask-2.png,h,1,0.6260512999724597,h,0,0.12147120013833046,0.04951580008491874,0.04864409985020757,0.09870889992453158,0.09894499997608364,0.7513826000504196
RSVPLG03,km,20251202-112926,1.0.2,20251202-094321,755,Experiment,Both,1,Automatic,main,50,20251202-113419,global,local,750,S,S,A,E,S-A.png,E-S.png,sS,sS,mask-1.png,mask-3.png,s,1,0.2616113000549376,s,1,0.1623869000468403,0.049929399974644184,0.04990139999426901,0.09999499982222915,0.09991959994658828,0.7502043999265879
RSVPLG03,km,20251202-112926,1.0.2,20251202-094321,755,Experiment,Both,1,Automatic,main,51,20251202-113426,global,global,300,S,H,A,A,S-A.png,H-A.png,sS,hH,mask-2.png,mask-3.png,s,1,1.0780187998898327,h,1,0.06740130018442869,0.05165709997527301,0.04839030001312494,0.10171389998868108,0.09854670008644462,0.3019006000831723
RSVPLG03,km,20251202-112926,1.0.2,20251202-094321,755,Experiment,Both,1,Automatic,main,52,20251202-113430,global,local,300,S,H,E,A,S-E.png,A-H.png,sS,hH,mask-1.png,mask-4.png,s,1,0.40012010000646114,h,1,0.08174829999916255,0.04978669993579388,0.0502575000282377,0.10022389981895685,0.10205240012146533,0.2993925998453051
RSVPLG03,km,20251202-112926,1.0.2,20251202-094321,755,Experiment,Both,1,Automatic,main,53,20251202-113435,global,local,300,H,H,E,A,H-E.png,A-H.png,hH,hH,mask-1.png,mask-2.png,h,1,0.32944490015506744,h,1,0.09681609994731843,0.04994599986821413,0.04941469989717007,0.10341720003634691,0.09815029986202717,0.30215150001458824
RSVPLG03,km,20251202-112926,1.0.2,20251202-094321,755,Experiment,Both,1,Automatic,main,54,20251202-113439,global,local,300,S,H,E,E,S-E.png,E-H.png,sS,hH,mask-4.png,mask-1.png,s,1,0.4466506000608206,s,0,0.2786153999622911,0.04989759996533394,0.049897999968379736,0.09989189985208213,0.1003093000035733,0.3017186999786645
RSVPLG03,km,20251202-112926,1.0.2,20251202-094321,755,Experiment,Both,1,Automatic,main,55,20251202-113443,local,global,750,S,S,A,A,A-S.png,S-A.png,sS,sS,mask-1.png,mask-2.png,s,1,0.45513320015743375,s,1,0.11303570005111396,0.04963809996843338,0.04995070002041757,0.10018850001506507,0.10041960002854466,0.7493816998321563
RSVPLG03,km,20251202-112926,1.0.2,20251202-094321,755,Experiment,Both,1,Automatic,main,56,20251202-113448,local,global,300,H,H,E,A,E-H.png,H-A.png,hH,hH,mask-3.png,mask-1.png,h,1,1.025833599967882,s,0,0.3071912000887096,0.049038599943742156,0.04994489997625351,0.1000761000905186,0.09993740008212626,0.3000767999328673
RSVPLG03,km,20251202-112926,1.0.2,20251202-094321,755,Experiment,Both,1,Automatic,main,57,20251202-113453,global,global,750,S,S,A,E,S-A.png,S-E.png,sS,sS,mask-2.png,mask-2.png,s,1,0.5947324000298977,s,1,0.31601150007918477,0.04997609998099506,0.05085740005597472,0.09953940007835627,0.1017108999658376,0.7498612999916077
RSVPLG03,km,20251202-112926,1.0.2,20251202-094321,755,Experiment,Both,1,Automatic,main,58,20251202-113458,local,global,750,S,H,E,A,E-S.png,H-A.png,sS,hH,mask-3.png,mask-4.png,s,1,0.6543624000623822,h,1,0.09128229995258152,0.05008789990097284,0.05005399999208748,0.10036369995214045,0.09976699994876981,0.7501195999793708
RSVPLG03,km,20251202-112926,1.0.2,20251202-094321,755,Experiment,Both,1,Automatic,main,59,20251202-113503,global,local,300,S,H,E,E,S-E.png,E-H.png,sS,hH,mask-2.png,mask-1.png,s,1,0.6786602002102882,h,1,0.21920159994624555,0.0490937998984009,0.04952559992671013,0.09932689997367561,0.1003101000096649,0.29880320001393557
RSVPLG03,km,20251202-112926,1.0.2,20251202-094321,755,Experiment,Both,1,Automatic,main,60,20251202-113508,local,global,750,H,H,E,A,E-H.png,H-A.png,hH,hH,mask-4.png,mask-1.png,s,0,1.5552093998994678,h,1,0.00981119996868074,0.05100429989397526,0.05031880014576018,0.10103559982962906,0.09926809999160469,0.7510867998935282
RSVPLG03,km,20251202-112926,1.0.2,20251202-094321,755,Experiment,Both,1,Automatic,main,61,20251202-113513,global,global,300,S,H,E,A,S-E.png,H-A.png,sS,hH,mask-4.png,mask-4.png,s,1,0.4214123000856489,h,1,0.0821303001139313,0.05043680011294782,0.04940279992297292,0.10030369996093214,0.09899479988962412,0.30218080012127757
RSVPLG03,km,20251202-112926,1.0.2,20251202-094321,755,Experiment,Both,1,Automatic,main,62,20251202-113518,local,local,300,H,H,E,E,E-H.png,E-H.png,hH,hH,mask-1.png,mask-2.png,h,1,0.39771980000659823,h,1,0.11969129997305572,0.04870210005901754,0.04910129983909428,0.10002610017545521,0.09906739997677505,0.29952660016715527
RSVPLG03,km,20251202-112926,1.0.2,20251202-094321,755,Experiment,Both,1,Automatic,main,63,20251202-113522,local,global,750,S,S,A,A,A-S.png,S-A.png,sS,sS,mask-3.png,mask-4.png,s,1,0.5642048001755029,h,0,0.18627960002049804,0.04878190020099282,0.04993480001576245,0.09867830015718937,0.10000129998661578,0.7502072001807392
RSVPLG03,km,20251202-112926,1.0.2,20251202-094321,755,Experiment,Both,1,Automatic,main,64,20251202-113527,global,local,750,S,H,A,A,S-A.png,A-H.png,sS,hH,mask-1.png,mask-3.png,s,1,0.20271200011484325,h,1,0.06076110014691949,0.048921599984169006,0.050901800161227584,0.09797660005278885,0.10062370006926358,0.7490232000127435
RSVPLG03,km,20251202-112926,1.0.2,20251202-094321,755,Experiment,Both,1,Automatic,main,65,20251202-113531,global,global,750,S,H,E,E,S-E.png,H-E.png,sS,hH,mask-4.png,mask-1.png,s,1,0.2564334000926465,h,1,0.05785720003768802,0.050952100194990635,0.049981600139290094,0.10106090013869107,0.10006389999762177,0.7511044000275433
RSVPLG03,km,20251202-112926,1.0.2,20251202-094321,755,Experiment,Both,1,Automatic,main,66,20251202-113536,local,local,750,H,H,A,A,A-H.png,A-H.png,hH,hH,mask-3.png,mask-3.png,h,1,0.20996410003863275,h,1,0.1305414999369532,0.05103809991851449,0.05042700003832579,0.10082239983603358,0.10049310000613332,0.7526246998459101
RSVPLG03,km,20251202-112926,1.0.2,20251202-094321,755,Experiment,Both,1,Automatic,main,67,20251202-113540,local,local,750,S,S,E,E,E-S.png,E-S.png,sS,sS,mask-4.png,mask-4.png,s,1,0.45910080010071397,s,1,0.138325700070709,0.05164969991892576,0.04984790016897023,0.10061810002662241,0.09876550012268126,0.7517164999153465
RSVPLG03,km,20251202-112926,1.0.2,20251202-094321,755,Experiment,Both,1,Automatic,main,68,20251202-113545,local,global,750,H,S,A,A,A-H.png,S-A.png,hH,sS,mask-1.png,mask-3.png,h,1,0.5355312000028789,h,0,0.6511371999513358,0.04992929985746741,0.04964410001412034,0.09993320005014539,0.09889940009452403,0.7501425999216735
RSVPLG03,km,20251202-112926,1.0.2,20251202-094321,755,Experiment,Both,1,Automatic,main,69,20251202-113550,local,global,300,S,H,A,A,A-S.png,H-A.png,sS,hH,mask-4.png,mask-2.png,s,1,0.506640600040555,h,1,0.06771350000053644,0.049934899900108576,0.05051279999315739,0.09901409992016852,0.09860939998179674,0.2993021998554468
RSVPLG03,km,20251202-112926,1.0.2,20251202-094321,755,Experiment,Both,1,Automatic,main,70,20251202-113555,local,local,750,H,H,A,E,A-H.png,E-H.png,hH,hH,mask-1.png,mask-1.png,h,1,0.36820339993573725,h,1,0.11915529984980822,0.05002079997211695,0.049002100015059114,0.10107319988310337,0.0990953000728041,0.751121399924159
RSVPLG03,km,20251202-112926,1.0.2,20251202-094321,755,Experiment,Both,1,Automatic,main,71,20251202-113559,local,local,300,S,H,A,E,A-S.png,E-H.png,sS,hH,mask-3.png,mask-4.png,h,0,0.34658459993079305,h,1,1.5445993999019265,0.049956100061535835,0.04992379993200302,0.09990920010022819,0.1003562998957932,0.29974040016531944
RSVPLG03,km,20251202-112926,1.0.2,20251202-094321,755,Experiment,Both,1,Automatic,main,72,20251202-113605,global,global,750,H,S,E,A,H-E.png,S-A.png,hH,sS,mask-2.png,mask-4.png,h,1,0.46462909993715584,s,1,0.17676249984651804,0.049789899960160255,0.049089600099250674,0.09967190003953874,0.09884000010788441,0.7495240999851376
RSVPLG03,km,20251202-112926,1.0.2,20251202-094321,755,Experiment,Both,1,Automatic,main,73,20251202-113609,global,local,750,H,H,E,A,H-E.png,A-H.png,hH,hH,mask-2.png,mask-1.png,h,1,0.31363410013727844,h,1,0.12415379984304309,0.049968100152909756,0.05038910009898245,0.10013430006802082,0.10003910004161298,0.7509304999839514
RSVPLG03,km,20251202-112926,1.0.2,20251202-094321,755,Experiment,Both,1,Automatic,main,74,20251202-113614,local,local,300,S,H,E,E,E-S.png,E-H.png,sS,hH,mask-4.png,mask-4.png,s,1,0.31537560001015663,h,1,0.11930590006522834,0.05114370002411306,0.05071179987862706,0.10100100003182888,0.10069039999507368,0.30007550003938377
RSVPLG03,km,20251202-112926,1.0.2,20251202-094321,755,Experiment,Both,1,Automatic,main,75,20251202-113618,global,local,750,S,S,A,E,S-A.png,E-S.png,sS,sS,mask-1.png,mask-1.png,s,1,0.08845429983921349,s,1,0.1095581001136452,0.04910930013284087,0.04995559994131327,0.0991520001552999,0.10002560005523264,0.749472500057891
RSVPLG03,km,20251202-112926,1.0.2,20251202-094321,755,Experiment,Both,1,Automatic,main,76,20251202-113646,global,local,300,S,H,E,E,S-E.png,E-H.png,sS,hH,mask-2.png,mask-2.png,s,1,0.8615697999484837,h,1,0.5536712999455631,0.047889200039207935,0.04908450017683208,0.09932290017604828,0.10047339997254312,0.29874200001358986
RSVPLG03,km,20251202-112926,1.0.2,20251202-094321,755,Experiment,Both,1,Automatic,main,77,20251202-113651,local,global,750,S,H,A,A,A-S.png,H-A.png,sS,hH,mask-2.png,mask-2.png,s,1,0.4831712001468986,h,1,0.008102399995550513,0.04984869994223118,0.05083619989454746,0.09898269991390407,0.10017599980346859,0.7488454000558704
RSVPLG03,km,20251202-112926,1.0.2,20251202-094321,755,Experiment,Both,1,Automatic,main,78,20251202-113655,local,global,750,H,S,A,A,A-H.png,S-A.png,hH,sS,mask-3.png,mask-1.png,h,1,0.3245646001305431,s,1,0.0669307999778539,0.04891970008611679,0.04899640008807182,0.09929460007697344,0.1000952001195401,0.7509733999613672
RSVPLG03,km,20251202-112926,1.0.2,20251202-094321,755,Experiment,Both,1,Automatic,main,79,20251202-113700,global,local,750,S,S,A,E,S-A.png,E-S.png,sS,sS,mask-1.png,mask-4.png,s,1,0.26970710000023246,s,1,0.10569159989245236,0.049069999950006604,0.0499190001282841,0.10012449999339879,0.10004370007663965,0.7503239999059588
RSVPLG03,km,20251202-112926,1.0.2,20251202-094321,755,Experiment,Both,1,Automatic,main,80,20251202-113704,global,local,750,S,S,E,E,S-E.png,E-S.png,sS,sS,mask-4.png,mask-3.png,s,1,0.3750617001205683,s,1,0.10890719993039966,0.05108930007554591,0.05083619989454746,0.10038460022769868,0.10001299995929003,0.7509623002260923
RSVPLG03,km,20251202-112926,1.0.2,20251202-094321,755,Experiment,Both,1,Automatic,main,81,20251202-113709,local,global,750,H,S,A,E,A-H.png,S-E.png,hH,sS,mask-4.png,mask-3.png,h,1,0.5112485000863671,s,1,0.058931199833750725,0.051068600034341216,0.049705700017511845,0.10124569991603494,0.100600800011307,0.7496996999252588
RSVPLG03,km,20251202-112926,1.0.2,20251202-094321,755,Experiment,Both,1,Automatic,main,82,20251202-113714,local,local,300,H,S,E,E,E-H.png,E-S.png,hH,sS,mask-2.png,mask-2.png,h,1,0.5339380998630077,h,0,0.1307289998512715,0.04989729984663427,0.049909100169315934,0.09991689980961382,0.10062659997493029,0.30015519983135164
RSVPLG03,km,20251202-112926,1.0.2,20251202-094321,755,Experiment,Both,1,Automatic,main,83,20251202-113718,global,global,300,H,H,E,A,H-E.png,H-A.png,hH,hH,mask-4.png,mask-1.png,h,1,0.32862089993432164,h,1,0.12758559989742935,0.0499418000690639,0.047911700094118714,0.0999980999622494,0.09923269995488226,0.2999879999551922
RSVPLG03,km,20251202-112926,1.0.2,20251202-094321,755,Experiment,Both,1,Automatic,main,84,20251202-113722,global,global,750,H,S,E,A,H-E.png,S-A.png,hH,sS,mask-3.png,mask-3.png,h,1,0.3433161999564618,s,1,0.11282739997841418,0.051098400028422475,0.04994879988953471,0.10093880002386868,0.10058199986815453,0.7504220001865178
RSVPLG03,km,20251202-112926,1.0.2,20251202-094321,755,Experiment,Both,1,Automatic,main,85,20251202-113727,global,global,300,S,H,E,A,S-E.png,H-A.png,sS,hH,mask-4.png,mask-3.png,s,1,0.31108610006049275,h,1,0.05823570000939071,0.05107360007241368,0.050000299932435155,0.10061109997332096,0.10012710001319647,0.3006140000652522
RSVPLG03,km,20251202-112926,1.0.2,20251202-094321,755,Experiment,Both,1,Automatic,main,86,20251202-113731,global,local,750,S,H,E,E,S-E.png,E-H.png,sS,hH,mask-1.png,mask-3.png,s,1,0.41910489997826517,s,0,1.3310932000167668,0.04995650006458163,0.048952499870210886,0.09941180003806949,0.0999932000413537,0.7515758001245558
RSVPLG03,km,20251202-112926,1.0.2,20251202-094321,755,Experiment,Both,1,Automatic,main,87,20251202-113737,global,global,300,H,S,A,A,H-A.png,S-A.png,hH,sS,mask-2.png,mask-4.png,h,1,0.5589294999372214,s,1,0.9452818999998271,0.05086560011841357,0.04933559987694025,0.10094460006803274,0.10111909988336265,0.2999887000769377
RSVPLG03,km,20251202-112926,1.0.2,20251202-094321,755,Experiment,Both,1,Automatic,main,88,20251202-113742,global,local,750,S,S,A,E,S-A.png,E-S.png,sS,sS,mask-2.png,mask-2.png,s,1,0.1647280000615865,s,1,0.19290039991028607,0.0489036999642849,0.05082049989141524,0.09931230009533465,0.1013171998783946,0.7496700000483543
RSVPLG03,km,20251202-112926,1.0.2,20251202-094321,755,Experiment,Both,1,Automatic,main,89,20251202-113747,global,global,300,S,S,E,E,S-E.png,S-E.png,sS,sS,mask-2.png,mask-3.png,s,1,0.4814947999548167,h,0,0.5553452000021935,0.048868299927562475,0.050833299988880754,0.0993317998945713,0.10116730001755059,0.2994907000102103
RSVPLG03,km,20251202-112926,1.0.2,20251202-094321,755,Experiment,Both,1,Automatic,main,90,20251202-113752,local,global,750,S,S,A,A,A-S.png,S-A.png,sS,sS,mask-2.png,mask-3.png,s,1,0.40773019986227155,h,0,0.12943689990788698,0.048618000000715256,0.04909099987708032,0.09942019986920059,0.09931959980167449,0.7509431000798941
RSVPLG03,km,20251202-112926,1.0.2,20251202-094321,755,Experiment,Both,1,Automatic,main,91,20251202-113756,global,local,300,H,S,E,E,H-E.png,E-S.png,hH,sS,mask-4.png,mask-1.png,h,1,0.48594990000128746,s,1,0.17054429999552667,0.04980470007285476,0.048897100146859884,0.09980910015292466,0.10045160003937781,0.299798300024122
RSVPLG03,km,20251202-112926,1.0.2,20251202-094321,755,Experiment,Both,1,Automatic,main,92,20251202-113801,local,local,750,S,S,E,E,E-S.png,E-S.png,sS,sS,mask-4.png,mask-1.png,s,1,0.4219978000037372,s,1,0.14122179988771677,0.04914980009198189,0.051157800015062094,0.0995110000949353,0.10113639989867806,0.7494181001093239
RSVPLG03,km,20251202-112926,1.0.2,20251202-094321,755,Experiment,Both,1,Automatic,main,93,20251202-113805,local,global,300,S,H,E,A,E-S.png,H-A.png,sS,hH,mask-2.png,mask-3.png,s,1,0.451490200124681,h,1,0.6615623000543565,0.04870299994945526,0.04998319991864264,0.09861089987680316,0.1007829001173377,0.2995452999603003
RSVPLG03,km,20251202-112926,1.0.2,20251202-094321,755,Experiment,Both,1,Automatic,main,94,20251202-113810,global,global,300,S,H,E,E,S-E.png,H-E.png,sS,hH,mask-1.png,mask-3.png,s,1,0.37695319997146726,h,1,0.10517290001735091,0.04966780007816851,0.05089009995572269,0.09977969992905855,0.10096230008639395,0.29836939997039735
RSVPLG03,km,20251202-112926,1.0.2,20251202-094321,755,Experiment,Both,1,Automatic,main,95,20251202-113815,local,local,300,S,H,E,E,E-S.png,E-H.png,sS,hH,mask-1.png,mask-4.png,s,1,0.2706587999127805,h,1,0.1397319999523461,0.04888230003416538,0.04973719990812242,0.10083610005676746,0.10062159993685782,0.3006333000957966
RSVPLG03,km,20251202-112926,1.0.2,20251202-094321,755,Experiment,Both,1,Automatic,main,96,20251202-113819,local,global,300,S,H,E,E,E-S.png,H-E.png,sS,hH,mask-2.png,mask-4.png,s,1,0.3612936001736671,h,1,0.15457750018686056,0.05006040004082024,0.0499698999337852,0.1000802000053227,0.10076429997570813,0.2997860999312252
RSVPLG03,km,20251202-112926,1.0.2,20251202-094321,755,Experiment,Both,1,Automatic,main,97,20251202-113823,global,global,750,S,H,E,E,S-E.png,H-E.png,sS,hH,mask-3.png,mask-3.png,s,1,0.3212681000586599,h,1,0.15519269998185337,0.04991619987413287,0.0509464000351727,0.0999698000960052,0.10000730003230274,0.7505226000212133
RSVPLG03,km,20251202-112926,1.0.2,20251202-094321,755,Experiment,Both,1,Automatic,main,98,20251202-113828,local,global,300,S,S,E,A,E-S.png,S-A.png,sS,sS,mask-1.png,mask-3.png,s,1,0.3905780999921262,h,0,0.1371530001051724,0.04990429989993572,0.05069190007634461,0.10046919994056225,0.10167329991236329,0.3004517999943346
RSVPLG03,km,20251202-112926,1.0.2,20251202-094321,755,Experiment,Both,1,Automatic,main,99,20251202-113832,local,local,750,S,H,E,E,E-S.png,E-H.png,sS,hH,mask-1.png,mask-2.png,s,1,0.36563669983297586,h,1,0.15185859985649586,0.05099370004609227,0.04913860000669956,0.10176189988851547,0.10027380008250475,0.7512976999860257
RSVPLG03,km,20251202-112926,1.0.2,20251202-094321,755,Experiment,Both,1,Automatic,main,100,20251202-113837,local,local,750,S,S,E,A,E-S.png,A-S.png,sS,sS,mask-3.png,mask-1.png,s,1,0.3325561999808997,s,1,0.12150819995440543,0.04967490001581609,0.04986340017057955,0.0994531000033021,0.09923569997772574,0.7505645998753607
