exp,exp_initials,runtime,ver,modtime,sub,blocktype,targets,cuetype,mode,trialtype,trial,trialtime,t1_level,t2_level,t2_lag,t1,t2,distractor1,distractor2,stimfile1,stimfile2,t1_corr,t2_corr,maskfile1,maskfile2,t1_resp,t1_acc,t1_rt,t2_resp,t2_acc,t2_rt,t1_dur,t2_dur,t1mask_soa,t2mask_soa,t1t2_soa
RSVPLG03,sg,20251118-140803,1.0.2,20251105-084826,748,Introduction,T1,1,Automatic,main,1,20251118-140826,global,global,750,S,H,E,E,S-E.png,H-E.png,sS,hH,mask-4.png,mask-1.png,h,0,0.26620070000353735,none,-5,0,0.09718979999888688,0.09598839999671327,0.20026969999889843,0.19924559999344638,0.7499207000000752
RSVPLG03,sg,20251118-140803,1.0.2,20251105-084826,748,Introduction,T1,1,Automatic,main,2,20251118-140831,global,global,750,S,H,E,A,S-E.png,H-A.png,sS,hH,mask-3.png,mask-2.png,s,1,2.8324912000025506,none,-5,0,0.09751880000112578,0.09752350000053411,0.1995392999961041,0.20043669999722624,0.7497890000013285
RSVPLG03,sg,20251118-140803,1.0.2,20251105-084826,748,Introduction,T1,1,Automatic,main,3,20251118-140838,local,local,750,S,H,E,E,E-S.png,E-H.png,sS,hH,mask-1.png,mask-1.png,s,1,1.083847900001274,none,-5,0,0.09639499999320833,0.09856739999668207,0.19842669999343343,0.19968609999341425,0.7481614999996964
RSVPLG03,sg,20251118-140803,1.0.2,20251105-084826,748,Introduction,T1,1,Automatic,main,4,20251118-140843,global,local,750,H,S,E,A,H-E.png,A-S.png,hH,sS,mask-1.png,mask-1.png,h,1,1.123152799998934,none,-5,0,0.09751849999884143,0.09751459999824874,0.1993633999954909,0.19925289999810047,0.7499338999987231
RSVPLG03,sg,20251118-140803,1.0.2,20251105-084826,748,Introduction,T1,1,Automatic,main,5,20251118-140849,global,global,750,S,S,E,A,S-E.png,S-A.png,sS,sS,mask-4.png,mask-3.png,s,1,0.9071843000056106,none,-5,0,0.09791300000506453,0.09758470000087982,0.20108620000246447,0.19862609999836423,0.7509895000039251
RSVPLG03,sg,20251118-140803,1.0.2,20251105-084826,748,Introduction,T1,1,Automatic,main,6,20251118-140854,local,global,750,H,S,E,A,E-H.png,S-A.png,hH,sS,mask-2.png,mask-2.png,h,1,0.3562002999969991,none,-5,0,0.09752580000349553,0.09655799999745796,0.19859939999878407,0.20064699999784352,0.7491964000000735
RSVPLG03,sg,20251118-140803,1.0.2,20251105-084826,748,Introduction,T1,1,Automatic,main,7,20251118-140858,global,global,750,S,S,E,A,S-E.png,S-A.png,sS,sS,mask-2.png,mask-3.png,s,1,0.5753903000004357,none,-5,0,0.09719179999956395,0.09626600000046892,0.20003379999980098,0.1983817000000272,0.750344000000041
RSVPLG03,sg,20251118-140803,1.0.2,20251105-084826,748,Introduction,T1,1,Automatic,main,8,20251118-140903,local,local,750,S,H,A,E,A-S.png,E-H.png,sS,hH,mask-3.png,mask-1.png,s,1,0.3309584000016912,none,-5,0,0.09758220000367146,0.09771679999539629,0.20163760000286857,0.19876599999406608,0.7512972000040463
RSVPLG03,sg,20251118-140803,1.0.2,20251105-084826,748,Introduction,T1,1,Automatic,main,9,20251118-140908,local,local,750,H,H,E,E,E-H.png,E-H.png,hH,hH,mask-3.png,mask-2.png,h,1,1.1923767999978736,none,-5,0,0.09657870000228286,0.09697959999903105,0.1987790999992285,0.19803319999482483,0.7496919000041089
RSVPLG03,sg,20251118-140803,1.0.2,20251105-084826,748,Introduction,T1,1,Automatic,main,10,20251118-140913,local,global,750,S,H,A,E,A-S.png,H-E.png,sS,hH,mask-4.png,mask-1.png,s,1,0.4076308999938192,none,-5,0,0.09595409999747062,0.09741100000246661,0.19983209999918472,0.2002816000021994,0.7482221999962348
RSVPLG03,sg,20251118-140803,1.0.2,20251105-084826,748,Introduction,T1,1,Automatic,main,11,20251118-140918,local,global,750,S,H,E,A,E-S.png,H-A.png,sS,hH,mask-3.png,mask-2.png,s,1,0.2218663999956334,none,-5,0,0.09635849999904167,0.09625090000190539,0.19944679999753134,0.19922130000486504,0.7500500999958604
RSVPLG03,sg,20251118-140803,1.0.2,20251105-084826,748,Introduction,T1,1,Automatic,main,12,20251118-140922,global,local,750,H,H,E,A,H-E.png,A-H.png,hH,hH,mask-1.png,mask-4.png,h,1,0.48425209999550134,none,-5,0,0.0973426999989897,0.09724210000422318,0.1998773000013898,0.19996540000283858,0.7493889999968815
RSVPLG03,sg,20251118-140803,1.0.2,20251105-084826,748,Introduction,T1,1,Automatic,main,13,20251118-140927,global,local,750,S,S,A,A,S-A.png,A-S.png,sS,sS,mask-3.png,mask-1.png,s,1,0.5299890999958734,none,-5,0,0.0964996999973664,0.09737999999924796,0.19960490000084974,0.20023850000143284,0.7486248999994132
RSVPLG03,sg,20251118-140803,1.0.2,20251105-084826,748,Introduction,T1,1,Automatic,main,14,20251118-140931,local,global,750,H,S,A,E,A-H.png,S-E.png,hH,sS,mask-3.png,mask-4.png,h,1,0.20119890000205487,none,-5,0,0.09737390000373125,0.09739790000458015,0.20026700000016717,0.19926330000453163,0.7488797999976669
RSVPLG03,sg,20251118-140803,1.0.2,20251105-084826,748,Introduction,T1,1,Automatic,main,15,20251118-140936,global,local,750,H,H,E,A,H-E.png,A-H.png,hH,hH,mask-2.png,mask-4.png,h,1,0.44521679999888875,none,-5,0,0.097349600000598,0.09750580000400078,0.19905909999943106,0.19927019999886397,0.7497137999962433
RSVPLG03,sg,20251118-140803,1.0.2,20251105-084826,748,Introduction,T1,1,Automatic,main,16,20251118-140940,local,local,750,S,S,E,A,E-S.png,A-S.png,sS,sS,mask-1.png,mask-4.png,s,1,0.6736879000018234,none,-5,0,0.09742089999781456,0.09737650000170106,0.20028240000101505,0.2002308000010089,0.7502327999973204
RSVPLG03,sg,20251118-141015,1.0.2,20251105-084826,748,Practice,T1,1,Automatic,main,1,20251118-141032,global,local,750,H,H,E,A,H-E.png,A-H.png,hH,hH,mask-2.png,mask-3.png,h,1,0.031807999999728054,none,-5,0,0.04484119999688119,0.048736999997345265,0.09608809999917867,0.10100960000272607,0.7447914000003948
RSVPLG03,sg,20251118-141015,1.0.2,20251105-084826,748,Practice,T1,1,Automatic,main,2,20251118-141036,global,global,300,H,S,A,E,H-A.png,S-E.png,hH,sS,mask-3.png,mask-4.png,h,1,0.4363238000005367,none,-5,0,0.04767290000017965,0.04670299999997951,0.10011690000101225,0.09989209999912418,0.3008421000049566
RSVPLG03,sg,20251118-141015,1.0.2,20251105-084826,748,Practice,T1,1,Automatic,main,3,20251118-141040,local,global,750,H,H,A,E,A-H.png,H-E.png,hH,hH,mask-2.png,mask-4.png,h,1,0.39001949999510543,none,-5,0,0.04849619999731658,0.047526800000923686,0.09948779999831459,0.09857119999651331,0.7511214999976801
RSVPLG03,sg,20251118-141015,1.0.2,20251105-084826,748,Practice,T1,1,Automatic,main,4,20251118-141045,local,global,300,H,H,A,A,A-H.png,H-A.png,hH,hH,mask-4.png,mask-2.png,h,1,0.37526409999554744,none,-5,0,0.048514499998418614,0.048504899998079054,0.09953690000111237,0.09949819999746978,0.2997917000029702
RSVPLG03,sg,20251118-141015,1.0.2,20251105-084826,748,Practice,T1,1,Automatic,main,5,20251118-141048,local,global,750,H,H,E,E,E-H.png,H-E.png,hH,hH,mask-2.png,mask-4.png,h,1,0.3441975999958231,none,-5,0,0.04760840000380995,0.04747180000413209,0.09959430000162683,0.10046510000393027,0.749607300000207
RSVPLG03,sg,20251118-141015,1.0.2,20251105-084826,748,Practice,T1,1,Automatic,main,6,20251118-141053,local,global,300,H,H,A,A,A-H.png,H-A.png,hH,hH,mask-3.png,mask-1.png,h,1,0.36170359999960056,none,-5,0,0.04748509999626549,0.04750689999491442,0.10087480000220239,0.1005038000002969,0.3011733000021195
RSVPLG03,sg,20251118-141015,1.0.2,20251105-084826,748,Practice,T1,1,Automatic,main,7,20251118-141057,local,local,750,S,H,E,E,E-S.png,E-H.png,sS,hH,mask-3.png,mask-3.png,s,1,0.33753150000120513,none,-5,0,0.0476974000048358,0.04764639999484643,0.0998433999993722,0.10067069999786327,0.7500924000050873
RSVPLG03,sg,20251118-141015,1.0.2,20251105-084826,748,Practice,T1,1,Automatic,main,8,20251118-141101,global,global,750,H,H,A,A,H-A.png,H-A.png,hH,hH,mask-3.png,mask-1.png,h,1,0.7831628999992972,none,-5,0,0.04869250000047032,0.04886209999676794,0.10096049999992829,0.10118259999580914,0.7492906000043149
RSVPLG03,sg,20251118-141015,1.0.2,20251105-084826,748,Practice,T1,1,Automatic,main,9,20251118-141106,global,global,750,H,S,A,A,H-A.png,S-A.png,hH,sS,mask-3.png,mask-1.png,h,1,0.5722561000002315,none,-5,0,0.047662600001785904,0.04653870000038296,0.10182630000053905,0.09878079999907641,0.7509687000056147
RSVPLG03,sg,20251118-141015,1.0.2,20251105-084826,748,Practice,T1,1,Automatic,main,10,20251118-141111,local,local,750,H,S,A,E,A-H.png,E-S.png,hH,sS,mask-2.png,mask-1.png,h,1,0.40807679999852553,none,-5,0,0.047715799999423325,0.04797559999860823,0.09970530000282452,0.10093280000000959,0.7489301000023261
RSVPLG03,sg,20251118-141015,1.0.2,20251105-084826,748,Practice,T1,1,Automatic,main,11,20251118-141115,global,local,300,H,H,A,A,H-A.png,A-H.png,hH,hH,mask-3.png,mask-4.png,h,1,0.323012299995753,none,-5,0,0.04664050000428688,0.048669299998437054,0.09968070000468288,0.09984590000385651,0.29839350000111153
RSVPLG03,sg,20251118-141015,1.0.2,20251105-084826,748,Practice,T1,1,Automatic,main,12,20251118-141119,global,global,300,S,S,E,A,S-E.png,S-A.png,sS,sS,mask-4.png,mask-3.png,s,1,1.313475399998424,none,-5,0,0.047517099999822676,0.04743400000006659,0.09952699999848846,0.1005315000002156,0.2997717999969609
RSVPLG03,sg,20251118-141015,1.0.2,20251105-084826,748,Practice,T1,1,Automatic,main,13,20251118-141124,global,local,750,H,H,E,A,H-E.png,A-H.png,hH,hH,mask-1.png,mask-3.png,h,1,0.0319997999977204,none,-5,0,0.046685100001923274,0.04766550000204006,0.09988710000470746,0.09990079999988666,0.74893780000275
RSVPLG03,sg,20251118-141015,1.0.2,20251105-084826,748,Practice,T1,1,Automatic,main,14,20251118-141128,local,local,300,S,H,A,E,A-S.png,E-H.png,sS,hH,mask-1.png,mask-1.png,s,1,0.4455168999993475,none,-5,0,0.046512900000379886,0.047548800001095515,0.09951600000204053,0.09954810000635916,0.2997901999988244
RSVPLG03,sg,20251118-141015,1.0.2,20251105-084826,748,Practice,T1,1,Automatic,main,15,20251118-141132,global,local,300,S,H,E,E,S-E.png,E-H.png,sS,hH,mask-2.png,mask-2.png,s,1,0.35274439999921015,none,-5,0,0.047503299996606074,0.04750659999990603,0.09872819999873172,0.0993293999999878,0.29994629999418976
RSVPLG03,sg,20251118-141015,1.0.2,20251105-084826,748,Practice,T1,1,Automatic,main,16,20251118-141136,local,local,300,H,H,E,E,E-H.png,E-H.png,hH,hH,mask-2.png,mask-3.png,h,1,0.3610173000051873,none,-5,0,0.047587200002453756,0.04871660000208067,0.09967290000349749,0.09992240000428865,0.2980651999969268
RSVPLG03,sg,20251118-141249,1.0.2,20251105-084826,748,Introduction,Both,1,Automatic,main,1,20251118-141328,local,local,750,S,H,E,E,E-S.png,E-H.png,sS,hH,mask-2.png,mask-2.png,s,1,1.5077578999989782,h,1,1.2156468000030145,0.0901263999985531,0.09751139999571024,0.1929147999981069,0.20054199999867706,0.7434360999977798
RSVPLG03,sg,20251118-141249,1.0.2,20251105-084826,748,Introduction,Both,1,Automatic,main,2,20251118-141335,local,global,750,S,H,A,A,A-S.png,H-A.png,sS,hH,mask-1.png,mask-2.png,s,1,1.7848397999987355,h,1,0.4232451999996556,0.09751530000357889,0.09754289999546017,0.20054750000417698,0.2014220999990357,0.7510518000053708
RSVPLG03,sg,20251118-141249,1.0.2,20251105-084826,748,Introduction,Both,1,Automatic,main,3,20251118-141341,local,global,750,S,H,E,E,E-S.png,H-E.png,sS,hH,mask-3.png,mask-2.png,s,1,1.4630122000016854,h,1,0.34813279999798397,0.09845990000030724,0.09655429999838816,0.19958279999991646,0.1995863999982248,0.7518678000051295
RSVPLG03,sg,20251118-141249,1.0.2,20251105-084826,748,Introduction,Both,1,Automatic,main,4,20251118-141347,global,local,750,S,H,A,E,S-A.png,E-H.png,sS,hH,mask-1.png,mask-3.png,s,1,1.0088092000005418,h,1,0.47333249999792315,0.09756090000155382,0.09858070000336738,0.19990289999987,0.1996655000039027,0.7503194999953848
RSVPLG03,sg,20251118-141249,1.0.2,20251105-084826,748,Introduction,Both,1,Automatic,main,5,20251118-141353,global,global,750,S,H,A,E,S-A.png,H-E.png,sS,hH,mask-1.png,mask-4.png,s,1,0.547764199996891,h,1,0.372847600003297,0.09738699999434175,0.09767850000207545,0.19926809999742545,0.20009399999980815,0.7498456999965128
RSVPLG03,sg,20251118-141249,1.0.2,20251105-084826,748,Introduction,Both,1,Automatic,main,6,20251118-141359,local,local,750,S,H,E,E,E-S.png,E-H.png,sS,hH,mask-1.png,mask-2.png,s,1,0.7323699999978999,h,1,0.31291090000013355,0.0975516999969841,0.09585040000092704,0.20063339999614982,0.19981929999630665,0.7508244999989984
RSVPLG03,sg,20251118-141249,1.0.2,20251105-084826,748,Introduction,Both,1,Automatic,main,7,20251118-141404,local,local,750,S,H,A,E,A-S.png,E-H.png,sS,hH,mask-4.png,mask-1.png,s,1,1.0389250999942305,h,1,0.2942765999978292,0.09805929999856744,0.09661559999949532,0.200573499998427,0.1997064000024693,0.7507292000009329
RSVPLG03,sg,20251118-141249,1.0.2,20251105-084826,748,Introduction,Both,1,Automatic,main,8,20251118-141410,global,local,750,H,H,A,E,H-A.png,E-H.png,hH,hH,mask-2.png,mask-3.png,h,1,0.8018522999991546,h,1,0.34802489999856334,0.09755279999808408,0.09753730000375072,0.2005661000002874,0.20157960000506137,0.7502840999950422
RSVPLG03,sg,20251118-141249,1.0.2,20251105-084826,748,Introduction,Both,1,Automatic,main,9,20251118-141415,global,global,750,H,S,A,A,H-A.png,S-A.png,hH,sS,mask-2.png,mask-2.png,h,1,0.6827899999989313,s,1,0.29672690000006696,0.09837279999919701,0.0973567000037292,0.20022090000566095,0.2012211000037496,0.7511402000018279
RSVPLG03,sg,20251118-141249,1.0.2,20251105-084826,748,Introduction,Both,1,Automatic,main,10,20251118-141420,local,global,750,H,H,A,E,A-H.png,H-E.png,hH,hH,mask-3.png,mask-2.png,h,1,1.3434542000031797,s,0,0.3436699000012595,0.09937590000481578,0.09803469999314984,0.2012410000024829,0.1999091999969096,0.7514332000064314
RSVPLG03,sg,20251118-141249,1.0.2,20251105-084826,748,Introduction,Both,1,Automatic,main,11,20251118-141426,local,local,750,H,S,E,E,E-H.png,E-S.png,hH,sS,mask-4.png,mask-2.png,h,1,0.9130306000006385,s,1,0.29626119999738876,0.09737989999848651,0.09750579999672482,0.20004290000360925,0.20040729999891482,0.7499842000033823
RSVPLG03,sg,20251118-141249,1.0.2,20251105-084826,748,Introduction,Both,1,Automatic,main,12,20251118-141432,local,global,750,S,S,E,E,E-S.png,S-E.png,sS,sS,mask-1.png,mask-3.png,h,0,0.4628126000025077,s,1,1.4181805999978678,0.09691429999656975,0.09573470000032103,0.19977649999782443,0.2007545000014943,0.7505536999960896
RSVPLG03,sg,20251118-141249,1.0.2,20251105-084826,748,Introduction,Both,1,Automatic,main,13,20251118-141438,global,global,750,S,S,E,E,S-E.png,S-E.png,sS,sS,mask-3.png,mask-4.png,s,1,0.42195940000237897,s,1,0.22625749999861,0.09754670000256738,0.09755479999876115,0.20044780000171158,0.19966099999874132,0.750268200004939
RSVPLG03,sg,20251118-141249,1.0.2,20251105-084826,748,Introduction,Both,1,Automatic,main,14,20251118-141443,global,local,750,S,H,E,E,S-E.png,E-H.png,sS,hH,mask-3.png,mask-2.png,s,1,0.4700740999978734,h,1,0.2958421000003,0.09764800000266405,0.09759779999876628,0.1997685000023921,0.19852890000038315,0.7518681000001379
RSVPLG03,sg,20251118-141249,1.0.2,20251105-084826,748,Introduction,Both,1,Automatic,main,15,20251118-141448,global,local,750,S,H,A,A,S-A.png,A-H.png,sS,hH,mask-2.png,mask-2.png,s,1,0.5937673000007635,h,1,0.3254863000038313,0.09754760000214446,0.09753169999748934,0.19888969999738038,0.19958529999712482,0.7498750000013388
RSVPLG03,sg,20251118-141249,1.0.2,20251105-084826,748,Introduction,Both,1,Automatic,main,16,20251118-141454,global,global,750,H,H,E,A,H-E.png,H-A.png,hH,hH,mask-2.png,mask-1.png,h,1,0.9837532999954419,s,0,0.30792140000266954,0.09967360000155168,0.09745290000137175,0.20070989999658195,0.20030640000186395,0.7526538999954937
RSVPLG03,sg,20251118-141516,1.0.2,20251105-084826,748,Practice,Both,1,Automatic,main,1,20251118-141554,global,global,300,S,H,E,E,S-E.png,H-E.png,sS,hH,mask-3.png,mask-3.png,s,1,0.5419255000015255,h,1,0.6859093000020948,0.04127460000017891,0.04745320000074571,0.09373490000143647,0.09955629999603843,0.2941502000030596
RSVPLG03,sg,20251118-141516,1.0.2,20251105-084826,748,Practice,Both,1,Automatic,main,2,20251118-141558,global,global,750,S,H,A,A,S-A.png,H-A.png,sS,hH,mask-2.png,mask-4.png,s,1,0.5242021000012755,h,1,0.1384650000036345,0.047742799994011875,0.046150699999998324,0.10038879999774508,0.0994189000048209,0.7507885999948485
RSVPLG03,sg,20251118-141516,1.0.2,20251105-084826,748,Practice,Both,1,Automatic,main,3,20251118-141603,global,global,750,S,S,A,E,S-A.png,S-E.png,sS,sS,mask-2.png,mask-1.png,s,1,0.9072510999976657,s,1,0.1862796999994316,0.04780899999605026,0.04856619999918621,0.10196089999953983,0.10051219999877503,0.7501167000009445
RSVPLG03,sg,20251118-141516,1.0.2,20251105-084826,748,Practice,Both,1,Automatic,main,4,20251118-141609,global,local,300,S,H,E,A,S-E.png,A-H.png,sS,hH,mask-4.png,mask-2.png,s,1,0.7479726000019582,h,1,0.02566089999891119,0.04871920000005048,0.048678300001483876,0.09938039999542525,0.09994510000251466,0.29999799999495735
RSVPLG03,sg,20251118-141516,1.0.2,20251105-084826,748,Practice,Both,1,Automatic,main,5,20251118-141613,local,local,750,H,H,A,E,A-H.png,E-H.png,hH,hH,mask-1.png,mask-2.png,h,1,1.1512163000006694,s,0,0.10539639999478823,0.04707140000391519,0.047674699999333825,0.10012770000321325,0.10085139999864623,0.7482666000069003
RSVPLG03,sg,20251118-141516,1.0.2,20251105-084826,748,Practice,Both,1,Automatic,main,6,20251118-141619,local,local,300,H,H,A,A,A-H.png,A-H.png,hH,hH,mask-1.png,mask-3.png,h,1,0.6290922000043793,h,1,0.21505409999372205,0.047721099996124394,0.04714390000299318,0.09909559999505291,0.09925140000268584,0.3001153999939561
RSVPLG03,sg,20251118-141516,1.0.2,20251105-084826,748,Practice,Both,1,Automatic,main,7,20251118-141623,global,global,300,H,H,A,A,H-A.png,H-A.png,hH,hH,mask-1.png,mask-3.png,h,1,1.0819898000045214,h,1,0.2521119999946677,0.04663349999464117,0.04749650000303518,0.09887429999798769,0.09958159999951022,0.30019219999667257
RSVPLG03,sg,20251118-141516,1.0.2,20251105-084826,748,Practice,Both,1,Automatic,main,8,20251118-141628,local,global,750,S,S,A,A,A-S.png,S-A.png,sS,sS,mask-1.png,mask-2.png,s,1,0.4616602999958559,s,1,0.17043189999822062,0.047703399999591056,0.047681600000942126,0.10162610000406858,0.09959970000636531,0.7501883000004455
RSVPLG03,sg,20251118-141516,1.0.2,20251105-084826,748,Practice,Both,1,Automatic,main,9,20251118-141633,local,global,300,H,S,A,E,A-H.png,S-E.png,hH,sS,mask-2.png,mask-4.png,h,1,0.6071433999968576,s,1,0.22934849999728613,0.04726500000106171,0.04709469999943394,0.10045720000198344,0.09879650000220863,0.30058670000289567
RSVPLG03,sg,20251118-141516,1.0.2,20251105-084826,748,Practice,Both,1,Automatic,main,10,20251118-141638,global,local,750,H,H,A,E,H-A.png,E-H.png,hH,hH,mask-3.png,mask-3.png,h,1,0.4761216999977478,h,1,0.16109359999973094,0.04859270000451943,0.04602080000040587,0.0995870000042487,0.09888189999765018,0.7504072000010638
RSVPLG03,sg,20251118-141516,1.0.2,20251105-084826,748,Practice,Both,1,Automatic,main,11,20251118-141642,global,local,750,H,H,E,E,H-E.png,E-H.png,hH,hH,mask-2.png,mask-3.png,h,1,0.38592680000147084,h,1,0.14946839999902295,0.04572750000079395,0.04661100000521401,0.09872579999500886,0.0994252000018605,0.7485850999946706
RSVPLG03,sg,20251118-141516,1.0.2,20251105-084826,748,Practice,Both,1,Automatic,main,12,20251118-141647,global,local,300,H,S,A,E,H-A.png,E-S.png,hH,sS,mask-1.png,mask-2.png,h,1,0.7382781000051182,h,0,0.2517526000010548,0.04652709999936633,0.0484809999979916,0.09874950000084937,0.09973089999402873,0.2980898000023444
RSVPLG03,sg,20251118-141516,1.0.2,20251105-084826,748,Practice,Both,1,Automatic,main,13,20251118-141652,local,global,300,H,S,E,E,E-H.png,S-E.png,hH,sS,mask-3.png,mask-3.png,h,1,0.47101060000568395,s,1,0.26553689999855123,0.048490099994523916,0.04750800000329036,0.10045529999479186,0.09880279999924824,0.3006452999979956
RSVPLG03,sg,20251118-141516,1.0.2,20251105-084826,748,Practice,Both,1,Automatic,main,14,20251118-141656,local,global,750,H,S,E,A,E-H.png,S-A.png,hH,sS,mask-3.png,mask-4.png,h,1,0.37655829999857815,s,1,0.23211889999947743,0.04917470000509638,0.04723960000410443,0.10019630000169855,0.10022919999755686,0.749895100001595
RSVPLG03,sg,20251118-141516,1.0.2,20251105-084826,748,Practice,Both,1,Automatic,main,15,20251118-141701,local,local,750,H,S,E,E,E-H.png,E-S.png,hH,sS,mask-1.png,mask-4.png,h,1,0.4968780999988667,s,1,0.16485090000060154,0.047628899999835994,0.047408300000824966,0.09984190000250237,0.1004123000020627,0.7493696000019554
RSVPLG03,sg,20251118-141516,1.0.2,20251105-084826,748,Practice,Both,1,Automatic,main,16,20251118-141706,local,local,300,S,S,A,E,A-S.png,E-S.png,sS,sS,mask-4.png,mask-3.png,s,1,0.6467572000037762,h,0,0.22085490000608843,0.04750150000472786,0.047507600000244565,0.10002090000489261,0.0997577000016463,0.29975220000051195
RSVPLG03,sg,20251118-141740,1.0.2,20251105-084826,748,Experiment,Both,1,Automatic,warmup,1,20251118-141919,global,local,750,H,S,A,E,H-A.png,E-S.png,hH,sS,mask-1.png,mask-1.png,h,1,7.620974899997236,s,1,0.022720999993907753,0.04005150000011781,0.04854239999986021,0.09293880000041099,0.09963879999850178,0.7418437000014819
RSVPLG03,sg,20251118-141740,1.0.2,20251105-084826,748,Experiment,Both,1,Automatic,warmup,2,20251118-141923,local,global,300,H,H,A,A,A-H.png,H-A.png,hH,hH,mask-4.png,mask-4.png,h,1,0.41959339999448275,s,0,0.040629399998579174,0.047860799997579306,0.04658499999641208,0.10008930000185501,0.09955479999916861,0.2999643000002834
RSVPLG03,sg,20251118-141740,1.0.2,20251105-084826,748,Experiment,Both,1,Automatic,warmup,3,20251118-141928,local,global,750,S,S,E,E,E-S.png,S-E.png,sS,sS,mask-3.png,mask-2.png,s,1,0.6776077000031364,s,1,0.16373940000630682,0.04770789999747649,0.0468235000007553,0.09990410000318661,0.09899289999884786,0.748685899998236
RSVPLG03,sg,20251118-141740,1.0.2,20251105-084826,748,Experiment,Both,1,Automatic,warmup,4,20251118-141933,local,local,750,S,H,A,A,A-S.png,A-H.png,sS,hH,mask-3.png,mask-4.png,s,1,0.47884580000390997,h,1,0.5648785999946995,0.04794370000308845,0.04760210000677034,0.10128609999810578,0.10129640000377549,0.7481372999973246
RSVPLG03,sg,20251118-141740,1.0.2,20251105-084826,748,Experiment,Both,1,Automatic,main,5,20251118-141938,global,local,750,S,H,A,E,S-A.png,E-H.png,sS,hH,mask-3.png,mask-2.png,s,1,0.4012929999953485,h,1,0.2577173999961815,0.046573899999202695,0.0476730000009411,0.10082390000025043,0.10086620000220137,0.748054099996807
RSVPLG03,sg,20251118-141740,1.0.2,20251105-084826,748,Experiment,Both,1,Automatic,main,6,20251118-141943,local,global,750,S,S,A,A,A-S.png,S-A.png,sS,sS,mask-2.png,mask-3.png,s,1,0.7131047999937437,h,0,0.26563069999974687,0.0466381999940495,0.04776309999579098,0.09885839999333257,0.09874529999797232,0.7488664999982575
RSVPLG03,sg,20251118-141740,1.0.2,20251105-084826,748,Experiment,Both,1,Automatic,main,7,20251118-141948,local,global,300,S,H,A,E,A-S.png,H-E.png,sS,hH,mask-2.png,mask-3.png,s,1,0.714800900001137,s,0,0.8246414999957778,0.04767859999992652,0.04765310000220779,0.09989379999751691,0.0988223000022117,0.29949809999379795
RSVPLG03,sg,20251118-141740,1.0.2,20251105-084826,748,Experiment,Both,1,Automatic,main,8,20251118-141953,local,global,300,H,H,E,E,E-H.png,H-E.png,hH,hH,mask-1.png,mask-3.png,h,1,0.12236490000213962,h,1,0.6371316000004299,0.04748390000168001,0.048233400004392024,0.09928650000074413,0.09996270000556251,0.29887459999736166
RSVPLG03,sg,20251118-141740,1.0.2,20251105-084826,748,Experiment,Both,1,Automatic,main,9,20251118-141957,global,global,750,H,S,A,A,H-A.png,S-A.png,hH,sS,mask-3.png,mask-1.png,h,1,0.2966675999996369,h,0,1.1796974999961094,0.04751440000109142,0.047497799998382106,0.1015144999983022,0.09880759999941802,0.749218999997538
RSVPLG03,sg,20251118-141740,1.0.2,20251105-084826,748,Experiment,Both,1,Automatic,main,10,20251118-142003,global,global,300,H,H,A,A,H-A.png,H-A.png,hH,hH,mask-2.png,mask-4.png,h,1,0.1199886999966111,s,0,0.2532883000021684,0.04658029999700375,0.04651480000029551,0.09902529999817489,0.09842370000114897,0.3001312999986112
RSVPLG03,sg,20251118-141740,1.0.2,20251105-084826,748,Experiment,Both,1,Automatic,main,11,20251118-142007,global,global,300,S,S,A,A,S-A.png,S-A.png,sS,sS,mask-4.png,mask-4.png,s,1,1.2788580000051297,s,1,0.6520659999951022,0.04763909999746829,0.047526800000923686,0.10071089999837568,0.09958010000264039,0.29996419999952195
RSVPLG03,sg,20251118-141740,1.0.2,20251105-084826,748,Experiment,Both,1,Automatic,main,12,20251118-142013,global,local,300,S,H,A,A,S-A.png,A-H.png,sS,hH,mask-2.png,mask-1.png,h,0,0.4603251000007731,s,0,0.33395200000086334,0.04764179999619955,0.0476628000033088,0.0998154999979306,0.09982409999793163,0.2994075999959023
RSVPLG03,sg,20251118-141740,1.0.2,20251105-084826,748,Experiment,Both,1,Automatic,main,13,20251118-142019,global,global,750,S,S,E,A,S-E.png,S-A.png,sS,sS,mask-4.png,mask-3.png,s,1,0.8908213000031537,h,0,2.3968934000004083,0.04769300000043586,0.04574190000130329,0.09959710000111954,0.09792249999736669,0.7498941000012564
RSVPLG03,sg,20251118-141740,1.0.2,20251105-084826,748,Experiment,Both,1,Automatic,main,14,20251118-142025,global,global,750,H,S,A,A,H-A.png,S-A.png,hH,sS,mask-4.png,mask-3.png,s,0,2.5719919000039226,s,1,0.08385669999552192,0.047262700005376246,0.0454911999986507,0.09950039999966975,0.0986542999962694,0.7498150000028545
RSVPLG03,sg,20251118-141740,1.0.2,20251105-084826,748,Experiment,Both,1,Automatic,main,15,20251118-142031,global,global,300,H,S,A,A,H-A.png,S-A.png,hH,sS,mask-2.png,mask-3.png,h,1,0.10078979999525473,s,1,0.2131253999978071,0.047411399995326065,0.04589150000538211,0.10059029999683844,0.09998140000243438,0.30066489999444457
RSVPLG03,sg,20251118-141740,1.0.2,20251105-084826,748,Experiment,Both,1,Automatic,main,16,20251118-142036,local,local,300,S,H,E,E,E-S.png,E-H.png,sS,hH,mask-2.png,mask-3.png,h,0,0.5730561999953352,h,1,0.6392775999993319,0.04692580000119051,0.04769959999975981,0.100244000001112,0.09975929999927757,0.29989239999849815
RSVPLG03,sg,20251118-141740,1.0.2,20251105-084826,748,Experiment,Both,1,Automatic,main,17,20251118-142040,local,global,750,H,H,A,E,A-H.png,H-E.png,hH,hH,mask-1.png,mask-1.png,h,1,0.14117309999710415,h,1,0.6103394000019762,0.04785940000147093,0.04769520000263583,0.10110370000620605,0.09989189999760129,0.7490868000022601
RSVPLG03,sg,20251118-141740,1.0.2,20251105-084826,748,Experiment,Both,1,Automatic,main,18,20251118-142045,local,local,300,S,H,A,E,A-S.png,E-H.png,sS,hH,mask-2.png,mask-3.png,h,0,0.32955889999720966,s,0,0.14971409999998286,0.04721530000097118,0.04754730000422569,0.09821760000340873,0.09953920000407379,0.29851179999968736
RSVPLG03,sg,20251118-141740,1.0.2,20251105-084826,748,Experiment,Both,1,Automatic,main,19,20251118-142050,global,local,750,H,H,A,A,H-A.png,A-H.png,hH,hH,mask-1.png,mask-1.png,h,1,0.49135080000269227,s,0,0.13499220000085188,0.04752409999491647,0.04753989999881014,0.10157819999585627,0.0989075999968918,0.7496752000006381
RSVPLG03,sg,20251118-141740,1.0.2,20251105-084826,748,Experiment,Both,1,Automatic,main,20,20251118-142055,local,global,300,S,H,A,A,A-S.png,H-A.png,sS,hH,mask-4.png,mask-4.png,s,1,0.4242850000009639,s,0,0.12198910000006435,0.04762069999560481,0.045877099997596815,0.09957289999874774,0.09999279999465216,0.2996019999991404
RSVPLG03,sg,20251118-141740,1.0.2,20251105-084826,748,Experiment,Both,1,Automatic,main,21,20251118-142059,local,global,300,S,H,A,A,A-S.png,H-A.png,sS,hH,mask-3.png,mask-1.png,s,1,0.6335369000007631,h,1,0.8221546999993734,0.047497999999905005,0.04752860000007786,0.10048120000283234,0.099363599998469,0.2996802000052412
RSVPLG03,sg,20251118-141740,1.0.2,20251105-084826,748,Experiment,Both,1,Automatic,main,22,20251118-142104,global,global,300,S,H,A,E,S-A.png,H-E.png,sS,hH,mask-1.png,mask-2.png,s,1,1.067766500003927,h,1,0.24503070000355365,0.04654080000182148,0.048456099997565616,0.09954959999595303,0.10133369999675779,0.2983496000015293
RSVPLG03,sg,20251118-141740,1.0.2,20251105-084826,748,Experiment,Both,1,Automatic,main,23,20251118-142109,local,global,750,S,S,E,A,E-S.png,S-A.png,sS,sS,mask-4.png,mask-3.png,s,1,0.569223400001647,h,0,0.56833860000188,0.04757950000202982,0.045557600002211984,0.10065100000065286,0.09890869999799179,0.7491700000027777
RSVPLG03,sg,20251118-141740,1.0.2,20251105-084826,748,Experiment,Both,1,Automatic,main,24,20251118-142114,global,local,750,S,H,E,A,S-E.png,A-H.png,sS,hH,mask-1.png,mask-3.png,s,1,0.4219516000011936,h,1,0.1314799999963725,0.04742979999718955,0.04553889999806415,0.10136429999693064,0.09960940000019036,0.7503572999994503
RSVPLG03,sg,20251118-141740,1.0.2,20251105-084826,748,Experiment,Both,1,Automatic,main,25,20251118-142119,global,local,300,H,S,A,E,H-A.png,E-S.png,hH,sS,mask-1.png,mask-4.png,h,1,0.2911235000065062,s,1,0.09506639999744948,0.04660409999632975,0.04740029999811668,0.10056310000072699,0.10027709999849321,0.30031700000108685
RSVPLG03,sg,20251118-141740,1.0.2,20251105-084826,748,Experiment,Both,1,Automatic,main,26,20251118-142127,local,global,300,S,H,A,A,A-S.png,H-A.png,sS,hH,mask-1.png,mask-1.png,h,0,3.9191550000032294,s,0,0.027550800004974008,0.04754369999864139,0.047500200002104975,0.09963270000298508,0.10053329999936977,0.2998909000016283
RSVPLG03,sg,20251118-141740,1.0.2,20251105-084826,748,Experiment,Both,1,Automatic,main,27,20251118-142131,global,local,750,H,H,E,A,H-E.png,A-H.png,hH,hH,mask-2.png,mask-3.png,h,1,0.7108895999990636,h,1,0.40239699999801815,0.04833900000085123,0.04855659999884665,0.10027030000492232,0.10088689999975031,0.7482148000053712
RSVPLG03,sg,20251118-141740,1.0.2,20251105-084826,748,Experiment,Both,1,Automatic,main,28,20251118-142136,local,global,750,S,H,E,E,E-S.png,H-E.png,sS,hH,mask-4.png,mask-3.png,s,1,0.42525860000023386,h,1,0.08530679999967106,0.047529700001177844,0.04768599999806611,0.10153539999737404,0.09986860000208253,0.74981729999854
RSVPLG03,sg,20251118-141740,1.0.2,20251105-084826,748,Experiment,Both,1,Automatic,main,29,20251118-142141,global,global,750,H,H,E,A,H-E.png,H-A.png,hH,hH,mask-3.png,mask-3.png,h,1,0.02188190000015311,h,1,0.6316030000016326,0.04766820000077132,0.04776100000162842,0.09954979999747593,0.09998859999905108,0.7476687000016682
RSVPLG03,sg,20251118-141740,1.0.2,20251105-084826,748,Experiment,Both,1,Automatic,main,30,20251118-142145,global,local,750,S,S,E,A,S-E.png,A-S.png,sS,sS,mask-1.png,mask-1.png,s,1,1.2337453000000096,h,0,0.08344940000097267,0.048678600003768224,0.045661999996809755,0.10031770000205142,0.09970230000180891,0.7499201000027824
RSVPLG03,sg,20251118-141740,1.0.2,20251105-084826,748,Experiment,Both,1,Automatic,main,31,20251118-142151,local,global,750,S,S,A,A,A-S.png,S-A.png,sS,sS,mask-4.png,mask-3.png,s,1,0.5112206999983755,h,0,0.2150586999996449,0.04768350000085775,0.0477210000026389,0.09988009999506176,0.09981289999996079,0.7497682999965036
RSVPLG03,sg,20251118-141740,1.0.2,20251105-084826,748,Experiment,Both,1,Automatic,main,32,20251118-142156,local,local,750,S,H,A,A,A-S.png,A-H.png,sS,hH,mask-2.png,mask-3.png,s,1,1.045581399994262,h,1,0.30741439999837894,0.04750610000337474,0.0485088999994332,0.10037540000485023,0.09950489999755519,0.7482404000038514
RSVPLG03,sg,20251118-141740,1.0.2,20251105-084826,748,Experiment,Both,1,Automatic,main,33,20251118-142202,local,global,750,S,H,A,E,A-S.png,H-E.png,sS,hH,mask-4.png,mask-2.png,s,1,0.8825130000041099,s,0,0.14030829999683192,0.047532499993394595,0.04753070000151638,0.10058719999506138,0.09861790000286419,0.7498073999959161
RSVPLG03,sg,20251118-141740,1.0.2,20251105-084826,748,Experiment,Both,1,Automatic,main,34,20251118-142207,local,global,750,S,S,A,E,A-S.png,S-E.png,sS,sS,mask-1.png,mask-3.png,s,1,1.1137852000028943,h,0,0.2607099000015296,0.04896259999804897,0.04633269999612821,0.09998629999608966,0.09907089999614982,0.7499127999981283
RSVPLG03,sg,20251118-141740,1.0.2,20251105-084826,748,Experiment,Both,1,Automatic,main,35,20251118-142212,global,global,750,H,H,E,A,H-E.png,H-A.png,hH,hH,mask-3.png,mask-4.png,h,1,0.08545350000349572,s,0,0.043873800001165364,0.047522000000753906,0.04856109999673208,0.09854790000099456,0.09942299999966053,0.747524099999282
RSVPLG03,sg,20251118-141740,1.0.2,20251105-084826,748,Experiment,Both,1,Automatic,main,36,20251118-142218,local,global,300,S,S,E,E,E-S.png,S-E.png,sS,sS,mask-2.png,mask-1.png,s,1,0.5197257000036188,h,0,1.607060200003616,0.04752059999736957,0.047616600000765175,0.09945489999518031,0.09967730000062147,0.29844999999477295
RSVPLG03,sg,20251118-141740,1.0.2,20251105-084826,748,Experiment,Both,1,Automatic,main,37,20251118-142222,global,local,300,H,H,A,A,H-A.png,A-H.png,hH,hH,mask-2.png,mask-4.png,h,1,0.12979460000497056,s,0,0.10228569999890169,0.047643699996115174,0.04746960000193212,0.09983919999649515,0.1006515999979456,0.29927129999850877
RSVPLG03,sg,20251118-141740,1.0.2,20251105-084826,748,Experiment,Both,1,Automatic,main,38,20251118-142228,global,global,750,H,S,E,E,H-E.png,S-E.png,hH,sS,mask-1.png,mask-1.png,h,1,1.6004525999960606,h,0,0.9210495000006631,0.04654369999479968,0.04649079999944661,0.10062079999624984,0.10068379999574972,0.7482654999985243
RSVPLG03,sg,20251118-141740,1.0.2,20251105-084826,748,Experiment,Both,1,Automatic,main,39,20251118-142233,global,local,750,S,H,E,E,S-E.png,E-H.png,sS,hH,mask-1.png,mask-4.png,h,0,0.10290309999982128,s,0,0.025685799999337178,0.04654100000334438,0.04782300000078976,0.10061839999980293,0.09963350000180071,0.748245599999791
RSVPLG03,sg,20251118-141740,1.0.2,20251105-084826,748,Experiment,Both,1,Automatic,main,40,20251118-142238,global,global,750,S,H,E,E,S-E.png,H-E.png,sS,hH,mask-4.png,mask-3.png,s,1,0.809177199997066,h,1,1.1345217000052799,0.04755049999948824,0.04687269999703858,0.09869679999974323,0.10005919999821344,0.7486084999982268
RSVPLG03,sg,20251118-141740,1.0.2,20251105-084826,748,Experiment,Both,1,Automatic,main,41,20251118-142243,local,local,300,S,S,E,E,E-S.png,E-S.png,sS,sS,mask-3.png,mask-4.png,s,1,0.5781760000027134,s,1,0.12205610000091838,0.0468235000007553,0.0464473000029102,0.09975990000384627,0.0996549999981653,0.3004517000008491
RSVPLG03,sg,20251118-141740,1.0.2,20251105-084826,748,Experiment,Both,1,Automatic,main,42,20251118-142248,local,global,750,H,H,A,E,A-H.png,H-E.png,hH,hH,mask-3.png,mask-2.png,h,1,0.9534634000010556,h,1,0.8361875000045984,0.04667889999836916,0.047667799997725524,0.09890340000129072,0.09985710000182735,0.7470810000013444
RSVPLG03,sg,20251118-141740,1.0.2,20251105-084826,748,Experiment,Both,1,Automatic,main,43,20251118-142253,global,local,750,S,S,E,A,S-E.png,A-S.png,sS,sS,mask-2.png,mask-1.png,s,1,0.9657295999932103,s,1,0.09733499999856576,0.046762600002693944,0.04781799999909708,0.098946000005526,0.10092129999975441,0.7472342000037315
RSVPLG03,sg,20251118-141740,1.0.2,20251105-084826,748,Experiment,Both,1,Automatic,main,44,20251118-142258,global,global,300,S,H,A,E,S-A.png,H-E.png,sS,hH,mask-4.png,mask-1.png,s,1,2.40808260000631,h,1,0.32941860000573797,0.04752889999508625,0.048506500002986286,0.10053259999403963,0.0998055000018212,0.29925359999469947
RSVPLG03,sg,20251118-141740,1.0.2,20251105-084826,748,Experiment,Both,1,Automatic,main,45,20251118-142305,global,local,300,H,H,E,A,H-E.png,A-H.png,hH,hH,mask-2.png,mask-3.png,h,1,0.23006299999542534,h,1,0.49727429999620654,0.04749910000100499,0.046741299993300345,0.10051660000317497,0.09974059999512974,0.29945770000631455
RSVPLG03,sg,20251118-141740,1.0.2,20251105-084826,748,Experiment,Both,1,Automatic,main,46,20251118-142309,global,global,300,S,H,E,E,S-E.png,H-E.png,sS,hH,mask-3.png,mask-2.png,h,0,0.11600500000349712,h,1,0.48033489999943413,0.047526700000162236,0.047611499998311047,0.09956090000196127,0.10163969999848632,0.2979797000007238
RSVPLG03,sg,20251118-141740,1.0.2,20251105-084826,748,Experiment,Both,1,Automatic,main,47,20251118-142314,local,local,300,H,H,A,E,A-H.png,E-H.png,hH,hH,mask-4.png,mask-2.png,h,1,0.5330604999981006,s,0,0.1510070000003907,0.04621860000042943,0.04673309999634512,0.09879070000170032,0.09995820000040112,0.2995721000042977
RSVPLG03,sg,20251118-141740,1.0.2,20251105-084826,748,Experiment,Both,1,Automatic,main,48,20251118-142318,global,global,300,H,S,A,E,H-A.png,S-E.png,hH,sS,mask-2.png,mask-1.png,h,1,0.4754579000000376,s,1,0.07368249999854015,0.047311599999375176,0.04569810000248253,0.10091090000059921,0.09970340000290889,0.3007426999974996
RSVPLG03,sg,20251118-141740,1.0.2,20251105-084826,748,Experiment,Both,1,Automatic,main,49,20251118-142324,local,local,750,S,S,E,E,E-S.png,E-S.png,sS,sS,mask-1.png,mask-2.png,s,1,1.1225258000049507,s,1,0.4367469000062556,0.048944500005745795,0.048390200005087536,0.09983270000520861,0.10125430000334745,0.7482993000012357
RSVPLG03,sg,20251118-141740,1.0.2,20251105-084826,748,Experiment,Both,1,Automatic,main,50,20251118-142330,global,local,300,H,H,A,E,H-A.png,E-H.png,hH,hH,mask-4.png,mask-3.png,h,1,2.0731334000010975,h,1,0.6161463000025833,0.04757320000499021,0.047412900006747805,0.1005760000043665,0.09941290000278968,0.29985149999993155
RSVPLG03,sg,20251118-141740,1.0.2,20251105-084826,748,Experiment,Both,1,Automatic,main,51,20251118-142346,local,local,750,S,H,A,A,A-S.png,A-H.png,sS,hH,mask-4.png,mask-1.png,s,1,0.658577599999262,s,0,0.05500159999792231,0.04769530000339728,0.047381200005474966,0.10074290000193287,0.10040909999952419,0.7488367999976617
RSVPLG03,sg,20251118-141740,1.0.2,20251105-084826,748,Experiment,Both,1,Automatic,main,52,20251118-142351,global,global,750,S,S,A,A,S-A.png,S-A.png,sS,sS,mask-2.png,mask-1.png,h,0,12.578028600000835,s,1,0.07292559999768855,0.04768260000128066,0.045649200001207646,0.09987130000081379,0.09977149999758694,0.750222800001211
RSVPLG03,sg,20251118-141740,1.0.2,20251105-084826,748,Experiment,Both,1,Automatic,main,53,20251118-142355,global,global,300,S,H,A,E,S-A.png,H-E.png,sS,hH,mask-4.png,mask-1.png,h,0,0.4851568999947631,s,0,0.4082448999979533,0.04766389999713283,0.04650979999860283,0.09869719999551307,0.10000729999592295,0.2993489000000409
RSVPLG03,sg,20251118-141740,1.0.2,20251105-084826,748,Experiment,Both,1,Automatic,main,54,20251118-142400,local,local,750,S,S,A,A,A-S.png,A-S.png,sS,sS,mask-2.png,mask-3.png,s,1,0.7502583000023151,s,1,0.14120620000176132,0.048689999995986,0.047720800001116004,0.10086620000220137,0.10057170000072801,0.7487455000009504
RSVPLG03,sg,20251118-141740,1.0.2,20251105-084826,748,Experiment,Both,1,Automatic,main,55,20251118-142406,local,local,750,H,H,E,A,E-H.png,A-H.png,hH,hH,mask-2.png,mask-2.png,h,1,1.0229892000061227,h,1,0.5359534000017447,0.046660600004543085,0.04767060000449419,0.09985130000131903,0.0999082999987877,0.7471277000004193
RSVPLG03,sg,20251118-141740,1.0.2,20251105-084826,748,Experiment,Both,1,Automatic,main,56,20251118-142410,local,global,750,S,S,A,E,A-S.png,S-E.png,sS,sS,mask-4.png,mask-4.png,h,0,0.14065390000178013,s,1,0.3951156000039191,0.04769020000094315,0.04772210000373889,0.09990590000234079,0.09993709999980638,0.7474619999993593
RSVPLG03,sg,20251118-141740,1.0.2,20251105-084826,748,Experiment,Both,1,Automatic,main,57,20251118-142415,global,global,750,H,H,E,A,H-E.png,H-A.png,hH,hH,mask-2.png,mask-3.png,h,1,0.4108773999978439,h,1,0.4866122000021278,0.04751350000151433,0.04854669999622274,0.10051979999843752,0.09971139999834122,0.748194899999362
RSVPLG03,sg,20251118-141740,1.0.2,20251105-084826,748,Experiment,Both,1,Automatic,main,58,20251118-142420,global,global,300,H,S,A,E,H-A.png,S-E.png,hH,sS,mask-2.png,mask-1.png,h,1,0.09998979999363655,s,1,0.03915419999975711,0.047543900000164285,0.04751630000100704,0.10052390000055311,0.09879680000449298,0.30004380000173114
RSVPLG03,sg,20251118-141740,1.0.2,20251105-084826,748,Experiment,Both,1,Automatic,main,59,20251118-142426,local,local,300,S,S,A,E,A-S.png,E-S.png,sS,sS,mask-3.png,mask-2.png,s,1,0.40569260000484064,s,1,0.09909359999437584,0.046590799996920396,0.047512100005405955,0.09976149999420159,0.09956050000619143,0.29929279999487335
RSVPLG03,sg,20251118-141740,1.0.2,20251105-084826,748,Experiment,Both,1,Automatic,main,60,20251118-142430,global,local,750,H,H,E,A,H-E.png,A-H.png,hH,hH,mask-4.png,mask-2.png,h,1,1.4849666000009165,s,0,0.26446520000172313,0.047720599999593105,0.04572199999529403,0.09900200000265613,0.09847119999903953,0.7500619000056759
RSVPLG03,sg,20251118-141740,1.0.2,20251105-084826,748,Experiment,Both,1,Automatic,main,61,20251118-142435,local,global,300,H,S,A,A,A-H.png,S-A.png,hH,sS,mask-4.png,mask-4.png,h,1,0.37485620000370545,s,1,0.23175009999977192,0.04754289999982575,0.047019099998578895,0.09953780000068946,0.10008550000202376,0.2991576999993413
RSVPLG03,sg,20251118-141740,1.0.2,20251105-084826,748,Experiment,Both,1,Automatic,main,62,20251118-142439,local,local,750,H,H,E,A,E-H.png,A-H.png,hH,hH,mask-2.png,mask-4.png,s,0,0.5787866000027861,s,0,0.11468520000198623,0.04767090000677854,0.04565030000230763,0.1000456000037957,0.09805510000296636,0.7499399000007543
RSVPLG03,sg,20251118-141740,1.0.2,20251105-084826,748,Experiment,Both,1,Automatic,main,63,20251118-142444,global,global,300,S,H,E,E,S-E.png,H-E.png,sS,hH,mask-1.png,mask-3.png,s,1,1.3847839000009117,h,1,0.4131405000007362,0.04855060000409139,0.04653189999953611,0.10061690000293311,0.09958539999934146,0.29987240000627935
RSVPLG03,sg,20251118-141740,1.0.2,20251105-084826,748,Experiment,Both,1,Automatic,main,64,20251118-142449,local,local,750,H,S,A,E,A-H.png,E-S.png,hH,sS,mask-2.png,mask-3.png,h,1,0.15716470000188565,h,0,0.41989900000044145,0.04659639999590581,0.04752320000261534,0.10063939999963623,0.10054669999954058,0.7480901999952039
RSVPLG03,sg,20251118-141740,1.0.2,20251105-084826,748,Experiment,Both,1,Automatic,main,65,20251118-142454,global,local,300,H,H,E,A,H-E.png,A-H.png,hH,hH,mask-1.png,mask-3.png,h,1,0.13190979999490082,s,0,0.21310539999831235,0.04754359999787994,0.04749720000108937,0.10101179999765009,0.10072019999643089,0.29974719999881927
RSVPLG03,sg,20251118-141740,1.0.2,20251105-084826,748,Experiment,Both,1,Automatic,main,66,20251118-142458,local,local,300,S,H,E,A,E-S.png,A-H.png,sS,hH,mask-4.png,mask-3.png,s,1,0.4082336999999825,h,1,0.47954319999553263,0.04717060000257334,0.047083700002986006,0.10034889999951702,0.10009900000295602,0.30008039999665925
RSVPLG03,sg,20251118-141740,1.0.2,20251105-084826,748,Experiment,Both,1,Automatic,main,67,20251118-142503,global,local,750,S,S,E,A,S-E.png,A-S.png,sS,sS,mask-4.png,mask-1.png,s,1,0.5866910000040662,s,1,0.14010969999799272,0.04722070000570966,0.047520000000076834,0.10034170000290032,0.10150989999965532,0.7481630000038422
RSVPLG03,sg,20251118-141740,1.0.2,20251105-084826,748,Experiment,Both,1,Automatic,main,68,20251118-142508,local,local,750,H,S,A,A,A-H.png,A-S.png,hH,sS,mask-1.png,mask-3.png,h,1,0.11739939999824855,h,0,0.5878421000015805,0.047556299999996554,0.04571260000375332,0.09956870000314666,0.09977910000452539,0.7497495999996318
RSVPLG03,sg,20251118-141740,1.0.2,20251105-084826,748,Experiment,Both,1,Automatic,main,69,20251118-142512,global,global,750,S,S,E,E,S-E.png,S-E.png,sS,sS,mask-1.png,mask-4.png,s,1,1.4142331999973976,h,0,0.12424369999644114,0.04750699999567587,0.04937470000004396,0.10150309999880847,0.10121000000071945,0.7477853999953368
RSVPLG03,sg,20251118-141740,1.0.2,20251105-084826,748,Experiment,Both,1,Automatic,main,70,20251118-142518,local,global,750,H,S,E,A,E-H.png,S-A.png,hH,sS,mask-2.png,mask-3.png,h,1,0.24780469999677734,s,1,0.1347892999983742,0.04746049999812385,0.0485056000034092,0.10048639999877196,0.10075630000210367,0.7480875999972341
RSVPLG03,sg,20251118-141740,1.0.2,20251105-084826,748,Experiment,Both,1,Automatic,main,71,20251118-142523,local,global,750,S,H,A,A,A-S.png,H-A.png,sS,hH,mask-2.png,mask-1.png,s,1,0.39676029999827733,s,0,0.07216949999565259,0.046092199998383876,0.04883539999718778,0.0991682000021683,0.10110059999715304,0.7470391000024392
RSVPLG03,sg,20251118-141740,1.0.2,20251105-084826,748,Experiment,Both,1,Automatic,main,72,20251118-142528,local,local,300,S,S,E,A,E-S.png,A-S.png,sS,sS,mask-4.png,mask-3.png,s,1,0.4824559999979101,h,0,0.4260481000019354,0.04750670000066748,0.04660839999996824,0.09986340000614291,0.09968149999622256,0.30049840000719996
RSVPLG03,sg,20251118-141740,1.0.2,20251105-084826,748,Experiment,Both,1,Automatic,main,73,20251118-142532,global,global,750,H,S,A,E,H-A.png,S-E.png,hH,sS,mask-3.png,mask-3.png,s,0,0.8106617000012193,s,1,0.12558669999998529,0.04636370000662282,0.04677660000015749,0.09982360000140034,0.09927829999651294,0.7484652000057395
RSVPLG03,sg,20251118-141740,1.0.2,20251105-084826,748,Experiment,Both,1,Automatic,main,74,20251118-142537,global,global,300,S,S,A,E,S-A.png,S-E.png,sS,sS,mask-2.png,mask-4.png,s,1,0.6273370999988401,h,0,0.2509998000023188,0.04662909999751719,0.04851129999588011,0.09971209999639541,0.10090420000051381,0.29882240000006277
RSVPLG03,sg,20251118-141740,1.0.2,20251105-084826,748,Experiment,Both,1,Automatic,main,75,20251118-142542,global,local,300,H,H,A,A,H-A.png,A-H.png,hH,hH,mask-4.png,mask-4.png,h,1,0.07502290000411449,s,0,0.025941900006728247,0.04754459999821847,0.047514800004137214,0.09955679999984568,0.1005250000016531,0.2998250999953598
RSVPLG03,sg,20251118-141740,1.0.2,20251105-084826,748,Experiment,Both,1,Automatic,main,76,20251118-142554,local,local,750,H,H,E,A,E-H.png,A-H.png,hH,hH,mask-3.png,mask-3.png,h,1,2.1676135000016075,h,1,0.5766121999986353,0.04859710000164341,0.04753519999940181,0.09960129999672063,0.10056749999785097,0.7483049000002211
RSVPLG03,sg,20251118-141740,1.0.2,20251105-084826,748,Experiment,Both,1,Automatic,main,77,20251118-142559,local,global,300,S,H,E,E,E-S.png,H-E.png,sS,hH,mask-1.png,mask-4.png,s,1,0.6325978999957442,s,0,0.1240276000025915,0.04665740000200458,0.04755470000236528,0.10061030000360915,0.09960319999663625,0.2988398000015877
RSVPLG03,sg,20251118-141740,1.0.2,20251105-084826,748,Experiment,Both,1,Automatic,main,78,20251118-142604,local,global,750,H,S,A,A,A-H.png,S-A.png,hH,sS,mask-4.png,mask-4.png,h,1,0.10800590000144439,s,1,0.2970765999998548,0.04670470000564819,0.047749999997904524,0.1000421000062488,0.09971629999927245,0.7490279000048758
RSVPLG03,sg,20251118-141740,1.0.2,20251105-084826,748,Experiment,Both,1,Automatic,main,79,20251118-142609,global,local,750,S,H,E,A,S-E.png,A-H.png,sS,hH,mask-3.png,mask-4.png,s,1,0.4500073999952292,s,0,0.16742620000150055,0.047778200001630466,0.047658199997385964,0.09998749999795109,0.09884030000102939,0.7492660999996588
RSVPLG03,sg,20251118-141740,1.0.2,20251105-084826,748,Experiment,Both,1,Automatic,main,80,20251118-142614,local,global,300,H,S,A,E,A-H.png,S-E.png,hH,sS,mask-3.png,mask-1.png,h,1,0.8834637999971164,h,0,1.6668344999998226,0.04604809999727877,0.04851809999672696,0.09851920000073733,0.10156719999940833,0.29758379999839235
RSVPLG03,sg,20251118-141740,1.0.2,20251105-084826,748,Experiment,Both,1,Automatic,main,81,20251118-142619,local,local,750,H,H,E,E,E-H.png,E-H.png,hH,hH,mask-1.png,mask-2.png,h,1,0.09172029999899678,s,0,0.23347179999836953,0.047795999998925254,0.04767269999865675,0.10191079999640351,0.09985739999683574,0.7493184999984805
RSVPLG03,sg,20251118-141740,1.0.2,20251105-084826,748,Experiment,Both,1,Automatic,main,82,20251118-142624,local,global,300,S,S,A,E,A-S.png,S-E.png,sS,sS,mask-2.png,mask-1.png,s,1,0.7383627999952296,s,1,0.15725930000189692,0.04756090000591939,0.04651120000198716,0.10057170000072801,0.09951469999941764,0.30079180000029737
RSVPLG03,sg,20251118-141740,1.0.2,20251105-084826,748,Experiment,Both,1,Automatic,main,83,20251118-142629,local,local,300,H,S,A,A,A-H.png,A-S.png,hH,sS,mask-1.png,mask-1.png,h,1,0.4915928999980679,s,1,0.1931403999988106,0.04653939999843715,0.047827199996390846,0.09955700000136858,0.10093129999586381,0.2989830000005895
RSVPLG03,sg,20251118-141740,1.0.2,20251105-084826,748,Experiment,Both,1,Automatic,main,84,20251118-142634,global,local,750,H,S,A,A,H-A.png,A-S.png,hH,sS,mask-3.png,mask-3.png,s,0,0.9669084999986808,h,0,0.8674105000027339,0.046621900000900496,0.04778910000459291,0.09889280000061262,0.10001880000345409,0.7486194000011892
RSVPLG03,sg,20251118-141740,1.0.2,20251105-084826,748,Experiment,Both,1,Automatic,main,85,20251118-142639,local,global,300,H,S,E,E,E-H.png,S-E.png,hH,sS,mask-3.png,mask-2.png,h,1,0.20012580000184244,s,1,0.26615689999744063,0.04863880000630161,0.048533499997574836,0.09971510000468697,0.10058069999649888,0.29896260000532493
RSVPLG03,sg,20251118-141740,1.0.2,20251105-084826,748,Experiment,Both,1,Automatic,main,86,20251118-142643,local,local,750,S,H,E,A,E-S.png,A-H.png,sS,hH,mask-2.png,mask-1.png,s,1,0.07351119999657385,s,0,1.3823660999987624,0.0475323999999091,0.047698999995191116,0.09967350000079023,0.09886729999561794,0.7497518000018317
RSVPLG03,sg,20251118-141740,1.0.2,20251105-084826,748,Experiment,Both,1,Automatic,main,87,20251118-142649,local,local,300,S,S,E,E,E-S.png,E-S.png,sS,sS,mask-3.png,mask-3.png,s,1,0.8791025999962585,h,0,0.36023569999815663,0.04772669999510981,0.047693900000012945,0.0999258000010741,0.09987649999675341,0.30000339999969583
RSVPLG03,sg,20251118-141740,1.0.2,20251105-084826,748,Experiment,Both,1,Automatic,main,88,20251118-142654,local,global,300,H,H,E,A,E-H.png,H-A.png,hH,hH,mask-1.png,mask-1.png,s,0,0.47232980000262614,h,1,0.13344409999990603,0.04870010000013281,0.047717600005853456,0.09990580000157934,0.1009252000003471,0.29950979999557603
RSVPLG03,sg,20251118-141740,1.0.2,20251105-084826,748,Experiment,Both,1,Automatic,main,89,20251118-142658,global,global,300,H,S,A,A,H-A.png,S-A.png,hH,sS,mask-2.png,mask-1.png,h,1,0.22997829999803798,s,1,0.2368780999968294,0.047568100002536085,0.04663270000310149,0.10105200000543846,0.09966569999960484,0.3003191000025254
RSVPLG03,sg,20251118-141740,1.0.2,20251105-084826,748,Experiment,Both,1,Automatic,main,90,20251118-142703,global,local,300,S,H,E,A,S-E.png,A-H.png,sS,hH,mask-3.png,mask-4.png,s,1,0.3982726999965962,h,1,0.5804389999975683,0.04759820000617765,0.04662379999354016,0.0996930000037537,0.09975509999640053,0.3003979000059189
RSVPLG03,sg,20251118-141740,1.0.2,20251105-084826,748,Experiment,Both,1,Automatic,main,91,20251118-142707,global,local,300,S,H,E,E,S-E.png,E-H.png,sS,hH,mask-1.png,mask-3.png,s,1,0.39612469999701716,h,1,0.06070770000224002,0.04650039999978617,0.047532299999147654,0.09949209999467712,0.09959530000196537,0.2997687999959453
RSVPLG03,sg,20251118-141740,1.0.2,20251105-084826,748,Experiment,Both,1,Automatic,main,92,20251118-142711,global,local,300,H,S,A,A,H-A.png,A-S.png,hH,sS,mask-3.png,mask-1.png,h,1,0.5080660000021453,s,1,0.3560438999993494,0.046716599994397257,0.047383900004206225,0.0996337999968091,0.09908540000469657,0.29966659999627154
RSVPLG03,sg,20251118-141740,1.0.2,20251105-084826,748,Experiment,Both,1,Automatic,main,93,20251118-142716,local,local,300,H,H,E,E,E-H.png,E-H.png,hH,hH,mask-2.png,mask-1.png,h,1,0.38194169999769656,h,1,0.3557239000001573,0.04630639999959385,0.04738370000268333,0.09844950000115205,0.09926550000091083,0.2984937000001082
RSVPLG03,sg,20251118-141740,1.0.2,20251105-084826,748,Experiment,Both,1,Automatic,main,94,20251118-142720,global,global,750,S,H,E,A,S-E.png,H-A.png,sS,hH,mask-1.png,mask-2.png,s,1,0.14231679999647895,h,1,0.13118019999819808,0.04750999999669148,0.04657509999378817,0.10052509999513859,0.09960359999968205,0.7488144000017201
RSVPLG03,sg,20251118-141740,1.0.2,20251105-084826,748,Experiment,Both,1,Automatic,main,95,20251118-142724,global,local,300,H,S,A,E,H-A.png,E-S.png,hH,sS,mask-2.png,mask-4.png,h,1,0.28622059999906924,s,1,0.13017089999630116,0.04749850000371225,0.04747930000303313,0.10048300000198651,0.09874620000482537,0.29969449999771314
RSVPLG03,sg,20251118-141740,1.0.2,20251105-084826,748,Experiment,Both,1,Automatic,main,96,20251118-142728,global,local,750,H,S,E,E,H-E.png,E-S.png,hH,sS,mask-2.png,mask-3.png,h,1,0.3095982000013464,s,1,0.1556016999966232,0.047531500000332016,0.04710209999757353,0.09956470000179252,0.10043279999808874,0.7483314999990398
RSVPLG03,sg,20251118-141740,1.0.2,20251105-084826,748,Experiment,Both,1,Automatic,main,97,20251118-142733,local,local,300,H,H,A,E,A-H.png,E-H.png,hH,hH,mask-3.png,mask-2.png,h,1,0.2196364999981597,s,0,0.010285099997418001,0.04868449999776203,0.04683320000185631,0.09985059999598889,0.09891000000061467,0.3001016999987769
RSVPLG03,sg,20251118-141740,1.0.2,20251105-084826,748,Experiment,Both,1,Automatic,main,98,20251118-142737,global,local,300,H,S,E,E,H-E.png,E-S.png,hH,sS,mask-2.png,mask-1.png,h,1,0.8634941999989678,h,0,0.6894474000000628,0.04768139999941923,0.04770920000009937,0.10006260000227485,0.09977290000097128,0.2988215000004857
RSVPLG03,sg,20251118-141740,1.0.2,20251105-084826,748,Experiment,Both,1,Automatic,main,99,20251118-142742,local,local,750,H,S,E,A,E-H.png,A-S.png,hH,sS,mask-3.png,mask-2.png,h,1,0.3800173999989056,s,1,0.11929979999695206,0.04573510000045644,0.047546399997372646,0.09899900000164052,0.09882430000288878,0.7483283999972627
RSVPLG03,sg,20251118-141740,1.0.2,20251105-084826,748,Experiment,Both,1,Automatic,main,100,20251118-142747,local,local,300,S,H,A,E,A-S.png,E-H.png,sS,hH,mask-1.png,mask-2.png,h,0,0.4254665999978897,s,0,0.010371299998951145,0.04669840000133263,0.04769910000322852,0.09890379999706056,0.09989190000487724,0.2984904999975697
RSVPLG03,sg,20251118-142814,1.0.2,20251105-084826,748,Experiment,Both,1,Automatic,warmup,1,20251118-142837,global,local,300,S,S,E,E,S-E.png,E-S.png,sS,sS,mask-2.png,mask-1.png,h,0,1.683295700000599,h,0,0.08626499999809312,0.048184999999648426,0.04768799999874318,0.09943429999839282,0.09988919999887003,0.3001153000004706
RSVPLG03,sg,20251118-142814,1.0.2,20251105-084826,748,Experiment,Both,1,Automatic,warmup,2,20251118-142843,local,local,300,S,H,E,A,E-S.png,A-H.png,sS,hH,mask-2.png,mask-3.png,s,1,0.6053592999960529,h,1,0.08353820000047563,0.046525199999450706,0.04748890000337269,0.09877449999476084,0.10064109999802895,0.2990665999968769
RSVPLG03,sg,20251118-142814,1.0.2,20251105-084826,748,Experiment,Both,1,Automatic,warmup,3,20251118-142847,local,global,750,S,S,E,A,E-S.png,S-A.png,sS,sS,mask-2.png,mask-3.png,s,1,0.8215057999987039,s,1,0.07047090000560274,0.04766679999738699,0.047667799997725524,0.09985099999903468,0.09916900000098394,0.7499989999996615
RSVPLG03,sg,20251118-142814,1.0.2,20251105-084826,748,Experiment,Both,1,Automatic,warmup,4,20251118-142852,global,local,750,S,H,E,A,S-E.png,A-H.png,sS,hH,mask-1.png,mask-4.png,s,1,0.524032499997702,h,1,0.07134539999970002,0.047679499999503605,0.04574299999512732,0.09821009999723174,0.09878079999907641,0.7498967999999877
RSVPLG03,sg,20251118-142814,1.0.2,20251105-084826,748,Experiment,Both,1,Automatic,main,5,20251118-142857,local,global,750,S,H,E,E,E-S.png,H-E.png,sS,hH,mask-1.png,mask-1.png,s,1,0.45421380000334466,h,1,0.8100211999990279,0.047522200002276804,0.04737010000098962,0.1009319000004325,0.09858949999761535,0.7494427000056021
RSVPLG03,sg,20251118-142814,1.0.2,20251105-084826,748,Experiment,Both,1,Automatic,main,6,20251118-142902,global,local,300,H,H,A,A,H-A.png,A-H.png,hH,hH,mask-4.png,mask-4.png,h,1,1.422096700000111,h,1,0.12315859999944223,0.048475700001290534,0.04737339999701362,0.10028940000483999,0.09846669999387814,0.30019520000496414
RSVPLG03,sg,20251118-142814,1.0.2,20251105-084826,748,Experiment,Both,1,Automatic,main,7,20251118-142908,local,global,300,H,S,A,A,A-H.png,S-A.png,hH,sS,mask-2.png,mask-2.png,h,1,0.94662110000354,h,0,0.10766289999446599,0.04751949999626959,0.04850810000061756,0.10057270000106655,0.1012170000030892,0.29885799999465235
RSVPLG03,sg,20251118-142814,1.0.2,20251105-084826,748,Experiment,Both,1,Automatic,main,8,20251118-142912,global,global,300,H,H,E,A,H-E.png,H-A.png,hH,hH,mask-2.png,mask-4.png,h,1,0.3810601999939536,s,0,0.11488880000251811,0.048458899997058325,0.04753559999517165,0.10142610000184504,0.10151899999618763,0.29950000000098953
RSVPLG03,sg,20251118-142814,1.0.2,20251105-084826,748,Experiment,Both,1,Automatic,main,9,20251118-142917,local,global,750,S,H,E,E,E-S.png,H-E.png,sS,hH,mask-2.png,mask-2.png,h,0,0.6530855000019073,s,0,0.026721000001998618,0.04937120000249706,0.047657600000093225,0.10050140000385,0.09987679999903776,0.7504552000027616
RSVPLG03,sg,20251118-142814,1.0.2,20251105-084826,748,Experiment,Both,1,Automatic,main,10,20251118-142922,global,local,300,S,H,E,E,S-E.png,E-H.png,sS,hH,mask-2.png,mask-4.png,h,0,0.3655207000047085,s,0,0.16569239999807905,0.04763470000034431,0.0456627000021399,0.0998228000025847,0.09881460000178777,0.3014054000013857
RSVPLG03,sg,20251118-142814,1.0.2,20251105-084826,748,Experiment,Both,1,Automatic,main,11,20251118-142926,global,local,300,S,H,E,E,S-E.png,E-H.png,sS,hH,mask-4.png,mask-1.png,s,1,0.4951275000057649,h,1,0.020438499996089377,0.04689949999738019,0.0482447999966098,0.0998429999963264,0.10040789999766275,0.3001102999987779
RSVPLG03,sg,20251118-142814,1.0.2,20251105-084826,748,Experiment,Both,1,Automatic,main,12,20251118-142930,global,global,300,H,S,A,E,H-A.png,S-E.png,hH,sS,mask-1.png,mask-2.png,h,1,0.5020997999963583,h,0,0.08940849999635248,0.046641999993880745,0.0476420999984839,0.10082449999754317,0.09980699999869103,0.29926139999588486
RSVPLG03,sg,20251118-142814,1.0.2,20251105-084826,748,Experiment,Both,1,Automatic,main,13,20251118-142934,local,local,750,S,H,E,E,E-S.png,E-H.png,sS,hH,mask-4.png,mask-2.png,s,1,0.4023888000010629,h,1,0.25332869999692775,0.047672100001364015,0.04867440000089118,0.09984919999988051,0.10075300000607967,0.7494284999993397
RSVPLG03,sg,20251118-142814,1.0.2,20251105-084826,748,Experiment,Both,1,Automatic,main,14,20251118-142939,local,global,750,H,S,E,A,E-H.png,S-A.png,hH,sS,mask-2.png,mask-4.png,h,1,0.5252110000001267,s,1,0.4060717999964254,0.04675330000463873,0.04847380000137491,0.09975270000722958,0.10158480000245618,0.7469094000043697
RSVPLG03,sg,20251118-142814,1.0.2,20251105-084826,748,Experiment,Both,1,Automatic,main,15,20251118-142944,local,local,300,S,S,E,E,E-S.png,E-S.png,sS,sS,mask-1.png,mask-3.png,s,1,0.45789720000175294,s,1,0.3159416999988025,0.04768499999772757,0.047834599994530436,0.10085950000211596,0.09903709999343846,0.29990060000272933
RSVPLG03,sg,20251118-142814,1.0.2,20251105-084826,748,Experiment,Both,1,Automatic,main,16,20251118-142949,local,global,750,H,H,A,A,A-H.png,H-A.png,hH,hH,mask-2.png,mask-1.png,h,1,0.45457209999585757,h,1,0.1973770999975386,0.04772149999917019,0.047674999994342215,0.09990990000369493,0.10162869999476243,0.747636700005387
RSVPLG03,sg,20251118-142814,1.0.2,20251105-084826,748,Experiment,Both,1,Automatic,main,17,20251118-142954,global,global,300,H,S,A,A,H-A.png,S-A.png,hH,sS,mask-2.png,mask-4.png,s,0,0.5752347000016016,s,1,0.4915312000011909,0.04765480000060052,0.04766880000534002,0.09990249999827938,0.09887620000517927,0.29949199999828124
RSVPLG03,sg,20251118-142814,1.0.2,20251105-084826,748,Experiment,Both,1,Automatic,main,18,20251118-142959,global,global,750,H,S,A,A,H-A.png,S-A.png,hH,sS,mask-3.png,mask-4.png,h,1,1.6172375000023749,s,1,0.21169820000068285,0.04756769999949029,0.047715900000184774,0.09862199999770382,0.0989045999958762,0.7491631000011694
RSVPLG03,sg,20251118-142814,1.0.2,20251105-084826,748,Experiment,Both,1,Automatic,main,19,20251118-143005,local,local,750,H,H,E,E,E-H.png,E-H.png,hH,hH,mask-3.png,mask-3.png,h,1,0.3541618999952334,h,1,0.08547089999774471,0.04679240000405116,0.047563699998136144,0.09999680000328226,0.09965859999647364,0.7499891000043135
RSVPLG03,sg,20251118-142814,1.0.2,20251105-084826,748,Experiment,Both,1,Automatic,main,20,20251118-143009,local,global,750,H,H,E,A,E-H.png,H-A.png,hH,hH,mask-3.png,mask-3.png,h,1,0.4515681999982917,h,1,0.0891671999997925,0.04750390000117477,0.047471200006839354,0.09886980000010226,0.10046380000130739,0.7493701999992481
RSVPLG03,sg,20251118-142814,1.0.2,20251105-084826,748,Experiment,Both,1,Automatic,main,21,20251118-143014,global,local,750,S,S,A,E,S-A.png,E-S.png,sS,sS,mask-4.png,mask-1.png,h,0,0.5475483000045642,s,1,0.08742219999840017,0.0486421999958111,0.04763730000559008,0.09971209999639541,0.10063380000065081,0.7487591999961296
RSVPLG03,sg,20251118-142814,1.0.2,20251105-084826,748,Experiment,Both,1,Automatic,main,22,20251118-143019,local,global,750,S,S,A,E,A-S.png,S-E.png,sS,sS,mask-1.png,mask-4.png,s,1,0.6841619000042556,s,1,0.10780879999947501,0.04781129999901168,0.04718220000358997,0.10027529999933904,0.10033339999790769,0.7498524999973597
RSVPLG03,sg,20251118-142814,1.0.2,20251105-084826,748,Experiment,Both,1,Automatic,main,23,20251118-143024,global,global,750,H,H,E,E,H-E.png,H-E.png,hH,hH,mask-2.png,mask-1.png,h,1,1.0275848000019323,s,0,0.1391070999961812,0.04767049999645678,0.04568850000214297,0.09967039999901317,0.09994039999583038,0.7498164999997243
RSVPLG03,sg,20251118-142814,1.0.2,20251105-084826,748,Experiment,Both,1,Automatic,main,24,20251118-143029,global,global,750,H,S,E,A,H-E.png,S-A.png,hH,sS,mask-1.png,mask-2.png,s,0,0.5125035000019125,h,0,0.6890028999987408,0.04767590000119526,0.048257200003718026,0.10038270000222838,0.09959990000061225,0.7493617000000086
RSVPLG03,sg,20251118-142814,1.0.2,20251105-084826,748,Experiment,Both,1,Automatic,main,25,20251118-143034,global,global,750,S,H,E,E,S-E.png,H-E.png,sS,hH,mask-2.png,mask-2.png,h,0,0.3061615999977221,s,0,0.0539615000016056,0.048695699995732866,0.04768820000026608,0.10085489999619313,0.10045569999783766,0.7495476999974926
RSVPLG03,sg,20251118-142814,1.0.2,20251105-084826,748,Experiment,Both,1,Automatic,main,26,20251118-143044,local,local,750,H,H,E,E,E-H.png,E-H.png,hH,hH,mask-1.png,mask-2.png,h,1,0.7625767999998061,h,1,0.09139370000048075,0.04760360000364017,0.04747720000159461,0.0996956000017235,0.10048010000173235,0.7491272000042954
RSVPLG03,sg,20251118-142814,1.0.2,20251105-084826,748,Experiment,Both,1,Automatic,main,27,20251118-143049,local,local,750,S,S,E,E,E-S.png,E-S.png,sS,sS,mask-2.png,mask-2.png,s,1,0.2698651999962749,s,1,0.08596370000304887,0.047508800002106,0.04750870000134455,0.09949350000533741,0.09950600000593113,0.7496978999988642
RSVPLG03,sg,20251118-142814,1.0.2,20251105-084826,748,Experiment,Both,1,Automatic,main,28,20251118-143054,global,local,750,S,H,E,E,S-E.png,E-H.png,sS,hH,mask-4.png,mask-1.png,s,1,1.1761498999985633,h,1,0.7474880999943707,0.04767829999764217,0.04753859999618726,0.09994130000268342,0.10004859999753535,0.7501934000028996
RSVPLG03,sg,20251118-142814,1.0.2,20251105-084826,748,Experiment,Both,1,Automatic,main,29,20251118-143100,global,global,750,S,S,E,A,S-E.png,S-A.png,sS,sS,mask-1.png,mask-1.png,s,1,0.3325182000044151,s,1,0.12110509999911301,0.04768499999772757,0.048814200003107544,0.09987740000360645,0.10100120000424795,0.7488341999996919
RSVPLG03,sg,20251118-142814,1.0.2,20251105-084826,748,Experiment,Both,1,Automatic,main,30,20251118-143105,local,local,750,S,S,A,E,A-S.png,E-S.png,sS,sS,mask-4.png,mask-4.png,s,1,0.16924869999638759,s,1,0.13520530000096187,0.04766419999941718,0.047652900000684895,0.09986639999988256,0.09987209999962943,0.7480279000010341
RSVPLG03,sg,20251118-142814,1.0.2,20251105-084826,748,Experiment,Both,1,Automatic,main,31,20251118-143109,local,local,750,H,S,E,A,E-H.png,A-S.png,hH,sS,mask-4.png,mask-3.png,h,1,0.2746439000038663,s,1,0.07674959999712883,0.04750439999770606,0.047509900003205985,0.0995005999939167,0.10051540000131354,0.7494793999940157
RSVPLG03,sg,20251118-142814,1.0.2,20251105-084826,748,Experiment,Both,1,Automatic,main,32,20251118-143113,global,local,300,H,S,A,A,H-A.png,A-S.png,hH,sS,mask-4.png,mask-2.png,h,1,0.5673977999977069,h,0,0.241543999996793,0.04771620000246912,0.0476076999984798,0.1002544000002672,0.09927740000421181,0.2998342999999295
RSVPLG03,sg,20251118-142814,1.0.2,20251105-084826,748,Experiment,Both,1,Automatic,main,33,20251118-143118,global,global,750,S,H,A,E,S-A.png,H-E.png,sS,hH,mask-3.png,mask-1.png,s,1,0.5487831999998889,h,1,0.10848490000353195,0.04906460000347579,0.046440199999779,0.10016190000169445,0.09946420000051148,0.750552700003027
RSVPLG03,sg,20251118-142814,1.0.2,20251105-084826,748,Experiment,Both,1,Automatic,main,34,20251118-143123,global,global,300,H,H,E,E,H-E.png,H-E.png,hH,hH,mask-2.png,mask-1.png,h,1,0.5839837000021362,h,1,0.2519014999998035,0.04724330000317423,0.047461800000746734,0.09941590000380529,0.10148250000202097,0.29866279999987455
RSVPLG03,sg,20251118-142814,1.0.2,20251105-084826,748,Experiment,Both,1,Automatic,main,35,20251118-143127,local,local,300,S,H,E,E,E-S.png,E-H.png,sS,hH,mask-4.png,mask-1.png,s,1,0.8486099000001559,h,1,0.04316649999964284,0.04807779999828199,0.04752139999618521,0.10009419999551028,0.09952909999992698,0.3003387999997358
RSVPLG03,sg,20251118-142814,1.0.2,20251105-084826,748,Experiment,Both,1,Automatic,main,36,20251118-143132,local,global,750,S,S,E,E,E-S.png,S-E.png,sS,sS,mask-4.png,mask-4.png,s,1,0.48020850000466453,s,1,0.12352879999525612,0.04723819999344414,0.0468068000045605,0.09972809999453602,0.09981210000114515,0.7489690999937011
RSVPLG03,sg,20251118-142814,1.0.2,20251105-084826,748,Experiment,Both,1,Automatic,main,37,20251118-143137,local,global,750,S,S,A,A,A-S.png,S-A.png,sS,sS,mask-3.png,mask-2.png,h,0,0.8810370999999577,h,0,0.17102049999812152,0.04767770000034943,0.04768560000229627,0.098911400003999,0.09997870000370312,0.748475000000326
RSVPLG03,sg,20251118-142814,1.0.2,20251105-084826,748,Experiment,Both,1,Automatic,main,38,20251118-143142,local,global,750,S,H,A,E,A-S.png,H-E.png,sS,hH,mask-2.png,mask-4.png,s,1,0.4308958000037819,h,1,0.10554350000165869,0.0457375999976648,0.04843619999883231,0.09995350000099279,0.09966559999884339,0.7476610000012442
RSVPLG03,sg,20251118-142814,1.0.2,20251105-084826,748,Experiment,Both,1,Automatic,main,39,20251118-143147,local,local,750,H,S,A,A,A-H.png,A-S.png,hH,sS,mask-2.png,mask-3.png,h,1,0.41884350000327686,h,0,0.25754950000555255,0.047662299999501556,0.04697149999992689,0.10185759999876609,0.09996010000031674,0.7497222999954829
RSVPLG03,sg,20251118-142814,1.0.2,20251105-084826,748,Experiment,Both,1,Automatic,main,40,20251118-143152,local,local,300,S,H,A,E,A-S.png,E-H.png,sS,hH,mask-1.png,mask-3.png,h,0,0.42526709999947343,h,1,0.16048170000431128,0.04801860000588931,0.04751170000236016,0.09969290000299225,0.09956080000119982,0.3002003000001423
RSVPLG03,sg,20251118-142814,1.0.2,20251105-084826,748,Experiment,Both,1,Automatic,main,41,20251118-143156,local,local,750,H,H,E,A,E-H.png,A-H.png,hH,hH,mask-3.png,mask-3.png,h,1,0.46440910000092117,h,1,0.08262809999723686,0.048492599999008235,0.04876299999887124,0.09970340000290889,0.09983030000148574,0.7486959000016213
RSVPLG03,sg,20251118-142814,1.0.2,20251105-084826,748,Experiment,Both,1,Automatic,main,42,20251118-143201,global,global,750,S,H,E,A,S-E.png,H-A.png,sS,hH,mask-1.png,mask-4.png,s,1,0.3894715999995242,h,1,0.11721589999797288,0.047495300001173746,0.04754650000541005,0.09954329999891343,0.09954950000246754,0.7497347999960766
RSVPLG03,sg,20251118-142814,1.0.2,20251105-084826,748,Experiment,Both,1,Automatic,main,43,20251118-143205,local,local,300,H,H,E,E,E-H.png,E-H.png,hH,hH,mask-3.png,mask-1.png,h,1,0.12980100000277162,h,1,0.11712760000227718,0.047478300002694596,0.04742509999778122,0.10149670000100741,0.09959459999663522,0.2997841000033077
RSVPLG03,sg,20251118-142814,1.0.2,20251105-084826,748,Experiment,Both,1,Automatic,main,44,20251118-143209,local,global,300,H,H,E,A,E-H.png,H-A.png,hH,hH,mask-3.png,mask-4.png,h,1,0.3704266999993706,s,0,0.15486170000076527,0.04769479999959003,0.047689300001366064,0.09886729999561794,0.09986490000301274,0.2983691999979783
RSVPLG03,sg,20251118-142814,1.0.2,20251105-084826,748,Experiment,Both,1,Automatic,main,45,20251118-143214,global,global,750,S,S,A,E,S-A.png,S-E.png,sS,sS,mask-3.png,mask-2.png,h,0,0.27502950000052806,s,1,0.24144559999695048,0.04750999999669148,0.04751309999846853,0.10053559999505524,0.09951569999975618,0.7488378999987617
RSVPLG03,sg,20251118-142814,1.0.2,20251105-084826,748,Experiment,Both,1,Automatic,main,46,20251118-143218,global,global,300,S,H,A,A,S-A.png,H-A.png,sS,hH,mask-4.png,mask-2.png,h,0,0.9264948999989429,s,0,0.1085901999977068,0.0475529999966966,0.04854989999876125,0.1015798000007635,0.10056679999979679,0.2998312999989139
RSVPLG03,sg,20251118-142814,1.0.2,20251105-084826,748,Experiment,Both,1,Automatic,main,47,20251118-143223,global,local,750,S,H,E,A,S-E.png,A-H.png,sS,hH,mask-2.png,mask-2.png,h,0,0.7202867000014521,h,1,0.10011769999982789,0.04652509999868926,0.04882769999676384,0.10058310000022175,0.10088879999966593,0.7478818000017782
RSVPLG03,sg,20251118-142814,1.0.2,20251105-084826,748,Experiment,Both,1,Automatic,main,48,20251118-143228,global,local,300,S,S,E,E,S-E.png,E-S.png,sS,sS,mask-3.png,mask-1.png,h,0,0.6356064999999944,s,1,0.01706469999771798,0.04924429999664426,0.04657469999801833,0.10031989999697544,0.09960940000019036,0.2999928999997792
RSVPLG03,sg,20251118-142814,1.0.2,20251105-084826,748,Experiment,Both,1,Automatic,main,49,20251118-143233,local,global,750,H,H,E,A,E-H.png,H-A.png,hH,hH,mask-3.png,mask-1.png,h,1,0.7482691999975941,s,0,0.23283600000286242,0.048492599999008235,0.046527999998943415,0.09973059999902034,0.10065880000183824,0.7496081999997841
RSVPLG03,sg,20251118-142814,1.0.2,20251105-084826,748,Experiment,Both,1,Automatic,main,50,20251118-143238,local,local,750,H,S,A,E,A-H.png,E-S.png,hH,sS,mask-4.png,mask-2.png,s,0,0.35460999999486376,h,0,0.712145600002259,0.04736789999878965,0.04753309999796329,0.100339199998416,0.09957980000035604,0.7487815999993472
RSVPLG03,sg,20251118-142814,1.0.2,20251105-084826,748,Experiment,Both,1,Automatic,main,51,20251118-143253,global,local,750,H,S,E,A,H-E.png,A-S.png,hH,sS,mask-1.png,mask-2.png,h,1,0.3261486999981571,s,1,0.041732799996680114,0.04773959999874933,0.047682299998996314,0.09901649999665096,0.09890420000010636,0.7484456999955
RSVPLG03,sg,20251118-142814,1.0.2,20251105-084826,748,Experiment,Both,1,Automatic,main,52,20251118-143257,global,global,300,H,H,E,E,H-E.png,H-E.png,hH,hH,mask-4.png,mask-3.png,h,1,0.5153787000017473,h,1,0.1060014000031515,0.04662429999734741,0.04854619999969145,0.09974089999741409,0.09981680000055349,0.2991884000002756
RSVPLG03,sg,20251118-142814,1.0.2,20251105-084826,748,Experiment,Both,1,Automatic,main,53,20251118-143302,local,global,750,H,H,A,A,A-H.png,H-A.png,hH,hH,mask-1.png,mask-3.png,h,1,0.47714429999905406,h,1,0.08185219999722904,0.04745179999736138,0.0476423000000068,0.09964860000036424,0.09970289999910165,0.7490381000025081
RSVPLG03,sg,20251118-142814,1.0.2,20251105-084826,748,Experiment,Both,1,Automatic,main,54,20251118-143306,local,local,300,H,H,E,E,E-H.png,E-H.png,hH,hH,mask-1.png,mask-1.png,h,1,0.2520647999990615,h,1,0.08983239999361103,0.04733909999777097,0.04755529999965802,0.09938539999711793,0.09976279999682447,0.29862210000283085
RSVPLG03,sg,20251118-142814,1.0.2,20251105-084826,748,Experiment,Both,1,Automatic,main,55,20251118-143310,global,local,300,S,S,A,E,S-A.png,E-S.png,sS,sS,mask-2.png,mask-3.png,s,1,0.5881641000014497,h,0,0.09025040000415174,0.04867119999835268,0.04767799999535782,0.09986629999912111,0.09882449999713572,0.30114080000203103
RSVPLG03,sg,20251118-142814,1.0.2,20251105-084826,748,Experiment,Both,1,Automatic,main,56,20251118-143315,local,local,750,H,H,E,E,E-H.png,E-H.png,hH,hH,mask-2.png,mask-1.png,h,1,0.1423611999998684,h,1,0.09154429999762215,0.04767129999527242,0.04740220000530826,0.09983780000038678,0.09845580000546761,0.7492824999935692
RSVPLG03,sg,20251118-142814,1.0.2,20251105-084826,748,Experiment,Both,1,Automatic,main,57,20251118-143319,local,global,300,S,S,A,A,A-S.png,S-A.png,sS,sS,mask-1.png,mask-2.png,h,0,0.2568107000042801,h,0,0.1078408000030322,0.04748220000328729,0.04887010000675218,0.10046880000300007,0.1009321000019554,0.2993343999987701
RSVPLG03,sg,20251118-142814,1.0.2,20251105-084826,748,Experiment,Both,1,Automatic,main,58,20251118-143323,local,local,300,H,H,A,E,A-H.png,E-H.png,hH,hH,mask-4.png,mask-2.png,s,0,0.3773434999966412,h,1,0.21522299999924144,0.04755650000151945,0.04751340000075288,0.10161940000398317,0.10051540000131354,0.299805100003141
RSVPLG03,sg,20251118-142814,1.0.2,20251105-084826,748,Experiment,Both,1,Automatic,main,59,20251118-143327,global,local,300,H,H,E,A,H-E.png,A-H.png,hH,hH,mask-4.png,mask-2.png,h,1,0.29377309999836143,h,1,0.20417530000122497,0.04868749999877764,0.04670130000158679,0.0998357999997097,0.09991689999878872,0.3004830999998376
RSVPLG03,sg,20251118-142814,1.0.2,20251105-084826,748,Experiment,Both,1,Automatic,main,60,20251118-143332,local,local,300,S,H,A,E,A-S.png,E-H.png,sS,hH,mask-1.png,mask-3.png,s,1,0.34626330000173766,h,1,0.06375829999888083,0.0473820000042906,0.04570840000087628,0.09933109999838052,0.09971200000290992,0.300924600000144
RSVPLG03,sg,20251118-142814,1.0.2,20251105-084826,748,Experiment,Both,1,Automatic,main,61,20251118-143336,global,global,750,H,H,A,A,H-A.png,H-A.png,hH,hH,mask-3.png,mask-4.png,s,0,0.45351230000233045,h,1,0.45267739999690093,0.047554099997796584,0.04755309999745805,0.09895629999664379,0.10061280000081751,0.7487629999959609
RSVPLG03,sg,20251118-142814,1.0.2,20251105-084826,748,Experiment,Both,1,Automatic,main,62,20251118-143341,global,local,750,H,S,A,E,H-A.png,E-S.png,hH,sS,mask-2.png,mask-4.png,s,0,0.38790789999620756,s,1,0.17238279999583028,0.04749739999533631,0.0467034999965108,0.10050169999885838,0.09951580000051763,0.7494946000006166
RSVPLG03,sg,20251118-142814,1.0.2,20251105-084826,748,Experiment,Both,1,Automatic,main,63,20251118-143346,local,global,300,S,S,A,A,A-S.png,S-A.png,sS,sS,mask-4.png,mask-4.png,s,1,0.32630280000012135,s,1,0.10252230000332929,0.04851369999960298,0.0475019000004977,0.10151949999999488,0.10050989999581361,0.2997643999988213
RSVPLG03,sg,20251118-142814,1.0.2,20251105-084826,748,Experiment,Both,1,Automatic,main,64,20251118-143350,global,local,750,H,S,E,E,H-E.png,E-S.png,hH,sS,mask-2.png,mask-2.png,h,1,0.8632219999999506,s,1,0.040292600002430845,0.048275699999067,0.0475049999949988,0.0996688000013819,0.10049419999995735,0.7489701000013156
RSVPLG03,sg,20251118-142814,1.0.2,20251105-084826,748,Experiment,Both,1,Automatic,main,65,20251118-143355,global,local,750,S,S,E,A,S-E.png,A-S.png,sS,sS,mask-3.png,mask-3.png,s,1,0.9355481000020518,s,1,0.12148629999865079,0.048688599999877624,0.04760370000440162,0.10088730000279611,0.09958929999993416,0.7489323999980115
RSVPLG03,sg,20251118-142814,1.0.2,20251105-084826,748,Experiment,Both,1,Automatic,main,66,20251118-143400,local,global,300,H,S,E,E,E-H.png,S-E.png,hH,sS,mask-1.png,mask-4.png,h,1,0.9126223999992362,s,1,0.028093000000808388,0.04599880000023404,0.04562379999697441,0.0980725000044913,0.09858230000099866,0.2994535000034375
RSVPLG03,sg,20251118-142814,1.0.2,20251105-084826,748,Experiment,Both,1,Automatic,main,67,20251118-143405,global,local,300,H,S,E,A,H-E.png,A-S.png,hH,sS,mask-3.png,mask-1.png,h,1,0.3899507000023732,s,1,0.1353025999997044,0.04756950000592042,0.04655600000114646,0.09946340000169585,0.09847169999557082,0.3005459000050905
RSVPLG03,sg,20251118-142814,1.0.2,20251105-084826,748,Experiment,Both,1,Automatic,main,68,20251118-143409,local,local,750,H,S,A,E,A-H.png,E-S.png,hH,sS,mask-1.png,mask-4.png,h,1,0.23652120000042487,s,1,0.014281599993410055,0.048504400001547765,0.047507600000244565,0.10156519999873126,0.10053960000368534,0.7497105000002193
RSVPLG03,sg,20251118-142814,1.0.2,20251105-084826,748,Experiment,Both,1,Automatic,main,69,20251118-143413,global,local,750,S,S,A,A,S-A.png,A-S.png,sS,sS,mask-3.png,mask-3.png,h,0,0.38829899999836925,s,1,0.12015660000179196,0.047713200001453515,0.04769589999341406,0.09995899999921676,0.09892679999757092,0.7501479000056861
RSVPLG03,sg,20251118-142814,1.0.2,20251105-084826,748,Experiment,Both,1,Automatic,main,70,20251118-143418,global,local,750,S,S,A,E,S-A.png,E-S.png,sS,sS,mask-3.png,mask-2.png,s,1,0.29971840000507655,s,1,0.2021941999992123,0.04708039999968605,0.048088299998198636,0.10041329999512527,0.10029539999959525,0.7491786999962642
RSVPLG03,sg,20251118-142814,1.0.2,20251105-084826,748,Experiment,Both,1,Automatic,main,71,20251118-143423,global,local,300,H,S,E,E,H-E.png,E-S.png,hH,sS,mask-1.png,mask-4.png,s,0,0.3606482000031974,h,0,0.05001529999572085,0.04776819999824511,0.04765829999814741,0.09898129999783123,0.09989489999861689,0.29856789999757893
RSVPLG03,sg,20251118-142814,1.0.2,20251105-084826,748,Experiment,Both,1,Automatic,main,72,20251118-143427,global,global,750,S,S,E,A,S-E.png,S-A.png,sS,sS,mask-1.png,mask-2.png,s,1,0.35723610000422923,s,1,0.29792189999716356,0.04584640000393847,0.04756649999762885,0.09903830000257585,0.09882119999383576,0.7491036000064923
RSVPLG03,sg,20251118-142814,1.0.2,20251105-084826,748,Experiment,Both,1,Automatic,main,73,20251118-143432,local,global,300,H,S,E,A,E-H.png,S-A.png,hH,sS,mask-2.png,mask-2.png,h,1,0.4414956999971764,s,1,0.21726519999356242,0.04866030000266619,0.048768100001325365,0.09995750000234693,0.09975960000156192,0.29956680000032065
RSVPLG03,sg,20251118-142814,1.0.2,20251105-084826,748,Experiment,Both,1,Automatic,main,74,20251118-143436,global,global,300,S,S,E,A,S-E.png,S-A.png,sS,sS,mask-3.png,mask-4.png,h,0,0.9192861999981687,s,1,0.2460785999937798,0.047575600001437124,0.048674099998606835,0.09873909999441821,0.0997776999938651,0.2985855000006268
RSVPLG03,sg,20251118-142814,1.0.2,20251105-084826,748,Experiment,Both,1,Automatic,main,75,20251118-143441,local,local,750,H,S,E,A,E-H.png,A-S.png,hH,sS,mask-2.png,mask-1.png,h,1,1.5695974999980535,s,1,0.18284850000054576,0.04771880000043893,0.046215999995183665,0.10091280000051484,0.09945979999611154,0.7501550000015413
RSVPLG03,sg,20251118-142814,1.0.2,20251105-084826,748,Experiment,Both,1,Automatic,main,76,20251118-143448,global,global,300,H,H,A,E,H-A.png,H-E.png,hH,hH,mask-4.png,mask-1.png,h,1,0.3878707999974722,s,0,0.14987549999932526,0.04753599999821745,0.04749140000058105,0.10057200000301236,0.10049030000664061,0.30006999999750406
RSVPLG03,sg,20251118-142814,1.0.2,20251105-084826,748,Experiment,Both,1,Automatic,main,77,20251118-143453,global,local,300,S,H,A,E,S-A.png,E-H.png,sS,hH,mask-4.png,mask-1.png,s,1,0.4735655999975279,h,1,0.1813371999960509,0.047277800003939774,0.04650319999927888,0.09962450000602985,0.09973090000130469,0.30009550000249874
RSVPLG03,sg,20251118-142814,1.0.2,20251105-084826,748,Experiment,Both,1,Automatic,main,78,20251118-143457,local,global,300,S,H,A,A,A-S.png,H-A.png,sS,hH,mask-3.png,mask-2.png,s,1,0.4935369000013452,h,1,0.7726930999997421,0.0488372999971034,0.046595899999374524,0.1000207999968552,0.09964290000061737,0.3012483999991673
RSVPLG03,sg,20251118-142814,1.0.2,20251105-084826,748,Experiment,Both,1,Automatic,main,79,20251118-143502,global,global,300,H,S,E,E,H-E.png,S-E.png,hH,sS,mask-4.png,mask-2.png,s,0,0.46744119999493705,h,0,0.09202020000520861,0.04738569999608444,0.04686249999940628,0.1007132000013371,0.10021910000068601,0.300533000001451
RSVPLG03,sg,20251118-142814,1.0.2,20251105-084826,748,Experiment,Both,1,Automatic,main,80,20251118-143506,global,global,750,H,S,E,A,H-E.png,S-A.png,hH,sS,mask-2.png,mask-1.png,s,0,0.3042760999960592,h,0,0.634063999998034,0.04778490000171587,0.04551609999907669,0.10096749999502208,0.0985078000012436,0.7503301999968244
RSVPLG03,sg,20251118-142814,1.0.2,20251105-084826,748,Experiment,Both,1,Automatic,main,81,20251118-143511,local,global,300,H,S,A,A,A-H.png,S-A.png,hH,sS,mask-2.png,mask-3.png,h,1,0.26514070000121137,h,0,0.3010636999970302,0.047519899999315385,0.04732979999971576,0.10154820000025211,0.1003192999996827,0.30025600000226405
RSVPLG03,sg,20251118-142814,1.0.2,20251105-084826,748,Experiment,Both,1,Automatic,main,82,20251118-143516,local,local,300,S,S,E,E,E-S.png,E-S.png,sS,sS,mask-1.png,mask-4.png,s,1,0.40487130000110483,s,1,0.17209279999951832,0.04768470000271918,0.047534299999824725,0.09986270000081277,0.09954070000094362,0.3011056000032113
RSVPLG03,sg,20251118-142814,1.0.2,20251105-084826,748,Experiment,Both,1,Automatic,main,83,20251118-143520,global,local,750,S,S,A,A,S-A.png,A-S.png,sS,sS,mask-3.png,mask-3.png,s,1,0.34699459999683313,h,0,0.2598682999960147,0.047473600003286265,0.04748400000244146,0.09850569999980507,0.10048900000401773,0.7479722999996739
RSVPLG03,sg,20251118-142814,1.0.2,20251105-084826,748,Experiment,Both,1,Automatic,main,84,20251118-143525,global,local,750,H,H,A,E,H-A.png,E-H.png,hH,hH,mask-4.png,mask-3.png,h,1,0.3657632000031299,h,1,0.17766190000111237,0.04852969999774359,0.046888000004400965,0.1006414000003133,0.09947770000144374,0.7505336999965948
RSVPLG03,sg,20251118-142814,1.0.2,20251105-084826,748,Experiment,Both,1,Automatic,main,85,20251118-143530,local,global,300,S,S,A,E,A-S.png,S-E.png,sS,sS,mask-1.png,mask-4.png,s,1,0.307495300003211,s,1,0.7915180999989389,0.04775599999993574,0.047696000001451466,0.09900699999707285,0.10123010000097565,0.2986573999951361
RSVPLG03,sg,20251118-142814,1.0.2,20251105-084826,748,Experiment,Both,1,Automatic,main,86,20251118-143534,local,global,750,S,H,E,E,E-S.png,H-E.png,sS,hH,mask-3.png,mask-3.png,s,1,0.35887240000010934,h,1,0.21028329999535345,0.0474949999988894,0.046781600001850165,0.10048580000147922,0.09986920000665123,0.7500705999991624
RSVPLG03,sg,20251118-142814,1.0.2,20251105-084826,748,Experiment,Both,1,Automatic,main,87,20251118-143539,local,local,300,S,H,E,E,E-S.png,E-H.png,sS,hH,mask-4.png,mask-2.png,s,1,0.46346149999590125,s,0,0.35568529999727616,0.04748259999905713,0.047471799996856134,0.09858209999947576,0.09870080000109738,0.2998230000011972
RSVPLG03,sg,20251118-142814,1.0.2,20251105-084826,748,Experiment,Both,1,Automatic,main,88,20251118-143544,local,global,300,H,H,E,E,E-H.png,H-E.png,hH,hH,mask-2.png,mask-2.png,h,1,0.26293599999917205,s,0,1.654599600005895,0.04751020000549033,0.046651399999973364,0.10054480000690091,0.09978029999911087,0.2997834000052535
RSVPLG03,sg,20251118-142814,1.0.2,20251105-084826,748,Experiment,Both,1,Automatic,main,89,20251118-143549,local,local,300,S,S,A,E,A-S.png,E-S.png,sS,sS,mask-1.png,mask-2.png,s,1,0.5437804000030155,h,0,0.26192060000175843,0.04777979999926174,0.04767770000034943,0.10099990000162506,0.09990359999937937,0.30040210000152
RSVPLG03,sg,20251118-142814,1.0.2,20251105-084826,748,Experiment,Both,1,Automatic,main,90,20251118-143554,global,global,300,H,S,E,A,H-E.png,S-A.png,hH,sS,mask-4.png,mask-3.png,s,0,1.0692940000008093,h,0,1.165362700005062,0.04869759999564849,0.04779989999951795,0.09989029999997001,0.09992130000318866,0.3001827999978559
RSVPLG03,sg,20251118-142814,1.0.2,20251105-084826,748,Experiment,Both,1,Automatic,main,91,20251118-143559,local,global,300,H,H,E,A,E-H.png,H-A.png,hH,hH,mask-1.png,mask-4.png,h,1,0.41275380000297446,s,0,0.06708509999589296,0.046922000001359265,0.047117400004935917,0.10009880000143312,0.09831510000367416,0.2997906000018702
RSVPLG03,sg,20251118-142814,1.0.2,20251105-084826,748,Experiment,Both,1,Automatic,main,92,20251118-143603,local,local,300,H,S,A,A,A-H.png,A-S.png,hH,sS,mask-4.png,mask-4.png,s,0,0.35057870000309777,h,0,0.0905815000005532,0.04767439999704948,0.04768269999476615,0.09986599999683676,0.09989619999396382,0.30047930000000633
RSVPLG03,sg,20251118-142814,1.0.2,20251105-084826,748,Experiment,Both,1,Automatic,main,93,20251118-143607,global,global,750,S,S,A,A,S-A.png,S-A.png,sS,sS,mask-4.png,mask-1.png,s,1,0.25858879999577766,s,1,0.6775479999996605,0.04861059999529971,0.04651249999733409,0.09963129999960074,0.09951379999984056,0.7499645999996574
RSVPLG03,sg,20251118-142814,1.0.2,20251105-084826,748,Experiment,Both,1,Automatic,main,94,20251118-143612,local,global,300,H,S,E,A,E-H.png,S-A.png,hH,sS,mask-3.png,mask-3.png,h,1,0.34549110000079963,h,0,0.1336892999970587,0.04869509999844013,0.04757409999729134,0.10101149999536574,0.09975479999411618,0.29973679999966407
RSVPLG03,sg,20251118-142814,1.0.2,20251105-084826,748,Experiment,Both,1,Automatic,main,95,20251118-143617,global,local,750,S,H,A,A,S-A.png,A-H.png,sS,hH,mask-1.png,mask-2.png,s,1,0.4065476999967359,h,1,0.2982881999996607,0.047507200004474726,0.047510100004728884,0.10149950000050012,0.0999255000060657,0.7497808999978588
RSVPLG03,sg,20251118-142814,1.0.2,20251105-084826,748,Experiment,Both,1,Automatic,main,96,20251118-143621,global,local,300,S,S,A,E,S-A.png,E-S.png,sS,sS,mask-1.png,mask-1.png,s,1,0.45323179999832064,s,1,0.29508130000613164,0.047534299999824725,0.046585500000219326,0.09885850000136998,0.10058140000182902,0.2990088000005926
RSVPLG03,sg,20251118-142814,1.0.2,20251105-084826,748,Experiment,Both,1,Automatic,main,97,20251118-143626,local,local,300,H,S,E,E,E-H.png,E-S.png,hH,sS,mask-2.png,mask-3.png,h,1,0.4785288000057335,h,0,0.13138469999830704,0.047487800002272706,0.047558300000673626,0.10148779999872204,0.10055070000089472,0.29971110000042245
RSVPLG03,sg,20251118-142814,1.0.2,20251105-084826,748,Experiment,Both,1,Automatic,main,98,20251118-143630,global,local,300,H,S,A,E,H-A.png,E-S.png,hH,sS,mask-4.png,mask-2.png,s,0,0.38042660000064643,s,1,0.1379769999985001,0.04750729999796022,0.04851860000053421,0.10152589999779593,0.10052369999903021,0.29980300000170246
RSVPLG03,sg,20251118-142814,1.0.2,20251105-084826,748,Experiment,Both,1,Automatic,main,99,20251118-143634,global,global,300,H,H,A,A,H-A.png,H-A.png,hH,hH,mask-1.png,mask-2.png,s,0,0.28107140000065556,s,0,0.19436530000530183,0.04749539999465924,0.04748539999854984,0.10047089999716263,0.10046719999809284,0.29972260000067763
RSVPLG03,sg,20251118-142814,1.0.2,20251105-084826,748,Experiment,Both,1,Automatic,main,100,20251118-143639,global,global,300,H,S,A,A,H-A.png,S-A.png,hH,sS,mask-3.png,mask-3.png,h,1,0.6635538999980781,h,0,0.12222979999933159,0.04604510000353912,0.047541500003717374,0.10018839999975171,0.10060970000631642,0.2996954999980517
