exp,exp_initials,runtime,ver,modtime,sub,blocktype,targets,cuetype,mode,trialtype,trial,trialtime,t1_level,t2_level,t2_lag,t1,t2,distractor1,distractor2,stimfile1,stimfile2,t1_corr,t2_corr,maskfile1,maskfile2,t1_resp,t1_acc,t1_rt,t2_resp,t2_acc,t2_rt,t1_dur,t2_dur,t1mask_soa,t2mask_soa,t1t2_soa
RSVPLG03,km,20260319-160706,1.0.2,20251113-095759,809,Introduction,T1,1,Automatic,main,1,20260319-160741,local,global,750,H,H,E,E,E-H.png,H-E.png,hH,hH,mask-3.png,mask-3.png,h,1,1.3208407000056468,none,-5,0,0.090414200007217,0.09881460000178777,0.18945870001334697,0.19931940000969917,0.7426116999995429
RSVPLG03,km,20260319-160706,1.0.2,20251113-095759,809,Introduction,T1,1,Automatic,main,2,20260319-160746,global,local,750,H,H,A,E,H-A.png,E-H.png,hH,hH,mask-3.png,mask-2.png,h,1,2.0486847999854945,none,-5,0,0.10123879997991025,0.09950179999577813,0.20067209997796454,0.19945539999753237,0.7517033999902196
RSVPLG03,km,20260319-160706,1.0.2,20251113-095759,809,Introduction,T1,1,Automatic,main,3,20260319-160752,global,global,750,S,S,A,E,S-A.png,S-E.png,sS,sS,mask-4.png,mask-3.png,s,1,1.0524716000072658,none,-5,0,0.10130100001697429,0.10074769999482669,0.20126689999597147,0.1996762999915518,0.7509199000196531
RSVPLG03,km,20260319-160706,1.0.2,20251113-095759,809,Introduction,T1,1,Automatic,main,4,20260319-160757,global,local,750,H,S,A,E,H-A.png,E-S.png,hH,sS,mask-4.png,mask-4.png,h,1,0.902713900024537,none,-5,0,0.10126120000495575,0.10010899999178946,0.20018590000108816,0.19968719998723827,0.7507872000278439
RSVPLG03,km,20260319-160706,1.0.2,20251113-095759,809,Introduction,T1,1,Automatic,main,5,20260319-160802,global,local,750,H,S,A,E,H-A.png,E-S.png,hH,sS,mask-3.png,mask-4.png,s,0,0.7760117999860086,none,-5,0,0.09886070000356995,0.10068819997832179,0.19771249999757856,0.2006000999826938,0.7485034000128508
RSVPLG03,km,20260319-160706,1.0.2,20251113-095759,809,Introduction,T1,1,Automatic,main,6,20260319-160807,local,local,750,H,H,A,A,A-H.png,A-H.png,hH,hH,mask-1.png,mask-4.png,h,1,0.44957399999839254,none,-5,0,0.10161260000313632,0.09995370000251569,0.20086500002071261,0.19975259999046102,0.7520129000185989
RSVPLG03,km,20260319-160706,1.0.2,20251113-095759,809,Introduction,T1,1,Automatic,main,7,20260319-160812,global,global,750,S,H,A,E,S-A.png,H-E.png,sS,hH,mask-1.png,mask-3.png,s,1,0.4566342000034638,none,-5,0,0.10069009999278933,0.0995186000072863,0.20166049999534152,0.20124560000840575,0.7522871999826748
RSVPLG03,km,20260319-160706,1.0.2,20251113-095759,809,Introduction,T1,1,Automatic,main,8,20260319-160817,local,global,750,S,H,E,E,E-S.png,H-E.png,sS,hH,mask-3.png,mask-2.png,h,0,1.3005969999940135,none,-5,0,0.09889219998149201,0.10051799999200739,0.19879009999567643,0.1995030999823939,0.7505042999982834
RSVPLG03,km,20260319-160706,1.0.2,20251113-095759,809,Introduction,T1,1,Automatic,main,9,20260319-160822,global,global,750,S,S,A,A,S-A.png,S-A.png,sS,sS,mask-1.png,mask-3.png,s,1,0.6311883000016678,none,-5,0,0.10009680001530796,0.10002869999152608,0.20113390000187792,0.20007779999286868,0.7510896000021603
RSVPLG03,km,20260319-160706,1.0.2,20251113-095759,809,Introduction,T1,1,Automatic,main,10,20260319-160827,local,global,750,S,S,A,E,A-S.png,S-E.png,sS,sS,mask-4.png,mask-3.png,s,1,0.45287519998964854,none,-5,0,0.09976170002482831,0.09888040000805631,0.20076040001004003,0.1989162999961991,0.7518593000131659
RSVPLG03,km,20260319-160706,1.0.2,20251113-095759,809,Introduction,T1,1,Automatic,main,11,20260319-160831,global,local,750,S,S,E,E,S-E.png,E-S.png,sS,sS,mask-1.png,mask-2.png,s,1,0.530664899997646,none,-5,0,0.1011282000108622,0.10005639999872074,0.19949450000422075,0.19898759998613968,0.7523753000132274
RSVPLG03,km,20260319-160706,1.0.2,20251113-095759,809,Introduction,T1,1,Automatic,main,12,20260319-160836,local,local,750,S,H,E,E,E-S.png,E-H.png,sS,hH,mask-2.png,mask-4.png,s,1,1.2101605999923777,none,-5,0,0.10074289998738095,0.10103990000789054,0.19985010000527836,0.20207919998210855,0.7507837000011932
RSVPLG03,km,20260319-160706,1.0.2,20251113-095759,809,Introduction,T1,1,Automatic,main,13,20260319-160841,local,local,750,H,H,A,E,A-H.png,E-H.png,hH,hH,mask-4.png,mask-3.png,h,1,0.36135099999955855,none,-5,0,0.09960069999215193,0.09999560000142083,0.2004873999976553,0.20104740001261234,0.7500405999890063
RSVPLG03,km,20260319-160706,1.0.2,20251113-095759,809,Introduction,T1,1,Automatic,main,14,20260319-160846,local,global,750,S,S,E,E,E-S.png,S-E.png,sS,sS,mask-4.png,mask-2.png,s,1,0.7595681000093464,none,-5,0,0.10129910000250675,0.09997599999769591,0.2000269000127446,0.20102020000922494,0.7512764999992214
RSVPLG03,km,20260319-160706,1.0.2,20251113-095759,809,Introduction,T1,1,Automatic,main,15,20260319-160851,global,global,750,H,H,E,A,H-E.png,H-A.png,hH,hH,mask-1.png,mask-4.png,h,1,0.25085810001473874,none,-5,0,0.10000879998551682,0.09988490000250749,0.20095539998146705,0.19890980000491254,0.7514771999849472
RSVPLG03,km,20260319-160706,1.0.2,20251113-095759,809,Introduction,T1,1,Automatic,main,16,20260319-160855,local,local,750,H,S,A,A,A-H.png,A-S.png,hH,sS,mask-4.png,mask-4.png,h,1,0.6969908000028227,none,-5,0,0.0999988000257872,0.10109899999224581,0.2011808000097517,0.20103470000321977,0.7511031000176445
RSVPLG03,km,20260319-160918,1.0.2,20251113-095759,809,Practice,T1,1,Automatic,main,1,20260319-160936,global,local,300,S,S,A,A,S-A.png,A-S.png,sS,sS,mask-3.png,mask-3.png,s,1,1.233476099994732,none,-5,0,0.041118099994491786,0.04894919999060221,0.09138630001689307,0.09874240000499412,0.29452570001012646
RSVPLG03,km,20260319-160918,1.0.2,20251113-095759,809,Practice,T1,1,Automatic,main,2,20260319-160941,local,local,750,S,S,E,A,E-S.png,A-S.png,sS,sS,mask-4.png,mask-2.png,s,1,0.3719025999889709,none,-5,0,0.0500795999832917,0.05101749999448657,0.09947899999679066,0.10117760000866838,0.7509814999939408
RSVPLG03,km,20260319-160918,1.0.2,20251113-095759,809,Practice,T1,1,Automatic,main,3,20260319-160945,local,global,750,S,S,E,E,E-S.png,S-E.png,sS,sS,mask-2.png,mask-1.png,s,1,0.396445299993502,none,-5,0,0.04975639999611303,0.04948879999574274,0.10039830001187511,0.10014559997944161,0.752500600006897
RSVPLG03,km,20260319-160918,1.0.2,20251113-095759,809,Practice,T1,1,Automatic,main,4,20260319-160950,global,local,300,S,S,A,A,S-A.png,A-S.png,sS,sS,mask-4.png,mask-2.png,s,1,0.6051386999897659,none,-5,0,0.05107560000033118,0.050050999998347834,0.10052510001696646,0.100867000001017,0.3012933999998495
RSVPLG03,km,20260319-160918,1.0.2,20251113-095759,809,Practice,T1,1,Automatic,main,5,20260319-160954,local,local,750,H,S,A,A,A-H.png,A-S.png,hH,sS,mask-2.png,mask-3.png,h,1,0.3183512999967206,none,-5,0,0.049995799985481426,0.05006929999217391,0.09976189999724738,0.10017949997563846,0.7510868000099435
RSVPLG03,km,20260319-160918,1.0.2,20251113-095759,809,Practice,T1,1,Automatic,main,6,20260319-160958,local,local,300,H,H,A,A,A-H.png,A-H.png,hH,hH,mask-3.png,mask-4.png,h,1,0.6638959999836516,none,-5,0,0.04887080000480637,0.0488453000143636,0.1000048000132665,0.09988770002382807,0.30202709999866784
RSVPLG03,km,20260319-160918,1.0.2,20251113-095759,809,Practice,T1,1,Automatic,main,7,20260319-161002,local,global,750,H,S,A,E,A-H.png,S-E.png,hH,sS,mask-1.png,mask-1.png,h,1,0.41052949998993427,none,-5,0,0.049166099983267486,0.05018900000141002,0.10078659999999218,0.09980899997754022,0.75067370000761
RSVPLG03,km,20260319-160918,1.0.2,20251113-095759,809,Practice,T1,1,Automatic,main,8,20260319-161007,local,local,300,H,H,A,E,A-H.png,E-H.png,hH,hH,mask-1.png,mask-1.png,h,1,0.32050609998987056,none,-5,0,0.04958089999854565,0.04960749999736436,0.10166290000779554,0.09944930000347085,0.30150860000867397
RSVPLG03,km,20260319-160918,1.0.2,20251113-095759,809,Practice,T1,1,Automatic,main,9,20260319-161011,global,local,750,S,S,E,A,S-E.png,A-S.png,sS,sS,mask-1.png,mask-4.png,s,1,0.3095891999837477,none,-5,0,0.050967999995918944,0.04843679998884909,0.10104139999020845,0.09893079998437315,0.7523434000031557
RSVPLG03,km,20260319-160918,1.0.2,20251113-095759,809,Practice,T1,1,Automatic,main,10,20260319-161015,global,global,300,S,S,E,E,S-E.png,S-E.png,sS,sS,mask-4.png,mask-3.png,s,1,0.3295626000035554,none,-5,0,0.04992859999765642,0.0496205999806989,0.09984149999218062,0.09968729998217896,0.3001259000157006
RSVPLG03,km,20260319-160918,1.0.2,20251113-095759,809,Practice,T1,1,Automatic,main,11,20260319-161019,global,global,750,H,S,E,E,H-E.png,S-E.png,hH,sS,mask-1.png,mask-4.png,h,1,0.21048929999233223,none,-5,0,0.050037300010444596,0.049727799982065335,0.10111129999859259,0.10035659998538904,0.7514458000077866
RSVPLG03,km,20260319-160918,1.0.2,20251113-095759,809,Practice,T1,1,Automatic,main,12,20260319-161023,global,global,300,H,S,E,E,H-E.png,S-E.png,hH,sS,mask-3.png,mask-2.png,h,1,0.3319894999731332,none,-5,0,0.05063110002083704,0.05006209999555722,0.10178320002160035,0.09996669998508878,0.3004996000090614
RSVPLG03,km,20260319-160918,1.0.2,20251113-095759,809,Practice,T1,1,Automatic,main,13,20260319-161027,global,global,750,S,S,E,E,S-E.png,S-E.png,sS,sS,mask-1.png,mask-3.png,s,1,0.22895940000307746,none,-5,0,0.049631600006250665,0.05071189999580383,0.10145600000396371,0.101499899988994,0.7510872000129893
RSVPLG03,km,20260319-160918,1.0.2,20251113-095759,809,Practice,T1,1,Automatic,main,14,20260319-161031,global,local,750,H,H,A,A,H-A.png,A-H.png,hH,hH,mask-1.png,mask-4.png,h,1,0.2825222999963444,none,-5,0,0.04886790001182817,0.04998030001297593,0.0995245999947656,0.09997360000852495,0.7521969999943394
RSVPLG03,km,20260319-160918,1.0.2,20251113-095759,809,Practice,T1,1,Automatic,main,15,20260319-161036,local,global,300,S,S,A,A,A-S.png,S-A.png,sS,sS,mask-4.png,mask-4.png,s,1,0.2944237999909092,none,-5,0,0.049895300006028265,0.049902399972779676,0.10081540001556277,0.10084879997884855,0.3005122000176925
RSVPLG03,km,20260319-160918,1.0.2,20251113-095759,809,Practice,T1,1,Automatic,main,16,20260319-161039,local,global,300,H,S,E,A,E-H.png,S-A.png,hH,sS,mask-1.png,mask-4.png,h,1,0.4873475999920629,none,-5,0,0.04974910002783872,0.048813700006576255,0.09863280001445673,0.09876180000719614,0.3003130000142846
RSVPLG03,km,20260319-161157,1.0.2,20251113-095759,809,Introduction,Both,1,Automatic,main,1,20260319-161218,local,global,750,H,S,E,A,E-H.png,S-A.png,hH,sS,mask-3.png,mask-1.png,h,1,2.8885511999833398,s,1,1.1841345000138972,0.09934439999051392,0.10007809998933226,0.2008815000008326,0.19842709999647923,0.7525711999915075
RSVPLG03,km,20260319-161157,1.0.2,20251113-095759,809,Introduction,Both,1,Automatic,main,2,20260319-161227,local,local,750,H,H,E,E,E-H.png,E-H.png,hH,hH,mask-1.png,mask-1.png,h,1,1.9133932000258937,h,1,0.7022365000157151,0.09973799998988397,0.10200430001714267,0.19961109998985194,0.2013361999997869,0.7494899999874178
RSVPLG03,km,20260319-161157,1.0.2,20251113-095759,809,Introduction,Both,1,Automatic,main,3,20260319-161234,global,global,750,H,H,E,E,H-E.png,H-E.png,hH,hH,mask-3.png,mask-2.png,h,1,1.3854972000117414,h,1,0.41363420002744533,0.10064379998948425,0.0986964000039734,0.20036580000305548,0.19908050002413802,0.7525779999850783
RSVPLG03,km,20260319-161157,1.0.2,20251113-095759,809,Introduction,Both,1,Automatic,main,4,20260319-161240,global,local,750,H,H,A,A,H-A.png,A-H.png,hH,hH,mask-3.png,mask-4.png,h,1,0.8330586999945808,h,1,0.5626114000042435,0.10148189999745227,0.10036529999342747,0.19964360000449233,0.19984409998869523,0.7518338999943808
RSVPLG03,km,20260319-161157,1.0.2,20251113-095759,809,Introduction,Both,1,Automatic,main,5,20260319-161245,global,local,750,S,S,E,E,S-E.png,E-S.png,sS,sS,mask-2.png,mask-4.png,s,1,0.4444119999825489,s,1,0.6550288999860641,0.10004879999905825,0.10020089999306947,0.20002329998533241,0.20032800000626594,0.7515624999941792
RSVPLG03,km,20260319-161157,1.0.2,20251113-095759,809,Introduction,Both,1,Automatic,main,6,20260319-161251,global,local,750,S,S,E,E,S-E.png,E-S.png,sS,sS,mask-2.png,mask-1.png,s,1,0.6589468999882229,s,1,0.5146733000001404,0.09990760000073351,0.09905679998337291,0.20060849998844787,0.2007473999983631,0.7516054000006989
RSVPLG03,km,20260319-161157,1.0.2,20251113-095759,809,Introduction,Both,1,Automatic,main,7,20260319-161256,local,global,750,S,H,A,A,A-S.png,H-A.png,sS,hH,mask-1.png,mask-1.png,h,0,0.43003040002076887,h,1,1.3425785999861546,0.09843919999548234,0.10011430000304244,0.19934520000242628,0.20027349999872968,0.7520676999993157
RSVPLG03,km,20260319-161157,1.0.2,20251113-095759,809,Introduction,Both,1,Automatic,main,8,20260319-161302,local,global,750,S,H,E,A,E-S.png,H-A.png,sS,hH,mask-3.png,mask-3.png,s,1,1.2069723999884445,h,1,2.4458142000075895,0.10117859998717904,0.10184310001204722,0.20192630001110956,0.20210550000774674,0.7515583999920636
RSVPLG03,km,20260319-161157,1.0.2,20251113-095759,809,Introduction,Both,1,Automatic,main,9,20260319-161310,global,global,750,H,S,A,A,H-A.png,S-A.png,hH,sS,mask-3.png,mask-3.png,h,1,0.7543553999857977,s,1,0.39821590000065044,0.0988878000061959,0.10160429999814369,0.19980190001660958,0.2012651000113692,0.7488636999914888
RSVPLG03,km,20260319-161157,1.0.2,20251113-095759,809,Introduction,Both,1,Automatic,main,10,20260319-161315,local,local,750,S,H,A,E,A-S.png,E-H.png,sS,hH,mask-2.png,mask-3.png,s,1,1.172720800008392,h,1,0.6062741999921855,0.1005754999932833,0.09939390001818538,0.20109109999611974,0.19950190000236034,0.7521308999857865
RSVPLG03,km,20260319-161157,1.0.2,20251113-095759,809,Introduction,Both,1,Automatic,main,11,20260319-161321,global,global,750,S,H,E,E,S-E.png,H-E.png,sS,hH,mask-3.png,mask-4.png,s,1,0.6716209000151139,h,1,0.3005371999752242,0.09967530000722036,0.099387399997795,0.19958169999881648,0.1997659999760799,0.7509010000212584
RSVPLG03,km,20260319-161157,1.0.2,20251113-095759,809,Introduction,Both,1,Automatic,main,12,20260319-161327,local,local,750,H,S,E,A,E-H.png,A-S.png,hH,sS,mask-4.png,mask-1.png,h,1,0.5424218999978621,s,1,0.23950490000424907,0.09875000000465661,0.09864640000159852,0.19951440001023002,0.20058909998624586,0.7516513000009581
RSVPLG03,km,20260319-161157,1.0.2,20251113-095759,809,Introduction,Both,1,Automatic,main,13,20260319-161332,global,local,750,H,H,A,A,H-A.png,A-H.png,hH,hH,mask-2.png,mask-4.png,h,1,0.6163377000193577,h,1,0.31753989998833276,0.09960720001254231,0.10081740000168793,0.20074970001587644,0.20087909998255782,0.7516076000174507
RSVPLG03,km,20260319-161157,1.0.2,20251113-095759,809,Introduction,Both,1,Automatic,main,14,20260319-161337,global,global,750,H,H,A,E,H-A.png,H-E.png,hH,hH,mask-3.png,mask-4.png,h,1,0.4770152999844868,h,1,0.3526566999789793,0.09881529997801408,0.10212359999422915,0.1995689999894239,0.20249579998198897,0.7492273999960162
RSVPLG03,km,20260319-161157,1.0.2,20251113-095759,809,Introduction,Both,1,Automatic,main,15,20260319-161342,local,global,750,S,S,A,A,A-S.png,S-A.png,sS,sS,mask-3.png,mask-4.png,s,1,1.4309595999948215,h,0,0.559531299979426,0.09896939998725429,0.10012240000651218,0.19904459998360835,0.1992374999972526,0.7521158999879844
RSVPLG03,km,20260319-161157,1.0.2,20251113-095759,809,Introduction,Both,1,Automatic,main,16,20260319-161348,local,local,750,H,S,A,A,A-H.png,A-S.png,hH,sS,mask-4.png,mask-1.png,s,0,0.5673596000124235,h,0,0.19158200002857484,0.09974019997753203,0.09901020000688732,0.19968940000399016,0.20066440000664443,0.7509884999890346
RSVPLG03,km,20260319-161427,1.0.2,20251113-095759,809,Practice,Both,1,Automatic,main,1,20260319-161527,local,local,750,H,S,E,A,E-H.png,A-S.png,hH,sS,mask-2.png,mask-3.png,h,1,1.370146700006444,s,1,1.4661285000038333,0.04286130002583377,0.049191400001291186,0.09174080000957474,0.1010682999913115,0.7453021000255831
RSVPLG03,km,20260319-161427,1.0.2,20251113-095759,809,Practice,Both,1,Automatic,main,2,20260319-161533,local,local,300,H,S,E,E,E-H.png,E-S.png,hH,sS,mask-2.png,mask-3.png,h,1,0.5062169000157155,s,1,0.2715963999798987,0.0505579000164289,0.049018000019714236,0.10174350001034327,0.09881680001853965,0.30259259999729693
RSVPLG03,km,20260319-161427,1.0.2,20251113-095759,809,Practice,Both,1,Automatic,main,3,20260319-161537,local,local,300,H,H,A,A,A-H.png,A-H.png,hH,hH,mask-2.png,mask-1.png,h,1,0.6947989999898709,h,1,0.3015700999822002,0.04998079998767935,0.04995179999968968,0.10004819999448955,0.10106419998919591,0.30106199998408556
RSVPLG03,km,20260319-161427,1.0.2,20251113-095759,809,Practice,Both,1,Automatic,main,4,20260319-161542,global,local,300,S,S,E,E,S-E.png,E-S.png,sS,sS,mask-3.png,mask-4.png,h,0,0.5397869999869727,s,1,0.22253910001018085,0.05021699998178519,0.049871600000187755,0.09956889998284169,0.09994109999388456,0.30116350000025705
RSVPLG03,km,20260319-161427,1.0.2,20251113-095759,809,Practice,Both,1,Automatic,main,5,20260319-161546,global,local,750,H,S,A,E,H-A.png,E-S.png,hH,sS,mask-1.png,mask-1.png,h,1,1.3068881999934092,s,1,0.11401220000698231,0.050984199973754585,0.04938000001129694,0.10174659997574054,0.09946800000034273,0.7536664999788627
RSVPLG03,km,20260319-161427,1.0.2,20251113-095759,809,Practice,Both,1,Automatic,main,6,20260319-161552,global,global,750,S,S,E,A,S-E.png,S-A.png,sS,sS,mask-4.png,mask-2.png,s,1,0.82665089998045,s,1,0.2056717999803368,0.05058619999908842,0.048741200007498264,0.10048230001120828,0.10031020001042634,0.7532757000008132
RSVPLG03,km,20260319-161427,1.0.2,20251113-095759,809,Practice,Both,1,Automatic,main,7,20260319-161557,global,global,300,S,S,E,E,S-E.png,S-E.png,sS,sS,mask-2.png,mask-4.png,s,1,0.625533499987796,s,1,0.6371801999921445,0.049687700025970116,0.049757600005250424,0.0997007000260055,0.10114159999648109,0.29973090000567026
RSVPLG03,km,20260319-161427,1.0.2,20251113-095759,809,Practice,Both,1,Automatic,main,8,20260319-161602,local,global,750,S,H,E,E,E-S.png,H-E.png,sS,hH,mask-3.png,mask-4.png,s,1,1.1450856999726966,h,1,0.014314699976239353,0.05117420002352446,0.049547300004633144,0.10126910000690259,0.09929729998111725,0.7539050000195857
RSVPLG03,km,20260319-161427,1.0.2,20251113-095759,809,Practice,Both,1,Automatic,main,9,20260319-161607,global,global,300,H,S,A,E,H-A.png,S-E.png,hH,sS,mask-2.png,mask-3.png,h,1,1.4532350999943446,s,1,0.17452090000733733,0.04865099999005906,0.04829460001201369,0.0992504000023473,0.09857960001681931,0.3017305999819655
RSVPLG03,km,20260319-161427,1.0.2,20251113-095759,809,Practice,Both,1,Automatic,main,10,20260319-161613,local,global,750,S,H,A,E,A-S.png,H-E.png,sS,hH,mask-4.png,mask-4.png,s,1,1.089234299986856,s,0,0.7506573999999091,0.04966220000642352,0.050890899990918115,0.10128020000411198,0.0999203999817837,0.7529032000165898
RSVPLG03,km,20260319-161427,1.0.2,20251113-095759,809,Practice,Both,1,Automatic,main,11,20260319-161619,local,global,300,H,H,E,E,E-H.png,H-E.png,hH,hH,mask-1.png,mask-1.png,h,1,1.0854567000060342,s,0,0.22213340000598691,0.04757920000702143,0.04968020002706908,0.09983650001231581,0.1003037000191398,0.3007183999870904
RSVPLG03,km,20260319-161427,1.0.2,20251113-095759,809,Practice,Both,1,Automatic,main,12,20260319-161624,local,local,750,S,S,A,E,A-S.png,E-S.png,sS,sS,mask-1.png,mask-1.png,s,1,0.7234932999999728,s,1,0.2075024000077974,0.04977909999433905,0.04940009998972528,0.0987893000128679,0.1014939000015147,0.7529912000172772
RSVPLG03,km,20260319-161427,1.0.2,20251113-095759,809,Practice,Both,1,Automatic,main,13,20260319-161629,local,global,300,H,H,E,A,E-H.png,H-A.png,hH,hH,mask-1.png,mask-1.png,h,1,0.738306699990062,s,0,0.31750549998832867,0.050610999984201044,0.05063239997252822,0.1004454999929294,0.10039129998767748,0.3019468999991659
RSVPLG03,km,20260319-161427,1.0.2,20251113-095759,809,Practice,Both,1,Automatic,main,14,20260319-161633,global,global,750,H,S,A,A,H-A.png,S-A.png,hH,sS,mask-4.png,mask-3.png,h,1,0.4904693999851588,s,1,0.09560469997813925,0.04981740002403967,0.052049499994609505,0.09975150000536814,0.10217920001014136,0.7519119000062346
RSVPLG03,km,20260319-161427,1.0.2,20251113-095759,809,Practice,Both,1,Automatic,main,15,20260319-161638,global,local,750,S,S,E,A,S-E.png,A-S.png,sS,sS,mask-1.png,mask-1.png,s,1,0.917757499992149,s,1,0.6865341999800876,0.0497503999795299,0.05024599999887869,0.09970520000206307,0.0982979999971576,0.7527037999825552
RSVPLG03,km,20260319-161427,1.0.2,20251113-095759,809,Practice,Both,1,Automatic,main,16,20260319-161644,global,local,300,S,S,A,E,S-A.png,E-S.png,sS,sS,mask-2.png,mask-4.png,s,1,0.5342456000216771,s,1,0.1253924999909941,0.04852700000628829,0.04897999999229796,0.09968849999131635,0.09906969999428838,0.30066840001381934
RSVPLG03,km,20260319-161756,1.0.2,20251113-095759,809,Experiment,Both,1,Automatic,warmup,1,20260319-161822,global,local,300,S,H,A,E,S-A.png,E-H.png,sS,hH,mask-1.png,mask-1.png,s,1,0.8261693000094965,s,0,0.28354840000974946,0.04185120001784526,0.04927480002515949,0.09189470001729205,0.10025570000289008,0.29157269999268465
RSVPLG03,km,20260319-161756,1.0.2,20251113-095759,809,Experiment,Both,1,Automatic,warmup,2,20260319-161827,global,global,300,H,H,E,E,H-E.png,H-E.png,hH,hH,mask-4.png,mask-4.png,s,0,0.9032178999914322,h,1,0.47780550000607036,0.05098040000302717,0.04952839997713454,0.09977559998515062,0.09903660000418313,0.3002281000080984
RSVPLG03,km,20260319-161756,1.0.2,20251113-095759,809,Experiment,Both,1,Automatic,warmup,3,20260319-161832,local,global,750,H,S,E,A,E-H.png,S-A.png,hH,sS,mask-4.png,mask-1.png,h,1,1.0693503999791574,s,1,0.2702687999990303,0.05005170000367798,0.04905779997352511,0.10005870001623407,0.09910569997737184,0.7499882000265643
RSVPLG03,km,20260319-161756,1.0.2,20251113-095759,809,Experiment,Both,1,Automatic,warmup,4,20260319-161837,global,local,750,H,S,A,A,H-A.png,A-S.png,hH,sS,mask-4.png,mask-2.png,h,1,0.7543307000014465,h,0,0.23732519999612123,0.04921620001550764,0.050836200010962784,0.09764320001704618,0.09952119999798015,0.7483532000042032
RSVPLG03,km,20260319-161756,1.0.2,20251113-095759,809,Experiment,Both,1,Automatic,main,5,20260319-161842,local,global,300,H,S,A,E,A-H.png,S-E.png,hH,sS,mask-2.png,mask-3.png,h,1,0.7946624000032898,s,1,0.19034979998832569,0.05007249998743646,0.04984960000729188,0.10016089997952804,0.100337900017621,0.2999227999825962
RSVPLG03,km,20260319-161756,1.0.2,20251113-095759,809,Experiment,Both,1,Automatic,main,6,20260319-161847,local,local,750,H,H,E,E,E-H.png,E-H.png,hH,hH,mask-4.png,mask-4.png,h,1,0.7875973999907728,s,0,0.30346160000772215,0.05000429999199696,0.05035060000955127,0.09772579997661524,0.10047689999919385,0.7476085999805946
RSVPLG03,km,20260319-161756,1.0.2,20251113-095759,809,Experiment,Both,1,Automatic,main,7,20260319-161852,local,local,300,H,H,A,A,A-H.png,A-H.png,hH,hH,mask-3.png,mask-4.png,h,1,0.3893244999926537,h,1,0.12844529998255894,0.04999359999783337,0.04873910002061166,0.10086919998866506,0.10029840000788681,0.3004693999828305
RSVPLG03,km,20260319-161756,1.0.2,20251113-095759,809,Experiment,Both,1,Automatic,main,8,20260319-161856,local,local,300,H,H,A,E,A-H.png,E-H.png,hH,hH,mask-2.png,mask-3.png,h,1,0.5396327000053134,h,1,0.1424422999843955,0.05017179998685606,0.049904199986485764,0.10017089999746531,0.09991319998516701,0.2997804000042379
RSVPLG03,km,20260319-161756,1.0.2,20251113-095759,809,Experiment,Both,1,Automatic,main,9,20260319-161901,local,global,750,H,H,A,A,A-H.png,H-A.png,hH,hH,mask-2.png,mask-2.png,h,1,0.5309262000082526,h,1,0.09521349999704398,0.04996400000527501,0.05014020000817254,0.09923409999464639,0.10022100000060163,0.7495169999892823
RSVPLG03,km,20260319-161756,1.0.2,20251113-095759,809,Experiment,Both,1,Automatic,main,10,20260319-161905,global,local,300,H,H,A,A,H-A.png,A-H.png,hH,hH,mask-2.png,mask-3.png,h,1,0.47135639999760315,s,0,0.07678400000440888,0.04980529999011196,0.04996130001381971,0.0979636000120081,0.10022250001202337,0.29813919999287464
RSVPLG03,km,20260319-161756,1.0.2,20251113-095759,809,Experiment,Both,1,Automatic,main,11,20260319-161910,global,global,750,H,S,A,E,H-A.png,S-E.png,hH,sS,mask-4.png,mask-1.png,s,0,0.4193609999783803,s,1,0.25452640000730753,0.04893320001428947,0.05043209998984821,0.10021090001100674,0.09877790001337416,0.7479061000049114
RSVPLG03,km,20260319-161756,1.0.2,20251113-095759,809,Experiment,Both,1,Automatic,main,12,20260319-161914,global,local,750,H,S,A,E,H-A.png,E-S.png,hH,sS,mask-1.png,mask-4.png,h,1,0.3382665000099223,s,1,0.4665480999974534,0.04880699998466298,0.04990039998665452,0.09984650000114925,0.0985614999954123,0.7489253999956418
RSVPLG03,km,20260319-161756,1.0.2,20251113-095759,809,Experiment,Both,1,Automatic,main,13,20260319-161919,local,local,750,S,S,A,A,A-S.png,A-S.png,sS,sS,mask-1.png,mask-4.png,s,1,0.5365373000095133,s,1,0.11079829998197965,0.050066899973899126,0.050714800017885864,0.09971979999681935,0.10107980002067052,0.7478563999757171
RSVPLG03,km,20260319-161756,1.0.2,20251113-095759,809,Experiment,Both,1,Automatic,main,14,20260319-161923,global,local,750,H,S,A,E,H-A.png,E-S.png,hH,sS,mask-1.png,mask-3.png,h,1,0.37114269999437965,s,1,0.0014538000104948878,0.04907680000178516,0.05005019999225624,0.09822079999139532,0.10007419998873957,0.7461009999969974
RSVPLG03,km,20260319-161756,1.0.2,20251113-095759,809,Experiment,Both,1,Automatic,main,15,20260319-161928,local,local,750,S,H,A,A,A-S.png,A-H.png,sS,hH,mask-2.png,mask-2.png,s,1,0.33967879999545403,h,1,0.14243290000013076,0.05003769998438656,0.05104439999558963,0.10042579998844303,0.10095789999468252,0.7501462000072934
RSVPLG03,km,20260319-161756,1.0.2,20251113-095759,809,Experiment,Both,1,Automatic,main,16,20260319-161933,global,global,750,S,H,E,A,S-E.png,H-A.png,sS,hH,mask-2.png,mask-3.png,s,1,0.5594029999920167,h,1,0.6391144999943208,0.048988599999574944,0.05038950001471676,0.09966439998243004,0.10035630001220852,0.7473678999813274
RSVPLG03,km,20260319-161756,1.0.2,20251113-095759,809,Experiment,Both,1,Automatic,main,17,20260319-161937,local,local,300,H,H,E,A,E-H.png,A-H.png,hH,hH,mask-3.png,mask-2.png,s,0,0.6538368999899831,h,1,0.7660277999821119,0.050059700006386265,0.04894740000599995,0.10113060000003316,0.10001240001292899,0.3001886999991257
RSVPLG03,km,20260319-161756,1.0.2,20251113-095759,809,Experiment,Both,1,Automatic,main,18,20260319-161941,global,local,750,S,S,A,E,S-A.png,E-S.png,sS,sS,mask-4.png,mask-3.png,h,0,0.39976000000024214,s,1,0.4961063000082504,0.05126940002082847,0.05174229998374358,0.10165060000144877,0.10047380000469275,0.7488670000166167
RSVPLG03,km,20260319-161756,1.0.2,20251113-095759,809,Experiment,Both,1,Automatic,main,19,20260319-161946,local,global,300,H,H,E,A,E-H.png,H-A.png,hH,hH,mask-4.png,mask-2.png,s,0,0.5513716000132263,h,1,0.7017237000109162,0.05092010000953451,0.04928090001340024,0.10041290000663139,0.09997730000759475,0.3015593999880366
RSVPLG03,km,20260319-161756,1.0.2,20251113-095759,809,Experiment,Both,1,Automatic,main,20,20260319-161951,global,local,750,H,S,E,A,H-E.png,A-S.png,hH,sS,mask-1.png,mask-1.png,h,1,0.41727539998828433,s,1,0.17446530002052896,0.049785399984102696,0.05083249998278916,0.10036489999038167,0.10213559999829158,0.7487342999957036
RSVPLG03,km,20260319-161756,1.0.2,20251113-095759,809,Experiment,Both,1,Automatic,main,21,20260319-161955,local,global,300,S,H,A,A,A-S.png,H-A.png,sS,hH,mask-2.png,mask-1.png,s,1,0.7708733000035863,s,0,0.4146986000123434,0.04997610001009889,0.051253799989353865,0.10002569999778643,0.09976720000850037,0.29865380001137964
RSVPLG03,km,20260319-161756,1.0.2,20251113-095759,809,Experiment,Both,1,Automatic,main,22,20260319-162000,global,local,750,H,H,A,E,H-A.png,E-H.png,hH,hH,mask-1.png,mask-2.png,h,1,0.4741140000114683,s,0,0.5701079000136815,0.04894000000786036,0.04939349999767728,0.09912209998583421,0.10055430000647902,0.7464288999908604
RSVPLG03,km,20260319-161756,1.0.2,20251113-095759,809,Experiment,Both,1,Automatic,main,23,20260319-162005,local,local,750,S,S,E,E,E-S.png,E-S.png,sS,sS,mask-2.png,mask-3.png,s,1,0.27530550002120435,s,1,0.06229969998821616,0.05068759998539463,0.05050959999789484,0.10081440000794828,0.10109720000764355,0.7479837999853771
RSVPLG03,km,20260319-161756,1.0.2,20251113-095759,809,Experiment,Both,1,Automatic,main,24,20260319-162009,local,global,300,S,H,E,E,E-S.png,H-E.png,sS,hH,mask-3.png,mask-2.png,s,1,1.3320408999861684,h,1,1.4602103999932297,0.051012200012337416,0.050531100016087294,0.10078639999846928,0.10022870000102557,0.2996343999984674
RSVPLG03,km,20260319-161756,1.0.2,20251113-095759,809,Experiment,Both,1,Automatic,main,25,20260319-162014,local,local,750,H,S,A,E,A-H.png,E-S.png,hH,sS,mask-4.png,mask-3.png,h,1,0.25467769999522716,s,1,0.002012800017837435,0.05036289998679422,0.05071969999698922,0.09989280000445433,0.10059849999379367,0.7473463999922387
RSVPLG03,km,20260319-161756,1.0.2,20251113-095759,809,Experiment,Both,1,Automatic,main,26,20260319-162034,local,local,750,S,H,A,A,A-S.png,A-H.png,sS,hH,mask-4.png,mask-4.png,s,1,0.44996050000190735,h,1,0.5458827000111341,0.050065799994627014,0.049178299988852814,0.09939139999914914,0.0982986000017263,0.7498598000092898
RSVPLG03,km,20260319-161756,1.0.2,20251113-095759,809,Experiment,Both,1,Automatic,main,27,20260319-162038,local,local,300,S,H,E,A,E-S.png,A-H.png,sS,hH,mask-2.png,mask-4.png,s,1,0.21659029999864288,h,1,0.2803307000140194,0.04930029998649843,0.04766209999797866,0.09872859998722561,0.09919660000014119,0.2996724999975413
RSVPLG03,km,20260319-161756,1.0.2,20251113-095759,809,Experiment,Both,1,Automatic,main,28,20260319-162042,local,global,750,S,H,E,E,E-S.png,H-E.png,sS,hH,mask-3.png,mask-4.png,s,1,0.6641912999912165,h,1,0.7442384000169113,0.05040900001768023,0.050070199999026954,0.10062430001562461,0.09810399997513741,0.750301500025671
RSVPLG03,km,20260319-161756,1.0.2,20251113-095759,809,Experiment,Both,1,Automatic,main,29,20260319-162047,local,global,300,H,H,A,E,A-H.png,H-E.png,hH,hH,mask-1.png,mask-3.png,h,1,0.43170099999406375,s,0,0.5438372000062373,0.05048390000592917,0.049505600007250905,0.10002949999761768,0.1011012000089977,0.2997837000002619
RSVPLG03,km,20260319-161756,1.0.2,20251113-095759,809,Experiment,Both,1,Automatic,main,30,20260319-162051,global,local,750,S,S,E,E,S-E.png,E-S.png,sS,sS,mask-4.png,mask-1.png,s,1,0.5510865999967791,h,0,0.6307432999892626,0.04905880001024343,0.05070819999673404,0.09910720001789741,0.10075009998399764,0.7479950000124518
RSVPLG03,km,20260319-161756,1.0.2,20251113-095759,809,Experiment,Both,1,Automatic,main,31,20260319-162055,local,global,300,H,S,E,A,E-H.png,S-A.png,hH,sS,mask-2.png,mask-3.png,h,1,0.4931941000104416,h,0,0.20469780001440085,0.048949900025036186,0.04873040001257323,0.09909900001366623,0.09888850001152605,0.2997281000134535
RSVPLG03,km,20260319-161756,1.0.2,20251113-095759,809,Experiment,Both,1,Automatic,main,32,20260319-162100,local,local,750,S,S,A,E,A-S.png,E-S.png,sS,sS,mask-4.png,mask-3.png,s,1,0.33492870000191033,s,1,0.06197270000120625,0.04894659999990836,0.05010059999767691,0.09897809999529272,0.10049240000080317,0.7476859999878798
RSVPLG03,km,20260319-161756,1.0.2,20251113-095759,809,Experiment,Both,1,Automatic,main,33,20260319-162104,local,local,300,S,S,A,E,A-S.png,E-S.png,sS,sS,mask-3.png,mask-4.png,s,1,0.3288008999952581,s,1,0.11065409998991527,0.051644799998030066,0.049809299991466105,0.10150350001640618,0.09963569999672472,0.29970840000896715
RSVPLG03,km,20260319-161756,1.0.2,20251113-095759,809,Experiment,Both,1,Automatic,main,34,20260319-162108,local,local,750,S,S,E,A,E-S.png,A-S.png,sS,sS,mask-2.png,mask-3.png,s,1,0.24052709998795763,s,1,0.0786216999986209,0.05088860000250861,0.05088890000479296,0.09953520001727156,0.10075129999313504,0.7483888000133447
RSVPLG03,km,20260319-161756,1.0.2,20251113-095759,809,Experiment,Both,1,Automatic,main,35,20260319-162113,local,local,300,H,S,E,A,E-H.png,A-S.png,hH,sS,mask-3.png,mask-1.png,h,1,0.2639614000217989,s,1,0.3761653999972623,0.04846879999968223,0.050295299995923415,0.09845729998778552,0.10077910000109114,0.29714169999351725
RSVPLG03,km,20260319-161756,1.0.2,20251113-095759,809,Experiment,Both,1,Automatic,main,36,20260319-162117,local,local,300,S,S,E,A,E-S.png,A-S.png,sS,sS,mask-4.png,mask-3.png,s,1,0.5772944000200368,s,1,0.062040200020419434,0.050818099989555776,0.0493477999989409,0.09978639998007566,0.10047419997863472,0.2996534999983851
RSVPLG03,km,20260319-161756,1.0.2,20251113-095759,809,Experiment,Both,1,Automatic,main,37,20260319-162121,global,local,300,H,S,A,A,H-A.png,A-S.png,hH,sS,mask-1.png,mask-3.png,h,1,0.38943969999672845,s,1,0.013497200008714572,0.04899780001142062,0.049556000012671575,0.09859410001081415,0.09906680000131018,0.299641799996607
RSVPLG03,km,20260319-161756,1.0.2,20251113-095759,809,Experiment,Both,1,Automatic,main,38,20260319-162125,local,local,750,H,H,E,E,E-H.png,E-H.png,hH,hH,mask-4.png,mask-4.png,h,1,0.3680333999800496,h,1,0.07540679999510758,0.05008250000537373,0.050681900000199676,0.0984195000200998,0.09955640000407584,0.7493621000030544
RSVPLG03,km,20260319-161756,1.0.2,20251113-095759,809,Experiment,Both,1,Automatic,main,39,20260319-162129,global,local,300,H,H,A,E,H-A.png,E-H.png,hH,hH,mask-1.png,mask-3.png,h,1,0.8346187999995891,s,0,0.8026568000204861,0.049281699990388006,0.050366299983579665,0.09935490001225844,0.10009709998848848,0.29835920000914484
RSVPLG03,km,20260319-161756,1.0.2,20251113-095759,809,Experiment,Both,1,Automatic,main,40,20260319-162135,global,global,300,H,H,E,E,H-E.png,H-E.png,hH,hH,mask-1.png,mask-4.png,h,1,0.37034459999995306,h,1,0.09267969999928027,0.050923700007842854,0.049544099980266765,0.10067839999101125,0.09992529998999089,0.3004955000069458
RSVPLG03,km,20260319-161756,1.0.2,20251113-095759,809,Experiment,Both,1,Automatic,main,41,20260319-162139,local,global,300,S,S,E,A,E-S.png,S-A.png,sS,sS,mask-2.png,mask-4.png,s,1,0.4058255999989342,s,1,0.07820089999586344,0.049832899996545166,0.048240100004477426,0.09861939999973401,0.09988729999167845,0.3004496000066865
RSVPLG03,km,20260319-161756,1.0.2,20251113-095759,809,Experiment,Both,1,Automatic,main,42,20260319-162143,local,global,300,S,H,E,E,E-S.png,H-E.png,sS,hH,mask-4.png,mask-2.png,s,1,1.06234219999169,s,0,0.19003159998101182,0.05084010001155548,0.048527799983276054,0.09947330001159571,0.09901079998235218,0.300222300022142
RSVPLG03,km,20260319-161756,1.0.2,20251113-095759,809,Experiment,Both,1,Automatic,main,43,20260319-162148,local,global,300,S,H,E,A,E-S.png,H-A.png,sS,hH,mask-1.png,mask-2.png,s,1,0.5448920000053477,h,1,0.2546520000032615,0.050037299981340766,0.051486600015778095,0.10101489999215119,0.10011870000744238,0.2993753999762703
RSVPLG03,km,20260319-161756,1.0.2,20251113-095759,809,Experiment,Both,1,Automatic,main,44,20260319-162152,local,global,750,H,H,E,A,E-H.png,H-A.png,hH,hH,mask-2.png,mask-4.png,h,1,0.37810180001542903,s,0,0.09281820000614971,0.04983099998207763,0.04975870001362637,0.09977400000207126,0.09966040001017973,0.7485333999793511
RSVPLG03,km,20260319-161756,1.0.2,20251113-095759,809,Experiment,Both,1,Automatic,main,45,20260319-162157,local,global,750,H,S,E,E,E-H.png,S-E.png,hH,sS,mask-2.png,mask-3.png,h,1,0.46531239998876117,h,0,0.06278119998751208,0.04938889999175444,0.049990300001809373,0.09811620000982657,0.10000010000658222,0.748453599982895
RSVPLG03,km,20260319-161756,1.0.2,20251113-095759,809,Experiment,Both,1,Automatic,main,46,20260319-162201,local,global,750,S,S,E,A,E-S.png,S-A.png,sS,sS,mask-2.png,mask-4.png,s,1,0.5542820000264328,s,1,0.07909449998987839,0.04996150001534261,0.04895239998586476,0.09910650001256727,0.10003339999821037,0.7492225000169128
RSVPLG03,km,20260319-161756,1.0.2,20251113-095759,809,Experiment,Both,1,Automatic,main,47,20260319-162206,global,local,750,S,H,E,E,S-E.png,E-H.png,sS,hH,mask-4.png,mask-4.png,s,1,0.6430040999839548,s,0,0.46238759998232126,0.047978199989302084,0.0512903000053484,0.09765959999640472,0.10003190001589246,0.7466825000010431
RSVPLG03,km,20260319-161756,1.0.2,20251113-095759,809,Experiment,Both,1,Automatic,main,48,20260319-162212,global,global,750,S,H,A,A,S-A.png,H-A.png,sS,hH,mask-4.png,mask-2.png,s,1,0.48009840000304393,h,1,0.5918051000044215,0.04948519999743439,0.04967549999128096,0.09953269999823533,0.09944069999619387,0.7500412999943364
RSVPLG03,km,20260319-161756,1.0.2,20251113-095759,809,Experiment,Both,1,Automatic,main,49,20260319-162216,global,local,750,S,H,E,A,S-E.png,A-H.png,sS,hH,mask-1.png,mask-3.png,s,1,0.7753266000072472,h,1,0.9514936000050511,0.05094679998001084,0.049539700004970655,0.10099679999984801,0.099191699991934,0.7490734999882989
RSVPLG03,km,20260319-161756,1.0.2,20251113-095759,809,Experiment,Both,1,Automatic,main,50,20260319-162221,global,global,300,S,S,A,E,S-A.png,S-E.png,sS,sS,mask-2.png,mask-2.png,s,1,0.8101818000141066,s,1,0.35051339998608455,0.04966650001006201,0.04956830001901835,0.09993590001249686,0.09981310000875965,0.2997262999997474
RSVPLG03,km,20260319-161756,1.0.2,20251113-095759,809,Experiment,Both,1,Automatic,main,51,20260319-162235,global,global,750,S,H,E,E,S-E.png,H-E.png,sS,hH,mask-1.png,mask-4.png,h,0,0.6342298000236042,h,1,0.9631900000094902,0.050393000012263656,0.04984379999223165,0.1002742999990005,0.09879250000813045,0.751157399994554
RSVPLG03,km,20260319-161756,1.0.2,20251113-095759,809,Experiment,Both,1,Automatic,main,52,20260319-162241,local,global,750,S,H,A,A,A-S.png,H-A.png,sS,hH,mask-3.png,mask-3.png,h,0,0.5183427000010852,h,1,0.6855070999881718,0.048464100022101775,0.0489479000098072,0.09832550000282936,0.10004660001141019,0.7489182999997865
RSVPLG03,km,20260319-161756,1.0.2,20251113-095759,809,Experiment,Both,1,Automatic,main,53,20260319-162246,global,local,300,H,H,A,A,H-A.png,A-H.png,hH,hH,mask-4.png,mask-3.png,h,1,0.5254857999971136,h,1,0.09450779997860081,0.0503037000016775,0.05131969999638386,0.10171280000940897,0.09971409998252057,0.29994610001449473
RSVPLG03,km,20260319-161756,1.0.2,20251113-095759,809,Experiment,Both,1,Automatic,main,54,20260319-162250,global,local,750,H,S,A,A,H-A.png,A-S.png,hH,sS,mask-4.png,mask-3.png,h,1,0.4401843999803532,h,0,0.25831790000665933,0.049757700006011873,0.05122359999222681,0.09814290000940673,0.10181190000730567,0.7458501000073738
RSVPLG03,km,20260319-161756,1.0.2,20251113-095759,809,Experiment,Both,1,Automatic,main,55,20260319-162255,local,global,750,S,H,E,A,E-S.png,H-A.png,sS,hH,mask-1.png,mask-4.png,s,1,3.440330299985362,s,0,0.0953936000005342,0.050687900016782805,0.04899999999906868,0.09947910002665594,0.09986970000318252,0.7496813000179827
RSVPLG03,km,20260319-161756,1.0.2,20251113-095759,809,Experiment,Both,1,Automatic,main,56,20260319-162303,global,local,300,S,H,E,A,S-E.png,A-H.png,sS,hH,mask-2.png,mask-1.png,h,0,0.5943544000037946,h,1,0.11372470000060275,0.04996860001119785,0.04946969999582507,0.09903780001332052,0.10005680000176653,0.29920100001618266
RSVPLG03,km,20260319-161756,1.0.2,20251113-095759,809,Experiment,Both,1,Automatic,main,57,20260319-162307,global,global,750,S,H,E,A,S-E.png,H-A.png,sS,hH,mask-4.png,mask-1.png,s,1,0.3208796999824699,h,1,0.43277270000544377,0.049824099987745285,0.04973259998951107,0.09964679999393411,0.0995894999941811,0.7479830000083894
RSVPLG03,km,20260319-161756,1.0.2,20251113-095759,809,Experiment,Both,1,Automatic,main,58,20260319-162311,global,global,750,S,S,A,E,S-A.png,S-E.png,sS,sS,mask-3.png,mask-1.png,s,1,0.5077792999800295,s,1,0.07757580000907183,0.050513099995441735,0.050932199985254556,0.10009930000524037,0.10064089999650605,0.7482814000104554
RSVPLG03,km,20260319-161756,1.0.2,20251113-095759,809,Experiment,Both,1,Automatic,main,59,20260319-162316,local,local,300,H,S,E,E,E-H.png,E-S.png,hH,sS,mask-3.png,mask-1.png,h,1,0.6615874000126496,s,1,0.7577743000001647,0.05102670000633225,0.05114689999027178,0.09870410000439733,0.09940619999542832,0.298692000011215
RSVPLG03,km,20260319-161756,1.0.2,20251113-095759,809,Experiment,Both,1,Automatic,main,60,20260319-162321,global,global,300,H,H,E,E,H-E.png,H-E.png,hH,hH,mask-2.png,mask-1.png,h,1,0.3743940999847837,h,1,0.07905950001440942,0.049841900006867945,0.049344099999871105,0.0998058000113815,0.09962510000332259,0.29951390001224354
RSVPLG03,km,20260319-161756,1.0.2,20251113-095759,809,Experiment,Both,1,Automatic,main,61,20260319-162325,local,local,300,S,S,A,E,A-S.png,E-S.png,sS,sS,mask-4.png,mask-3.png,s,1,0.44057879998581484,s,1,0.3660147000045981,0.05066080001415685,0.04882209998322651,0.09972600001492538,0.09877250000135973,0.30072980001568794
RSVPLG03,km,20260319-161756,1.0.2,20251113-095759,809,Experiment,Both,1,Automatic,main,62,20260319-162329,global,global,750,S,S,E,E,S-E.png,S-E.png,sS,sS,mask-1.png,mask-1.png,s,1,0.3075048000027891,s,1,0.07858099997974932,0.04968240001471713,0.05093610001495108,0.09886600001482293,0.1005388000048697,0.7468293000129052
RSVPLG03,km,20260319-161756,1.0.2,20251113-095759,809,Experiment,Both,1,Automatic,main,63,20260319-162334,local,local,300,H,H,A,A,A-H.png,A-H.png,hH,hH,mask-3.png,mask-2.png,h,1,0.32755770001676865,h,1,0.1417935000208672,0.04871210001874715,0.0502007000031881,0.09869360001175664,0.09939329998451285,0.2984446000191383
RSVPLG03,km,20260319-161756,1.0.2,20251113-095759,809,Experiment,Both,1,Automatic,main,64,20260319-162338,local,global,750,H,H,A,E,A-H.png,H-E.png,hH,hH,mask-3.png,mask-4.png,h,1,0.5982101999979932,h,1,0.09464809999917634,0.05018189997645095,0.05081449999124743,0.09915880000335164,0.09983150000334717,0.7489946999994572
RSVPLG03,km,20260319-161756,1.0.2,20251113-095759,809,Experiment,Both,1,Automatic,main,65,20260319-162343,global,local,750,H,S,A,E,H-A.png,E-S.png,hH,sS,mask-2.png,mask-1.png,h,1,0.8199674999923445,s,1,0.01302930002566427,0.05025910001131706,0.04925459998776205,0.10032789999968372,0.09931669998331927,0.7488850000081584
RSVPLG03,km,20260319-161756,1.0.2,20251113-095759,809,Experiment,Both,1,Automatic,main,66,20260319-162348,local,global,750,H,S,A,A,A-H.png,S-A.png,hH,sS,mask-4.png,mask-3.png,h,1,0.4673793999827467,s,1,0.0776750999793876,0.048927900003036484,0.04998790001263842,0.09798570000566542,0.09937650000210851,0.7474524999852292
RSVPLG03,km,20260319-161756,1.0.2,20251113-095759,809,Experiment,Both,1,Automatic,main,67,20260319-162352,global,global,300,H,S,A,E,H-A.png,S-E.png,hH,sS,mask-1.png,mask-2.png,h,1,0.5140387000283226,s,1,0.14304739999352023,0.04985329997725785,0.049853900010930374,0.09980309999082237,0.0987983999948483,0.29993819998344406
RSVPLG03,km,20260319-161756,1.0.2,20251113-095759,809,Experiment,Both,1,Automatic,main,68,20260319-162356,local,global,750,H,S,A,E,A-H.png,S-E.png,hH,sS,mask-3.png,mask-1.png,h,1,0.4997381999855861,h,0,0.0658875000081025,0.05149899999378249,0.051253699988592416,0.10052269999869168,0.10108069999841973,0.748970399989048
RSVPLG03,km,20260319-161756,1.0.2,20251113-095759,809,Experiment,Both,1,Automatic,main,69,20260319-162401,local,local,300,H,S,A,E,A-H.png,E-S.png,hH,sS,mask-2.png,mask-3.png,h,1,0.6313713999988977,s,1,0.04495059998589568,0.05100470001343638,0.04998919999343343,0.10012680001091212,0.10022209997987375,0.29924810002557933
RSVPLG03,km,20260319-161756,1.0.2,20251113-095759,809,Experiment,Both,1,Automatic,main,70,20260319-162405,local,local,750,H,S,E,A,E-H.png,A-S.png,hH,sS,mask-4.png,mask-4.png,h,1,0.2118620999972336,s,1,0.09309129999019206,0.05060240000602789,0.049961799988523126,0.10064690001308918,0.10104619999765418,0.7481585000059567
RSVPLG03,km,20260319-161756,1.0.2,20251113-095759,809,Experiment,Both,1,Automatic,main,71,20260319-162410,global,local,300,S,H,E,A,S-E.png,A-H.png,sS,hH,mask-4.png,mask-3.png,h,0,0.5471491000207607,s,0,1.213462299987441,0.04894589999457821,0.050059600005624816,0.09917289999430068,0.09953720000339672,0.299490599980345
RSVPLG03,km,20260319-161756,1.0.2,20251113-095759,809,Experiment,Both,1,Automatic,main,72,20260319-162415,global,global,300,S,H,A,E,S-A.png,H-E.png,sS,hH,mask-1.png,mask-4.png,s,1,0.3410653999890201,h,1,0.01327809999929741,0.0499716000049375,0.050092499994207174,0.09938359999796376,0.09982250002212822,0.3002480999857653
RSVPLG03,km,20260319-161756,1.0.2,20251113-095759,809,Experiment,Both,1,Automatic,main,73,20260319-162419,global,global,300,S,H,E,E,S-E.png,H-E.png,sS,hH,mask-2.png,mask-4.png,s,1,0.475831100018695,h,1,0.013525400019716471,0.04889720000210218,0.0505023000005167,0.09885370000847615,0.10081030000583269,0.29804130000411533
RSVPLG03,km,20260319-161756,1.0.2,20251113-095759,809,Experiment,Both,1,Automatic,main,74,20260319-162423,local,local,750,S,S,A,A,A-S.png,A-S.png,sS,sS,mask-3.png,mask-2.png,s,1,0.23240380000788718,s,1,0.0592698999971617,0.05056899998453446,0.04844270000467077,0.10066169998026453,0.09898350000730716,0.7497972999990452
RSVPLG03,km,20260319-161756,1.0.2,20251113-095759,809,Experiment,Both,1,Automatic,main,75,20260319-162428,local,global,300,H,H,E,E,E-H.png,H-E.png,hH,hH,mask-2.png,mask-4.png,h,1,0.24983859999338165,h,1,0.23993329997756518,0.05087509998702444,0.04935369998565875,0.10073869998450391,0.0989257000037469,0.30015840000123717
RSVPLG03,km,20260319-161756,1.0.2,20251113-095759,809,Experiment,Both,1,Automatic,main,76,20260319-162442,global,global,300,S,H,A,A,S-A.png,H-A.png,sS,hH,mask-4.png,mask-1.png,s,1,0.28512169999885373,h,1,0.033363499998813495,0.04887070000404492,0.04995389998657629,0.09987959999125451,0.10000249999575317,0.2986345000099391
RSVPLG03,km,20260319-161756,1.0.2,20251113-095759,809,Experiment,Both,1,Automatic,main,77,20260319-162446,local,global,750,H,S,E,A,E-H.png,S-A.png,hH,sS,mask-4.png,mask-2.png,h,1,0.2920921000186354,h,0,0.07743580001988448,0.05005569997592829,0.04960139998001978,0.10089279999374412,0.09981399998650886,0.749208199995337
RSVPLG03,km,20260319-161756,1.0.2,20251113-095759,809,Experiment,Both,1,Automatic,main,78,20260319-162451,global,global,750,S,H,A,E,S-A.png,H-E.png,sS,hH,mask-3.png,mask-2.png,s,1,0.337695199996233,h,1,0.04564219998428598,0.04894060001242906,0.048625299998093396,0.09737240002141334,0.09861840002122335,0.7484937999979593
RSVPLG03,km,20260319-161756,1.0.2,20251113-095759,809,Experiment,Both,1,Automatic,main,79,20260319-162455,global,global,300,H,H,A,E,H-A.png,H-E.png,hH,hH,mask-1.png,mask-4.png,h,1,0.3363475000078324,h,1,0.09547460000612773,0.05020079997484572,0.04980419998173602,0.10128019997500814,0.10151149999001063,0.29902340000262484
RSVPLG03,km,20260319-161756,1.0.2,20251113-095759,809,Experiment,Both,1,Automatic,main,80,20260319-162459,global,global,300,S,S,E,E,S-E.png,S-E.png,sS,sS,mask-4.png,mask-3.png,h,0,0.6777144000225235,h,0,0.0752881999942474,0.048384099995018914,0.05030810000607744,0.0993966999812983,0.09976840001763776,0.29915139998774976
RSVPLG03,km,20260319-161756,1.0.2,20251113-095759,809,Experiment,Both,1,Automatic,main,81,20260319-162504,global,global,750,S,S,E,A,S-E.png,S-A.png,sS,sS,mask-2.png,mask-2.png,s,1,0.4624206000007689,s,1,0.04735920001985505,0.050907299999380484,0.04892969998763874,0.09950670000398532,0.10008009997545741,0.7494030000234488
RSVPLG03,km,20260319-161756,1.0.2,20251113-095759,809,Experiment,Both,1,Automatic,main,82,20260319-162508,local,global,300,S,S,A,A,A-S.png,S-A.png,sS,sS,mask-3.png,mask-4.png,s,1,0.4377177999995183,s,1,0.6075049999926705,0.0500146999838762,0.04982290000771172,0.1001438999956008,0.1008678000071086,0.3004023999965284
RSVPLG03,km,20260319-161756,1.0.2,20251113-095759,809,Experiment,Both,1,Automatic,main,83,20260319-162513,local,local,300,H,S,A,A,A-H.png,A-S.png,hH,sS,mask-3.png,mask-2.png,h,1,0.1891814999980852,s,1,0.03049750000354834,0.05094330001156777,0.05045939999399707,0.09942310000769794,0.1006342000036966,0.2984078000008594
RSVPLG03,km,20260319-161756,1.0.2,20251113-095759,809,Experiment,Both,1,Automatic,main,84,20260319-162517,global,local,300,H,H,E,E,H-E.png,E-H.png,hH,hH,mask-1.png,mask-4.png,h,1,0.25068650001776405,s,0,0.19100790002266876,0.047613699978683144,0.05157350000808947,0.09863409999525174,0.10151850001420826,0.2978894999832846
RSVPLG03,km,20260319-161756,1.0.2,20251113-095759,809,Experiment,Both,1,Automatic,main,85,20260319-162521,local,global,750,H,H,E,A,E-H.png,H-A.png,hH,hH,mask-3.png,mask-3.png,h,1,0.35976940000546165,h,1,0.41432799998437986,0.049665400001686066,0.050478799996199086,0.0998181999893859,0.10002179999719374,0.748107199993683
RSVPLG03,km,20260319-161756,1.0.2,20251113-095759,809,Experiment,Both,1,Automatic,main,86,20260319-162526,local,local,750,S,H,A,E,A-S.png,E-H.png,sS,hH,mask-4.png,mask-3.png,s,1,0.21399429999291897,h,1,0.014960399974370375,0.04995680000865832,0.04899179999483749,0.09969090000959113,0.09927450001123361,0.7499216000142042
RSVPLG03,km,20260319-161756,1.0.2,20251113-095759,809,Experiment,Both,1,Automatic,main,87,20260319-162530,global,local,750,S,H,E,E,S-E.png,E-H.png,sS,hH,mask-1.png,mask-4.png,h,0,0.3265856999787502,h,1,0.07696609999402426,0.048161799990339205,0.05014889998710714,0.09928319999016821,0.10021959998994134,0.7478365999995731
RSVPLG03,km,20260319-161756,1.0.2,20251113-095759,809,Experiment,Both,1,Automatic,main,88,20260319-162535,global,global,300,S,H,E,E,S-E.png,H-E.png,sS,hH,mask-2.png,mask-1.png,h,0,0.7281279999879189,s,0,0.17409529999713413,0.04758569999830797,0.05128310000873171,0.09942020001471974,0.10098160000052303,0.2982544999977108
RSVPLG03,km,20260319-161756,1.0.2,20251113-095759,809,Experiment,Both,1,Automatic,main,89,20260319-162539,local,global,300,H,S,E,E,E-H.png,S-E.png,hH,sS,mask-2.png,mask-1.png,h,1,0.3406933999795001,s,1,0.3804672000114806,0.04982499999459833,0.049400400021113455,0.09981329998117872,0.0998746000113897,0.2993032999802381
RSVPLG03,km,20260319-161756,1.0.2,20251113-095759,809,Experiment,Both,1,Automatic,main,90,20260319-162544,global,local,300,S,H,A,E,S-A.png,E-H.png,sS,hH,mask-2.png,mask-1.png,h,0,0.5039339999784715,s,0,0.04812830002629198,0.04993739997735247,0.05111880000913516,0.1009736999985762,0.1002992000139784,0.29780589998699725
RSVPLG03,km,20260319-161756,1.0.2,20251113-095759,809,Experiment,Both,1,Automatic,main,91,20260319-162548,global,local,300,H,H,A,E,H-A.png,E-H.png,hH,hH,mask-3.png,mask-3.png,h,1,0.7583343999867793,s,0,0.04852260000188835,0.05055040001752786,0.05050310000660829,0.09916420001536608,0.10012200000346638,0.2983482000126969
RSVPLG03,km,20260319-161756,1.0.2,20251113-095759,809,Experiment,Both,1,Automatic,main,92,20260319-162552,global,local,300,S,H,E,A,S-E.png,A-H.png,sS,hH,mask-4.png,mask-4.png,s,1,0.43280169999343343,h,1,0.10777319999760948,0.04975619999459013,0.049647799984086305,0.09854239999549463,0.09891289999359287,0.2989403000101447
RSVPLG03,km,20260319-161756,1.0.2,20251113-095759,809,Experiment,Both,1,Automatic,main,93,20260319-162557,global,local,300,S,S,E,E,S-E.png,E-S.png,sS,sS,mask-2.png,mask-4.png,s,1,0.3296845000004396,s,1,0.31695370000670664,0.048389200004749,0.04988230002345517,0.0985649999929592,0.10147260001394898,0.2973385999794118
RSVPLG03,km,20260319-161756,1.0.2,20251113-095759,809,Experiment,Both,1,Automatic,main,94,20260319-162601,global,global,300,H,S,E,E,H-E.png,S-E.png,hH,sS,mask-2.png,mask-3.png,h,1,0.22917529998812824,s,1,0.5755896000191569,0.05075059999944642,0.049319000012474135,0.10016159998485819,0.09825460001593456,0.2999034999811556
RSVPLG03,km,20260319-161756,1.0.2,20251113-095759,809,Experiment,Both,1,Automatic,main,95,20260319-162605,global,local,300,S,H,E,A,S-E.png,A-H.png,sS,hH,mask-4.png,mask-3.png,s,1,0.17360650000046007,h,1,0.14265460000024177,0.048668399977032095,0.04996420000679791,0.09980889997677878,0.09972600001492538,0.29782819998217747
RSVPLG03,km,20260319-161756,1.0.2,20251113-095759,809,Experiment,Both,1,Automatic,main,96,20260319-162609,global,global,300,S,H,E,A,S-E.png,H-A.png,sS,hH,mask-4.png,mask-4.png,s,1,0.07448939999449067,h,1,0.06149150000419468,0.05064559998572804,0.05083839999861084,0.10131569998338819,0.09931930000311695,0.3002377999946475
RSVPLG03,km,20260319-161756,1.0.2,20251113-095759,809,Experiment,Both,1,Automatic,main,97,20260319-162613,global,global,750,H,H,E,E,H-E.png,H-E.png,hH,hH,mask-4.png,mask-4.png,h,1,0.4104974000074435,h,1,0.09465559999807738,0.05013009998947382,0.05129420000594109,0.09993089997442439,0.10010420001344755,0.7471887999854516
RSVPLG03,km,20260319-161756,1.0.2,20251113-095759,809,Experiment,Both,1,Automatic,main,98,20260319-162618,global,local,750,S,S,A,E,S-A.png,E-S.png,sS,sS,mask-4.png,mask-3.png,s,1,0.29539610000210814,s,1,0.06117110000923276,0.04980599999544211,0.05035209999186918,0.0985276999999769,0.09999759998754598,0.7480642000155058
RSVPLG03,km,20260319-161756,1.0.2,20251113-095759,809,Experiment,Both,1,Automatic,main,99,20260319-162622,global,global,750,H,H,E,E,H-E.png,H-E.png,hH,hH,mask-1.png,mask-1.png,h,1,0.321535800001584,h,1,0.061451599991414696,0.05105720000574365,0.0487550999969244,0.1001172999967821,0.09801710001192987,0.7496839000086766
RSVPLG03,km,20260319-161756,1.0.2,20251113-095759,809,Experiment,Both,1,Automatic,main,100,20260319-162627,global,global,750,H,S,A,A,H-A.png,S-A.png,hH,sS,mask-3.png,mask-1.png,h,1,0.3257832000090275,s,1,0.06752730000880547,0.05025599998771213,0.0489726000232622,0.10058119997847825,0.09903480001958087,0.7500048999791034
RSVPLG03,km,20260319-162658,1.0.2,20251113-095759,809,Experiment,Both,1,Automatic,warmup,1,20260319-162720,global,local,750,H,H,E,E,H-E.png,E-H.png,hH,hH,mask-2.png,mask-1.png,h,1,0.28986029999214225,h,1,0.07829949998995289,0.04085970000596717,0.05092830001376569,0.09100660000694916,0.10189009999157861,0.7421508000115864
RSVPLG03,km,20260319-162658,1.0.2,20251113-095759,809,Experiment,Both,1,Automatic,warmup,2,20260319-162724,local,local,300,S,H,E,A,E-S.png,A-H.png,sS,hH,mask-4.png,mask-1.png,s,1,0.21521550000761636,h,1,0.013616800017189234,0.048889300000155345,0.04907690000254661,0.1007810999872163,0.0990923999925144,0.3005092999956105
RSVPLG03,km,20260319-162658,1.0.2,20251113-095759,809,Experiment,Both,1,Automatic,warmup,3,20260319-162728,global,local,300,S,H,A,A,S-A.png,A-H.png,sS,hH,mask-3.png,mask-3.png,s,1,0.1564809999836143,h,1,0.124475499993423,0.0501356000022497,0.05111279999255203,0.10102010000264272,0.10163290001219139,0.3007221999869216
RSVPLG03,km,20260319-162658,1.0.2,20251113-095759,809,Experiment,Both,1,Automatic,warmup,4,20260319-162732,global,global,750,H,H,E,A,H-E.png,H-A.png,hH,hH,mask-1.png,mask-2.png,h,1,0.2374724999826867,h,1,0.0785567999992054,0.04964539999491535,0.05117300001438707,0.10037679999368265,0.1015659999975469,0.7507486999966204
RSVPLG03,km,20260319-162658,1.0.2,20251113-095759,809,Experiment,Both,1,Automatic,main,5,20260319-162736,global,local,300,S,H,E,A,S-E.png,A-H.png,sS,hH,mask-2.png,mask-3.png,s,1,0.1930335000215564,h,1,0.048241799988318235,0.04867409999133088,0.04883099999278784,0.09937179999542423,0.09937579999677837,0.3007616999966558
RSVPLG03,km,20260319-162658,1.0.2,20251113-095759,809,Experiment,Both,1,Automatic,main,6,20260319-162740,local,global,300,H,H,A,A,A-H.png,H-A.png,hH,hH,mask-2.png,mask-4.png,h,1,0.264657099993201,s,0,0.15812960002222098,0.04985409998334944,0.04983949998859316,0.10194189997855574,0.09975789999589324,0.3012495999864768
RSVPLG03,km,20260319-162658,1.0.2,20251113-095759,809,Experiment,Both,1,Automatic,main,7,20260319-162744,local,local,300,H,S,A,A,A-H.png,A-S.png,hH,sS,mask-2.png,mask-3.png,h,1,0.2219704000162892,s,1,0.014352900005178526,0.05062949997955002,0.04988590002176352,0.10046369998599403,0.10179450002033263,0.30023569997865707
RSVPLG03,km,20260319-162658,1.0.2,20251113-095759,809,Experiment,Both,1,Automatic,main,8,20260319-162748,global,local,300,H,H,A,E,H-A.png,E-H.png,hH,hH,mask-3.png,mask-1.png,h,1,0.5176728999940678,s,0,0.10918590001529083,0.05097760001081042,0.05038380000041798,0.10099710000213236,0.10079799999948591,0.2994507999974303
RSVPLG03,km,20260319-162658,1.0.2,20251113-095759,809,Experiment,Both,1,Automatic,main,9,20260319-162753,global,global,750,S,H,E,E,S-E.png,H-E.png,sS,hH,mask-4.png,mask-2.png,s,1,0.33477590000256896,h,1,0.10915260002366267,0.049800300010247156,0.04938150002271868,0.10078330000396818,0.09985580001375638,0.7519028999959119
RSVPLG03,km,20260319-162658,1.0.2,20251113-095759,809,Experiment,Both,1,Automatic,main,10,20260319-162757,local,global,300,S,H,A,E,A-S.png,H-E.png,sS,hH,mask-4.png,mask-2.png,s,1,0.7092975999985356,h,1,0.111518799996702,0.050815199996577576,0.05271859999629669,0.10174589999951422,0.10154260002309456,0.29931189998751506
RSVPLG03,km,20260319-162658,1.0.2,20251113-095759,809,Experiment,Both,1,Automatic,main,11,20260319-162802,global,local,300,H,H,E,A,H-E.png,A-H.png,hH,hH,mask-3.png,mask-1.png,h,1,0.4225016999989748,h,1,0.07771350000984967,0.04896740001277067,0.05046090000541881,0.09914639999624342,0.09900180000113323,0.2998166000179481
RSVPLG03,km,20260319-162658,1.0.2,20251113-095759,809,Experiment,Both,1,Automatic,main,12,20260319-162806,global,local,750,H,H,E,E,H-E.png,E-H.png,hH,hH,mask-2.png,mask-1.png,h,1,0.18126449998817407,h,1,0.07875889999559149,0.04901099999551661,0.05085410000174306,0.09905780002009124,0.1004479999828618,0.7511686000216287
RSVPLG03,km,20260319-162658,1.0.2,20251113-095759,809,Experiment,Both,1,Automatic,main,13,20260319-162810,local,local,300,S,S,A,A,A-S.png,A-S.png,sS,sS,mask-4.png,mask-1.png,s,1,0.36931660000118427,s,1,0.0776594000053592,0.050234499998623505,0.05144750000908971,0.09855029999744147,0.10094979999121279,0.299362799996743
RSVPLG03,km,20260319-162658,1.0.2,20251113-095759,809,Experiment,Both,1,Automatic,main,14,20260319-162814,global,local,750,S,H,E,A,S-E.png,A-H.png,sS,hH,mask-2.png,mask-2.png,s,1,0.16859950000070967,h,1,0.012556899979244918,0.049840299994684756,0.0496119000017643,0.10000289999879897,0.1013053999922704,0.7513026999949943
RSVPLG03,km,20260319-162658,1.0.2,20251113-095759,809,Experiment,Both,1,Automatic,main,15,20260319-162818,global,global,300,S,H,E,E,S-E.png,H-E.png,sS,hH,mask-1.png,mask-3.png,s,1,0.4545972000050824,h,1,0.03425749999587424,0.04965739999897778,0.049467300006654114,0.10046899999724701,0.1007777999911923,0.3001028999860864
RSVPLG03,km,20260319-162658,1.0.2,20251113-095759,809,Experiment,Both,1,Automatic,main,16,20260319-162823,global,global,300,S,S,E,E,S-E.png,S-E.png,sS,sS,mask-2.png,mask-2.png,s,1,0.20330429999739863,h,0,0.4902877999993507,0.04960810000193305,0.050699900020845234,0.09996890000184067,0.09976430001552217,0.2998265999776777
RSVPLG03,km,20260319-162658,1.0.2,20251113-095759,809,Experiment,Both,1,Automatic,main,17,20260319-162827,global,local,300,S,H,A,E,S-A.png,E-H.png,sS,hH,mask-2.png,mask-3.png,s,1,0.20772740000393242,h,1,0.25208869998459704,0.04887709999457002,0.05079080001451075,0.0987170000153128,0.1013678000017535,0.2994284000014886
RSVPLG03,km,20260319-162658,1.0.2,20251113-095759,809,Experiment,Both,1,Automatic,main,18,20260319-162831,global,local,300,S,H,A,E,S-A.png,E-H.png,sS,hH,mask-3.png,mask-2.png,s,1,0.27820189998601563,h,1,0.09321150000323541,0.0506104999803938,0.04844869999215007,0.09920769999735057,0.0991020999790635,0.30122100000153296
RSVPLG03,km,20260319-162658,1.0.2,20251113-095759,809,Experiment,Both,1,Automatic,main,19,20260319-162835,local,global,300,H,H,E,E,E-H.png,H-E.png,hH,hH,mask-3.png,mask-2.png,h,1,0.1465769999776967,s,0,0.37049430000479333,0.050887899997178465,0.04966899999999441,0.10046340001281351,0.10144169998238795,0.3008451000205241
RSVPLG03,km,20260319-162658,1.0.2,20251113-095759,809,Experiment,Both,1,Automatic,main,20,20260319-162839,local,global,750,S,S,A,A,A-S.png,S-A.png,sS,sS,mask-4.png,mask-2.png,s,1,0.3676364000129979,h,0,0.05862440000055358,0.05072090000612661,0.049624300008872524,0.0994743000192102,0.10041810001712292,0.752529899997171
RSVPLG03,km,20260319-162658,1.0.2,20251113-095759,809,Experiment,Both,1,Automatic,main,21,20260319-162844,local,local,750,H,S,A,A,A-H.png,A-S.png,hH,sS,mask-1.png,mask-1.png,h,1,0.17222519998904318,s,1,0.029239800001960248,0.04967529998975806,0.05015090000233613,0.09976670000469312,0.0997530999884475,0.7517600000137463
RSVPLG03,km,20260319-162658,1.0.2,20251113-095759,809,Experiment,Both,1,Automatic,main,22,20260319-162848,global,local,300,H,S,E,E,H-E.png,E-S.png,hH,sS,mask-4.png,mask-2.png,h,1,0.30790349998278543,s,1,0.3177905000047758,0.049964700010605156,0.05064149998361245,0.10141540001495741,0.09929929999634624,0.30164840002544224
RSVPLG03,km,20260319-162658,1.0.2,20251113-095759,809,Experiment,Both,1,Automatic,main,23,20260319-162853,local,global,750,H,S,A,A,A-H.png,S-A.png,hH,sS,mask-1.png,mask-3.png,h,1,0.14857439999468625,s,1,0.31899599998723716,0.04938050001510419,0.05057150000357069,0.09986980000394396,0.10176879999926314,0.749858299997868
RSVPLG03,km,20260319-162658,1.0.2,20251113-095759,809,Experiment,Both,1,Automatic,main,24,20260319-162857,local,global,300,H,S,A,A,A-H.png,S-A.png,hH,sS,mask-3.png,mask-4.png,h,1,0.2933511000010185,s,1,0.045775000005960464,0.05013260000851005,0.05114460000186227,0.09853870002552867,0.09966819998226129,0.2994538000202738
RSVPLG03,km,20260319-162658,1.0.2,20251113-095759,809,Experiment,Both,1,Automatic,main,25,20260319-162901,global,global,300,H,H,E,E,H-E.png,H-E.png,hH,hH,mask-1.png,mask-1.png,h,1,0.33233710000058636,h,1,0.07678599999053404,0.04887649999000132,0.05080549998092465,0.09879970000474714,0.100712499988731,0.29990990000078455
RSVPLG03,km,20260319-162658,1.0.2,20251113-095759,809,Experiment,Both,1,Automatic,main,26,20260319-162912,local,local,750,H,S,A,E,A-H.png,E-S.png,hH,sS,mask-4.png,mask-4.png,h,1,0.18551699997624382,s,1,0.09476169999106787,0.049644799990346655,0.050458199984859675,0.10015690000727773,0.0999493999988772,0.7506619000050705
RSVPLG03,km,20260319-162658,1.0.2,20251113-095759,809,Experiment,Both,1,Automatic,main,27,20260319-162917,global,local,750,H,H,A,A,H-A.png,A-H.png,hH,hH,mask-4.png,mask-1.png,h,1,0.1517085999948904,h,1,0.0773019999905955,0.0508735999756027,0.049010499991709366,0.1007085999881383,0.10008750000270084,0.7529611999925692
RSVPLG03,km,20260319-162658,1.0.2,20251113-095759,809,Experiment,Both,1,Automatic,main,28,20260319-162921,global,global,750,H,S,A,A,H-A.png,S-A.png,hH,sS,mask-1.png,mask-1.png,h,1,0.24845860002096742,s,1,0.12725699998554774,0.05164170000352897,0.05024819998652674,0.10045639998861589,0.10066589998314157,0.7509223000088241
RSVPLG03,km,20260319-162658,1.0.2,20251113-095759,809,Experiment,Both,1,Automatic,main,29,20260319-162926,local,local,750,H,H,A,E,A-H.png,E-H.png,hH,hH,mask-1.png,mask-2.png,h,1,0.48259060000418685,h,1,0.09807619999628514,0.04995619997498579,0.04966819999390282,0.10110419997363351,0.098824999993667,0.7527407000015955
RSVPLG03,km,20260319-162658,1.0.2,20251113-095759,809,Experiment,Both,1,Automatic,main,30,20260319-162930,local,global,750,S,H,E,A,E-S.png,H-A.png,sS,hH,mask-4.png,mask-2.png,s,1,0.4796119999955408,h,1,0.14516489999368787,0.04959199999575503,0.04966980000608601,0.0996844999899622,0.09941009999602102,0.7520632999949157
RSVPLG03,km,20260319-162658,1.0.2,20251113-095759,809,Experiment,Both,1,Automatic,main,31,20260319-162935,local,global,750,S,S,E,A,E-S.png,S-A.png,sS,sS,mask-1.png,mask-2.png,s,1,0.4429344999953173,s,1,0.12636230001226068,0.0511226000089664,0.04917859999113716,0.09945899999001995,0.10003309999592602,0.752021499996772
RSVPLG03,km,20260319-162658,1.0.2,20251113-095759,809,Experiment,Both,1,Automatic,main,32,20260319-162940,global,local,300,S,H,E,A,S-E.png,A-H.png,sS,hH,mask-1.png,mask-4.png,s,1,0.45945980001124553,h,1,0.2379382000071928,0.048723299987614155,0.04955719999270514,0.0995241999917198,0.1000445999961812,0.299199300003238
RSVPLG03,km,20260319-162658,1.0.2,20251113-095759,809,Experiment,Both,1,Automatic,main,33,20260319-162944,global,local,750,S,H,A,E,S-A.png,E-H.png,sS,hH,mask-3.png,mask-4.png,s,1,0.3985633999982383,s,0,0.14110549999168143,0.05082370000309311,0.05197040000348352,0.10076000000117347,0.10159480001311749,0.7507670999912079
RSVPLG03,km,20260319-162658,1.0.2,20251113-095759,809,Experiment,Both,1,Automatic,main,34,20260319-162949,global,local,300,H,H,A,A,H-A.png,A-H.png,hH,hH,mask-1.png,mask-4.png,h,1,0.3947844000067562,h,1,0.5295191999757662,0.050273200002266094,0.049653800000669435,0.10008279999601655,0.09938830000464804,0.30115929999738
RSVPLG03,km,20260319-162658,1.0.2,20251113-095759,809,Experiment,Both,1,Automatic,main,35,20260319-162953,global,local,750,H,H,A,A,H-A.png,A-H.png,hH,hH,mask-2.png,mask-1.png,h,1,0.4820756000117399,h,1,0.06332419998943806,0.050307199999224395,0.04964290000498295,0.09950449998723343,0.10042100001010112,0.7521879999840166
RSVPLG03,km,20260319-162658,1.0.2,20251113-095759,809,Experiment,Both,1,Automatic,main,36,20260319-162958,global,global,300,S,S,A,E,S-A.png,S-E.png,sS,sS,mask-4.png,mask-3.png,s,1,0.3140516999992542,s,1,0.08050630000070669,0.05050179999670945,0.05051219998858869,0.10150260000955313,0.10139930000877939,0.30080050000105985
RSVPLG03,km,20260319-162658,1.0.2,20251113-095759,809,Experiment,Both,1,Automatic,main,37,20260319-163002,global,local,750,H,H,A,E,H-A.png,E-H.png,hH,hH,mask-1.png,mask-4.png,h,1,0.4284400000178721,s,0,0.23748280000290833,0.047612199996365234,0.04997849999926984,0.09922000000369735,0.10101729998132214,0.7500800999987405
RSVPLG03,km,20260319-162658,1.0.2,20251113-095759,809,Experiment,Both,1,Automatic,main,38,20260319-163007,global,global,300,H,S,A,A,H-A.png,S-A.png,hH,sS,mask-1.png,mask-2.png,h,1,0.2535998999956064,s,1,0.45897450001211837,0.04953150000073947,0.049754300009226426,0.10021549998782575,0.09964560001390055,0.3025928999995813
RSVPLG03,km,20260319-162658,1.0.2,20251113-095759,809,Experiment,Both,1,Automatic,main,39,20260319-163011,global,local,300,H,H,E,A,H-E.png,A-H.png,hH,hH,mask-1.png,mask-3.png,h,1,0.45697450000443496,s,0,0.10965980001492426,0.049758799985283986,0.04888119999668561,0.09957319998648018,0.10007970000151545,0.29990990000078455
RSVPLG03,km,20260319-162658,1.0.2,20251113-095759,809,Experiment,Both,1,Automatic,main,40,20260319-163015,local,local,750,H,S,A,E,A-H.png,E-S.png,hH,sS,mask-2.png,mask-2.png,h,1,0.15721030000713654,s,1,0.1093442999990657,0.05097420001402497,0.050822499993955716,0.10099889998673461,0.10178329999325797,0.7528865000058431
RSVPLG03,km,20260319-162658,1.0.2,20251113-095759,809,Experiment,Both,1,Automatic,main,41,20260319-163020,local,global,300,H,H,A,E,A-H.png,H-E.png,hH,hH,mask-2.png,mask-2.png,h,1,0.4934126000152901,h,1,0.28903089999221265,0.048907099990174174,0.050287999998545274,0.1004415999923367,0.10130179999396205,0.2998881999810692
RSVPLG03,km,20260319-162658,1.0.2,20251113-095759,809,Experiment,Both,1,Automatic,main,42,20260319-163024,global,local,750,H,H,A,E,H-A.png,E-H.png,hH,hH,mask-2.png,mask-1.png,h,1,0.3436158999975305,h,1,0.07862119999481365,0.05051250001997687,0.050846400001319125,0.10075100001995452,0.10061200000927784,0.7514138999977149
RSVPLG03,km,20260319-162658,1.0.2,20251113-095759,809,Experiment,Both,1,Automatic,main,43,20260319-163029,local,local,750,H,H,A,A,A-H.png,A-H.png,hH,hH,mask-3.png,mask-2.png,h,1,0.166432000027271,h,1,0.07739579997723922,0.05110350000904873,0.05032680000294931,0.10057229999802075,0.10088240000186488,0.7512034999963362
RSVPLG03,km,20260319-162658,1.0.2,20251113-095759,809,Experiment,Both,1,Automatic,main,44,20260319-163033,global,global,300,S,H,A,E,S-A.png,H-E.png,sS,hH,mask-4.png,mask-1.png,s,1,0.3155439000111073,h,1,0.14415599999483675,0.05018360001849942,0.050154600001405925,0.10042830000747927,0.10047239999403246,0.3023612000106368
RSVPLG03,km,20260319-162658,1.0.2,20251113-095759,809,Experiment,Both,1,Automatic,main,45,20260319-163037,global,global,750,S,H,E,A,S-E.png,H-A.png,sS,hH,mask-1.png,mask-3.png,h,0,0.33735339998384006,h,1,0.09753560001263395,0.0487643999804277,0.04998239999986254,0.0995827000006102,0.10068169998703524,0.7513723000010941
RSVPLG03,km,20260319-162658,1.0.2,20251113-095759,809,Experiment,Both,1,Automatic,main,46,20260319-163042,local,global,300,H,H,E,E,E-H.png,H-E.png,hH,hH,mask-3.png,mask-2.png,h,1,0.5355967999785207,h,1,0.10753820001264103,0.05097459998796694,0.04901180000160821,0.10000599999330007,0.09802060000947677,0.30147229999420233
RSVPLG03,km,20260319-162658,1.0.2,20251113-095759,809,Experiment,Both,1,Automatic,main,47,20260319-163046,global,local,300,H,S,A,A,H-A.png,A-S.png,hH,sS,mask-2.png,mask-1.png,h,1,0.3938792000117246,s,1,0.028557300014654174,0.048914299986790866,0.05149879999225959,0.09761659998912364,0.1010470999754034,0.29869789999793284
RSVPLG03,km,20260319-162658,1.0.2,20251113-095759,809,Experiment,Both,1,Automatic,main,48,20260319-163050,local,local,300,H,H,A,A,A-H.png,A-H.png,hH,hH,mask-3.png,mask-2.png,h,1,0.27654719998827204,h,1,0.12512219999916852,0.05099729998619296,0.04933710000477731,0.10148059998755343,0.09976470001856796,0.30262029997538775
RSVPLG03,km,20260319-162658,1.0.2,20251113-095759,809,Experiment,Both,1,Automatic,main,49,20260319-163054,local,global,750,S,H,E,E,E-S.png,H-E.png,sS,hH,mask-2.png,mask-4.png,s,1,0.3906227000115905,s,0,0.30227769998600706,0.049625399988144636,0.0501137999817729,0.10070339997764677,0.10024549998342991,0.7515513999969698
RSVPLG03,km,20260319-162658,1.0.2,20251113-095759,809,Experiment,Both,1,Automatic,main,50,20260319-163059,local,local,300,S,H,E,E,E-S.png,E-H.png,sS,hH,mask-2.png,mask-1.png,s,1,0.26315029998659156,h,1,0.17657139999209903,0.04957470000954345,0.04966040002182126,0.0991611999925226,0.09916599999996834,0.30022619999363087
RSVPLG03,km,20260319-162658,1.0.2,20251113-095759,809,Experiment,Both,1,Automatic,main,51,20260319-163104,global,global,750,H,S,E,E,H-E.png,S-E.png,hH,sS,mask-4.png,mask-2.png,h,1,0.24819299997761846,s,1,0.10897850000765175,0.0490472000092268,0.049382600001990795,0.09910920000402257,0.10051789999124594,0.7521897999977227
RSVPLG03,km,20260319-162658,1.0.2,20251113-095759,809,Experiment,Both,1,Automatic,main,52,20260319-163109,global,global,300,S,H,E,E,S-E.png,H-E.png,sS,hH,mask-3.png,mask-1.png,s,1,0.1646296999824699,h,1,0.14559659999213181,0.05058229999849573,0.04886500001884997,0.10027830000035465,0.09995950001757592,0.3016726999776438
RSVPLG03,km,20260319-162658,1.0.2,20251113-095759,809,Experiment,Both,1,Automatic,main,53,20260319-163113,local,local,300,H,S,A,A,A-H.png,A-S.png,hH,sS,mask-2.png,mask-3.png,h,1,0.12333200001739897,s,1,0.1272725999879185,0.048569400009000674,0.04827349999686703,0.09950460001709871,0.10035419999621809,0.30183840001700446
RSVPLG03,km,20260319-162658,1.0.2,20251113-095759,809,Experiment,Both,1,Automatic,main,54,20260319-163117,global,global,750,H,S,A,A,H-A.png,S-A.png,hH,sS,mask-1.png,mask-2.png,s,0,0.39943570000468753,s,1,0.14081329997861758,0.04944699999759905,0.04912859998876229,0.09904529998311773,0.09972929998184554,0.7524345999991056
RSVPLG03,km,20260319-162658,1.0.2,20251113-095759,809,Experiment,Both,1,Automatic,main,55,20260319-163121,global,global,750,H,S,A,E,H-A.png,S-E.png,hH,sS,mask-3.png,mask-4.png,h,1,0.33797429999685846,h,0,0.5110657000041101,0.05076690000714734,0.04925999999977648,0.09971979999681935,0.09985329999472015,0.7514155000098981
RSVPLG03,km,20260319-162658,1.0.2,20251113-095759,809,Experiment,Both,1,Automatic,main,56,20260319-163126,local,global,750,S,H,A,A,A-S.png,H-A.png,sS,hH,mask-1.png,mask-3.png,s,1,0.3724060999811627,h,1,0.11367010002140887,0.049663999991025776,0.0498133999935817,0.10155449999729171,0.1007380000082776,0.751141299988376
RSVPLG03,km,20260319-162658,1.0.2,20251113-095759,809,Experiment,Both,1,Automatic,main,57,20260319-163131,local,local,300,H,S,A,E,A-H.png,E-S.png,hH,sS,mask-1.png,mask-2.png,s,0,0.24439359997631982,h,0,0.5922033000097144,0.05026590000488795,0.050628600001800805,0.09987510001519695,0.10041839999030344,0.3006786000041757
RSVPLG03,km,20260319-162658,1.0.2,20251113-095759,809,Experiment,Both,1,Automatic,main,58,20260319-163135,global,local,300,H,S,E,A,H-E.png,A-S.png,hH,sS,mask-1.png,mask-4.png,h,1,0.3866322000103537,s,1,0.10849179999786429,0.04969139999593608,0.049891000002389774,0.10077580000506714,0.09897439999622293,0.3017937999975402
RSVPLG03,km,20260319-162658,1.0.2,20251113-095759,809,Experiment,Both,1,Automatic,main,59,20260319-163140,local,local,750,S,H,E,E,E-S.png,E-H.png,sS,hH,mask-3.png,mask-1.png,s,1,0.3174730000027921,h,1,0.1428068999957759,0.050794499984476715,0.049169100006110966,0.10035289998631924,0.1003437000035774,0.7524982999893837
RSVPLG03,km,20260319-162658,1.0.2,20251113-095759,809,Experiment,Both,1,Automatic,main,60,20260319-163144,local,local,300,S,H,A,A,A-S.png,A-H.png,sS,hH,mask-3.png,mask-4.png,s,1,0.16327400002046488,h,1,0.06513119998271577,0.04885120000108145,0.049335399991832674,0.10060839998186566,0.09998149998136796,0.3006932999996934
RSVPLG03,km,20260319-162658,1.0.2,20251113-095759,809,Experiment,Both,1,Automatic,main,61,20260319-163148,global,global,750,H,S,E,E,H-E.png,S-E.png,hH,sS,mask-1.png,mask-3.png,h,1,0.26261899998644367,s,1,0.07749070000136271,0.05122090000077151,0.050896699976874515,0.10113699999055825,0.09938229998806491,0.7516798000142444
RSVPLG03,km,20260319-162658,1.0.2,20251113-095759,809,Experiment,Both,1,Automatic,main,62,20260319-163153,global,global,750,H,H,A,E,H-A.png,H-E.png,hH,hH,mask-4.png,mask-4.png,h,1,0.22840259998338297,h,1,0.09861190000083297,0.04998650000197813,0.04880829999456182,0.10010929999407381,0.09874909999780357,0.7519903999927919
RSVPLG03,km,20260319-162658,1.0.2,20251113-095759,809,Experiment,Both,1,Automatic,main,63,20260319-163157,local,global,750,H,S,E,E,E-H.png,S-E.png,hH,sS,mask-2.png,mask-2.png,h,1,0.28676369998720475,h,0,0.07933659999980591,0.048847800004296005,0.05023369999253191,0.09922410000581294,0.10061150000547059,0.7508126000175253
RSVPLG03,km,20260319-162658,1.0.2,20251113-095759,809,Experiment,Both,1,Automatic,main,64,20260319-163201,local,global,300,S,S,A,A,A-S.png,S-A.png,sS,sS,mask-4.png,mask-3.png,s,1,0.3402076000056695,h,0,0.16170050000073388,0.049742700008209795,0.04972560002352111,0.09960310001042672,0.10054510002373718,0.3001911999890581
RSVPLG03,km,20260319-162658,1.0.2,20251113-095759,809,Experiment,Both,1,Automatic,main,65,20260319-163206,local,global,750,S,S,A,A,A-S.png,S-A.png,sS,sS,mask-1.png,mask-3.png,s,1,0.45677530000102706,h,0,0.5259523999993689,0.050984200002858415,0.04848199998377822,0.10113699999055825,0.10002769998391159,0.7528752000071108
RSVPLG03,km,20260319-162658,1.0.2,20251113-095759,809,Experiment,Both,1,Automatic,main,66,20260319-163211,local,global,750,H,H,A,E,A-H.png,H-E.png,hH,hH,mask-3.png,mask-4.png,h,1,0.25423699998646043,s,0,0.1416284999868367,0.049980999989202246,0.050828600011300296,0.09999879999668337,0.09940460001234896,0.7509325999999419
RSVPLG03,km,20260319-162658,1.0.2,20251113-095759,809,Experiment,Both,1,Automatic,main,67,20260319-163215,local,global,750,S,S,E,E,E-S.png,S-E.png,sS,sS,mask-2.png,mask-4.png,s,1,0.36573540000244975,s,1,0.10699349999777041,0.050978500017663464,0.04861759999766946,0.09990450000623241,0.09935909998603165,0.7522087000252213
RSVPLG03,km,20260319-162658,1.0.2,20251113-095759,809,Experiment,Both,1,Automatic,main,68,20260319-163220,global,local,750,S,H,E,A,S-E.png,A-H.png,sS,hH,mask-4.png,mask-2.png,s,1,0.26058619999093935,h,1,0.06264670001110062,0.04769579999265261,0.049880500009749085,0.09936930000549182,0.09984090001671575,0.7520442999957595
RSVPLG03,km,20260319-162658,1.0.2,20251113-095759,809,Experiment,Both,1,Automatic,main,69,20260319-163224,local,local,750,S,H,E,E,E-S.png,E-H.png,sS,hH,mask-1.png,mask-2.png,s,1,0.24664019999909215,h,1,0.09481069998582825,0.05014669999945909,0.050378299987642094,0.10007819999009371,0.099160399986431,0.7514629999932367
RSVPLG03,km,20260319-162658,1.0.2,20251113-095759,809,Experiment,Both,1,Automatic,main,70,20260319-163229,local,global,300,S,S,E,E,E-S.png,S-E.png,sS,sS,mask-3.png,mask-4.png,s,1,0.31229800000437535,h,0,0.1104959000076633,0.05176250002114102,0.05060300001059659,0.10138649999862537,0.09986369998659939,0.30161960000987165
RSVPLG03,km,20260319-162658,1.0.2,20251113-095759,809,Experiment,Both,1,Automatic,main,71,20260319-163233,local,global,750,S,H,E,E,E-S.png,H-E.png,sS,hH,mask-1.png,mask-4.png,s,1,0.36689320000004955,h,1,0.38267350001842715,0.05060599997523241,0.05160589999286458,0.10017179997521453,0.10050129998126067,0.7509202999935951
RSVPLG03,km,20260319-162658,1.0.2,20251113-095759,809,Experiment,Both,1,Automatic,main,72,20260319-163238,global,local,750,H,S,A,A,H-A.png,A-S.png,hH,sS,mask-3.png,mask-1.png,h,1,0.20072979998076335,h,0,0.34887950000120327,0.04882940000970848,0.051360599987674505,0.09963290000450797,0.09914400000707246,0.7508363999950234
RSVPLG03,km,20260319-162658,1.0.2,20251113-095759,809,Experiment,Both,1,Automatic,main,73,20260319-163242,local,global,300,H,H,A,E,A-H.png,H-E.png,hH,hH,mask-1.png,mask-3.png,h,1,0.2800721999956295,h,1,0.4185926000063773,0.049807800009148195,0.049872100003995,0.09973370001534931,0.09978019999107346,0.30046840000431985
RSVPLG03,km,20260319-162658,1.0.2,20251113-095759,809,Experiment,Both,1,Automatic,main,74,20260319-163247,global,local,750,S,H,A,A,S-A.png,A-H.png,sS,hH,mask-2.png,mask-4.png,s,1,0.122264500008896,h,1,0.06254750001244247,0.049837300000945106,0.04997770002228208,0.0995458000106737,0.09995070000877604,0.751868999999715
RSVPLG03,km,20260319-162658,1.0.2,20251113-095759,809,Experiment,Both,1,Automatic,main,75,20260319-163251,local,local,300,H,H,E,E,E-H.png,E-H.png,hH,hH,mask-2.png,mask-2.png,h,1,0.23401379998540506,h,1,0.07905110000865534,0.05082619999302551,0.05043809997732751,0.10059769998770207,0.10049169999547303,0.3018367000040598
RSVPLG03,km,20260319-162658,1.0.2,20251113-095759,809,Experiment,Both,1,Automatic,main,76,20260319-163304,local,local,300,H,H,E,E,E-H.png,E-H.png,hH,hH,mask-3.png,mask-4.png,h,1,0.19417999999132007,h,1,0.06239000000641681,0.05128290000720881,0.04859809999470599,0.09997300000395626,0.10027520000585355,0.3019620999984909
RSVPLG03,km,20260319-162658,1.0.2,20251113-095759,809,Experiment,Both,1,Automatic,main,77,20260319-163308,global,global,750,H,H,E,E,H-E.png,H-E.png,hH,hH,mask-2.png,mask-1.png,h,1,0.1639398999977857,h,1,0.06170329998712987,0.048973800003295764,0.050201799982460216,0.100048299995251,0.10133409997797571,0.7507706000178587
RSVPLG03,km,20260319-162658,1.0.2,20251113-095759,809,Experiment,Both,1,Automatic,main,78,20260319-163313,global,local,300,H,S,A,A,H-A.png,A-S.png,hH,sS,mask-4.png,mask-2.png,h,1,0.17182350001530722,s,1,0.30244759999914095,0.04996110001229681,0.05097800001385622,0.10034440000890754,0.09966269999858923,0.3004396999895107
RSVPLG03,km,20260319-162658,1.0.2,20251113-095759,809,Experiment,Both,1,Automatic,main,79,20260319-163317,global,global,300,H,S,A,A,H-A.png,S-A.png,hH,sS,mask-4.png,mask-1.png,h,1,0.3921089000068605,s,1,0.02788229999714531,0.050087999989045784,0.04962669999804348,0.09923989998060279,0.09991079999599606,0.2993999999889638
RSVPLG03,km,20260319-162658,1.0.2,20251113-095759,809,Experiment,Both,1,Automatic,main,80,20260319-163321,global,global,750,S,H,A,A,S-A.png,H-A.png,sS,hH,mask-3.png,mask-3.png,h,0,0.3056606999889482,h,1,0.3335285999928601,0.04936299999826588,0.049810900003649294,0.09927609999431297,0.10072550000040792,0.7507665999874007
RSVPLG03,km,20260319-162658,1.0.2,20251113-095759,809,Experiment,Both,1,Automatic,main,81,20260319-163326,local,local,300,H,S,E,A,E-H.png,A-S.png,hH,sS,mask-2.png,mask-3.png,h,1,0.13288349998765625,s,1,0.04330620000837371,0.04950439999811351,0.0516615999804344,0.10030779999215156,0.10046889999648556,0.2999110000091605
RSVPLG03,km,20260319-162658,1.0.2,20251113-095759,809,Experiment,Both,1,Automatic,main,82,20260319-163329,local,local,300,H,S,E,E,E-H.png,E-S.png,hH,sS,mask-1.png,mask-1.png,h,1,0.11886479999520816,s,1,0.029184300015913323,0.050369400007184595,0.050428799993824214,0.09850490000098944,0.09946060000220314,0.2995169000059832
RSVPLG03,km,20260319-162658,1.0.2,20251113-095759,809,Experiment,Both,1,Automatic,main,83,20260319-163333,global,local,750,S,S,A,A,S-A.png,A-S.png,sS,sS,mask-4.png,mask-4.png,s,1,0.30385940000996925,s,1,0.07655759999761358,0.04984990000957623,0.0486250999965705,0.10088280000491068,0.09879270000965334,0.7523323000059463
RSVPLG03,km,20260319-162658,1.0.2,20251113-095759,809,Experiment,Both,1,Automatic,main,84,20260319-163338,local,global,300,S,S,A,E,A-S.png,S-E.png,sS,sS,mask-4.png,mask-4.png,s,1,0.4132015999930445,s,1,0.12508269998943433,0.0505733999889344,0.049046800006181,0.10023759998148307,0.09978719998616725,0.3009103999938816
RSVPLG03,km,20260319-162658,1.0.2,20251113-095759,809,Experiment,Both,1,Automatic,main,85,20260319-163342,local,global,300,H,S,E,E,E-H.png,S-E.png,hH,sS,mask-1.png,mask-4.png,h,1,0.22172140001202933,h,0,0.14497710001887754,0.0517583999899216,0.049896800017450005,0.09950769998249598,0.0996461000177078,0.3021930999821052
RSVPLG03,km,20260319-162658,1.0.2,20251113-095759,809,Experiment,Both,1,Automatic,main,86,20260319-163346,global,global,750,H,H,A,A,H-A.png,H-A.png,hH,hH,mask-3.png,mask-4.png,h,1,0.3475062999932561,h,1,0.08015769999474287,0.051302899984875694,0.0488545999978669,0.09881599998334423,0.09874859999399632,0.753216799988877
RSVPLG03,km,20260319-162658,1.0.2,20251113-095759,809,Experiment,Both,1,Automatic,main,87,20260319-163350,local,local,300,H,H,E,E,E-H.png,E-H.png,hH,hH,mask-1.png,mask-4.png,h,1,0.23041339998599142,s,0,0.1274781999818515,0.05087830001139082,0.04987989997607656,0.10007790001691319,0.10079629998654127,0.3010292000253685
RSVPLG03,km,20260319-162658,1.0.2,20251113-095759,809,Experiment,Both,1,Automatic,main,88,20260319-163354,local,local,750,H,S,A,E,A-H.png,E-S.png,hH,sS,mask-2.png,mask-1.png,h,1,0.17105780000565574,s,1,0.048506899998756126,0.04959179999423213,0.048336400010157377,0.0992854000069201,0.09949160000542179,0.7516070999845397
RSVPLG03,km,20260319-162658,1.0.2,20251113-095759,809,Experiment,Both,1,Automatic,main,89,20260319-163359,global,global,300,S,H,A,E,S-A.png,H-E.png,sS,hH,mask-4.png,mask-4.png,s,1,0.2296658999985084,h,1,0.08048500001314096,0.04934010002762079,0.04878429998643696,0.09966710000298917,0.09897520000231452,0.3006494000146631
RSVPLG03,km,20260319-162658,1.0.2,20251113-095759,809,Experiment,Both,1,Automatic,main,90,20260319-163403,global,global,300,S,H,E,A,S-E.png,H-A.png,sS,hH,mask-1.png,mask-4.png,h,0,0.14263720001326874,s,0,0.028003199986414984,0.05094069999177009,0.04963560000760481,0.1020258000062313,0.09941920000710525,0.30171669999253936
RSVPLG03,km,20260319-162658,1.0.2,20251113-095759,809,Experiment,Both,1,Automatic,main,91,20260319-163407,local,global,300,S,S,E,E,E-S.png,S-E.png,sS,sS,mask-2.png,mask-3.png,s,1,0.4048964000248816,h,0,0.07951660000253469,0.049391500011552125,0.04895830000168644,0.10083199999644421,0.10037519998149946,0.3004304000060074
RSVPLG03,km,20260319-162658,1.0.2,20251113-095759,809,Experiment,Both,1,Automatic,main,92,20260319-163411,local,global,750,S,H,A,A,A-S.png,H-A.png,sS,hH,mask-4.png,mask-2.png,s,1,0.4063300999987405,h,1,0.0935460000182502,0.0507252000097651,0.04856570000993088,0.09902009999495931,0.09953410000889562,0.7525919000036083
RSVPLG03,km,20260319-162658,1.0.2,20251113-095759,809,Experiment,Both,1,Automatic,main,93,20260319-163416,global,local,750,H,S,E,A,H-E.png,A-S.png,hH,sS,mask-1.png,mask-3.png,h,1,0.18758019999950193,s,1,0.0611186999885831,0.049576600024010986,0.048857999994652346,0.10049720000824891,0.09888150001643226,0.751965300005395
RSVPLG03,km,20260319-162658,1.0.2,20251113-095759,809,Experiment,Both,1,Automatic,main,94,20260319-163420,global,global,750,S,S,A,A,S-A.png,S-A.png,sS,sS,mask-3.png,mask-2.png,s,1,0.17228980001527816,s,1,0.046760400000493973,0.05069939998793416,0.0468463999859523,0.09952920000068843,0.09776269999565557,0.7558268000138924
RSVPLG03,km,20260319-162658,1.0.2,20251113-095759,809,Experiment,Both,1,Automatic,main,95,20260319-163424,global,global,300,S,S,E,A,S-E.png,S-A.png,sS,sS,mask-4.png,mask-2.png,s,1,0.2994239999970887,s,1,0.06433069999911822,0.05055089999223128,0.050093599973479286,0.10142009999253787,0.10039129998767748,0.30179019999923185
RSVPLG03,km,20260319-162658,1.0.2,20251113-095759,809,Experiment,Both,1,Automatic,main,96,20260319-163428,global,global,300,H,H,A,E,H-A.png,H-E.png,hH,hH,mask-4.png,mask-1.png,h,1,0.24767939999583177,s,0,0.24035079998429865,0.04993420001119375,0.050101000000722706,0.10047299999860115,0.0999768000037875,0.3006290000048466
RSVPLG03,km,20260319-162658,1.0.2,20251113-095759,809,Experiment,Both,1,Automatic,main,97,20260319-163432,local,local,750,S,S,A,A,A-S.png,A-S.png,sS,sS,mask-4.png,mask-2.png,s,1,0.3173260999901686,s,1,0.0641186999855563,0.049927599990041927,0.04990489999181591,0.10147520000464283,0.09897329998784699,0.7534128999977838
RSVPLG03,km,20260319-162658,1.0.2,20251113-095759,809,Experiment,Both,1,Automatic,main,98,20260319-163437,local,local,750,S,H,E,E,E-S.png,E-H.png,sS,hH,mask-3.png,mask-1.png,s,1,0.14977809999254532,h,1,0.06245399999897927,0.04989580000983551,0.04987919999985024,0.10072060002130456,0.1000144999998156,0.7526158000109717
RSVPLG03,km,20260319-162658,1.0.2,20251113-095759,809,Experiment,Both,1,Automatic,main,99,20260319-163441,local,local,750,S,S,A,E,A-S.png,E-S.png,sS,sS,mask-3.png,mask-3.png,s,1,0.22204300001612864,s,1,0.04783540000789799,0.05198330001439899,0.050831800006562844,0.10163290001219139,0.10179149999748915,0.7520909000013489
RSVPLG03,km,20260319-162658,1.0.2,20251113-095759,809,Experiment,Both,1,Automatic,main,100,20260319-163446,local,local,750,H,H,E,A,E-H.png,A-H.png,hH,hH,mask-3.png,mask-3.png,h,1,0.18334150000009686,h,1,0.06519100000150502,0.05082209999090992,0.050718899990897626,0.10177340000518598,0.10061979998135939,0.7524978000146803
