exp,exp_initials,runtime,ver,modtime,sub,blocktype,targets,cuetype,mode,trialtype,trial,trialtime,t1_level,t2_level,t2_lag,t1,t2,distractor1,distractor2,stimfile1,stimfile2,t1_corr,t2_corr,maskfile1,maskfile2,t1_resp,t1_acc,t1_rt,t2_resp,t2_acc,t2_rt,t1_dur,t2_dur,t1mask_soa,t2mask_soa,t1t2_soa
RSVPLG03,MD,20260217-110723,1.0.2,20251105-084826,763,Introduction,T1,1,Automatic,main,1,20260217-110742,global,local,750,S,S,A,A,S-A.png,A-S.png,sS,sS,mask-3.png,mask-3.png,h,0,4.378967000171542,none,-5,0,0.09669729974120855,0.09713940043002367,0.19978430029004812,0.19781710021197796,0.7499040998518467
RSVPLG03,MD,20260217-110723,1.0.2,20251105-084826,763,Introduction,T1,1,Automatic,main,2,20260217-110751,global,global,750,H,S,E,A,H-E.png,S-A.png,hH,sS,mask-1.png,mask-1.png,s,0,1.6795482002198696,none,-5,0,0.09938410017639399,0.09638999961316586,0.19963710010051727,0.1992645999416709,0.7507453998550773
RSVPLG03,MD,20260217-110723,1.0.2,20251105-084826,763,Introduction,T1,1,Automatic,main,3,20260217-110757,global,local,750,S,S,E,A,S-E.png,A-S.png,sS,sS,mask-3.png,mask-1.png,s,1,1.6497292006388307,none,-5,0,0.09857919998466969,0.0979411993175745,0.20045730005949736,0.1984908999875188,0.7506164005026221
RSVPLG03,MD,20260217-110723,1.0.2,20251105-084826,763,Introduction,T1,1,Automatic,main,4,20260217-110803,local,global,750,S,S,A,E,A-S.png,S-E.png,sS,sS,mask-2.png,mask-4.png,s,1,1.9355390993878245,none,-5,0,0.09554969985038042,0.09759499970823526,0.1986402003094554,0.20065519958734512,0.747762500308454
RSVPLG03,MD,20260217-110723,1.0.2,20251105-084826,763,Introduction,T1,1,Automatic,main,5,20260217-110809,local,local,750,S,S,A,A,A-S.png,A-S.png,sS,sS,mask-1.png,mask-2.png,s,1,1.689330699853599,none,-5,0,0.09770059958100319,0.09754760004580021,0.20081190019845963,0.19961299933493137,0.7494609002023935
RSVPLG03,MD,20260217-110723,1.0.2,20251105-084826,763,Introduction,T1,1,Automatic,main,6,20260217-110815,local,local,750,H,S,E,A,E-H.png,A-S.png,hH,sS,mask-1.png,mask-3.png,s,0,1.3927233004942536,none,-5,0,0.09737369976937771,0.09839509986341,0.20124469976872206,0.2002286994829774,0.7489581005647779
RSVPLG03,MD,20260217-110723,1.0.2,20251105-084826,763,Introduction,T1,1,Automatic,main,7,20260217-110820,local,local,750,S,S,A,A,A-S.png,A-S.png,sS,sS,mask-1.png,mask-3.png,s,1,0.9297436000779271,none,-5,0,0.09861189965158701,0.09855399932712317,0.1993780992925167,0.19971479941159487,0.749694500118494
RSVPLG03,MD,20260217-110723,1.0.2,20251105-084826,763,Introduction,T1,1,Automatic,main,8,20260217-110825,global,global,750,S,S,A,A,S-A.png,S-A.png,sS,sS,mask-1.png,mask-1.png,h,0,1.4618450002744794,none,-5,0,0.09727820008993149,0.09640130028128624,0.20007340051233768,0.1993413995951414,0.751197200268507
RSVPLG03,MD,20260217-110723,1.0.2,20251105-084826,763,Introduction,T1,1,Automatic,main,9,20260217-110831,local,local,750,S,S,A,A,A-S.png,A-S.png,sS,sS,mask-4.png,mask-4.png,s,1,1.0968901999294758,none,-5,0,0.09671219997107983,0.09633029997348785,0.20072260033339262,0.20029029995203018,0.7506136000156403
RSVPLG03,MD,20260217-110723,1.0.2,20251105-084826,763,Introduction,T1,1,Automatic,main,10,20260217-110836,global,global,750,S,S,A,E,S-A.png,S-E.png,sS,sS,mask-1.png,mask-3.png,s,1,1.5891907000914216,none,-5,0,0.09936599992215633,0.09698759950697422,0.20136990025639534,0.20001010037958622,0.7510230001062155
RSVPLG03,MD,20260217-110723,1.0.2,20251105-084826,763,Introduction,T1,1,Automatic,main,11,20260217-110842,local,global,750,H,S,E,A,E-H.png,S-A.png,hH,sS,mask-1.png,mask-2.png,h,1,1.2900616005063057,none,-5,0,0.09711270034313202,0.09741300065070391,0.20105740055441856,0.19836940057575703,0.7506846999749541
RSVPLG03,MD,20260217-110723,1.0.2,20251105-084826,763,Introduction,T1,1,Automatic,main,12,20260217-110848,global,local,750,S,S,A,A,S-A.png,A-S.png,sS,sS,mask-4.png,mask-2.png,s,1,1.3814897006377578,none,-5,0,0.09640279971063137,0.09747229982167482,0.19933249987661839,0.19935599993914366,0.7495636995881796
RSVPLG03,MD,20260217-110723,1.0.2,20251105-084826,763,Introduction,T1,1,Automatic,main,13,20260217-110853,global,local,750,H,H,A,E,H-A.png,E-H.png,hH,hH,mask-1.png,mask-2.png,h,1,0.6295346999540925,none,-5,0,0.09717420022934675,0.09660139959305525,0.20005109999328852,0.19955400004982948,0.7491914005950093
RSVPLG03,MD,20260217-110723,1.0.2,20251105-084826,763,Introduction,T1,1,Automatic,main,14,20260217-110858,global,global,750,S,H,E,E,S-E.png,H-E.png,sS,hH,mask-2.png,mask-3.png,s,1,0.7245618999004364,none,-5,0,0.09837299957871437,0.09846260026097298,0.19962990004569292,0.20037239976227283,0.7502402998507023
RSVPLG03,MD,20260217-110723,1.0.2,20251105-084826,763,Introduction,T1,1,Automatic,main,15,20260217-110903,local,global,750,S,H,A,A,A-S.png,H-A.png,sS,hH,mask-2.png,mask-4.png,s,1,1.4235843997448683,none,-5,0,0.09647469967603683,0.09748420026153326,0.19846609979867935,0.1989572001621127,0.749469599686563
RSVPLG03,MD,20260217-110723,1.0.2,20251105-084826,763,Introduction,T1,1,Automatic,main,16,20260217-110908,local,global,750,S,H,A,A,A-S.png,H-A.png,sS,hH,mask-4.png,mask-2.png,s,1,1.0046607004478574,none,-5,0,0.09775870013982058,0.09657560009509325,0.20038679987192154,0.20050099957734346,0.7506085000932217
RSVPLG03,MD,20260217-110926,1.0.2,20251105-084826,763,Practice,T1,1,Automatic,main,1,20260217-111014,global,local,300,H,H,A,A,H-A.png,A-H.png,hH,hH,mask-2.png,mask-3.png,h,1,1.4701811000704765,none,-5,0,0.04391010012477636,0.04843149986118078,0.09683039970695972,0.09970809984952211,0.29612130019813776
RSVPLG03,MD,20260217-110926,1.0.2,20251105-084826,763,Practice,T1,1,Automatic,main,2,20260217-111019,global,global,750,H,S,A,E,H-A.png,S-E.png,hH,sS,mask-1.png,mask-3.png,h,1,1.2587110996246338,none,-5,0,0.046951900236308575,0.04775530006736517,0.09936890006065369,0.09945120010524988,0.7506355997174978
RSVPLG03,MD,20260217-110926,1.0.2,20251105-084826,763,Practice,T1,1,Automatic,main,3,20260217-111024,global,local,750,S,H,E,A,S-E.png,A-H.png,sS,hH,mask-2.png,mask-3.png,s,1,0.6136047001928091,none,-5,0,0.04615289997309446,0.04655750002712011,0.0994542995467782,0.0986029002815485,0.7508590994402766
RSVPLG03,MD,20260217-110926,1.0.2,20251105-084826,763,Practice,T1,1,Automatic,main,4,20260217-111029,local,local,300,H,S,E,A,E-H.png,A-S.png,hH,sS,mask-3.png,mask-4.png,s,0,1.165531199425459,none,-5,0,0.047558799386024475,0.046567799523472786,0.09967199992388487,0.09963419940322638,0.30091340001672506
RSVPLG03,MD,20260217-110926,1.0.2,20251105-084826,763,Practice,T1,1,Automatic,main,5,20260217-111034,local,local,750,S,S,E,A,E-S.png,A-S.png,sS,sS,mask-4.png,mask-4.png,s,1,1.7293466003611684,none,-5,0,0.04679089970886707,0.04688879940658808,0.09934259951114655,0.09815799910575151,0.7507065003737807
RSVPLG03,MD,20260217-110926,1.0.2,20251105-084826,763,Practice,T1,1,Automatic,main,6,20260217-111040,global,global,300,H,H,A,E,H-A.png,H-E.png,hH,hH,mask-2.png,mask-2.png,h,1,0.6950057996436954,none,-5,0,0.047076799906790257,0.04777910001575947,0.0981263006106019,0.0998672004789114,0.29791299998760223
RSVPLG03,MD,20260217-110926,1.0.2,20251105-084826,763,Practice,T1,1,Automatic,main,7,20260217-111044,local,global,750,H,H,E,E,E-H.png,H-E.png,hH,hH,mask-3.png,mask-4.png,s,0,1.0714936992153525,none,-5,0,0.04749369993805885,0.04724220000207424,0.10038890037685633,0.0994870001450181,0.7514465004205704
RSVPLG03,MD,20260217-110926,1.0.2,20251105-084826,763,Practice,T1,1,Automatic,main,8,20260217-111049,global,global,300,H,H,E,A,H-E.png,H-A.png,hH,hH,mask-3.png,mask-1.png,h,1,0.89109589997679,none,-5,0,0.04853229969739914,0.04757670033723116,0.10076550021767616,0.09833830036222935,0.30044079944491386
RSVPLG03,MD,20260217-110926,1.0.2,20251105-084826,763,Practice,T1,1,Automatic,main,9,20260217-111053,local,global,750,H,S,E,E,E-H.png,S-E.png,hH,sS,mask-2.png,mask-2.png,h,1,1.0395486997440457,none,-5,0,0.04655900038778782,0.04766920022666454,0.09896299988031387,0.10093889944255352,0.7494635004550219
RSVPLG03,MD,20260217-110926,1.0.2,20251105-084826,763,Practice,T1,1,Automatic,main,10,20260217-111058,global,local,300,H,S,E,A,H-E.png,A-S.png,hH,sS,mask-2.png,mask-2.png,h,1,0.7065241998061538,none,-5,0,0.047684299759566784,0.047360699623823166,0.09988939948379993,0.10018219985067844,0.29896380007267
RSVPLG03,MD,20260217-110926,1.0.2,20251105-084826,763,Practice,T1,1,Automatic,main,11,20260217-111103,local,global,300,H,H,A,E,A-H.png,H-E.png,hH,hH,mask-1.png,mask-4.png,s,0,1.8368865000084043,none,-5,0,0.04866209998726845,0.04788440000265837,0.1018409002572298,0.09915779996663332,0.30143059976398945
RSVPLG03,MD,20260217-110926,1.0.2,20251105-084826,763,Practice,T1,1,Automatic,main,12,20260217-111108,local,global,300,S,H,A,A,A-S.png,H-A.png,sS,hH,mask-1.png,mask-4.png,s,1,1.3269429998472333,none,-5,0,0.046835300512611866,0.04667509999126196,0.09906340017914772,0.09905760083347559,0.2996875997632742
RSVPLG03,MD,20260217-110926,1.0.2,20251105-084826,763,Practice,T1,1,Automatic,main,13,20260217-111113,global,local,750,H,S,A,E,H-A.png,E-S.png,hH,sS,mask-3.png,mask-2.png,h,1,0.5529104992747307,none,-5,0,0.046687799505889416,0.048854599706828594,0.10014429967850447,0.10109349992126226,0.7486493000760674
RSVPLG03,MD,20260217-110926,1.0.2,20251105-084826,763,Practice,T1,1,Automatic,main,14,20260217-111118,local,local,750,H,H,E,E,E-H.png,E-H.png,hH,hH,mask-1.png,mask-4.png,h,1,1.9920264994725585,none,-5,0,0.0455533005297184,0.04575629997998476,0.0980074005201459,0.09748349990695715,0.7497575003653765
RSVPLG03,MD,20260217-110926,1.0.2,20251105-084826,763,Practice,T1,1,Automatic,main,15,20260217-111124,global,global,750,S,S,E,E,S-E.png,S-E.png,sS,sS,mask-2.png,mask-1.png,s,1,1.2744509996846318,none,-5,0,0.046955700032413006,0.047862499952316284,0.09980420023202896,0.10034540016204119,0.7508878000080585
RSVPLG03,MD,20260217-110926,1.0.2,20251105-084826,763,Practice,T1,1,Automatic,main,16,20260217-111129,local,local,300,H,S,E,E,E-H.png,E-S.png,hH,sS,mask-1.png,mask-3.png,h,1,1.385720600374043,none,-5,0,0.04768470022827387,0.047702799551188946,0.09989700000733137,0.09989309962838888,0.3004897003993392
RSVPLG03,MD,20260217-111304,1.0.2,20251105-084826,763,Introduction,Both,1,Automatic,main,1,20260217-111324,global,local,750,S,H,A,E,S-A.png,E-H.png,sS,hH,mask-4.png,mask-1.png,h,0,1.5891916006803513,s,0,1.93792840000242,0.09045770019292831,0.09845100063830614,0.19141609966754913,0.1994794001802802,0.7391194999217987
RSVPLG03,MD,20260217-111304,1.0.2,20251105-084826,763,Introduction,Both,1,Automatic,main,2,20260217-111332,local,global,750,H,S,E,A,E-H.png,S-A.png,hH,sS,mask-3.png,mask-1.png,h,1,1.6778948996216059,s,1,1.1899215001612902,0.09741600044071674,0.0972855007275939,0.19930910039693117,0.19970150012522936,0.7480049999430776
RSVPLG03,MD,20260217-111304,1.0.2,20251105-084826,763,Introduction,Both,1,Automatic,main,3,20260217-111339,local,local,750,H,S,A,A,A-H.png,A-S.png,hH,sS,mask-4.png,mask-1.png,s,0,2.037256100215018,h,0,0.8696160996332765,0.09737830050289631,0.09749539941549301,0.20027450006455183,0.20052119996398687,0.7473560003563762
RSVPLG03,MD,20260217-111304,1.0.2,20251105-084826,763,Introduction,Both,1,Automatic,main,4,20260217-111346,local,local,750,H,S,A,E,A-H.png,E-S.png,hH,sS,mask-3.png,mask-1.png,h,1,1.7821100000292063,s,1,0.3558803992345929,0.09862070064991713,0.09757099952548742,0.19895930029451847,0.20036489982157946,0.7473912006244063
RSVPLG03,MD,20260217-111304,1.0.2,20251105-084826,763,Introduction,Both,1,Automatic,main,5,20260217-111353,global,global,750,H,S,E,E,H-E.png,S-E.png,hH,sS,mask-3.png,mask-2.png,h,1,1.0366342002525926,s,1,0.0972376000136137,0.09788949973881245,0.0968312006443739,0.20001280028373003,0.19994140043854713,0.7479825997725129
RSVPLG03,MD,20260217-111304,1.0.2,20251105-084826,763,Introduction,Both,1,Automatic,main,6,20260217-111358,global,global,750,S,H,E,E,S-E.png,H-E.png,sS,hH,mask-2.png,mask-2.png,s,1,1.1481882994994521,h,1,0.40272589959204197,0.09568529948592186,0.09745889995247126,0.19764119945466518,0.19937009923160076,0.7456328002735972
RSVPLG03,MD,20260217-111304,1.0.2,20251105-084826,763,Introduction,Both,1,Automatic,main,7,20260217-111404,global,global,750,H,S,E,E,H-E.png,S-E.png,hH,sS,mask-4.png,mask-2.png,h,1,0.7909790994599462,s,1,0.3272440005093813,0.09847870003432035,0.0953871002420783,0.20134119968861341,0.1993382005020976,0.7494773995131254
RSVPLG03,MD,20260217-111304,1.0.2,20251105-084826,763,Introduction,Both,1,Automatic,main,8,20260217-111409,local,global,750,S,S,E,E,E-S.png,S-E.png,sS,sS,mask-3.png,mask-4.png,s,1,1.9551330003887415,s,1,0.4614506997168064,0.09757609944790602,0.09679470025002956,0.2002360001206398,0.19967420026659966,0.7478856993839145
RSVPLG03,MD,20260217-111304,1.0.2,20251105-084826,763,Introduction,Both,1,Automatic,main,9,20260217-111416,global,local,750,H,S,A,A,H-A.png,A-S.png,hH,sS,mask-4.png,mask-1.png,h,1,1.1293749995529652,h,0,0.32693970017135143,0.09759299922734499,0.09688949957489967,0.19969659950584173,0.19778519961982965,0.7475864998996258
RSVPLG03,MD,20260217-111304,1.0.2,20251105-084826,763,Introduction,Both,1,Automatic,main,10,20260217-111422,global,global,750,S,S,A,E,S-A.png,S-E.png,sS,sS,mask-2.png,mask-1.png,s,1,1.6446050005033612,s,1,0.2982996003702283,0.0973744997754693,0.09731380082666874,0.19831390026956797,0.20076150074601173,0.7464950997382402
RSVPLG03,MD,20260217-111304,1.0.2,20251105-084826,763,Introduction,Both,1,Automatic,main,11,20260217-111428,global,local,750,H,H,A,E,H-A.png,E-H.png,hH,hH,mask-3.png,mask-1.png,h,1,1.7984263999387622,s,0,0.5559534998610616,0.09861619956791401,0.09639870002865791,0.19971759989857674,0.19908460043370724,0.7475742995738983
RSVPLG03,MD,20260217-111304,1.0.2,20251105-084826,763,Introduction,Both,1,Automatic,main,12,20260217-111435,local,global,750,H,S,E,E,E-H.png,S-E.png,hH,sS,mask-1.png,mask-3.png,h,1,1.7776671005412936,s,1,0.2157217999920249,0.09741219971328974,0.09663369972258806,0.20029509998857975,0.19952989928424358,0.7482738001272082
RSVPLG03,MD,20260217-111304,1.0.2,20251105-084826,763,Introduction,Both,1,Automatic,main,13,20260217-111441,global,local,750,S,H,A,A,S-A.png,A-H.png,sS,hH,mask-3.png,mask-1.png,s,1,1.8478761995211244,h,1,0.2821391001343727,0.09649730008095503,0.09563349932432175,0.19914469961076975,0.19962439965456724,0.7475228998810053
RSVPLG03,MD,20260217-111304,1.0.2,20251105-084826,763,Introduction,Both,1,Automatic,main,14,20260217-111447,local,global,750,S,H,E,E,E-S.png,H-E.png,sS,hH,mask-1.png,mask-1.png,s,1,1.4760968992486596,s,0,0.16855220030993223,0.09842440020292997,0.09795660059899092,0.19956630002707243,0.19936680048704147,0.747405699454248
RSVPLG03,MD,20260217-111304,1.0.2,20251105-084826,763,Introduction,Both,1,Automatic,main,15,20260217-111453,local,local,750,H,S,E,E,E-H.png,E-S.png,hH,sS,mask-1.png,mask-4.png,h,1,0.774197599850595,s,1,0.20093439985066652,0.09840760007500648,0.09745559934526682,0.19863669946789742,0.19919429998844862,0.7466762000694871
RSVPLG03,MD,20260217-111304,1.0.2,20251105-084826,763,Introduction,Both,1,Automatic,main,16,20260217-111458,local,local,750,S,H,E,A,E-S.png,A-H.png,sS,hH,mask-3.png,mask-4.png,s,1,1.0845552999526262,h,1,0.31223500054329634,0.09667619969695807,0.09698180016130209,0.19965799991041422,0.19798060040920973,0.7478102995082736
RSVPLG03,MD,20260217-111529,1.0.2,20251105-084826,763,Practice,Both,1,Automatic,main,1,20260217-111551,local,local,300,S,H,E,A,E-S.png,A-H.png,sS,hH,mask-1.png,mask-1.png,s,1,1.594921000301838,h,1,0.31266120076179504,0.04004579968750477,0.04619920067489147,0.09148230031132698,0.09963340032845736,0.29313599970191717
RSVPLG03,MD,20260217-111529,1.0.2,20251105-084826,763,Practice,Both,1,Automatic,main,2,20260217-111556,local,global,300,S,H,E,A,E-S.png,H-A.png,sS,hH,mask-2.png,mask-2.png,s,1,0.949877000413835,s,0,0.2788165006786585,0.047787200659513474,0.04756550025194883,0.10033790022134781,0.09865699987858534,0.3012567004188895
RSVPLG03,MD,20260217-111529,1.0.2,20251105-084826,763,Practice,Both,1,Automatic,main,3,20260217-111601,global,global,300,S,H,E,E,S-E.png,H-E.png,sS,hH,mask-4.png,mask-4.png,s,1,1.0066681001335382,h,1,0.14072149991989136,0.04649920016527176,0.047579700127243996,0.09923059958964586,0.10191090032458305,0.2989176996052265
RSVPLG03,MD,20260217-111529,1.0.2,20251105-084826,763,Practice,Both,1,Automatic,main,4,20260217-111606,global,local,750,H,H,A,A,H-A.png,A-H.png,hH,hH,mask-4.png,mask-3.png,h,1,0.6196403000503778,h,1,0.09308630041778088,0.047265900298953056,0.04649430047720671,0.09976070001721382,0.09848130028694868,0.7511432003229856
RSVPLG03,MD,20260217-111529,1.0.2,20251105-084826,763,Practice,Both,1,Automatic,main,5,20260217-111611,global,global,300,H,H,A,A,H-A.png,H-A.png,hH,hH,mask-2.png,mask-4.png,h,1,0.8129316996783018,h,1,0.10450960043817759,0.04758480004966259,0.04858030006289482,0.10048490017652512,0.1004467997699976,0.30001529958099127
RSVPLG03,MD,20260217-111529,1.0.2,20251105-084826,763,Practice,Both,1,Automatic,main,6,20260217-111616,global,global,750,H,S,A,E,H-A.png,S-E.png,hH,sS,mask-4.png,mask-2.png,h,1,0.6412266995757818,s,1,0.13458820059895515,0.048570699989795685,0.04751079995185137,0.10023869946599007,0.09956760052591562,0.7511632991954684
RSVPLG03,MD,20260217-111529,1.0.2,20251105-084826,763,Practice,Both,1,Automatic,main,7,20260217-111620,global,local,300,S,H,A,A,S-A.png,A-H.png,sS,hH,mask-1.png,mask-2.png,s,1,0.7676613004878163,h,1,0.15992410015314817,0.047536199912428856,0.04666170012205839,0.10168190021067858,0.10016709938645363,0.30090360064059496
RSVPLG03,MD,20260217-111529,1.0.2,20251105-084826,763,Practice,Both,1,Automatic,main,8,20260217-111625,local,global,300,H,S,E,A,E-H.png,S-A.png,hH,sS,mask-1.png,mask-1.png,s,0,0.8772454997524619,h,0,0.09554070048034191,0.04951789975166321,0.04787390027195215,0.10185009986162186,0.09995750058442354,0.30153089947998524
RSVPLG03,MD,20260217-111529,1.0.2,20251105-084826,763,Practice,Both,1,Automatic,main,9,20260217-111630,local,global,750,H,S,E,A,E-H.png,S-A.png,hH,sS,mask-4.png,mask-3.png,s,0,1.0449040997773409,h,0,0.2735910005867481,0.04668240062892437,0.04768690001219511,0.1008804002776742,0.09989160019904375,0.7509821001440287
RSVPLG03,MD,20260217-111529,1.0.2,20251105-084826,763,Practice,Both,1,Automatic,main,10,20260217-111635,local,local,300,S,S,E,A,E-S.png,A-S.png,sS,sS,mask-1.png,mask-1.png,s,1,2.523258300498128,h,0,0.3009238000959158,0.04753109999001026,0.048453799448907375,0.10073679964989424,0.10155989974737167,0.2991145998239517
RSVPLG03,MD,20260217-111529,1.0.2,20251105-084826,763,Practice,Both,1,Automatic,main,11,20260217-111642,global,local,750,S,S,E,E,S-E.png,E-S.png,sS,sS,mask-3.png,mask-1.png,h,0,4.6317167999222875,s,1,0.4824633002281189,0.04755169991403818,0.04600660037249327,0.10065410006791353,0.09909319970756769,0.750976299867034
RSVPLG03,MD,20260217-111529,1.0.2,20251105-084826,763,Practice,Both,1,Automatic,main,12,20260217-111651,local,local,750,H,S,A,E,A-H.png,E-S.png,hH,sS,mask-2.png,mask-4.png,h,1,0.8332791002467275,s,1,0.5818545995280147,0.04773470014333725,0.0467314999550581,0.09889880008995533,0.09893590025603771,0.7506253002211452
RSVPLG03,MD,20260217-111529,1.0.2,20251105-084826,763,Practice,Both,1,Automatic,main,13,20260217-111656,local,global,750,S,S,E,E,E-S.png,S-E.png,sS,sS,mask-2.png,mask-1.png,s,1,1.415034499950707,s,1,0.39501990005373955,0.04620260000228882,0.04744010046124458,0.09912949986755848,0.10068280063569546,0.7500270996242762
RSVPLG03,MD,20260217-111529,1.0.2,20251105-084826,763,Practice,Both,1,Automatic,main,14,20260217-111702,global,local,300,H,H,E,A,H-E.png,A-H.png,hH,hH,mask-3.png,mask-2.png,h,1,1.1682857004925609,h,1,0.6177564999088645,0.04753000009804964,0.04858759976923466,0.09858330059796572,0.09964079968631268,0.29911800008267164
RSVPLG03,MD,20260217-111529,1.0.2,20251105-084826,763,Practice,Both,1,Automatic,main,15,20260217-111708,global,global,750,S,S,A,A,S-A.png,S-A.png,sS,sS,mask-2.png,mask-3.png,s,1,1.2621838999912143,s,1,0.614423499442637,0.04853370040655136,0.04687829967588186,0.10148200020194054,0.10103469993919134,0.7502399003133178
RSVPLG03,MD,20260217-111529,1.0.2,20251105-084826,763,Practice,Both,1,Automatic,main,16,20260217-111714,local,local,750,S,S,E,E,E-S.png,E-S.png,sS,sS,mask-2.png,mask-2.png,s,1,1.157974399626255,s,1,0.4546502996236086,0.0476440005004406,0.046592799946665764,0.09926320053637028,0.09964380040764809,0.7502894001081586
RSVPLG03,MD,20260217-111824,1.0.2,20251105-084826,763,Experiment,Both,1,Automatic,warmup,1,20260217-111858,global,local,300,H,H,A,E,H-A.png,E-H.png,hH,hH,mask-1.png,mask-4.png,h,1,0.8797532999888062,h,1,0.3156241001561284,0.04666829947382212,0.0475637000054121,0.10023199953138828,0.10098830051720142,0.2991929994896054
RSVPLG03,MD,20260217-111824,1.0.2,20251105-084826,763,Experiment,Both,1,Automatic,warmup,2,20260217-111902,global,global,750,S,H,E,E,S-E.png,H-E.png,sS,hH,mask-4.png,mask-3.png,s,1,1.0479479003697634,h,1,0.6031469004228711,0.04672130011022091,0.04773650038987398,0.09979130048304796,0.09910180047154427,0.7492623003199697
RSVPLG03,MD,20260217-111824,1.0.2,20251105-084826,763,Experiment,Both,1,Automatic,warmup,3,20260217-111908,local,global,300,H,S,E,E,E-H.png,S-E.png,hH,sS,mask-4.png,mask-4.png,h,1,0.6462850999087095,s,1,0.4725690996274352,0.04867959953844547,0.04653439950197935,0.10088319983333349,0.0983681995421648,0.3014631001278758
RSVPLG03,MD,20260217-111824,1.0.2,20251105-084826,763,Experiment,Both,1,Automatic,warmup,4,20260217-111913,local,local,300,S,H,A,E,A-S.png,E-H.png,sS,hH,mask-2.png,mask-1.png,s,1,0.6622636998072267,h,1,0.5493385996669531,0.04716299939900637,0.04683359991759062,0.10019250027835369,0.09992150031030178,0.3004390997812152
RSVPLG03,MD,20260217-111824,1.0.2,20251105-084826,763,Experiment,Both,1,Automatic,main,5,20260217-111918,local,global,750,H,H,E,E,E-H.png,H-E.png,hH,hH,mask-2.png,mask-2.png,h,1,0.8496066005900502,s,0,0.3568671001121402,0.04894169978797436,0.046923100017011166,0.10104510001838207,0.09940419998019934,0.7496379995718598
RSVPLG03,MD,20260217-111824,1.0.2,20251105-084826,763,Experiment,Both,1,Automatic,main,6,20260217-111923,global,local,750,H,S,A,E,H-A.png,E-S.png,hH,sS,mask-3.png,mask-3.png,h,1,0.7614464005455375,h,0,0.43558889999985695,0.04649990051984787,0.04750009998679161,0.0999541999772191,0.10042130015790462,0.7491867002099752
RSVPLG03,MD,20260217-111824,1.0.2,20251105-084826,763,Experiment,Both,1,Automatic,main,7,20260217-111929,global,global,300,S,S,E,E,S-E.png,S-E.png,sS,sS,mask-3.png,mask-3.png,s,1,0.7669631997123361,h,0,1.1626957999542356,0.04765899945050478,0.047462199814617634,0.10068960022181273,0.10056979954242706,0.29894210025668144
RSVPLG03,MD,20260217-111824,1.0.2,20251105-084826,763,Experiment,Both,1,Automatic,main,8,20260217-111935,global,local,300,S,H,E,E,S-E.png,E-H.png,sS,hH,mask-3.png,mask-4.png,s,1,0.6604886008426547,h,1,0.3481609998270869,0.047667100094258785,0.045579299330711365,0.09967759996652603,0.09837550017982721,0.3009386006742716
RSVPLG03,MD,20260217-111824,1.0.2,20251105-084826,763,Experiment,Both,1,Automatic,main,9,20260217-111939,local,local,750,H,S,A,E,A-H.png,E-S.png,hH,sS,mask-1.png,mask-4.png,h,1,1.3495517000555992,s,1,0.19660719949752092,0.046703800559043884,0.04770160000771284,0.09988020081073046,0.10109469946473837,0.748131500557065
RSVPLG03,MD,20260217-111824,1.0.2,20251105-084826,763,Experiment,Both,1,Automatic,main,10,20260217-111945,global,global,750,H,H,A,E,H-A.png,H-E.png,hH,hH,mask-4.png,mask-1.png,h,1,0.6998235993087292,h,1,0.3293343996629119,0.047673000022768974,0.04737970046699047,0.0995728000998497,0.09977370034903288,0.7493578996509314
RSVPLG03,MD,20260217-111824,1.0.2,20251105-084826,763,Experiment,Both,1,Automatic,main,11,20260217-111950,global,local,300,S,H,A,E,S-A.png,E-H.png,sS,hH,mask-1.png,mask-3.png,s,1,0.8433744003996253,s,0,0.9649384999647737,0.04589120019227266,0.047402700409293175,0.1001398004591465,0.09824240021407604,0.2997794998809695
RSVPLG03,MD,20260217-111824,1.0.2,20251105-084826,763,Experiment,Both,1,Automatic,main,12,20260217-111956,global,local,300,H,S,A,A,H-A.png,A-S.png,hH,sS,mask-4.png,mask-4.png,h,1,0.6427103998139501,h,0,0.3962477995082736,0.047584500163793564,0.04750950075685978,0.09959590062499046,0.10052400082349777,0.2999211000278592
RSVPLG03,MD,20260217-111824,1.0.2,20251105-084826,763,Experiment,Both,1,Automatic,main,13,20260217-112000,local,global,750,H,H,A,A,A-H.png,H-A.png,hH,hH,mask-4.png,mask-1.png,h,1,0.8419401003047824,h,1,0.3915956001728773,0.04848319943994284,0.04863059986382723,0.09948509931564331,0.10062710009515285,0.7484941994771361
RSVPLG03,MD,20260217-111824,1.0.2,20251105-084826,763,Experiment,Both,1,Automatic,main,14,20260217-112006,local,local,300,H,S,E,A,E-H.png,A-S.png,hH,sS,mask-4.png,mask-3.png,h,1,0.869322900660336,s,1,0.5570232002064586,0.04850610066205263,0.04659480042755604,0.10053480044007301,0.10059710033237934,0.30080300010740757
RSVPLG03,MD,20260217-111824,1.0.2,20251105-084826,763,Experiment,Both,1,Automatic,main,15,20260217-112011,global,global,300,S,H,E,E,S-E.png,H-E.png,sS,hH,mask-1.png,mask-4.png,h,0,0.7947645001113415,s,0,0.33264899998903275,0.04659720044583082,0.04754140041768551,0.09899300057440996,0.10139629989862442,0.29881330020725727
RSVPLG03,MD,20260217-111824,1.0.2,20251105-084826,763,Experiment,Both,1,Automatic,main,16,20260217-112016,global,local,750,S,H,E,A,S-E.png,A-H.png,sS,hH,mask-3.png,mask-2.png,s,1,0.5642979992553592,h,1,0.24462579935789108,0.04682449996471405,0.04750299919396639,0.09963300079107285,0.10055869910866022,0.749137100763619
RSVPLG03,MD,20260217-111824,1.0.2,20251105-084826,763,Experiment,Both,1,Automatic,main,17,20260217-112021,local,local,750,H,H,A,A,A-H.png,A-H.png,hH,hH,mask-2.png,mask-4.png,h,1,1.411582199856639,h,1,0.3135425001382828,0.04672650061547756,0.047218999825417995,0.09919750038534403,0.10039169993251562,0.7476505003869534
RSVPLG03,MD,20260217-111824,1.0.2,20251105-084826,763,Experiment,Both,1,Automatic,main,18,20260217-112027,local,global,750,H,H,E,A,E-H.png,H-A.png,hH,hH,mask-2.png,mask-4.png,s,0,0.865535999648273,s,0,0.24163400009274483,0.04688529949635267,0.04681899957358837,0.09974449966102839,0.09914710000157356,0.7496675997972488
RSVPLG03,MD,20260217-111824,1.0.2,20251105-084826,763,Experiment,Both,1,Automatic,main,19,20260217-112032,local,local,300,S,H,E,E,E-S.png,E-H.png,sS,hH,mask-3.png,mask-2.png,s,1,0.6698441002517939,h,1,0.29268369916826487,0.04775600042194128,0.047629800625145435,0.10000320058315992,0.09951349999755621,0.2994210999459028
RSVPLG03,MD,20260217-111824,1.0.2,20251105-084826,763,Experiment,Both,1,Automatic,main,20,20260217-112037,global,global,750,H,S,A,A,H-A.png,S-A.png,hH,sS,mask-4.png,mask-2.png,s,0,1.5008344994857907,s,1,0.2929247999563813,0.04766179993748665,0.04776170011609793,0.0999386003240943,0.0997954998165369,0.7493278002366424
RSVPLG03,MD,20260217-111824,1.0.2,20251105-084826,763,Experiment,Both,1,Automatic,main,21,20260217-112043,global,local,300,H,H,E,E,H-E.png,E-H.png,hH,hH,mask-1.png,mask-2.png,h,1,0.6414630999788642,h,1,0.3444582996889949,0.04773970041424036,0.0477700000628829,0.10096199996769428,0.10004610009491444,0.29989170003682375
RSVPLG03,MD,20260217-111824,1.0.2,20251105-084826,763,Experiment,Both,1,Automatic,main,22,20260217-112048,local,global,750,H,S,A,A,A-H.png,S-A.png,hH,sS,mask-2.png,mask-4.png,s,0,0.7645789999514818,s,1,0.2473021000623703,0.04652629978954792,0.04751749988645315,0.10053110029548407,0.10080580040812492,0.7483628001064062
RSVPLG03,MD,20260217-111824,1.0.2,20251105-084826,763,Experiment,Both,1,Automatic,main,23,20260217-112053,global,global,300,S,S,E,A,S-E.png,S-A.png,sS,sS,mask-1.png,mask-3.png,s,1,0.7580580003559589,s,1,0.23242360074073076,0.046576800756156445,0.04820670001208782,0.09916230011731386,0.10090960003435612,0.29933170042932034
RSVPLG03,MD,20260217-111824,1.0.2,20251105-084826,763,Experiment,Both,1,Automatic,main,24,20260217-112058,local,global,300,S,H,A,A,A-S.png,H-A.png,sS,hH,mask-4.png,mask-4.png,s,1,0.7587516997009516,s,0,0.15944970026612282,0.04753859993070364,0.04668570030480623,0.10156210046261549,0.09964120015501976,0.30030629970133305
RSVPLG03,MD,20260217-111824,1.0.2,20251105-084826,763,Experiment,Both,1,Automatic,main,25,20260217-112102,local,global,750,H,H,E,A,E-H.png,H-A.png,hH,hH,mask-2.png,mask-1.png,h,1,0.7507477002218366,h,1,0.27889200020581484,0.04654920008033514,0.0485129002481699,0.09872670006006956,0.09943980071693659,0.7480456000193954
RSVPLG03,MD,20260217-111824,1.0.2,20251105-084826,763,Experiment,Both,1,Automatic,main,26,20260217-112126,global,local,300,S,H,E,E,S-E.png,E-H.png,sS,hH,mask-4.png,mask-4.png,h,0,0.9624234000220895,s,0,0.701494999229908,0.047540899366140366,0.047546000219881535,0.0995533000677824,0.09937109984457493,0.29866129998117685
RSVPLG03,MD,20260217-111824,1.0.2,20251105-084826,763,Experiment,Both,1,Automatic,main,27,20260217-112131,global,local,300,S,S,A,A,S-A.png,A-S.png,sS,sS,mask-1.png,mask-2.png,s,1,0.7551372991874814,h,0,0.25248319935053587,0.0468812994658947,0.047518299892544746,0.10103069990873337,0.10120250005275011,0.29959069937467575
RSVPLG03,MD,20260217-111824,1.0.2,20251105-084826,763,Experiment,Both,1,Automatic,main,28,20260217-112136,global,local,300,H,H,E,E,H-E.png,E-H.png,hH,hH,mask-4.png,mask-1.png,h,1,0.5285975001752377,h,1,0.4143304005265236,0.04787150025367737,0.045507400296628475,0.09994920063763857,0.09950160048902035,0.3011932000517845
RSVPLG03,MD,20260217-111824,1.0.2,20251105-084826,763,Experiment,Both,1,Automatic,main,29,20260217-112141,global,global,750,S,S,A,E,S-A.png,S-E.png,sS,sS,mask-4.png,mask-4.png,s,1,0.7232258003205061,s,1,0.15447070077061653,0.04653619974851608,0.04760649986565113,0.09849329944700003,0.10080800019204617,0.7481987997889519
RSVPLG03,MD,20260217-111824,1.0.2,20251105-084826,763,Experiment,Both,1,Automatic,main,30,20260217-112145,local,global,750,S,H,A,E,A-S.png,H-E.png,sS,hH,mask-1.png,mask-4.png,s,1,0.7023080000653863,h,1,0.08055129926651716,0.04759019985795021,0.048057799227535725,0.10031159967184067,0.1001632995903492,0.7479825001209974
RSVPLG03,MD,20260217-111824,1.0.2,20251105-084826,763,Experiment,Both,1,Automatic,main,31,20260217-112150,global,local,750,H,H,E,A,H-E.png,A-H.png,hH,hH,mask-1.png,mask-3.png,h,1,0.6984283998608589,h,1,0.09638859983533621,0.04694079980254173,0.04670840036123991,0.09935100004076958,0.09882140066474676,0.749783699400723
RSVPLG03,MD,20260217-111824,1.0.2,20251105-084826,763,Experiment,Both,1,Automatic,main,32,20260217-112155,global,global,750,H,S,A,E,H-A.png,S-E.png,hH,sS,mask-4.png,mask-2.png,h,1,0.7535212999209762,s,1,0.10742269922047853,0.047505700029432774,0.04751699976623058,0.10051940008997917,0.09852120000869036,0.7500694002956152
RSVPLG03,MD,20260217-111824,1.0.2,20251105-084826,763,Experiment,Both,1,Automatic,main,33,20260217-112200,global,local,750,S,S,A,A,S-A.png,A-S.png,sS,sS,mask-3.png,mask-1.png,s,1,0.4947956996038556,s,1,0.09916939958930016,0.048796599730849266,0.04870789963752031,0.10028950031846762,0.09976829960942268,0.7497498001903296
RSVPLG03,MD,20260217-111824,1.0.2,20251105-084826,763,Experiment,Both,1,Automatic,main,34,20260217-112205,local,global,750,H,S,E,A,E-H.png,S-A.png,hH,sS,mask-2.png,mask-4.png,s,0,0.9622675003483891,h,0,0.13344620075076818,0.04766810033470392,0.047653100453317165,0.10009680036455393,0.099855100736022,0.7494540996849537
RSVPLG03,MD,20260217-111824,1.0.2,20251105-084826,763,Experiment,Both,1,Automatic,main,35,20260217-112210,global,local,300,H,H,E,E,H-E.png,E-H.png,hH,hH,mask-1.png,mask-1.png,h,1,0.6485203001648188,h,1,0.08348670043051243,0.04811729956418276,0.046894099563360214,0.100798599421978,0.10114999953657389,0.30026100017130375
RSVPLG03,MD,20260217-111824,1.0.2,20251105-084826,763,Experiment,Both,1,Automatic,main,36,20260217-112214,local,global,300,S,H,A,E,A-S.png,H-E.png,sS,hH,mask-3.png,mask-1.png,s,1,0.7416375000029802,h,1,0.02976739965379238,0.04755120072513819,0.04622770007699728,0.1007759002968669,0.09836880024522543,0.3011234998703003
RSVPLG03,MD,20260217-111824,1.0.2,20251105-084826,763,Experiment,Both,1,Automatic,main,37,20260217-112219,local,global,300,S,H,E,E,E-S.png,H-E.png,sS,hH,mask-3.png,mask-3.png,s,1,0.7691420996561646,h,1,0.058344800025224686,0.0479911994189024,0.04869920015335083,0.1004491001367569,0.09990880079567432,0.3001676993444562
RSVPLG03,MD,20260217-111824,1.0.2,20251105-084826,763,Experiment,Both,1,Automatic,main,38,20260217-112223,local,global,300,H,H,A,A,A-H.png,H-A.png,hH,hH,mask-1.png,mask-2.png,h,1,0.6359091997146606,h,1,0.4442432001233101,0.04772210028022528,0.047671000473201275,0.09912039991468191,0.10086150001734495,0.30018969997763634
RSVPLG03,MD,20260217-111824,1.0.2,20251105-084826,763,Experiment,Both,1,Automatic,main,39,20260217-112228,global,global,300,H,H,A,A,H-A.png,H-A.png,hH,hH,mask-1.png,mask-4.png,h,1,0.8079105000942945,h,1,0.10410420037806034,0.047073399648070335,0.04825099930167198,0.09930420015007257,0.10032179951667786,0.29987560026347637
RSVPLG03,MD,20260217-111824,1.0.2,20251105-084826,763,Experiment,Both,1,Automatic,main,40,20260217-112233,global,local,750,H,S,A,E,H-A.png,E-S.png,hH,sS,mask-3.png,mask-2.png,h,1,0.5969177996739745,s,1,0.1205323999747634,0.04750959947705269,0.04612570069730282,0.0995236998423934,0.10030680056661367,0.7502743992954493
RSVPLG03,MD,20260217-111824,1.0.2,20251105-084826,763,Experiment,Both,1,Automatic,main,41,20260217-112238,global,local,750,S,H,A,A,S-A.png,A-H.png,sS,hH,mask-1.png,mask-3.png,s,1,0.6307738004252315,h,1,0.08451750036329031,0.047495500184595585,0.048605999909341335,0.10070679988712072,0.10058540012687445,0.7486314997076988
RSVPLG03,MD,20260217-111824,1.0.2,20251105-084826,763,Experiment,Both,1,Automatic,main,42,20260217-112242,local,local,750,H,H,A,A,A-H.png,A-H.png,hH,hH,mask-2.png,mask-4.png,h,1,0.5370065998286009,h,1,0.23129810020327568,0.0466195996850729,0.045696199871599674,0.09849369991570711,0.0998462000861764,0.7498690001666546
RSVPLG03,MD,20260217-111824,1.0.2,20251105-084826,763,Experiment,Both,1,Automatic,main,43,20260217-112247,local,local,300,H,H,E,E,E-H.png,E-H.png,hH,hH,mask-2.png,mask-3.png,h,1,0.6093249004334211,s,0,0.12407930009067059,0.04670709930360317,0.047436200082302094,0.09989979956299067,0.09948199987411499,0.29931959975510836
RSVPLG03,MD,20260217-111824,1.0.2,20251105-084826,763,Experiment,Both,1,Automatic,main,44,20260217-112252,global,global,300,H,S,A,A,H-A.png,S-A.png,hH,sS,mask-1.png,mask-2.png,h,1,0.669909100048244,s,1,0.10637559927999973,0.04764599911868572,0.047661200165748596,0.09982319921255112,0.09798699989914894,0.3005006993189454
RSVPLG03,MD,20260217-111824,1.0.2,20251105-084826,763,Experiment,Both,1,Automatic,main,45,20260217-112256,global,global,300,H,S,E,E,H-E.png,S-E.png,hH,sS,mask-1.png,mask-4.png,h,1,0.5577010000124574,s,1,0.12308979965746403,0.04667329974472523,0.04767009988427162,0.10027919989079237,0.10031470004469156,0.2989887995645404
RSVPLG03,MD,20260217-111824,1.0.2,20251105-084826,763,Experiment,Both,1,Automatic,main,46,20260217-112301,local,global,750,S,S,E,E,E-S.png,S-E.png,sS,sS,mask-1.png,mask-2.png,s,1,0.9732531998306513,s,1,0.3772836998105049,0.04770679958164692,0.04780329950153828,0.10090139973908663,0.09998149983584881,0.7500700997188687
RSVPLG03,MD,20260217-111824,1.0.2,20251105-084826,763,Experiment,Both,1,Automatic,main,47,20260217-112306,global,global,750,H,H,A,E,H-A.png,H-E.png,hH,hH,mask-3.png,mask-3.png,h,1,0.6135608004406095,h,1,0.09791310038417578,0.0488174008205533,0.0485487999394536,0.0991707006469369,0.10074769984930754,0.7495781006291509
RSVPLG03,MD,20260217-111824,1.0.2,20251105-084826,763,Experiment,Both,1,Automatic,main,48,20260217-112311,local,local,300,H,S,A,E,A-H.png,E-S.png,hH,sS,mask-2.png,mask-2.png,h,1,0.7433099998161197,h,0,0.12567679956555367,0.04691729974001646,0.04670219961553812,0.10123350005596876,0.10004309937357903,0.30117900017648935
RSVPLG03,MD,20260217-111824,1.0.2,20251105-084826,763,Experiment,Both,1,Automatic,main,49,20260217-112315,global,global,300,S,H,E,A,S-E.png,H-A.png,sS,hH,mask-2.png,mask-3.png,s,1,0.5104469005018473,h,1,0.1119683999568224,0.047603899613022804,0.047235700301826,0.10013419948518276,0.10033559985458851,0.2994415992870927
RSVPLG03,MD,20260217-111824,1.0.2,20251105-084826,763,Experiment,Both,1,Automatic,main,50,20260217-112320,local,local,300,S,S,E,E,E-S.png,E-S.png,sS,sS,mask-1.png,mask-4.png,s,1,0.768461499363184,h,0,0.07448979932814837,0.047768800519406796,0.04767020046710968,0.10094790067523718,0.09983510058373213,0.29938230011612177
RSVPLG03,MD,20260217-111824,1.0.2,20251105-084826,763,Experiment,Both,1,Automatic,main,51,20260217-112345,local,local,300,H,S,E,A,E-H.png,A-S.png,hH,sS,mask-4.png,mask-2.png,s,0,0.5737373996526003,s,1,0.07538879942148924,0.045621300116181374,0.04759229999035597,0.09958710055798292,0.10028109978884459,0.29842400085181
RSVPLG03,MD,20260217-111824,1.0.2,20251105-084826,763,Experiment,Both,1,Automatic,main,52,20260217-112349,global,local,750,H,H,E,E,H-E.png,E-H.png,hH,hH,mask-4.png,mask-4.png,h,1,0.868422300554812,s,0,0.3709543999284506,0.04815270006656647,0.047029100358486176,0.10030000004917383,0.09983460046350956,0.7500094994902611
RSVPLG03,MD,20260217-111824,1.0.2,20251105-084826,763,Experiment,Both,1,Automatic,main,53,20260217-112355,global,global,300,S,S,A,E,S-A.png,S-E.png,sS,sS,mask-2.png,mask-2.png,s,1,0.49927789997309446,s,1,0.07403040025383234,0.04744530003517866,0.04751270078122616,0.09911879990249872,0.09953010082244873,0.2990942997857928
RSVPLG03,MD,20260217-111824,1.0.2,20251105-084826,763,Experiment,Both,1,Automatic,main,54,20260217-112359,global,global,300,H,S,A,A,H-A.png,S-A.png,hH,sS,mask-4.png,mask-3.png,h,1,0.49837160017341375,s,1,0.09616459999233484,0.04784050025045872,0.047443599440157413,0.10066180024296045,0.1009529996663332,0.299655900336802
RSVPLG03,MD,20260217-111824,1.0.2,20251105-084826,763,Experiment,Both,1,Automatic,main,55,20260217-112403,local,local,750,H,S,A,A,A-H.png,A-S.png,hH,sS,mask-1.png,mask-1.png,h,1,0.45768360048532486,s,1,0.13291459996253252,0.04876959975808859,0.04757730010896921,0.1009595999494195,0.09984419960528612,0.7489002998918295
RSVPLG03,MD,20260217-111824,1.0.2,20251105-084826,763,Experiment,Both,1,Automatic,main,56,20260217-112408,global,local,750,H,S,E,E,H-E.png,E-S.png,hH,sS,mask-2.png,mask-2.png,h,1,0.6641022004187107,s,1,0.09302289970219135,0.04769679997116327,0.04796959925442934,0.09909539949148893,0.10022789984941483,0.7484641000628471
RSVPLG03,MD,20260217-111824,1.0.2,20251105-084826,763,Experiment,Both,1,Automatic,main,57,20260217-112413,local,global,300,H,H,A,A,A-H.png,H-A.png,hH,hH,mask-2.png,mask-2.png,h,1,0.5555791007354856,s,0,0.11297870054841042,0.048070999793708324,0.04772910010069609,0.10136389918625355,0.10093619953840971,0.3000852996483445
RSVPLG03,MD,20260217-111824,1.0.2,20251105-084826,763,Experiment,Both,1,Automatic,main,58,20260217-112417,local,local,750,S,H,E,E,E-S.png,E-H.png,sS,hH,mask-2.png,mask-3.png,s,1,0.9977581994608045,h,1,0.06464700028300285,0.04730360023677349,0.047698100097477436,0.10014239978045225,0.09987640008330345,0.7485427996143699
RSVPLG03,MD,20260217-111824,1.0.2,20251105-084826,763,Experiment,Both,1,Automatic,main,59,20260217-112422,local,local,300,H,H,E,E,E-H.png,E-H.png,hH,hH,mask-1.png,mask-2.png,s,0,0.7762660002335906,s,0,0.08215909916907549,0.047579700127243996,0.0475169001147151,0.09946430008858442,0.10071109980344772,0.29991490021348
RSVPLG03,MD,20260217-111824,1.0.2,20251105-084826,763,Experiment,Both,1,Automatic,main,60,20260217-112427,local,local,750,H,H,E,A,E-H.png,A-H.png,hH,hH,mask-3.png,mask-4.png,h,1,0.8781405994668603,s,0,0.19811329990625381,0.04704920016229153,0.045934200286865234,0.1001909002661705,0.0991305997595191,0.7508370000869036
RSVPLG03,MD,20260217-111824,1.0.2,20251105-084826,763,Experiment,Both,1,Automatic,main,61,20260217-112432,global,global,300,S,S,A,A,S-A.png,S-A.png,sS,sS,mask-3.png,mask-1.png,s,1,0.4863181998953223,s,1,0.10315420012921095,0.04671439994126558,0.04810370039194822,0.09991590026766062,0.10032140091061592,0.2995841996744275
RSVPLG03,MD,20260217-111824,1.0.2,20251105-084826,763,Experiment,Both,1,Automatic,main,62,20260217-112436,global,local,300,H,S,A,E,H-A.png,E-S.png,hH,sS,mask-3.png,mask-2.png,h,1,0.4875018997117877,s,1,0.07449050061404705,0.04676949977874756,0.047693800181150436,0.09941239934414625,0.099885200150311,0.30008869990706444
RSVPLG03,MD,20260217-111824,1.0.2,20251105-084826,763,Experiment,Both,1,Automatic,main,63,20260217-112441,local,global,300,H,S,A,E,A-H.png,S-E.png,hH,sS,mask-3.png,mask-2.png,h,1,0.4578436007723212,s,1,0.08197569940239191,0.047630700282752514,0.045595900155603886,0.09863989986479282,0.09868220053613186,0.2999975001439452
RSVPLG03,MD,20260217-111824,1.0.2,20251105-084826,763,Experiment,Both,1,Automatic,main,64,20260217-112445,global,global,300,S,H,E,A,S-E.png,H-A.png,sS,hH,mask-2.png,mask-2.png,s,1,0.4524706993252039,h,1,0.15328350011259317,0.04719780012965202,0.048407599329948425,0.09974609967321157,0.10008969996124506,0.29957340005785227
RSVPLG03,MD,20260217-111824,1.0.2,20251105-084826,763,Experiment,Both,1,Automatic,main,65,20260217-112449,local,local,300,S,S,A,A,A-S.png,A-S.png,sS,sS,mask-4.png,mask-3.png,s,1,0.49695799965411425,s,1,0.09457070007920265,0.04671170003712177,0.04684370011091232,0.09974800050258636,0.09919859934598207,0.29937020037323236
RSVPLG03,MD,20260217-111824,1.0.2,20251105-084826,763,Experiment,Both,1,Automatic,main,66,20260217-112453,global,global,750,H,H,E,E,H-E.png,H-E.png,hH,hH,mask-3.png,mask-2.png,h,1,0.4671296998858452,h,1,0.10099940001964569,0.04656060039997101,0.046932400204241276,0.10057990066707134,0.09838830027729273,0.7494251001626253
RSVPLG03,MD,20260217-111824,1.0.2,20251105-084826,763,Experiment,Both,1,Automatic,main,67,20260217-112458,global,local,750,H,H,A,E,H-A.png,E-H.png,hH,hH,mask-4.png,mask-3.png,h,1,0.6300093997269869,h,1,0.35629549995064735,0.04568870086222887,0.04673110041767359,0.09889620076864958,0.09930230025202036,0.747923600487411
RSVPLG03,MD,20260217-111824,1.0.2,20251105-084826,763,Experiment,Both,1,Automatic,main,68,20260217-112503,local,local,300,S,S,A,E,A-S.png,E-S.png,sS,sS,mask-1.png,mask-2.png,s,1,0.7113779000937939,h,0,0.1349422000348568,0.04767240025103092,0.046396500431001186,0.09915020037442446,0.09778439998626709,0.3011897997930646
RSVPLG03,MD,20260217-111824,1.0.2,20251105-084826,763,Experiment,Both,1,Automatic,main,69,20260217-112508,global,local,300,S,H,A,A,S-A.png,A-H.png,sS,hH,mask-3.png,mask-1.png,s,1,0.5099787004292011,h,1,0.07365769986063242,0.04767809994518757,0.046582200564444065,0.1001426000148058,0.09963520057499409,0.301290899515152
RSVPLG03,MD,20260217-111824,1.0.2,20251105-084826,763,Experiment,Both,1,Automatic,main,70,20260217-112512,local,global,300,H,H,E,E,E-H.png,H-E.png,hH,hH,mask-4.png,mask-3.png,s,0,0.49264900013804436,h,1,0.0602790005505085,0.04748400021344423,0.04647349938750267,0.10046929959207773,0.09958499949425459,0.3007233003154397
RSVPLG03,MD,20260217-111824,1.0.2,20251105-084826,763,Experiment,Both,1,Automatic,main,71,20260217-112516,local,global,750,S,S,A,A,A-S.png,S-A.png,sS,sS,mask-3.png,mask-4.png,s,1,1.1412343000993133,h,0,0.07464729994535446,0.04851350001990795,0.047529200091958046,0.10051949974149466,0.09953120071440935,0.749834899790585
RSVPLG03,MD,20260217-111824,1.0.2,20251105-084826,763,Experiment,Both,1,Automatic,main,72,20260217-112521,local,local,750,S,S,A,E,A-S.png,E-S.png,sS,sS,mask-3.png,mask-3.png,s,1,1.1799603002145886,h,0,0.15987309999763966,0.04754390008747578,0.04805069975554943,0.09953590016812086,0.10013789962977171,0.7480345005169511
RSVPLG03,MD,20260217-111824,1.0.2,20251105-084826,763,Experiment,Both,1,Automatic,main,73,20260217-112527,local,local,300,H,H,A,A,A-H.png,A-H.png,hH,hH,mask-2.png,mask-4.png,s,0,1.7329906998202205,s,0,0.10237929970026016,0.04778019990772009,0.047660499811172485,0.10101569909602404,0.09886290039867163,0.30060199927538633
RSVPLG03,MD,20260217-111824,1.0.2,20251105-084826,763,Experiment,Both,1,Automatic,main,74,20260217-112532,local,local,750,S,H,E,A,E-S.png,A-H.png,sS,hH,mask-2.png,mask-1.png,s,1,0.9494401002302766,h,1,0.07019090000540018,0.04768280033022165,0.04778689984232187,0.10186360031366348,0.1009701993316412,0.7490827003493905
RSVPLG03,MD,20260217-111824,1.0.2,20251105-084826,763,Experiment,Both,1,Automatic,main,75,20260217-112538,global,local,300,S,H,A,E,S-A.png,E-H.png,sS,hH,mask-4.png,mask-3.png,s,1,0.824295399710536,h,1,0.04501109942793846,0.04752769973129034,0.04748340044170618,0.10052639991044998,0.09968649968504906,0.2995768999680877
RSVPLG03,MD,20260217-111824,1.0.2,20251105-084826,763,Experiment,Both,1,Automatic,main,76,20260217-112554,local,global,750,H,S,E,E,E-H.png,S-E.png,hH,sS,mask-4.png,mask-2.png,s,0,0.7926582004874945,h,0,0.1104139992967248,0.046805099584162235,0.04888929985463619,0.09900640044361353,0.10109850019216537,0.7479648999869823
RSVPLG03,MD,20260217-111824,1.0.2,20251105-084826,763,Experiment,Both,1,Automatic,main,77,20260217-112559,local,global,300,H,H,A,E,A-H.png,H-E.png,hH,hH,mask-4.png,mask-4.png,h,1,0.3634120998904109,s,0,0.05549139995127916,0.04934529960155487,0.04768100008368492,0.10095039941370487,0.0998879000544548,0.30140329990535975
RSVPLG03,MD,20260217-111824,1.0.2,20251105-084826,763,Experiment,Both,1,Automatic,main,78,20260217-112603,global,local,300,S,S,E,A,S-E.png,A-S.png,sS,sS,mask-1.png,mask-1.png,h,0,0.641338000074029,h,0,0.09040000010281801,0.04863099940121174,0.04860399942845106,0.10092199966311455,0.10183819942176342,0.29957420006394386
RSVPLG03,MD,20260217-111824,1.0.2,20251105-084826,763,Experiment,Both,1,Automatic,main,79,20260217-112608,local,local,300,S,S,E,E,E-S.png,E-S.png,sS,sS,mask-1.png,mask-1.png,s,1,0.4785573994740844,h,0,0.04909980017691851,0.0469097001478076,0.04752060025930405,0.09998720046132803,0.09957609977573156,0.30030000023543835
RSVPLG03,MD,20260217-111824,1.0.2,20251105-084826,763,Experiment,Both,1,Automatic,main,80,20260217-112612,local,global,300,S,S,A,A,A-S.png,S-A.png,sS,sS,mask-3.png,mask-4.png,s,1,0.9452165998518467,s,1,0.12163779977709055,0.04753290023654699,0.04760830011218786,0.09945670049637556,0.09990070015192032,0.30088150035589933
RSVPLG03,MD,20260217-111824,1.0.2,20251105-084826,763,Experiment,Both,1,Automatic,main,81,20260217-112617,global,global,750,H,H,A,E,H-A.png,H-E.png,hH,hH,mask-1.png,mask-4.png,h,1,0.6047777999192476,h,1,0.07406750041991472,0.04723410028964281,0.04607180040329695,0.10023159999400377,0.09979010000824928,0.7504597995430231
RSVPLG03,MD,20260217-111824,1.0.2,20251105-084826,763,Experiment,Both,1,Automatic,main,82,20260217-112621,global,local,750,H,S,E,E,H-E.png,E-S.png,hH,sS,mask-4.png,mask-1.png,h,1,0.5074734995141625,h,0,0.08005549944937229,0.04555629938840866,0.04753519967198372,0.09804319962859154,0.09879930038005114,0.748853299766779
RSVPLG03,MD,20260217-111824,1.0.2,20251105-084826,763,Experiment,Both,1,Automatic,main,83,20260217-112626,global,global,750,H,S,E,E,H-E.png,S-E.png,hH,sS,mask-1.png,mask-1.png,h,1,0.8425933001562953,s,1,0.10718869976699352,0.046887899748981,0.04656139947474003,0.0999776003882289,0.09994149953126907,0.7493016002699733
RSVPLG03,MD,20260217-111824,1.0.2,20251105-084826,763,Experiment,Both,1,Automatic,main,84,20260217-112631,local,global,300,S,H,E,E,E-S.png,H-E.png,sS,hH,mask-1.png,mask-3.png,s,1,0.6077095000073314,h,1,0.043103900738060474,0.04782499931752682,0.047273900359869,0.09937739931046963,0.10030619986355305,0.29854359943419695
RSVPLG03,MD,20260217-111824,1.0.2,20251105-084826,763,Experiment,Both,1,Automatic,main,85,20260217-112635,global,global,750,S,H,E,E,S-E.png,H-E.png,sS,hH,mask-1.png,mask-1.png,s,1,0.5319087002426386,h,1,0.08025550004094839,0.04742009937763214,0.04759129974991083,0.09971939958631992,0.10076289996504784,0.7502445001155138
RSVPLG03,MD,20260217-111824,1.0.2,20251105-084826,763,Experiment,Both,1,Automatic,main,86,20260217-112640,local,global,300,S,H,A,E,A-S.png,H-E.png,sS,hH,mask-4.png,mask-4.png,s,1,0.6573195997625589,s,0,0.09675170015543699,0.04628430027514696,0.046341899782419205,0.09831409994512796,0.10116839967668056,0.29826540034264326
RSVPLG03,MD,20260217-111824,1.0.2,20251105-084826,763,Experiment,Both,1,Automatic,main,87,20260217-112644,global,local,750,H,S,A,A,H-A.png,A-S.png,hH,sS,mask-2.png,mask-1.png,h,1,0.5202123997732997,h,0,0.08640300016850233,0.04663490038365126,0.047702799551188946,0.10055630002170801,0.10020940005779266,0.7490238007158041
RSVPLG03,MD,20260217-111824,1.0.2,20251105-084826,763,Experiment,Both,1,Automatic,main,88,20260217-112649,local,local,750,S,H,A,E,A-S.png,E-H.png,sS,hH,mask-4.png,mask-3.png,s,1,0.5400204993784428,h,1,0.07180960010737181,0.04676210042089224,0.04860890004783869,0.09992100019007921,0.09994590003043413,0.7485982002690434
RSVPLG03,MD,20260217-111824,1.0.2,20251105-084826,763,Experiment,Both,1,Automatic,main,89,20260217-112654,local,global,750,H,H,A,E,A-H.png,H-E.png,hH,hH,mask-1.png,mask-2.png,h,1,0.5227589001879096,s,0,0.10630370024591684,0.048024099320173264,0.047246200032532215,0.1000290997326374,0.09978170040994883,0.7505508996546268
RSVPLG03,MD,20260217-111824,1.0.2,20251105-084826,763,Experiment,Both,1,Automatic,main,90,20260217-112659,local,local,300,H,H,E,E,E-H.png,E-H.png,hH,hH,mask-1.png,mask-2.png,h,1,0.5903356000781059,h,1,0.09378870017826557,0.04880829993635416,0.04784869961440563,0.09911129996180534,0.09918539971113205,0.29999540001153946
RSVPLG03,MD,20260217-111824,1.0.2,20251105-084826,763,Experiment,Both,1,Automatic,main,91,20260217-112703,local,local,750,H,H,E,E,E-H.png,E-H.png,hH,hH,mask-4.png,mask-3.png,h,1,0.659579100087285,h,1,0.1097064008936286,0.04853399936109781,0.0475465003401041,0.10061849933117628,0.10056610032916069,0.7498736996203661
RSVPLG03,MD,20260217-111824,1.0.2,20251105-084826,763,Experiment,Both,1,Automatic,main,92,20260217-112708,global,local,750,H,S,A,A,H-A.png,A-S.png,hH,sS,mask-1.png,mask-4.png,h,1,0.44946520030498505,h,0,0.06845330074429512,0.04757279995828867,0.047574300318956375,0.09960039984434843,0.09857350029051304,0.7497172998264432
RSVPLG03,MD,20260217-111824,1.0.2,20251105-084826,763,Experiment,Both,1,Automatic,main,93,20260217-112712,global,global,300,H,H,E,E,H-E.png,H-E.png,hH,hH,mask-1.png,mask-4.png,h,1,0.48153440002352,h,1,0.09242570027709007,0.047565000131726265,0.04756989981979132,0.1010274002328515,0.10056329984217882,0.2996871005743742
RSVPLG03,MD,20260217-111824,1.0.2,20251105-084826,763,Experiment,Both,1,Automatic,main,94,20260217-112717,local,local,750,S,H,A,E,A-S.png,E-H.png,sS,hH,mask-2.png,mask-2.png,s,1,1.0997810997068882,h,1,0.10457090009003878,0.047531199641525745,0.04653419926762581,0.09986659977585077,0.0994031997397542,0.75067950040102
RSVPLG03,MD,20260217-111824,1.0.2,20251105-084826,763,Experiment,Both,1,Automatic,main,95,20260217-112722,local,global,750,H,S,A,E,A-H.png,S-E.png,hH,sS,mask-3.png,mask-3.png,h,1,0.6788071999326348,h,0,0.10211419966071844,0.04775000084191561,0.04860239941626787,0.10083400085568428,0.10057689994573593,0.7487830007448792
RSVPLG03,MD,20260217-111824,1.0.2,20251105-084826,763,Experiment,Both,1,Automatic,main,96,20260217-112727,global,global,750,S,H,E,A,S-E.png,H-A.png,sS,hH,mask-1.png,mask-2.png,s,1,0.4531554998829961,s,0,0.09102539997547865,0.04751370009034872,0.04955369979143143,0.10072660073637962,0.10127590037882328,0.7483103005215526
RSVPLG03,MD,20260217-111824,1.0.2,20251105-084826,763,Experiment,Both,1,Automatic,main,97,20260217-112731,local,local,750,H,H,E,A,E-H.png,A-H.png,hH,hH,mask-1.png,mask-3.png,h,1,0.6954212998971343,s,0,0.0704922005534172,0.047566999681293964,0.04772959928959608,0.10058270022273064,0.09924259968101978,0.7483491003513336
RSVPLG03,MD,20260217-111824,1.0.2,20251105-084826,763,Experiment,Both,1,Automatic,main,98,20260217-112736,global,global,750,S,S,E,A,S-E.png,S-A.png,sS,sS,mask-1.png,mask-1.png,s,1,0.432035599835217,s,1,0.09226460009813309,0.04671259969472885,0.04664839990437031,0.09915020037442446,0.10082559939473867,0.748984600417316
RSVPLG03,MD,20260217-111824,1.0.2,20251105-084826,763,Experiment,Both,1,Automatic,main,99,20260217-112741,local,global,300,H,S,A,A,A-H.png,S-A.png,hH,sS,mask-4.png,mask-2.png,h,1,0.8222765000537038,h,0,0.09087080042809248,0.04682379961013794,0.048954800702631474,0.10053799953311682,0.10163679998368025,0.2989332992583513
RSVPLG03,MD,20260217-111824,1.0.2,20251105-084826,763,Experiment,Both,1,Automatic,main,100,20260217-112745,global,global,750,S,H,E,E,S-E.png,H-E.png,sS,hH,mask-2.png,mask-3.png,s,1,0.42649140022695065,h,1,0.08187520038336515,0.04607569985091686,0.047848899848759174,0.09840979985892773,0.10028479993343353,0.7484598001465201
RSVPLG03,MD,20260217-112817,1.0.2,20251105-084826,763,Experiment,Both,1,Automatic,warmup,1,20260217-112839,global,local,750,H,S,E,E,H-E.png,E-S.png,hH,sS,mask-1.png,mask-1.png,h,1,0.665471600368619,s,1,0.4740838995203376,0.03964080009609461,0.04710700083523989,0.09272480010986328,0.09966210089623928,0.7423678999766707
RSVPLG03,MD,20260217-112817,1.0.2,20251105-084826,763,Experiment,Both,1,Automatic,warmup,2,20260217-112845,local,local,300,S,S,E,E,E-S.png,E-S.png,sS,sS,mask-3.png,mask-4.png,s,1,0.4588191006332636,s,1,0.06766809988766909,0.049404299817979336,0.047203900292515755,0.10146629996597767,0.1000482002273202,0.3011812996119261
RSVPLG03,MD,20260217-112817,1.0.2,20251105-084826,763,Experiment,Both,1,Automatic,warmup,3,20260217-112849,local,global,750,H,S,E,A,E-H.png,S-A.png,hH,sS,mask-1.png,mask-2.png,h,1,0.8022614000365138,s,1,0.1575376996770501,0.04859760031104088,0.04751110076904297,0.10063919983804226,0.09911710023880005,0.7512246994301677
RSVPLG03,MD,20260217-112817,1.0.2,20251105-084826,763,Experiment,Both,1,Automatic,warmup,4,20260217-112854,global,local,300,S,H,A,E,S-A.png,E-H.png,sS,hH,mask-1.png,mask-3.png,s,1,0.7003214005380869,s,0,0.08865349926054478,0.047611599788069725,0.04753109999001026,0.10015320032835007,0.09894580021500587,0.3015355998650193
RSVPLG03,MD,20260217-112817,1.0.2,20251105-084826,763,Experiment,Both,1,Automatic,main,5,20260217-112858,global,global,300,S,H,E,E,S-E.png,H-E.png,sS,hH,mask-3.png,mask-2.png,s,1,0.5758388005197048,h,1,0.045538599602878094,0.04873469937592745,0.0474677998572588,0.10085249971598387,0.09957309998571873,0.30205459985882044
RSVPLG03,MD,20260217-112817,1.0.2,20251105-084826,763,Experiment,Both,1,Automatic,main,6,20260217-112902,global,global,300,H,S,E,E,H-E.png,S-E.png,hH,sS,mask-3.png,mask-3.png,h,1,0.44380580075085163,s,1,0.08853020053356886,0.04790929984301329,0.04853999987244606,0.10140139982104301,0.10163090005517006,0.3003933001309633
RSVPLG03,MD,20260217-112817,1.0.2,20251105-084826,763,Experiment,Both,1,Automatic,main,7,20260217-112907,global,global,300,S,H,E,A,S-E.png,H-A.png,sS,hH,mask-1.png,mask-2.png,s,1,0.4233568999916315,h,1,0.06311449967324734,0.04779200069606304,0.047718700021505356,0.10037100035697222,0.0999304000288248,0.30012060049921274
RSVPLG03,MD,20260217-112817,1.0.2,20251105-084826,763,Experiment,Both,1,Automatic,main,8,20260217-112911,global,global,750,S,H,A,E,S-A.png,H-E.png,sS,hH,mask-1.png,mask-3.png,s,1,0.4356640996411443,h,1,0.05885729938745499,0.04800870083272457,0.04871959984302521,0.1007731007412076,0.10091489925980568,0.7504565007984638
RSVPLG03,MD,20260217-112817,1.0.2,20251105-084826,763,Experiment,Both,1,Automatic,main,9,20260217-112915,global,local,300,S,S,A,A,S-A.png,A-S.png,sS,sS,mask-3.png,mask-3.png,s,1,0.3827059008181095,h,0,0.054915799759328365,0.04750990029424429,0.04788789991289377,0.0988673996180296,0.09917599987238646,0.30055189970880747
RSVPLG03,MD,20260217-112817,1.0.2,20251105-084826,763,Experiment,Both,1,Automatic,main,10,20260217-112920,local,local,300,H,H,A,A,A-H.png,A-H.png,hH,hH,mask-3.png,mask-3.png,h,1,0.7761175995692611,h,1,0.09286860004067421,0.047264499589800835,0.04751040041446686,0.09993680007755756,0.10050530079752207,0.3005502996966243
RSVPLG03,MD,20260217-112817,1.0.2,20251105-084826,763,Experiment,Both,1,Automatic,main,11,20260217-112924,local,local,750,H,H,A,E,A-H.png,E-H.png,hH,hH,mask-1.png,mask-1.png,h,1,0.8844069996848702,h,1,0.6445997999981046,0.046682500280439854,0.04785410035401583,0.09958409983664751,0.10141760017722845,0.7496103001758456
RSVPLG03,MD,20260217-112817,1.0.2,20251105-084826,763,Experiment,Both,1,Automatic,main,12,20260217-112930,local,global,750,H,H,A,A,A-H.png,H-A.png,hH,hH,mask-4.png,mask-2.png,h,1,0.7306102998554707,s,0,0.44019730016589165,0.04666849970817566,0.04894720017910004,0.09987189993262291,0.10064619965851307,0.7486680997535586
RSVPLG03,MD,20260217-112817,1.0.2,20251105-084826,763,Experiment,Both,1,Automatic,main,13,20260217-112935,local,global,750,S,H,E,E,E-S.png,H-E.png,sS,hH,mask-4.png,mask-1.png,s,1,0.5762541005387902,s,0,0.2826033001765609,0.04748919978737831,0.04739319998770952,0.10093310009688139,0.10022869985550642,0.7503853002563119
RSVPLG03,MD,20260217-112817,1.0.2,20251105-084826,763,Experiment,Both,1,Automatic,main,14,20260217-112940,local,local,750,H,H,E,A,E-H.png,A-H.png,hH,hH,mask-2.png,mask-1.png,h,1,0.6726424004882574,h,1,0.23650680016726255,0.047552600502967834,0.047508999705314636,0.10156549979001284,0.10051259957253933,0.7513931002467871
RSVPLG03,MD,20260217-112817,1.0.2,20251105-084826,763,Experiment,Both,1,Automatic,main,15,20260217-112945,local,local,750,H,S,A,A,A-H.png,A-S.png,hH,sS,mask-4.png,mask-1.png,h,1,0.4650314999744296,s,1,0.22088259924203157,0.047110999934375286,0.04695519991219044,0.10090699978172779,0.10051750019192696,0.7506126994267106
RSVPLG03,MD,20260217-112817,1.0.2,20251105-084826,763,Experiment,Both,1,Automatic,main,16,20260217-112950,global,global,300,H,S,A,E,H-A.png,S-E.png,hH,sS,mask-4.png,mask-4.png,h,1,0.5420831004157662,s,1,0.3639199994504452,0.04784360062330961,0.047226800583302975,0.1010465007275343,0.09995820000767708,0.2996944999322295
RSVPLG03,MD,20260217-112817,1.0.2,20251105-084826,763,Experiment,Both,1,Automatic,main,17,20260217-112954,global,global,300,S,H,A,E,S-A.png,H-E.png,sS,hH,mask-3.png,mask-1.png,s,1,0.5296250004321337,h,1,0.21386220026761293,0.04674000013619661,0.04767160024493933,0.10098300036042929,0.0998598001897335,0.2994788000360131
RSVPLG03,MD,20260217-112817,1.0.2,20251105-084826,763,Experiment,Both,1,Automatic,main,18,20260217-112959,global,global,750,S,H,A,E,S-A.png,H-E.png,sS,hH,mask-2.png,mask-4.png,s,1,0.4215735998004675,h,1,0.11935289949178696,0.048726899549365044,0.046891700476408005,0.0996995996683836,0.09957270044833422,0.7502138996496797
RSVPLG03,MD,20260217-112817,1.0.2,20251105-084826,763,Experiment,Both,1,Automatic,main,19,20260217-113004,local,local,750,H,S,A,E,A-H.png,E-S.png,hH,sS,mask-3.png,mask-4.png,h,1,0.6679577995091677,s,1,0.14550169929862022,0.04632300045341253,0.04905360005795956,0.09958100039511919,0.10062609985470772,0.7480968004092574
RSVPLG03,MD,20260217-112817,1.0.2,20251105-084826,763,Experiment,Both,1,Automatic,main,20,20260217-113009,local,local,300,H,H,E,E,E-H.png,E-H.png,hH,hH,mask-1.png,mask-3.png,s,0,0.9238549005240202,h,1,0.21236199978739023,0.048520300537347794,0.048505899496376514,0.09955069981515408,0.10071879997849464,0.29987880028784275
RSVPLG03,MD,20260217-112817,1.0.2,20251105-084826,763,Experiment,Both,1,Automatic,main,21,20260217-113013,global,local,750,H,H,A,A,H-A.png,A-H.png,hH,hH,mask-4.png,mask-2.png,h,1,0.5371426995843649,h,1,0.1931859003379941,0.04702159948647022,0.0484314002096653,0.10013270005583763,0.09951180033385754,0.7498476998880506
RSVPLG03,MD,20260217-112817,1.0.2,20251105-084826,763,Experiment,Both,1,Automatic,main,22,20260217-113018,global,local,750,H,H,E,E,H-E.png,E-H.png,hH,hH,mask-3.png,mask-4.png,h,1,0.48809370025992393,s,0,0.2403776003047824,0.045529600232839584,0.047588299959897995,0.09777760040014982,0.1005984004586935,0.749099999666214
RSVPLG03,MD,20260217-112817,1.0.2,20251105-084826,763,Experiment,Both,1,Automatic,main,23,20260217-113023,global,local,750,H,S,A,A,H-A.png,A-S.png,hH,sS,mask-2.png,mask-1.png,h,1,0.4572852002456784,h,0,0.20808330085128546,0.04654819983989,0.04756330046802759,0.10049579944461584,0.10157349985092878,0.7490850994363427
RSVPLG03,MD,20260217-112817,1.0.2,20251105-084826,763,Experiment,Both,1,Automatic,main,24,20260217-113028,global,global,750,H,S,A,E,H-A.png,S-E.png,hH,sS,mask-1.png,mask-1.png,h,1,0.4413147000595927,s,1,0.22379139997065067,0.04880540072917938,0.04775200039148331,0.10091180074959993,0.09921259991824627,0.7509628999978304
RSVPLG03,MD,20260217-112817,1.0.2,20251105-084826,763,Experiment,Both,1,Automatic,main,25,20260217-113033,local,local,300,H,S,A,A,A-H.png,A-S.png,hH,sS,mask-3.png,mask-3.png,h,1,0.5144668007269502,s,1,0.341715800575912,0.04689420014619827,0.047522399574518204,0.10080610029399395,0.10042959917336702,0.300623900257051
RSVPLG03,MD,20260217-112817,1.0.2,20251105-084826,763,Experiment,Both,1,Automatic,main,26,20260217-113052,global,local,750,H,S,A,E,H-A.png,E-S.png,hH,sS,mask-3.png,mask-4.png,h,1,0.6826407993212342,s,1,0.0961039001122117,0.04667720012366772,0.04765250068157911,0.097970400005579,0.10069470014423132,0.7490291995927691
RSVPLG03,MD,20260217-112817,1.0.2,20251105-084826,763,Experiment,Both,1,Automatic,main,27,20260217-113057,global,local,300,H,H,E,E,H-E.png,E-H.png,hH,hH,mask-2.png,mask-4.png,h,1,0.409812199883163,s,0,0.10562430042773485,0.04741990007460117,0.047469899989664555,0.0994542995467782,0.1000322001054883,0.29953849967569113
RSVPLG03,MD,20260217-112817,1.0.2,20251105-084826,763,Experiment,Both,1,Automatic,main,28,20260217-113101,local,local,750,H,S,E,E,E-H.png,E-S.png,hH,sS,mask-4.png,mask-2.png,h,1,0.9988426994532347,s,1,0.20029709953814745,0.04523430019617081,0.04809040017426014,0.09915939997881651,0.100322799757123,0.7500606998801231
RSVPLG03,MD,20260217-112817,1.0.2,20251105-084826,763,Experiment,Both,1,Automatic,main,29,20260217-113107,global,global,300,H,H,E,A,H-E.png,H-A.png,hH,hH,mask-4.png,mask-4.png,h,1,0.5166044002398849,h,1,0.12465200014412403,0.04759579990059137,0.04615020006895065,0.09947810042649508,0.09955010004341602,0.30055810045450926
RSVPLG03,MD,20260217-112817,1.0.2,20251105-084826,763,Experiment,Both,1,Automatic,main,30,20260217-113111,global,global,300,S,H,E,E,S-E.png,H-E.png,sS,hH,mask-1.png,mask-3.png,s,1,0.5099243000149727,h,1,0.0646749995648861,0.04657050035893917,0.0475832000374794,0.10051519982516766,0.10107950028032064,0.2991009000688791
RSVPLG03,MD,20260217-112817,1.0.2,20251105-084826,763,Experiment,Both,1,Automatic,main,31,20260217-113115,global,local,750,S,H,E,A,S-E.png,A-H.png,sS,hH,mask-2.png,mask-3.png,s,1,0.6549680000171065,h,1,0.04623629990965128,0.046705800108611584,0.047495899721980095,0.09923660010099411,0.10054749995470047,0.749401000328362
RSVPLG03,MD,20260217-112817,1.0.2,20251105-084826,763,Experiment,Both,1,Automatic,main,32,20260217-113120,global,local,300,H,S,E,A,H-E.png,A-S.png,hH,sS,mask-3.png,mask-3.png,h,1,0.608627200126648,h,0,0.08496489934623241,0.047788599506020546,0.047897299751639366,0.09902120009064674,0.09986579976975918,0.29900630004704
RSVPLG03,MD,20260217-112817,1.0.2,20251105-084826,763,Experiment,Both,1,Automatic,main,33,20260217-113124,global,global,300,S,S,E,E,S-E.png,S-E.png,sS,sS,mask-4.png,mask-1.png,s,1,0.49264509975910187,h,0,0.1537486994639039,0.04717449937015772,0.04874579980969429,0.1003406997770071,0.09996679984033108,0.29883809946477413
RSVPLG03,MD,20260217-112817,1.0.2,20251105-084826,763,Experiment,Both,1,Automatic,main,34,20260217-113129,global,local,750,H,S,E,A,H-E.png,A-S.png,hH,sS,mask-4.png,mask-2.png,h,1,0.5003805998712778,h,0,0.10834449995309114,0.047759899869561195,0.04675280023366213,0.1001449003815651,0.10047219973057508,0.7507923003286123
RSVPLG03,MD,20260217-112817,1.0.2,20251105-084826,763,Experiment,Both,1,Automatic,main,35,20260217-113133,local,global,750,S,S,E,A,E-S.png,S-A.png,sS,sS,mask-3.png,mask-2.png,s,1,0.628413800150156,s,1,0.07814269978553057,0.045719100162386894,0.04806960001587868,0.09990900009870529,0.10114219971001148,0.7486388999968767
RSVPLG03,MD,20260217-112817,1.0.2,20251105-084826,763,Experiment,Both,1,Automatic,main,36,20260217-113138,local,local,300,S,S,A,E,A-S.png,E-S.png,sS,sS,mask-1.png,mask-2.png,s,1,1.2771163992583752,s,1,0.31055210065096617,0.04682449996471405,0.04767400026321411,0.0998192997649312,0.10103579983115196,0.29882019944489
RSVPLG03,MD,20260217-112817,1.0.2,20251105-084826,763,Experiment,Both,1,Automatic,main,37,20260217-113143,local,local,750,S,H,A,A,A-S.png,A-H.png,sS,hH,mask-3.png,mask-3.png,s,1,0.634434899315238,s,0,0.06205410044640303,0.047260599210858345,0.04752109944820404,0.10007989965379238,0.10153929982334375,0.749592199921608
RSVPLG03,MD,20260217-112817,1.0.2,20251105-084826,763,Experiment,Both,1,Automatic,main,38,20260217-113148,local,local,750,S,H,E,A,E-S.png,A-H.png,sS,hH,mask-3.png,mask-1.png,s,1,0.5202146004885435,h,1,0.03570740018039942,0.04726650007069111,0.047531899996101856,0.09936480037868023,0.100441699847579,0.7495504999533296
RSVPLG03,MD,20260217-112817,1.0.2,20251105-084826,763,Experiment,Both,1,Automatic,main,39,20260217-113153,global,global,300,S,S,E,A,S-E.png,S-A.png,sS,sS,mask-2.png,mask-4.png,s,1,0.5609995005652308,h,0,0.023883599787950516,0.04770019929856062,0.04692400060594082,0.09992699977010489,0.09848020039498806,0.3011078992858529
RSVPLG03,MD,20260217-112817,1.0.2,20251105-084826,763,Experiment,Both,1,Automatic,main,40,20260217-113157,global,global,750,S,H,E,E,S-E.png,H-E.png,sS,hH,mask-1.png,mask-3.png,s,1,0.568554300814867,h,1,0.025847400538623333,0.04751119948923588,0.04667310044169426,0.10051789972931147,0.09926590044051409,0.7496224995702505
RSVPLG03,MD,20260217-112817,1.0.2,20251105-084826,763,Experiment,Both,1,Automatic,main,41,20260217-113202,local,global,750,H,H,E,E,E-H.png,H-E.png,hH,hH,mask-2.png,mask-3.png,h,1,0.5015599997714162,s,0,0.06863840017467737,0.04786689952015877,0.04625269956886768,0.0999397998675704,0.09845330007374287,0.7516802996397018
RSVPLG03,MD,20260217-112817,1.0.2,20251105-084826,763,Experiment,Both,1,Automatic,main,42,20260217-113206,local,global,300,S,S,A,E,A-S.png,S-E.png,sS,sS,mask-4.png,mask-1.png,s,1,0.537830600515008,s,1,0.10541409999132156,0.04774970002472401,0.0467459000647068,0.10101609956473112,0.09902540035545826,0.30166689958423376
RSVPLG03,MD,20260217-112817,1.0.2,20251105-084826,763,Experiment,Both,1,Automatic,main,43,20260217-113211,local,local,300,S,S,E,E,E-S.png,E-S.png,sS,sS,mask-4.png,mask-2.png,s,1,0.43942359928041697,s,1,0.08530780021101236,0.04671599995344877,0.046710699796676636,0.10004879999905825,0.09876339975744486,0.30006880033761263
RSVPLG03,MD,20260217-112817,1.0.2,20251105-084826,763,Experiment,Both,1,Automatic,main,44,20260217-113215,global,local,750,H,H,A,E,H-A.png,E-H.png,hH,hH,mask-4.png,mask-3.png,h,1,0.6338251996785402,h,1,0.11133479978889227,0.04759190045297146,0.04774030018597841,0.09993499983102083,0.10115570016205311,0.7490894999355078
RSVPLG03,MD,20260217-112817,1.0.2,20251105-084826,763,Experiment,Both,1,Automatic,main,45,20260217-113220,global,local,300,H,H,E,E,H-E.png,E-H.png,hH,hH,mask-3.png,mask-3.png,h,1,0.5374598000198603,s,0,0.06986330077052116,0.047412400133907795,0.045579600147902966,0.10025379993021488,0.09870880004018545,0.30051600001752377
RSVPLG03,MD,20260217-112817,1.0.2,20251105-084826,763,Experiment,Both,1,Automatic,main,46,20260217-113224,local,local,300,S,S,E,E,E-S.png,E-S.png,sS,sS,mask-1.png,mask-1.png,s,1,0.5409856997430325,s,1,0.07609159965068102,0.04671010002493858,0.047625900246202946,0.09923649951815605,0.09817130025476217,0.30066110007464886
RSVPLG03,MD,20260217-112817,1.0.2,20251105-084826,763,Experiment,Both,1,Automatic,main,47,20260217-113228,local,global,750,S,S,E,E,E-S.png,S-E.png,sS,sS,mask-1.png,mask-3.png,s,1,0.7737742997705936,h,0,0.07120659947395325,0.04770379979163408,0.04805740062147379,0.10075519979000092,0.10103030037134886,0.7502625994384289
RSVPLG03,MD,20260217-112817,1.0.2,20251105-084826,763,Experiment,Both,1,Automatic,main,48,20260217-113233,local,local,750,H,S,A,A,A-H.png,A-S.png,hH,sS,mask-2.png,mask-2.png,h,1,0.44849650003015995,h,0,0.09519319981336594,0.04915880039334297,0.04810140002518892,0.10120430029928684,0.10176510084420443,0.749965799972415
RSVPLG03,MD,20260217-112817,1.0.2,20251105-084826,763,Experiment,Both,1,Automatic,main,49,20260217-113238,global,global,300,H,H,E,A,H-E.png,H-A.png,hH,hH,mask-3.png,mask-2.png,h,1,0.45880409982055426,h,1,0.08894870057702065,0.04670550022274256,0.046914699487388134,0.1001987000927329,0.09981509950011969,0.3005643002688885
RSVPLG03,MD,20260217-112817,1.0.2,20251105-084826,763,Experiment,Both,1,Automatic,main,50,20260217-113242,global,local,750,H,S,A,A,H-A.png,A-S.png,hH,sS,mask-3.png,mask-4.png,h,1,0.4818885000422597,h,0,0.09305110014975071,0.04667789954692125,0.04674469958990812,0.09847609978169203,0.10053810011595488,0.7500652996823192
RSVPLG03,MD,20260217-112817,1.0.2,20251105-084826,763,Experiment,Both,1,Automatic,main,51,20260217-113258,local,global,750,S,H,E,A,E-S.png,H-A.png,sS,hH,mask-2.png,mask-2.png,s,1,0.6211909996345639,h,1,0.027048499323427677,0.047839599661529064,0.04889800027012825,0.09999269992113113,0.10002070013433695,0.7502225991338491
RSVPLG03,MD,20260217-112817,1.0.2,20251105-084826,763,Experiment,Both,1,Automatic,main,52,20260217-113303,global,local,750,H,S,E,A,H-E.png,A-S.png,hH,sS,mask-1.png,mask-3.png,h,1,0.6787967998534441,h,0,0.07540170010179281,0.047400000505149364,0.0483967000618577,0.1003102008253336,0.10146720055490732,0.7487882999703288
RSVPLG03,MD,20260217-112817,1.0.2,20251105-084826,763,Experiment,Both,1,Automatic,main,53,20260217-113308,local,local,300,S,S,A,A,A-S.png,A-S.png,sS,sS,mask-1.png,mask-2.png,s,1,0.4750313004478812,s,1,0.08107450045645237,0.0468129999935627,0.046839999966323376,0.09918039944022894,0.09877329971641302,0.30055310018360615
RSVPLG03,MD,20260217-112817,1.0.2,20251105-084826,763,Experiment,Both,1,Automatic,main,54,20260217-113312,global,local,300,H,H,A,E,H-A.png,E-H.png,hH,hH,mask-4.png,mask-4.png,h,1,0.7308544991537929,s,0,0.453855300322175,0.04798110015690327,0.047800200060009956,0.09960659965872765,0.10001310054212809,0.3003770997747779
RSVPLG03,MD,20260217-112817,1.0.2,20251105-084826,763,Experiment,Both,1,Automatic,main,55,20260217-113317,local,global,300,H,S,E,E,E-H.png,S-E.png,hH,sS,mask-2.png,mask-1.png,h,1,1.6212023003026843,h,0,0.105906100012362,0.047514899633824825,0.04774009995162487,0.1005555996671319,0.09828860033303499,0.30022669956088066
RSVPLG03,MD,20260217-112817,1.0.2,20251105-084826,763,Experiment,Both,1,Automatic,main,56,20260217-113322,global,global,750,H,H,A,A,H-A.png,H-A.png,hH,hH,mask-4.png,mask-3.png,h,1,0.5788437006995082,h,1,0.09832470025867224,0.047152300365269184,0.04755110014230013,0.09948730003088713,0.1001273998990655,0.7495916001498699
RSVPLG03,MD,20260217-112817,1.0.2,20251105-084826,763,Experiment,Both,1,Automatic,main,57,20260217-113327,local,global,300,S,S,A,A,A-S.png,S-A.png,sS,sS,mask-3.png,mask-2.png,s,1,0.5765530001372099,s,1,1.20612240023911,0.04759390000253916,0.04752170015126467,0.10062719974666834,0.10008220002055168,0.3009054996073246
RSVPLG03,MD,20260217-112817,1.0.2,20251105-084826,763,Experiment,Both,1,Automatic,main,58,20260217-113332,local,local,750,H,H,A,E,A-H.png,E-H.png,hH,hH,mask-4.png,mask-1.png,h,1,0.5858538998290896,h,1,0.29580939933657646,0.047691899351775646,0.04700230062007904,0.0999339995905757,0.09963809978216887,0.7490134993568063
RSVPLG03,MD,20260217-112817,1.0.2,20251105-084826,763,Experiment,Both,1,Automatic,main,59,20260217-113337,global,global,750,H,H,E,E,H-E.png,H-E.png,hH,hH,mask-3.png,mask-4.png,h,1,0.43122499994933605,h,1,0.13565499987453222,0.04649990051984787,0.048023900017142296,0.09954410046339035,0.10007070004940033,0.7497966000810266
RSVPLG03,MD,20260217-112817,1.0.2,20251105-084826,763,Experiment,Both,1,Automatic,main,60,20260217-113342,global,global,750,S,S,A,A,S-A.png,S-A.png,sS,sS,mask-2.png,mask-4.png,s,1,0.3074275003746152,s,1,0.08304629940539598,0.04670469928532839,0.04696169961243868,0.09822429995983839,0.09944239910691977,0.74890480004251
RSVPLG03,MD,20260217-112817,1.0.2,20251105-084826,763,Experiment,Both,1,Automatic,main,61,20260217-113346,global,local,300,S,H,A,A,S-A.png,A-H.png,sS,hH,mask-3.png,mask-4.png,s,1,0.47465720027685165,h,1,0.03891099989414215,0.04771339986473322,0.04809650033712387,0.10080160014331341,0.10019310005009174,0.29959379974752665
RSVPLG03,MD,20260217-112817,1.0.2,20251105-084826,763,Experiment,Both,1,Automatic,main,62,20260217-113351,global,global,750,S,S,A,A,S-A.png,S-A.png,sS,sS,mask-3.png,mask-1.png,s,1,0.4468580996617675,s,1,0.1082077007740736,0.047571899369359016,0.04657969996333122,0.10087479930371046,0.09917489998042583,0.751218999736011
RSVPLG03,MD,20260217-112817,1.0.2,20251105-084826,763,Experiment,Both,1,Automatic,main,63,20260217-113355,local,global,300,H,H,E,E,E-H.png,H-E.png,hH,hH,mask-1.png,mask-4.png,h,1,0.7568680997937918,h,1,0.10425660014152527,0.047555300407111645,0.04573480039834976,0.09867690037935972,0.0995260002091527,0.30014130007475615
RSVPLG03,MD,20260217-112817,1.0.2,20251105-084826,763,Experiment,Both,1,Automatic,main,64,20260217-113400,global,global,750,H,H,E,E,H-E.png,H-E.png,hH,hH,mask-2.png,mask-2.png,h,1,0.3462754003703594,h,1,0.08595210034400225,0.04766959976404905,0.048818900249898434,0.09969280008226633,0.1010262006893754,0.7494035996496677
RSVPLG03,MD,20260217-112817,1.0.2,20251105-084826,763,Experiment,Both,1,Automatic,main,65,20260217-113404,local,local,750,S,H,E,E,E-S.png,E-H.png,sS,hH,mask-3.png,mask-2.png,s,1,0.5149848004803061,h,1,0.15078500006347895,0.04812140017747879,0.04669069964438677,0.10078760050237179,0.09816789999604225,0.7518819002434611
RSVPLG03,MD,20260217-112817,1.0.2,20251105-084826,763,Experiment,Both,1,Automatic,main,66,20260217-113409,global,local,300,S,H,A,A,S-A.png,A-H.png,sS,hH,mask-4.png,mask-4.png,h,0,0.49367159977555275,h,1,0.07436020020395517,0.04760489985346794,0.04672880005091429,0.09982179943472147,0.09908720012754202,0.30136199947446585
RSVPLG03,MD,20260217-112817,1.0.2,20251105-084826,763,Experiment,Both,1,Automatic,main,67,20260217-113413,global,global,750,S,H,A,A,S-A.png,H-A.png,sS,hH,mask-4.png,mask-1.png,s,1,0.4081288995221257,h,1,0.019631700590252876,0.047718700021505356,0.047705099917948246,0.09995169937610626,0.10078859981149435,0.7496130997315049
RSVPLG03,MD,20260217-112817,1.0.2,20251105-084826,763,Experiment,Both,1,Automatic,main,68,20260217-113418,global,global,300,S,S,A,A,S-A.png,S-A.png,sS,sS,mask-2.png,mask-3.png,s,1,0.44509150087833405,s,1,0.0955333998426795,0.047411199659109116,0.04663629923015833,0.09914639964699745,0.09904359932988882,0.3006621999666095
RSVPLG03,MD,20260217-112817,1.0.2,20251105-084826,763,Experiment,Both,1,Automatic,main,69,20260217-113422,local,local,300,S,H,E,E,E-S.png,E-H.png,sS,hH,mask-3.png,mask-3.png,s,1,0.6499239997938275,h,1,0.08023030031472445,0.047817899845540524,0.04751159995794296,0.1008772999048233,0.0993630001321435,0.30121679976582527
RSVPLG03,MD,20260217-112817,1.0.2,20251105-084826,763,Experiment,Both,1,Automatic,main,70,20260217-113426,local,local,300,S,H,A,E,A-S.png,E-H.png,sS,hH,mask-3.png,mask-2.png,s,1,0.8013108000159264,h,1,0.007111399434506893,0.04901800025254488,0.04779770039021969,0.1007903004065156,0.10014660004526377,0.3006929997354746
RSVPLG03,MD,20260217-112817,1.0.2,20251105-084826,763,Experiment,Both,1,Automatic,main,71,20260217-113431,local,global,750,S,S,A,A,A-S.png,S-A.png,sS,sS,mask-1.png,mask-4.png,s,1,0.6151750003919005,h,0,0.05712269991636276,0.04689079988747835,0.04765230044722557,0.09920050017535686,0.09983520023524761,0.750633199699223
RSVPLG03,MD,20260217-112817,1.0.2,20251105-084826,763,Experiment,Both,1,Automatic,main,72,20260217-113436,global,local,300,H,H,E,A,H-E.png,A-H.png,hH,hH,mask-2.png,mask-1.png,h,1,0.5238809008151293,h,1,0.09174429997801781,0.04754969943314791,0.046688999980688095,0.09954389929771423,0.0997705003246665,0.3002494992688298
RSVPLG03,MD,20260217-112817,1.0.2,20251105-084826,763,Experiment,Both,1,Automatic,main,73,20260217-113440,local,global,750,S,H,E,E,E-S.png,H-E.png,sS,hH,mask-3.png,mask-1.png,s,1,0.5347299007698894,s,0,0.08747339993715286,0.047564199194312096,0.04817690048366785,0.09860959928482771,0.09935760032385588,0.7496772995218635
RSVPLG03,MD,20260217-112817,1.0.2,20251105-084826,763,Experiment,Both,1,Automatic,main,74,20260217-113445,local,global,300,S,S,E,E,E-S.png,S-E.png,sS,sS,mask-1.png,mask-4.png,s,1,0.4748306004330516,h,0,0.06140210013836622,0.04683720041066408,0.048085300251841545,0.10004700068384409,0.10039049945771694,0.29916200041770935
RSVPLG03,MD,20260217-112817,1.0.2,20251105-084826,763,Experiment,Both,1,Automatic,main,75,20260217-113449,local,local,300,S,H,A,A,A-S.png,A-H.png,sS,hH,mask-4.png,mask-3.png,s,1,0.349902699701488,h,1,0.4941315995529294,0.04855930060148239,0.047008500434458256,0.09888980071991682,0.09935880079865456,0.30026370007544756
RSVPLG03,MD,20260217-112817,1.0.2,20251105-084826,763,Experiment,Both,1,Automatic,main,76,20260217-113507,local,global,300,S,S,E,E,E-S.png,S-E.png,sS,sS,mask-2.png,mask-4.png,h,0,1.0056103002279997,h,0,0.07674849964678288,0.04746719915419817,0.048039100132882595,0.10038699954748154,0.10132019966840744,0.300025999546051
RSVPLG03,MD,20260217-112817,1.0.2,20251105-084826,763,Experiment,Both,1,Automatic,main,77,20260217-113512,local,global,300,H,S,E,E,E-H.png,S-E.png,hH,sS,mask-1.png,mask-4.png,h,1,0.38243289943784475,h,0,0.07759059965610504,0.04769269935786724,0.04688189923763275,0.10086999926716089,0.10102819930762053,0.30068839993327856
RSVPLG03,MD,20260217-112817,1.0.2,20251105-084826,763,Experiment,Both,1,Automatic,main,78,20260217-113516,local,global,300,S,H,E,E,E-S.png,H-E.png,sS,hH,mask-3.png,mask-1.png,s,1,0.4320320002734661,s,0,0.05710870027542114,0.047147699631750584,0.04720700066536665,0.10128629952669144,0.10051070060580969,0.3002112992107868
RSVPLG03,MD,20260217-112817,1.0.2,20251105-084826,763,Experiment,Both,1,Automatic,main,79,20260217-113520,global,global,300,H,S,E,E,H-E.png,S-E.png,hH,sS,mask-2.png,mask-2.png,h,1,0.5633306996896863,h,0,0.07645739987492561,0.04655889980494976,0.04828459955751896,0.0994164003059268,0.09939949959516525,0.2997518004849553
RSVPLG03,MD,20260217-112817,1.0.2,20251105-084826,763,Experiment,Both,1,Automatic,main,80,20260217-113524,local,global,750,H,H,E,A,E-H.png,H-A.png,hH,hH,mask-1.png,mask-3.png,h,1,0.626565900631249,s,0,0.09328819997608662,0.047549900598824024,0.04769640043377876,0.09955069981515408,0.10069880075752735,0.749788099899888
RSVPLG03,MD,20260217-112817,1.0.2,20251105-084826,763,Experiment,Both,1,Automatic,main,81,20260217-113529,local,local,300,H,H,E,A,E-H.png,A-H.png,hH,hH,mask-1.png,mask-1.png,h,1,0.492786199785769,h,1,0.07279230002313852,0.046265799552202225,0.04710930027067661,0.10008039977401495,0.1010469002649188,0.29895859956741333
RSVPLG03,MD,20260217-112817,1.0.2,20251105-084826,763,Experiment,Both,1,Automatic,main,82,20260217-113533,global,global,750,S,S,E,A,S-E.png,S-A.png,sS,sS,mask-4.png,mask-1.png,s,1,0.43991159927099943,s,1,0.30056940019130707,0.04696630034595728,0.04719720035791397,0.09983240067958832,0.10050510056316853,0.7498246002942324
RSVPLG03,MD,20260217-112817,1.0.2,20251105-084826,763,Experiment,Both,1,Automatic,main,83,20260217-113538,global,local,300,H,S,E,A,H-E.png,A-S.png,hH,sS,mask-4.png,mask-4.png,h,1,0.8313918998464942,h,0,0.0921440003439784,0.0470118997618556,0.047677599824965,0.09875159990042448,0.10183990001678467,0.2990584997460246
RSVPLG03,MD,20260217-112817,1.0.2,20251105-084826,763,Experiment,Both,1,Automatic,main,84,20260217-113543,local,global,300,S,S,E,A,E-S.png,S-A.png,sS,sS,mask-2.png,mask-2.png,s,1,0.46653599943965673,s,1,0.07480479963123798,0.048128100112080574,0.047417799942195415,0.09956150036305189,0.09928890038281679,0.3000560002401471
RSVPLG03,MD,20260217-112817,1.0.2,20251105-084826,763,Experiment,Both,1,Automatic,main,85,20260217-113547,global,local,300,S,S,E,E,S-E.png,E-S.png,sS,sS,mask-1.png,mask-3.png,s,1,0.3312059994786978,s,1,0.08886990044265985,0.04693019948899746,0.04832429997622967,0.0985276997089386,0.10182039998471737,0.29819069989025593
RSVPLG03,MD,20260217-112817,1.0.2,20251105-084826,763,Experiment,Both,1,Automatic,main,86,20260217-113551,global,global,750,H,H,A,E,H-A.png,H-E.png,hH,hH,mask-2.png,mask-4.png,h,1,0.35077929962426424,h,1,0.06885499972850084,0.047736999578773975,0.04689269978553057,0.09999999962747097,0.10028799995779991,0.7506058998405933
RSVPLG03,MD,20260217-112817,1.0.2,20251105-084826,763,Experiment,Both,1,Automatic,main,87,20260217-113556,local,global,750,S,S,E,A,E-S.png,S-A.png,sS,sS,mask-1.png,mask-4.png,h,0,0.6812203004956245,h,0,0.0528713995590806,0.04574120044708252,0.04652730002999306,0.09908370021730661,0.09811019990593195,0.7500301999971271
RSVPLG03,MD,20260217-112817,1.0.2,20251105-084826,763,Experiment,Both,1,Automatic,main,88,20260217-113600,global,local,300,S,H,A,E,S-A.png,E-H.png,sS,hH,mask-3.png,mask-2.png,s,1,0.4253968996927142,s,0,0.17100840061903,0.04644659999758005,0.04727349989116192,0.10010530054569244,0.10008899960666895,0.3002612004056573
RSVPLG03,MD,20260217-112817,1.0.2,20251105-084826,763,Experiment,Both,1,Automatic,main,89,20260217-113605,local,global,300,S,H,E,E,E-S.png,H-E.png,sS,hH,mask-2.png,mask-2.png,s,1,0.44445930048823357,s,0,0.054281000047922134,0.04769609961658716,0.04769410006701946,0.10130930040031672,0.09991800040006638,0.3015184998512268
RSVPLG03,MD,20260217-112817,1.0.2,20251105-084826,763,Experiment,Both,1,Automatic,main,90,20260217-113609,local,local,300,H,H,E,A,E-H.png,A-H.png,hH,hH,mask-4.png,mask-1.png,h,1,0.3486773995682597,h,1,0.06882719974964857,0.048511600121855736,0.04664609953761101,0.10001740045845509,0.10068080015480518,0.3007045006379485
RSVPLG03,MD,20260217-112817,1.0.2,20251105-084826,763,Experiment,Both,1,Automatic,main,91,20260217-113613,local,local,750,S,S,A,E,A-S.png,E-S.png,sS,sS,mask-4.png,mask-4.png,h,0,0.5026597995311022,h,0,0.07266089972108603,0.047781200148165226,0.045961800031363964,0.1008956003934145,0.09742369968444109,0.7516039004549384
RSVPLG03,MD,20260217-112817,1.0.2,20251105-084826,763,Experiment,Both,1,Automatic,main,92,20260217-113617,local,global,300,S,S,E,E,E-S.png,S-E.png,sS,sS,mask-3.png,mask-4.png,s,1,0.3882699999958277,h,0,0.016679500229656696,0.04685209970921278,0.0480531994253397,0.09936759993433952,0.09946119971573353,0.29999940004199743
RSVPLG03,MD,20260217-112817,1.0.2,20251105-084826,763,Experiment,Both,1,Automatic,main,93,20260217-113621,local,global,750,S,H,E,E,E-S.png,H-E.png,sS,hH,mask-2.png,mask-2.png,s,1,0.7170708999037743,h,1,0.0006312001496553421,0.0488179000094533,0.046437500044703484,0.10119950026273727,0.09907910041511059,0.7505401000380516
RSVPLG03,MD,20260217-112817,1.0.2,20251105-084826,763,Experiment,Both,1,Automatic,main,94,20260217-113626,local,local,750,S,S,E,A,E-S.png,A-S.png,sS,sS,mask-1.png,mask-1.png,h,0,1.6006682999432087,h,0,0.30051069986075163,0.04713759943842888,0.0476366002112627,0.0997206000611186,0.10178240016102791,0.7490999000146985
RSVPLG03,MD,20260217-112817,1.0.2,20251105-084826,763,Experiment,Both,1,Automatic,main,95,20260217-113632,local,global,750,H,S,E,E,E-H.png,S-E.png,hH,sS,mask-1.png,mask-4.png,s,0,0.27932520024478436,h,0,0.0012807007879018784,0.04769799951463938,0.04766739998012781,0.09974069986492395,0.09990650042891502,0.7498589996248484
RSVPLG03,MD,20260217-112817,1.0.2,20251105-084826,763,Experiment,Both,1,Automatic,main,96,20260217-113637,global,local,750,H,S,A,A,H-A.png,A-S.png,hH,sS,mask-3.png,mask-3.png,h,1,0.4310527006164193,h,0,0.09651790000498295,0.04855700023472309,0.04798879940062761,0.10087560024112463,0.09997150022536516,0.7505125002935529
RSVPLG03,MD,20260217-112817,1.0.2,20251105-084826,763,Experiment,Both,1,Automatic,main,97,20260217-113641,local,global,300,H,H,A,E,A-H.png,H-E.png,hH,hH,mask-3.png,mask-4.png,h,1,0.615408199839294,h,1,0.3840370997786522,0.04588309954851866,0.048687499947845936,0.10018379986286163,0.0998820997774601,0.298688099719584
RSVPLG03,MD,20260217-112817,1.0.2,20251105-084826,763,Experiment,Both,1,Automatic,main,98,20260217-113646,global,local,750,S,S,E,E,S-E.png,E-S.png,sS,sS,mask-3.png,mask-1.png,s,1,0.18766500055789948,h,0,0.0066801998764276505,0.04604810010641813,0.04725549928843975,0.09902480058372021,0.09862289950251579,0.7504483005031943
RSVPLG03,MD,20260217-112817,1.0.2,20251105-084826,763,Experiment,Both,1,Automatic,main,99,20260217-113650,global,local,300,S,H,E,E,S-E.png,E-H.png,sS,hH,mask-4.png,mask-1.png,s,1,0.6247252998873591,s,0,0.0889251995831728,0.04608260001987219,0.04770480003207922,0.0993126006796956,0.10133420024067163,0.29921810049563646
RSVPLG03,MD,20260217-112817,1.0.2,20251105-084826,763,Experiment,Both,1,Automatic,main,100,20260217-113655,global,local,750,S,S,E,E,S-E.png,E-S.png,sS,sS,mask-4.png,mask-3.png,s,1,0.04038359969854355,s,1,0.07998109981417656,0.046612500213086605,0.0486755995079875,0.09924919996410608,0.10053769964724779,0.7495384002104402
