exp,exp_initials,runtime,ver,modtime,sub,blocktype,targets,cuetype,mode,trialtype,trial,trialtime,t1_level,t2_level,t2_lag,t1,t2,distractor1,distractor2,stimfile1,stimfile2,t1_corr,t2_corr,maskfile1,maskfile2,t1_resp,t1_acc,t1_rt,t2_resp,t2_acc,t2_rt,t1_dur,t2_dur,t1mask_soa,t2mask_soa,t1t2_soa
RSVPLG03,km,20251202-121536,1.0.2,20251202-094321,756,Introduction,T1,1,Automatic,main,1,20251202-121602,global,local,750,S,H,E,E,S-E.png,E-H.png,sS,hH,mask-3.png,mask-1.png,s,1,2.506750199943781,none,-5,0,0.09135939995758235,0.09901989996433258,0.19079449982382357,0.19918849994428456,0.7414659999776632
RSVPLG03,km,20251202-121536,1.0.2,20251202-094321,756,Introduction,T1,1,Automatic,main,2,20251202-121609,global,global,750,H,S,A,E,H-A.png,S-E.png,hH,sS,mask-1.png,mask-1.png,h,1,1.1503210999071598,none,-5,0,0.10087890014983714,0.09995179995894432,0.2008818001486361,0.19996979995630682,0.7494356001261622
RSVPLG03,km,20251202-121536,1.0.2,20251202-094321,756,Introduction,T1,1,Automatic,main,3,20251202-121615,local,local,750,S,S,E,A,E-S.png,A-S.png,sS,sS,mask-4.png,mask-3.png,s,1,0.7820084001868963,none,-5,0,0.09958810009993613,0.10069740004837513,0.19938419992104173,0.1997052999213338,0.7495166000444442
RSVPLG03,km,20251202-121536,1.0.2,20251202-094321,756,Introduction,T1,1,Automatic,main,4,20251202-121620,local,local,750,H,S,E,E,E-H.png,E-S.png,hH,sS,mask-1.png,mask-2.png,s,0,1.865044599864632,none,-5,0,0.09946429985575378,0.10067670000717044,0.19890129985287786,0.20095919980667531,0.7487510000355542
RSVPLG03,km,20251202-121536,1.0.2,20251202-094321,756,Introduction,T1,1,Automatic,main,5,20251202-121626,local,local,750,H,S,E,E,E-H.png,E-S.png,hH,sS,mask-3.png,mask-2.png,s,0,1.0186358001083136,none,-5,0,0.09988100011833012,0.09889080002903938,0.19923659996129572,0.19984030001796782,0.7495814999565482
RSVPLG03,km,20251202-121536,1.0.2,20251202-094321,756,Introduction,T1,1,Automatic,main,6,20251202-121631,local,local,750,H,S,A,E,A-H.png,E-S.png,hH,sS,mask-3.png,mask-3.png,h,1,1.3586728998925537,none,-5,0,0.09994430001825094,0.09862859989516437,0.19844069983810186,0.19921099999919534,0.7490292999427766
RSVPLG03,km,20251202-121536,1.0.2,20251202-094321,756,Introduction,T1,1,Automatic,main,7,20251202-121637,local,global,750,H,S,A,A,A-H.png,S-A.png,hH,sS,mask-4.png,mask-2.png,h,1,2.469909399980679,none,-5,0,0.09960040007717907,0.10066960006952286,0.2003911999054253,0.1994252000004053,0.7497989998664707
RSVPLG03,km,20251202-121536,1.0.2,20251202-094321,756,Introduction,T1,1,Automatic,main,8,20251202-121643,global,local,750,H,H,E,A,H-E.png,A-H.png,hH,hH,mask-3.png,mask-1.png,s,0,0.6401606001891196,none,-5,0,0.1014181999489665,0.10058840014971793,0.2014737999998033,0.20030590007081628,0.7503543999046087
RSVPLG03,km,20251202-121536,1.0.2,20251202-094321,756,Introduction,T1,1,Automatic,main,9,20251202-121648,global,global,750,S,H,E,E,S-E.png,H-E.png,sS,hH,mask-4.png,mask-1.png,h,0,1.9403796999249607,none,-5,0,0.09877639985643327,0.09940050006844103,0.1979684999678284,0.20006940001621842,0.7481829999014735
RSVPLG03,km,20251202-121536,1.0.2,20251202-094321,756,Introduction,T1,1,Automatic,main,10,20251202-121654,global,global,750,S,H,A,A,S-A.png,H-A.png,sS,hH,mask-1.png,mask-2.png,s,1,3.83665020018816,none,-5,0,0.10018930002115667,0.09859009995125234,0.20068360003642738,0.19857390015386045,0.7507722000591457
RSVPLG03,km,20251202-121536,1.0.2,20251202-094321,756,Introduction,T1,1,Automatic,main,11,20251202-121702,global,local,750,H,H,A,E,H-A.png,E-H.png,hH,hH,mask-2.png,mask-2.png,s,0,0.7856652000918984,none,-5,0,0.1009504001121968,0.09887020010501146,0.20007730019278824,0.19960619998164475,0.7503748000599444
RSVPLG03,km,20251202-121536,1.0.2,20251202-094321,756,Introduction,T1,1,Automatic,main,12,20251202-121707,local,global,750,S,S,A,E,A-S.png,S-E.png,sS,sS,mask-1.png,mask-1.png,h,0,0.7387536000460386,none,-5,0,0.10094270016998053,0.09998499997891486,0.20094010001048446,0.19937529996968806,0.7495473001617938
RSVPLG03,km,20251202-121536,1.0.2,20251202-094321,756,Introduction,T1,1,Automatic,main,13,20251202-121712,global,global,750,H,H,E,E,H-E.png,H-E.png,hH,hH,mask-3.png,mask-1.png,h,1,2.7018488999456167,none,-5,0,0.10075460001826286,0.10097660007886589,0.20187820005230606,0.20139049994759262,0.7503806001041085
RSVPLG03,km,20251202-121536,1.0.2,20251202-094321,756,Introduction,T1,1,Automatic,main,14,20251202-121719,global,local,750,H,H,A,A,H-A.png,A-H.png,hH,hH,mask-3.png,mask-3.png,h,1,1.3194432999007404,none,-5,0,0.09882590011693537,0.09975030017085373,0.1993843000382185,0.2007578001357615,0.7488518999889493
RSVPLG03,km,20251202-121536,1.0.2,20251202-094321,756,Introduction,T1,1,Automatic,main,15,20251202-121725,local,global,750,S,H,E,A,E-S.png,H-A.png,sS,hH,mask-1.png,mask-2.png,none,-6,0,none,-5,0,0.09989049984142184,0.09982149978168309,0.1999171997886151,0.1994090999942273,0.7501385000068694
RSVPLG03,km,20251202-121736,1.0.2,20251202-094321,756,Practice,T1,1,Automatic,main,1,20251202-121751,local,local,300,S,S,A,A,A-S.png,A-S.png,sS,sS,mask-4.png,mask-2.png,h,0,1.296254700049758,none,-5,0,0.0402538999915123,0.04963280004449189,0.09079229994677007,0.10025670006871223,0.29131609993055463
RSVPLG03,km,20251202-121736,1.0.2,20251202-094321,756,Practice,T1,1,Automatic,main,2,20251202-121756,local,global,750,S,S,E,E,E-S.png,S-E.png,sS,sS,mask-1.png,mask-2.png,s,1,0.7513371000532061,none,-5,0,0.050258600153028965,0.04987660003826022,0.09998330008238554,0.09889120003208518,0.750270799966529
RSVPLG03,km,20251202-121736,1.0.2,20251202-094321,756,Practice,T1,1,Automatic,main,3,20251202-121801,local,global,300,H,H,E,E,E-H.png,H-E.png,hH,hH,mask-2.png,mask-4.png,h,1,1.2704155999235809,none,-5,0,0.05018129991367459,0.050919000059366226,0.10021660011261702,0.10171810002066195,0.2988998999353498
RSVPLG03,km,20251202-121736,1.0.2,20251202-094321,756,Practice,T1,1,Automatic,main,4,20251202-121806,local,local,300,S,H,E,A,E-S.png,A-H.png,sS,hH,mask-3.png,mask-3.png,h,0,0.5565472000744194,none,-5,0,0.05016590002924204,0.05066619999706745,0.1011216000188142,0.09869910008274019,0.3002373999916017
RSVPLG03,km,20251202-121736,1.0.2,20251202-094321,756,Practice,T1,1,Automatic,main,5,20251202-121810,global,global,750,S,S,A,A,S-A.png,S-A.png,sS,sS,mask-2.png,mask-2.png,s,1,0.5438401000574231,none,-5,0,0.05115909990854561,0.05016050022095442,0.09932169993408024,0.10103590018115938,0.7503382998984307
RSVPLG03,km,20251202-121736,1.0.2,20251202-094321,756,Practice,T1,1,Automatic,main,6,20251202-121815,global,local,750,S,H,E,A,S-E.png,A-H.png,sS,hH,mask-3.png,mask-1.png,s,1,0.5481102999765426,none,-5,0,0.04989609983749688,0.049319100100547075,0.10094909998588264,0.1002704999409616,0.7500956999137998
RSVPLG03,km,20251202-121736,1.0.2,20251202-094321,756,Practice,T1,1,Automatic,main,7,20251202-121819,global,global,300,S,H,E,A,S-E.png,H-A.png,sS,hH,mask-4.png,mask-1.png,s,1,0.49726890004239976,none,-5,0,0.04986319993622601,0.04979300010018051,0.10044039995409548,0.09975460008718073,0.30150269996374846
RSVPLG03,km,20251202-121736,1.0.2,20251202-094321,756,Practice,T1,1,Automatic,main,8,20251202-121823,local,local,750,H,H,E,A,E-H.png,A-H.png,hH,hH,mask-3.png,mask-1.png,s,0,0.03104229993186891,none,-5,0,0.05086520011536777,0.04897710005752742,0.09959950018674135,0.09902369999326766,0.7509989000391215
RSVPLG03,km,20251202-121736,1.0.2,20251202-094321,756,Practice,T1,1,Automatic,main,9,20251202-121828,global,global,300,S,S,E,A,S-E.png,S-A.png,sS,sS,mask-3.png,mask-4.png,s,1,0.44918090011924505,none,-5,0,0.04891050001606345,0.04896829999051988,0.0985887001734227,0.09990260004997253,0.3003446999937296
RSVPLG03,km,20251202-121736,1.0.2,20251202-094321,756,Practice,T1,1,Automatic,main,10,20251202-121832,global,local,300,S,S,A,E,S-A.png,E-S.png,sS,sS,mask-1.png,mask-3.png,s,1,0.5977425000164658,none,-5,0,0.04944299999624491,0.050742699997499585,0.09904779982753098,0.10127709992229939,0.29954069992527366
RSVPLG03,km,20251202-121736,1.0.2,20251202-094321,756,Practice,T1,1,Automatic,main,11,20251202-121836,local,global,750,H,H,E,A,E-H.png,H-A.png,hH,hH,mask-2.png,mask-2.png,s,0,0.7463851000647992,none,-5,0,0.050000700168311596,0.049891100032255054,0.09990950021892786,0.09942310000769794,0.7506348001770675
RSVPLG03,km,20251202-121736,1.0.2,20251202-094321,756,Practice,T1,1,Automatic,main,12,20251202-121841,global,local,300,H,S,E,A,H-E.png,A-S.png,hH,sS,mask-1.png,mask-4.png,h,1,0.7303125998005271,none,-5,0,0.04792359983548522,0.04949750006198883,0.09996629995293915,0.09949799999594688,0.30006839986890554
RSVPLG03,km,20251202-121736,1.0.2,20251202-094321,756,Practice,T1,1,Automatic,main,13,20251202-121845,global,local,750,H,S,A,E,H-A.png,E-S.png,hH,sS,mask-2.png,mask-4.png,h,1,0.2739812000654638,none,-5,0,0.05031730001792312,0.048668900039047,0.10131529998034239,0.09874169994145632,0.752038300037384
RSVPLG03,km,20251202-121736,1.0.2,20251202-094321,756,Practice,T1,1,Automatic,main,14,20251202-121849,local,local,750,H,S,A,E,A-H.png,E-S.png,hH,sS,mask-2.png,mask-2.png,h,1,0.28396239993162453,none,-5,0,0.0496395998634398,0.050508099840953946,0.10067950002849102,0.1001255998853594,0.7498570000752807
RSVPLG03,km,20251202-121736,1.0.2,20251202-094321,756,Practice,T1,1,Automatic,main,15,20251202-121854,global,global,750,S,H,A,A,S-A.png,H-A.png,sS,hH,mask-2.png,mask-4.png,s,1,0.10660959989763796,none,-5,0,0.04895530012436211,0.04921570001170039,0.09856180008500814,0.10080869984813035,0.748868300113827
RSVPLG03,km,20251202-121736,1.0.2,20251202-094321,756,Practice,T1,1,Automatic,main,16,20251202-121858,local,global,300,H,H,E,E,E-H.png,H-E.png,hH,hH,mask-3.png,mask-3.png,s,0,0.6358716001268476,none,-5,0,0.04922010004520416,0.05054850014857948,0.09798699989914894,0.09905280009843409,0.29858239996246994
RSVPLG03,km,20251202-121938,1.0.2,20251202-094321,756,Practice,T1,1,Automatic,main,1,20251202-121952,global,local,750,S,S,E,E,S-E.png,E-S.png,sS,sS,mask-3.png,mask-3.png,s,1,0.4307762000244111,none,-5,0,0.039290300104767084,0.0491990998852998,0.08905629999935627,0.10032849991694093,0.7401384001132101
RSVPLG03,km,20251202-121938,1.0.2,20251202-094321,756,Practice,T1,1,Automatic,main,2,20251202-121956,global,global,750,H,S,A,A,H-A.png,S-A.png,hH,sS,mask-2.png,mask-1.png,h,1,0.5010887000244111,none,-5,0,0.04956489987671375,0.04990969994105399,0.10028859996236861,0.09986139996908605,0.7503100999165326
RSVPLG03,km,20251202-121938,1.0.2,20251202-094321,756,Practice,T1,1,Automatic,main,3,20251202-122001,local,global,300,S,S,E,A,E-S.png,S-A.png,sS,sS,mask-1.png,mask-4.png,s,1,0.31474469997920096,none,-5,0,0.04932130011729896,0.05111260013654828,0.09942570002749562,0.10080560017377138,0.29857699992135167
RSVPLG03,km,20251202-121938,1.0.2,20251202-094321,756,Practice,T1,1,Automatic,main,4,20251202-122005,local,local,300,S,S,A,E,A-S.png,E-S.png,sS,sS,mask-1.png,mask-2.png,s,1,0.7393575999885798,none,-5,0,0.04935449990443885,0.05021389992907643,0.0994341999758035,0.1002283999696374,0.2996948999352753
RSVPLG03,km,20251202-121938,1.0.2,20251202-094321,756,Practice,T1,1,Automatic,main,5,20251202-122009,local,global,300,H,S,A,A,A-H.png,S-A.png,hH,sS,mask-3.png,mask-4.png,h,1,0.4104183001909405,none,-5,0,0.05047989985905588,0.04992899997159839,0.1010642999317497,0.0994563999120146,0.30110909999348223
RSVPLG03,km,20251202-121938,1.0.2,20251202-094321,756,Practice,T1,1,Automatic,main,6,20251202-122013,local,local,750,H,H,E,A,E-H.png,A-H.png,hH,hH,mask-3.png,mask-1.png,s,0,0.5698961999733001,none,-5,0,0.04977960023097694,0.04977579996921122,0.10177320009097457,0.10002029989846051,0.7519249001052231
RSVPLG03,km,20251202-121938,1.0.2,20251202-094321,756,Practice,T1,1,Automatic,main,7,20251202-122018,global,global,750,H,H,A,A,H-A.png,H-A.png,hH,hH,mask-3.png,mask-3.png,h,1,0.36295150010846555,none,-5,0,0.04987669992260635,0.05064160004258156,0.10006879991851747,0.09984000003896654,0.7504853999707848
RSVPLG03,km,20251202-121938,1.0.2,20251202-094321,756,Practice,T1,1,Automatic,main,8,20251202-122022,local,local,750,S,S,E,A,E-S.png,A-S.png,sS,sS,mask-3.png,mask-1.png,s,1,0.2882689000107348,none,-5,0,0.05001870007254183,0.050597599940374494,0.09898549993522465,0.1002428000792861,0.7488184999674559
RSVPLG03,km,20251202-121938,1.0.2,20251202-094321,756,Practice,T1,1,Automatic,main,9,20251202-122027,local,global,750,H,H,E,E,E-H.png,H-E.png,hH,hH,mask-2.png,mask-4.png,h,1,0.1695011998526752,none,-5,0,0.05021280003711581,0.050217000069096684,0.10017059999518096,0.10060090012848377,0.7497892000246793
RSVPLG03,km,20251202-121938,1.0.2,20251202-094321,756,Practice,T1,1,Automatic,main,10,20251202-122031,local,local,300,S,S,A,E,A-S.png,E-S.png,sS,sS,mask-4.png,mask-2.png,s,1,0.39172429987229407,none,-5,0,0.051000399980694056,0.04935240000486374,0.09999830019660294,0.1008923000190407,0.30093190004117787
RSVPLG03,km,20251202-121938,1.0.2,20251202-094321,756,Practice,T1,1,Automatic,main,11,20251202-122035,global,global,300,S,S,E,E,S-E.png,S-E.png,sS,sS,mask-2.png,mask-3.png,s,1,0.35683310008607805,none,-5,0,0.05042449990287423,0.050754299852997065,0.10124749992974102,0.10060809995047748,0.30066660000011325
RSVPLG03,km,20251202-121938,1.0.2,20251202-094321,756,Practice,T1,1,Automatic,main,12,20251202-122039,global,local,300,S,H,A,A,S-A.png,A-H.png,sS,hH,mask-2.png,mask-4.png,s,1,0.747743499930948,none,-5,0,0.05008720001205802,0.05124419997446239,0.10073660011403263,0.10026940004900098,0.299357800045982
RSVPLG03,km,20251202-121938,1.0.2,20251202-094321,756,Practice,T1,1,Automatic,main,13,20251202-122043,global,global,300,S,S,E,E,S-E.png,S-E.png,sS,sS,mask-1.png,mask-4.png,s,1,0.27345199999399483,none,-5,0,0.04984170012176037,0.049859900027513504,0.1010124001186341,0.09995219996199012,0.3002404000144452
RSVPLG03,km,20251202-121938,1.0.2,20251202-094321,756,Practice,T1,1,Automatic,main,14,20251202-122047,global,local,750,H,S,E,A,H-E.png,A-S.png,hH,sS,mask-3.png,mask-3.png,h,1,0.27023199992254376,none,-5,0,0.04988730000331998,0.05077459989115596,0.09918290004134178,0.10059509985148907,0.7497472001705319
RSVPLG03,km,20251202-121938,1.0.2,20251202-094321,756,Practice,T1,1,Automatic,main,15,20251202-122052,global,local,300,H,H,A,A,H-A.png,A-H.png,hH,hH,mask-3.png,mask-3.png,s,0,0.7226346000097692,none,-5,0,0.04885879997164011,0.049857200123369694,0.0988146997988224,0.10200730012729764,0.29906429979018867
RSVPLG03,km,20251202-121938,1.0.2,20251202-094321,756,Practice,T1,1,Automatic,main,16,20251202-122056,local,global,750,H,S,E,A,E-H.png,S-A.png,hH,sS,mask-2.png,mask-1.png,h,1,0.2025377000682056,none,-5,0,0.050920199835672975,0.05034659989178181,0.10052449977956712,0.1001066998578608,0.7503969999961555
RSVPLG03,km,20251202-122136,1.0.2,20251202-094321,756,Introduction,Both,1,Automatic,main,1,20251202-122156,global,local,750,S,S,E,A,S-E.png,A-S.png,sS,sS,mask-2.png,mask-3.png,s,1,1.088800000026822,h,0,2.073178900172934,0.09568560007028282,0.09937820001505315,0.19738769996911287,0.19924949994310737,0.746139100054279
RSVPLG03,km,20251202-122136,1.0.2,20251202-094321,756,Introduction,Both,1,Automatic,main,2,20251202-122203,global,global,750,S,S,A,A,S-A.png,S-A.png,sS,sS,mask-3.png,mask-3.png,s,1,0.7488224999979138,s,1,0.7062129999976605,0.10104390000924468,0.09785049990750849,0.20019010012038052,0.19826259999535978,0.7510051000863314
RSVPLG03,km,20251202-122136,1.0.2,20251202-094321,756,Introduction,Both,1,Automatic,main,3,20251202-122209,local,global,750,H,H,A,E,A-H.png,H-E.png,hH,hH,mask-2.png,mask-1.png,h,1,0.4116960000246763,h,1,0.22833169996738434,0.10021859989501536,0.09937989991158247,0.20117969997227192,0.19977509998716414,0.750408099964261
RSVPLG03,km,20251202-122136,1.0.2,20251202-094321,756,Introduction,Both,1,Automatic,main,4,20251202-122214,local,local,750,H,S,E,E,E-H.png,E-S.png,hH,sS,mask-4.png,mask-2.png,h,1,0.634240800049156,s,1,0.026604500133544207,0.09986499999649823,0.09982950007542968,0.19782240013591945,0.20055079995654523,0.7476437001023442
RSVPLG03,km,20251202-122136,1.0.2,20251202-094321,756,Introduction,Both,1,Automatic,main,5,20251202-122219,local,local,750,H,H,E,A,E-H.png,A-H.png,hH,hH,mask-1.png,mask-2.png,h,1,1.437516000121832,h,1,0.2366949999704957,0.10007739998400211,0.09976740018464625,0.19938019989058375,0.20062090014107525,0.7495737997815013
RSVPLG03,km,20251202-122136,1.0.2,20251202-094321,756,Introduction,Both,1,Automatic,main,6,20251202-122225,local,global,750,H,H,A,A,A-H.png,H-A.png,hH,hH,mask-3.png,mask-4.png,h,1,0.4507257000077516,h,1,0.13610869995318353,0.09812380000948906,0.10003680014051497,0.19821870001032948,0.19886670005507767,0.7483096998184919
RSVPLG03,km,20251202-122136,1.0.2,20251202-094321,756,Introduction,Both,1,Automatic,main,7,20251202-122230,local,global,750,S,S,E,A,E-S.png,S-A.png,sS,sS,mask-3.png,mask-2.png,s,1,0.3396622999571264,s,1,0.11422999994829297,0.0987676999066025,0.09985119989141822,0.19873119983822107,0.19829380000010133,0.7499736999161541
RSVPLG03,km,20251202-122136,1.0.2,20251202-094321,756,Introduction,Both,1,Automatic,main,8,20251202-122235,global,global,750,H,H,A,A,H-A.png,H-A.png,hH,hH,mask-1.png,mask-4.png,h,1,0.21411790000274777,h,1,0.10742849996313453,0.09985370002686977,0.0998834001366049,0.20009649987332523,0.19899599999189377,0.7509834999218583
RSVPLG03,km,20251202-122136,1.0.2,20251202-094321,756,Introduction,Both,1,Automatic,main,9,20251202-122240,global,local,750,S,H,E,E,S-E.png,E-H.png,sS,hH,mask-2.png,mask-3.png,s,1,0.39321059989742935,h,1,0.09873840003274381,0.09907039999961853,0.09950360003858805,0.1976761999540031,0.2010294001083821,0.7478817999362946
RSVPLG03,km,20251202-122136,1.0.2,20251202-094321,756,Introduction,Both,1,Automatic,main,10,20251202-122244,global,global,750,S,S,E,E,S-E.png,S-E.png,sS,sS,mask-1.png,mask-3.png,none,-6,0,none,-6,0,0.1005349000915885,0.09869489981792867,0.20033200015313923,0.1978475998621434,0.7505046001169831
RSVPLG03,km,20251202-122302,1.0.2,20251202-094321,756,Practice,Both,1,Automatic,main,1,20251202-122333,global,local,750,S,S,E,E,S-E.png,E-S.png,sS,sS,mask-2.png,mask-3.png,s,1,0.5873851000797004,s,1,0.09076069993898273,0.040257500018924475,0.0494832000695169,0.09095410001464188,0.0997444000095129,0.739339099964127
RSVPLG03,km,20251202-122302,1.0.2,20251202-094321,756,Practice,Both,1,Automatic,main,2,20251202-122338,local,global,750,S,S,A,E,A-S.png,S-E.png,sS,sS,mask-4.png,mask-3.png,s,1,0.2862817000132054,s,1,0.08002320001833141,0.0499030000064522,0.04988219984807074,0.09995219996199012,0.10087219998240471,0.7476935000158846
RSVPLG03,km,20251202-122302,1.0.2,20251202-094321,756,Practice,Both,1,Automatic,main,3,20251202-122342,global,local,300,H,S,E,E,H-E.png,E-S.png,hH,sS,mask-1.png,mask-2.png,h,1,1.0227149000857025,s,1,0.019748299848288298,0.04964699991978705,0.050913300132378936,0.10051809996366501,0.09991060011088848,0.2988459998741746
RSVPLG03,km,20251202-122302,1.0.2,20251202-094321,756,Practice,Both,1,Automatic,main,4,20251202-122347,global,global,300,H,H,A,E,H-A.png,H-E.png,hH,hH,mask-1.png,mask-2.png,h,1,0.47202799981459975,h,1,0.08329229988157749,0.04931399994529784,0.04976240010000765,0.10023580002598464,0.09928740002214909,0.299719600006938
RSVPLG03,km,20251202-122302,1.0.2,20251202-094321,756,Practice,Both,1,Automatic,main,5,20251202-122351,global,global,300,S,H,E,E,S-E.png,H-E.png,sS,hH,mask-2.png,mask-1.png,s,1,0.7716731999535114,h,1,0.05607550009153783,0.04889299999922514,0.04815790010616183,0.09976260014809668,0.0981751000508666,0.29963060002774
RSVPLG03,km,20251202-122302,1.0.2,20251202-094321,756,Practice,Both,1,Automatic,main,6,20251202-122356,global,global,750,S,S,A,A,S-A.png,S-A.png,sS,sS,mask-3.png,mask-1.png,s,1,0.053094099974259734,s,1,0.16014640009962022,0.04978210013359785,0.050718999933451414,0.1004292001016438,0.10066449991427362,0.7488614001777023
RSVPLG03,km,20251202-122302,1.0.2,20251202-094321,756,Practice,Both,1,Automatic,main,7,20251202-122400,local,global,300,H,S,E,E,E-H.png,S-E.png,hH,sS,mask-1.png,mask-2.png,h,1,0.644077300094068,s,1,0.08252739999443293,0.051417699782177806,0.05074980016797781,0.10027999989688396,0.10062899999320507,0.2994801998138428
RSVPLG03,km,20251202-122302,1.0.2,20251202-094321,756,Practice,Both,1,Automatic,main,8,20251202-122405,local,global,300,S,H,A,E,A-S.png,H-E.png,sS,hH,mask-2.png,mask-2.png,s,1,0.5918332999572158,h,1,0.6877868000883609,0.0504674999974668,0.04940000013448298,0.09974379977211356,0.09871800011023879,0.3013964998535812
RSVPLG03,km,20251202-122302,1.0.2,20251202-094321,756,Practice,Both,1,Automatic,main,9,20251202-122409,global,local,750,H,H,E,E,H-E.png,E-H.png,hH,hH,mask-3.png,mask-1.png,h,1,0.5403617999982089,h,1,0.08849899983033538,0.049429599894210696,0.04943250003270805,0.09925059997476637,0.09941170015372336,0.7489590998739004
RSVPLG03,km,20251202-122302,1.0.2,20251202-094321,756,Practice,Both,1,Automatic,main,10,20251202-122414,global,local,300,H,S,A,E,H-A.png,E-S.png,hH,sS,mask-3.png,mask-1.png,h,1,0.4518358998466283,s,1,0.6340326000936329,0.048264099983498454,0.05003980011679232,0.0983743998222053,0.09917380008846521,0.2984890998341143
RSVPLG03,km,20251202-122302,1.0.2,20251202-094321,756,Practice,Both,1,Automatic,main,11,20251202-122419,local,local,300,H,H,A,E,A-H.png,E-H.png,hH,hH,mask-1.png,mask-2.png,h,1,0.6049754999112338,h,1,0.0996014999691397,0.049970599822700024,0.04991839989088476,0.09830159996636212,0.09889049991033971,0.29858259996399283
RSVPLG03,km,20251202-122302,1.0.2,20251202-094321,756,Practice,Both,1,Automatic,main,12,20251202-122423,local,local,750,H,S,A,A,A-H.png,A-S.png,hH,sS,mask-4.png,mask-4.png,h,1,0.2958682000171393,h,0,0.07163819996640086,0.049312499817460775,0.049772199941799045,0.09912010002881289,0.10108259995467961,0.7471280999016017
RSVPLG03,km,20251202-122302,1.0.2,20251202-094321,756,Practice,Both,1,Automatic,main,13,20251202-122428,global,global,750,S,H,E,E,S-E.png,H-E.png,sS,hH,mask-2.png,mask-1.png,s,1,0.6255389000289142,h,1,0.06586820003576577,0.04983620019629598,0.05002079997211695,0.09964450006373227,0.10001670010387897,0.7483155000954866
RSVPLG03,km,20251202-122302,1.0.2,20251202-094321,756,Practice,Both,1,Automatic,main,14,20251202-122433,local,global,750,S,H,A,E,A-S.png,H-E.png,sS,hH,mask-1.png,mask-2.png,h,0,0.46107059996575117,h,1,0.14826539997011423,0.048933800077065825,0.05021450016647577,0.10030779987573624,0.09937850013375282,0.7492191998753697
RSVPLG03,km,20251202-122302,1.0.2,20251202-094321,756,Practice,Both,1,Automatic,main,15,20251202-122437,local,local,300,H,S,A,A,A-H.png,A-S.png,hH,sS,mask-4.png,mask-2.png,h,1,0.7161224998999387,s,1,0.12955380021594465,0.048861300107091665,0.04917739983648062,0.09917260007932782,0.09940039995126426,0.2992031001485884
RSVPLG03,km,20251202-122302,1.0.2,20251202-094321,756,Practice,Both,1,Automatic,main,16,20251202-122442,local,local,750,H,S,E,A,E-H.png,A-S.png,hH,sS,mask-4.png,mask-3.png,s,0,1.8471455001272261,h,0,0.2246781000867486,0.04890049993991852,0.04946919996291399,0.09914489998482168,0.09848419995978475,0.7492716000415385
RSVPLG03,km,20251202-122526,1.0.2,20251202-094321,756,Experiment,Both,1,Automatic,warmup,1,20251202-122552,local,global,300,S,H,A,E,A-S.png,H-E.png,sS,hH,mask-4.png,mask-4.png,h,0,0.7337452999781817,s,0,0.8852473997976631,0.040026700124144554,0.05051049985922873,0.09048389992676675,0.10176220000721514,0.28991960012353957
RSVPLG03,km,20251202-122526,1.0.2,20251202-094321,756,Experiment,Both,1,Automatic,warmup,2,20251202-122556,global,local,300,S,H,A,A,S-A.png,A-H.png,sS,hH,mask-4.png,mask-3.png,s,1,0.6235175000037998,h,1,0.040882499888539314,0.04900739993900061,0.051352899987250566,0.09909449983388186,0.10095190000720322,0.29836719995364547
RSVPLG03,km,20251202-122526,1.0.2,20251202-094321,756,Experiment,Both,1,Automatic,warmup,3,20251202-122601,global,local,750,S,H,E,E,S-E.png,E-H.png,sS,hH,mask-4.png,mask-3.png,s,1,0.11611269996501505,s,0,0.28145070001482964,0.049947200110182166,0.04997050017118454,0.09989860001951456,0.10083620017394423,0.7490991000086069
RSVPLG03,km,20251202-122526,1.0.2,20251202-094321,756,Experiment,Both,1,Automatic,warmup,4,20251202-122605,local,local,750,S,S,E,E,E-S.png,E-S.png,sS,sS,mask-1.png,mask-4.png,h,0,0.05358349997550249,h,0,0.5542049999348819,0.05008989991620183,0.05173199996352196,0.09875259990803897,0.10160379996523261,0.7483735999558121
RSVPLG03,km,20251202-122526,1.0.2,20251202-094321,756,Experiment,Both,1,Automatic,main,5,20251202-122610,global,global,750,S,S,A,A,S-A.png,S-A.png,sS,sS,mask-1.png,mask-2.png,s,1,0.9031581999734044,s,1,0.16821249993517995,0.05106169986538589,0.04797900002449751,0.09985910006798804,0.09921870008111,0.7514022998511791
RSVPLG03,km,20251202-122526,1.0.2,20251202-094321,756,Experiment,Both,1,Automatic,main,6,20251202-122615,global,local,300,S,S,E,A,S-E.png,A-S.png,sS,sS,mask-3.png,mask-3.png,s,1,0.42239009984768927,h,0,0.042264899937435985,0.05035719997249544,0.049461100017651916,0.10089300014078617,0.10003910004161298,0.2997666001319885
RSVPLG03,km,20251202-122526,1.0.2,20251202-094321,756,Experiment,Both,1,Automatic,main,7,20251202-122620,local,global,300,H,H,E,E,E-H.png,H-E.png,hH,hH,mask-2.png,mask-4.png,s,0,0.8336864998564124,h,1,0.13777959998697042,0.04870429984293878,0.0496153999119997,0.09905089996755123,0.09789870004169643,0.30127719999291
RSVPLG03,km,20251202-122526,1.0.2,20251202-094321,756,Experiment,Both,1,Automatic,main,8,20251202-122624,global,global,300,S,S,E,A,S-E.png,S-A.png,sS,sS,mask-2.png,mask-3.png,s,1,0.464457199908793,h,0,0.03314909990876913,0.04984700004570186,0.04986360017210245,0.09987969999201596,0.10088290018029511,0.2985334999393672
RSVPLG03,km,20251202-122526,1.0.2,20251202-094321,756,Experiment,Both,1,Automatic,main,9,20251202-122629,global,global,300,S,H,E,A,S-E.png,H-A.png,sS,hH,mask-4.png,mask-2.png,s,1,0.4331064000725746,h,1,0.1898205999750644,0.04991799988783896,0.04903759993612766,0.10195299983024597,0.10064790002070367,0.30092319985851645
RSVPLG03,km,20251202-122526,1.0.2,20251202-094321,756,Experiment,Both,1,Automatic,main,10,20251202-122633,local,global,750,S,H,A,E,A-S.png,H-E.png,sS,hH,mask-3.png,mask-1.png,s,1,0.36068050004541874,s,0,0.20874420017935336,0.049167599994689226,0.05079100001603365,0.09945439989678562,0.10080090002156794,0.7487000999972224
RSVPLG03,km,20251202-122526,1.0.2,20251202-094321,756,Experiment,Both,1,Automatic,main,11,20251202-122638,global,global,750,S,H,E,E,S-E.png,H-E.png,sS,hH,mask-4.png,mask-3.png,s,1,0.876372299855575,s,0,0.24194930004887283,0.04937399993650615,0.04990780004300177,0.09933849982917309,0.09993069991469383,0.7509842999279499
RSVPLG03,km,20251202-122526,1.0.2,20251202-094321,756,Experiment,Both,1,Automatic,main,12,20251202-122643,local,local,750,S,H,E,E,E-S.png,E-H.png,sS,hH,mask-1.png,mask-4.png,h,0,0.5107168999966234,h,1,0.9853459999430925,0.0500475000590086,0.05121559998951852,0.09969189995899796,0.10029420000500977,0.7495188000611961
RSVPLG03,km,20251202-122526,1.0.2,20251202-094321,756,Experiment,Both,1,Automatic,main,13,20251202-122649,global,local,300,S,S,A,E,S-A.png,E-S.png,sS,sS,mask-4.png,mask-3.png,s,1,0.35497280000709,s,1,0.16819739993661642,0.04902279982343316,0.04986490006558597,0.09985219989903271,0.09888730011880398,0.29979909979738295
RSVPLG03,km,20251202-122526,1.0.2,20251202-094321,756,Experiment,Both,1,Automatic,main,14,20251202-122654,global,global,300,H,H,E,A,H-E.png,H-A.png,hH,hH,mask-3.png,mask-1.png,s,0,0.41963720018975437,h,1,0.029469899833202362,0.05200570006854832,0.05066129984334111,0.09993809997104108,0.09958149981684983,0.3006311000790447
RSVPLG03,km,20251202-122526,1.0.2,20251202-094321,756,Experiment,Both,1,Automatic,main,15,20251202-122658,global,local,300,H,H,E,E,H-E.png,E-H.png,hH,hH,mask-2.png,mask-3.png,h,1,3.8241898000705987,s,0,0.09955939999781549,0.05079689994454384,0.049625799991190434,0.09945129998959601,0.09853790001943707,0.3005927999038249
RSVPLG03,km,20251202-122526,1.0.2,20251202-094321,756,Experiment,Both,1,Automatic,main,16,20251202-122706,global,global,750,S,S,E,E,S-E.png,S-E.png,sS,sS,mask-3.png,mask-3.png,s,1,0.535370800178498,h,0,0.0684082000516355,0.05041239992715418,0.050846199970692396,0.10099960002116859,0.10075300000607967,0.7500297999940813
RSVPLG03,km,20251202-122526,1.0.2,20251202-094321,756,Experiment,Both,1,Automatic,main,17,20251202-122710,global,global,750,S,H,A,A,S-A.png,H-A.png,sS,hH,mask-2.png,mask-1.png,s,1,0.5579021999146789,s,0,0.6421259001363069,0.04815980000421405,0.050295600201934576,0.09957400010898709,0.10027450020425022,0.7493606000207365
RSVPLG03,km,20251202-122526,1.0.2,20251202-094321,756,Experiment,Both,1,Automatic,main,18,20251202-122716,global,local,750,H,H,E,E,H-E.png,E-H.png,hH,hH,mask-1.png,mask-1.png,h,1,0.7252419001888484,s,0,2.7251631000544876,0.04862809996120632,0.04991209995932877,0.10040020011365414,0.0999263001140207,0.7510023999493569
RSVPLG03,km,20251202-122526,1.0.2,20251202-094321,756,Experiment,Both,1,Automatic,main,19,20251202-122724,local,local,300,S,H,A,A,A-S.png,A-H.png,sS,hH,mask-3.png,mask-3.png,h,0,3.655092499917373,h,1,0.626266699982807,0.05003100004978478,0.050736800068989396,0.0997691999655217,0.10183880012482405,0.29865869996137917
RSVPLG03,km,20251202-122526,1.0.2,20251202-094321,756,Experiment,Both,1,Automatic,main,20,20251202-122732,local,local,750,S,H,E,A,E-S.png,A-H.png,sS,hH,mask-1.png,mask-3.png,s,1,1.9490884998813272,h,1,0.5061343000270426,0.04959619999863207,0.0516117000952363,0.09853330021724105,0.10168369999155402,0.7488172000739723
RSVPLG03,km,20251202-122526,1.0.2,20251202-094321,756,Experiment,Both,1,Automatic,main,21,20251202-122738,local,local,750,H,S,E,E,E-H.png,E-S.png,hH,sS,mask-4.png,mask-2.png,h,1,0.6631541999522597,s,1,0.284837800078094,0.049820000072941184,0.0489656999707222,0.10024429997429252,0.09965500002726912,0.7512831999920309
RSVPLG03,km,20251202-122526,1.0.2,20251202-094321,756,Experiment,Both,1,Automatic,main,22,20251202-122743,global,global,300,H,S,A,E,H-A.png,S-E.png,hH,sS,mask-1.png,mask-3.png,h,1,0.5495519998949021,s,1,0.05680170003324747,0.04996400000527501,0.04992079990915954,0.10024019982665777,0.09995409986004233,0.29851530003361404
RSVPLG03,km,20251202-122526,1.0.2,20251202-094321,756,Experiment,Both,1,Automatic,main,23,20251202-122748,local,local,300,S,H,E,E,E-S.png,E-H.png,sS,hH,mask-3.png,mask-1.png,s,1,0.5125597999431193,h,1,0.1611585000064224,0.049515599850565195,0.04913369985297322,0.09892629995010793,0.09994690003804862,0.29941400000825524
RSVPLG03,km,20251202-122526,1.0.2,20251202-094321,756,Experiment,Both,1,Automatic,main,24,20251202-122752,local,local,300,H,S,A,E,A-H.png,E-S.png,hH,sS,mask-1.png,mask-4.png,h,1,0.45391629985533655,h,0,0.1393886001314968,0.0498456999193877,0.049933600006625056,0.09995149984024465,0.10011930018663406,0.30010849982500076
RSVPLG03,km,20251202-122526,1.0.2,20251202-094321,756,Experiment,Both,1,Automatic,main,25,20251202-122757,local,local,750,S,H,A,A,A-S.png,A-H.png,sS,hH,mask-4.png,mask-1.png,s,1,0.5811968001071364,h,1,0.7491991999559104,0.05054079997353256,0.04943179991096258,0.09883820009417832,0.10119059984572232,0.7486571001354605
RSVPLG03,km,20251202-122526,1.0.2,20251202-094321,756,Experiment,Both,1,Automatic,main,26,20251202-122815,global,local,750,S,S,E,E,S-E.png,E-S.png,sS,sS,mask-3.png,mask-3.png,s,1,0.37208130001090467,s,1,0.2037309999577701,0.050019599962979555,0.049876000033691525,0.0997927999123931,0.10010959999635816,0.7501298999413848
RSVPLG03,km,20251202-122526,1.0.2,20251202-094321,756,Experiment,Both,1,Automatic,main,27,20251202-122820,local,global,750,H,S,A,A,A-H.png,S-A.png,hH,sS,mask-1.png,mask-1.png,s,0,0.437013000017032,h,0,1.6592572000809014,0.050701400032266974,0.049041699850931764,0.1012230000924319,0.10014679981395602,0.751702600158751
RSVPLG03,km,20251202-122526,1.0.2,20251202-094321,756,Experiment,Both,1,Automatic,main,28,20251202-122826,local,global,300,H,H,E,E,E-H.png,H-E.png,hH,hH,mask-4.png,mask-2.png,h,1,0.40069989999756217,s,0,0.11220850003883243,0.050941700115799904,0.04972450016066432,0.10096840001642704,0.10084150009788573,0.30029319995082915
RSVPLG03,km,20251202-122526,1.0.2,20251202-094321,756,Experiment,Both,1,Automatic,main,29,20251202-122831,local,local,750,H,H,E,A,E-H.png,A-H.png,hH,hH,mask-3.png,mask-4.png,s,0,0.32178280013613403,h,1,0.363009599968791,0.05082949995994568,0.04986469983123243,0.1017385998275131,0.10012939991429448,0.7511891999747604
RSVPLG03,km,20251202-122526,1.0.2,20251202-094321,756,Experiment,Both,1,Automatic,main,30,20251202-122836,local,global,300,S,S,A,A,A-S.png,S-A.png,sS,sS,mask-2.png,mask-1.png,h,0,0.6793077001348138,s,1,0.12377050006762147,0.0489415000192821,0.04946040012873709,0.0999596999026835,0.10034050000831485,0.2996626999229193
RSVPLG03,km,20251202-122526,1.0.2,20251202-094321,756,Experiment,Both,1,Automatic,main,31,20251202-122840,global,global,300,H,H,A,A,H-A.png,H-A.png,hH,hH,mask-2.png,mask-4.png,h,1,0.35591980000026524,h,1,0.20531370001845062,0.05045849992893636,0.05053910007700324,0.10014869994483888,0.10021080006845295,0.2996645998209715
RSVPLG03,km,20251202-122526,1.0.2,20251202-094321,756,Experiment,Both,1,Automatic,main,32,20251202-122845,global,local,750,H,H,E,E,H-E.png,E-H.png,hH,hH,mask-4.png,mask-2.png,h,1,0.3489733999595046,h,1,0.21918469993397593,0.04906069999560714,0.05021879984997213,0.09934880002401769,0.09945049998350441,0.750672500114888
RSVPLG03,km,20251202-122526,1.0.2,20251202-094321,756,Experiment,Both,1,Automatic,main,33,20251202-122849,local,global,750,S,S,A,A,A-S.png,S-A.png,sS,sS,mask-3.png,mask-2.png,s,1,0.49319670000113547,s,1,0.22922839992679656,0.049780100118368864,0.0497361000161618,0.09891150007024407,0.10067679989151657,0.7494799001142383
RSVPLG03,km,20251202-122526,1.0.2,20251202-094321,756,Experiment,Both,1,Automatic,main,34,20251202-122854,local,local,750,H,H,A,A,A-H.png,A-H.png,hH,hH,mask-4.png,mask-3.png,h,1,0.7332217001821846,h,1,0.17738029989413917,0.050231599947437644,0.050840199925005436,0.10087649989873171,0.10078580002300441,0.7506434998940676
RSVPLG03,km,20251202-122526,1.0.2,20251202-094321,756,Experiment,Both,1,Automatic,main,35,20251202-122900,local,local,300,H,H,E,E,E-H.png,E-H.png,hH,hH,mask-1.png,mask-1.png,s,0,0.5396680999547243,h,1,0.07456719991751015,0.05045880004763603,0.04761419980786741,0.09948060009628534,0.09866489982232451,0.30116600007750094
RSVPLG03,km,20251202-122526,1.0.2,20251202-094321,756,Experiment,Both,1,Automatic,main,36,20251202-122904,local,global,750,H,H,A,E,A-H.png,H-E.png,hH,hH,mask-4.png,mask-4.png,h,1,0.629202299984172,h,1,0.37398240016773343,0.04818470007739961,0.04909239988774061,0.10008560004644096,0.10036380006931722,0.7493662000633776
RSVPLG03,km,20251202-122526,1.0.2,20251202-094321,756,Experiment,Both,1,Automatic,main,37,20251202-122909,local,global,300,H,H,E,A,E-H.png,H-A.png,hH,hH,mask-4.png,mask-3.png,h,1,0.45507250004447997,h,1,0.21640979987569153,0.04785289987921715,0.048911099787801504,0.09864299977198243,0.0999588998965919,0.3002838999964297
RSVPLG03,km,20251202-122526,1.0.2,20251202-094321,756,Experiment,Both,1,Automatic,main,38,20251202-122914,global,local,300,H,H,A,A,H-A.png,A-H.png,hH,hH,mask-4.png,mask-1.png,h,1,0.8073779998812824,s,0,0.5094444002024829,0.05180589994415641,0.048822199925780296,0.10074210003949702,0.09971139999106526,0.3015815999824554
RSVPLG03,km,20251202-122526,1.0.2,20251202-094321,756,Experiment,Both,1,Automatic,main,39,20251202-122919,local,global,300,H,H,A,E,A-H.png,H-E.png,hH,hH,mask-4.png,mask-4.png,h,1,0.8976846002042294,h,1,0.20440630009397864,0.04965570010244846,0.05027969996444881,0.1013748999685049,0.10108329984359443,0.30061900010332465
RSVPLG03,km,20251202-122526,1.0.2,20251202-094321,756,Experiment,Both,1,Automatic,main,40,20251202-122923,global,local,300,H,H,A,E,H-A.png,E-H.png,hH,hH,mask-4.png,mask-1.png,h,1,0.5267781999427825,s,0,0.10430290014483035,0.049031500006094575,0.05000549997203052,0.09994189999997616,0.10003870003856719,0.2992837999481708
RSVPLG03,km,20251202-122526,1.0.2,20251202-094321,756,Experiment,Both,1,Automatic,main,41,20251202-122928,local,global,750,H,H,E,E,E-H.png,H-E.png,hH,hH,mask-2.png,mask-2.png,h,1,0.338226200081408,h,1,0.21999630006030202,0.04977479996159673,0.05003089993260801,0.09964679996483028,0.10006269998848438,0.7500964999198914
RSVPLG03,km,20251202-122526,1.0.2,20251202-094321,756,Experiment,Both,1,Automatic,main,42,20251202-122933,global,local,300,S,S,E,E,S-E.png,E-S.png,sS,sS,mask-4.png,mask-3.png,s,1,0.44218759983778,s,1,0.17880450002849102,0.05001919995993376,0.049122999887913465,0.10075099999085069,0.10020520002581179,0.2995414000470191
RSVPLG03,km,20251202-122526,1.0.2,20251202-094321,756,Experiment,Both,1,Automatic,main,43,20251202-122937,global,global,300,S,S,E,E,S-E.png,S-E.png,sS,sS,mask-1.png,mask-3.png,s,1,0.3951434998307377,s,1,0.19691189983859658,0.04987540002912283,0.04984699981287122,0.10071490006521344,0.09816739987581968,0.3009691000916064
RSVPLG03,km,20251202-122526,1.0.2,20251202-094321,756,Experiment,Both,1,Automatic,main,44,20251202-122941,local,local,750,S,S,A,E,A-S.png,E-S.png,sS,sS,mask-1.png,mask-4.png,s,1,0.4714019999373704,s,1,0.22944670007564127,0.05004139989614487,0.04933279985561967,0.1013169998768717,0.10024719987995923,0.7506186999380589
RSVPLG03,km,20251202-122526,1.0.2,20251202-094321,756,Experiment,Both,1,Automatic,main,45,20251202-122946,global,local,750,S,H,A,A,S-A.png,A-H.png,sS,hH,mask-2.png,mask-1.png,s,1,0.4579845000989735,h,1,0.18089610012248158,0.049016600009053946,0.04974759998731315,0.09978090017102659,0.0999741000123322,0.7498447999823838
RSVPLG03,km,20251202-122526,1.0.2,20251202-094321,756,Experiment,Both,1,Automatic,main,46,20251202-122951,global,global,750,S,H,E,A,S-E.png,H-A.png,sS,hH,mask-2.png,mask-4.png,s,1,0.5291702998802066,h,1,0.14653169992379844,0.04986240016296506,0.05149109987542033,0.10073229996487498,0.10015069996006787,0.7497090001124889
RSVPLG03,km,20251202-122526,1.0.2,20251202-094321,756,Experiment,Both,1,Automatic,main,47,20251202-122956,global,global,300,S,H,A,A,S-A.png,H-A.png,sS,hH,mask-2.png,mask-2.png,s,1,0.503155899932608,h,1,0.13059990014880896,0.050422600004822016,0.050966700073331594,0.10032659978605807,0.10134500009007752,0.3005760998930782
RSVPLG03,km,20251202-122526,1.0.2,20251202-094321,756,Experiment,Both,1,Automatic,main,48,20251202-123000,global,global,300,S,H,E,A,S-E.png,H-A.png,sS,hH,mask-1.png,mask-1.png,s,1,0.4391764998435974,h,1,0.04943270003423095,0.049043199978768826,0.05103110009804368,0.10015750001184642,0.10012389998883009,0.29852039995603263
RSVPLG03,km,20251202-122526,1.0.2,20251202-094321,756,Experiment,Both,1,Automatic,main,49,20251202-123004,global,local,300,S,H,E,A,S-E.png,A-H.png,sS,hH,mask-3.png,mask-1.png,s,1,0.2982831997796893,h,1,0.0895934000145644,0.04993210011161864,0.05082030012272298,0.10005820007063448,0.1008258000947535,0.298422500025481
RSVPLG03,km,20251202-122526,1.0.2,20251202-094321,756,Experiment,Both,1,Automatic,main,50,20251202-123009,local,global,750,S,S,E,A,E-S.png,S-A.png,sS,sS,mask-3.png,mask-2.png,s,1,0.33452569996006787,s,1,0.11577729997225106,0.05010659992694855,0.049972400069236755,0.0993230000603944,0.09956650016829371,0.7497355998493731
RSVPLG03,km,20251202-122526,1.0.2,20251202-094321,756,Experiment,Both,1,Automatic,main,51,20251202-123015,local,global,300,S,S,A,E,A-S.png,S-E.png,sS,sS,mask-3.png,mask-1.png,h,0,0.4832272999919951,s,1,0.10315570002421737,0.05081799998879433,0.05051500000990927,0.09912559995427728,0.09927550004795194,0.30023389984853566
RSVPLG03,km,20251202-122526,1.0.2,20251202-094321,756,Experiment,Both,1,Automatic,main,52,20251202-123019,local,local,300,S,S,A,A,A-S.png,A-S.png,sS,sS,mask-2.png,mask-1.png,h,0,0.5122499999124557,s,1,0.13643529987894,0.04856680007651448,0.04990030010230839,0.09957020008005202,0.10153290000744164,0.2981316999066621
RSVPLG03,km,20251202-122526,1.0.2,20251202-094321,756,Experiment,Both,1,Automatic,main,53,20251202-123024,local,global,750,H,S,A,E,A-H.png,S-E.png,hH,sS,mask-4.png,mask-3.png,h,1,0.875677099917084,s,1,0.16126370010897517,0.04927120008505881,0.049743999959900975,0.09833399998024106,0.10049259988591075,0.7495887000113726
RSVPLG03,km,20251202-122526,1.0.2,20251202-094321,756,Experiment,Both,1,Automatic,main,54,20251202-123029,local,local,750,H,S,E,E,E-H.png,E-S.png,hH,sS,mask-2.png,mask-3.png,h,1,0.7028729000594467,s,1,0.17246720008552074,0.04985000006854534,0.049948700005188584,0.09989840001799166,0.09884219989180565,0.7518128000665456
RSVPLG03,km,20251202-122526,1.0.2,20251202-094321,756,Experiment,Both,1,Automatic,main,55,20251202-123034,local,local,750,S,H,A,A,A-S.png,A-H.png,sS,hH,mask-2.png,mask-3.png,s,1,0.9831855001393706,h,1,0.018476400058716536,0.05097340000793338,0.049650900065898895,0.1006867999676615,0.09994730004109442,0.751332099782303
RSVPLG03,km,20251202-122526,1.0.2,20251202-094321,756,Experiment,Both,1,Automatic,main,56,20251202-123039,global,global,750,H,S,A,E,H-A.png,S-E.png,hH,sS,mask-4.png,mask-4.png,h,1,0.6864966000430286,s,1,0.13647960009984672,0.04992090002633631,0.04830739996396005,0.09999309992417693,0.09939350001513958,0.7494415999390185
RSVPLG03,km,20251202-122526,1.0.2,20251202-094321,756,Experiment,Both,1,Automatic,main,57,20251202-123044,global,local,750,S,S,A,A,S-A.png,A-S.png,sS,sS,mask-2.png,mask-2.png,h,0,0.658090400043875,s,1,0.1386190999764949,0.04990079998970032,0.050636200001463294,0.10010639997199178,0.10141790006309748,0.7490226000081748
RSVPLG03,km,20251202-122526,1.0.2,20251202-094321,756,Experiment,Both,1,Automatic,main,58,20251202-123049,global,global,300,S,H,A,A,S-A.png,H-A.png,sS,hH,mask-2.png,mask-2.png,s,1,0.3726417999714613,h,1,0.028245200170204043,0.048951900098472834,0.050314199877902865,0.09910210012458265,0.09981679986231029,0.29913430009037256
RSVPLG03,km,20251202-122526,1.0.2,20251202-094321,756,Experiment,Both,1,Automatic,main,59,20251202-123053,global,global,300,H,S,A,E,H-A.png,S-E.png,hH,sS,mask-3.png,mask-2.png,h,1,0.6220665997825563,s,1,0.2739617000333965,0.04753659991547465,0.04864750010892749,0.09857019991613925,0.09940770012326539,0.29918699990957975
RSVPLG03,km,20251202-122526,1.0.2,20251202-094321,756,Experiment,Both,1,Automatic,main,60,20251202-123058,local,global,750,H,S,A,E,A-H.png,S-E.png,hH,sS,mask-4.png,mask-2.png,s,0,0.3267079999204725,s,1,0.07533359993249178,0.05023970012553036,0.05033579980954528,0.10112469992600381,0.0993282999843359,0.7502475001383573
RSVPLG03,km,20251202-122526,1.0.2,20251202-094321,756,Experiment,Both,1,Automatic,main,61,20251202-123103,global,global,300,H,H,E,A,H-E.png,H-A.png,hH,hH,mask-3.png,mask-2.png,h,1,0.43802479980513453,h,1,0.17640609992668033,0.04859090014360845,0.04908950021490455,0.09857730008661747,0.09945840016007423,0.2997854999266565
RSVPLG03,km,20251202-122526,1.0.2,20251202-094321,756,Experiment,Both,1,Automatic,main,62,20251202-123107,local,global,750,S,H,E,A,E-S.png,H-A.png,sS,hH,mask-2.png,mask-4.png,s,1,0.39080050005577505,h,1,0.0957977999933064,0.04923720005899668,0.05094220000319183,0.10064940014854074,0.10097560007125139,0.7501741000451148
RSVPLG03,km,20251202-122526,1.0.2,20251202-094321,756,Experiment,Both,1,Automatic,main,63,20251202-123112,local,local,300,S,S,E,A,E-S.png,A-S.png,sS,sS,mask-3.png,mask-2.png,s,1,0.3870204999111593,s,1,0.21143290004692972,0.049695400055497885,0.049698600079864264,0.09996370016597211,0.09978210018016398,0.29957969998940825
RSVPLG03,km,20251202-122526,1.0.2,20251202-094321,756,Experiment,Both,1,Automatic,main,64,20251202-123116,local,global,750,S,S,A,E,A-S.png,S-E.png,sS,sS,mask-2.png,mask-1.png,s,1,0.4301620000042021,s,1,0.18792190006934106,0.0499572001863271,0.05074910004623234,0.0999539999756962,0.09960890002548695,0.7500188001431525
RSVPLG03,km,20251202-122526,1.0.2,20251202-094321,756,Experiment,Both,1,Automatic,main,65,20251202-123121,local,global,750,H,H,E,E,E-H.png,H-E.png,hH,hH,mask-1.png,mask-1.png,h,1,0.4960409998893738,h,1,0.7074651001021266,0.05089289997704327,0.049117099959403276,0.1000556000508368,0.09953709994442761,0.7511053001508117
RSVPLG03,km,20251202-122526,1.0.2,20251202-094321,756,Experiment,Both,1,Automatic,main,66,20251202-123126,local,local,750,S,S,E,E,E-S.png,E-S.png,sS,sS,mask-2.png,mask-2.png,h,0,6.867479000007734,h,0,0.44286390021443367,0.04950569989159703,0.05005730013363063,0.1014852998778224,0.10027729999274015,0.7518282998353243
RSVPLG03,km,20251202-122526,1.0.2,20251202-094321,756,Experiment,Both,1,Automatic,main,67,20251202-123138,global,local,750,S,H,A,A,S-A.png,A-H.png,sS,hH,mask-3.png,mask-3.png,s,1,0.3241616999730468,h,1,0.15348229999653995,0.04885030002333224,0.047920200042426586,0.09952879999764264,0.09824030008167028,0.7508586999028921
RSVPLG03,km,20251202-122526,1.0.2,20251202-094321,756,Experiment,Both,1,Automatic,main,68,20251202-123142,global,local,300,H,H,E,E,H-E.png,E-H.png,hH,hH,mask-1.png,mask-2.png,h,1,0.8562197999563068,s,0,0.3617366999387741,0.04993009986355901,0.049704600125551224,0.0998783998657018,0.10065280017443001,0.3001959999091923
RSVPLG03,km,20251202-122526,1.0.2,20251202-094321,756,Experiment,Both,1,Automatic,main,69,20251202-123147,local,global,300,S,S,A,E,A-S.png,S-E.png,sS,sS,mask-4.png,mask-2.png,s,1,4.499163900036365,h,0,0.22616599989123642,0.04843820002861321,0.049489299999549985,0.09897219995036721,0.1001070998609066,0.2990103999618441
RSVPLG03,km,20251202-122526,1.0.2,20251202-094321,756,Experiment,Both,1,Automatic,main,70,20251202-123156,global,global,750,S,S,A,E,S-A.png,S-E.png,sS,sS,mask-1.png,mask-1.png,s,1,0.32534710015170276,s,1,0.239452000008896,0.049947200110182166,0.050846399972215295,0.1004910001065582,0.0996665998827666,0.7487352001480758
RSVPLG03,km,20251202-122526,1.0.2,20251202-094321,756,Experiment,Both,1,Automatic,main,71,20251202-123200,global,local,750,H,H,E,A,H-E.png,A-H.png,hH,hH,mask-3.png,mask-3.png,h,1,0.44753440003842115,h,1,0.17937129992060363,0.0498066998552531,0.049883800093084574,0.09976929984986782,0.1009984000120312,0.7478472997900099
RSVPLG03,km,20251202-122526,1.0.2,20251202-094321,756,Experiment,Both,1,Automatic,main,72,20251202-123205,local,local,750,S,S,E,A,E-S.png,A-S.png,sS,sS,mask-2.png,mask-1.png,h,0,0.6568070999346673,s,1,0.2187679000198841,0.04953319998458028,0.050067400094121695,0.09981829999014735,0.09911249997094274,0.7495873998850584
RSVPLG03,km,20251202-122526,1.0.2,20251202-094321,756,Experiment,Both,1,Automatic,main,73,20251202-123210,global,global,750,S,H,E,E,S-E.png,H-E.png,sS,hH,mask-4.png,mask-1.png,s,1,0.3421845000702888,h,1,0.1401243000291288,0.050981200067326427,0.05097600002773106,0.10102730011567473,0.10117750009521842,0.75049680005759
RSVPLG03,km,20251202-122526,1.0.2,20251202-094321,756,Experiment,Both,1,Automatic,main,74,20251202-123215,global,global,750,H,H,A,E,H-A.png,H-E.png,hH,hH,mask-4.png,mask-1.png,h,1,0.4518363999668509,s,0,0.24976049992255867,0.04809759999625385,0.049894100055098534,0.09844620013609529,0.098936399910599,0.7493972000665963
RSVPLG03,km,20251202-122526,1.0.2,20251202-094321,756,Experiment,Both,1,Automatic,main,75,20251202-123220,global,local,750,S,H,A,E,S-A.png,E-H.png,sS,hH,mask-2.png,mask-3.png,s,1,0.6011045000050217,h,1,0.10167020000517368,0.049804499838501215,0.04998930008150637,0.09965729992836714,0.09970279992558062,0.7497783999424428
RSVPLG03,km,20251202-122526,1.0.2,20251202-094321,756,Experiment,Both,1,Automatic,main,76,20251202-123226,local,local,300,S,S,E,E,E-S.png,E-S.png,sS,sS,mask-3.png,mask-1.png,s,1,0.4322132000233978,s,1,0.3297571998555213,0.049023899948224425,0.048788700019940734,0.10092419991269708,0.1007632000837475,0.3010630998760462
RSVPLG03,km,20251202-122526,1.0.2,20251202-094321,756,Experiment,Both,1,Automatic,main,77,20251202-123230,local,global,300,S,H,A,E,A-S.png,H-E.png,sS,hH,mask-2.png,mask-2.png,s,1,0.4616954999510199,h,1,0.06378939980641007,0.04872400010935962,0.049936800030991435,0.09881599992513657,0.09961739997379482,0.2997713000513613
RSVPLG03,km,20251202-122526,1.0.2,20251202-094321,756,Experiment,Both,1,Automatic,main,78,20251202-123235,local,local,300,S,S,A,E,A-S.png,E-S.png,sS,sS,mask-2.png,mask-1.png,h,0,0.4380486002191901,s,1,0.04328939993865788,0.04980310006067157,0.04978729994036257,0.09971039998345077,0.09961689985357225,0.2999887000769377
RSVPLG03,km,20251202-122526,1.0.2,20251202-094321,756,Experiment,Both,1,Automatic,main,79,20251202-123239,global,global,750,H,H,E,A,H-E.png,H-A.png,hH,hH,mask-4.png,mask-1.png,h,1,0.24701930000446737,h,1,0.2053825999610126,0.049500999972224236,0.05165719985961914,0.10039749997667968,0.10141099989414215,0.7488715001381934
RSVPLG03,km,20251202-122526,1.0.2,20251202-094321,756,Experiment,Both,1,Automatic,main,80,20251202-123243,global,local,300,S,H,E,A,S-E.png,A-H.png,sS,hH,mask-2.png,mask-3.png,s,1,0.38347369991242886,h,1,0.045706900069490075,0.04856170015409589,0.04984440002590418,0.09907990018837154,0.1002652000170201,0.29959660000167787
RSVPLG03,km,20251202-122526,1.0.2,20251202-094321,756,Experiment,Both,1,Automatic,main,81,20251202-123248,global,global,750,S,S,A,E,S-A.png,S-E.png,sS,sS,mask-3.png,mask-4.png,s,1,0.29804209992289543,s,1,0.17006619996391237,0.04915280011482537,0.04885170003399253,0.09964259993284941,0.09928880003280938,0.7499174000695348
RSVPLG03,km,20251202-122526,1.0.2,20251202-094321,756,Experiment,Both,1,Automatic,main,82,20251202-123252,local,local,750,S,H,A,E,A-S.png,E-H.png,sS,hH,mask-3.png,mask-4.png,s,1,0.6112560001201928,h,1,1.2299965000711381,0.049939499935135245,0.04805730003863573,0.09995319996960461,0.09867949993349612,0.7513812999241054
RSVPLG03,km,20251202-122526,1.0.2,20251202-094321,756,Experiment,Both,1,Automatic,main,83,20251202-123258,local,local,300,H,S,E,E,E-H.png,E-S.png,hH,sS,mask-4.png,mask-2.png,s,0,0.7143670001532882,h,0,0.7082102000713348,0.04908080003224313,0.04866229998879135,0.09935180004686117,0.09962249989621341,0.3000359002035111
RSVPLG03,km,20251202-122526,1.0.2,20251202-094321,756,Experiment,Both,1,Automatic,main,84,20251202-123303,global,local,300,S,H,E,E,S-E.png,E-H.png,sS,hH,mask-1.png,mask-3.png,s,1,1.2579773999750614,h,1,0.14656060002744198,0.050311699975281954,0.05060740001499653,0.10042060003615916,0.09939910005778074,0.2999023001175374
RSVPLG03,km,20251202-122526,1.0.2,20251202-094321,756,Experiment,Both,1,Automatic,main,85,20251202-123308,local,global,750,S,S,E,E,E-S.png,S-E.png,sS,sS,mask-3.png,mask-2.png,s,1,0.3267649000044912,s,1,0.2094952999614179,0.050136799924075603,0.050000299932435155,0.10070269997231662,0.10024369996972382,0.7507482999935746
RSVPLG03,km,20251202-122526,1.0.2,20251202-094321,756,Experiment,Both,1,Automatic,main,86,20251202-123313,local,global,300,S,S,E,E,E-S.png,S-E.png,sS,sS,mask-3.png,mask-3.png,s,1,0.5506150000728667,s,1,0.14561900007538497,0.048974200151860714,0.05014059995301068,0.09899960015900433,0.09924030001275241,0.30040700011886656
RSVPLG03,km,20251202-122526,1.0.2,20251202-094321,756,Experiment,Both,1,Automatic,main,87,20251202-123318,local,global,300,S,H,A,A,A-S.png,H-A.png,sS,hH,mask-3.png,mask-2.png,h,0,0.3048771000467241,h,1,0.2181873000226915,0.04785809991881251,0.050704200053587556,0.0991795000154525,0.09937550011090934,0.2995307999663055
RSVPLG03,km,20251202-122526,1.0.2,20251202-094321,756,Experiment,Both,1,Automatic,main,88,20251202-123322,global,global,750,S,S,A,E,S-A.png,S-E.png,sS,sS,mask-2.png,mask-1.png,s,1,0.34173190011642873,s,1,0.20874359994195402,0.05006340006366372,0.04993600002489984,0.10009300010278821,0.0999791999347508,0.7501767000649124
RSVPLG03,km,20251202-122526,1.0.2,20251202-094321,756,Experiment,Both,1,Automatic,main,89,20251202-123327,local,local,300,H,S,A,E,A-H.png,E-S.png,hH,sS,mask-4.png,mask-3.png,s,0,0.48904839996248484,h,0,0.24847939983010292,0.049895600182935596,0.04905120003968477,0.09921879996545613,0.10003189998678863,0.30028500012122095
RSVPLG03,km,20251202-122526,1.0.2,20251202-094321,756,Experiment,Both,1,Automatic,main,90,20251202-123331,local,local,300,H,S,E,A,E-H.png,A-S.png,hH,sS,mask-2.png,mask-3.png,h,1,0.4571029001381248,s,1,0.01795829995535314,0.049715200206264853,0.04971690010279417,0.09973420016467571,0.10050210007466376,0.29967850004322827
RSVPLG03,km,20251202-122526,1.0.2,20251202-094321,756,Experiment,Both,1,Automatic,main,91,20251202-123335,global,local,750,H,H,A,E,H-A.png,E-H.png,hH,hH,mask-4.png,mask-2.png,s,0,0.534440099960193,h,1,0.7691518000792712,0.050180499907583,0.051059799967333674,0.1004524000454694,0.1007495999801904,0.7489463000092655
RSVPLG03,km,20251202-122526,1.0.2,20251202-094321,756,Experiment,Both,1,Automatic,main,92,20251202-123341,global,local,750,S,S,E,E,S-E.png,E-S.png,sS,sS,mask-2.png,mask-3.png,s,1,0.5261289000045508,s,1,0.2089343999978155,0.04932130011729896,0.04984580003656447,0.09873740002512932,0.09983640001155436,0.7502588001079857
RSVPLG03,km,20251202-122526,1.0.2,20251202-094321,756,Experiment,Both,1,Automatic,main,93,20251202-123346,global,global,300,S,S,A,E,S-A.png,S-E.png,sS,sS,mask-3.png,mask-1.png,s,1,0.45324319996871054,s,1,0.1384966999758035,0.0499265999533236,0.050964999943971634,0.09988170000724494,0.1006054999306798,0.30059750005602837
RSVPLG03,km,20251202-122526,1.0.2,20251202-094321,756,Experiment,Both,1,Automatic,main,94,20251202-123350,global,local,750,H,S,E,A,H-E.png,A-S.png,hH,sS,mask-1.png,mask-3.png,h,1,1.0164099999237806,h,0,0.283672499936074,0.0500125999096781,0.049979500006884336,0.09991919994354248,0.10042889998294413,0.750070400070399
RSVPLG03,km,20251202-122526,1.0.2,20251202-094321,756,Experiment,Both,1,Automatic,main,95,20251202-123356,local,local,300,S,S,A,A,A-S.png,A-S.png,sS,sS,mask-1.png,mask-2.png,h,0,0.48816989990882576,s,1,0.2515201000496745,0.049778300104662776,0.0497987000271678,0.09980070008896291,0.09982640016824007,0.30009889998473227
RSVPLG03,km,20251202-122526,1.0.2,20251202-094321,756,Experiment,Both,1,Automatic,main,96,20251202-123400,local,global,300,H,H,A,E,A-H.png,H-E.png,hH,hH,mask-2.png,mask-1.png,h,1,0.5953637999482453,h,1,0.22159520001150668,0.04991280008107424,0.04874470015056431,0.09993070014752448,0.09859540010802448,0.30118519999086857
RSVPLG03,km,20251202-122526,1.0.2,20251202-094321,756,Experiment,Both,1,Automatic,main,97,20251202-123404,global,local,750,H,H,E,A,H-E.png,A-H.png,hH,hH,mask-4.png,mask-4.png,h,1,0.32748480001464486,h,1,0.1747505001258105,0.050683399895206094,0.04942619986832142,0.10086050000973046,0.0996870999224484,0.7510933000594378
RSVPLG03,km,20251202-122526,1.0.2,20251202-094321,756,Experiment,Both,1,Automatic,main,98,20251202-123409,local,global,300,H,H,E,A,E-H.png,H-A.png,hH,hH,mask-2.png,mask-2.png,h,1,0.791634599911049,h,1,0.2993662999942899,0.050029699923470616,0.04972829995676875,0.10012369998730719,0.10062530008144677,0.29983689985238016
RSVPLG03,km,20251202-122526,1.0.2,20251202-094321,756,Experiment,Both,1,Automatic,main,99,20251202-123414,global,local,300,S,H,A,A,S-A.png,A-H.png,sS,hH,mask-4.png,mask-3.png,s,1,0.4480036001186818,h,1,0.050360399996861815,0.04992120014503598,0.04994100006297231,0.09994120011106133,0.0999696000944823,0.2994812000542879
RSVPLG03,km,20251202-122526,1.0.2,20251202-094321,756,Experiment,Both,1,Automatic,main,100,20251202-123418,global,local,300,H,S,A,A,H-A.png,A-S.png,hH,sS,mask-4.png,mask-2.png,h,1,0.4396264001261443,h,0,0.13619569991715252,0.049819699954241514,0.0486260000616312,0.1002424000762403,0.0997551002074033,0.3003485999070108
RSVPLG03,km,20251202-123448,1.0.2,20251202-094321,756,Experiment,Both,1,Automatic,warmup,1,20251202-123559,global,local,300,S,H,A,A,S-A.png,A-H.png,sS,hH,mask-2.png,mask-2.png,s,1,0.5164727000519633,h,1,0.4882671998348087,0.03913819999434054,0.051202200120314956,0.08954610000364482,0.1009780999738723,0.2885433998890221
RSVPLG03,km,20251202-123448,1.0.2,20251202-094321,756,Experiment,Both,1,Automatic,warmup,2,20251202-123603,local,local,750,H,S,E,E,E-H.png,E-S.png,hH,sS,mask-3.png,mask-3.png,h,1,4.64182690018788,s,1,0.18678219988942146,0.05020739999599755,0.049197199987247586,0.0994724000338465,0.09835530002601445,0.7499961000867188
RSVPLG03,km,20251202-123448,1.0.2,20251202-094321,756,Experiment,Both,1,Automatic,warmup,3,20251202-123612,global,local,750,H,H,E,E,H-E.png,E-H.png,hH,hH,mask-4.png,mask-1.png,s,0,0.02262840000912547,s,0,0.41979660000652075,0.049543799832463264,0.05063079996034503,0.09860919998027384,0.10051419981755316,0.7471288000233471
RSVPLG03,km,20251202-123448,1.0.2,20251202-094321,756,Experiment,Both,1,Automatic,warmup,4,20251202-123617,global,global,750,H,S,A,E,H-A.png,S-E.png,hH,sS,mask-4.png,mask-1.png,h,1,0.37446180009283125,s,1,0.5347748999483883,0.04953179997391999,0.04982939991168678,0.09942639991641045,0.09888949990272522,0.7479830998927355
RSVPLG03,km,20251202-123448,1.0.2,20251202-094321,756,Experiment,Both,1,Automatic,main,5,20251202-123622,global,global,300,H,S,A,E,H-A.png,S-E.png,hH,sS,mask-2.png,mask-2.png,h,1,0.4053493000101298,s,1,0.16323629999533296,0.04989739996381104,0.05003869999200106,0.09996289992704988,0.09785120002925396,0.3011533999815583
RSVPLG03,km,20251202-123448,1.0.2,20251202-094321,756,Experiment,Both,1,Automatic,main,6,20251202-123626,local,local,300,H,H,E,E,E-H.png,E-H.png,hH,hH,mask-2.png,mask-2.png,s,0,2.2751884998288006,s,0,0.17821859987452626,0.05084369983524084,0.047529200091958046,0.10079859988763928,0.09820720017887652,0.30044409981928766
RSVPLG03,km,20251202-123448,1.0.2,20251202-094321,756,Experiment,Both,1,Automatic,main,7,20251202-123632,local,local,300,S,S,E,A,E-S.png,A-S.png,sS,sS,mask-1.png,mask-1.png,h,0,0.4660356999374926,s,1,0.21906680008396506,0.05062470003031194,0.04969389992766082,0.10024680010974407,0.10068769985809922,0.3001099000684917
RSVPLG03,km,20251202-123448,1.0.2,20251202-094321,756,Experiment,Both,1,Automatic,main,8,20251202-123636,global,local,300,S,H,A,A,S-A.png,A-H.png,sS,hH,mask-3.png,mask-1.png,s,1,0.4861548999324441,h,1,0.10122860013507307,0.049837399972602725,0.05086180008947849,0.09925800003111362,0.10112270014360547,0.2981532998383045
RSVPLG03,km,20251202-123448,1.0.2,20251202-094321,756,Experiment,Both,1,Automatic,main,9,20251202-123641,local,local,750,S,H,A,E,A-S.png,E-H.png,sS,hH,mask-3.png,mask-4.png,s,1,0.26588280010037124,h,1,0.08921179990284145,0.050827400060370564,0.04829870001412928,0.09993190015666187,0.10001319996081293,0.7500038000289351
RSVPLG03,km,20251202-123448,1.0.2,20251202-094321,756,Experiment,Both,1,Automatic,main,10,20251202-123645,local,local,300,H,H,A,A,A-H.png,A-H.png,hH,hH,mask-2.png,mask-1.png,h,1,0.3554680999368429,h,1,0.12115819985046983,0.04876730008982122,0.0509553998708725,0.0986113001126796,0.10091499984264374,0.29815350007265806
RSVPLG03,km,20251202-123448,1.0.2,20251202-094321,756,Experiment,Both,1,Automatic,main,11,20251202-123649,global,local,300,H,H,E,E,H-E.png,E-H.png,hH,hH,mask-1.png,mask-4.png,h,1,0.39406989980489016,s,0,0.10655220015905797,0.05054030008614063,0.049859900027513504,0.10013480018824339,0.09972920012660325,0.3013081999961287
RSVPLG03,km,20251202-123448,1.0.2,20251202-094321,756,Experiment,Both,1,Automatic,main,12,20251202-123654,local,global,300,S,S,E,A,E-S.png,S-A.png,sS,sS,mask-4.png,mask-4.png,s,1,0.46797070000320673,s,1,0.08832259988412261,0.05120470002293587,0.04957109992392361,0.10026730014942586,0.09817139990627766,0.30131110013462603
RSVPLG03,km,20251202-123448,1.0.2,20251202-094321,756,Experiment,Both,1,Automatic,main,13,20251202-123658,local,local,300,H,H,A,E,A-H.png,E-H.png,hH,hH,mask-2.png,mask-2.png,h,1,0.7334854998625815,s,0,0.06013949983753264,0.04990199999883771,0.05033300002105534,0.10058950004167855,0.10186169994994998,0.2978245001286268
RSVPLG03,km,20251202-123448,1.0.2,20251202-094321,756,Experiment,Both,1,Automatic,main,14,20251202-123702,local,global,750,S,S,E,E,E-S.png,S-E.png,sS,sS,mask-1.png,mask-2.png,s,1,0.2494885001797229,s,1,0.17164309998042881,0.048853399930521846,0.0518656000494957,0.09844430000521243,0.10146250016987324,0.7468343998771161
RSVPLG03,km,20251202-123448,1.0.2,20251202-094321,756,Experiment,Both,1,Automatic,main,15,20251202-123707,local,local,750,S,H,E,A,E-S.png,A-H.png,sS,hH,mask-1.png,mask-2.png,s,1,0.6106750001199543,h,1,0.11544870003126562,0.04900120012462139,0.04955699993297458,0.10017470014281571,0.09881479991599917,0.7492317000869662
RSVPLG03,km,20251202-123448,1.0.2,20251202-094321,756,Experiment,Both,1,Automatic,main,16,20251202-123712,local,local,750,S,H,E,A,E-S.png,A-H.png,sS,hH,mask-4.png,mask-1.png,s,1,0.3046653000637889,h,1,0.0669830001424998,0.04987230012193322,0.04999359999783337,0.09874630020931363,0.09898090013302863,0.7482102999929339
RSVPLG03,km,20251202-123448,1.0.2,20251202-094321,756,Experiment,Both,1,Automatic,main,17,20251202-123716,local,global,300,S,H,E,A,E-S.png,H-A.png,sS,hH,mask-1.png,mask-2.png,s,1,0.30966620007529855,h,1,0.008002899819985032,0.04994139983318746,0.05108630005270243,0.09941360005177557,0.10114040016196668,0.2983513998333365
RSVPLG03,km,20251202-123448,1.0.2,20251202-094321,756,Experiment,Both,1,Automatic,main,18,20251202-123720,global,local,750,H,S,E,A,H-E.png,A-S.png,hH,sS,mask-2.png,mask-4.png,h,1,0.3686927000526339,s,1,0.058393799932673573,0.04920489992946386,0.049540100153535604,0.10086529981344938,0.09912919998168945,0.7499302998185158
RSVPLG03,km,20251202-123448,1.0.2,20251202-094321,756,Experiment,Both,1,Automatic,main,19,20251202-123725,global,local,300,S,H,A,A,S-A.png,A-H.png,sS,hH,mask-4.png,mask-1.png,s,1,0.4423578998539597,h,1,0.08227760018780828,0.0497556000482291,0.04975240002386272,0.09858550014905632,0.09971280000172555,0.29842870007269084
RSVPLG03,km,20251202-123448,1.0.2,20251202-094321,756,Experiment,Both,1,Automatic,main,20,20251202-123729,local,local,300,S,H,E,A,E-S.png,A-H.png,sS,hH,mask-2.png,mask-1.png,s,1,0.38291950011625886,h,1,0.09139910014346242,0.05061660008504987,0.050618299981579185,0.0997588001191616,0.0993315998930484,0.29947330011054873
RSVPLG03,km,20251202-123448,1.0.2,20251202-094321,756,Experiment,Both,1,Automatic,main,21,20251202-123733,global,local,300,S,H,A,A,S-A.png,A-H.png,sS,hH,mask-2.png,mask-1.png,s,1,0.39020329993218184,h,1,0.06445290008559823,0.05054460000246763,0.05058529996313155,0.1006585001014173,0.1003711000084877,0.29983030003495514
RSVPLG03,km,20251202-123448,1.0.2,20251202-094321,756,Experiment,Both,1,Automatic,main,22,20251202-123737,global,global,750,S,S,E,E,S-E.png,S-E.png,sS,sS,mask-3.png,mask-1.png,s,1,0.26723850006237626,s,1,0.10651509999297559,0.049887799890711904,0.04894530004821718,0.09964599995873868,0.10009510000236332,0.7485162999946624
RSVPLG03,km,20251202-123448,1.0.2,20251202-094321,756,Experiment,Both,1,Automatic,main,23,20251202-123742,global,global,750,H,H,A,A,H-A.png,H-A.png,hH,hH,mask-1.png,mask-4.png,h,1,0.2520063000265509,h,1,0.09216269990429282,0.049636500189080834,0.05006049992516637,0.10093750013038516,0.09926400007680058,0.7495524000842124
RSVPLG03,km,20251202-123448,1.0.2,20251202-094321,756,Experiment,Both,1,Automatic,main,24,20251202-123746,global,global,750,H,H,A,E,H-A.png,H-E.png,hH,hH,mask-1.png,mask-4.png,h,1,0.44941829983145,h,1,0.09936860017478466,0.04994559986516833,0.048942700028419495,0.10136079997755587,0.09796779998578131,0.7501012999564409
RSVPLG03,km,20251202-123448,1.0.2,20251202-094321,756,Experiment,Both,1,Automatic,main,25,20251202-123751,local,local,300,H,H,A,A,A-H.png,A-H.png,hH,hH,mask-1.png,mask-2.png,h,1,0.4128306000493467,h,1,0.19518469995819032,0.049855400109663606,0.049877299927175045,0.09981709998100996,0.09942470001988113,0.2993813001085073
RSVPLG03,km,20251202-123448,1.0.2,20251202-094321,756,Experiment,Both,1,Automatic,main,26,20251202-123803,local,local,750,H,S,E,E,E-H.png,E-S.png,hH,sS,mask-1.png,mask-1.png,s,0,0.3036462999880314,s,1,0.1377650999929756,0.049724499927833676,0.04988909978419542,0.09995119995437562,0.09997659991495311,0.7482263001147658
RSVPLG03,km,20251202-123448,1.0.2,20251202-094321,756,Experiment,Both,1,Automatic,main,27,20251202-123808,local,global,300,H,S,E,A,E-H.png,S-A.png,hH,sS,mask-2.png,mask-4.png,h,1,0.3132569999434054,s,1,0.12221589987166226,0.049714599968865514,0.04868349991738796,0.09952830011025071,0.09959909995086491,0.29963860008865595
RSVPLG03,km,20251202-123448,1.0.2,20251202-094321,756,Experiment,Both,1,Automatic,main,28,20251202-123812,local,global,750,S,H,E,E,E-S.png,H-E.png,sS,hH,mask-1.png,mask-1.png,s,1,0.25029730005189776,h,1,0.05772970011457801,0.04797740001231432,0.0508652999997139,0.09801730001345277,0.10055530001409352,0.7469969999510795
RSVPLG03,km,20251202-123448,1.0.2,20251202-094321,756,Experiment,Both,1,Automatic,main,29,20251202-123817,global,global,750,H,S,A,A,H-A.png,S-A.png,hH,sS,mask-1.png,mask-4.png,h,1,0.30367609998211265,s,1,0.11439180001616478,0.04800489987246692,0.050594599917531013,0.09950629994273186,0.10059859999455512,0.7480649999342859
RSVPLG03,km,20251202-123448,1.0.2,20251202-094321,756,Experiment,Both,1,Automatic,main,30,20251202-123821,local,global,750,H,S,E,E,E-H.png,S-E.png,hH,sS,mask-3.png,mask-3.png,h,1,0.3332562998402864,s,1,0.07613179995678365,0.05073090014047921,0.049823899986222386,0.10141439992003143,0.10090580000542104,0.7489348000381142
RSVPLG03,km,20251202-123448,1.0.2,20251202-094321,756,Experiment,Both,1,Automatic,main,31,20251202-123826,local,local,750,H,S,E,E,E-H.png,E-S.png,hH,sS,mask-2.png,mask-4.png,s,0,0.424903400009498,s,1,0.17813239991664886,0.049982299795374274,0.05082960007712245,0.10006879991851747,0.10064999992027879,0.7472409999463707
RSVPLG03,km,20251202-123448,1.0.2,20251202-094321,756,Experiment,Both,1,Automatic,main,32,20251202-123830,global,global,750,S,S,A,A,S-A.png,S-A.png,sS,sS,mask-3.png,mask-2.png,s,1,0.34458880010060966,s,1,0.15444689989089966,0.0493433999363333,0.05093630007468164,0.10021329997107387,0.10013959999196231,0.7489221000578254
RSVPLG03,km,20251202-123448,1.0.2,20251202-094321,756,Experiment,Both,1,Automatic,main,33,20251202-123835,local,global,300,H,S,A,E,A-H.png,S-E.png,hH,sS,mask-2.png,mask-1.png,h,1,0.4039859001059085,s,1,0.07578340009786189,0.049534099875018,0.05089309997856617,0.09960939991287887,0.09930810006335378,0.2988239999394864
RSVPLG03,km,20251202-123448,1.0.2,20251202-094321,756,Experiment,Both,1,Automatic,main,34,20251202-123839,local,global,300,S,H,A,A,A-S.png,H-A.png,sS,hH,mask-2.png,mask-4.png,s,1,0.5780201000161469,h,1,0.07465179986320436,0.049342399928718805,0.05003829998895526,0.09935199981555343,0.10037430003285408,0.2986943998839706
RSVPLG03,km,20251202-123448,1.0.2,20251202-094321,756,Experiment,Both,1,Automatic,main,35,20251202-123844,local,local,750,S,H,E,A,E-S.png,A-H.png,sS,hH,mask-4.png,mask-1.png,s,1,0.502202200004831,h,1,0.058205199893563986,0.04878830001689494,0.05053270002827048,0.09994460013695061,0.09979250002652407,0.748343100072816
RSVPLG03,km,20251202-123448,1.0.2,20251202-094321,756,Experiment,Both,1,Automatic,main,36,20251202-123848,global,local,300,S,H,A,E,S-A.png,E-H.png,sS,hH,mask-4.png,mask-1.png,s,1,0.4140253998339176,h,1,0.06563690002076328,0.05059350002557039,0.04949030000716448,0.10047490010038018,0.09905229997821152,0.30000530020333827
RSVPLG03,km,20251202-123448,1.0.2,20251202-094321,756,Experiment,Both,1,Automatic,main,37,20251202-123853,local,local,750,H,H,E,E,E-H.png,E-H.png,hH,hH,mask-4.png,mask-2.png,h,1,0.13711270014755428,s,0,0.11162690003402531,0.048809600062668324,0.048733399948105216,0.09865260007791221,0.09975409996695817,0.7487633000127971
RSVPLG03,km,20251202-123448,1.0.2,20251202-094321,756,Experiment,Both,1,Automatic,main,38,20251202-123857,global,global,300,H,H,E,A,H-E.png,H-A.png,hH,hH,mask-1.png,mask-3.png,h,1,0.3538237998727709,s,0,0.08492340007796884,0.049939800053834915,0.04988440009765327,0.0999167999252677,0.10092830006033182,0.2998418998904526
RSVPLG03,km,20251202-123448,1.0.2,20251202-094321,756,Experiment,Both,1,Automatic,main,39,20251202-123901,global,local,750,H,H,A,E,H-A.png,E-H.png,hH,hH,mask-1.png,mask-3.png,h,1,0.45950350002385676,h,1,0.12338240002281964,0.05008820001967251,0.05036809993907809,0.10124249989166856,0.10093760001473129,0.7479518998879939
RSVPLG03,km,20251202-123448,1.0.2,20251202-094321,756,Experiment,Both,1,Automatic,main,40,20251202-123906,local,global,750,H,S,A,A,A-H.png,S-A.png,hH,sS,mask-3.png,mask-2.png,h,1,0.2952780998311937,s,1,0.09743790002539754,0.05055540008470416,0.04916900000534952,0.10039749997667968,0.09933679993264377,0.7498338001314551
RSVPLG03,km,20251202-123448,1.0.2,20251202-094321,756,Experiment,Both,1,Automatic,main,41,20251202-123910,global,local,750,S,S,E,A,S-E.png,A-S.png,sS,sS,mask-3.png,mask-1.png,s,1,0.33520709979347885,h,0,0.04763550008647144,0.04821389983408153,0.04797509987838566,0.09892819984816015,0.09898789995349944,0.7497876000124961
RSVPLG03,km,20251202-123448,1.0.2,20251202-094321,756,Experiment,Both,1,Automatic,main,42,20251202-123915,local,local,750,S,S,A,A,A-S.png,A-S.png,sS,sS,mask-1.png,mask-2.png,s,1,0.6574411999899894,s,1,0.11513509997166693,0.049972299952059984,0.04970499989576638,0.10099279996939003,0.0996964001096785,0.7484800000675023
RSVPLG03,km,20251202-123448,1.0.2,20251202-094321,756,Experiment,Both,1,Automatic,main,43,20251202-123920,global,global,750,H,S,A,A,H-A.png,S-A.png,hH,sS,mask-4.png,mask-1.png,h,1,1.290930099785328,s,1,0.10682260012254119,0.051016699988394976,0.04989239992573857,0.10001609986647964,0.10014560003764927,0.74794159992598
RSVPLG03,km,20251202-123448,1.0.2,20251202-094321,756,Experiment,Both,1,Automatic,main,44,20251202-123925,global,local,300,S,S,A,A,S-A.png,A-S.png,sS,sS,mask-4.png,mask-2.png,s,1,0.37216119980439544,s,1,0.11644070013426244,0.04864070005714893,0.05088280001655221,0.09890510002151132,0.10023120022378862,0.29881139984354377
RSVPLG03,km,20251202-123448,1.0.2,20251202-094321,756,Experiment,Both,1,Automatic,main,45,20251202-123930,local,local,300,H,H,E,A,E-H.png,A-H.png,hH,hH,mask-3.png,mask-4.png,h,1,0.40550310001708567,h,1,0.0827991000842303,0.04991029994562268,0.05082830018363893,0.09996979986317456,0.10084820003248751,0.29839769983664155
RSVPLG03,km,20251202-123448,1.0.2,20251202-094321,756,Experiment,Both,1,Automatic,main,46,20251202-123934,global,local,300,H,H,E,E,H-E.png,E-H.png,hH,hH,mask-2.png,mask-4.png,h,1,0.6426945999264717,h,1,0.14522290020249784,0.04897280014120042,0.049594500102102757,0.09869899996556342,0.10030749998986721,0.29894770006649196
RSVPLG03,km,20251202-123448,1.0.2,20251202-094321,756,Experiment,Both,1,Automatic,main,47,20251202-123938,global,local,750,S,S,E,A,S-E.png,A-S.png,sS,sS,mask-3.png,mask-1.png,s,1,0.33878879994153976,s,1,0.17690320010297,0.05030540004372597,0.05041399993933737,0.10100680007599294,0.10044949990697205,0.7488015000708401
RSVPLG03,km,20251202-123448,1.0.2,20251202-094321,756,Experiment,Both,1,Automatic,main,48,20251202-123943,global,local,750,H,S,E,E,H-E.png,E-S.png,hH,sS,mask-1.png,mask-4.png,h,1,0.6421312000602484,s,1,0.06758540007285774,0.0499934998806566,0.05020139995031059,0.09905839990824461,0.10001529986038804,0.7480957000516355
RSVPLG03,km,20251202-123448,1.0.2,20251202-094321,756,Experiment,Both,1,Automatic,main,49,20251202-123948,global,global,300,S,S,A,E,S-A.png,S-E.png,sS,sS,mask-1.png,mask-4.png,s,1,0.377661099890247,s,1,0.17906869994476438,0.049734999891370535,0.05038979998789728,0.09979599993675947,0.10001770011149347,0.2998454999178648
RSVPLG03,km,20251202-123448,1.0.2,20251202-094321,756,Experiment,Both,1,Automatic,main,50,20251202-123952,local,global,750,S,H,E,A,E-S.png,H-A.png,sS,hH,mask-3.png,mask-3.png,s,1,0.58963040006347,h,1,0.023449999978765845,0.049825699999928474,0.049898199969902635,0.09933990007266402,0.09991380013525486,0.7483995000366122
RSVPLG03,km,20251202-123448,1.0.2,20251202-094321,756,Experiment,Both,1,Automatic,main,51,20251202-124000,local,global,750,H,S,E,A,E-H.png,S-A.png,hH,sS,mask-4.png,mask-1.png,s,0,0.3223170000128448,s,1,0.13558260002173483,0.0503475998993963,0.04776360001415014,0.10015890002250671,0.09987919987179339,0.7496476999949664
RSVPLG03,km,20251202-123448,1.0.2,20251202-094321,756,Experiment,Both,1,Automatic,main,52,20251202-124004,local,global,750,H,H,A,A,A-H.png,H-A.png,hH,hH,mask-4.png,mask-4.png,h,1,0.35436370014213026,h,1,0.09381360001862049,0.04918209998868406,0.05023079994134605,0.0984340999275446,0.10035830014385283,0.7478094999678433
RSVPLG03,km,20251202-123448,1.0.2,20251202-094321,756,Experiment,Both,1,Automatic,main,53,20251202-124009,local,global,750,H,S,A,E,A-H.png,S-E.png,hH,sS,mask-4.png,mask-4.png,h,1,0.2842025998979807,s,1,0.13929079985246062,0.04981200001202524,0.05093030002899468,0.09867469989694655,0.09892150014638901,0.7478300998918712
RSVPLG03,km,20251202-123448,1.0.2,20251202-094321,756,Experiment,Both,1,Automatic,main,54,20251202-124013,local,global,750,S,S,A,A,A-S.png,S-A.png,sS,sS,mask-4.png,mask-3.png,s,1,0.5565570001490414,s,1,0.06528199999593198,0.04950670013204217,0.05023199995048344,0.09734800015576184,0.09993449994362891,0.746849900111556
RSVPLG03,km,20251202-123448,1.0.2,20251202-094321,756,Experiment,Both,1,Automatic,main,55,20251202-124018,local,global,300,H,S,E,A,E-H.png,S-A.png,hH,sS,mask-3.png,mask-4.png,h,1,0.3896178000140935,s,1,0.03573950007557869,0.05017930013127625,0.04959090007469058,0.10010970011353493,0.09929380007088184,0.30020490009337664
RSVPLG03,km,20251202-123448,1.0.2,20251202-094321,756,Experiment,Both,1,Automatic,main,56,20251202-124022,global,local,300,S,S,A,A,S-A.png,A-S.png,sS,sS,mask-3.png,mask-1.png,s,1,1.5630258999299258,s,1,0.12337859999388456,0.04978909995406866,0.0499265999533236,0.09864320000633597,0.10022079991176724,0.29830590006895363
RSVPLG03,km,20251202-123448,1.0.2,20251202-094321,756,Experiment,Both,1,Automatic,main,57,20251202-124028,local,local,750,S,S,A,A,A-S.png,A-S.png,sS,sS,mask-2.png,mask-3.png,h,0,13.803175499895588,h,0,0.9163911000359803,0.04904710012488067,0.04866820015013218,0.10019130003638566,0.09976180014200509,0.7484255000017583
RSVPLG03,km,20251202-123448,1.0.2,20251202-094321,756,Experiment,Both,1,Automatic,main,58,20251202-124047,local,local,300,H,H,A,A,A-H.png,A-H.png,hH,hH,mask-1.png,mask-3.png,h,1,16.26899220002815,h,1,0.20104889990761876,0.04881140007637441,0.050165699794888496,0.09953530016355217,0.10092669981531799,0.29896570020355284
RSVPLG03,km,20251202-123448,1.0.2,20251202-094321,756,Experiment,Both,1,Automatic,main,59,20251202-124107,global,global,300,S,S,E,A,S-E.png,S-A.png,sS,sS,mask-4.png,mask-2.png,s,1,0.2785678000655025,s,1,0.13642210001125932,0.05003660009242594,0.05025239987298846,0.09916280000470579,0.09936939994804561,0.2982680001296103
RSVPLG03,km,20251202-123448,1.0.2,20251202-094321,756,Experiment,Both,1,Automatic,main,60,20251202-124111,local,global,750,H,H,E,A,E-H.png,H-A.png,hH,hH,mask-2.png,mask-3.png,h,1,0.45524429995566607,s,0,0.13096720003522933,0.05038500018417835,0.04903980018571019,0.09994390001520514,0.09911150019615889,0.7505803999956697
RSVPLG03,km,20251202-123448,1.0.2,20251202-094321,756,Experiment,Both,1,Automatic,main,61,20251202-124116,global,global,300,H,S,E,A,H-E.png,S-A.png,hH,sS,mask-2.png,mask-3.png,s,0,0.5921828998252749,s,1,0.11553250020369887,0.048053099773824215,0.0498027999419719,0.09970609983429313,0.0999635998159647,0.2978968999814242
RSVPLG03,km,20251202-123448,1.0.2,20251202-094321,756,Experiment,Both,1,Automatic,main,62,20251202-124120,local,local,750,H,S,E,E,E-H.png,E-S.png,hH,sS,mask-1.png,mask-1.png,h,1,0.37341439980082214,s,1,0.00896820006892085,0.0499609000980854,0.051329800160601735,0.10019340016879141,0.09994920017197728,0.7470501000061631
RSVPLG03,km,20251202-123448,1.0.2,20251202-094321,756,Experiment,Both,1,Automatic,main,63,20251202-124125,global,local,300,H,S,A,A,H-A.png,A-S.png,hH,sS,mask-1.png,mask-4.png,s,0,0.9410459001082927,h,0,0.13813779992051423,0.050055099884048104,0.049920300021767616,0.10106740007176995,0.09993260004557669,0.3001552999485284
RSVPLG03,km,20251202-123448,1.0.2,20251202-094321,756,Experiment,Both,1,Automatic,main,64,20251202-124130,global,local,750,S,S,A,A,S-A.png,A-S.png,sS,sS,mask-2.png,mask-3.png,h,0,1.2226196001283824,h,0,0.41156250005587935,0.04890930000692606,0.049622399965301156,0.10055210022255778,0.09963879990391433,0.7485882001928985
RSVPLG03,km,20251202-123448,1.0.2,20251202-094321,756,Experiment,Both,1,Automatic,main,65,20251202-124135,local,local,300,S,S,A,E,A-S.png,E-S.png,sS,sS,mask-4.png,mask-1.png,s,1,0.3660410998854786,s,1,0.17541699996218085,0.04965729988180101,0.04949610005132854,0.1007723999209702,0.09960590000264347,0.29989379993639886
RSVPLG03,km,20251202-123448,1.0.2,20251202-094321,756,Experiment,Both,1,Automatic,main,66,20251202-124140,local,global,300,S,S,E,E,E-S.png,S-E.png,sS,sS,mask-1.png,mask-4.png,s,1,0.33354080002754927,s,1,0.12065980001352727,0.05010530003346503,0.05026030004955828,0.09864869993180037,0.09997850004583597,0.29832529998384416
RSVPLG03,km,20251202-123448,1.0.2,20251202-094321,756,Experiment,Both,1,Automatic,main,67,20251202-124144,global,global,300,S,S,A,A,S-A.png,S-A.png,sS,sS,mask-4.png,mask-3.png,s,1,0.35886799986474216,s,1,0.173894900130108,0.049669599859043956,0.04982680012471974,0.09980199998244643,0.09969469998031855,0.29980059992522
RSVPLG03,km,20251202-123448,1.0.2,20251202-094321,756,Experiment,Both,1,Automatic,main,68,20251202-124148,local,global,300,S,H,E,E,E-S.png,H-E.png,sS,hH,mask-1.png,mask-3.png,s,1,0.3184968000277877,h,1,0.05407529999502003,0.048991600051522255,0.0509226000867784,0.09907640004530549,0.1001649999525398,0.2981920999009162
RSVPLG03,km,20251202-123448,1.0.2,20251202-094321,756,Experiment,Both,1,Automatic,main,69,20251202-124152,local,local,750,S,H,A,E,A-S.png,E-H.png,sS,hH,mask-1.png,mask-4.png,h,0,0.2413723999634385,s,0,0.16034239996224642,0.0503436999861151,0.04892139998264611,0.10058009997010231,0.09991740016266704,0.7506666998378932
RSVPLG03,km,20251202-123448,1.0.2,20251202-094321,756,Experiment,Both,1,Automatic,main,70,20251202-124157,local,global,300,S,S,A,A,A-S.png,S-A.png,sS,sS,mask-3.png,mask-3.png,s,1,0.3111175000667572,s,1,0.08948149997740984,0.05131409992463887,0.050846199970692396,0.10024890000931919,0.09934909990988672,0.2985430001281202
RSVPLG03,km,20251202-123448,1.0.2,20251202-094321,756,Experiment,Both,1,Automatic,main,71,20251202-124201,global,global,750,S,H,A,E,S-A.png,H-E.png,sS,hH,mask-4.png,mask-3.png,s,1,0.2556223999708891,h,1,0.02086249995045364,0.049843400018289685,0.05002239998430014,0.0988534998614341,0.10019420017488301,0.7481298998463899
RSVPLG03,km,20251202-123448,1.0.2,20251202-094321,756,Experiment,Both,1,Automatic,main,72,20251202-124205,local,global,300,H,S,A,E,A-H.png,S-E.png,hH,sS,mask-1.png,mask-1.png,h,1,0.490241999970749,s,1,0.08402200019918382,0.05000669998116791,0.04901130008511245,0.10010430007241666,0.09912859997712076,0.30067249992862344
RSVPLG03,km,20251202-123448,1.0.2,20251202-094321,756,Experiment,Both,1,Automatic,main,73,20251202-124209,local,local,750,S,H,E,A,E-S.png,A-H.png,sS,hH,mask-3.png,mask-1.png,s,1,0.27557729999534786,h,1,0.7804336999543011,0.05071970005519688,0.05068109999410808,0.10041150008328259,0.09968869993463159,0.7485388999339193
RSVPLG03,km,20251202-123448,1.0.2,20251202-094321,756,Experiment,Both,1,Automatic,main,74,20251202-124215,global,local,300,S,H,A,E,S-A.png,E-H.png,sS,hH,mask-1.png,mask-3.png,s,1,0.8719699000939727,h,1,0.4850527001544833,0.0498456999193877,0.05005339998751879,0.10010569985024631,0.09899089997634292,0.2999759998638183
RSVPLG03,km,20251202-123448,1.0.2,20251202-094321,756,Experiment,Both,1,Automatic,main,75,20251202-124220,global,global,300,H,S,E,A,H-E.png,S-A.png,hH,sS,mask-2.png,mask-1.png,h,1,0.6845968998968601,h,0,0.058353499975055456,0.049618300050497055,0.049665399827063084,0.09962540003471076,0.09966790000908077,0.2993921001907438
RSVPLG03,km,20251202-123448,1.0.2,20251202-094321,756,Experiment,Both,1,Automatic,main,76,20251202-124230,local,global,300,H,H,A,A,A-H.png,H-A.png,hH,hH,mask-1.png,mask-3.png,h,1,0.37313359999097884,s,0,0.010895000072196126,0.04935629991814494,0.05007359990850091,0.09935589996166527,0.1000025998800993,0.3004236000124365
RSVPLG03,km,20251202-123448,1.0.2,20251202-094321,756,Experiment,Both,1,Automatic,main,77,20251202-124234,global,local,750,H,H,E,A,H-E.png,A-H.png,hH,hH,mask-2.png,mask-4.png,h,1,0.8924304998945445,h,1,0.13923109997995198,0.04976109997369349,0.05047839996404946,0.09992289985530078,0.10047459998168051,0.7497077998705208
RSVPLG03,km,20251202-123448,1.0.2,20251202-094321,756,Experiment,Both,1,Automatic,main,78,20251202-124239,local,local,300,S,S,A,E,A-S.png,E-S.png,sS,sS,mask-3.png,mask-3.png,s,1,0.4377681000623852,s,1,0.08161460002884269,0.05080879991874099,0.051018500002101064,0.09911379986442626,0.10073529998771846,0.2987839998677373
RSVPLG03,km,20251202-123448,1.0.2,20251202-094321,756,Experiment,Both,1,Automatic,main,79,20251202-124243,local,local,300,S,S,A,E,A-S.png,E-S.png,sS,sS,mask-1.png,mask-1.png,h,0,0.49831779999658465,h,0,0.18554440001025796,0.0498649999499321,0.04956290009431541,0.10004070005379617,0.09976100013591349,0.30035849986597896
RSVPLG03,km,20251202-123448,1.0.2,20251202-094321,756,Experiment,Both,1,Automatic,main,80,20251202-124247,local,global,300,H,S,A,A,A-H.png,S-A.png,hH,sS,mask-2.png,mask-4.png,h,1,0.4892247999086976,s,1,0.06498859985731542,0.050801899982616305,0.04859989997930825,0.10003209998831153,0.09932260005734861,0.30045740003697574
RSVPLG03,km,20251202-123448,1.0.2,20251202-094321,756,Experiment,Both,1,Automatic,main,81,20251202-124252,global,global,750,S,S,E,E,S-E.png,S-E.png,sS,sS,mask-4.png,mask-4.png,s,1,0.3028067999985069,s,1,0.11137230019085109,0.049889600137248635,0.05002569989301264,0.09995239996351302,0.10082629998214543,0.7480635000392795
RSVPLG03,km,20251202-123448,1.0.2,20251202-094321,756,Experiment,Both,1,Automatic,main,82,20251202-124256,global,global,300,S,S,E,E,S-E.png,S-E.png,sS,sS,mask-1.png,mask-3.png,s,1,0.6667096000164747,s,1,0.10435990011319518,0.04883590014651418,0.04796839994378388,0.09880460007116199,0.09964199992828071,0.2996470001526177
RSVPLG03,km,20251202-123448,1.0.2,20251202-094321,756,Experiment,Both,1,Automatic,main,83,20251202-124301,global,global,300,H,S,A,E,H-A.png,S-E.png,hH,sS,mask-1.png,mask-2.png,h,1,0.31901079998351634,s,1,0.12052579992450774,0.04901149985380471,0.04955949983559549,0.09834209992550313,0.10116009996272624,0.2976699999999255
RSVPLG03,km,20251202-123448,1.0.2,20251202-094321,756,Experiment,Both,1,Automatic,main,84,20251202-124305,global,local,750,S,S,E,E,S-E.png,E-S.png,sS,sS,mask-4.png,mask-2.png,s,1,0.1615280001424253,s,1,0.1567230001091957,0.04835130018182099,0.048892199993133545,0.09931339998729527,0.09997739992104471,0.7482064000796527
RSVPLG03,km,20251202-123448,1.0.2,20251202-094321,756,Experiment,Both,1,Automatic,main,85,20251202-124309,global,global,300,S,S,A,E,S-A.png,S-E.png,sS,sS,mask-4.png,mask-2.png,s,1,0.3642991001252085,s,1,0.20842369995079935,0.0508030999917537,0.04968489985913038,0.1006723998580128,0.09939639992080629,0.3007141000125557
RSVPLG03,km,20251202-123448,1.0.2,20251202-094321,756,Experiment,Both,1,Automatic,main,86,20251202-124313,global,local,750,H,H,E,A,H-E.png,A-H.png,hH,hH,mask-3.png,mask-2.png,h,1,0.3101015000138432,h,1,0.1209668000228703,0.04886139999143779,0.04991359985433519,0.09974719979800284,0.09898059978149831,0.7499708000104874
RSVPLG03,km,20251202-123448,1.0.2,20251202-094321,756,Experiment,Both,1,Automatic,main,87,20251202-124318,global,global,750,S,S,A,A,S-A.png,S-A.png,sS,sS,mask-2.png,mask-3.png,s,1,0.2619412997737527,s,1,0.12718619988299906,0.048859399976208806,0.05145010002888739,0.09896479989401996,0.10161580005660653,0.7468426998239011
RSVPLG03,km,20251202-123448,1.0.2,20251202-094321,756,Experiment,Both,1,Automatic,main,88,20251202-124322,local,local,300,S,H,E,A,E-S.png,A-H.png,sS,hH,mask-3.png,mask-1.png,s,1,0.41382210003212094,h,1,0.07043839991092682,0.049916500225663185,0.04893739987164736,0.09992960002273321,0.09956689993850887,0.29879600019194186
RSVPLG03,km,20251202-123448,1.0.2,20251202-094321,756,Experiment,Both,1,Automatic,main,89,20251202-124327,global,global,750,H,S,A,A,H-A.png,S-A.png,hH,sS,mask-3.png,mask-2.png,h,1,0.10221929987892509,s,1,0.0801140998955816,0.050179299898445606,0.04805719992145896,0.1007965998724103,0.0981960000935942,0.7511986999306828
RSVPLG03,km,20251202-123448,1.0.2,20251202-094321,756,Experiment,Both,1,Automatic,main,90,20251202-124331,local,global,750,H,H,A,A,A-H.png,H-A.png,hH,hH,mask-2.png,mask-3.png,h,1,0.35855719982646406,h,1,0.07424500002525747,0.0499654000159353,0.050050599966198206,0.09867650014348328,0.09919409989379346,0.7482065001968294
RSVPLG03,km,20251202-123448,1.0.2,20251202-094321,756,Experiment,Both,1,Automatic,main,91,20251202-124336,global,global,750,S,H,A,A,S-A.png,H-A.png,sS,hH,mask-3.png,mask-2.png,s,1,0.3380702999420464,h,1,0.6513131000101566,0.04905929998494685,0.04975649993866682,0.09847339987754822,0.09963579988107085,0.7493644999340177
RSVPLG03,km,20251202-123448,1.0.2,20251202-094321,756,Experiment,Both,1,Automatic,main,92,20251202-124341,global,local,300,H,S,A,E,H-A.png,E-S.png,hH,sS,mask-4.png,mask-3.png,h,1,0.7178146000951529,s,1,0.4889217000454664,0.0503630000166595,0.049443399999290705,0.09933110000565648,0.09991590003482997,0.2995421998202801
RSVPLG03,km,20251202-123448,1.0.2,20251202-094321,756,Experiment,Both,1,Automatic,main,93,20251202-124346,global,local,750,S,H,E,E,S-E.png,E-H.png,sS,hH,mask-2.png,mask-4.png,s,1,0.4243207999970764,s,0,0.11902150022797287,0.04961180011741817,0.04873710009269416,0.09960640012286603,0.09855860006064177,0.750466600060463
RSVPLG03,km,20251202-123448,1.0.2,20251202-094321,756,Experiment,Both,1,Automatic,main,94,20251202-124350,global,local,750,H,H,E,A,H-E.png,A-H.png,hH,hH,mask-4.png,mask-3.png,h,1,0.4705197000876069,s,0,0.1441556999925524,0.04976679990068078,0.0498840999789536,0.09990489995107055,0.09988550003618002,0.7495261000003666
RSVPLG03,km,20251202-123448,1.0.2,20251202-094321,756,Experiment,Both,1,Automatic,main,95,20251202-124355,global,global,300,S,S,A,A,S-A.png,S-A.png,sS,sS,mask-4.png,mask-4.png,s,1,0.29693349986337125,s,1,0.12748839985579252,0.050116100115701556,0.05018620006740093,0.10014059999957681,0.0999456001445651,0.29885110002942383
RSVPLG03,km,20251202-123448,1.0.2,20251202-094321,756,Experiment,Both,1,Automatic,main,96,20251202-124359,global,global,300,H,S,A,E,H-A.png,S-E.png,hH,sS,mask-1.png,mask-4.png,h,1,0.7641792998183519,s,1,0.039166699862107635,0.04885589983314276,0.05066379997879267,0.09967879997566342,0.10062799998559058,0.2976106000132859
RSVPLG03,km,20251202-123448,1.0.2,20251202-094321,756,Experiment,Both,1,Automatic,main,97,20251202-124404,global,local,300,S,S,E,A,S-E.png,A-S.png,sS,sS,mask-2.png,mask-1.png,s,1,0.42746290005743504,h,0,0.5392114000860602,0.05065259989351034,0.04847809998318553,0.09965169988572598,0.09977139998227358,0.3008389000315219
RSVPLG03,km,20251202-123448,1.0.2,20251202-094321,756,Experiment,Both,1,Automatic,main,98,20251202-124408,global,local,750,S,S,E,A,S-E.png,A-S.png,sS,sS,mask-4.png,mask-3.png,s,1,0.2991291999351233,s,1,0.13108540000393987,0.050252499990165234,0.04879789985716343,0.0988449000287801,0.09921310003846884,0.7484122000169009
RSVPLG03,km,20251202-123448,1.0.2,20251202-094321,756,Experiment,Both,1,Automatic,main,99,20251202-124412,global,global,750,S,H,A,A,S-A.png,H-A.png,sS,hH,mask-4.png,mask-4.png,s,1,0.48823200003243983,h,1,0.0140258998144418,0.050557499984279275,0.04708430008031428,0.0998771998565644,0.09711159998551011,0.7509335998911411
RSVPLG03,km,20251202-123448,1.0.2,20251202-094321,756,Experiment,Both,1,Automatic,main,100,20251202-124417,local,global,750,H,H,A,E,A-H.png,H-E.png,hH,hH,mask-2.png,mask-2.png,h,1,0.2084292999934405,s,0,0.022007800173014402,0.050027500139549375,0.052298299968242645,0.10021200007759035,0.10148430010303855,0.7465973000507802
