exp,exp_initials,runtime,ver,modtime,sub,blocktype,targets,cuetype,mode,trialtype,trial,trialtime,t1_level,t2_level,t2_lag,t1,t2,distractor1,distractor2,stimfile1,stimfile2,t1_corr,t2_corr,maskfile1,maskfile2,t1_resp,t1_acc,t1_rt,t2_resp,t2_acc,t2_rt,t1_dur,t2_dur,t1mask_soa,t2mask_soa,t1t2_soa
RSVPLG03,MR,20251014-092804,1.0.1,20251014-090324,702,Practice,T1,1,Automatic,main,1,20251014-092909,local,global,750,H,H,E,E,E-H.png,H-E.png,hH,hH,mask-4.png,mask-4.png,s,0,2.2751998000312597,none,-5,0,0.043063699966296554,0.048539499985054135,0.09278129995800555,0.09951830003410578,0.7433394999243319
RSVPLG03,MR,20251014-092804,1.0.1,20251014-090324,702,Practice,T1,1,Automatic,main,2,20251014-092916,local,local,300,H,S,A,E,A-H.png,E-S.png,hH,sS,mask-2.png,mask-2.png,h,1,0.7508205000776798,none,-5,0,0.04887899989262223,0.04932260001078248,0.0990404998883605,0.09959629992954433,0.30006589996628463
RSVPLG03,MR,20251014-092804,1.0.1,20251014-090324,702,Practice,T1,1,Automatic,main,3,20251014-092920,local,local,750,H,H,E,E,E-H.png,E-H.png,hH,hH,mask-3.png,mask-2.png,h,1,1.1592687000520527,none,-5,0,0.04896619985811412,0.051079099997878075,0.09909479995258152,0.10080350004136562,0.7464170998428017
RSVPLG03,MR,20251014-092804,1.0.1,20251014-090324,702,Practice,T1,1,Automatic,main,4,20251014-092925,global,local,300,S,S,A,E,S-A.png,E-S.png,sS,sS,mask-1.png,mask-1.png,s,1,0.8923669999931008,none,-5,0,0.049637299962341785,0.04929160000756383,0.1001031999476254,0.09791429992765188,0.30085460003465414
RSVPLG03,MR,20251014-092804,1.0.1,20251014-090324,702,Practice,T1,1,Automatic,main,5,20251014-092929,local,global,750,H,H,E,A,E-H.png,H-A.png,hH,hH,mask-2.png,mask-4.png,h,1,0.4679011998232454,none,-5,0,0.04929880006238818,0.051101200049743056,0.09902950003743172,0.10145299998112023,0.7474293999839574
RSVPLG03,MR,20251014-092804,1.0.1,20251014-090324,702,Practice,T1,1,Automatic,main,6,20251014-092934,global,local,750,H,S,E,E,H-E.png,E-S.png,hH,sS,mask-4.png,mask-1.png,s,0,0.8689091000705957,none,-5,0,0.050212200032547116,0.05138860014267266,0.10106360004283488,0.09995059994980693,0.7497652999591082
RSVPLG03,MR,20251014-092804,1.0.1,20251014-090324,702,Practice,T1,1,Automatic,main,7,20251014-092939,global,global,750,S,S,A,E,S-A.png,S-E.png,sS,sS,mask-4.png,mask-3.png,s,1,0.8824477000162005,none,-5,0,0.04770749993622303,0.048912599915638566,0.09902779990807176,0.0992221999913454,0.7485321999993175
RSVPLG03,MR,20251014-092804,1.0.1,20251014-090324,702,Practice,T1,1,Automatic,main,8,20251014-092943,local,global,300,S,H,A,E,A-S.png,H-E.png,sS,hH,mask-1.png,mask-2.png,s,1,1.0590762998908758,none,-5,0,0.050162100000306964,0.05042179999873042,0.10044270008802414,0.10068959998898208,0.2985421000048518
RSVPLG03,MR,20251014-092804,1.0.1,20251014-090324,702,Practice,T1,1,Automatic,main,9,20251014-092948,global,global,750,S,S,A,E,S-A.png,S-E.png,sS,sS,mask-4.png,mask-2.png,s,1,0.5432700999081135,none,-5,0,0.050254200119525194,0.04844580008648336,0.09950700006447732,0.09928369987756014,0.7479787000920624
RSVPLG03,MR,20251014-092804,1.0.1,20251014-090324,702,Practice,T1,1,Automatic,main,10,20251014-092953,local,local,750,H,H,E,A,E-H.png,A-H.png,hH,hH,mask-4.png,mask-2.png,h,1,0.22139339987188578,none,-5,0,0.050512999994680285,0.049000500002875924,0.10065939999185503,0.10010569985024631,0.7485986000392586
RSVPLG03,MR,20251014-092804,1.0.1,20251014-090324,702,Practice,T1,1,Automatic,main,11,20251014-092957,global,global,300,H,H,E,A,H-E.png,H-A.png,hH,hH,mask-4.png,mask-4.png,h,1,0.26324149989522994,none,-5,0,0.047835899982601404,0.050075999926775694,0.09887779993005097,0.09967819997109473,0.29762069997377694
RSVPLG03,MR,20251014-092804,1.0.1,20251014-090324,702,Practice,T1,1,Automatic,main,12,20251014-093001,global,local,750,S,H,E,E,S-E.png,E-H.png,sS,hH,mask-1.png,mask-4.png,s,1,0.45056100003421307,none,-5,0,0.0493588000535965,0.049066999927163124,0.0999694000929594,0.09997109998948872,0.7480586001183838
RSVPLG03,MR,20251014-092804,1.0.1,20251014-090324,702,Practice,T1,1,Automatic,main,13,20251014-093005,global,local,300,H,H,A,A,H-A.png,A-H.png,hH,hH,mask-1.png,mask-1.png,h,1,1.5329295000992715,none,-5,0,0.050147200003266335,0.04961870005354285,0.10016660019755363,0.10022130003198981,0.29952090000733733
RSVPLG03,MR,20251014-092804,1.0.1,20251014-090324,702,Practice,T1,1,Automatic,main,14,20251014-093010,local,local,300,H,S,E,A,E-H.png,A-S.png,hH,sS,mask-1.png,mask-3.png,h,1,1.0051725001540035,none,-5,0,0.05089049995876849,0.050402000080794096,0.10047259996645153,0.10027429996989667,0.29860849981196225
RSVPLG03,MR,20251014-092804,1.0.1,20251014-090324,702,Practice,T1,1,Automatic,main,15,20251014-093014,global,global,300,H,H,E,E,H-E.png,H-E.png,hH,hH,mask-4.png,mask-3.png,h,1,0.8328466000966728,none,-5,0,0.049213599879294634,0.04971559997648001,0.09896049997769296,0.09855969995260239,0.2990870999637991
RSVPLG03,MR,20251014-092804,1.0.1,20251014-090324,702,Practice,T1,1,Automatic,main,16,20251014-093019,local,global,300,H,S,E,A,E-H.png,S-A.png,hH,sS,mask-2.png,mask-3.png,s,0,2.4560960000380874,none,-5,0,0.05075069982558489,0.05146220000460744,0.09995179995894432,0.10117690009064972,0.2984901999589056
RSVPLG03,MR,20251014-093100,1.0.1,20251014-090324,702,Practice,T1,1,Automatic,main,1,20251014-093137,global,local,300,S,H,E,E,S-E.png,E-H.png,sS,hH,mask-4.png,mask-1.png,s,1,1.2002529001329094,none,-5,0,0.04799479991197586,0.04942660010419786,0.0991132000926882,0.09975060005672276,0.2990325998980552
RSVPLG03,MR,20251014-093100,1.0.1,20251014-090324,702,Practice,T1,1,Automatic,main,2,20251014-093141,local,local,750,H,H,A,E,A-H.png,E-H.png,hH,hH,mask-4.png,mask-4.png,h,1,0.5101838000118732,none,-5,0,0.05022950004786253,0.049315999960526824,0.09952790010720491,0.09908100008033216,0.7501276000402868
RSVPLG03,MR,20251014-093100,1.0.1,20251014-090324,702,Practice,T1,1,Automatic,main,3,20251014-093146,local,global,750,S,H,E,E,E-S.png,H-E.png,sS,hH,mask-3.png,mask-3.png,s,1,0.43661569990217686,none,-5,0,0.04881620011292398,0.04917580005712807,0.1012889000121504,0.0999515000730753,0.7507682000286877
RSVPLG03,MR,20251014-093100,1.0.1,20251014-090324,702,Practice,T1,1,Automatic,main,4,20251014-093150,global,local,750,S,S,E,E,S-E.png,E-S.png,sS,sS,mask-2.png,mask-4.png,s,1,0.7283993000164628,none,-5,0,0.05007799994200468,0.04996040021069348,0.09888670011423528,0.09993710019625723,0.7504302999004722
RSVPLG03,MR,20251014-093100,1.0.1,20251014-090324,702,Practice,T1,1,Automatic,main,5,20251014-093155,local,global,750,S,H,E,A,E-S.png,H-A.png,sS,hH,mask-3.png,mask-4.png,s,1,0.3989983999636024,none,-5,0,0.04823240009136498,0.05031109997071326,0.09891040017828345,0.09956460003741086,0.7494821001309901
RSVPLG03,MR,20251014-093100,1.0.1,20251014-090324,702,Practice,T1,1,Automatic,main,6,20251014-093159,local,global,300,H,S,A,A,A-H.png,S-A.png,hH,sS,mask-2.png,mask-2.png,h,1,0.7085587999317795,none,-5,0,0.04911820008419454,0.05048030009493232,0.09942920017056167,0.10077700018882751,0.2994415999855846
RSVPLG03,MR,20251014-093100,1.0.1,20251014-090324,702,Practice,T1,1,Automatic,main,7,20251014-093204,global,global,750,S,S,A,E,S-A.png,S-E.png,sS,sS,mask-1.png,mask-1.png,s,1,0.5033929001074284,none,-5,0,0.05018749996088445,0.04956829990260303,0.10002290015108883,0.10108599998056889,0.7505102001596242
RSVPLG03,MR,20251014-093100,1.0.1,20251014-090324,702,Practice,T1,1,Automatic,main,8,20251014-093208,global,global,300,S,S,E,A,S-E.png,S-A.png,sS,sS,mask-4.png,mask-1.png,s,1,0.8497981999535114,none,-5,0,0.05029119993560016,0.0515389998909086,0.10131970001384616,0.10061510000377893,0.30013850005343556
RSVPLG03,MR,20251014-093100,1.0.1,20251014-090324,702,Practice,T1,1,Automatic,main,9,20251014-093212,global,local,750,S,S,E,E,S-E.png,E-S.png,sS,sS,mask-2.png,mask-2.png,s,1,2.072595300152898,none,-5,0,0.04884269996546209,0.050539900083094835,0.09929990000091493,0.10110760014504194,0.748668999876827
RSVPLG03,MR,20251014-093100,1.0.1,20251014-090324,702,Practice,T1,1,Automatic,main,10,20251014-093218,global,global,750,H,H,E,A,H-E.png,H-A.png,hH,hH,mask-3.png,mask-1.png,h,1,0.34995690011419356,none,-5,0,0.04889299999922514,0.049686500104144216,0.09920149995014071,0.09977590013295412,0.7495485998224467
RSVPLG03,MR,20251014-093100,1.0.1,20251014-090324,702,Practice,T1,1,Automatic,main,11,20251014-093223,global,global,300,S,S,E,A,S-E.png,S-A.png,sS,sS,mask-1.png,mask-1.png,s,1,0.511887300061062,none,-5,0,0.049508700147271156,0.04997699987143278,0.10100769996643066,0.09773069992661476,0.30161890015006065
RSVPLG03,MR,20251014-093100,1.0.1,20251014-090324,702,Practice,T1,1,Automatic,main,12,20251014-093227,local,local,750,S,H,A,A,A-S.png,A-H.png,sS,hH,mask-4.png,mask-1.png,s,1,0.6478377999737859,none,-5,0,0.05004499992355704,0.05085070012137294,0.10007319995202124,0.10008290014229715,0.750547899864614
RSVPLG03,MR,20251014-093100,1.0.1,20251014-090324,702,Practice,T1,1,Automatic,main,13,20251014-093231,global,local,300,S,H,E,A,S-E.png,A-H.png,sS,hH,mask-1.png,mask-4.png,s,1,0.9602591001894325,none,-5,0,0.05015409993939102,0.050043399911373854,0.09992130007594824,0.10072799981571734,0.2999029001221061
RSVPLG03,MR,20251014-093100,1.0.1,20251014-090324,702,Practice,T1,1,Automatic,main,14,20251014-093236,local,local,300,H,S,A,E,A-H.png,E-S.png,hH,sS,mask-4.png,mask-2.png,h,1,0.6494307999964803,none,-5,0,0.04910250008106232,0.04981490015052259,0.09828849998302758,0.09987600008025765,0.2977817999199033
RSVPLG03,MR,20251014-093100,1.0.1,20251014-090324,702,Practice,T1,1,Automatic,main,15,20251014-093240,local,local,300,S,S,A,A,A-S.png,A-S.png,sS,sS,mask-1.png,mask-2.png,s,1,0.6768163000233471,none,-5,0,0.0506160999648273,0.04900830006226897,0.1007955998647958,0.09914819989353418,0.30079849995672703
RSVPLG03,MR,20251014-093100,1.0.1,20251014-090324,702,Practice,T1,1,Automatic,main,16,20251014-093244,local,global,300,H,H,E,A,E-H.png,H-A.png,hH,hH,mask-2.png,mask-4.png,h,1,0.8017351999878883,none,-5,0,0.04900530003942549,0.04924429999664426,0.10030509997159243,0.10070269997231662,0.2997767999768257
RSVPLG03,MR,20251014-093357,1.0.1,20251014-090324,702,Practice,Both,1,Automatic,main,1,20251014-093425,global,local,750,H,S,E,E,H-E.png,E-S.png,hH,sS,mask-2.png,mask-4.png,s,0,1.27810849994421,h,0,2.3317466999869794,0.05017439997754991,0.050471500027924776,0.09820739994756877,0.1008073000703007,0.7484877000097185
RSVPLG03,MR,20251014-093357,1.0.1,20251014-090324,702,Practice,Both,1,Automatic,main,2,20251014-093433,local,local,300,S,H,A,E,A-S.png,E-H.png,sS,hH,mask-4.png,mask-1.png,h,0,4.183843099977821,s,0,1.359488100046292,0.05011199996806681,0.048871400067582726,0.10102639999240637,0.09944309992715716,0.30119859986007214
RSVPLG03,MR,20251014-093357,1.0.1,20251014-090324,702,Practice,Both,1,Automatic,main,3,20251014-093442,local,local,750,H,H,E,E,E-H.png,E-H.png,hH,hH,mask-1.png,mask-1.png,h,1,1.803762000054121,s,0,1.8395630000159144,0.051086199935525656,0.05082829995080829,0.10005659982562065,0.10183349996805191,0.751709199976176
RSVPLG03,MR,20251014-093357,1.0.1,20251014-090324,702,Practice,Both,1,Automatic,main,4,20251014-093450,global,local,750,H,H,E,A,H-E.png,A-H.png,hH,hH,mask-2.png,mask-2.png,h,1,0.6616739998571575,h,1,1.5373620998580009,0.05124549986794591,0.04794519999995828,0.10181299992837012,0.09964049980044365,0.752600200008601
RSVPLG03,MR,20251014-093357,1.0.1,20251014-090324,702,Practice,Both,1,Automatic,main,5,20251014-093456,local,global,750,H,S,A,A,A-H.png,S-A.png,hH,sS,mask-3.png,mask-2.png,h,1,1.5485473000444472,h,0,0.5065975999459624,0.05130159994587302,0.05005210009403527,0.10051280003972352,0.10173430014401674,0.7506152999121696
RSVPLG03,MR,20251014-093357,1.0.1,20251014-090324,702,Practice,Both,1,Automatic,main,6,20251014-093502,local,local,750,S,S,A,A,A-S.png,A-S.png,sS,sS,mask-4.png,mask-2.png,h,0,1.6225539001170546,s,1,0.0864977000746876,0.05002470011822879,0.04822559980675578,0.10011070012114942,0.09788759984076023,0.7531966001261026
RSVPLG03,MR,20251014-093357,1.0.1,20251014-090324,702,Practice,Both,1,Automatic,main,7,20251014-093508,global,global,300,S,H,A,A,S-A.png,H-A.png,sS,hH,mask-4.png,mask-3.png,s,1,3.415509099839255,h,1,2.4643924001138657,0.052342000184580684,0.049787200056016445,0.10026470012962818,0.1000798000022769,0.3017818001098931
RSVPLG03,MR,20251014-093357,1.0.1,20251014-090324,702,Practice,Both,1,Automatic,main,8,20251014-093518,global,local,300,H,S,E,A,H-E.png,A-S.png,hH,sS,mask-1.png,mask-2.png,h,1,4.167440900113434,s,1,0.6565457000397146,0.051839400082826614,0.049725300166755915,0.10035480000078678,0.099885200150311,0.3013464999385178
RSVPLG03,MR,20251014-093357,1.0.1,20251014-090324,702,Practice,Both,1,Automatic,main,9,20251014-093526,local,local,300,S,S,A,A,A-S.png,A-S.png,sS,sS,mask-3.png,mask-1.png,s,1,2.154832199914381,s,1,0.16261460003443062,0.051622499944642186,0.049130700062960386,0.10103449993766844,0.10051069990731776,0.3008482998702675
RSVPLG03,MR,20251014-093357,1.0.1,20251014-090324,702,Practice,Both,1,Automatic,main,10,20251014-093532,global,local,300,H,H,A,E,H-A.png,E-H.png,hH,hH,mask-4.png,mask-3.png,h,1,2.6157035999931395,s,0,0.03138349996879697,0.04921910003758967,0.04934619995765388,0.1002946998924017,0.09945669979788363,0.3012155001051724
RSVPLG03,MR,20251014-093357,1.0.1,20251014-090324,702,Practice,Both,1,Automatic,main,11,20251014-093538,local,global,300,H,H,A,E,A-H.png,H-E.png,hH,hH,mask-2.png,mask-1.png,s,0,2.19669650006108,s,0,0.16762379999272525,0.04877290013246238,0.0501331000123173,0.09892040002159774,0.09863370005041361,0.30087999999523163
RSVPLG03,MR,20251014-093357,1.0.1,20251014-090324,702,Practice,Both,1,Automatic,main,12,20251014-093544,global,global,750,H,H,A,A,H-A.png,H-A.png,hH,hH,mask-4.png,mask-1.png,s,0,1.6140009998343885,h,1,0.026259399950504303,0.049532300094142556,0.05172750004567206,0.09883060003630817,0.10015239985659719,0.7493090000934899
RSVPLG03,MR,20251014-093357,1.0.1,20251014-090324,702,Practice,Both,1,Automatic,main,13,20251014-093550,global,global,300,S,S,A,E,S-A.png,S-E.png,sS,sS,mask-3.png,mask-1.png,h,0,1.663850799901411,s,1,0.071900499984622,0.05093180015683174,0.049957399955019355,0.10097140003927052,0.09966169996187091,0.30216210009530187
RSVPLG03,MR,20251014-093357,1.0.1,20251014-090324,702,Practice,Both,1,Automatic,main,14,20251014-093555,local,global,300,S,S,A,E,A-S.png,S-E.png,sS,sS,mask-2.png,mask-3.png,h,0,4.549099999945611,s,1,0.22111809998750687,0.05027549993246794,0.050136900041252375,0.09918999997898936,0.10075840004719794,0.2993471999652684
RSVPLG03,MR,20251014-093357,1.0.1,20251014-090324,702,Practice,Both,1,Automatic,main,15,20251014-093604,local,global,750,H,S,A,A,A-H.png,S-A.png,hH,sS,mask-4.png,mask-3.png,s,0,2.678347500041127,s,1,0.3632364999502897,0.048929099924862385,0.04932849993929267,0.09914219984784722,0.10001530009321868,0.7503289999440312
RSVPLG03,MR,20251014-093357,1.0.1,20251014-090324,702,Practice,Both,1,Automatic,main,16,20251014-093611,global,global,750,H,H,E,A,H-E.png,H-A.png,hH,hH,mask-4.png,mask-1.png,h,1,2.250654000090435,s,0,0.10621159989386797,0.05026960000395775,0.04964699991978705,0.0993051000405103,0.09992639999836683,0.7501606000587344
RSVPLG03,MR,20251014-093717,1.0.1,20251014-090324,702,Introduction,Both,1,Automatic,main,1,20251014-093758,global,local,750,S,H,A,E,S-A.png,E-H.png,sS,hH,mask-3.png,mask-3.png,s,1,1.8754981001839042,h,1,0.009015799965709448,0.0968414000235498,0.09913530014455318,0.1972334000747651,0.19823900004848838,0.7539866999723017
RSVPLG03,MR,20251014-093717,1.0.1,20251014-090324,702,Introduction,Both,1,Automatic,main,2,20251014-093804,local,local,750,H,S,E,E,E-H.png,E-S.png,hH,sS,mask-1.png,mask-4.png,h,1,1.2538316999562085,h,0,0.056869500083848834,0.09797180001623929,0.10032059997320175,0.19704839983023703,0.1977967000566423,0.755301599856466
RSVPLG03,MR,20251014-093717,1.0.1,20251014-090324,702,Introduction,Both,1,Automatic,main,3,20251014-093810,local,local,750,H,H,A,E,A-H.png,E-H.png,hH,hH,mask-2.png,mask-2.png,h,1,2.7230438999831676,s,0,0.001254800008609891,0.09691620012745261,0.0989260000642389,0.19581970013678074,0.19661780004389584,0.7545692001003772
RSVPLG03,MR,20251014-093717,1.0.1,20251014-090324,702,Introduction,Both,1,Automatic,main,4,20251014-093817,global,global,750,H,S,A,A,H-A.png,S-A.png,hH,sS,mask-3.png,mask-4.png,h,1,3.0119533999823034,s,1,1.4013312000315636,0.09931210009381175,0.0987593000754714,0.19889470003545284,0.19767199992202222,0.755507200025022
RSVPLG03,MR,20251014-093717,1.0.1,20251014-090324,702,Introduction,Both,1,Automatic,main,5,20251014-093825,global,global,750,S,H,E,A,S-E.png,H-A.png,sS,hH,mask-1.png,mask-1.png,s,1,1.4422461001668125,h,1,0.3774914999958128,0.09950340003706515,0.0989463001023978,0.19755010004155338,0.19706180016510189,0.7562253999058157
RSVPLG03,MR,20251014-093717,1.0.1,20251014-090324,702,Introduction,Both,1,Automatic,main,6,20251014-093831,local,global,750,H,S,A,E,A-H.png,S-E.png,hH,sS,mask-1.png,mask-1.png,h,1,1.8310990000609308,s,1,2.669533299980685,0.09767620009370148,0.0991410999558866,0.1968088001012802,0.19812959991395473,0.754688800079748
RSVPLG03,MR,20251014-093717,1.0.1,20251014-090324,702,Introduction,Both,1,Automatic,main,7,20251014-093840,global,global,750,S,S,E,E,S-E.png,S-E.png,sS,sS,mask-3.png,mask-3.png,s,1,1.733839999884367,h,0,1.9766185998450965,0.09807690000161529,0.09681040002033114,0.1960422999691218,0.19649769994430244,0.7566048000007868
RSVPLG03,MR,20251014-093717,1.0.1,20251014-090324,702,Introduction,Both,1,Automatic,main,8,20251014-093848,local,global,750,S,H,A,A,A-S.png,H-A.png,sS,hH,mask-1.png,mask-4.png,s,1,2.07340700016357,h,1,0.6806431000586599,0.09810460009612143,0.09983159997500479,0.19850910012610257,0.19831079989671707,0.7550127001013607
RSVPLG03,MR,20251014-093717,1.0.1,20251014-090324,702,Introduction,Both,1,Automatic,main,9,20251014-093855,global,global,750,H,S,A,A,H-A.png,S-A.png,hH,sS,mask-1.png,mask-3.png,s,0,1.9793606998864561,h,0,0.289355400018394,0.09903460019268095,0.09708000021055341,0.1966431001201272,0.19720809999853373,0.7573037999682128
RSVPLG03,MR,20251014-093717,1.0.1,20251014-090324,702,Introduction,Both,1,Automatic,main,10,20251014-093902,local,local,750,S,S,A,A,A-S.png,A-S.png,sS,sS,mask-1.png,mask-1.png,s,1,0.697945199906826,s,1,0.08674780000001192,0.09754280000925064,0.09803330013528466,0.19690100010484457,0.19665300007909536,0.755317399976775
RSVPLG03,MR,20251014-093717,1.0.1,20251014-090324,702,Introduction,Both,1,Automatic,main,11,20251014-093907,local,global,750,H,S,A,A,A-H.png,S-A.png,hH,sS,mask-3.png,mask-4.png,s,0,2.749015900073573,s,1,0.08945870003663003,0.10131089994683862,0.09683699999004602,0.19934519985690713,0.1954964001197368,0.757455499842763
RSVPLG03,MR,20251014-093717,1.0.1,20251014-090324,702,Introduction,Both,1,Automatic,main,12,20251014-093914,local,local,750,H,S,A,A,A-H.png,A-S.png,hH,sS,mask-3.png,mask-4.png,h,1,1.7424586999695748,s,1,0.04840560001321137,0.09927730006165802,0.09763340000063181,0.19839799986220896,0.19663519994355738,0.757311400026083
RSVPLG03,MR,20251014-093717,1.0.1,20251014-090324,702,Introduction,Both,1,Automatic,main,13,20251014-093920,global,local,750,S,H,E,E,S-E.png,E-H.png,sS,hH,mask-1.png,mask-2.png,s,1,1.899902099976316,h,1,0.5560308999847621,0.09903339995071292,0.09743320010602474,0.19928069994784892,0.19649080000817776,0.7568121999502182
RSVPLG03,MR,20251014-093717,1.0.1,20251014-090324,702,Introduction,Both,1,Automatic,main,14,20251014-093926,local,global,750,H,S,E,E,E-H.png,S-E.png,hH,sS,mask-4.png,mask-2.png,h,1,1.8509041001088917,s,1,0.01648709992878139,0.09765319991856813,0.09766259999014437,0.19684690004214644,0.19711690000258386,0.7558140000328422
RSVPLG03,MR,20251014-093717,1.0.1,20251014-090324,702,Introduction,Both,1,Automatic,main,15,20251014-093932,global,local,750,H,S,E,E,H-E.png,E-S.png,hH,sS,mask-2.png,mask-4.png,h,1,2.1188493999652565,s,1,0.06390720000490546,0.09791220002807677,0.09761349996551871,0.1960891999769956,0.19879209995269775,0.7565902001224458
RSVPLG03,MR,20251014-093717,1.0.1,20251014-090324,702,Introduction,Both,1,Automatic,main,16,20251014-093939,global,local,750,S,H,A,A,S-A.png,A-H.png,sS,hH,mask-4.png,mask-3.png,s,1,1.3015010999515653,s,0,0.07898460002616048,0.09807560010813177,0.09681809996254742,0.19702360010705888,0.1954381000250578,0.7575487999711186
RSVPLG03,MR,20251014-094043,1.0.1,20251014-090324,702,Practice,Both,1,Automatic,main,1,20251014-094107,local,global,300,S,H,A,E,A-S.png,H-E.png,sS,hH,mask-4.png,mask-4.png,s,1,0.8757958000060171,h,1,0.0015511000528931618,0.040635300101712346,0.04902209993451834,0.09080450003966689,0.0988839000929147,0.2925259000621736
RSVPLG03,MR,20251014-094043,1.0.1,20251014-090324,702,Practice,Both,1,Automatic,main,2,20251014-094111,global,local,300,H,S,E,A,H-E.png,A-S.png,hH,sS,mask-4.png,mask-2.png,s,0,0.5959203999955207,h,0,0.6762491001281887,0.05131249991245568,0.05017590010538697,0.09960749978199601,0.10023350012488663,0.2997444998472929
RSVPLG03,MR,20251014-094043,1.0.1,20251014-090324,702,Practice,Both,1,Automatic,main,3,20251014-094115,global,global,750,S,H,E,E,S-E.png,H-E.png,sS,hH,mask-1.png,mask-2.png,s,1,1.5635548999998719,h,1,1.6759953999426216,0.05128809995949268,0.04877669992856681,0.1004991999361664,0.09960239985957742,0.7513325000181794
RSVPLG03,MR,20251014-094043,1.0.1,20251014-090324,702,Practice,Both,1,Automatic,main,4,20251014-094121,local,local,300,H,S,A,A,A-H.png,A-S.png,hH,sS,mask-3.png,mask-1.png,h,1,0.9202026000712067,s,1,0.04741399991326034,0.04925599996931851,0.04731500009074807,0.09894849988631904,0.09728710004128516,0.30173769989050925
RSVPLG03,MR,20251014-094043,1.0.1,20251014-090324,702,Practice,Both,1,Automatic,main,5,20251014-094126,local,local,750,H,H,A,E,A-H.png,E-H.png,hH,hH,mask-1.png,mask-3.png,h,1,1.07322150003165,h,1,0.07879990013316274,0.04900540015660226,0.050301400013267994,0.09946519997902215,0.09735950012691319,0.7521544999908656
RSVPLG03,MR,20251014-094043,1.0.1,20251014-090324,702,Practice,Both,1,Automatic,main,6,20251014-094131,global,local,750,H,S,A,A,H-A.png,A-S.png,hH,sS,mask-2.png,mask-1.png,h,1,0.8240975998342037,s,1,0.0339905999135226,0.050400800071656704,0.049686099868267775,0.1001025999430567,0.09947539982385933,0.7512223001103848
RSVPLG03,MR,20251014-094043,1.0.1,20251014-090324,702,Practice,Both,1,Automatic,main,7,20251014-094136,local,local,300,S,H,A,E,A-S.png,E-H.png,sS,hH,mask-3.png,mask-4.png,s,1,0.9909028001129627,h,1,0.01611560001038015,0.049651999957859516,0.0513005000539124,0.09957459988072515,0.10110239987261593,0.2992924000136554
RSVPLG03,MR,20251014-094043,1.0.1,20251014-090324,702,Practice,Both,1,Automatic,main,8,20251014-094140,global,local,750,S,S,E,E,S-E.png,E-S.png,sS,sS,mask-3.png,mask-4.png,s,1,1.9966625000815839,s,1,0.4184422998223454,0.04930859990417957,0.05127479997463524,0.09850119985640049,0.10126899997703731,0.7489691998343915
RSVPLG03,MR,20251014-094043,1.0.1,20251014-090324,702,Practice,Both,1,Automatic,main,9,20251014-094147,global,local,300,S,S,E,E,S-E.png,E-S.png,sS,sS,mask-4.png,mask-3.png,s,1,0.7577411001548171,h,0,0.8376538001466542,0.05055709998123348,0.04996630013920367,0.09966400009579957,0.10115030012093484,0.3004236000124365
RSVPLG03,MR,20251014-094043,1.0.1,20251014-090324,702,Practice,Both,1,Automatic,main,10,20251014-094151,global,global,750,S,H,E,A,S-E.png,H-A.png,sS,hH,mask-1.png,mask-3.png,s,1,0.6246758999768645,h,1,0.7206117000896484,0.049923399928957224,0.04872359987348318,0.09959520003758371,0.09808219992555678,0.7521427001338452
RSVPLG03,MR,20251014-094043,1.0.1,20251014-090324,702,Practice,Both,1,Automatic,main,11,20251014-094156,local,global,750,S,S,A,A,A-S.png,S-A.png,sS,sS,mask-2.png,mask-4.png,s,1,1.0347003999631852,s,1,0.06910379999317229,0.05008209985680878,0.051710400031879544,0.10071219992823899,0.1005818999838084,0.7492482999805361
RSVPLG03,MR,20251014-094043,1.0.1,20251014-090324,702,Practice,Both,1,Automatic,main,12,20251014-094201,local,global,300,H,S,E,E,E-H.png,S-E.png,hH,sS,mask-2.png,mask-2.png,s,0,0.9235656999517232,h,0,0.006321500055491924,0.050729600014165044,0.050044900039210916,0.09994939994066954,0.1007961998693645,0.29963720007799566
RSVPLG03,MR,20251014-094043,1.0.1,20251014-090324,702,Practice,Both,1,Automatic,main,13,20251014-094206,local,global,750,H,H,A,A,A-H.png,H-A.png,hH,hH,mask-2.png,mask-2.png,h,1,1.417832300066948,s,0,0.011486999923363328,0.0504290999379009,0.050102399894967675,0.09933950006961823,0.09899519989266992,0.7511233000550419
RSVPLG03,MR,20251014-094043,1.0.1,20251014-090324,702,Practice,Both,1,Automatic,main,14,20251014-094211,local,local,750,S,S,E,A,E-S.png,A-S.png,sS,sS,mask-1.png,mask-2.png,s,1,1.1593098999001086,s,1,0.05784200015477836,0.05046430020593107,0.048599999863654375,0.1001326001714915,0.10255809989757836,0.7502718002069741
RSVPLG03,MR,20251014-094043,1.0.1,20251014-090324,702,Practice,Both,1,Automatic,main,15,20251014-094217,global,global,300,S,S,E,A,S-E.png,S-A.png,sS,sS,mask-2.png,mask-3.png,s,1,0.9958510999567807,h,0,0.9529493001755327,0.04914960009045899,0.049809199990704656,0.10018750000745058,0.10113169997930527,0.3004207999911159
RSVPLG03,MR,20251014-094043,1.0.1,20251014-090324,702,Practice,Both,1,Automatic,main,16,20251014-094222,global,global,300,H,S,E,E,H-E.png,S-E.png,hH,sS,mask-1.png,mask-2.png,h,1,1.5765941999852657,s,1,0.048957600025460124,0.052470500115305185,0.0491329999640584,0.10134930000640452,0.0994878001511097,0.3012081999331713
RSVPLG03,MR,20251014-094418,1.0.1,20251014-090324,702,Experiment,Both,1,Automatic,warmup,1,20251014-094443,local,global,300,H,H,E,A,E-H.png,H-A.png,hH,hH,mask-2.png,mask-4.png,s,0,1.917702600127086,h,1,0.017568300012499094,0.04164949990808964,0.04898670013062656,0.09209319995716214,0.09928760002367198,0.2914873999543488
RSVPLG03,MR,20251014-094418,1.0.1,20251014-090324,702,Experiment,Both,1,Automatic,warmup,2,20251014-094448,global,local,750,H,S,E,E,H-E.png,E-S.png,hH,sS,mask-2.png,mask-3.png,h,1,1.2185264001600444,s,1,0.01743549993261695,0.050031499937176704,0.0509897000156343,0.0994992998894304,0.10173840005882084,0.7473410998936743
RSVPLG03,MR,20251014-094418,1.0.1,20251014-090324,702,Experiment,Both,1,Automatic,warmup,3,20251014-094454,local,global,750,S,H,E,E,E-S.png,H-E.png,sS,hH,mask-3.png,mask-4.png,s,1,1.0434326999820769,s,0,0.04666690016165376,0.05175390001386404,0.04991810000501573,0.10042669996619225,0.100150799844414,0.74863600009121
RSVPLG03,MR,20251014-094418,1.0.1,20251014-090324,702,Experiment,Both,1,Automatic,warmup,4,20251014-094459,global,local,300,H,H,A,A,H-A.png,A-H.png,hH,hH,mask-4.png,mask-3.png,h,1,2.09919900004752,s,0,1.8222324999514967,0.05267280014231801,0.05048109986819327,0.09852780005894601,0.0988304999191314,0.29750300012528896
RSVPLG03,MR,20251014-094418,1.0.1,20251014-090324,702,Experiment,Both,1,Automatic,warmup,5,20251014-094506,global,global,300,S,S,A,E,S-A.png,S-E.png,sS,sS,mask-2.png,mask-2.png,s,1,1.2311495000030845,h,0,1.7145024999044836,0.05095540010370314,0.050954499980434775,0.10099539998918772,0.10069760004989803,0.3003428999800235
RSVPLG03,MR,20251014-094418,1.0.1,20251014-090324,702,Experiment,Both,1,Automatic,main,6,20251014-094513,local,local,750,H,H,A,E,A-H.png,E-H.png,hH,hH,mask-4.png,mask-4.png,s,0,2.6323509998619556,s,0,2.129968099994585,0.04936259984970093,0.05073480005376041,0.09922820003703237,0.09929110016673803,0.7476134998723865
RSVPLG03,MR,20251014-094418,1.0.1,20251014-090324,702,Experiment,Both,1,Automatic,main,7,20251014-094522,global,global,300,H,H,E,A,H-E.png,H-A.png,hH,hH,mask-1.png,mask-3.png,h,1,1.9111466000322253,s,0,0.9191170998383313,0.05066159996204078,0.04955740016885102,0.09942979994229972,0.09977680002339184,0.3001369999255985
RSVPLG03,MR,20251014-094418,1.0.1,20251014-090324,702,Experiment,Both,1,Automatic,main,8,20251014-094528,global,local,750,H,H,A,A,H-A.png,A-H.png,hH,hH,mask-3.png,mask-1.png,h,1,1.2200722999405116,s,0,0.6421876000240445,0.049762200098484755,0.05023319995962083,0.0987162000965327,0.0987452999688685,0.7474587000906467
RSVPLG03,MR,20251014-094418,1.0.1,20251014-090324,702,Experiment,Both,1,Automatic,main,9,20251014-094534,global,local,300,S,S,A,E,S-A.png,E-S.png,sS,sS,mask-4.png,mask-4.png,h,0,2.348520299885422,s,1,0.40923069999553263,0.05010850005783141,0.04846070008352399,0.09976559993810952,0.09860350005328655,0.29941600002348423
RSVPLG03,MR,20251014-094418,1.0.1,20251014-090324,702,Experiment,Both,1,Automatic,main,10,20251014-094541,global,local,750,H,S,E,E,H-E.png,E-S.png,hH,sS,mask-3.png,mask-4.png,h,1,0.9815410000737756,s,1,0.025512899970635772,0.05077269999310374,0.04914230015128851,0.10127629991620779,0.09975560009479523,0.7504644999280572
RSVPLG03,MR,20251014-094418,1.0.1,20251014-090324,702,Experiment,Both,1,Automatic,main,11,20251014-094546,global,global,300,H,S,A,E,H-A.png,S-E.png,hH,sS,mask-1.png,mask-1.png,h,1,1.9188454998657107,s,1,0.670642799930647,0.05028670001775026,0.05085960007272661,0.0990166999399662,0.09976240014657378,0.30008549988269806
RSVPLG03,MR,20251014-094418,1.0.1,20251014-090324,702,Experiment,Both,1,Automatic,main,12,20251014-094552,global,global,750,S,H,A,A,S-A.png,H-A.png,sS,hH,mask-4.png,mask-4.png,h,0,1.3366416001226753,s,0,1.0946469001937658,0.04928560019470751,0.049305499996989965,0.10015670000575483,0.09977559978142381,0.7484674002043903
RSVPLG03,MR,20251014-094418,1.0.1,20251014-090324,702,Experiment,Both,1,Automatic,main,13,20251014-094559,local,global,750,S,S,E,E,E-S.png,S-E.png,sS,sS,mask-3.png,mask-4.png,s,1,2.3328955001197755,s,1,1.0183276999741793,0.05074120010249317,0.0505919000133872,0.10134500009007752,0.09878430003300309,0.7501221001148224
RSVPLG03,MR,20251014-094418,1.0.1,20251014-090324,702,Experiment,Both,1,Automatic,main,14,20251014-094606,global,local,750,H,H,A,A,H-A.png,A-H.png,hH,hH,mask-3.png,mask-2.png,s,0,1.8411129000596702,h,1,0.6848887999076396,0.04988260008394718,0.0499615001026541,0.09989969991147518,0.09897759999148548,0.7481603999622166
RSVPLG03,MR,20251014-094418,1.0.1,20251014-090324,702,Experiment,Both,1,Automatic,main,15,20251014-094613,local,local,300,H,S,A,A,A-H.png,A-S.png,hH,sS,mask-1.png,mask-1.png,h,1,1.0264467999804765,s,1,0.3595191000495106,0.05027009989134967,0.05116419983096421,0.10113379987888038,0.10214829980395734,0.29945360007695854
RSVPLG03,MR,20251014-094418,1.0.1,20251014-090324,702,Experiment,Both,1,Automatic,main,16,20251014-094618,global,global,300,S,S,E,E,S-E.png,S-E.png,sS,sS,mask-2.png,mask-3.png,h,0,2.2158957000356168,s,1,0.15879390016198158,0.05043660011142492,0.04982520011253655,0.10078589990735054,0.09890550002455711,0.3000580999068916
RSVPLG03,MR,20251014-094418,1.0.1,20251014-090324,702,Experiment,Both,1,Automatic,main,17,20251014-094624,global,local,750,H,S,E,E,H-E.png,E-S.png,hH,sS,mask-2.png,mask-1.png,s,0,0.9649632999207824,h,0,0.3703018999658525,0.05219039996154606,0.04818419995717704,0.10037810006178916,0.09931640001013875,0.7497845999896526
RSVPLG03,MR,20251014-094418,1.0.1,20251014-090324,702,Experiment,Both,1,Automatic,main,18,20251014-094629,global,local,300,S,H,A,A,S-A.png,A-H.png,sS,hH,mask-3.png,mask-4.png,s,1,1.4706335999071598,h,1,0.7268118001520634,0.050991900032386184,0.04995550005696714,0.10092590004205704,0.10096559999510646,0.29908569995313883
RSVPLG03,MR,20251014-094418,1.0.1,20251014-090324,702,Experiment,Both,1,Automatic,main,19,20251014-094635,global,local,750,S,H,E,E,S-E.png,E-H.png,sS,hH,mask-2.png,mask-2.png,s,1,1.9143606999423355,s,0,0.38305140007287264,0.051754399901255965,0.049122200114652514,0.10151059995405376,0.09944589994847775,0.7504981998354197
RSVPLG03,MR,20251014-094418,1.0.1,20251014-090324,702,Experiment,Both,1,Automatic,main,20,20251014-094642,local,global,300,S,S,E,A,E-S.png,S-A.png,sS,sS,mask-4.png,mask-2.png,s,1,2.0732062000315636,h,0,0.7038827000651509,0.050216699950397015,0.050391800003126264,0.09991450002416968,0.0993386001791805,0.3005972998216748
RSVPLG03,MR,20251014-094418,1.0.1,20251014-090324,702,Experiment,Both,1,Automatic,main,21,20251014-094648,local,local,300,S,S,A,E,A-S.png,E-S.png,sS,sS,mask-1.png,mask-2.png,s,1,1.8671444999054074,s,1,3.4552513998933136,0.050735099939629436,0.04916410008445382,0.09957499988377094,0.09895400004461408,0.30020800000056624
RSVPLG03,MR,20251014-094418,1.0.1,20251014-090324,702,Experiment,Both,1,Automatic,main,22,20251014-094657,global,global,300,S,S,A,E,S-A.png,S-E.png,sS,sS,mask-1.png,mask-3.png,h,0,1.9695673000533134,s,1,0.13758580014109612,0.05004870006814599,0.05101660010404885,0.10119690001010895,0.10117910010740161,0.29983749985694885
RSVPLG03,MR,20251014-094418,1.0.1,20251014-090324,702,Experiment,Both,1,Automatic,main,23,20251014-094703,global,global,750,H,S,A,E,H-A.png,S-E.png,hH,sS,mask-3.png,mask-4.png,h,1,0.9625381999649107,s,1,0.2887726000044495,0.04977579996921122,0.0508411000482738,0.09969069994986057,0.09917349996976554,0.7489846998360008
RSVPLG03,MR,20251014-094418,1.0.1,20251014-090324,702,Experiment,Both,1,Automatic,main,24,20251014-094708,global,local,300,S,S,E,A,S-E.png,A-S.png,sS,sS,mask-1.png,mask-3.png,s,1,4.228097500046715,h,0,0.13829299993813038,0.04832120006904006,0.05002379999496043,0.09745590016245842,0.1000405999366194,0.29564810008741915
RSVPLG03,MR,20251014-094418,1.0.1,20251014-090324,702,Experiment,Both,1,Automatic,main,25,20251014-094716,local,global,750,S,S,E,E,E-S.png,S-E.png,sS,sS,mask-2.png,mask-3.png,s,1,3.1397796999663115,h,0,0.28809709986671805,0.051264300011098385,0.05053020012564957,0.10150240012444556,0.10016710008494556,0.749222599901259
RSVPLG03,MR,20251014-094418,1.0.1,20251014-090324,702,Experiment,Both,1,Automatic,main,26,20251014-094734,local,global,300,H,H,E,A,E-H.png,H-A.png,hH,hH,mask-1.png,mask-2.png,h,1,1.0371585001703352,s,0,0.22467259992845356,0.05019410001114011,0.049065399914979935,0.09967610007151961,0.10015910002402961,0.29957480006851256
RSVPLG03,MR,20251014-094418,1.0.1,20251014-090324,702,Experiment,Both,1,Automatic,main,27,20251014-094739,local,global,750,S,S,A,A,A-S.png,S-A.png,sS,sS,mask-3.png,mask-4.png,s,1,2.2480295998975635,h,0,0.12960610003210604,0.051735299872234464,0.05064120003953576,0.09992789989337325,0.09985020011663437,0.7487454998772591
RSVPLG03,MR,20251014-094418,1.0.1,20251014-090324,702,Experiment,Both,1,Automatic,main,28,20251014-094746,global,global,750,S,S,E,E,S-E.png,S-E.png,sS,sS,mask-3.png,mask-4.png,s,1,0.9330587999429554,s,1,0.11404809984378517,0.04853920009918511,0.050855200039222836,0.09942670003511012,0.10072860005311668,0.7484001000411808
RSVPLG03,MR,20251014-094418,1.0.1,20251014-090324,702,Experiment,Both,1,Automatic,main,29,20251014-094751,local,local,750,H,S,A,A,A-H.png,A-S.png,hH,sS,mask-1.png,mask-2.png,h,1,1.2577531000133604,s,1,0.29771260009147227,0.049577799858525395,0.05018489994108677,0.10089510004036129,0.09890310000628233,0.7479284999426454
RSVPLG03,MR,20251014-094418,1.0.1,20251014-090324,702,Experiment,Both,1,Automatic,main,30,20251014-094757,local,local,300,H,S,E,A,E-H.png,A-S.png,hH,sS,mask-2.png,mask-2.png,h,1,1.2532203998416662,s,1,0.11356809991411865,0.051039200043305755,0.049552900018170476,0.10180870001204312,0.10051719984039664,0.30003240006044507
RSVPLG03,MR,20251014-094418,1.0.1,20251014-090324,702,Experiment,Both,1,Automatic,main,31,20251014-094802,global,global,750,H,H,E,E,H-E.png,H-E.png,hH,hH,mask-1.png,mask-2.png,h,1,1.6713829999789596,s,0,0.4053031001240015,0.049953100038692355,0.049607699969783425,0.09970809984952211,0.0986231998540461,0.7494036999996752
RSVPLG03,MR,20251014-094418,1.0.1,20251014-090324,702,Experiment,Both,1,Automatic,main,32,20251014-094808,local,global,750,S,H,E,A,E-S.png,H-A.png,sS,hH,mask-1.png,mask-4.png,s,1,1.781867900164798,s,0,0.2506712998729199,0.05052709998562932,0.05074119986966252,0.10017629992216825,0.09973819996230304,0.7471586000174284
RSVPLG03,MR,20251014-094418,1.0.1,20251014-090324,702,Experiment,Both,1,Automatic,main,33,20251014-094814,local,global,300,S,S,A,E,A-S.png,S-E.png,sS,sS,mask-3.png,mask-4.png,h,0,1.6799488000106066,s,1,0.28953279997222126,0.04868760006502271,0.050622700015082955,0.09840260003693402,0.10072530014440417,0.2979838999453932
RSVPLG03,MR,20251014-094418,1.0.1,20251014-090324,702,Experiment,Both,1,Automatic,main,34,20251014-094820,local,local,750,H,S,A,E,A-H.png,E-S.png,hH,sS,mask-4.png,mask-2.png,h,1,1.0945202000439167,s,1,0.5715663000009954,0.05091649992391467,0.049492600141093135,0.09839809988625348,0.09868740011006594,0.7485266998410225
RSVPLG03,MR,20251014-094418,1.0.1,20251014-090324,702,Experiment,Both,1,Automatic,main,35,20251014-094825,local,global,300,S,H,E,E,E-S.png,H-E.png,sS,hH,mask-3.png,mask-2.png,h,0,1.3694758000783622,s,0,1.1140347998589277,0.049273099983111024,0.050283499993383884,0.09890020010061562,0.09928940003737807,0.29911760007962584
RSVPLG03,MR,20251014-094418,1.0.1,20251014-090324,702,Experiment,Both,1,Automatic,main,36,20251014-094832,local,global,750,H,S,E,A,E-H.png,S-A.png,hH,sS,mask-1.png,mask-1.png,h,1,1.8166827000677586,s,1,1.128261199919507,0.04767180001363158,0.04981070011854172,0.09883509995415807,0.0995884002186358,0.7467227999586612
RSVPLG03,MR,20251014-094418,1.0.1,20251014-090324,702,Experiment,Both,1,Automatic,main,37,20251014-094839,global,local,300,S,S,A,A,S-A.png,A-S.png,sS,sS,mask-3.png,mask-3.png,s,1,2.127024600049481,h,0,0.252091099973768,0.04821289982646704,0.04797700000926852,0.0988300999160856,0.09950780007056892,0.2994366998318583
RSVPLG03,MR,20251014-094418,1.0.1,20251014-090324,702,Experiment,Both,1,Automatic,main,38,20251014-094845,local,local,300,H,H,E,A,E-H.png,A-H.png,hH,hH,mask-4.png,mask-4.png,h,1,2.0048213000409305,s,0,0.10701089981012046,0.04911909997463226,0.05119249993003905,0.1000521001406014,0.10129099991172552,0.29892730014398694
RSVPLG03,MR,20251014-094418,1.0.1,20251014-090324,702,Experiment,Both,1,Automatic,main,39,20251014-094851,global,global,300,S,H,A,A,S-A.png,H-A.png,sS,hH,mask-3.png,mask-2.png,s,1,0.6161382000427693,h,1,0.11494609992951155,0.04992119991220534,0.05039079999551177,0.100936200004071,0.10012740013189614,0.29938579979352653
RSVPLG03,MR,20251014-094418,1.0.1,20251014-090324,702,Experiment,Both,1,Automatic,main,40,20251014-094855,local,local,750,S,S,A,A,A-S.png,A-S.png,sS,sS,mask-2.png,mask-2.png,s,1,0.27518310002051294,h,0,0.1120653001125902,0.049137699883431196,0.04888120014220476,0.09908639988861978,0.10062119993381202,0.7479673998896033
RSVPLG03,MR,20251014-094418,1.0.1,20251014-090324,702,Experiment,Both,1,Automatic,main,41,20251014-094859,local,local,750,S,H,A,A,A-S.png,A-H.png,sS,hH,mask-2.png,mask-4.png,s,1,1.6871609000954777,s,0,0.0024858000688254833,0.049688300117850304,0.049859900027513504,0.09861710015684366,0.10043339990079403,0.747157100122422
RSVPLG03,MR,20251014-094418,1.0.1,20251014-090324,702,Experiment,Both,1,Automatic,main,42,20251014-094905,global,local,300,S,H,A,A,S-A.png,A-H.png,sS,hH,mask-1.png,mask-3.png,s,1,1.1592389999423176,h,1,0.16141650010831654,0.048773600021377206,0.05007429979741573,0.09924370003864169,0.10015239985659719,0.2990429000928998
RSVPLG03,MR,20251014-094418,1.0.1,20251014-090324,702,Experiment,Both,1,Automatic,main,43,20251014-094910,global,local,750,H,H,E,A,H-E.png,A-H.png,hH,hH,mask-3.png,mask-2.png,s,0,1.4709405000321567,h,1,0.6660143001936376,0.04846600000746548,0.049696399830281734,0.0996352001093328,0.09919309988617897,0.7485693001653999
RSVPLG03,MR,20251014-094418,1.0.1,20251014-090324,702,Experiment,Both,1,Automatic,main,44,20251014-094917,global,global,750,H,H,A,A,H-A.png,H-A.png,hH,hH,mask-3.png,mask-3.png,h,1,1.5619178998749703,s,0,0.2572325000073761,0.05003529996611178,0.05056150001473725,0.10018220008350909,0.10141300014220178,0.7475310999434441
RSVPLG03,MR,20251014-094418,1.0.1,20251014-090324,702,Experiment,Both,1,Automatic,main,45,20251014-094923,local,global,750,H,S,E,A,E-H.png,S-A.png,hH,sS,mask-2.png,mask-3.png,h,1,1.7117039000149816,s,1,0.4794258999172598,0.048735199961811304,0.04859240003861487,0.0997919999063015,0.09844049997627735,0.7489769998937845
RSVPLG03,MR,20251014-094418,1.0.1,20251014-090324,702,Experiment,Both,1,Automatic,main,46,20251014-094929,global,global,750,H,S,A,A,H-A.png,S-A.png,hH,sS,mask-3.png,mask-4.png,h,1,0.6543350000865757,s,1,1.1614071000367403,0.05008419998921454,0.050031499937176704,0.10033410019241273,0.10049459990113974,0.7494010000955313
RSVPLG03,MR,20251014-094418,1.0.1,20251014-090324,702,Experiment,Both,1,Automatic,main,47,20251014-094935,local,global,750,H,S,A,E,A-H.png,S-E.png,hH,sS,mask-3.png,mask-4.png,h,1,1.6901949001476169,s,1,0.5563762998208404,0.05049800011329353,0.050011999905109406,0.10027649998664856,0.09895689995028079,0.7494439000729471
RSVPLG03,MR,20251014-094418,1.0.1,20251014-090324,702,Experiment,Both,1,Automatic,main,48,20251014-094941,global,global,300,S,H,A,A,S-A.png,H-A.png,sS,hH,mask-3.png,mask-4.png,h,0,1.2408263999968767,s,0,0.3018296998925507,0.049382800003513694,0.04969869996421039,0.10124920005910099,0.10020990017801523,0.30050179990939796
RSVPLG03,MR,20251014-094418,1.0.1,20251014-090324,702,Experiment,Both,1,Automatic,main,49,20251014-094946,local,global,750,H,H,A,E,A-H.png,H-E.png,hH,hH,mask-2.png,mask-2.png,s,0,0.9809623998589814,h,1,0.32215730007737875,0.04935929994098842,0.051537999883294106,0.09873269987292588,0.10152109991759062,0.7482529999688268
RSVPLG03,MR,20251014-094418,1.0.1,20251014-090324,702,Experiment,Both,1,Automatic,main,50,20251014-094952,global,local,300,H,S,A,E,H-A.png,E-S.png,hH,sS,mask-2.png,mask-2.png,s,0,1.3139700999017805,s,1,0.14719170005992055,0.05077430000528693,0.04900579992681742,0.10259000002406538,0.09965699980966747,0.2995665001217276
RSVPLG03,MR,20251014-094418,1.0.1,20251014-090324,702,Experiment,Both,1,Automatic,main,51,20251014-095005,global,local,300,H,S,E,E,H-E.png,E-S.png,hH,sS,mask-4.png,mask-3.png,h,1,1.0344362000469118,s,1,0.023489699931815267,0.049387000035494566,0.05113929999060929,0.09950879984535277,0.09933679993264377,0.29857979994267225
RSVPLG03,MR,20251014-094418,1.0.1,20251014-090324,702,Experiment,Both,1,Automatic,main,52,20251014-095009,global,local,300,H,H,A,E,H-A.png,E-H.png,hH,hH,mask-4.png,mask-3.png,h,1,0.9299548000562936,h,1,0.5738697000779212,0.05093810008838773,0.04999720002524555,0.09918900020420551,0.10070309997536242,0.2996617001481354
RSVPLG03,MR,20251014-094418,1.0.1,20251014-090324,702,Experiment,Both,1,Automatic,main,53,20251014-095014,global,global,300,H,H,E,E,H-E.png,H-E.png,hH,hH,mask-2.png,mask-3.png,h,1,1.5546860999893397,s,0,0.24122589989565313,0.04797889990732074,0.04793200013227761,0.09804699989035726,0.09958120016381145,0.29941869992762804
RSVPLG03,MR,20251014-094418,1.0.1,20251014-090324,702,Experiment,Both,1,Automatic,main,54,20251014-095020,global,global,300,S,H,A,A,S-A.png,H-A.png,sS,hH,mask-3.png,mask-1.png,s,1,0.7096955999732018,h,1,0.8475351999513805,0.04988719988614321,0.051453799940645695,0.10056119994260371,0.10158580006100237,0.2985527999699116
RSVPLG03,MR,20251014-094418,1.0.1,20251014-090324,702,Experiment,Both,1,Automatic,main,55,20251014-095025,global,global,300,H,H,A,E,H-A.png,H-E.png,hH,hH,mask-1.png,mask-1.png,h,1,1.8851765000727028,s,0,0.21658090013079345,0.046564900083467364,0.05120460013858974,0.09750350005924702,0.10003430000506341,0.2966201000381261
RSVPLG03,MR,20251014-094418,1.0.1,20251014-090324,702,Experiment,Both,1,Automatic,main,56,20251014-095031,global,local,750,H,H,A,E,H-A.png,E-H.png,hH,hH,mask-4.png,mask-4.png,h,1,2.152668399969116,s,0,0.61572470003739,0.04986850009299815,0.048623100155964494,0.10001490009017289,0.09735470009036362,0.7499915999360383
RSVPLG03,MR,20251014-094418,1.0.1,20251014-090324,702,Experiment,Both,1,Automatic,main,57,20251014-095038,local,global,300,S,H,A,E,A-S.png,H-E.png,sS,hH,mask-4.png,mask-2.png,s,1,2.380538299912587,h,1,0.2339389999397099,0.05103720002807677,0.0508610000833869,0.10001869988627732,0.10077640018425882,0.29965169983915985
RSVPLG03,MR,20251014-094418,1.0.1,20251014-090324,702,Experiment,Both,1,Automatic,main,58,20251014-095044,local,local,300,S,H,A,A,A-S.png,A-H.png,sS,hH,mask-4.png,mask-3.png,s,1,4.193019399885088,h,1,0.038920999970287085,0.05054500000551343,0.0508301998488605,0.09985450003296137,0.100479899905622,0.29857000010088086
RSVPLG03,MR,20251014-094418,1.0.1,20251014-090324,702,Experiment,Both,1,Automatic,main,59,20251014-095052,global,global,300,H,H,E,A,H-E.png,H-A.png,hH,hH,mask-4.png,mask-1.png,h,1,1.6510491000954062,h,1,0.08493389980867505,0.04837560001760721,0.04950060020200908,0.09846260002814233,0.10034660017117858,0.29893449996598065
RSVPLG03,MR,20251014-094418,1.0.1,20251014-090324,702,Experiment,Both,1,Automatic,main,60,20251014-095057,local,local,300,H,H,A,A,A-H.png,A-H.png,hH,hH,mask-1.png,mask-2.png,h,1,1.9230496000964195,h,1,0.6227325999643654,0.05128260003402829,0.04884740011766553,0.09924399992451072,0.09888419997878373,0.2998883998952806
RSVPLG03,MR,20251014-094418,1.0.1,20251014-090324,702,Experiment,Both,1,Automatic,main,61,20251014-095104,local,global,300,S,S,A,A,A-S.png,S-A.png,sS,sS,mask-3.png,mask-2.png,s,1,4.553207299904898,h,0,1.4644150999374688,0.04865719983354211,0.04789769998751581,0.10008029988966882,0.09927310002967715,0.2999143998604268
RSVPLG03,MR,20251014-094418,1.0.1,20251014-090324,702,Experiment,Both,1,Automatic,main,62,20251014-095113,local,local,300,S,S,A,A,A-S.png,A-S.png,sS,sS,mask-2.png,mask-4.png,s,1,0.8537055000197142,s,1,0.358368800021708,0.049007799942046404,0.049752699909731746,0.09829200012609363,0.09961019991897047,0.2983713001012802
RSVPLG03,MR,20251014-094418,1.0.1,20251014-090324,702,Experiment,Both,1,Automatic,main,63,20251014-095118,local,global,300,S,H,A,E,A-S.png,H-E.png,sS,hH,mask-3.png,mask-2.png,s,1,0.7605256999377161,h,1,0.558152699843049,0.05047230003401637,0.050728000001981854,0.09885459998622537,0.10208069998770952,0.2982088001444936
RSVPLG03,MR,20251014-094418,1.0.1,20251014-090324,702,Experiment,Both,1,Automatic,main,64,20251014-095123,global,global,300,S,S,A,A,S-A.png,S-A.png,sS,sS,mask-4.png,mask-4.png,s,1,0.9413139999378473,h,0,0.6641602001618594,0.04934329981915653,0.049696399830281734,0.09899810003116727,0.10080329980701208,0.29799390002153814
RSVPLG03,MR,20251014-094418,1.0.1,20251014-090324,702,Experiment,Both,1,Automatic,main,65,20251014-095128,global,local,300,S,H,E,E,S-E.png,E-H.png,sS,hH,mask-2.png,mask-4.png,s,1,0.7206284999847412,h,1,0.7847420000471175,0.048963400069624186,0.04870469984598458,0.09956829994916916,0.09962329990230501,0.2998399001080543
RSVPLG03,MR,20251014-094418,1.0.1,20251014-090324,702,Experiment,Both,1,Automatic,main,66,20251014-095133,local,global,750,H,S,A,E,A-H.png,S-E.png,hH,sS,mask-4.png,mask-1.png,s,0,4.0927267000079155,h,0,0.02670510020107031,0.051345800049602985,0.04787970008328557,0.10102180019021034,0.0970699000172317,0.7513073000591248
RSVPLG03,MR,20251014-094418,1.0.1,20251014-090324,702,Experiment,Both,1,Automatic,main,67,20251014-095141,local,local,750,S,H,E,E,E-S.png,E-H.png,sS,hH,mask-2.png,mask-1.png,h,0,1.8800115999765694,s,0,0.08227599994279444,0.049994299886748195,0.04978360002860427,0.09994169999845326,0.09957510000094771,0.7495279998984188
RSVPLG03,MR,20251014-094418,1.0.1,20251014-090324,702,Experiment,Both,1,Automatic,main,68,20251014-095147,local,local,750,S,H,A,E,A-S.png,E-H.png,sS,hH,mask-3.png,mask-1.png,s,1,3.195896799908951,h,1,0.07977590011432767,0.04987079999409616,0.04985139984637499,0.1003525999840349,0.09959249990060925,0.7498375999275595
RSVPLG03,MR,20251014-094418,1.0.1,20251014-090324,702,Experiment,Both,1,Automatic,main,69,20251014-095154,local,global,300,S,H,E,E,E-S.png,H-E.png,sS,hH,mask-3.png,mask-3.png,s,1,1.4938721999060363,s,0,0.3357814000919461,0.049933699890971184,0.05035370006226003,0.10122889978811145,0.09977550012990832,0.30063859978690743
RSVPLG03,MR,20251014-094418,1.0.1,20251014-090324,702,Experiment,Both,1,Automatic,main,70,20251014-095200,global,global,750,H,S,A,E,H-A.png,S-E.png,hH,sS,mask-4.png,mask-2.png,h,1,1.300864500226453,s,1,0.15016970015130937,0.0495151998475194,0.05078990012407303,0.10080759995616972,0.09993520006537437,0.7492034998722374
RSVPLG03,MR,20251014-094418,1.0.1,20251014-090324,702,Experiment,Both,1,Automatic,main,71,20251014-095205,local,global,750,S,S,A,E,A-S.png,S-E.png,sS,sS,mask-4.png,mask-4.png,s,1,1.5241509000770748,s,1,0.10648000007495284,0.05003939988091588,0.04980470007285476,0.09830780001357198,0.10013170004822314,0.7490288999397308
RSVPLG03,MR,20251014-094418,1.0.1,20251014-090324,702,Experiment,Both,1,Automatic,main,72,20251014-095211,global,local,300,H,H,E,E,H-E.png,E-H.png,hH,hH,mask-3.png,mask-1.png,h,1,2.5149395000189543,s,0,0.02064769994467497,0.05202349997125566,0.049715999979525805,0.10090589988976717,0.10016600019298494,0.3002459998242557
RSVPLG03,MR,20251014-094418,1.0.1,20251014-090324,702,Experiment,Both,1,Automatic,main,73,20251014-095217,global,global,750,S,S,E,E,S-E.png,S-E.png,sS,sS,mask-3.png,mask-2.png,s,1,0.9671934999059886,s,1,0.09950269991531968,0.04865140002220869,0.049357299925759435,0.09991600015200675,0.10074399993754923,0.7475767000578344
RSVPLG03,MR,20251014-094418,1.0.1,20251014-090324,702,Experiment,Both,1,Automatic,main,74,20251014-095222,local,global,750,H,S,E,E,E-H.png,S-E.png,hH,sS,mask-4.png,mask-2.png,s,0,1.2327250998932868,h,0,0.6263331999070942,0.04864819999784231,0.04802399990148842,0.09958759997971356,0.09818209987133741,0.7501290000509471
RSVPLG03,MR,20251014-094418,1.0.1,20251014-090324,702,Experiment,Both,1,Automatic,main,75,20251014-095228,local,global,300,S,H,E,A,E-S.png,H-A.png,sS,hH,mask-1.png,mask-4.png,s,1,1.0757538001053035,h,1,0.06942140008322895,0.049804999958723783,0.04810769995674491,0.09890519990585744,0.09909079992212355,0.299170000012964
RSVPLG03,MR,20251014-094418,1.0.1,20251014-090324,702,Experiment,Both,1,Automatic,main,76,20251014-095238,global,global,300,S,S,A,E,S-A.png,S-E.png,sS,sS,mask-3.png,mask-1.png,s,1,3.0107833999209106,h,0,0.11760140000842512,0.05090710008516908,0.05116860009729862,0.10123330005444586,0.10012630000710487,0.2995023999828845
RSVPLG03,MR,20251014-094418,1.0.1,20251014-090324,702,Experiment,Both,1,Automatic,main,77,20251014-095245,global,local,300,H,S,E,A,H-E.png,A-S.png,hH,sS,mask-4.png,mask-1.png,h,1,0.9738874000031501,s,1,0.07417619996704161,0.04866760014556348,0.04870950011536479,0.09921060013584793,0.09960650000721216,0.3001935000065714
RSVPLG03,MR,20251014-094418,1.0.1,20251014-090324,702,Experiment,Both,1,Automatic,main,78,20251014-095250,global,global,750,S,S,A,E,S-A.png,S-E.png,sS,sS,mask-2.png,mask-1.png,h,0,3.8454885999672115,s,1,1.5060262000188231,0.04684419999830425,0.048929200042039156,0.09852280002087355,0.09980100020766258,0.7471019998192787
RSVPLG03,MR,20251014-094418,1.0.1,20251014-090324,702,Experiment,Both,1,Automatic,main,79,20251014-095259,global,global,750,S,H,A,E,S-A.png,H-E.png,sS,hH,mask-2.png,mask-4.png,s,1,1.2584458000492305,h,1,0.03661849978379905,0.04788550012744963,0.04853309993632138,0.09749180008657277,0.09854050003923476,0.7483827001415193
RSVPLG03,MR,20251014-094418,1.0.1,20251014-090324,702,Experiment,Both,1,Automatic,main,80,20251014-095305,global,local,300,S,H,E,A,S-E.png,A-H.png,sS,hH,mask-2.png,mask-4.png,s,1,1.2017947998829186,s,0,0.11423780000768602,0.05120529979467392,0.051003400003537536,0.09948679991066456,0.09960940014570951,0.2990730998571962
RSVPLG03,MR,20251014-094418,1.0.1,20251014-090324,702,Experiment,Both,1,Automatic,main,81,20251014-095310,global,local,300,S,S,E,E,S-E.png,E-S.png,sS,sS,mask-2.png,mask-4.png,s,1,1.8539551999419928,h,0,1.2897197999991477,0.0488219999242574,0.05044399993494153,0.10006389999762177,0.10178199992515147,0.29824020015075803
RSVPLG03,MR,20251014-094418,1.0.1,20251014-090324,702,Experiment,Both,1,Automatic,main,82,20251014-095316,global,global,750,S,S,A,A,S-A.png,S-A.png,sS,sS,mask-3.png,mask-4.png,s,1,0.513966599944979,s,1,0.11237180000171065,0.049784200033172965,0.05063359998166561,0.09882469987496734,0.10125379986129701,0.7468075000215322
RSVPLG03,MR,20251014-094418,1.0.1,20251014-090324,702,Experiment,Both,1,Automatic,main,83,20251014-095321,global,local,300,S,S,E,E,S-E.png,E-S.png,sS,sS,mask-4.png,mask-1.png,s,1,0.8846352999098599,h,0,0.16988970013335347,0.0482769999653101,0.05134620005264878,0.09972520009614527,0.10108369984664023,0.29861610010266304
RSVPLG03,MR,20251014-094418,1.0.1,20251014-090324,702,Experiment,Both,1,Automatic,main,84,20251014-095326,local,local,750,H,S,E,E,E-H.png,E-S.png,hH,sS,mask-4.png,mask-4.png,s,0,0.5581236998550594,s,1,0.4420572000090033,0.0516737001016736,0.048545700032263994,0.10075070010498166,0.09819429996423423,0.7500702000688761
RSVPLG03,MR,20251014-094418,1.0.1,20251014-090324,702,Experiment,Both,1,Automatic,main,85,20251014-095331,global,local,300,H,H,A,E,H-A.png,E-H.png,hH,hH,mask-1.png,mask-2.png,h,1,0.9252213998697698,s,0,0.09118270012550056,0.0490559998434037,0.050332700135186315,0.09900059993378818,0.10083000012673438,0.2996842998545617
RSVPLG03,MR,20251014-094418,1.0.1,20251014-090324,702,Experiment,Both,1,Automatic,main,86,20251014-095336,local,local,300,H,S,A,A,A-H.png,A-S.png,hH,sS,mask-3.png,mask-2.png,h,1,1.6654091000091285,s,1,0.12083579995669425,0.04870230006054044,0.05027830018661916,0.09847240010276437,0.10112740006297827,0.29667799989692867
RSVPLG03,MR,20251014-094418,1.0.1,20251014-090324,702,Experiment,Both,1,Automatic,main,87,20251014-095341,local,global,300,H,S,A,A,A-H.png,S-A.png,hH,sS,mask-2.png,mask-3.png,h,1,3.1824181000702083,s,1,0.04055169993080199,0.051241000182926655,0.04995990009047091,0.10115440003573895,0.09908280009403825,0.30068390001542866
RSVPLG03,MR,20251014-094418,1.0.1,20251014-090324,702,Experiment,Both,1,Automatic,main,88,20251014-095348,local,global,750,S,H,A,E,A-S.png,H-E.png,sS,hH,mask-2.png,mask-1.png,s,1,1.2664931998588145,s,0,0.32957280008122325,0.05110209994018078,0.049290499882772565,0.09907249989919364,0.10179889993742108,0.7484399999957532
RSVPLG03,MR,20251014-094418,1.0.1,20251014-090324,702,Experiment,Both,1,Automatic,main,89,20251014-095354,global,local,750,S,H,A,E,S-A.png,E-H.png,sS,hH,mask-4.png,mask-2.png,s,1,0.9354908999521285,h,1,0.2784049999900162,0.049917700001969934,0.050030400045216084,0.10071609984152019,0.10028090002015233,0.7482959998305887
RSVPLG03,MR,20251014-094418,1.0.1,20251014-090324,702,Experiment,Both,1,Automatic,main,90,20251014-095359,local,local,750,S,S,A,A,A-S.png,A-S.png,sS,sS,mask-1.png,mask-3.png,s,1,1.9019172000698745,s,1,0.4254139999393374,0.05003500008024275,0.04939990001730621,0.0996313001960516,0.10031719994731247,0.747904600109905
RSVPLG03,MR,20251014-094418,1.0.1,20251014-090324,702,Experiment,Both,1,Automatic,main,91,20251014-095405,local,local,750,H,H,A,E,A-H.png,E-H.png,hH,hH,mask-3.png,mask-2.png,s,0,1.4520339001901448,h,1,0.19534810003824532,0.04940829984843731,0.05012580007314682,0.09975629998371005,0.09925270010717213,0.7480016998015344
RSVPLG03,MR,20251014-094418,1.0.1,20251014-090324,702,Experiment,Both,1,Automatic,main,92,20251014-095411,local,local,300,H,S,A,A,A-H.png,A-S.png,hH,sS,mask-4.png,mask-2.png,s,0,1.6940848000813276,s,1,0.4087135000154376,0.05052309995517135,0.04923260002397001,0.10163079993799329,0.10095190000720322,0.3000477000605315
RSVPLG03,MR,20251014-094418,1.0.1,20251014-090324,702,Experiment,Both,1,Automatic,main,93,20251014-095417,local,local,300,S,S,E,A,E-S.png,A-S.png,sS,sS,mask-1.png,mask-2.png,s,1,1.7073557002004236,s,1,0.6088813000824302,0.04934850009158254,0.0493856999091804,0.09937430010177195,0.09954349999316037,0.29951260006055236
RSVPLG03,MR,20251014-094418,1.0.1,20251014-090324,702,Experiment,Both,1,Automatic,main,94,20251014-095423,global,local,750,S,S,A,E,S-A.png,E-S.png,sS,sS,mask-2.png,mask-3.png,s,1,1.7160378999542445,s,1,0.24254350014962256,0.04749470017850399,0.04906689980998635,0.10314920009113848,0.09923429996706545,0.7482099002227187
RSVPLG03,MR,20251014-094418,1.0.1,20251014-090324,702,Experiment,Both,1,Automatic,main,95,20251014-095429,local,global,300,H,S,A,A,A-H.png,S-A.png,hH,sS,mask-2.png,mask-1.png,s,0,1.929160499945283,h,0,0.9171657001134008,0.04862380004487932,0.049353200010955334,0.09917449997738004,0.10003060009330511,0.2990737999789417
RSVPLG03,MR,20251014-094418,1.0.1,20251014-090324,702,Experiment,Both,1,Automatic,main,96,20251014-095435,local,global,750,H,S,A,A,A-H.png,S-A.png,hH,sS,mask-4.png,mask-2.png,h,1,0.5940158001612872,s,1,0.6019249998498708,0.048135200049728155,0.05038339993916452,0.09858079999685287,0.1002082999330014,0.7472488000057638
RSVPLG03,MR,20251014-094418,1.0.1,20251014-090324,702,Experiment,Both,1,Automatic,main,97,20251014-095441,global,global,750,S,H,A,E,S-A.png,H-E.png,sS,hH,mask-3.png,mask-4.png,s,1,1.3868324998766184,h,1,0.28600089997053146,0.046674600103870034,0.04877019999548793,0.09620840009301901,0.09925279999151826,0.7463484001345932
RSVPLG03,MR,20251014-094418,1.0.1,20251014-090324,702,Experiment,Both,1,Automatic,main,98,20251014-095447,local,global,750,S,S,E,E,E-S.png,S-E.png,sS,sS,mask-3.png,mask-1.png,s,1,1.5171826002188027,s,1,0.23422699980437756,0.050415199948474765,0.051495400024577975,0.10168209997937083,0.10043610003776848,0.7490068997722119
RSVPLG03,MR,20251014-094418,1.0.1,20251014-090324,702,Experiment,Both,1,Automatic,main,99,20251014-095452,local,global,750,S,H,A,E,A-S.png,H-E.png,sS,hH,mask-3.png,mask-2.png,s,1,1.181582200108096,h,1,0.1758437999524176,0.04983050003647804,0.050904300063848495,0.09983880002982914,0.10048939986154437,0.7472286999691278
RSVPLG03,MR,20251014-094418,1.0.1,20251014-090324,702,Experiment,Both,1,Automatic,main,100,20251014-095458,global,global,750,H,S,A,A,H-A.png,S-A.png,hH,sS,mask-1.png,mask-2.png,h,1,0.7588616998400539,s,1,0.16893110005185008,0.049812099896371365,0.048941700020805,0.10100729996338487,0.09986119996756315,0.7492823998909444
RSVPLG03,MR,20251014-094418,1.0.1,20251014-090324,702,Experiment,Both,1,Automatic,main,101,20251014-095507,local,local,750,S,H,E,E,E-S.png,E-H.png,sS,hH,mask-2.png,mask-2.png,s,1,1.6519633999560028,h,1,0.32947080000303686,0.04924750002101064,0.05178059986792505,0.1001763001549989,0.09952199994586408,0.7488993001170456
RSVPLG03,MR,20251014-094418,1.0.1,20251014-090324,702,Experiment,Both,1,Automatic,main,102,20251014-095513,global,local,750,H,H,E,E,H-E.png,E-H.png,hH,hH,mask-4.png,mask-1.png,h,1,1.0737390001304448,h,1,0.08979330002330244,0.04830100014805794,0.05075049982406199,0.0978222000412643,0.10080549982376397,0.7470254001673311
RSVPLG03,MR,20251014-094418,1.0.1,20251014-090324,702,Experiment,Both,1,Automatic,main,103,20251014-095519,global,global,300,H,H,A,A,H-A.png,H-A.png,hH,hH,mask-2.png,mask-1.png,h,1,0.9510451001115143,s,0,0.9290631001349539,0.05052310018800199,0.04920380003750324,0.10064830002374947,0.1005154000595212,0.2996863001026213
RSVPLG03,MR,20251014-094418,1.0.1,20251014-090324,702,Experiment,Both,1,Automatic,main,104,20251014-095524,global,local,750,S,H,A,E,S-A.png,E-H.png,sS,hH,mask-1.png,mask-4.png,s,1,1.039812499890104,s,0,0.08808490005321801,0.05073160002939403,0.05126490001566708,0.0997649000491947,0.10027449997141957,0.7479570999275893
RSVPLG03,MR,20251014-094418,1.0.1,20251014-090324,702,Experiment,Both,1,Automatic,main,105,20251014-095529,local,local,300,H,S,E,A,E-H.png,A-S.png,hH,sS,mask-4.png,mask-2.png,h,1,0.9405592000111938,s,1,0.3952542000915855,0.05167419998906553,0.05124570010229945,0.09981440007686615,0.10049300012178719,0.29880820005200803
RSVPLG03,MR,20251014-094418,1.0.1,20251014-090324,702,Experiment,Both,1,Automatic,main,106,20251014-095534,local,local,750,H,H,E,A,E-H.png,A-H.png,hH,hH,mask-4.png,mask-3.png,s,0,1.229379199910909,h,1,1.0401949998922646,0.050606400007382035,0.05000970000401139,0.10111219994723797,0.09771920018829405,0.7503042998723686
RSVPLG03,MR,20251014-094418,1.0.1,20251014-090324,702,Experiment,Both,1,Automatic,main,107,20251014-095541,global,local,750,H,S,E,E,H-E.png,E-S.png,hH,sS,mask-2.png,mask-1.png,h,1,1.744692200096324,s,1,0.029849200043827295,0.0494824000634253,0.049091999884694815,0.09872739994898438,0.09954139986075461,0.7486181000713259
RSVPLG03,MR,20251014-094418,1.0.1,20251014-090324,702,Experiment,Both,1,Automatic,main,108,20251014-095546,local,global,300,S,H,E,A,E-S.png,H-A.png,sS,hH,mask-4.png,mask-1.png,h,0,0.8877892000600696,s,0,0.6353372999001294,0.049999500159174204,0.049169400008395314,0.09932960011065006,0.09945490001700819,0.2989419000223279
RSVPLG03,MR,20251014-094418,1.0.1,20251014-090324,702,Experiment,Both,1,Automatic,main,109,20251014-095552,local,local,750,S,H,A,E,A-S.png,E-H.png,sS,hH,mask-1.png,mask-3.png,s,1,1.6905896998941898,h,1,0.18588289991021156,0.049658400006592274,0.050892199855297804,0.10004710010252893,0.10141010000370443,0.7473930001724511
RSVPLG03,MR,20251014-094418,1.0.1,20251014-090324,702,Experiment,Both,1,Automatic,main,110,20251014-095558,local,local,300,H,H,E,A,E-H.png,A-H.png,hH,hH,mask-1.png,mask-2.png,h,1,1.1028462999965996,h,1,0.251529400004074,0.047972600208595395,0.04964819992892444,0.09966390021145344,0.09853149997070432,0.2981444001197815
RSVPLG03,MR,20251014-094418,1.0.1,20251014-090324,702,Experiment,Both,1,Automatic,main,111,20251014-095603,global,local,750,S,S,E,A,S-E.png,A-S.png,sS,sS,mask-2.png,mask-3.png,h,0,4.186621400061995,s,1,0.07407450000755489,0.050031600054353476,0.04987909994088113,0.10161669994704425,0.0993435001000762,0.7504298000130802
RSVPLG03,MR,20251014-094418,1.0.1,20251014-090324,702,Experiment,Both,1,Automatic,main,112,20251014-095611,global,global,750,S,S,A,E,S-A.png,S-E.png,sS,sS,mask-2.png,mask-3.png,s,1,1.034058699849993,s,1,0.24786729994229972,0.050344299990683794,0.04833849985152483,0.10061710001900792,0.0986820999532938,0.7503426000475883
RSVPLG03,MR,20251014-094418,1.0.1,20251014-090324,702,Experiment,Both,1,Automatic,main,113,20251014-095616,global,global,300,S,H,A,A,S-A.png,H-A.png,sS,hH,mask-3.png,mask-4.png,s,1,1.1542150001041591,h,1,0.29031640011817217,0.04932209989055991,0.04998549981974065,0.09788820007815957,0.10055929981172085,0.299058600096032
RSVPLG03,MR,20251014-094418,1.0.1,20251014-090324,702,Experiment,Both,1,Automatic,main,114,20251014-095622,global,global,750,S,H,E,A,S-E.png,H-A.png,sS,hH,mask-2.png,mask-3.png,s,1,0.6012689999770373,h,1,0.22757639992050827,0.04993560002185404,0.049787200056016445,0.0997055999469012,0.10002420004457235,0.7492982000112534
RSVPLG03,MR,20251014-094418,1.0.1,20251014-090324,702,Experiment,Both,1,Automatic,main,115,20251014-095626,local,local,300,S,H,E,A,E-S.png,A-H.png,sS,hH,mask-3.png,mask-1.png,s,1,0.6193828000687063,h,1,0.060204399982467294,0.049416900146752596,0.05133159994147718,0.09965600003488362,0.1002470999956131,0.2987752000335604
RSVPLG03,MR,20251014-094418,1.0.1,20251014-090324,702,Experiment,Both,1,Automatic,main,116,20251014-095631,local,global,300,H,S,A,E,A-H.png,S-E.png,hH,sS,mask-1.png,mask-4.png,h,1,0.7670148001052439,s,1,0.4883640999905765,0.04981320002116263,0.04983370006084442,0.09809590014629066,0.09971120022237301,0.2987611999269575
RSVPLG03,MR,20251014-094418,1.0.1,20251014-090324,702,Experiment,Both,1,Automatic,main,117,20251014-095636,local,local,300,H,H,E,A,E-H.png,A-H.png,hH,hH,mask-4.png,mask-3.png,h,1,0.5415703000035137,s,0,0.11457649990916252,0.047438399866223335,0.04954570019617677,0.0987282998394221,0.09957429999485612,0.2989271997939795
RSVPLG03,MR,20251014-094418,1.0.1,20251014-090324,702,Experiment,Both,1,Automatic,main,118,20251014-095640,global,global,300,S,H,E,A,S-E.png,H-A.png,sS,hH,mask-2.png,mask-2.png,s,1,0.5780059997923672,h,1,0.21299969987012446,0.04966509994119406,0.04869409999810159,0.10048260004259646,0.09943389985710382,0.29894690006040037
RSVPLG03,MR,20251014-094418,1.0.1,20251014-090324,702,Experiment,Both,1,Automatic,main,119,20251014-095644,local,global,300,H,S,E,A,E-H.png,S-A.png,hH,sS,mask-3.png,mask-2.png,h,1,0.4750572999473661,h,0,0.35530480020679533,0.05013470002450049,0.05120129999704659,0.10117030004039407,0.10114939999766648,0.29993150010704994
RSVPLG03,MR,20251014-094418,1.0.1,20251014-090324,702,Experiment,Both,1,Automatic,main,120,20251014-095649,global,local,750,S,S,E,A,S-E.png,A-S.png,sS,sS,mask-1.png,mask-4.png,s,1,0.625856899889186,s,1,0.08256600005552173,0.04919950012117624,0.050677800085395575,0.09999430016614497,0.09925780002959073,0.7486761000473052
RSVPLG03,MR,20251014-094418,1.0.1,20251014-090324,702,Experiment,Both,1,Automatic,main,121,20251014-095654,local,local,300,H,H,E,E,E-H.png,E-H.png,hH,hH,mask-3.png,mask-4.png,h,1,0.8870876000728458,s,0,0.4578305999748409,0.049768999917432666,0.05020980001427233,0.09970050002448261,0.1021119998767972,0.2995068000163883
RSVPLG03,MR,20251014-094418,1.0.1,20251014-090324,702,Experiment,Both,1,Automatic,main,122,20251014-095659,local,local,750,S,S,A,A,A-S.png,A-S.png,sS,sS,mask-4.png,mask-4.png,s,1,0.5735140999313444,s,1,0.06592250009998679,0.052192699862644076,0.05050059990026057,0.10245150001719594,0.09915629983879626,0.7502029000315815
RSVPLG03,MR,20251014-094418,1.0.1,20251014-090324,702,Experiment,Both,1,Automatic,main,123,20251014-095703,global,local,750,H,H,E,E,H-E.png,E-H.png,hH,hH,mask-2.png,mask-1.png,h,1,1.6489862001035362,h,1,0.1843481999821961,0.049493399914354086,0.04888529982417822,0.10008800006471574,0.09860110003501177,0.7479256000369787
RSVPLG03,MR,20251014-094418,1.0.1,20251014-090324,702,Experiment,Both,1,Automatic,main,124,20251014-095709,local,global,300,H,S,E,E,E-H.png,S-E.png,hH,sS,mask-1.png,mask-4.png,h,1,0.8489367000292987,s,1,0.9507384998723865,0.04978729994036257,0.047452500090003014,0.10019739996641874,0.09891830012202263,0.3021894998382777
RSVPLG03,MR,20251014-094418,1.0.1,20251014-090324,702,Experiment,Both,1,Automatic,main,125,20251014-095715,local,local,750,S,H,A,A,A-S.png,A-H.png,sS,hH,mask-3.png,mask-2.png,s,1,1.3672557999379933,h,1,0.4931459000799805,0.049346899846568704,0.0504095999058336,0.0975112000014633,0.10000399989075959,0.7469146000221372
RSVPLG03,MR,20251014-095821,1.0.1,20251014-090324,702,Experiment,Both,1,Automatic,warmup,1,20251014-095854,global,global,750,S,H,A,E,S-A.png,H-E.png,sS,hH,mask-3.png,mask-2.png,h,0,1.2418249999172986,s,0,0.14554630010388792,0.03750260011292994,0.049230000004172325,0.08711570012383163,0.09996580006554723,0.7373230999801308
RSVPLG03,MR,20251014-095821,1.0.1,20251014-090324,702,Experiment,Both,1,Automatic,warmup,2,20251014-095859,global,local,300,H,S,E,E,H-E.png,E-S.png,hH,sS,mask-4.png,mask-2.png,h,1,0.7178987998049706,s,1,0.48912729998119175,0.049558699829503894,0.05012730020098388,0.09887459990568459,0.10092350002378225,0.29937749984674156
RSVPLG03,MR,20251014-095821,1.0.1,20251014-090324,702,Experiment,Both,1,Automatic,warmup,3,20251014-095904,local,local,750,H,H,E,E,E-H.png,E-H.png,hH,hH,mask-4.png,mask-4.png,h,1,2.0130098999943584,s,0,0.24416549992747605,0.05301439994946122,0.0484011999797076,0.10054680006578565,0.09795360011048615,0.7524166000075638
RSVPLG03,MR,20251014-095821,1.0.1,20251014-090324,702,Experiment,Both,1,Automatic,warmup,4,20251014-095911,global,local,750,H,H,E,E,H-E.png,E-H.png,hH,hH,mask-2.png,mask-2.png,h,1,0.6486064000055194,s,0,0.016890699975192547,0.05145289981737733,0.051350400084629655,0.1010496998205781,0.100309900008142,0.7496843999251723
RSVPLG03,MR,20251014-095821,1.0.1,20251014-090324,702,Experiment,Both,1,Automatic,warmup,5,20251014-095915,local,global,750,S,S,A,A,A-S.png,S-A.png,sS,sS,mask-1.png,mask-2.png,h,0,1.334889599820599,s,1,0.050549899926409125,0.049897699849680066,0.0500125999096781,0.09986919979564846,0.10003039985895157,0.7493487999308854
RSVPLG03,MR,20251014-095821,1.0.1,20251014-090324,702,Experiment,Both,1,Automatic,main,6,20251014-095921,local,global,300,S,S,E,A,E-S.png,S-A.png,sS,sS,mask-2.png,mask-4.png,s,1,0.9612109998706728,h,0,1.3693947999272496,0.05009200004860759,0.050643400056287646,0.09988190000876784,0.10187870007939637,0.2990146998781711
RSVPLG03,MR,20251014-095821,1.0.1,20251014-090324,702,Experiment,Both,1,Automatic,main,7,20251014-095927,local,local,750,S,H,A,A,A-S.png,A-H.png,sS,hH,mask-2.png,mask-4.png,s,1,0.8695515999570489,s,0,0.15175079996697605,0.04978649993427098,0.049210899975150824,0.09974279999732971,0.09811490005813539,0.7504099998623133
RSVPLG03,MR,20251014-095821,1.0.1,20251014-090324,702,Experiment,Both,1,Automatic,main,8,20251014-095932,global,local,750,H,S,E,A,H-E.png,A-S.png,hH,sS,mask-3.png,mask-4.png,h,1,0.7136625000275671,s,1,0.0514338999055326,0.04953299998305738,0.04997729999013245,0.0985308000817895,0.10015950002707541,0.7483513001352549
RSVPLG03,MR,20251014-095821,1.0.1,20251014-090324,702,Experiment,Both,1,Automatic,main,9,20251014-095937,local,local,750,S,H,E,A,E-S.png,A-H.png,sS,hH,mask-1.png,mask-4.png,h,0,1.1696554999798536,s,0,0.7457946999929845,0.05002019996754825,0.049105299869552255,0.10053239995613694,0.09835490002296865,0.7502270000986755
RSVPLG03,MR,20251014-095821,1.0.1,20251014-090324,702,Experiment,Both,1,Automatic,main,10,20251014-095943,local,local,750,S,S,E,E,E-S.png,E-S.png,sS,sS,mask-2.png,mask-3.png,s,1,1.5702267000451684,s,1,0.3216336998157203,0.0497985000256449,0.05040990002453327,0.100744100054726,0.09915679995901883,0.7501195999793708
RSVPLG03,MR,20251014-095821,1.0.1,20251014-090324,702,Experiment,Both,1,Automatic,main,11,20251014-095949,global,global,300,H,S,E,A,H-E.png,S-A.png,hH,sS,mask-3.png,mask-1.png,h,1,1.563760899938643,s,1,0.3445318001322448,0.04925749986432493,0.05056659993715584,0.09917709999717772,0.1010402999818325,0.29872550000436604
RSVPLG03,MR,20251014-095821,1.0.1,20251014-090324,702,Experiment,Both,1,Automatic,main,12,20251014-095955,local,local,300,H,H,E,E,E-H.png,E-H.png,hH,hH,mask-4.png,mask-4.png,h,1,0.9385214999783784,s,0,0.4154207000974566,0.050022700102999806,0.050168200163170695,0.09887459990568459,0.10113320010714233,0.2982361998874694
RSVPLG03,MR,20251014-095821,1.0.1,20251014-090324,702,Experiment,Both,1,Automatic,main,13,20251014-100000,global,local,750,S,S,A,E,S-A.png,E-S.png,sS,sS,mask-3.png,mask-4.png,h,0,1.3595448001287878,s,1,0.4948081998154521,0.04955219989642501,0.0503969001583755,0.09865069994702935,0.10177890001796186,0.7480776999145746
RSVPLG03,MR,20251014-095821,1.0.1,20251014-090324,702,Experiment,Both,1,Automatic,main,14,20251014-100006,local,global,750,S,S,A,A,A-S.png,S-A.png,sS,sS,mask-3.png,mask-1.png,s,1,0.5146304001100361,s,1,0.31466270005330443,0.05116659984923899,0.04993210011161864,0.10165510000661016,0.10072000022046268,0.7484674998559058
RSVPLG03,MR,20251014-095821,1.0.1,20251014-090324,702,Experiment,Both,1,Automatic,main,15,20251014-100011,local,global,750,H,H,E,A,E-H.png,H-A.png,hH,hH,mask-4.png,mask-1.png,s,0,1.0409794000443071,s,0,0.25708930008113384,0.04963789996691048,0.050357599975541234,0.10189569997601211,0.10008129989728332,0.7481277999468148
RSVPLG03,MR,20251014-095821,1.0.1,20251014-090324,702,Experiment,Both,1,Automatic,main,16,20251014-100016,global,local,300,S,H,A,A,S-A.png,A-H.png,sS,hH,mask-2.png,mask-4.png,s,1,0.7255301000550389,h,1,0.37808079994283617,0.0489465999417007,0.0505919000133872,0.10015129996463656,0.09949990012682974,0.298134199809283
RSVPLG03,MR,20251014-095821,1.0.1,20251014-090324,702,Experiment,Both,1,Automatic,main,17,20251014-100021,global,local,750,S,S,E,E,S-E.png,E-S.png,sS,sS,mask-1.png,mask-4.png,s,1,0.64666169998236,h,0,0.5125208999961615,0.05003689997829497,0.048847900005057454,0.10094640008173883,0.09850530000403523,0.7503426000475883
RSVPLG03,MR,20251014-095821,1.0.1,20251014-090324,702,Experiment,Both,1,Automatic,main,18,20251014-100026,global,local,300,H,H,E,E,H-E.png,E-H.png,hH,hH,mask-3.png,mask-4.png,s,0,0.52393259992823,h,1,0.10504789999686182,0.049727800069376826,0.05126650002785027,0.09990029991604388,0.10105199995450675,0.29826349997892976
RSVPLG03,MR,20251014-095821,1.0.1,20251014-090324,702,Experiment,Both,1,Automatic,main,19,20251014-100030,local,local,300,S,S,E,E,E-S.png,E-S.png,sS,sS,mask-2.png,mask-4.png,h,0,0.8654066999442875,s,1,0.6426854999735951,0.04993549990467727,0.049423300195485353,0.09989509987644851,0.099032900063321,0.30055079981684685
RSVPLG03,MR,20251014-095821,1.0.1,20251014-090324,702,Experiment,Both,1,Automatic,main,20,20251014-100035,global,local,750,H,S,E,A,H-E.png,A-S.png,hH,sS,mask-3.png,mask-3.png,h,1,0.6350062999408692,s,1,0.21862299996428192,0.04872699989937246,0.049978400114923716,0.09833760000765324,0.10213249991647899,0.7482356999535114
RSVPLG03,MR,20251014-095821,1.0.1,20251014-090324,702,Experiment,Both,1,Automatic,main,21,20251014-100040,local,global,300,H,S,A,A,A-H.png,S-A.png,hH,sS,mask-2.png,mask-3.png,h,1,0.7269709000829607,s,1,0.2262297000270337,0.05005790013819933,0.04847480007447302,0.09935889998450875,0.09757190011441708,0.30043689999729395
RSVPLG03,MR,20251014-095821,1.0.1,20251014-090324,702,Experiment,Both,1,Automatic,main,22,20251014-100045,local,global,750,S,H,A,E,A-S.png,H-E.png,sS,hH,mask-4.png,mask-3.png,s,1,2.019780399976298,s,0,0.0814064999576658,0.049486299976706505,0.05081450007855892,0.09911699988879263,0.10284440009854734,0.7473531998693943
RSVPLG03,MR,20251014-095821,1.0.1,20251014-090324,702,Experiment,Both,1,Automatic,main,23,20251014-100051,local,local,300,H,S,E,A,E-H.png,A-S.png,hH,sS,mask-2.png,mask-4.png,s,0,0.971200899919495,h,0,0.3194567000027746,0.04893559985794127,0.05117719992995262,0.09843420004472136,0.1000167999882251,0.29855900001712143
RSVPLG03,MR,20251014-095821,1.0.1,20251014-090324,702,Experiment,Both,1,Automatic,main,24,20251014-100056,local,local,300,H,H,E,E,E-H.png,E-H.png,hH,hH,mask-1.png,mask-2.png,h,1,0.803214400075376,s,0,0.809000400127843,0.04861570009961724,0.04908860009163618,0.10071280016563833,0.09883130015805364,0.30112499999813735
RSVPLG03,MR,20251014-095821,1.0.1,20251014-090324,702,Experiment,Both,1,Automatic,main,25,20251014-100102,global,global,300,S,H,E,E,S-E.png,H-E.png,sS,hH,mask-4.png,mask-1.png,h,0,0.680477799847722,s,0,0.2398306999821216,0.05156129994429648,0.048991600051522255,0.09915739996358752,0.09800320002250373,0.30131589993834496
RSVPLG03,MR,20251014-095821,1.0.1,20251014-090324,702,Experiment,Both,1,Automatic,main,26,20251014-100133,local,local,750,S,H,A,E,A-S.png,E-H.png,sS,hH,mask-3.png,mask-3.png,s,1,0.9316319001372904,h,1,0.8452033000066876,0.04932580003514886,0.048822700046002865,0.10000480012968183,0.09765299991704524,0.7509580000769347
RSVPLG03,MR,20251014-095821,1.0.1,20251014-090324,702,Experiment,Both,1,Automatic,main,27,20251014-100138,global,local,750,S,H,E,A,S-E.png,A-H.png,sS,hH,mask-2.png,mask-4.png,s,1,0.7679564000573009,h,1,0.22431969991885126,0.05031249998137355,0.04883929993957281,0.09961819997988641,0.09808479994535446,0.7507837999146432
RSVPLG03,MR,20251014-095821,1.0.1,20251014-090324,702,Experiment,Both,1,Automatic,main,28,20251014-100144,global,local,750,S,H,E,E,S-E.png,E-H.png,sS,hH,mask-2.png,mask-3.png,s,1,0.8833421000745147,s,0,0.16057479986920953,0.04968840000219643,0.04983619996346533,0.09896700014360249,0.09923180006444454,0.7493515000678599
RSVPLG03,MR,20251014-095821,1.0.1,20251014-090324,702,Experiment,Both,1,Automatic,main,29,20251014-100149,global,local,300,S,S,A,A,S-A.png,A-S.png,sS,sS,mask-3.png,mask-4.png,s,1,0.6584677998907864,s,1,0.3863749001175165,0.047625500010326505,0.05020439997315407,0.097762499935925,0.10114980000071228,0.2978586999233812
RSVPLG03,MR,20251014-095821,1.0.1,20251014-090324,702,Experiment,Both,1,Automatic,main,30,20251014-100153,local,global,300,S,S,E,A,E-S.png,S-A.png,sS,sS,mask-1.png,mask-1.png,s,1,0.7936815000139177,h,0,0.2731860000640154,0.05014960002154112,0.05074359988793731,0.10016210004687309,0.10025959997437894,0.2984747001901269
RSVPLG03,MR,20251014-095821,1.0.1,20251014-090324,702,Experiment,Both,1,Automatic,main,31,20251014-100158,local,global,300,H,S,A,E,A-H.png,S-E.png,hH,sS,mask-2.png,mask-1.png,h,1,0.5773606998845935,h,0,0.6733270999975502,0.050357700092718005,0.05117159988731146,0.10098719992674887,0.10005029989406466,0.29926340002566576
RSVPLG03,MR,20251014-095821,1.0.1,20251014-090324,702,Experiment,Both,1,Automatic,main,32,20251014-100203,local,local,300,S,S,E,A,E-S.png,A-S.png,sS,sS,mask-2.png,mask-2.png,s,1,0.41033619991503656,h,0,0.124009600142017,0.051261299988254905,0.051088300067931414,0.10268260003067553,0.10127809992991388,0.29995699995197356
RSVPLG03,MR,20251014-095821,1.0.1,20251014-090324,702,Experiment,Both,1,Automatic,main,33,20251014-100207,global,local,750,S,H,A,E,S-A.png,E-H.png,sS,hH,mask-1.png,mask-2.png,s,1,1.1795075999107212,h,1,0.5463696999941021,0.0496891001239419,0.0501763999927789,0.09892500005662441,0.1001836999785155,0.7481865000445396
RSVPLG03,MR,20251014-095821,1.0.1,20251014-090324,702,Experiment,Both,1,Automatic,main,34,20251014-100213,local,global,750,S,S,E,A,E-S.png,S-A.png,sS,sS,mask-3.png,mask-3.png,s,1,1.366846000077203,s,1,0.8111734997946769,0.05100729991681874,0.050688899820670485,0.10006369999609888,0.09929879987612367,0.7492788000963628
RSVPLG03,MR,20251014-095821,1.0.1,20251014-090324,702,Experiment,Both,1,Automatic,main,35,20251014-100220,global,local,750,S,S,A,A,S-A.png,A-S.png,sS,sS,mask-2.png,mask-4.png,s,1,0.7538354999851435,s,1,0.5015464997850358,0.04840359999798238,0.047753100050613284,0.09895730018615723,0.09823539992794394,0.7508901001419872
RSVPLG03,MR,20251014-095821,1.0.1,20251014-090324,702,Experiment,Both,1,Automatic,main,36,20251014-100225,local,global,300,S,S,E,A,E-S.png,S-A.png,sS,sS,mask-2.png,mask-4.png,s,1,0.7345626000314951,h,0,0.08300099987536669,0.05118269985541701,0.04864150006324053,0.10096029983833432,0.09962120000272989,0.3001405999530107
RSVPLG03,MR,20251014-095821,1.0.1,20251014-090324,702,Experiment,Both,1,Automatic,main,37,20251014-100230,global,local,300,S,S,E,E,S-E.png,E-S.png,sS,sS,mask-1.png,mask-4.png,s,1,0.5683020998258144,h,0,0.12682979996316135,0.050046399934217334,0.0486069000326097,0.10045800008811057,0.1002865000627935,0.2997842999175191
RSVPLG03,MR,20251014-095821,1.0.1,20251014-090324,702,Experiment,Both,1,Automatic,main,38,20251014-100234,global,global,750,S,S,E,A,S-E.png,S-A.png,sS,sS,mask-1.png,mask-3.png,s,1,0.6803959999233484,s,1,0.1939588999375701,0.04909219988621771,0.047875799937173724,0.09869619994424284,0.09585459996014833,0.7516481000930071
RSVPLG03,MR,20251014-095821,1.0.1,20251014-090324,702,Experiment,Both,1,Automatic,main,39,20251014-100239,local,global,750,H,S,E,E,E-H.png,S-E.png,hH,sS,mask-3.png,mask-1.png,h,1,1.045288800029084,h,0,0.15489730006083846,0.05028409999795258,0.049274600110948086,0.10016689985059202,0.0985495001077652,0.7523212998639792
RSVPLG03,MR,20251014-095821,1.0.1,20251014-090324,702,Experiment,Both,1,Automatic,main,40,20251014-100244,local,local,750,H,S,E,A,E-H.png,A-S.png,hH,sS,mask-3.png,mask-3.png,h,1,0.6364551999140531,s,1,0.0712305000051856,0.050169500056654215,0.050206500105559826,0.10119090019725263,0.1020267999265343,0.7488939000759274
RSVPLG03,MR,20251014-095821,1.0.1,20251014-090324,702,Experiment,Both,1,Automatic,main,41,20251014-100249,local,global,750,S,S,E,A,E-S.png,S-A.png,sS,sS,mask-3.png,mask-2.png,s,1,1.5717374000232667,h,0,0.24980759993195534,0.04999800003133714,0.048899200046435,0.10081520001403987,0.09943690011277795,0.7514057999942452
RSVPLG03,MR,20251014-095821,1.0.1,20251014-090324,702,Experiment,Both,1,Automatic,main,42,20251014-100255,global,global,300,S,H,A,E,S-A.png,H-E.png,sS,hH,mask-4.png,mask-2.png,s,1,0.7462470999453217,h,1,0.00014890008606016636,0.04841180006042123,0.050718799931928515,0.09964779997244477,0.10026370012201369,0.29870639997534454
RSVPLG03,MR,20251014-095821,1.0.1,20251014-090324,702,Experiment,Both,1,Automatic,main,43,20251014-100259,global,global,750,H,S,E,A,H-E.png,S-A.png,hH,sS,mask-3.png,mask-3.png,h,1,0.809566400013864,s,1,0.05095080006867647,0.05094209988601506,0.05107269994914532,0.09985610004514456,0.09994230000302196,0.7479214000049978
RSVPLG03,MR,20251014-095821,1.0.1,20251014-090324,702,Experiment,Both,1,Automatic,main,44,20251014-100304,global,global,750,H,H,E,A,H-E.png,H-A.png,hH,hH,mask-1.png,mask-3.png,h,1,1.3599941998254508,h,1,0.08681979984976351,0.05015379982069135,0.048798399977386,0.09864949993789196,0.09912019991315901,0.748856500023976
RSVPLG03,MR,20251014-095821,1.0.1,20251014-090324,702,Experiment,Both,1,Automatic,main,45,20251014-100310,global,global,750,H,S,A,E,H-A.png,S-E.png,hH,sS,mask-1.png,mask-4.png,h,1,0.6106191999278963,s,1,0.03335229982621968,0.05025640013627708,0.048957099905237556,0.10103120002895594,0.10056519997306168,0.7502825001720339
RSVPLG03,MR,20251014-095821,1.0.1,20251014-090324,702,Experiment,Both,1,Automatic,main,46,20251014-100315,global,global,300,H,H,E,A,H-E.png,H-A.png,hH,hH,mask-2.png,mask-1.png,h,1,1.3570613998454064,h,1,0.208264600019902,0.05108590004965663,0.050178200006484985,0.1009986000135541,0.09996489994227886,0.3011588000226766
RSVPLG03,MR,20251014-095821,1.0.1,20251014-090324,702,Experiment,Both,1,Automatic,main,47,20251014-100320,local,global,300,H,H,A,A,A-H.png,H-A.png,hH,hH,mask-2.png,mask-3.png,h,1,0.8840036999899894,h,1,0.23303970019333065,0.04908179980702698,0.04634869983419776,0.0995848998427391,0.09771969984285533,0.3031452000141144
RSVPLG03,MR,20251014-095821,1.0.1,20251014-090324,702,Experiment,Both,1,Automatic,main,48,20251014-100325,local,global,300,H,H,E,E,E-H.png,H-E.png,hH,hH,mask-3.png,mask-4.png,h,1,0.8300431000534445,s,0,0.016240600030869246,0.0499188001267612,0.04920790018513799,0.09898170013912022,0.09960369998589158,0.29936990002170205
RSVPLG03,MR,20251014-095821,1.0.1,20251014-090324,702,Experiment,Both,1,Automatic,main,49,20251014-100329,local,global,300,S,S,E,A,E-S.png,S-A.png,sS,sS,mask-4.png,mask-4.png,h,0,0.680047599831596,s,1,0.546988399932161,0.0499611000996083,0.052462499821558595,0.0990124000236392,0.10132429981604218,0.298767700092867
RSVPLG03,MR,20251014-095821,1.0.1,20251014-090324,702,Experiment,Both,1,Automatic,main,50,20251014-100334,local,local,750,H,S,E,E,E-H.png,E-S.png,hH,sS,mask-1.png,mask-4.png,h,1,0.55605320003815,s,1,0.0664935999084264,0.049560500076040626,0.049979900009930134,0.10080819996073842,0.1002474999986589,0.749709099996835
RSVPLG03,MR,20251014-095821,1.0.1,20251014-090324,702,Experiment,Both,1,Automatic,main,51,20251014-100343,global,local,750,H,H,A,A,H-A.png,A-H.png,hH,hH,mask-1.png,mask-3.png,h,1,1.172240300104022,h,1,0.07738909986801445,0.051277799997478724,0.050228099804371595,0.10097919986583292,0.0999393998645246,0.7498822000343353
RSVPLG03,MR,20251014-095821,1.0.1,20251014-090324,702,Experiment,Both,1,Automatic,main,52,20251014-100349,local,global,300,S,S,A,E,A-S.png,S-E.png,sS,sS,mask-3.png,mask-4.png,s,1,1.0963451000861824,s,1,0.10888929991051555,0.04979379987344146,0.04983970010653138,0.09917649999260902,0.10085640009492636,0.29871029988862574
RSVPLG03,MR,20251014-095821,1.0.1,20251014-090324,702,Experiment,Both,1,Automatic,main,53,20251014-100353,global,local,300,S,H,E,E,S-E.png,E-H.png,sS,hH,mask-3.png,mask-4.png,s,1,1.0104541000910103,s,0,0.11537989997304976,0.05184800014831126,0.05050030001439154,0.10251430002972484,0.10188949992880225,0.30062430002726614
RSVPLG03,MR,20251014-095821,1.0.1,20251014-090324,702,Experiment,Both,1,Automatic,main,54,20251014-100358,global,local,750,H,S,E,E,H-E.png,E-S.png,hH,sS,mask-2.png,mask-4.png,h,1,1.2985179000534117,s,1,0.09216769994236529,0.04942930000834167,0.051115999929606915,0.1003987998701632,0.10010950011201203,0.7501635998487473
RSVPLG03,MR,20251014-095821,1.0.1,20251014-090324,702,Experiment,Both,1,Automatic,main,55,20251014-100404,local,local,300,S,S,E,A,E-S.png,A-S.png,sS,sS,mask-2.png,mask-4.png,s,1,1.5128652001731098,s,1,0.12131249997764826,0.04998210002668202,0.04911969997920096,0.10119610000401735,0.09888609987683594,0.30132880015298724
RSVPLG03,MR,20251014-095821,1.0.1,20251014-090324,702,Experiment,Both,1,Automatic,main,56,20251014-100409,global,global,300,H,S,A,E,H-A.png,S-E.png,hH,sS,mask-3.png,mask-4.png,h,1,0.7355025999713689,s,1,0.07065249979496002,0.049978099996224046,0.050647699972614646,0.10092220013029873,0.09875719994306564,0.30061230016872287
RSVPLG03,MR,20251014-095821,1.0.1,20251014-090324,702,Experiment,Both,1,Automatic,main,57,20251014-100413,global,local,750,H,H,E,E,H-E.png,E-H.png,hH,hH,mask-1.png,mask-2.png,h,1,0.9516842998564243,s,0,0.0511681002099067,0.04980679997242987,0.050251999869942665,0.10100489994511008,0.10076609998941422,0.7501487999688834
RSVPLG03,MR,20251014-095821,1.0.1,20251014-090324,702,Experiment,Both,1,Automatic,main,58,20251014-100418,global,local,300,H,H,E,A,H-E.png,A-H.png,hH,hH,mask-4.png,mask-4.png,h,1,0.6273125000298023,s,0,0.1802424998022616,0.05399739998392761,0.049835999961942434,0.10068199993111193,0.10005260002799332,0.30034870002418756
RSVPLG03,MR,20251014-095821,1.0.1,20251014-090324,702,Experiment,Both,1,Automatic,main,59,20251014-100423,global,global,750,S,S,A,E,S-A.png,S-E.png,sS,sS,mask-3.png,mask-3.png,s,1,2.006418799981475,s,1,0.10465460014529526,0.049773700069636106,0.049289500107988715,0.10112049989402294,0.09922920004464686,0.75105099985376
RSVPLG03,MR,20251014-095821,1.0.1,20251014-090324,702,Experiment,Both,1,Automatic,main,60,20251014-100429,local,local,750,H,H,A,A,A-H.png,A-H.png,hH,hH,mask-4.png,mask-3.png,h,1,1.047024000203237,h,1,0.07278489996679127,0.05119120003655553,0.04912839992903173,0.10127810016274452,0.09946159995160997,0.7504777000285685
RSVPLG03,MR,20251014-095821,1.0.1,20251014-090324,702,Experiment,Both,1,Automatic,main,61,20251014-100434,local,global,750,H,H,E,A,E-H.png,H-A.png,hH,hH,mask-3.png,mask-4.png,h,1,1.9914768999442458,s,0,0.35709139984101057,0.05126709979958832,0.05013099987991154,0.10010529984720051,0.10056099994108081,0.7493720999918878
RSVPLG03,MR,20251014-095821,1.0.1,20251014-090324,702,Experiment,Both,1,Automatic,main,62,20251014-100441,local,local,300,S,S,A,E,A-S.png,E-S.png,sS,sS,mask-1.png,mask-2.png,s,1,2.6357970000244677,s,1,0.3288306000176817,0.048903599847108126,0.049128000158816576,0.10034159990027547,0.099012800026685,0.3006596998311579
RSVPLG03,MR,20251014-095821,1.0.1,20251014-090324,702,Experiment,Both,1,Automatic,main,63,20251014-100447,local,global,750,S,S,A,A,A-S.png,S-A.png,sS,sS,mask-4.png,mask-3.png,s,1,1.5574177000671625,s,1,0.25640269997529685,0.04990079998970032,0.04980990011245012,0.10135279991663992,0.09986330009996891,0.7506953999400139
RSVPLG03,MR,20251014-095821,1.0.1,20251014-090324,702,Experiment,Both,1,Automatic,main,64,20251014-100453,global,global,750,S,H,A,A,S-A.png,H-A.png,sS,hH,mask-1.png,mask-2.png,h,0,1.4260328998789191,h,1,0.42668740008957684,0.05003389995545149,0.049351099878549576,0.09903359995223582,0.09842499997466803,0.7505101000424474
RSVPLG03,MR,20251014-095821,1.0.1,20251014-090324,702,Experiment,Both,1,Automatic,main,65,20251014-100459,global,global,750,H,S,A,E,H-A.png,S-E.png,hH,sS,mask-1.png,mask-4.png,h,1,2.11100329994224,s,1,0.2445170001592487,0.04874649993143976,0.04910930013284087,0.1002322998829186,0.10096370009705424,0.7491374998353422
RSVPLG03,MR,20251014-095821,1.0.1,20251014-090324,702,Experiment,Both,1,Automatic,main,66,20251014-100505,global,global,300,H,H,A,E,H-A.png,H-E.png,hH,hH,mask-4.png,mask-2.png,h,1,0.9331147000193596,s,0,0.7812398001551628,0.0500239001121372,0.04883380001410842,0.09958110004663467,0.09860450006090105,0.3007956000510603
RSVPLG03,MR,20251014-095821,1.0.1,20251014-090324,702,Experiment,Both,1,Automatic,main,67,20251014-100511,global,local,300,S,H,E,A,S-E.png,A-H.png,sS,hH,mask-1.png,mask-1.png,h,0,1.0782754998654127,s,0,0.4008877999149263,0.048499900149181485,0.04884300008416176,0.0995352000463754,0.10015429998748004,0.29929059999994934
RSVPLG03,MR,20251014-095821,1.0.1,20251014-090324,702,Experiment,Both,1,Automatic,main,68,20251014-100516,local,local,300,H,H,A,E,A-H.png,E-H.png,hH,hH,mask-4.png,mask-2.png,h,1,1.6426606001332402,s,0,0.0049882999155670404,0.04865460004657507,0.04901529988273978,0.10016550007276237,0.1011083999183029,0.29991629999130964
RSVPLG03,MR,20251014-095821,1.0.1,20251014-090324,702,Experiment,Both,1,Automatic,main,69,20251014-100521,global,global,750,S,S,E,E,S-E.png,S-E.png,sS,sS,mask-4.png,mask-3.png,s,1,1.0092156999744475,s,1,0.29784570005722344,0.05056259990669787,0.04901880002580583,0.10007230006158352,0.10017529991455376,0.7496805000118911
RSVPLG03,MR,20251014-095821,1.0.1,20251014-090324,702,Experiment,Both,1,Automatic,main,70,20251014-100527,global,global,750,S,H,A,A,S-A.png,H-A.png,sS,hH,mask-3.png,mask-4.png,s,1,0.6853217999450862,h,1,0.11328569985926151,0.04962599999271333,0.04884100006893277,0.09976130002178252,0.10080570005811751,0.7498639000114053
RSVPLG03,MR,20251014-095821,1.0.1,20251014-090324,702,Experiment,Both,1,Automatic,main,71,20251014-100532,local,global,300,S,H,A,E,A-S.png,H-E.png,sS,hH,mask-2.png,mask-1.png,s,1,1.356407499872148,s,0,0.10693940008059144,0.05069019994698465,0.05069099995307624,0.10045549995265901,0.1008683000691235,0.2999009999912232
RSVPLG03,MR,20251014-095821,1.0.1,20251014-090324,702,Experiment,Both,1,Automatic,main,72,20251014-100537,global,global,300,H,S,E,A,H-E.png,S-A.png,hH,sS,mask-3.png,mask-4.png,h,1,1.1001063000876456,s,1,0.0337761000264436,0.05048549990169704,0.04947540001012385,0.10202279989607632,0.09897649986669421,0.3008079999126494
RSVPLG03,MR,20251014-095821,1.0.1,20251014-090324,702,Experiment,Both,1,Automatic,main,73,20251014-100542,local,global,750,H,S,E,A,E-H.png,S-A.png,hH,sS,mask-2.png,mask-4.png,h,1,0.8735495000146329,s,1,0.05390530009754002,0.05097749992273748,0.05043389997445047,0.10296560009010136,0.09934670012444258,0.7504394999705255
RSVPLG03,MR,20251014-095821,1.0.1,20251014-090324,702,Experiment,Both,1,Automatic,main,74,20251014-100547,global,local,300,H,S,A,A,H-A.png,A-S.png,hH,sS,mask-1.png,mask-2.png,h,1,0.938331900164485,s,1,0.08176250010728836,0.04832890001125634,0.050905599957332015,0.09944999986328185,0.1006906998809427,0.29790779994800687
RSVPLG03,MR,20251014-095821,1.0.1,20251014-090324,702,Experiment,Both,1,Automatic,main,75,20251014-100551,local,global,300,H,H,A,E,A-H.png,H-E.png,hH,hH,mask-4.png,mask-3.png,h,1,0.9719418999738991,h,1,0.12941490020602942,0.050113100092858076,0.0509612001478672,0.10138539993204176,0.10221550008282065,0.29891739995218813
RSVPLG03,MR,20251014-095821,1.0.1,20251014-090324,702,Experiment,Both,1,Automatic,main,76,20251014-100616,global,local,300,H,H,E,E,H-E.png,E-H.png,hH,hH,mask-1.png,mask-4.png,h,1,0.7342747000511736,s,0,0.02552100014872849,0.05178580014035106,0.04845180013217032,0.10185690014623106,0.09992350009270012,0.30189929995685816
RSVPLG03,MR,20251014-095821,1.0.1,20251014-090324,702,Experiment,Both,1,Automatic,main,77,20251014-100620,local,local,750,S,H,A,A,A-S.png,A-H.png,sS,hH,mask-3.png,mask-4.png,s,1,1.5443118999246508,s,0,0.3218374999705702,0.050343000097200274,0.051329199923202395,0.09902229998260736,0.10280450014397502,0.7482720999978483
RSVPLG03,MR,20251014-095821,1.0.1,20251014-090324,702,Experiment,Both,1,Automatic,main,78,20251014-100626,local,local,300,H,H,A,A,A-H.png,A-H.png,hH,hH,mask-4.png,mask-2.png,h,1,0.9402423999272287,s,0,0.04542439989745617,0.05009320005774498,0.04855430009774864,0.10097529995255172,0.09852929995395243,0.30098109995014966
RSVPLG03,MR,20251014-095821,1.0.1,20251014-090324,702,Experiment,Both,1,Automatic,main,79,20251014-100631,local,local,750,S,H,A,A,A-S.png,A-H.png,sS,hH,mask-2.png,mask-3.png,s,1,1.8525090001057833,s,0,0.12201269995421171,0.050015500048175454,0.049847699934616685,0.09987769997678697,0.09986150008626282,0.7500006000045687
RSVPLG03,MR,20251014-095821,1.0.1,20251014-090324,702,Experiment,Both,1,Automatic,main,80,20251014-100637,local,global,750,H,H,E,E,E-H.png,H-E.png,hH,hH,mask-3.png,mask-1.png,h,1,1.3484770997893065,s,0,0.06569879991002381,0.049405100056901574,0.049541400047019124,0.09980769990943372,0.09994780016131699,0.7503789998590946
RSVPLG03,MR,20251014-095821,1.0.1,20251014-090324,702,Experiment,Both,1,Automatic,main,81,20251014-100642,local,global,300,H,S,A,E,A-H.png,S-E.png,hH,sS,mask-1.png,mask-1.png,h,1,0.9975922000594437,s,1,0.09637980000115931,0.0499038000125438,0.049209299962967634,0.0999354999512434,0.1000564000569284,0.2994045000523329
RSVPLG03,MR,20251014-095821,1.0.1,20251014-090324,702,Experiment,Both,1,Automatic,main,82,20251014-100647,local,local,750,S,H,A,E,A-S.png,E-H.png,sS,hH,mask-3.png,mask-3.png,h,0,0.663304700050503,s,0,0.5364310999866575,0.0495535999070853,0.048379499930888414,0.09899199986830354,0.09813850000500679,0.7497986999806017
RSVPLG03,MR,20251014-095821,1.0.1,20251014-090324,702,Experiment,Both,1,Automatic,main,83,20251014-100652,local,local,750,H,S,E,E,E-H.png,E-S.png,hH,sS,mask-1.png,mask-1.png,h,1,0.7335473999846727,s,1,0.44876529998146,0.050960700027644634,0.05149469990283251,0.10075750015676022,0.10076529998332262,0.7494149000849575
RSVPLG03,MR,20251014-095821,1.0.1,20251014-090324,702,Experiment,Both,1,Automatic,main,84,20251014-100657,global,local,750,H,H,E,E,H-E.png,E-H.png,hH,hH,mask-4.png,mask-1.png,h,1,0.9680315998848528,h,1,0.06945249997079372,0.04799069999717176,0.050396000035107136,0.0980590998660773,0.10119660012423992,0.749020499875769
RSVPLG03,MR,20251014-095821,1.0.1,20251014-090324,702,Experiment,Both,1,Automatic,main,85,20251014-100702,global,global,750,S,H,E,A,S-E.png,H-A.png,sS,hH,mask-3.png,mask-3.png,s,1,1.1022220000158995,h,1,0.02975940005853772,0.04940760019235313,0.05094289989210665,0.10015780013054609,0.09952010004781187,0.7496234001591802
RSVPLG03,MR,20251014-095821,1.0.1,20251014-090324,702,Experiment,Both,1,Automatic,main,86,20251014-100708,global,global,750,S,H,E,A,S-E.png,H-A.png,sS,hH,mask-1.png,mask-2.png,s,1,0.5282391000073403,h,1,0.008972299983724952,0.05006840010173619,0.0522154001519084,0.10115640005096793,0.09983720001764596,0.7495758000295609
RSVPLG03,MR,20251014-095821,1.0.1,20251014-090324,702,Experiment,Both,1,Automatic,main,87,20251014-100712,global,global,300,H,S,A,A,H-A.png,S-A.png,hH,sS,mask-2.png,mask-1.png,h,1,0.954951599938795,s,1,0.018865999998524785,0.05170499999076128,0.04868129990063608,0.10187820019200444,0.09853959991596639,0.3011031001806259
RSVPLG03,MR,20251014-095821,1.0.1,20251014-090324,702,Experiment,Both,1,Automatic,main,88,20251014-100717,local,global,750,H,H,E,E,E-H.png,H-E.png,hH,hH,mask-3.png,mask-4.png,h,1,1.2407094000373036,s,0,0.08065959997475147,0.049282200168818235,0.048301300033926964,0.09977350011467934,0.0998352998867631,0.7495534000918269
RSVPLG03,MR,20251014-095821,1.0.1,20251014-090324,702,Experiment,Both,1,Automatic,main,89,20251014-100722,local,local,750,H,H,E,A,E-H.png,A-H.png,hH,hH,mask-2.png,mask-4.png,h,1,0.78163419989869,s,0,0.06520610000006855,0.049569200025871396,0.05019670003093779,0.09869160014204681,0.10114379995502532,0.7487352001480758
RSVPLG03,MR,20251014-095821,1.0.1,20251014-090324,702,Experiment,Both,1,Automatic,main,90,20251014-100727,global,global,750,H,S,A,E,H-A.png,S-E.png,hH,sS,mask-2.png,mask-2.png,h,1,0.48047170019708574,s,1,0.02642140001989901,0.050957399886101484,0.05002859979867935,0.09903099993243814,0.09975950000807643,0.7490741000510752
RSVPLG03,MR,20251014-095821,1.0.1,20251014-090324,702,Experiment,Both,1,Automatic,main,91,20251014-100732,local,global,750,H,S,E,E,E-H.png,S-E.png,hH,sS,mask-4.png,mask-3.png,s,0,1.5575596000999212,h,0,0.04379109991714358,0.04830050002783537,0.0500080999918282,0.09852420003153384,0.09895969997160137,0.749810199951753
RSVPLG03,MR,20251014-095821,1.0.1,20251014-090324,702,Experiment,Both,1,Automatic,main,92,20251014-100738,global,global,300,S,H,A,A,S-A.png,H-A.png,sS,hH,mask-1.png,mask-1.png,h,0,1.2150538000278175,s,0,0.021149500040337443,0.05158800003118813,0.05065220012329519,0.09964710008352995,0.10069130011834204,0.30031049996614456
RSVPLG03,MR,20251014-095821,1.0.1,20251014-090324,702,Experiment,Both,1,Automatic,main,93,20251014-100742,local,local,750,S,S,A,E,A-S.png,E-S.png,sS,sS,mask-1.png,mask-4.png,s,1,0.9394982000812888,s,1,0.09638000000268221,0.05138810002245009,0.052089600125327706,0.10021930001676083,0.10202950006350875,0.7479427999351174
RSVPLG03,MR,20251014-095821,1.0.1,20251014-090324,702,Experiment,Both,1,Automatic,main,94,20251014-100747,global,local,750,S,H,E,E,S-E.png,E-H.png,sS,hH,mask-4.png,mask-1.png,s,1,2.219828699948266,s,0,1.233602600172162,0.049804999958723783,0.047372999833896756,0.09967529983259737,0.09753449982963502,0.7521138000302017
RSVPLG03,MR,20251014-095821,1.0.1,20251014-090324,702,Experiment,Both,1,Automatic,main,95,20251014-100755,local,global,300,H,S,A,E,A-H.png,S-E.png,hH,sS,mask-4.png,mask-3.png,h,1,0.5478751000482589,s,1,0.04978629993274808,0.04994460009038448,0.05115750012919307,0.10416550002992153,0.10080579994246364,0.29982930002734065
RSVPLG03,MR,20251014-095821,1.0.1,20251014-090324,702,Experiment,Both,1,Automatic,main,96,20251014-100759,local,local,300,S,H,E,A,E-S.png,A-H.png,sS,hH,mask-2.png,mask-3.png,h,0,0.6590040000155568,s,0,0.9369938999880105,0.04932069987989962,0.051058199955150485,0.09902419988065958,0.09885299997404218,0.29914529994130135
RSVPLG03,MR,20251014-095821,1.0.1,20251014-090324,702,Experiment,Both,1,Automatic,main,97,20251014-100805,global,local,300,H,S,E,A,H-E.png,A-S.png,hH,sS,mask-3.png,mask-1.png,h,1,1.5974622999783605,s,1,0.06462600012309849,0.04985930002294481,0.04963110014796257,0.10157860000617802,0.10007830010727048,0.2990009000059217
RSVPLG03,MR,20251014-095821,1.0.1,20251014-090324,702,Experiment,Both,1,Automatic,main,98,20251014-100810,global,local,300,H,H,A,A,H-A.png,A-H.png,hH,hH,mask-3.png,mask-4.png,h,1,1.211420000065118,s,0,0.6880171000957489,0.05145030003041029,0.04867659998126328,0.09971939981915057,0.1003318999428302,0.3001133999787271
RSVPLG03,MR,20251014-095821,1.0.1,20251014-090324,702,Experiment,Both,1,Automatic,main,99,20251014-100815,local,global,750,H,S,E,E,E-H.png,S-E.png,hH,sS,mask-2.png,mask-4.png,h,1,1.409563499968499,s,1,0.16617329977452755,0.04880440002307296,0.04866610001772642,0.09884000010788441,0.09973470005206764,0.7486010999418795
RSVPLG03,MR,20251014-095821,1.0.1,20251014-090324,702,Experiment,Both,1,Automatic,main,100,20251014-100821,global,local,300,S,H,A,A,S-A.png,A-H.png,sS,hH,mask-2.png,mask-3.png,h,0,1.3829304999671876,s,0,0.5137635001447052,0.04792600008659065,0.049184300005435944,0.09870990016497672,0.09889390016905963,0.29824859998188913
RSVPLG03,MR,20251014-095821,1.0.1,20251014-090324,702,Experiment,Both,1,Automatic,main,101,20251014-100910,global,global,300,S,H,E,A,S-E.png,H-A.png,sS,hH,mask-1.png,mask-1.png,s,1,0.6989319999702275,s,0,0.4648812001105398,0.050928100012242794,0.050142599968239665,0.09982750006020069,0.10085640009492636,0.30039829993620515
RSVPLG03,MR,20251014-095821,1.0.1,20251014-090324,702,Experiment,Both,1,Automatic,main,102,20251014-100915,global,local,300,S,H,E,E,S-E.png,E-H.png,sS,hH,mask-1.png,mask-1.png,s,1,0.5709116999059916,s,0,0.34666120004840195,0.04993609990924597,0.04970039986073971,0.09999509993940592,0.09926519985310733,0.29909080010838807
RSVPLG03,MR,20251014-095821,1.0.1,20251014-090324,702,Experiment,Both,1,Automatic,main,103,20251014-100919,global,global,300,S,H,A,A,S-A.png,H-A.png,sS,hH,mask-3.png,mask-3.png,s,1,0.378915699897334,h,1,0.07396519999019802,0.05102619994431734,0.0508494998794049,0.10005829995498061,0.10011909995228052,0.30064929998479784
RSVPLG03,MR,20251014-095821,1.0.1,20251014-090324,702,Experiment,Both,1,Automatic,main,104,20251014-100924,global,global,300,H,S,E,E,H-E.png,S-E.png,hH,sS,mask-3.png,mask-2.png,h,1,0.8630687999539077,s,1,0.034163800068199635,0.049874900141730905,0.05009849998168647,0.09987060003913939,0.10112630017101765,0.30022650002501905
RSVPLG03,MR,20251014-095821,1.0.1,20251014-090324,702,Experiment,Both,1,Automatic,main,105,20251014-100928,local,local,750,S,H,E,E,E-S.png,E-H.png,sS,hH,mask-3.png,mask-4.png,s,1,0.6997530001681298,s,0,0.0988030000589788,0.049958799965679646,0.05124300019815564,0.09894150006584823,0.09996780008077621,0.7479232999030501
RSVPLG03,MR,20251014-095821,1.0.1,20251014-090324,702,Experiment,Both,1,Automatic,main,106,20251014-100933,local,global,750,S,H,E,E,E-S.png,H-E.png,sS,hH,mask-3.png,mask-4.png,s,1,1.167462700046599,h,1,0.2886480998713523,0.049396400107070804,0.04991980013437569,0.09937660000286996,0.10008540004491806,0.7477597000543028
