exp,exp_initials,runtime,ver,modtime,sub,blocktype,targets,cuetype,mode,trialtype,trial,trialtime,t1_level,t2_level,t2_lag,t1,t2,distractor1,distractor2,stimfile1,stimfile2,t1_corr,t2_corr,maskfile1,maskfile2,t1_resp,t1_acc,t1_rt,t2_resp,t2_acc,t2_rt,t1_dur,t2_dur,t1mask_soa,t2mask_soa,t1t2_soa
RSVPLG03,MD,20260217-090643,1.0.2,20251105-084826,762,Introduction,T1,1,Automatic,main,1,20260217-100846,local,global,750,H,H,A,A,A-H.png,H-A.png,hH,hH,mask-3.png,mask-2.png,h,1,8.386297699995339,none,-5,0,0.09203740023076534,0.09843089990317822,0.19541320018470287,0.2013330003246665,0.7443164000287652
RSVPLG03,MD,20260217-090643,1.0.2,20251105-084826,762,Introduction,T1,1,Automatic,main,2,20260217-100859,local,local,750,S,H,A,A,A-S.png,A-H.png,sS,hH,mask-2.png,mask-1.png,h,0,1.8285159999504685,none,-5,0,0.09753709938377142,0.0986906997859478,0.1996737001463771,0.19976469967514277,0.7499994998797774
RSVPLG03,MD,20260217-090643,1.0.2,20251105-084826,762,Introduction,T1,1,Automatic,main,3,20260217-100905,global,local,750,S,H,A,A,S-A.png,A-H.png,sS,hH,mask-3.png,mask-2.png,h,0,2.0690213004127145,none,-5,0,0.09652209933847189,0.09941700007766485,0.19895130023360252,0.20234140008687973,0.7478163996711373
RSVPLG03,MD,20260217-090643,1.0.2,20251105-084826,762,Introduction,T1,1,Automatic,main,4,20260217-100911,global,local,750,S,H,E,E,S-E.png,E-H.png,sS,hH,mask-3.png,mask-4.png,s,1,0.8573051001876593,none,-5,0,0.09867950063198805,0.09657809976488352,0.20033570006489754,0.1996643003076315,0.7510727001354098
RSVPLG03,MD,20260217-090643,1.0.2,20251105-084826,762,Introduction,T1,1,Automatic,main,5,20260217-100916,global,global,750,S,H,E,E,S-E.png,H-E.png,sS,hH,mask-1.png,mask-2.png,s,1,1.1898835999891162,none,-5,0,0.09741129912436008,0.09884029999375343,0.19872819911688566,0.2017651991918683,0.7485638000071049
RSVPLG03,MD,20260217-090643,1.0.2,20251105-084826,762,Introduction,T1,1,Automatic,main,6,20260217-100922,global,local,750,S,H,A,A,S-A.png,A-H.png,sS,hH,mask-2.png,mask-3.png,s,1,0.5034748995676637,none,-5,0,0.09869519993662834,0.09761289972811937,0.20185079984366894,0.20066909957677126,0.7510970998555422
RSVPLG03,MD,20260217-090643,1.0.2,20251105-084826,762,Introduction,T1,1,Automatic,main,7,20260217-100926,local,global,750,H,H,E,A,E-H.png,H-A.png,hH,hH,mask-4.png,mask-1.png,h,1,2.363940100185573,none,-5,0,0.09673859924077988,0.09755330067127943,0.1999170994386077,0.19829510059207678,0.750204099342227
RSVPLG03,MD,20260217-090643,1.0.2,20251105-084826,762,Introduction,T1,1,Automatic,main,8,20260217-100933,global,global,750,H,S,E,E,H-E.png,S-E.png,hH,sS,mask-4.png,mask-2.png,h,1,0.37347300071269274,none,-5,0,0.0963940005749464,0.09659630060195923,0.19945470057427883,0.19964500050991774,0.7504254002124071
RSVPLG03,MD,20260217-090643,1.0.2,20251105-084826,762,Introduction,T1,1,Automatic,main,9,20260217-100937,local,local,750,S,S,E,E,E-S.png,E-S.png,sS,sS,mask-4.png,mask-1.png,s,1,0.6124325003474951,none,-5,0,0.09664789959788322,0.09701230004429817,0.19965790025889874,0.19991739932447672,0.7497800001874566
RSVPLG03,MD,20260217-090643,1.0.2,20251105-084826,762,Introduction,T1,1,Automatic,main,10,20260217-100942,local,global,750,H,S,E,A,E-H.png,S-A.png,hH,sS,mask-1.png,mask-4.png,h,1,0.3958588996902108,none,-5,0,0.09686319995671511,0.09837109968066216,0.19882280007004738,0.19926149956882,0.7498971000313759
RSVPLG03,MD,20260217-090643,1.0.2,20251105-084826,762,Introduction,T1,1,Automatic,main,11,20260217-100947,local,local,750,H,H,E,E,E-H.png,E-H.png,hH,hH,mask-4.png,mask-3.png,s,0,0.9056025994941592,none,-5,0,0.09866289980709553,0.0988841000944376,0.19998819939792156,0.20110270008444786,0.7499206997454166
RSVPLG03,MD,20260217-090643,1.0.2,20251105-084826,762,Introduction,T1,1,Automatic,main,12,20260217-100952,global,global,750,S,S,E,E,S-E.png,S-E.png,sS,sS,mask-4.png,mask-3.png,s,1,2.8479507006704807,none,-5,0,0.09639159962534904,0.09828879963606596,0.1991546992212534,0.19968589954078197,0.7489059995859861
RSVPLG03,MD,20260217-090643,1.0.2,20251105-084826,762,Introduction,T1,1,Automatic,main,13,20260217-100959,local,global,750,S,S,E,A,E-S.png,S-A.png,sS,sS,mask-1.png,mask-4.png,s,1,1.5931008998304605,none,-5,0,0.09845970012247562,0.0974520007148385,0.19940169993788004,0.19823729991912842,0.7512160995975137
RSVPLG03,MD,20260217-090643,1.0.2,20251105-084826,762,Introduction,T1,1,Automatic,main,14,20260217-101005,local,local,750,H,H,E,A,E-H.png,A-H.png,hH,hH,mask-3.png,mask-1.png,h,1,0.3574559995904565,none,-5,0,0.09753900021314621,0.09755020029842854,0.1996841998770833,0.20010779984295368,0.7498495001345873
RSVPLG03,MD,20260217-090643,1.0.2,20251105-084826,762,Introduction,T1,1,Automatic,main,15,20260217-101009,global,global,750,H,S,E,A,H-E.png,S-A.png,hH,sS,mask-4.png,mask-3.png,h,1,0.35285159945487976,none,-5,0,0.09684269968420267,0.09755450021475554,0.19970859959721565,0.19936840049922466,0.7502012997865677
RSVPLG03,MD,20260217-090643,1.0.2,20251105-084826,762,Introduction,T1,1,Automatic,main,16,20260217-101014,global,local,750,S,S,A,E,S-A.png,E-S.png,sS,sS,mask-3.png,mask-2.png,s,1,0.45696850027889013,none,-5,0,0.09755569975823164,0.0957849994301796,0.19887689966708422,0.19880620017647743,0.751069700345397
RSVPLG03,,20260217-101031,1.0.2,20251105-084826,762,Practice,T1,1,Automatic,main,1,20260217-101140,local,local,300,S,S,A,A,A-S.png,A-S.png,sS,sS,mask-2.png,mask-3.png,s,1,1.1501376004889607,none,-5,0,0.04609119985252619,0.04527539946138859,0.09903250075876713,0.0976291997358203,0.30077290069311857
RSVPLG03,,20260217-101031,1.0.2,20251105-084826,762,Practice,T1,1,Automatic,main,2,20260217-101145,local,global,300,S,H,A,A,A-S.png,H-A.png,sS,hH,mask-4.png,mask-3.png,s,1,0.5177842006087303,none,-5,0,0.046939900144934654,0.04603379964828491,0.09962120000272989,0.09864860028028488,0.30000719986855984
RSVPLG03,,20260217-101031,1.0.2,20251105-084826,762,Practice,T1,1,Automatic,main,3,20260217-101149,local,global,300,S,H,E,E,E-S.png,H-E.png,sS,hH,mask-1.png,mask-4.png,s,1,0.48687610030174255,none,-5,0,0.04616899974644184,0.047487299889326096,0.10005659982562065,0.09982310049235821,0.29910079948604107
RSVPLG03,,20260217-101031,1.0.2,20251105-084826,762,Practice,T1,1,Automatic,main,4,20260217-101153,global,global,300,H,S,A,A,H-A.png,S-A.png,hH,sS,mask-4.png,mask-1.png,h,1,0.6169734001159668,none,-5,0,0.04708950035274029,0.047475299797952175,0.09934299997985363,0.10173869971185923,0.2979941004887223
RSVPLG03,,20260217-101031,1.0.2,20251105-084826,762,Practice,T1,1,Automatic,main,5,20260217-101157,local,local,750,S,S,E,E,E-S.png,E-S.png,sS,sS,mask-2.png,mask-3.png,s,1,0.4500417998060584,none,-5,0,0.04708440043032169,0.046158600598573685,0.1006292998790741,0.09838900063186884,0.7510930998250842
RSVPLG03,,20260217-101031,1.0.2,20251105-084826,762,Practice,T1,1,Automatic,main,6,20260217-101202,local,local,300,H,H,E,A,E-H.png,A-H.png,hH,hH,mask-1.png,mask-2.png,h,1,0.4069877006113529,none,-5,0,0.04632259998470545,0.04823710024356842,0.0986945005133748,0.10060520004481077,0.2992329001426697
RSVPLG03,,20260217-101031,1.0.2,20251105-084826,762,Practice,T1,1,Automatic,main,7,20260217-101205,local,local,750,H,H,A,E,A-H.png,E-H.png,hH,hH,mask-4.png,mask-2.png,h,1,0.4234606996178627,none,-5,0,0.046438200399279594,0.04820359963923693,0.09879870060831308,0.10167340002954006,0.7471192004159093
RSVPLG03,,20260217-101031,1.0.2,20251105-084826,762,Practice,T1,1,Automatic,main,8,20260217-101210,global,local,300,H,S,E,A,H-E.png,A-S.png,hH,sS,mask-4.png,mask-2.png,h,1,0.4994762996211648,none,-5,0,0.04736989922821522,0.04818319994956255,0.09996839985251427,0.10072269942611456,0.2983197998255491
RSVPLG03,,20260217-101031,1.0.2,20251105-084826,762,Practice,T1,1,Automatic,main,9,20260217-101214,global,global,750,S,H,E,A,S-E.png,H-A.png,sS,hH,mask-2.png,mask-2.png,s,1,0.3881895001977682,none,-5,0,0.046235100366175175,0.04699769988656044,0.09862340055406094,0.10004799999296665,0.7481050007045269
RSVPLG03,,20260217-101031,1.0.2,20251105-084826,762,Practice,T1,1,Automatic,main,10,20260217-101218,global,global,300,H,S,A,A,H-A.png,S-A.png,hH,sS,mask-1.png,mask-3.png,h,1,0.42077900003641844,none,-5,0,0.04623849969357252,0.04746089968830347,0.09989389963448048,0.10082980059087276,0.2980233998969197
RSVPLG03,,20260217-101031,1.0.2,20251105-084826,762,Practice,T1,1,Automatic,main,11,20260217-101222,global,local,750,H,H,E,A,H-E.png,A-H.png,hH,hH,mask-1.png,mask-4.png,h,1,0.3383943000808358,none,-5,0,0.04733560048043728,0.04570150002837181,0.0997576005756855,0.09806740004569292,0.7506050001829863
RSVPLG03,,20260217-101031,1.0.2,20251105-084826,762,Practice,T1,1,Automatic,main,12,20260217-101227,global,local,300,S,S,A,A,S-A.png,A-S.png,sS,sS,mask-4.png,mask-1.png,s,1,0.3629239993169904,none,-5,0,0.04721800051629543,0.04731310065835714,0.1005782000720501,0.10060450062155724,0.3001883998513222
RSVPLG03,,20260217-101031,1.0.2,20251105-084826,762,Practice,T1,1,Automatic,main,13,20260217-101230,local,global,750,S,H,E,E,E-S.png,H-E.png,sS,hH,mask-3.png,mask-1.png,s,1,0.3771834000945091,none,-5,0,0.048434000462293625,0.04734640009701252,0.10084010008722544,0.10114450007677078,0.7500680005177855
RSVPLG03,,20260217-101031,1.0.2,20251105-084826,762,Practice,T1,1,Automatic,main,14,20260217-101235,local,global,750,H,H,A,A,A-H.png,H-A.png,hH,hH,mask-3.png,mask-1.png,h,1,0.3727283999323845,none,-5,0,0.04719340056180954,0.047264100052416325,0.10090450011193752,0.10055859945714474,0.7480409005656838
RSVPLG03,,20260217-101031,1.0.2,20251105-084826,762,Practice,T1,1,Automatic,main,15,20260217-101239,global,global,750,H,H,E,E,H-E.png,H-E.png,hH,hH,mask-3.png,mask-1.png,h,1,0.3274972001090646,none,-5,0,0.047463600523769855,0.04632139950990677,0.09969670046120882,0.09878899995237589,0.7489285003393888
RSVPLG03,,20260217-101031,1.0.2,20251105-084826,762,Practice,T1,1,Automatic,main,16,20260217-101244,global,local,750,S,H,A,E,S-A.png,E-H.png,sS,hH,mask-2.png,mask-1.png,s,1,0.6503584003075957,none,-5,0,0.04824469983577728,0.048190999776124954,0.09996430017054081,0.09954619966447353,0.7490200996398926
RSVPLG03,md,20260217-101423,1.0.2,20251105-084826,762,Introduction,Both,1,Automatic,main,1,20260217-101618,global,local,750,H,S,A,A,H-A.png,A-S.png,hH,sS,mask-1.png,mask-2.png,h,1,3.4315913999453187,s,1,2.469021299853921,0.09628039970993996,0.09810130018740892,0.20186589937657118,0.2004591003060341,0.7508507994934916
RSVPLG03,md,20260217-101423,1.0.2,20251105-084826,762,Introduction,Both,1,Automatic,main,2,20260217-101629,global,local,750,S,S,A,A,S-A.png,A-S.png,sS,sS,mask-4.png,mask-4.png,s,1,0.8486216999590397,s,1,2.684183799661696,0.09613149985671043,0.09719329979270697,0.19979679957032204,0.1995438002049923,0.7520046001300216
RSVPLG03,md,20260217-101423,1.0.2,20251105-084826,762,Introduction,Both,1,Automatic,main,3,20260217-101637,global,global,750,S,H,E,A,S-E.png,H-A.png,sS,hH,mask-3.png,mask-2.png,s,1,0.7839320003986359,h,1,0.6548750000074506,0.09713710006326437,0.09896799921989441,0.20046520046889782,0.20033989939838648,0.7520723007619381
RSVPLG03,md,20260217-101423,1.0.2,20251105-084826,762,Introduction,Both,1,Automatic,main,4,20260217-101642,local,local,750,S,S,A,E,A-S.png,E-S.png,sS,sS,mask-1.png,mask-1.png,s,1,0.8382158996537328,h,0,0.47380440030246973,0.09713270049542189,0.09810660034418106,0.20111330039799213,0.20137250050902367,0.7518552001565695
RSVPLG03,md,20260217-101423,1.0.2,20251105-084826,762,Introduction,Both,1,Automatic,main,5,20260217-101648,local,global,750,H,S,E,A,E-H.png,S-A.png,hH,sS,mask-2.png,mask-2.png,h,1,3.8674133997410536,h,0,0.2707594996318221,0.09736870042979717,0.09891529940068722,0.201727700419724,0.20052589941769838,0.7521545002236962
RSVPLG03,md,20260217-101423,1.0.2,20251105-084826,762,Introduction,Both,1,Automatic,main,6,20260217-101656,local,local,750,H,S,A,E,A-H.png,E-S.png,hH,sS,mask-1.png,mask-3.png,h,1,0.6446726005524397,s,1,0.31883590016514063,0.09640419948846102,0.09794499911367893,0.20059589948505163,0.19966519996523857,0.7520300000905991
RSVPLG03,md,20260217-101423,1.0.2,20251105-084826,762,Introduction,Both,1,Automatic,main,7,20260217-101702,global,global,750,H,H,A,E,H-A.png,H-E.png,hH,hH,mask-2.png,mask-1.png,h,1,0.6042084004729986,h,1,0.41158859990537167,0.09725419990718365,0.0981825003400445,0.20134990010410547,0.20106800086796284,0.7519188998267055
RSVPLG03,md,20260217-101423,1.0.2,20251105-084826,762,Introduction,Both,1,Automatic,main,8,20260217-101707,local,global,750,H,S,A,A,A-H.png,S-A.png,hH,sS,mask-4.png,mask-1.png,h,1,2.0032911002635956,h,0,0.1733354004099965,0.0981954000890255,0.09733889997005463,0.20123150013387203,0.2029167003929615,0.7519388999789953
RSVPLG03,md,20260217-101423,1.0.2,20251105-084826,762,Introduction,Both,1,Automatic,main,9,20260217-101714,global,global,750,S,H,E,A,S-E.png,H-A.png,sS,hH,mask-4.png,mask-4.png,s,1,0.7599617000669241,h,1,0.09125449974089861,0.0981267997995019,0.09710429981350899,0.2002948997542262,0.199494699947536,0.7527866000309587
RSVPLG03,md,20260217-101423,1.0.2,20251105-084826,762,Introduction,Both,1,Automatic,main,10,20260217-101719,global,global,750,S,H,E,A,S-E.png,H-A.png,sS,hH,mask-4.png,mask-3.png,s,1,0.7092458000406623,h,1,0.11034440062940121,0.09722250048071146,0.09723450057208538,0.20045960042625666,0.19949330016970634,0.7529774997383356
RSVPLG03,md,20260217-101423,1.0.2,20251105-084826,762,Introduction,Both,1,Automatic,main,11,20260217-101724,global,local,750,H,S,E,A,H-E.png,A-S.png,hH,sS,mask-2.png,mask-3.png,h,1,1.282209699973464,s,1,0.36027759965509176,0.09933760017156601,0.09616609942167997,0.20143300015479326,0.19944440014660358,0.7539825001731515
RSVPLG03,md,20260217-101423,1.0.2,20251105-084826,762,Introduction,Both,1,Automatic,main,12,20260217-101730,local,global,750,S,S,E,E,E-S.png,S-E.png,sS,sS,mask-2.png,mask-1.png,s,1,1.595427599735558,s,1,0.4129440998658538,0.09801310021430254,0.09705029986798763,0.20205090008676052,0.20068439934402704,0.7527373004704714
RSVPLG03,md,20260217-101423,1.0.2,20251105-084826,762,Introduction,Both,1,Automatic,main,13,20260217-101736,global,local,750,H,S,E,E,H-E.png,E-S.png,hH,sS,mask-2.png,mask-4.png,h,1,0.3622514996677637,s,1,0.12647580076009035,0.09814610052853823,0.09814320039004087,0.2012616004794836,0.20047130063176155,0.751842999830842
RSVPLG03,md,20260217-101423,1.0.2,20251105-084826,762,Introduction,Both,1,Automatic,main,14,20260217-101741,local,local,750,H,H,A,E,A-H.png,E-H.png,hH,hH,mask-3.png,mask-2.png,h,1,0.7951732007786632,h,1,0.14126370009034872,0.09663980081677437,0.09820220060646534,0.20108430087566376,0.20040310081094503,0.7517983000725508
RSVPLG03,md,20260217-101423,1.0.2,20251105-084826,762,Introduction,Both,1,Automatic,main,15,20260217-101746,local,local,750,S,H,A,E,A-S.png,E-H.png,sS,hH,mask-4.png,mask-4.png,s,1,0.3302472000941634,h,1,0.014908799901604652,0.09798260033130646,0.0992467999458313,0.20041789952665567,0.20043790061026812,0.7520145997405052
RSVPLG03,md,20260217-101423,1.0.2,20251105-084826,762,Introduction,Both,1,Automatic,main,16,20260217-101751,local,global,750,H,S,E,E,E-H.png,S-E.png,hH,sS,mask-3.png,mask-4.png,h,1,1.3214012999087572,s,1,0.4590783007442951,0.0982238994911313,0.0982336001470685,0.20148259960114956,0.20170720014721155,0.7518772995099425
RSVPLG03,,20260217-101935,1.0.2,20251105-084826,762,Practice,Both,1,Automatic,main,1,20260217-102001,global,local,750,H,S,A,A,H-A.png,A-S.png,hH,sS,mask-3.png,mask-1.png,h,1,0.6245098002254963,s,1,0.6467181006446481,0.0459694005548954,0.049226499162614346,0.09973170049488544,0.10158379934728146,0.7510659005492926
RSVPLG03,,20260217-101935,1.0.2,20251105-084826,762,Practice,Both,1,Automatic,main,2,20260217-102007,local,global,750,H,S,E,E,E-H.png,S-E.png,hH,sS,mask-3.png,mask-1.png,h,1,0.9831390995532274,s,1,0.604636000469327,0.0474841995164752,0.04740639962255955,0.09989609941840172,0.10043849982321262,0.7525766994804144
RSVPLG03,,20260217-101935,1.0.2,20251105-084826,762,Practice,Both,1,Automatic,main,3,20260217-102012,global,global,750,H,S,E,E,H-E.png,S-E.png,hH,sS,mask-4.png,mask-4.png,h,1,0.49889739975333214,s,1,0.07378759980201721,0.04547720029950142,0.047157200053334236,0.09753090050071478,0.10098699945956469,0.7496410002931952
RSVPLG03,,20260217-101935,1.0.2,20251105-084826,762,Practice,Both,1,Automatic,main,4,20260217-102017,local,global,300,H,H,A,E,A-H.png,H-E.png,hH,hH,mask-1.png,mask-2.png,h,1,0.944106999784708,s,0,0.44414780009537935,0.0460061002522707,0.04831350035965443,0.10081540048122406,0.10122469998896122,0.299813000485301
RSVPLG03,,20260217-101935,1.0.2,20251105-084826,762,Practice,Both,1,Automatic,main,5,20260217-102022,global,local,300,S,S,A,A,S-A.png,A-S.png,sS,sS,mask-2.png,mask-2.png,s,1,0.5582399992272258,h,0,0.07964139990508556,0.04840239975601435,0.04724830016493797,0.0997182996943593,0.10067829955369234,0.3002712996676564
RSVPLG03,,20260217-101935,1.0.2,20251105-084826,762,Practice,Both,1,Automatic,main,6,20260217-102027,local,local,300,H,S,A,E,A-H.png,E-S.png,hH,sS,mask-3.png,mask-1.png,h,1,0.9279528995975852,s,1,0.5979822995141149,0.04915320035070181,0.04818370006978512,0.10165579989552498,0.10068900045007467,0.30111469980329275
RSVPLG03,,20260217-101935,1.0.2,20251105-084826,762,Practice,Both,1,Automatic,main,7,20260217-102032,global,local,750,S,H,A,A,S-A.png,A-H.png,sS,hH,mask-1.png,mask-2.png,s,1,0.6867629997432232,h,1,0.10582000017166138,0.0474182004109025,0.04740470089018345,0.09975080005824566,0.10079900082200766,0.7518478995189071
RSVPLG03,,20260217-101935,1.0.2,20251105-084826,762,Practice,Both,1,Automatic,main,8,20260217-102037,local,global,300,H,H,E,E,E-H.png,H-E.png,hH,hH,mask-3.png,mask-3.png,h,1,0.8418950997292995,h,1,0.6065266001969576,0.0469198003411293,0.0483662998303771,0.10046550072729588,0.09962149988859892,0.30090250074863434
RSVPLG03,,20260217-101935,1.0.2,20251105-084826,762,Practice,Both,1,Automatic,main,9,20260217-102042,global,global,750,S,S,A,A,S-A.png,S-A.png,sS,sS,mask-4.png,mask-4.png,s,1,0.3975221002474427,s,1,0.23835569992661476,0.04929309990257025,0.047297799959778786,0.10151080042123795,0.09959459956735373,0.7538751000538468
RSVPLG03,,20260217-101935,1.0.2,20251105-084826,762,Practice,Both,1,Automatic,main,10,20260217-102047,local,local,750,S,H,E,A,E-S.png,A-H.png,sS,hH,mask-1.png,mask-2.png,s,1,0.47930040024220943,h,1,0.23813039995729923,0.04648989997804165,0.04935560002923012,0.10006130021065474,0.10071500018239021,0.7509947000071406
RSVPLG03,,20260217-101935,1.0.2,20251105-084826,762,Practice,Both,1,Automatic,main,11,20260217-102052,global,global,300,S,S,A,A,S-A.png,S-A.png,sS,sS,mask-1.png,mask-2.png,s,1,0.7677240995690227,h,0,0.6871442999690771,0.04537330009043217,0.04782139975577593,0.09898879937827587,0.10089359991252422,0.2991268001496792
RSVPLG03,,20260217-101935,1.0.2,20251105-084826,762,Practice,Both,1,Automatic,main,12,20260217-102057,local,local,300,H,H,A,A,A-H.png,A-H.png,hH,hH,mask-1.png,mask-4.png,h,1,0.6771261999383569,h,1,0.2779550999403,0.04838529974222183,0.046222299337387085,0.09995959978550673,0.09860309958457947,0.3025871003046632
RSVPLG03,,20260217-101935,1.0.2,20251105-084826,762,Practice,Both,1,Automatic,main,13,20260217-102101,global,local,300,S,S,E,E,S-E.png,E-S.png,sS,sS,mask-2.png,mask-3.png,s,1,0.4843998998403549,s,1,0.3186590000987053,0.04842359945178032,0.04841409996151924,0.10296539962291718,0.10066370014101267,0.3013474000617862
RSVPLG03,,20260217-101935,1.0.2,20251105-084826,762,Practice,Both,1,Automatic,main,14,20260217-102106,local,local,750,S,H,E,E,E-S.png,E-H.png,sS,hH,mask-1.png,mask-1.png,s,1,0.37265470065176487,h,1,0.14295290037989616,0.04731639940291643,0.04843680001795292,0.10015939921140671,0.10035150032490492,0.751758299767971
RSVPLG03,,20260217-101935,1.0.2,20251105-084826,762,Practice,Both,1,Automatic,main,15,20260217-102111,global,global,300,S,H,E,A,S-E.png,H-A.png,sS,hH,mask-4.png,mask-1.png,s,1,0.5120939007028937,h,1,0.18990639969706535,0.047152900137007236,0.04632830061018467,0.09948130045086145,0.10068310052156448,0.2998438999056816
RSVPLG03,,20260217-101935,1.0.2,20251105-084826,762,Practice,Both,1,Automatic,main,16,20260217-102115,local,global,750,S,H,A,A,A-S.png,H-A.png,sS,hH,mask-3.png,mask-1.png,s,1,0.5957862995564938,h,1,0.3109916001558304,0.04825440049171448,0.04661030042916536,0.09981129970401525,0.1009673997759819,0.7531952001154423
RSVPLG03,MD,20260217-102155,1.0.2,20251105-084826,762,Experiment,Both,1,Automatic,warmup,1,20260217-102228,local,local,300,H,S,A,A,A-H.png,A-S.png,hH,sS,mask-4.png,mask-1.png,h,1,0.740489199757576,s,1,0.33119039982557297,0.04575789999216795,0.047429999336600304,0.09881529957056046,0.09975269995629787,0.30010970029979944
RSVPLG03,MD,20260217-102155,1.0.2,20251105-084826,762,Experiment,Both,1,Automatic,warmup,2,20260217-102233,local,local,750,H,S,A,A,A-H.png,A-S.png,hH,sS,mask-1.png,mask-3.png,h,1,0.3701669005677104,s,1,0.16634969972074032,0.04597749933600426,0.04814609978348017,0.09807299915701151,0.10034990031272173,0.7497419994324446
RSVPLG03,MD,20260217-102155,1.0.2,20251105-084826,762,Experiment,Both,1,Automatic,warmup,3,20260217-102237,local,global,300,H,H,A,E,A-H.png,H-E.png,hH,hH,mask-3.png,mask-4.png,h,1,0.6818383997306228,h,1,0.3025238001719117,0.047363500110805035,0.04623349942266941,0.1005887994542718,0.09970809984952211,0.30116809997707605
RSVPLG03,MD,20260217-102155,1.0.2,20251105-084826,762,Experiment,Both,1,Automatic,warmup,4,20260217-102242,global,global,750,H,S,A,E,H-A.png,S-E.png,hH,sS,mask-4.png,mask-4.png,h,1,0.5352791007608175,s,1,0.26332669984549284,0.04698739945888519,0.04621629975736141,0.09915959928184748,0.09984590020030737,0.7515899995341897
RSVPLG03,MD,20260217-102155,1.0.2,20251105-084826,762,Experiment,Both,1,Automatic,main,5,20260217-102247,local,local,750,H,H,E,A,E-H.png,A-H.png,hH,hH,mask-4.png,mask-2.png,h,1,0.3814042005687952,h,1,0.24767320044338703,0.048984100110828876,0.04741069953888655,0.1007669996470213,0.09998099971562624,0.7529215002432466
RSVPLG03,MD,20260217-102155,1.0.2,20251105-084826,762,Experiment,Both,1,Automatic,main,6,20260217-102252,global,local,300,H,S,E,E,H-E.png,E-S.png,hH,sS,mask-3.png,mask-2.png,h,1,0.4822039995342493,s,1,0.1603287998586893,0.048348200507462025,0.046199800446629524,0.10083030071109533,0.09871149994432926,0.302165400236845
RSVPLG03,MD,20260217-102155,1.0.2,20251105-084826,762,Experiment,Both,1,Automatic,main,7,20260217-102256,global,global,300,H,H,A,A,H-A.png,H-A.png,hH,hH,mask-3.png,mask-1.png,h,1,0.5008858004584908,h,1,0.24648949969559908,0.04724410083144903,0.04822580050677061,0.10178220085799694,0.09962510038167238,0.3012073002755642
RSVPLG03,MD,20260217-102155,1.0.2,20251105-084826,762,Experiment,Both,1,Automatic,main,8,20260217-102301,local,local,300,S,S,A,E,A-S.png,E-S.png,sS,sS,mask-3.png,mask-1.png,s,1,0.5657235998660326,s,1,0.2062846003100276,0.04724679980427027,0.04740909952670336,0.10068329982459545,0.09980539977550507,0.30105109978467226
RSVPLG03,MD,20260217-102155,1.0.2,20251105-084826,762,Experiment,Both,1,Automatic,main,9,20260217-102305,global,global,750,S,S,A,E,S-A.png,S-E.png,sS,sS,mask-4.png,mask-1.png,s,1,0.4802451999858022,s,1,0.22327620070427656,0.04628910031169653,0.0472333999350667,0.09963210020214319,0.10096430033445358,0.7509701997041702
RSVPLG03,MD,20260217-102155,1.0.2,20251105-084826,762,Experiment,Both,1,Automatic,main,10,20260217-102310,local,global,300,H,S,E,E,E-H.png,S-E.png,hH,sS,mask-2.png,mask-4.png,h,1,0.563866600394249,h,0,0.9396528005599976,0.04728289972990751,0.046590400859713554,0.0996445994824171,0.0997822005301714,0.3009803993627429
RSVPLG03,MD,20260217-102155,1.0.2,20251105-084826,762,Experiment,Both,1,Automatic,main,11,20260217-102315,global,global,750,H,S,E,E,H-E.png,S-E.png,hH,sS,mask-1.png,mask-4.png,h,1,0.3915519993752241,s,1,0.16051819920539856,0.04674960020929575,0.04697609972208738,0.09914979990571737,0.0994776003062725,0.7519126003608108
RSVPLG03,MD,20260217-102155,1.0.2,20251105-084826,762,Experiment,Both,1,Automatic,main,12,20260217-102320,global,local,750,S,H,A,E,S-A.png,E-H.png,sS,hH,mask-4.png,mask-2.png,s,1,0.6793525004759431,h,1,0.10771060083061457,0.046348100528120995,0.048066199757158756,0.09976050071418285,0.10148009937256575,0.7500760005787015
RSVPLG03,MD,20260217-102155,1.0.2,20251105-084826,762,Experiment,Both,1,Automatic,main,13,20260217-102325,local,global,300,S,S,E,A,E-S.png,S-A.png,sS,sS,mask-3.png,mask-4.png,s,1,0.747138099744916,h,0,0.2799018006771803,0.04790650028735399,0.04823740012943745,0.10008160024881363,0.10068830009549856,0.3006052002310753
RSVPLG03,MD,20260217-102155,1.0.2,20251105-084826,762,Experiment,Both,1,Automatic,main,14,20260217-102329,global,global,300,H,H,A,E,H-A.png,H-E.png,hH,hH,mask-2.png,mask-4.png,h,1,0.5377356000244617,h,1,0.2135706003755331,0.047509100288152695,0.04742559976875782,0.10073900036513805,0.099745599552989,0.3011920005083084
RSVPLG03,MD,20260217-102155,1.0.2,20251105-084826,762,Experiment,Both,1,Automatic,main,15,20260217-102334,global,global,750,S,S,A,A,S-A.png,S-A.png,sS,sS,mask-4.png,mask-1.png,s,1,0.42067360039800406,s,1,0.19953589979559183,0.04770199954509735,0.04836480040103197,0.1013679001480341,0.10082950070500374,0.7525386996567249
RSVPLG03,MD,20260217-102155,1.0.2,20251105-084826,762,Experiment,Both,1,Automatic,main,16,20260217-102338,global,global,300,H,S,E,A,H-E.png,S-A.png,hH,sS,mask-4.png,mask-1.png,h,1,0.4079885995015502,h,0,0.36364200059324503,0.048261700198054314,0.04954440053552389,0.09958289936184883,0.09987130016088486,0.29997099936008453
RSVPLG03,MD,20260217-102155,1.0.2,20251105-084826,762,Experiment,Both,1,Automatic,main,17,20260217-102343,local,local,300,H,H,E,E,E-H.png,E-H.png,hH,hH,mask-1.png,mask-3.png,h,1,0.3970948001369834,h,1,0.651073900051415,0.046211499720811844,0.047331600449979305,0.09961799997836351,0.0985849006101489,0.30121769942343235
RSVPLG03,MD,20260217-102155,1.0.2,20251105-084826,762,Experiment,Both,1,Automatic,main,18,20260217-102348,global,local,300,S,H,E,A,S-E.png,A-H.png,sS,hH,mask-4.png,mask-3.png,s,1,0.47147620003670454,h,1,0.07714779954403639,0.049263699911534786,0.04830440040677786,0.10157669987529516,0.09975370019674301,0.3020450994372368
RSVPLG03,MD,20260217-102155,1.0.2,20251105-084826,762,Experiment,Both,1,Automatic,main,19,20260217-102352,global,global,750,S,S,A,E,S-A.png,S-E.png,sS,sS,mask-1.png,mask-3.png,s,1,0.4552047001197934,s,1,0.20699919946491718,0.04608660005033016,0.045858800411224365,0.09973159991204739,0.09934980049729347,0.7515001995489001
RSVPLG03,MD,20260217-102155,1.0.2,20251105-084826,762,Experiment,Both,1,Automatic,main,20,20260217-102357,global,local,750,S,H,A,A,S-A.png,A-H.png,sS,hH,mask-2.png,mask-1.png,s,1,0.48355669993907213,h,1,0.06276539992541075,0.04505040030926466,0.04732990078628063,0.09828659985214472,0.09986830037087202,0.7506459997966886
RSVPLG03,MD,20260217-102155,1.0.2,20251105-084826,762,Experiment,Both,1,Automatic,main,21,20260217-102401,local,local,750,S,H,E,E,E-S.png,E-H.png,sS,hH,mask-1.png,mask-3.png,s,1,0.32637299969792366,h,1,0.04683330003172159,0.04734549950808287,0.04629340022802353,0.10085409972816706,0.09864600002765656,0.7520416993647814
RSVPLG03,MD,20260217-102155,1.0.2,20251105-084826,762,Experiment,Both,1,Automatic,main,22,20260217-102406,local,global,750,S,S,E,E,E-S.png,S-E.png,sS,sS,mask-2.png,mask-2.png,s,1,0.6941496999934316,s,1,0.3010270996019244,0.046254600398242474,0.04613280016928911,0.10054450016468763,0.09866280015558004,0.7521165004000068
RSVPLG03,MD,20260217-102155,1.0.2,20251105-084826,762,Experiment,Both,1,Automatic,main,23,20260217-102411,global,local,750,S,S,A,E,S-A.png,E-S.png,sS,sS,mask-2.png,mask-2.png,s,1,0.4532840000465512,s,1,0.16919439937919378,0.04637209977954626,0.04625240061432123,0.10076879989355803,0.09872050024569035,0.7520312992855906
RSVPLG03,MD,20260217-102155,1.0.2,20251105-084826,762,Experiment,Both,1,Automatic,main,24,20260217-102416,global,global,300,H,H,A,A,H-A.png,H-A.png,hH,hH,mask-4.png,mask-1.png,h,1,0.478290400467813,h,1,0.20573680009692907,0.047397700138390064,0.047552499920129776,0.1019029002636671,0.10092220082879066,0.3010310996323824
RSVPLG03,MD,20260217-102155,1.0.2,20251105-084826,762,Experiment,Both,1,Automatic,main,25,20260217-102420,local,global,300,H,S,A,E,A-H.png,S-E.png,hH,sS,mask-1.png,mask-4.png,h,1,0.4436050998046994,h,0,0.5271902997046709,0.04827969986945391,0.04846659954637289,0.10067030042409897,0.10072479955852032,0.3011036003008485
RSVPLG03,MD,20260217-102155,1.0.2,20251105-084826,762,Experiment,Both,1,Automatic,main,26,20260217-102440,global,global,750,H,H,A,E,H-A.png,H-E.png,hH,hH,mask-4.png,mask-1.png,h,1,0.4668828994035721,h,1,0.17385590076446533,0.04721269942820072,0.04643870051950216,0.099936299957335,0.0992347002029419,0.7520021991804242
RSVPLG03,MD,20260217-102155,1.0.2,20251105-084826,762,Experiment,Both,1,Automatic,main,27,20260217-102445,global,local,300,H,S,A,E,H-A.png,E-S.png,hH,sS,mask-4.png,mask-2.png,h,1,0.4553950997069478,s,1,0.015542300418019295,0.04722370021045208,0.04761260002851486,0.10066130012273788,0.09992629941552877,0.3018577005714178
RSVPLG03,MD,20260217-102155,1.0.2,20251105-084826,762,Experiment,Both,1,Automatic,main,28,20260217-102449,global,local,300,S,H,A,E,S-A.png,E-H.png,sS,hH,mask-1.png,mask-3.png,s,1,0.4262680998072028,h,1,0.013946600258350372,0.04832550045102835,0.04611739981919527,0.10188290011137724,0.09840860031545162,0.30239100009202957
RSVPLG03,MD,20260217-102155,1.0.2,20251105-084826,762,Experiment,Both,1,Automatic,main,29,20260217-102453,local,local,300,S,H,A,E,A-S.png,E-H.png,sS,hH,mask-1.png,mask-2.png,s,1,0.45994129963219166,h,1,0.09324270021170378,0.047427200712263584,0.04727130010724068,0.10180980060249567,0.10116949956864119,0.30142000038176775
RSVPLG03,MD,20260217-102155,1.0.2,20251105-084826,762,Experiment,Both,1,Automatic,main,30,20260217-102457,local,local,300,S,H,A,E,A-S.png,E-H.png,sS,hH,mask-2.png,mask-3.png,s,1,0.3626578999683261,h,1,0.6160770999267697,0.04729980044066906,0.04574999958276749,0.10098149999976158,0.09911709930747747,0.3012326005846262
RSVPLG03,MD,20260217-102155,1.0.2,20251105-084826,762,Experiment,Both,1,Automatic,main,31,20260217-102502,local,local,750,S,S,A,A,A-S.png,A-S.png,sS,sS,mask-4.png,mask-3.png,s,1,0.3268972998484969,s,1,0.22151159960776567,0.04662129934877157,0.048311199992895126,0.10069729946553707,0.09964609984308481,0.7511235000565648
RSVPLG03,MD,20260217-102155,1.0.2,20251105-084826,762,Experiment,Both,1,Automatic,main,32,20260217-102506,local,local,750,H,S,A,E,A-H.png,E-S.png,hH,sS,mask-3.png,mask-3.png,h,1,0.2926931995898485,s,1,0.2385080000385642,0.04740630090236664,0.046136499382555485,0.10228660050779581,0.09849909972399473,0.7531384006142616
RSVPLG03,MD,20260217-102155,1.0.2,20251105-084826,762,Experiment,Both,1,Automatic,main,33,20260217-102511,local,local,750,S,H,A,A,A-S.png,A-H.png,sS,hH,mask-2.png,mask-2.png,s,1,0.21694230008870363,h,1,0.2524073999375105,0.046281199902296066,0.04719629976898432,0.09975400008261204,0.10186170041561127,0.7500301999971271
RSVPLG03,MD,20260217-102155,1.0.2,20251105-084826,762,Experiment,Both,1,Automatic,main,34,20260217-102516,local,global,750,S,S,E,E,E-S.png,S-E.png,sS,sS,mask-3.png,mask-1.png,s,1,0.7699701003730297,h,0,0.2540402999147773,0.046358500607311726,0.047859400510787964,0.09856840036809444,0.10141230002045631,0.7503730999305844
RSVPLG03,MD,20260217-102155,1.0.2,20251105-084826,762,Experiment,Both,1,Automatic,main,35,20260217-102521,global,global,300,H,H,E,E,H-E.png,H-E.png,hH,hH,mask-1.png,mask-2.png,h,1,0.3807300999760628,h,1,0.2706383001059294,0.046004099771380424,0.04726190026849508,0.10042259935289621,0.09882310032844543,0.3011062992736697
RSVPLG03,MD,20260217-102155,1.0.2,20251105-084826,762,Experiment,Both,1,Automatic,main,36,20260217-102525,local,local,300,S,H,A,A,A-S.png,A-H.png,sS,hH,mask-3.png,mask-4.png,s,1,0.3937994996085763,h,1,0.1907493006438017,0.048520199954509735,0.04827459994703531,0.10079689975827932,0.10073249973356724,0.3012934001162648
RSVPLG03,MD,20260217-102155,1.0.2,20251105-084826,762,Experiment,Both,1,Automatic,main,37,20260217-102529,global,global,750,S,H,A,A,S-A.png,H-A.png,sS,hH,mask-3.png,mask-4.png,s,1,0.35799899976700544,h,1,0.16687980014830828,0.04819380026310682,0.047133900225162506,0.10153990052640438,0.099634800106287,0.7519829999655485
RSVPLG03,MD,20260217-102155,1.0.2,20251105-084826,762,Experiment,Both,1,Automatic,main,38,20260217-102534,local,local,300,H,S,A,E,A-H.png,E-S.png,hH,sS,mask-4.png,mask-3.png,h,1,0.40921670012176037,s,1,0.2655591005459428,0.04627820011228323,0.047356799244880676,0.10041229985654354,0.09972599986940622,0.2995014004409313
RSVPLG03,MD,20260217-102155,1.0.2,20251105-084826,762,Experiment,Both,1,Automatic,main,39,20260217-102539,global,local,750,H,S,E,E,H-E.png,E-S.png,hH,sS,mask-2.png,mask-2.png,h,1,0.3102818001061678,s,1,0.18700799997895956,0.04819460026919842,0.04834729991853237,0.10231939982622862,0.10071319993585348,0.7518276004120708
RSVPLG03,MD,20260217-102155,1.0.2,20251105-084826,762,Experiment,Both,1,Automatic,main,40,20260217-102543,global,global,300,S,H,A,A,S-A.png,H-A.png,sS,hH,mask-1.png,mask-4.png,s,1,0.6660938002169132,h,1,0.1509255999699235,0.04828900005668402,0.04672920051962137,0.10176890064030886,0.10001430008560419,0.30186459980905056
RSVPLG03,MD,20260217-102155,1.0.2,20251105-084826,762,Experiment,Both,1,Automatic,main,41,20260217-102548,local,global,750,H,H,A,A,A-H.png,H-A.png,hH,hH,mask-4.png,mask-3.png,h,1,0.5310444002971053,h,1,1.1682206001132727,0.04706269968301058,0.04635380022227764,0.10157279949635267,0.09879370033740997,0.7528396993875504
RSVPLG03,MD,20260217-102155,1.0.2,20251105-084826,762,Experiment,Both,1,Automatic,main,42,20260217-102554,global,global,750,S,H,E,A,S-E.png,H-A.png,sS,hH,mask-4.png,mask-1.png,s,1,0.2930905995890498,h,1,0.1907446002587676,0.04817839991301298,0.04598670080304146,0.09963809978216887,0.0986801004037261,0.7521759998053312
RSVPLG03,MD,20260217-102155,1.0.2,20251105-084826,762,Experiment,Both,1,Automatic,main,43,20260217-102558,global,global,300,S,H,A,E,S-A.png,H-E.png,sS,hH,mask-3.png,mask-4.png,s,1,0.4427792001515627,h,1,0.1021248996257782,0.04813100025057793,0.04715690016746521,0.10065819974988699,0.10073589999228716,0.3013180997222662
RSVPLG03,MD,20260217-102155,1.0.2,20251105-084826,762,Experiment,Both,1,Automatic,main,44,20260217-102603,global,global,750,S,S,A,E,S-A.png,S-E.png,sS,sS,mask-2.png,mask-1.png,s,1,0.30909109953790903,s,1,0.21981959976255894,0.04841940011829138,0.046371699310839176,0.09989149961620569,0.09985210001468658,0.7520687999203801
RSVPLG03,MD,20260217-102155,1.0.2,20251105-084826,762,Experiment,Both,1,Automatic,main,45,20260217-102607,local,global,300,S,H,E,A,E-S.png,H-A.png,sS,hH,mask-4.png,mask-4.png,s,1,0.47295490000396967,h,1,0.20372499991208315,0.04627710022032261,0.04656460043042898,0.09970990009605885,0.0986879002302885,0.3011141000315547
RSVPLG03,MD,20260217-102155,1.0.2,20251105-084826,762,Experiment,Both,1,Automatic,main,46,20260217-102612,global,global,300,S,S,A,A,S-A.png,S-A.png,sS,sS,mask-2.png,mask-4.png,s,1,0.441342799924314,s,1,0.2066987007856369,0.047306000255048275,0.04835639987140894,0.10085770022124052,0.10093529988080263,0.3000856004655361
RSVPLG03,MD,20260217-102155,1.0.2,20251105-084826,762,Experiment,Both,1,Automatic,main,47,20260217-102616,local,global,750,S,S,A,E,A-S.png,S-E.png,sS,sS,mask-4.png,mask-1.png,s,1,0.7770945001393557,s,1,0.2866957001388073,0.04932910017669201,0.046341399662196636,0.10158129967749119,0.09871749952435493,0.7528299000114202
RSVPLG03,MD,20260217-102155,1.0.2,20251105-084826,762,Experiment,Both,1,Automatic,main,48,20260217-102621,local,local,300,H,H,A,E,A-H.png,E-H.png,hH,hH,mask-4.png,mask-2.png,h,1,0.3442136002704501,h,1,0.16569839976727962,0.04710139986127615,0.046228500083088875,0.10143909975886345,0.09857949987053871,0.3012338997796178
RSVPLG03,MD,20260217-102155,1.0.2,20251105-084826,762,Experiment,Both,1,Automatic,main,49,20260217-102625,global,global,300,S,S,A,A,S-A.png,S-A.png,sS,sS,mask-4.png,mask-3.png,s,1,0.44210589956492186,s,1,0.1534783998504281,0.047484599985182285,0.04751660022884607,0.10095079988241196,0.0987355001270771,0.3022606996819377
RSVPLG03,MD,20260217-102155,1.0.2,20251105-084826,762,Experiment,Both,1,Automatic,main,50,20260217-102630,local,global,750,S,H,E,A,E-S.png,H-A.png,sS,hH,mask-3.png,mask-2.png,s,1,0.4389586001634598,h,1,0.07608240004628897,0.048580000177025795,0.047136999666690826,0.10060220025479794,0.09890509955585003,0.7528738006949425
RSVPLG03,MD,20260217-102155,1.0.2,20251105-084826,762,Experiment,Both,1,Automatic,main,51,20260217-102636,local,global,750,H,S,A,E,A-H.png,S-E.png,hH,sS,mask-2.png,mask-2.png,h,1,0.49867159966379404,h,0,0.5416409000754356,0.04622249957174063,0.04675929993391037,0.09995079971849918,0.10017859935760498,0.7518033999949694
RSVPLG03,MD,20260217-102155,1.0.2,20251105-084826,762,Experiment,Both,1,Automatic,main,52,20260217-102641,global,local,750,H,H,E,A,H-E.png,A-H.png,hH,hH,mask-4.png,mask-3.png,h,1,0.19932010024785995,h,1,0.13889459986239672,0.04917629994452,0.046734499745070934,0.10194160044193268,0.09948410000652075,0.7524354001507163
RSVPLG03,MD,20260217-102155,1.0.2,20251105-084826,762,Experiment,Both,1,Automatic,main,53,20260217-102645,global,local,750,S,S,E,A,S-E.png,A-S.png,sS,sS,mask-4.png,mask-3.png,s,1,0.46994969993829727,h,0,0.0763229001313448,0.049216399900615215,0.04736259952187538,0.10171240009367466,0.09982030000537634,0.751969600096345
RSVPLG03,MD,20260217-102155,1.0.2,20251105-084826,762,Experiment,Both,1,Automatic,main,54,20260217-102650,local,local,300,S,S,A,A,A-S.png,A-S.png,sS,sS,mask-4.png,mask-2.png,s,1,0.40996079985052347,h,0,0.29605660028755665,0.048165399581193924,0.047147199511528015,0.1017656996846199,0.10061029996722937,0.301222899928689
RSVPLG03,MD,20260217-102155,1.0.2,20251105-084826,762,Experiment,Both,1,Automatic,main,55,20260217-102654,local,local,300,H,S,E,E,E-H.png,E-S.png,hH,sS,mask-4.png,mask-2.png,h,1,0.29750770051032305,s,1,0.5074490997940302,0.04842060059309006,0.04817279987037182,0.10162909980863333,0.09952159970998764,0.30137090012431145
RSVPLG03,MD,20260217-102155,1.0.2,20251105-084826,762,Experiment,Both,1,Automatic,main,56,20260217-102659,local,local,300,H,S,A,E,A-H.png,E-S.png,hH,sS,mask-4.png,mask-2.png,h,1,0.34538279939442873,s,1,0.006906399503350258,0.048513900488615036,0.04738540016114712,0.09983380045741796,0.10076120030134916,0.30111629981547594
RSVPLG03,MD,20260217-102155,1.0.2,20251105-084826,762,Experiment,Both,1,Automatic,main,57,20260217-102703,local,global,750,S,H,E,E,E-S.png,H-E.png,sS,hH,mask-3.png,mask-3.png,s,1,0.39651309978216887,h,1,0.10958810057491064,0.04822489991784096,0.047359099611639977,0.10072419978678226,0.0998387997969985,0.7528857998549938
RSVPLG03,MD,20260217-102155,1.0.2,20251105-084826,762,Experiment,Both,1,Automatic,main,58,20260217-102707,local,local,750,H,S,E,E,E-H.png,E-S.png,hH,sS,mask-1.png,mask-1.png,h,1,0.21401439979672432,s,1,0.025135100819170475,0.04813450016081333,0.04817350022494793,0.10194170009344816,0.09959360025823116,0.7522596996277571
RSVPLG03,MD,20260217-102155,1.0.2,20251105-084826,762,Experiment,Both,1,Automatic,main,59,20260217-102712,global,global,750,H,H,E,A,H-E.png,H-A.png,hH,hH,mask-4.png,mask-1.png,h,1,0.3757121004164219,h,1,0.2079155994579196,0.046167599968612194,0.04610410053282976,0.10049889981746674,0.09854040015488863,0.7520993994548917
RSVPLG03,MD,20260217-102155,1.0.2,20251105-084826,762,Experiment,Both,1,Automatic,main,60,20260217-102717,global,global,300,H,S,E,E,H-E.png,S-E.png,hH,sS,mask-3.png,mask-2.png,h,1,0.3943119002506137,s,1,0.1185411000624299,0.048266599886119366,0.04708210006356239,0.1019633999094367,0.09974799957126379,0.3012509997934103
RSVPLG03,MD,20260217-102155,1.0.2,20251105-084826,762,Experiment,Both,1,Automatic,main,61,20260217-102721,global,local,750,H,H,A,E,H-A.png,E-H.png,hH,hH,mask-1.png,mask-3.png,h,1,0.30668789986521006,h,1,0.6543875001370907,0.04734550043940544,0.04819219931960106,0.10087480023503304,0.09970179945230484,0.7510367007926106
RSVPLG03,MD,20260217-102155,1.0.2,20251105-084826,762,Experiment,Both,1,Automatic,main,62,20260217-102726,local,local,750,S,S,A,E,A-S.png,E-S.png,sS,sS,mask-1.png,mask-2.png,s,1,0.36242809984833,s,1,0.1744216000661254,0.048298200592398643,0.04630279913544655,0.10078650061041117,0.09872239921241999,0.7531140008941293
RSVPLG03,MD,20260217-102155,1.0.2,20251105-084826,762,Experiment,Both,1,Automatic,main,63,20260217-102731,global,global,750,H,H,A,A,H-A.png,H-A.png,hH,hH,mask-4.png,mask-4.png,h,1,0.27883780002593994,h,1,0.21591120027005672,0.04835810046643019,0.047479599714279175,0.1007922999560833,0.0997627004981041,0.7508177999407053
RSVPLG03,MD,20260217-102155,1.0.2,20251105-084826,762,Experiment,Both,1,Automatic,main,64,20260217-102735,global,local,300,H,S,A,E,H-A.png,E-S.png,hH,sS,mask-3.png,mask-4.png,h,1,0.36105439998209476,s,1,0.1401238003745675,0.048264799639582634,0.04729039967060089,0.09980459976941347,0.09860270004719496,0.30131580028682947
RSVPLG03,MD,20260217-102155,1.0.2,20251105-084826,762,Experiment,Both,1,Automatic,main,65,20260217-102740,local,global,750,H,H,E,A,E-H.png,H-A.png,hH,hH,mask-3.png,mask-2.png,h,1,0.43849550001323223,h,1,0.19170189928263426,0.04840040020644665,0.047309499233961105,0.10184210073202848,0.09968829993158579,0.7520191008225083
RSVPLG03,MD,20260217-102155,1.0.2,20251105-084826,762,Experiment,Both,1,Automatic,main,66,20260217-102744,global,local,750,S,H,A,A,S-A.png,A-H.png,sS,hH,mask-3.png,mask-1.png,s,1,0.5191719997674227,h,1,0.3808178994804621,0.04728680010885,0.04699210077524185,0.10083390027284622,0.10032370034605265,0.7514484999701381
RSVPLG03,MD,20260217-102155,1.0.2,20251105-084826,762,Experiment,Both,1,Automatic,main,67,20260217-102749,global,local,750,S,S,E,A,S-E.png,A-S.png,sS,sS,mask-4.png,mask-3.png,s,1,0.2951882006600499,s,1,0.17206580005586147,0.046431099995970726,0.04753259941935539,0.09953980054706335,0.09881839994341135,0.751846200786531
RSVPLG03,MD,20260217-102155,1.0.2,20251105-084826,762,Experiment,Both,1,Automatic,main,68,20260217-102754,local,local,300,S,H,E,A,E-S.png,A-H.png,sS,hH,mask-1.png,mask-2.png,s,1,0.32980490010231733,h,1,0.0623841006308794,0.046293700113892555,0.048197600059211254,0.0995888002216816,0.09976680018007755,0.30021299980580807
RSVPLG03,MD,20260217-102155,1.0.2,20251105-084826,762,Experiment,Both,1,Automatic,main,69,20260217-102758,local,global,750,H,H,A,A,A-H.png,H-A.png,hH,hH,mask-2.png,mask-4.png,h,1,0.3752639004960656,h,1,0.17156390007585287,0.047330900095403194,0.04737090039998293,0.10061599966138601,0.10096960049122572,0.7518886998295784
RSVPLG03,MD,20260217-102155,1.0.2,20251105-084826,762,Experiment,Both,1,Automatic,main,70,20260217-102803,local,global,300,S,S,E,A,E-S.png,S-A.png,sS,sS,mask-1.png,mask-1.png,s,1,0.4907332006841898,h,0,0.0606370996683836,0.046397799625992775,0.04633729998022318,0.09968819934874773,0.09888039994984865,0.3000857997685671
RSVPLG03,MD,20260217-102155,1.0.2,20251105-084826,762,Experiment,Both,1,Automatic,main,71,20260217-102807,global,local,750,S,S,E,A,S-E.png,A-S.png,sS,sS,mask-1.png,mask-4.png,s,1,0.22760679945349693,s,1,0.1568123996257782,0.047226100228726864,0.04651830065995455,0.10237330012023449,0.09937790036201477,0.752492799423635
RSVPLG03,MD,20260217-102155,1.0.2,20251105-084826,762,Experiment,Both,1,Automatic,main,72,20260217-102812,global,local,750,S,H,A,E,S-A.png,E-H.png,sS,hH,mask-1.png,mask-1.png,s,1,0.49931740015745163,s,0,0.20422070007771254,0.04928950034081936,0.0459456006065011,0.10199560038745403,0.09971690084785223,0.7534472998231649
RSVPLG03,MD,20260217-102155,1.0.2,20251105-084826,762,Experiment,Both,1,Automatic,main,73,20260217-102816,local,global,300,H,H,A,E,A-H.png,H-E.png,hH,hH,mask-3.png,mask-2.png,h,1,0.4296204000711441,h,1,0.15803590044379234,0.048387800343334675,0.047447700053453445,0.10156970005482435,0.10094140004366636,0.3009069003164768
RSVPLG03,MD,20260217-102155,1.0.2,20251105-084826,762,Experiment,Both,1,Automatic,main,74,20260217-102821,local,global,300,S,S,A,E,A-S.png,S-E.png,sS,sS,mask-2.png,mask-2.png,s,1,0.730141400359571,h,0,0.006986100226640701,0.048354899510741234,0.04733379930257797,0.09996759984642267,0.09968329966068268,0.3004510002210736
RSVPLG03,MD,20260217-102155,1.0.2,20251105-084826,762,Experiment,Both,1,Automatic,main,75,20260217-102825,local,local,750,S,S,A,E,A-S.png,E-S.png,sS,sS,mask-2.png,mask-4.png,s,1,0.29425809998065233,s,1,0.13318580016493797,0.04841369949281216,0.04799459967762232,0.09981090016663074,0.10135489981621504,0.7512806002050638
RSVPLG03,MD,20260217-102155,1.0.2,20251105-084826,762,Experiment,Both,1,Automatic,main,76,20260217-102855,local,local,300,S,S,E,E,E-S.png,E-S.png,sS,sS,mask-1.png,mask-4.png,s,1,0.28990809991955757,s,1,0.15902029909193516,0.04925230052322149,0.046274599619209766,0.10189910046756268,0.09879749920219183,0.3022158006206155
RSVPLG03,MD,20260217-102155,1.0.2,20251105-084826,762,Experiment,Both,1,Automatic,main,77,20260217-102859,local,local,750,S,H,E,E,E-S.png,E-H.png,sS,hH,mask-1.png,mask-4.png,s,1,0.20022100023925304,h,1,0.06229540053755045,0.04837009962648153,0.047234099358320236,0.09977629967033863,0.09963000006973743,0.7510959999635816
RSVPLG03,MD,20260217-102155,1.0.2,20251105-084826,762,Experiment,Both,1,Automatic,main,78,20260217-102904,global,global,300,H,H,E,A,H-E.png,H-A.png,hH,hH,mask-2.png,mask-1.png,h,1,0.3289029002189636,h,1,0.17012150026857853,0.04905899986624718,0.04559540003538132,0.0996203999966383,0.0973452003672719,0.3031198997050524
RSVPLG03,MD,20260217-102155,1.0.2,20251105-084826,762,Experiment,Both,1,Automatic,main,79,20260217-102908,global,local,300,H,S,E,A,H-E.png,A-S.png,hH,sS,mask-3.png,mask-4.png,h,1,0.28326299972832203,s,1,0.04854180011898279,0.04753809981048107,0.047122400254011154,0.09968260023742914,0.10049299988895655,0.3004414001479745
RSVPLG03,MD,20260217-102155,1.0.2,20251105-084826,762,Experiment,Both,1,Automatic,main,80,20260217-102912,local,global,300,H,S,E,E,E-H.png,S-E.png,hH,sS,mask-3.png,mask-2.png,h,1,0.5749605000019073,h,0,0.15410569962114096,0.045974500477313995,0.04767780005931854,0.09887510072439909,0.09839440044015646,0.30068910028785467
RSVPLG03,MD,20260217-102155,1.0.2,20251105-084826,762,Experiment,Both,1,Automatic,main,81,20260217-102916,local,global,750,S,H,E,A,E-S.png,H-A.png,sS,hH,mask-1.png,mask-2.png,s,1,0.3484458001330495,h,1,0.12876280024647713,0.048962799832224846,0.047163400799036026,0.09945639967918396,0.10104400012642145,0.7523173997178674
RSVPLG03,MD,20260217-102155,1.0.2,20251105-084826,762,Experiment,Both,1,Automatic,main,82,20260217-102921,global,local,750,H,S,E,A,H-E.png,A-S.png,hH,sS,mask-1.png,mask-2.png,h,1,0.26735469978302717,s,1,0.13927539996802807,0.04681500047445297,0.048525700345635414,0.10041030030697584,0.10161180049180984,0.7503527998924255
RSVPLG03,MD,20260217-102155,1.0.2,20251105-084826,762,Experiment,Both,1,Automatic,main,83,20260217-102926,global,local,300,S,H,A,A,S-A.png,A-H.png,sS,hH,mask-4.png,mask-4.png,s,1,0.3581739002838731,h,1,0.11305310018360615,0.04918480012565851,0.04708939976990223,0.10196360014379025,0.09951670002192259,0.30277720000594854
RSVPLG03,MD,20260217-102155,1.0.2,20251105-084826,762,Experiment,Both,1,Automatic,main,84,20260217-102930,global,global,750,H,H,E,A,H-E.png,H-A.png,hH,hH,mask-3.png,mask-2.png,h,1,0.2683669999241829,h,1,0.18872599955648184,0.04814700037240982,0.047618599608540535,0.09964750055223703,0.10199620015919209,0.7500330004841089
RSVPLG03,MD,20260217-102155,1.0.2,20251105-084826,762,Experiment,Both,1,Automatic,main,85,20260217-102934,global,local,300,H,S,E,E,H-E.png,E-S.png,hH,sS,mask-2.png,mask-3.png,h,1,0.3226762004196644,s,1,0.03302839957177639,0.047176700085401535,0.04699200019240379,0.10209810081869364,0.10078130010515451,0.3013320006430149
RSVPLG03,MD,20260217-102155,1.0.2,20251105-084826,762,Experiment,Both,1,Automatic,main,86,20260217-102938,local,global,300,H,H,E,E,E-H.png,H-E.png,hH,hH,mask-3.png,mask-4.png,h,1,0.38080359995365143,s,0,0.05996620003134012,0.047318900004029274,0.044576000422239304,0.10066660027951002,0.09750050026923418,0.3029408995062113
RSVPLG03,MD,20260217-102155,1.0.2,20251105-084826,762,Experiment,Both,1,Automatic,main,87,20260217-102943,local,global,300,S,H,E,A,E-S.png,H-A.png,sS,hH,mask-1.png,mask-2.png,s,1,0.3936180006712675,h,1,0.11795049998909235,0.04741290025413036,0.046459900215268135,0.10000739991664886,0.09973079990595579,0.3001191997900605
RSVPLG03,MD,20260217-102155,1.0.2,20251105-084826,762,Experiment,Both,1,Automatic,main,88,20260217-102947,local,global,750,H,H,A,A,A-H.png,H-A.png,hH,hH,mask-4.png,mask-1.png,h,1,0.3273267997428775,h,1,0.2036073999479413,0.04831350035965443,0.046441700309515,0.10066090058535337,0.09873930085450411,0.7530851997435093
RSVPLG03,MD,20260217-102155,1.0.2,20251105-084826,762,Experiment,Both,1,Automatic,main,89,20260217-102952,global,local,300,S,H,A,E,S-A.png,E-H.png,sS,hH,mask-4.png,mask-3.png,h,0,0.7627266002818942,s,0,0.35120930057018995,0.04748440068215132,0.04733730014413595,0.10189069993793964,0.09985269978642464,0.30231180042028427
RSVPLG03,MD,20260217-102155,1.0.2,20251105-084826,762,Experiment,Both,1,Automatic,main,90,20260217-102956,local,global,300,H,S,A,A,A-H.png,S-A.png,hH,sS,mask-2.png,mask-3.png,s,0,0.5566878998652101,h,0,0.6717604007571936,0.04653880000114441,0.04826559964567423,0.1006904998794198,0.10192079935222864,0.30010460037738085
RSVPLG03,MD,20260217-102155,1.0.2,20251105-084826,762,Experiment,Both,1,Automatic,main,91,20260217-103001,global,global,300,S,S,E,A,S-E.png,S-A.png,sS,sS,mask-2.png,mask-3.png,h,0,1.1120229000225663,s,1,0.07182229962199926,0.04664700012654066,0.047447700053453445,0.10087270010262728,0.09867030009627342,0.30067639984190464
RSVPLG03,MD,20260217-102155,1.0.2,20251105-084826,762,Experiment,Both,1,Automatic,main,92,20260217-103006,local,local,750,H,S,A,A,A-H.png,A-S.png,hH,sS,mask-1.png,mask-4.png,h,1,0.3858866998925805,s,1,0.01501530036330223,0.04823109973222017,0.04613999929279089,0.1002833005040884,0.0989121999591589,0.7520743003115058
RSVPLG03,MD,20260217-102155,1.0.2,20251105-084826,762,Experiment,Both,1,Automatic,main,93,20260217-103011,local,local,750,H,S,A,E,A-H.png,E-S.png,hH,sS,mask-3.png,mask-4.png,h,1,0.2602748991921544,s,1,0.06115940026938915,0.04727580025792122,0.04723070003092289,0.10169500019401312,0.09868079982697964,0.7530489005148411
RSVPLG03,MD,20260217-102155,1.0.2,20251105-084826,762,Experiment,Both,1,Automatic,main,94,20260217-103015,global,local,300,H,S,E,E,H-E.png,E-S.png,hH,sS,mask-3.png,mask-2.png,h,1,0.43803479988127947,s,1,0.021992499940097332,0.04926479980349541,0.04829549975693226,0.10161130037158728,0.09978090040385723,0.30108310002833605
RSVPLG03,MD,20260217-102155,1.0.2,20251105-084826,762,Experiment,Both,1,Automatic,main,95,20260217-103020,local,global,300,H,H,E,E,E-H.png,H-E.png,hH,hH,mask-1.png,mask-3.png,h,1,0.29904970061033964,s,0,0.6616869997233152,0.04727909993380308,0.04642320051789284,0.09967020060867071,0.09885970037430525,0.3009534999728203
RSVPLG03,MD,20260217-102155,1.0.2,20251105-084826,762,Experiment,Both,1,Automatic,main,96,20260217-103024,global,global,750,S,S,E,A,S-E.png,S-A.png,sS,sS,mask-4.png,mask-2.png,s,1,1.1428858991712332,s,1,0.7915105000138283,0.048157100565731525,0.04824660066515207,0.0998793002218008,0.09966220054775476,0.7511002998799086
RSVPLG03,MD,20260217-102155,1.0.2,20251105-084826,762,Experiment,Both,1,Automatic,main,97,20260217-103030,global,local,300,H,S,A,A,H-A.png,A-S.png,hH,sS,mask-3.png,mask-2.png,h,1,0.4087626999244094,s,1,0.12624350003898144,0.047470999881625175,0.04728269949555397,0.10089049953967333,0.09962010011076927,0.30145350005477667
RSVPLG03,MD,20260217-102155,1.0.2,20251105-084826,762,Experiment,Both,1,Automatic,main,98,20260217-103035,local,local,750,S,S,E,E,E-S.png,E-S.png,sS,sS,mask-3.png,mask-3.png,s,1,0.292510200291872,s,1,0.20183079969137907,0.04729789961129427,0.047212700359523296,0.10077110026031733,0.10024670045822859,0.752556599676609
RSVPLG03,MD,20260217-102155,1.0.2,20251105-084826,762,Experiment,Both,1,Automatic,main,99,20260217-103039,local,global,750,H,H,A,A,A-H.png,H-A.png,hH,hH,mask-3.png,mask-2.png,h,1,0.37329520005732775,h,1,0.22020510025322437,0.047552600502967834,0.0463450001552701,0.10072620026767254,0.09887150023132563,0.7539034998044372
RSVPLG03,MD,20260217-102155,1.0.2,20251105-084826,762,Experiment,Both,1,Automatic,main,100,20260217-103044,global,local,300,S,H,E,A,S-E.png,A-H.png,sS,hH,mask-2.png,mask-4.png,s,1,0.3136988999322057,h,1,0.07814770005643368,0.047330000437796116,0.04840940050780773,0.09956690017133951,0.10065430030226707,0.3002233998849988
RSVPLG03,MD,20260217-103223,1.0.2,20251105-084826,762,Experiment,Both,1,Automatic,warmup,1,20260217-103245,local,local,750,H,S,E,A,E-H.png,A-S.png,hH,sS,mask-3.png,mask-1.png,h,1,0.20629720017313957,s,1,0.09401619993150234,0.044378300197422504,0.04736439976841211,0.09788500051945448,0.09971580002456903,0.7460350003093481
RSVPLG03,MD,20260217-103223,1.0.2,20251105-084826,762,Experiment,Both,1,Automatic,warmup,2,20260217-103249,local,global,750,H,S,A,E,A-H.png,S-E.png,hH,sS,mask-3.png,mask-3.png,h,1,0.4803515002131462,h,0,0.22335790004581213,0.047286500222980976,0.047285400331020355,0.10185849945992231,0.09961370006203651,0.7502325996756554
RSVPLG03,MD,20260217-103223,1.0.2,20251105-084826,762,Experiment,Both,1,Automatic,warmup,3,20260217-103254,global,local,750,H,H,E,A,H-E.png,A-H.png,hH,hH,mask-1.png,mask-2.png,h,1,0.35789179988205433,h,1,0.23149640019983053,0.04789990000426769,0.04581749998033047,0.09944030083715916,0.0991317005828023,0.7512467000633478
RSVPLG03,MD,20260217-103223,1.0.2,20251105-084826,762,Experiment,Both,1,Automatic,warmup,4,20260217-103258,local,global,300,H,H,E,A,E-H.png,H-A.png,hH,hH,mask-3.png,mask-1.png,h,1,0.5542570995166898,s,0,0.6950115999206901,0.04629720002412796,0.04733099974691868,0.10182280000299215,0.09971609991043806,0.29919980000704527
RSVPLG03,MD,20260217-103223,1.0.2,20251105-084826,762,Experiment,Both,1,Automatic,main,5,20260217-103303,global,global,750,S,H,E,A,S-E.png,H-A.png,sS,hH,mask-1.png,mask-3.png,s,1,0.3023627996444702,h,1,0.10288359969854355,0.046122100204229355,0.04631720017641783,0.0996656995266676,0.09886230062693357,0.7489447994157672
RSVPLG03,MD,20260217-103223,1.0.2,20251105-084826,762,Experiment,Both,1,Automatic,main,6,20260217-103308,local,global,750,S,H,A,E,A-S.png,H-E.png,sS,hH,mask-3.png,mask-3.png,s,1,0.46463509928435087,h,1,0.18833259958773851,0.04742300044745207,0.048189399763941765,0.09967190027236938,0.1005953997373581,0.7490741005167365
RSVPLG03,MD,20260217-103223,1.0.2,20251105-084826,762,Experiment,Both,1,Automatic,main,7,20260217-103313,local,local,750,S,S,E,E,E-S.png,E-S.png,sS,sS,mask-2.png,mask-4.png,s,1,0.3358276002109051,s,1,0.1914450004696846,0.04536170046776533,0.048460399731993675,0.0980281000956893,0.10101429931819439,0.746088900603354
RSVPLG03,MD,20260217-103223,1.0.2,20251105-084826,762,Experiment,Both,1,Automatic,main,8,20260217-103317,global,local,750,H,H,E,E,H-E.png,E-H.png,hH,hH,mask-3.png,mask-1.png,h,1,0.2731031998991966,h,1,0.2840836998075247,0.04824480041861534,0.04722699988633394,0.09947890043258667,0.09863180015236139,0.7498420001938939
RSVPLG03,MD,20260217-103223,1.0.2,20251105-084826,762,Experiment,Both,1,Automatic,main,9,20260217-103322,global,global,300,H,S,E,E,H-E.png,S-E.png,hH,sS,mask-2.png,mask-3.png,h,1,0.3491131002083421,s,1,0.15971119981259108,0.048587700352072716,0.047359700314700603,0.10091450065374374,0.09972549974918365,0.29930470045655966
RSVPLG03,MD,20260217-103223,1.0.2,20251105-084826,762,Experiment,Both,1,Automatic,main,10,20260217-103326,local,local,300,S,S,E,E,E-S.png,E-S.png,sS,sS,mask-2.png,mask-2.png,s,1,0.4331073993816972,s,1,0.18210740014910698,0.04827900044620037,0.04747250024229288,0.10080859996378422,0.09988689981400967,0.29914769995957613
RSVPLG03,MD,20260217-103223,1.0.2,20251105-084826,762,Experiment,Both,1,Automatic,main,11,20260217-103330,local,global,300,H,H,A,A,A-H.png,H-A.png,hH,hH,mask-1.png,mask-2.png,h,1,0.4045684998854995,h,1,0.23650870006531477,0.04734189994633198,0.04615569952875376,0.09981629997491837,0.09981089923530817,0.3003118000924587
RSVPLG03,MD,20260217-103223,1.0.2,20251105-084826,762,Experiment,Both,1,Automatic,main,12,20260217-103335,local,global,750,H,S,A,A,A-H.png,S-A.png,hH,sS,mask-4.png,mask-2.png,h,1,0.43520240020006895,s,1,0.5882714996114373,0.04713890049606562,0.04601939953863621,0.09881170000880957,0.09887879993766546,0.7491410002112389
RSVPLG03,MD,20260217-103223,1.0.2,20251105-084826,762,Experiment,Both,1,Automatic,main,13,20260217-103340,global,global,750,S,S,E,A,S-E.png,S-A.png,sS,sS,mask-2.png,mask-2.png,s,1,0.2703956998884678,s,1,0.32680390030145645,0.048519800417125225,0.04618710000067949,0.09989889990538359,0.09885800071060658,0.7502536997199059
RSVPLG03,MD,20260217-103223,1.0.2,20251105-084826,762,Experiment,Both,1,Automatic,main,14,20260217-103345,global,local,300,S,S,A,A,S-A.png,A-S.png,sS,sS,mask-3.png,mask-1.png,s,1,0.8202313994988799,s,1,0.6554571995511651,0.04645510017871857,0.04728369973599911,0.09873150009661913,0.09974319953471422,0.2993224002420902
RSVPLG03,MD,20260217-103223,1.0.2,20251105-084826,762,Experiment,Both,1,Automatic,main,15,20260217-103350,global,local,750,H,S,A,A,H-A.png,A-S.png,hH,sS,mask-2.png,mask-1.png,h,1,0.29164719954133034,s,1,0.5662262002006173,0.04845849983394146,0.04734359961003065,0.10089439991861582,0.09900929965078831,0.7509364001452923
RSVPLG03,MD,20260217-103223,1.0.2,20251105-084826,762,Experiment,Both,1,Automatic,main,16,20260217-103355,local,global,300,S,H,A,A,A-S.png,H-A.png,sS,hH,mask-4.png,mask-4.png,s,1,0.44981030002236366,h,1,0.04118870012462139,0.0462697995826602,0.04788780026137829,0.09864760003983974,0.09940369985997677,0.2993268994614482
RSVPLG03,MD,20260217-103223,1.0.2,20251105-084826,762,Experiment,Both,1,Automatic,main,17,20260217-103359,local,global,750,H,S,E,E,E-H.png,S-E.png,hH,sS,mask-1.png,mask-2.png,h,1,0.6126159001141787,s,1,0.0392645001411438,0.046038600616157055,0.04829249996691942,0.09959560073912144,0.09967550076544285,0.7476409999653697
RSVPLG03,MD,20260217-103223,1.0.2,20251105-084826,762,Experiment,Both,1,Automatic,main,18,20260217-103404,global,local,750,H,H,E,E,H-E.png,E-H.png,hH,hH,mask-2.png,mask-3.png,h,1,0.3412108002230525,h,1,0.15943280048668385,0.04837249964475632,0.0462787002325058,0.10076749976724386,0.0989121999591589,0.7498590992763638
RSVPLG03,MD,20260217-103223,1.0.2,20251105-084826,762,Experiment,Both,1,Automatic,main,19,20260217-103409,local,global,300,S,H,A,A,A-S.png,H-A.png,sS,hH,mask-4.png,mask-1.png,s,1,0.4223541999235749,h,1,0.05483950022608042,0.04750189930200577,0.047309599816799164,0.10061789955943823,0.09878440015017986,0.3000576999038458
RSVPLG03,MD,20260217-103223,1.0.2,20251105-084826,762,Experiment,Both,1,Automatic,main,20,20260217-103413,local,global,750,H,S,A,E,A-H.png,S-E.png,hH,sS,mask-4.png,mask-1.png,h,1,0.33889779914170504,s,1,0.2710106000304222,0.04601110052317381,0.047413899563252926,0.10060480050742626,0.09970329981297255,0.7492532003670931
RSVPLG03,MD,20260217-103223,1.0.2,20251105-084826,762,Experiment,Both,1,Automatic,main,21,20260217-103417,local,global,750,H,H,E,A,E-H.png,H-A.png,hH,hH,mask-1.png,mask-3.png,h,1,0.5454837996512651,h,1,0.1389079000800848,0.04731319937855005,0.04867090005427599,0.10229869931936264,0.1017068000510335,0.7489823000505567
RSVPLG03,MD,20260217-103223,1.0.2,20251105-084826,762,Experiment,Both,1,Automatic,main,22,20260217-103422,global,global,750,S,S,A,A,S-A.png,S-A.png,sS,sS,mask-4.png,mask-1.png,s,1,0.27864310052245855,s,1,0.13493450079113245,0.04724759981036186,0.04813840053975582,0.09997550025582314,0.0997237004339695,0.7479489995166659
RSVPLG03,MD,20260217-103223,1.0.2,20251105-084826,762,Experiment,Both,1,Automatic,main,23,20260217-103427,local,local,750,S,H,E,A,E-S.png,A-H.png,sS,hH,mask-3.png,mask-4.png,s,1,0.2124717002734542,h,1,0.05550780054181814,0.047002799808979034,0.04734420031309128,0.1008164994418621,0.0999670997262001,0.7487535998225212
RSVPLG03,MD,20260217-103223,1.0.2,20251105-084826,762,Experiment,Both,1,Automatic,main,24,20260217-103431,global,global,300,H,S,E,A,H-E.png,S-A.png,hH,sS,mask-1.png,mask-3.png,h,1,0.3398871999233961,s,1,0.06384739931672812,0.04860350023955107,0.04699890036135912,0.1007708003744483,0.09820100013166666,0.3016916997730732
RSVPLG03,MD,20260217-103223,1.0.2,20251105-084826,762,Experiment,Both,1,Automatic,main,25,20260217-103435,local,global,750,H,S,A,E,A-H.png,S-E.png,hH,sS,mask-2.png,mask-2.png,h,1,0.48525340016931295,s,1,0.026898600161075592,0.047266299836337566,0.04601889941841364,0.10073320008814335,0.09959129989147186,0.7502356003969908
RSVPLG03,MD,20260217-103223,1.0.2,20251105-084826,762,Experiment,Both,1,Automatic,main,26,20260217-103441,global,local,300,H,S,A,E,H-A.png,E-S.png,hH,sS,mask-1.png,mask-1.png,h,1,0.3190521998330951,s,1,0.040851700119674206,0.04730070009827614,0.04738490004092455,0.09975570067763329,0.10047580022364855,0.30023990012705326
RSVPLG03,MD,20260217-103223,1.0.2,20251105-084826,762,Experiment,Both,1,Automatic,main,27,20260217-103445,local,local,750,S,H,E,A,E-S.png,A-H.png,sS,hH,mask-3.png,mask-4.png,s,1,0.27789399959146976,h,1,0.5205549001693726,0.047691299580037594,0.0471000000834465,0.09864929970353842,0.1013281000778079,0.7483382998034358
RSVPLG03,MD,20260217-103223,1.0.2,20251105-084826,762,Experiment,Both,1,Automatic,main,28,20260217-103450,local,global,750,S,H,A,A,A-S.png,H-A.png,sS,hH,mask-3.png,mask-2.png,s,1,0.38304860051721334,h,1,0.062257700599730015,0.04827999975532293,0.04838000051677227,0.10166710056364536,0.09979100059717894,0.7498246999457479
RSVPLG03,MD,20260217-103223,1.0.2,20251105-084826,762,Experiment,Both,1,Automatic,main,29,20260217-103455,global,global,750,H,S,E,E,H-E.png,S-E.png,hH,sS,mask-1.png,mask-2.png,h,1,0.2895160997286439,s,1,0.07516400050371885,0.046436600387096405,0.047555300407111645,0.09883250016719103,0.09993440005928278,0.7480445001274347
RSVPLG03,MD,20260217-103223,1.0.2,20251105-084826,762,Experiment,Both,1,Automatic,main,30,20260217-103459,global,global,300,H,H,E,A,H-E.png,H-A.png,hH,hH,mask-1.png,mask-4.png,h,1,0.35631190054118633,h,1,0.19961570017039776,0.04744989983737469,0.048294300213456154,0.09981719963252544,0.10186609998345375,0.29822419956326485
RSVPLG03,MD,20260217-103223,1.0.2,20251105-084826,762,Experiment,Both,1,Automatic,main,31,20260217-103503,local,local,300,S,S,A,A,A-S.png,A-S.png,sS,sS,mask-1.png,mask-4.png,s,1,0.8195085003972054,s,1,0.18546670023351908,0.047931499779224396,0.04736139997839928,0.09976799972355366,0.09893389977514744,0.2998719001188874
RSVPLG03,MD,20260217-103223,1.0.2,20251105-084826,762,Experiment,Both,1,Automatic,main,32,20260217-103508,local,local,300,H,H,A,A,A-H.png,A-H.png,hH,hH,mask-1.png,mask-4.png,h,1,0.3430281998589635,h,1,0.22356509976089,0.04773879982531071,0.04726159945130348,0.09963820036500692,0.10077170003205538,0.2990327002480626
RSVPLG03,MD,20260217-103223,1.0.2,20251105-084826,762,Experiment,Both,1,Automatic,main,33,20260217-103512,local,global,750,H,H,A,A,A-H.png,H-A.png,hH,hH,mask-4.png,mask-1.png,h,1,0.40197989996522665,h,1,0.4000641005113721,0.047754500061273575,0.04714430030435324,0.09952980000525713,0.09964900091290474,0.7499600993469357
RSVPLG03,MD,20260217-103223,1.0.2,20251105-084826,762,Experiment,Both,1,Automatic,main,34,20260217-103517,global,global,300,S,H,A,A,S-A.png,H-A.png,sS,hH,mask-3.png,mask-4.png,s,1,0.4188979994505644,h,1,0.06343950051814318,0.04647779930382967,0.04740140028297901,0.09893490001559258,0.09977489989250898,0.29922719951719046
RSVPLG03,MD,20260217-103223,1.0.2,20251105-084826,762,Experiment,Both,1,Automatic,main,35,20260217-103521,local,global,300,H,H,E,A,E-H.png,H-A.png,hH,hH,mask-3.png,mask-2.png,h,1,0.8048523999750614,h,1,0.18673629965633154,0.04722420033067465,0.046277400106191635,0.09953110013157129,0.09968910086899996,0.29910449963063
RSVPLG03,MD,20260217-103223,1.0.2,20251105-084826,762,Experiment,Both,1,Automatic,main,36,20260217-103526,global,local,300,S,H,A,A,S-A.png,A-H.png,sS,hH,mask-1.png,mask-4.png,s,1,0.5609074998646975,h,1,0.11947860009968281,0.04817570000886917,0.047469899989664555,0.09986959956586361,0.10113730002194643,0.3001712001860142
RSVPLG03,MD,20260217-103223,1.0.2,20251105-084826,762,Experiment,Both,1,Automatic,main,37,20260217-103530,local,global,300,H,S,A,A,A-H.png,S-A.png,hH,sS,mask-2.png,mask-3.png,h,1,0.3241647006943822,s,1,0.12762899976223707,0.048271799460053444,0.046129100024700165,0.10184759926050901,0.10006100032478571,0.30133069958537817
RSVPLG03,MD,20260217-103223,1.0.2,20251105-084826,762,Experiment,Both,1,Automatic,main,38,20260217-103535,global,local,750,H,H,E,E,H-E.png,E-H.png,hH,hH,mask-1.png,mask-1.png,h,1,0.22737769968807697,h,1,0.20721409935504198,0.04732260014861822,0.04571290034800768,0.09989399928599596,0.09813360031694174,0.7505952995270491
RSVPLG03,MD,20260217-103223,1.0.2,20251105-084826,762,Experiment,Both,1,Automatic,main,39,20260217-103539,global,local,750,H,S,E,E,H-E.png,E-S.png,hH,sS,mask-4.png,mask-4.png,h,1,0.2753726001828909,s,1,0.026092899963259697,0.047387899830937386,0.04822530038654804,0.09893049951642752,0.10068459995090961,0.7480317996814847
RSVPLG03,MD,20260217-103223,1.0.2,20251105-084826,762,Experiment,Both,1,Automatic,main,40,20260217-103543,local,local,300,H,S,A,A,A-H.png,A-S.png,hH,sS,mask-2.png,mask-1.png,h,1,0.37418700009584427,s,1,0.08702419977635145,0.046322000212967396,0.04632359929382801,0.09978249948471785,0.09885660000145435,0.3001290000975132
RSVPLG03,MD,20260217-103223,1.0.2,20251105-084826,762,Experiment,Both,1,Automatic,main,41,20260217-103548,local,local,300,H,H,E,E,E-H.png,E-H.png,hH,hH,mask-1.png,mask-2.png,h,1,0.3232907997444272,h,1,0.1488344995304942,0.04753880016505718,0.04794179927557707,0.10005800053477287,0.09974920004606247,0.2984660007059574
RSVPLG03,MD,20260217-103223,1.0.2,20251105-084826,762,Experiment,Both,1,Automatic,main,42,20260217-103552,local,local,750,S,H,A,A,A-S.png,A-H.png,sS,hH,mask-1.png,mask-4.png,s,1,0.21079269982874393,h,1,0.3550086999312043,0.046248799189925194,0.04685720056295395,0.09981559962034225,0.10022650007158518,0.7484501991420984
RSVPLG03,MD,20260217-103223,1.0.2,20251105-084826,762,Experiment,Both,1,Automatic,main,43,20260217-103556,global,local,750,H,S,E,A,H-E.png,A-S.png,hH,sS,mask-2.png,mask-4.png,h,1,0.22795830015093088,s,1,0.053393300622701645,0.046885100193321705,0.04733149986714125,0.09930900018662214,0.09943410009145737,0.7494034999981523
RSVPLG03,MD,20260217-103223,1.0.2,20251105-084826,762,Experiment,Both,1,Automatic,main,44,20260217-103600,local,local,300,S,S,E,E,E-S.png,E-S.png,sS,sS,mask-3.png,mask-4.png,s,1,0.4173515997827053,s,1,0.1569235995411873,0.048017299734055996,0.04715240001678467,0.0998465996235609,0.1011467007920146,0.29873709939420223
RSVPLG03,MD,20260217-103223,1.0.2,20251105-084826,762,Experiment,Both,1,Automatic,main,45,20260217-103605,local,global,300,H,S,A,E,A-H.png,S-E.png,hH,sS,mask-1.png,mask-3.png,h,1,0.43881710059940815,s,1,0.1905546998605132,0.04832320008426905,0.04653829988092184,0.1004888005554676,0.09843220002949238,0.30133350007236004
RSVPLG03,MD,20260217-103223,1.0.2,20251105-084826,762,Experiment,Both,1,Automatic,main,46,20260217-103609,global,global,300,H,S,A,E,H-A.png,S-E.png,hH,sS,mask-2.png,mask-1.png,h,1,0.32537890039384365,s,1,0.20276129990816116,0.047277300618588924,0.04842309933155775,0.10095559991896152,0.0999070992693305,0.2990986006334424
RSVPLG03,MD,20260217-103223,1.0.2,20251105-084826,762,Experiment,Both,1,Automatic,main,47,20260217-103613,global,global,300,S,S,E,E,S-E.png,S-E.png,sS,sS,mask-4.png,mask-3.png,s,1,0.306852700188756,s,1,0.2237819004803896,0.047037399373948574,0.04747030045837164,0.10068479925394058,0.09879500046372414,0.30109529942274094
RSVPLG03,MD,20260217-103223,1.0.2,20251105-084826,762,Experiment,Both,1,Automatic,main,48,20260217-103617,global,local,750,S,S,A,A,S-A.png,A-S.png,sS,sS,mask-1.png,mask-4.png,s,1,0.6440481003373861,s,1,0.5533084003254771,0.04811339918524027,0.0443682000041008,0.10150859970599413,0.096964200027287,0.7526236996054649
RSVPLG03,MD,20260217-103223,1.0.2,20251105-084826,762,Experiment,Both,1,Automatic,main,49,20260217-103623,global,global,750,S,S,A,E,S-A.png,S-E.png,sS,sS,mask-2.png,mask-1.png,s,1,0.3689821995794773,s,1,0.18970089964568615,0.047283499501645565,0.0481436001136899,0.1009010998532176,0.09979870077222586,0.7500835992395878
RSVPLG03,MD,20260217-103223,1.0.2,20251105-084826,762,Experiment,Both,1,Automatic,main,50,20260217-103628,local,local,300,S,H,E,A,E-S.png,A-H.png,sS,hH,mask-3.png,mask-3.png,s,1,0.39031289983540773,h,1,0.14329139981418848,0.04745709989219904,0.047318399883806705,0.10196120012551546,0.09870790038257837,0.3014019997790456
RSVPLG03,MD,20260217-103223,1.0.2,20251105-084826,762,Experiment,Both,1,Automatic,main,51,20260217-103637,global,global,300,H,H,A,A,H-A.png,H-A.png,hH,hH,mask-1.png,mask-4.png,h,1,0.28983489982783794,h,1,0.22309179976582527,0.04645750019699335,0.04608049988746643,0.09865379985421896,0.10020469967275858,0.30035699997097254
RSVPLG03,MD,20260217-103223,1.0.2,20251105-084826,762,Experiment,Both,1,Automatic,main,52,20260217-103641,global,global,300,S,H,E,A,S-E.png,H-A.png,sS,hH,mask-1.png,mask-1.png,s,1,0.3220942001789808,h,1,0.10212900023907423,0.04832980036735535,0.04721849970519543,0.10073650069534779,0.09954340010881424,0.3003513002768159
RSVPLG03,MD,20260217-103223,1.0.2,20251105-084826,762,Experiment,Both,1,Automatic,main,53,20260217-103645,local,local,750,H,S,A,E,A-H.png,E-S.png,hH,sS,mask-2.png,mask-3.png,h,1,0.19389829970896244,s,1,0.06994410045444965,0.04613860044628382,0.0477442005649209,0.09875140059739351,0.09950110036879778,0.7479467000812292
RSVPLG03,MD,20260217-103223,1.0.2,20251105-084826,762,Experiment,Both,1,Automatic,main,54,20260217-103650,global,global,750,H,H,E,E,H-E.png,H-E.png,hH,hH,mask-3.png,mask-3.png,h,1,0.3379302006214857,h,1,0.20611799973994493,0.047134699299931526,0.049176800064742565,0.099660599604249,0.10078679956495762,0.7476487997919321
RSVPLG03,MD,20260217-103223,1.0.2,20251105-084826,762,Experiment,Both,1,Automatic,main,55,20260217-103654,global,global,300,H,H,E,A,H-E.png,H-A.png,hH,hH,mask-3.png,mask-4.png,h,1,0.7364719994366169,h,1,0.2173748007044196,0.047538899816572666,0.046454500406980515,0.09834119956940413,0.0988654000684619,0.2991619994863868
RSVPLG03,MD,20260217-103223,1.0.2,20251105-084826,762,Experiment,Both,1,Automatic,main,56,20260217-103659,global,global,300,H,S,E,E,H-E.png,S-E.png,hH,sS,mask-3.png,mask-4.png,h,1,0.3098246995359659,s,1,0.09587730001658201,0.04719629976898432,0.048640199936926365,0.09992600046098232,0.1012723995372653,0.2980730002745986
RSVPLG03,MD,20260217-103223,1.0.2,20251105-084826,762,Experiment,Both,1,Automatic,main,57,20260217-103703,local,global,750,H,H,A,E,A-H.png,H-E.png,hH,hH,mask-4.png,mask-2.png,h,1,0.4023076007142663,s,0,0.4744288008660078,0.04711769986897707,0.047229199670255184,0.1005828995257616,0.10098429955542088,0.7479363000020385
RSVPLG03,MD,20260217-103223,1.0.2,20251105-084826,762,Experiment,Both,1,Automatic,main,58,20260217-103708,local,local,750,H,H,A,A,A-H.png,A-H.png,hH,hH,mask-4.png,mask-4.png,h,1,0.24319239985197783,h,1,0.216954099945724,0.04820199962705374,0.04634639993309975,0.10145529918372631,0.1006624000146985,0.7499289996922016
RSVPLG03,MD,20260217-103223,1.0.2,20251105-084826,762,Experiment,Both,1,Automatic,main,59,20260217-103712,local,local,300,S,H,A,E,A-S.png,E-H.png,sS,hH,mask-2.png,mask-2.png,s,1,0.29133900068700314,h,1,0.11120489984750748,0.04588809981942177,0.0467564994469285,0.09948140010237694,0.10072669945657253,0.29830680042505264
RSVPLG03,MD,20260217-103223,1.0.2,20251105-084826,762,Experiment,Both,1,Automatic,main,60,20260217-103717,local,global,300,S,S,A,A,A-S.png,S-A.png,sS,sS,mask-3.png,mask-2.png,s,1,0.4840602995827794,h,0,0.35857770033180714,0.04724919982254505,0.046141999773681164,0.09971209987998009,0.09879260044544935,0.3012202996760607
RSVPLG03,MD,20260217-103223,1.0.2,20251105-084826,762,Experiment,Both,1,Automatic,main,61,20260217-103721,global,global,750,S,S,E,E,S-E.png,S-E.png,sS,sS,mask-3.png,mask-1.png,s,1,0.32219829969108105,s,1,0.17521250061690807,0.04633229970932007,0.04745670035481453,0.09987240005284548,0.09989919979125261,0.7488896995782852
RSVPLG03,MD,20260217-103223,1.0.2,20251105-084826,762,Experiment,Both,1,Automatic,main,62,20260217-103726,local,local,750,S,H,E,E,E-S.png,E-H.png,sS,hH,mask-2.png,mask-3.png,s,1,0.2872517993673682,h,1,0.2010078001767397,0.04834290035068989,0.0473940996453166,0.10058790072798729,0.10183379985392094,0.749018500559032
RSVPLG03,MD,20260217-103223,1.0.2,20251105-084826,762,Experiment,Both,1,Automatic,main,63,20260217-103730,global,local,300,H,H,A,E,H-A.png,E-H.png,hH,hH,mask-1.png,mask-3.png,h,1,0.48768540006130934,s,0,0.15622910019010305,0.04928539972752333,0.04910860024392605,0.09963499940931797,0.10057600028812885,0.2993767997249961
RSVPLG03,MD,20260217-103223,1.0.2,20251105-084826,762,Experiment,Both,1,Automatic,main,64,20260217-103735,local,local,750,S,S,A,E,A-S.png,E-S.png,sS,sS,mask-3.png,mask-3.png,s,1,0.37178219947963953,s,1,0.1909424001350999,0.049200800247490406,0.046255200169980526,0.10153499990701675,0.09908779989928007,0.7508987998589873
RSVPLG03,MD,20260217-103223,1.0.2,20251105-084826,762,Experiment,Both,1,Automatic,main,65,20260217-103739,local,global,300,S,S,A,A,A-S.png,S-A.png,sS,sS,mask-3.png,mask-1.png,s,1,0.6125488998368382,h,0,0.18628680054098368,0.048327699303627014,0.04716010019183159,0.10075809992849827,0.10077380016446114,0.29932229965925217
RSVPLG03,MD,20260217-103223,1.0.2,20251105-084826,762,Experiment,Both,1,Automatic,main,66,20260217-103744,global,local,300,S,S,A,E,S-A.png,E-S.png,sS,sS,mask-2.png,mask-2.png,h,0,0.7552661001682281,h,0,0.12667550053447485,0.047395600005984306,0.0483814999461174,0.09891019947826862,0.10084970016032457,0.2992039993405342
RSVPLG03,MD,20260217-103223,1.0.2,20251105-084826,762,Experiment,Both,1,Automatic,main,67,20260217-103749,local,global,750,S,H,A,E,A-S.png,H-E.png,sS,hH,mask-1.png,mask-1.png,s,1,0.5944017004221678,h,1,0.06269649975001812,0.04748169984668493,0.048312800005078316,0.09878769982606173,0.09977100044488907,0.7480378998443484
RSVPLG03,MD,20260217-103223,1.0.2,20251105-084826,762,Experiment,Both,1,Automatic,main,68,20260217-103753,global,global,750,S,H,A,E,S-A.png,H-E.png,sS,hH,mask-4.png,mask-4.png,s,1,0.3520970996469259,h,1,0.1553523000329733,0.04621089994907379,0.0472790002822876,0.09896610025316477,0.10003720037639141,0.7479242002591491
RSVPLG03,MD,20260217-103223,1.0.2,20251105-084826,762,Experiment,Both,1,Automatic,main,69,20260217-103758,global,local,750,H,H,E,E,H-E.png,E-H.png,hH,hH,mask-3.png,mask-3.png,h,1,0.22996440064162016,h,1,0.29503520019352436,0.048261900432407856,0.048440899699926376,0.1005625007674098,0.10163239948451519,0.749031500890851
RSVPLG03,MD,20260217-103223,1.0.2,20251105-084826,762,Experiment,Both,1,Automatic,main,70,20260217-103803,local,global,300,S,H,A,E,A-S.png,H-E.png,sS,hH,mask-4.png,mask-4.png,s,1,0.9300942001864314,s,0,0.2945595998317003,0.04835830070078373,0.04636539984494448,0.09958540089428425,0.09888670034706593,0.3001535004004836
RSVPLG03,MD,20260217-103223,1.0.2,20251105-084826,762,Experiment,Both,1,Automatic,main,71,20260217-103807,global,local,300,H,H,E,E,H-E.png,E-H.png,hH,hH,mask-4.png,mask-3.png,h,1,0.37115029990673065,s,0,0.8225999996066093,0.047416700050234795,0.04731369949877262,0.09985020011663437,0.09978429973125458,0.2992781000211835
RSVPLG03,MD,20260217-103223,1.0.2,20251105-084826,762,Experiment,Both,1,Automatic,main,72,20260217-103812,local,local,300,S,H,A,E,A-S.png,E-H.png,sS,hH,mask-3.png,mask-3.png,s,1,0.3731334004551172,h,1,0.07944520004093647,0.047261099331080914,0.04722149949520826,0.10088580008596182,0.10088710021227598,0.2990760998800397
RSVPLG03,MD,20260217-103223,1.0.2,20251105-084826,762,Experiment,Both,1,Automatic,main,73,20260217-103817,global,local,750,S,S,E,E,S-E.png,E-S.png,sS,sS,mask-2.png,mask-4.png,s,1,0.2261542994529009,s,1,0.19034129939973354,0.04830109979957342,0.04721449967473745,0.10101719945669174,0.10078269988298416,0.7499941997230053
RSVPLG03,MD,20260217-103223,1.0.2,20251105-084826,762,Experiment,Both,1,Automatic,main,74,20260217-103821,local,global,300,H,H,E,A,E-H.png,H-A.png,hH,hH,mask-4.png,mask-3.png,h,1,0.35933220013976097,s,0,0.18303650058805943,0.04727839957922697,0.04732740018516779,0.09969659987837076,0.10044789966195822,0.2993307998403907
RSVPLG03,MD,20260217-103223,1.0.2,20251105-084826,762,Experiment,Both,1,Automatic,main,75,20260217-103825,local,local,300,S,H,E,E,E-S.png,E-H.png,sS,hH,mask-2.png,mask-4.png,s,1,0.36947290040552616,h,1,0.09230989962816238,0.047232599928975105,0.04631830006837845,0.09986940026283264,0.09860699996352196,0.3001477001234889
RSVPLG03,MD,20260217-103223,1.0.2,20251105-084826,762,Experiment,Both,1,Automatic,main,76,20260217-103907,global,global,300,H,H,E,A,H-E.png,H-A.png,hH,hH,mask-4.png,mask-1.png,h,1,0.30386480037122965,s,0,0.5736169992014766,0.04707110021263361,0.04657349921762943,0.09953819960355759,0.09869879949837923,0.29870800022035837
RSVPLG03,MD,20260217-103223,1.0.2,20251105-084826,762,Experiment,Both,1,Automatic,main,77,20260217-103911,global,local,300,H,S,E,A,H-E.png,A-S.png,hH,sS,mask-1.png,mask-2.png,h,1,0.4527138005942106,s,1,0.8790303999558091,0.04826239962130785,0.048387099988758564,0.10065219923853874,0.09957159962505102,0.2999387998133898
RSVPLG03,MD,20260217-103223,1.0.2,20251105-084826,762,Experiment,Both,1,Automatic,main,78,20260217-103917,global,local,300,S,H,E,E,S-E.png,E-H.png,sS,hH,mask-3.png,mask-3.png,s,1,0.3373699998483062,h,1,0.09390259999781847,0.045899100601673126,0.04625509958714247,0.09827980026602745,0.09986349940299988,0.2989634005352855
RSVPLG03,MD,20260217-103223,1.0.2,20251105-084826,762,Experiment,Both,1,Automatic,main,79,20260217-103921,global,local,300,S,S,E,A,S-E.png,A-S.png,sS,sS,mask-1.png,mask-2.png,s,1,1.30228509940207,s,1,0.17531900014728308,0.04828900005668402,0.04839150048792362,0.09991259966045618,0.10091650020331144,0.3001785995438695
RSVPLG03,MD,20260217-103223,1.0.2,20251105-084826,762,Experiment,Both,1,Automatic,main,80,20260217-103926,local,global,750,S,H,E,E,E-S.png,H-E.png,sS,hH,mask-1.png,mask-1.png,s,1,0.8966131005436182,h,1,0.19085719995200634,0.048326000571250916,0.04627719987183809,0.10178180038928986,0.09960839990526438,0.7509834002703428
RSVPLG03,MD,20260217-103223,1.0.2,20251105-084826,762,Experiment,Both,1,Automatic,main,81,20260217-103931,global,global,750,S,H,A,A,S-A.png,H-A.png,sS,hH,mask-1.png,mask-3.png,s,1,0.22533340007066727,h,1,0.14046300016343594,0.04733840003609657,0.046276699751615524,0.09973619971424341,0.09866979997605085,0.7489702999591827
RSVPLG03,MD,20260217-103223,1.0.2,20251105-084826,762,Experiment,Both,1,Automatic,main,82,20260217-103935,local,local,300,S,H,A,E,A-S.png,E-H.png,sS,hH,mask-1.png,mask-4.png,s,1,0.35290929954499006,h,1,0.11789099965244532,0.047373199835419655,0.04738030023872852,0.09974799957126379,0.10102599952369928,0.2990322997793555
RSVPLG03,MD,20260217-103223,1.0.2,20251105-084826,762,Experiment,Both,1,Automatic,main,83,20260217-103940,global,local,750,H,S,E,A,H-E.png,A-S.png,hH,sS,mask-1.png,mask-1.png,h,1,0.25795040000230074,h,0,0.2550599994137883,0.04720909986644983,0.04726270027458668,0.09869799949228764,0.10003469977527857,0.7478986997157335
RSVPLG03,MD,20260217-103223,1.0.2,20251105-084826,762,Experiment,Both,1,Automatic,main,84,20260217-103944,global,local,750,H,H,A,E,H-A.png,E-H.png,hH,hH,mask-1.png,mask-3.png,h,1,0.4009395996108651,h,1,0.22360309958457947,0.047475799918174744,0.04735979996621609,0.09995870012789965,0.10046370048075914,0.7492257999256253
RSVPLG03,MD,20260217-103223,1.0.2,20251105-084826,762,Experiment,Both,1,Automatic,main,85,20260217-103949,local,global,300,S,S,E,E,E-S.png,S-E.png,sS,sS,mask-3.png,mask-2.png,s,1,0.3675154997035861,h,0,0.6173024997115135,0.048251500353217125,0.045965900644659996,0.0997206000611186,0.09905869979411364,0.3008695999160409
RSVPLG03,MD,20260217-103223,1.0.2,20251105-084826,762,Experiment,Both,1,Automatic,main,86,20260217-103954,local,global,750,S,H,A,E,A-S.png,H-E.png,sS,hH,mask-1.png,mask-1.png,s,1,1.0737191000953317,s,0,0.1587263997644186,0.046992599964141846,0.048262299969792366,0.10078389942646027,0.1011393005028367,0.7490032995119691
RSVPLG03,MD,20260217-103223,1.0.2,20251105-084826,762,Experiment,Both,1,Automatic,main,87,20260217-103959,global,local,300,S,S,A,E,S-A.png,E-S.png,sS,sS,mask-1.png,mask-4.png,s,1,0.7979950001463294,h,0,0.04180479981005192,0.04730019997805357,0.048123300075531006,0.0994238005951047,0.10049599967896938,0.2992886006832123
RSVPLG03,MD,20260217-103223,1.0.2,20251105-084826,762,Experiment,Both,1,Automatic,main,88,20260217-104003,global,local,300,H,H,E,A,H-E.png,A-H.png,hH,hH,mask-2.png,mask-4.png,h,1,0.35798189975321293,h,1,0.18434409983456135,0.04816159978508949,0.04738330002874136,0.10065709985792637,0.10074640065431595,0.30011719930917025
RSVPLG03,MD,20260217-103223,1.0.2,20251105-084826,762,Experiment,Both,1,Automatic,main,89,20260217-104008,local,local,750,S,H,E,E,E-S.png,E-H.png,sS,hH,mask-4.png,mask-2.png,s,1,0.30328210070729256,h,1,0.07738979998975992,0.04746589995920658,0.04749219957739115,0.10164210014045238,0.10002500005066395,0.7498710006475449
RSVPLG03,MD,20260217-103223,1.0.2,20251105-084826,762,Experiment,Both,1,Automatic,main,90,20260217-104012,global,local,750,S,H,A,A,S-A.png,A-H.png,sS,hH,mask-4.png,mask-4.png,s,1,0.17746299970895052,h,1,0.5578830000013113,0.04824970010668039,0.04769519995898008,0.10070839989930391,0.09975240007042885,0.7490350995212793
RSVPLG03,MD,20260217-103223,1.0.2,20251105-084826,762,Experiment,Both,1,Automatic,main,91,20260217-104017,local,global,300,S,S,A,E,A-S.png,S-E.png,sS,sS,mask-3.png,mask-4.png,s,1,0.5969036994501948,h,0,0.37787049915641546,0.04726309981197119,0.046570200473070145,0.09974219929426908,0.09891990013420582,0.29991319961845875
RSVPLG03,MD,20260217-103223,1.0.2,20251105-084826,762,Experiment,Both,1,Automatic,main,92,20260217-104022,global,global,750,H,H,A,E,H-A.png,H-E.png,hH,hH,mask-3.png,mask-3.png,h,1,0.22899570036679506,h,1,0.1712092999368906,0.04720290005207062,0.04640380013734102,0.10079159960150719,0.09949030075222254,0.7500893995165825
RSVPLG03,MD,20260217-103223,1.0.2,20251105-084826,762,Experiment,Both,1,Automatic,main,93,20260217-104026,global,global,750,S,H,E,E,S-E.png,H-E.png,sS,hH,mask-4.png,mask-1.png,s,1,0.23954410012811422,h,1,0.10094930045306683,0.0463926000520587,0.04728440009057522,0.09874729998409748,0.09969899989664555,0.749018999747932
RSVPLG03,MD,20260217-103223,1.0.2,20251105-084826,762,Experiment,Both,1,Automatic,main,94,20260217-104031,local,local,750,S,H,A,A,A-S.png,A-H.png,sS,hH,mask-1.png,mask-2.png,s,1,0.3368110004812479,h,1,0.10581220034509897,0.047316400334239006,0.04721610061824322,0.09954450000077486,0.09960970003157854,0.7500264998525381
RSVPLG03,MD,20260217-103223,1.0.2,20251105-084826,762,Experiment,Both,1,Automatic,main,95,20260217-104036,local,local,300,H,S,E,A,E-H.png,A-S.png,hH,sS,mask-1.png,mask-4.png,h,1,0.24270999990403652,s,1,0.05548170022666454,0.04802379943430424,0.047304799780249596,0.09964449983090162,0.09861170034855604,0.3002437995746732
RSVPLG03,MD,20260217-103223,1.0.2,20251105-084826,762,Experiment,Both,1,Automatic,main,96,20260217-104040,global,global,750,H,H,E,A,H-E.png,H-A.png,hH,hH,mask-3.png,mask-3.png,h,1,0.26210450008511543,h,1,0.17455360013991594,0.047120800241827965,0.047308700159192085,0.09971890039741993,0.09975089970976114,0.7499047005549073
RSVPLG03,MD,20260217-103223,1.0.2,20251105-084826,762,Experiment,Both,1,Automatic,main,97,20260217-104044,local,local,750,S,S,A,A,A-S.png,A-S.png,sS,sS,mask-3.png,mask-2.png,s,1,0.19324620068073273,s,1,0.23718510009348392,0.0462330998852849,0.04608550015836954,0.09876190032809973,0.10012499988079071,0.7491497006267309
RSVPLG03,MD,20260217-103223,1.0.2,20251105-084826,762,Experiment,Both,1,Automatic,main,98,20260217-104049,global,local,300,S,H,E,E,S-E.png,E-H.png,sS,hH,mask-3.png,mask-4.png,s,1,0.5986088998615742,s,0,0.11858330015093088,0.04824389982968569,0.0471257995814085,0.10171339940279722,0.09968569967895746,0.30120319966226816
RSVPLG03,MD,20260217-103223,1.0.2,20251105-084826,762,Experiment,Both,1,Automatic,main,99,20260217-104053,global,global,300,S,S,A,A,S-A.png,S-A.png,sS,sS,mask-1.png,mask-3.png,s,1,0.4201953001320362,s,1,0.1903558000922203,0.04809299949556589,0.04620569944381714,0.09983259998261929,0.09872629959136248,0.3000392001122236
RSVPLG03,MD,20260217-103223,1.0.2,20251105-084826,762,Experiment,Both,1,Automatic,main,100,20260217-104057,local,local,750,H,S,E,E,E-H.png,E-S.png,hH,sS,mask-4.png,mask-3.png,h,1,0.27504049986600876,s,1,0.11906419973820448,0.04723190050572157,0.048333000391721725,0.09962430037558079,0.10083760041743517,0.7489371998235583
