exp,exp_initials,runtime,ver,modtime,sub,blocktype,targets,cuetype,mode,trialtype,trial,trialtime,t1_level,t2_level,t2_lag,t1,t2,distractor1,distractor2,stimfile1,stimfile2,t1_corr,t2_corr,maskfile1,maskfile2,t1_resp,t1_acc,t1_rt,t2_resp,t2_acc,t2_rt,t1_dur,t2_dur,t1mask_soa,t2mask_soa,t1t2_soa
RSVPLG03,km,20260219-170851,1.0.2,20251113-095759,773,Introduction,T1,1,Automatic,main,1,20260219-170917,local,global,750,S,S,E,E,E-S.png,S-E.png,sS,sS,mask-2.png,mask-4.png,s,1,6.548796299961396,none,-5,0,0.09627870004624128,0.10031929996330291,0.19619150005746633,0.20203679997939616,0.7446396000450477
RSVPLG03,km,20260219-170851,1.0.2,20251113-095759,773,Introduction,T1,1,Automatic,main,2,20260219-170928,global,global,750,H,H,A,A,H-A.png,H-A.png,hH,hH,mask-4.png,mask-2.png,h,1,4.146783900097944,none,-5,0,0.10071110003627837,0.09956789994612336,0.20029940002132207,0.19980950001627207,0.7494101000484079
RSVPLG03,km,20260219-170851,1.0.2,20251113-095759,773,Introduction,T1,1,Automatic,main,3,20260219-170936,local,local,750,S,H,E,E,E-S.png,E-H.png,sS,hH,mask-1.png,mask-3.png,s,1,5.2717776000499725,none,-5,0,0.1008506000507623,0.0992114000255242,0.19939339999109507,0.19970600004307926,0.7487369000446051
RSVPLG03,km,20260219-170851,1.0.2,20251113-095759,773,Introduction,T1,1,Automatic,main,4,20260219-170946,local,global,750,H,H,E,E,E-H.png,H-E.png,hH,hH,mask-4.png,mask-4.png,h,1,2.878862400073558,none,-5,0,0.0993348000338301,0.10175309993792325,0.19913760002236813,0.20117739995475858,0.7472507000202313
RSVPLG03,km,20260219-170851,1.0.2,20251113-095759,773,Introduction,T1,1,Automatic,main,5,20260219-170953,local,global,750,H,S,A,A,A-H.png,S-A.png,hH,sS,mask-3.png,mask-3.png,s,0,3.607280800002627,none,-5,0,0.10007849999237806,0.0984405999770388,0.1991538000293076,0.1993837000336498,0.7495840999763459
RSVPLG03,km,20260219-170851,1.0.2,20251113-095759,773,Introduction,T1,1,Automatic,main,6,20260219-171001,local,local,750,S,S,E,E,E-S.png,E-S.png,sS,sS,mask-3.png,mask-3.png,s,1,5.834910299978219,none,-5,0,0.09949260007124394,0.09946109994780272,0.19788520003203303,0.19888859998900443,0.747978400089778
RSVPLG03,km,20260219-170851,1.0.2,20251113-095759,773,Introduction,T1,1,Automatic,main,7,20260219-171011,global,local,750,S,H,A,A,S-A.png,A-H.png,sS,hH,mask-3.png,mask-2.png,s,1,1.4309933999320492,none,-5,0,0.10103749996051192,0.09972639998886734,0.19987919996492565,0.19920890009962022,0.7498954999027774
RSVPLG03,km,20260219-170851,1.0.2,20251113-095759,773,Introduction,T1,1,Automatic,main,8,20260219-171016,local,local,750,H,S,E,A,E-H.png,A-S.png,hH,sS,mask-3.png,mask-4.png,s,0,1.0743098999373615,none,-5,0,0.09925920004025102,0.09971969993785024,0.19985560001805425,0.20065779995638877,0.7483426000690088
RSVPLG03,km,20260219-170851,1.0.2,20251113-095759,773,Introduction,T1,1,Automatic,main,9,20260219-171022,global,local,750,H,S,A,E,H-A.png,E-S.png,hH,sS,mask-4.png,mask-1.png,h,1,1.39752369991038,none,-5,0,0.09932519996073097,0.09983500000089407,0.19920349994208664,0.19982980005443096,0.7484809999587014
RSVPLG03,km,20260219-170851,1.0.2,20251113-095759,773,Introduction,T1,1,Automatic,main,10,20260219-171027,local,local,750,S,S,E,E,E-S.png,E-S.png,sS,sS,mask-2.png,mask-1.png,none,-6,0,none,-5,0,0.09999070002231747,0.09925480000674725,0.19895390002056956,0.20043900003656745,0.7476320000132546
RSVPLG03,km,20260219-170851,1.0.2,20251113-095759,773,Practice,T1,1,Automatic,main,1,20260219-171059,local,global,300,H,S,A,E,A-H.png,S-E.png,hH,sS,mask-4.png,mask-3.png,s,0,7.721786799957044,none,-5,0,0.048788400017656386,0.04851540003437549,0.09901880007237196,0.10012120008468628,0.3006052999990061
RSVPLG03,km,20260219-170851,1.0.2,20251113-095759,773,Practice,T1,1,Automatic,main,2,20260219-171111,global,global,750,S,S,E,A,S-E.png,S-A.png,sS,sS,mask-2.png,mask-4.png,s,1,1.2226653000107035,none,-5,0,0.04954790009651333,0.04921580001246184,0.09984390006866306,0.10045110003557056,0.7514542000135407
RSVPLG03,km,20260219-170851,1.0.2,20251113-095759,773,Practice,T1,1,Automatic,main,3,20260219-171116,local,global,750,H,S,A,A,A-H.png,S-A.png,hH,sS,mask-1.png,mask-3.png,h,1,3.4783303999574855,none,-5,0,0.050486300024203956,0.04939499997999519,0.10171090008225292,0.09999759995844215,0.7527803000994027
RSVPLG03,km,20260219-170851,1.0.2,20251113-095759,773,Practice,T1,1,Automatic,main,4,20260219-171124,local,local,300,S,H,A,E,A-S.png,E-H.png,sS,hH,mask-1.png,mask-3.png,s,1,2.3002919000573456,none,-5,0,0.05122160003520548,0.05098900001030415,0.10047689999919385,0.1021345000481233,0.2998422000091523
RSVPLG03,km,20260219-170851,1.0.2,20251113-095759,773,Practice,T1,1,Automatic,main,5,20260219-171130,global,global,300,H,H,E,E,H-E.png,H-E.png,hH,hH,mask-3.png,mask-2.png,h,1,1.0580806999932975,none,-5,0,0.05143059999682009,0.0508730000583455,0.10173479991499335,0.09950580005533993,0.30128069990314543
RSVPLG03,km,20260219-170851,1.0.2,20251113-095759,773,Practice,T1,1,Automatic,main,6,20260219-171134,global,global,750,S,H,E,E,S-E.png,H-E.png,sS,hH,mask-1.png,mask-3.png,s,1,1.2626300000119954,none,-5,0,0.049745699972845614,0.04976130009163171,0.10087640001438558,0.09863310004584491,0.7529104999266565
RSVPLG03,km,20260219-170851,1.0.2,20251113-095759,773,Practice,T1,1,Automatic,main,7,20260219-171140,local,global,300,S,S,A,A,A-S.png,S-A.png,sS,sS,mask-1.png,mask-2.png,s,1,1.7302781000034884,none,-5,0,0.05157099990174174,0.05325360002461821,0.10088779998477548,0.10266610002145171,0.2997055999003351
RSVPLG03,km,20260219-170851,1.0.2,20251113-095759,773,Practice,T1,1,Automatic,main,8,20260219-171145,local,local,750,S,H,A,A,A-S.png,A-H.png,sS,hH,mask-3.png,mask-4.png,s,1,1.0864921999163926,none,-5,0,0.05114250001497567,0.049784400034695864,0.10240949993021786,0.09976520005147904,0.7533924999879673
RSVPLG03,km,20260219-170851,1.0.2,20251113-095759,773,Practice,T1,1,Automatic,main,9,20260219-171150,global,local,300,S,S,A,E,S-A.png,E-S.png,sS,sS,mask-1.png,mask-1.png,s,1,1.8313321999739856,none,-5,0,0.04904849990271032,0.05042220000177622,0.09873709990642965,0.1004536000546068,0.2988058999180794
RSVPLG03,km,20260219-170851,1.0.2,20251113-095759,773,Practice,T1,1,Automatic,main,10,20260219-171156,local,local,300,S,H,E,E,E-S.png,E-H.png,sS,hH,mask-3.png,mask-3.png,s,1,1.2467433999991044,none,-5,0,0.049965100013650954,0.04871459992136806,0.10018890001811087,0.09886779997032136,0.3024364000884816
RSVPLG03,km,20260219-170851,1.0.2,20251113-095759,773,Practice,T1,1,Automatic,main,11,20260219-171201,global,local,300,S,H,E,A,S-E.png,A-H.png,sS,hH,mask-3.png,mask-1.png,s,1,0.9878696999512613,none,-5,0,0.04976750002242625,0.050402200082316995,0.10038640000857413,0.10073070006910712,0.30014619999565184
RSVPLG03,km,20260219-170851,1.0.2,20251113-095759,773,Practice,T1,1,Automatic,main,12,20260219-171206,global,local,750,S,S,A,A,S-A.png,A-S.png,sS,sS,mask-2.png,mask-1.png,s,1,1.284089400083758,none,-5,0,0.049754800042137504,0.049570900038816035,0.09964670008048415,0.0991374000441283,0.7524624000070617
RSVPLG03,km,20260219-170851,1.0.2,20251113-095759,773,Practice,T1,1,Automatic,main,13,20260219-171211,local,local,750,S,S,E,A,E-S.png,A-S.png,sS,sS,mask-3.png,mask-3.png,s,1,3.450556499999948,none,-5,0,0.049893399933353066,0.048729500034824014,0.09891749999951571,0.0996397000271827,0.7509379999246448
RSVPLG03,km,20260219-170851,1.0.2,20251113-095759,773,Practice,T1,1,Automatic,main,14,20260219-171219,local,global,750,H,S,A,A,A-H.png,S-A.png,hH,sS,mask-2.png,mask-1.png,h,1,0.589733500033617,none,-5,0,0.05007949995342642,0.050147100002504885,0.10063749994151294,0.10180870001204312,0.7515153000131249
RSVPLG03,km,20260219-170851,1.0.2,20251113-095759,773,Practice,T1,1,Automatic,main,15,20260219-171223,global,global,300,S,H,A,E,S-A.png,H-E.png,sS,hH,mask-4.png,mask-2.png,s,1,0.42513849993702024,none,-5,0,0.04965619998984039,0.05032859998755157,0.10005919996183366,0.10115530004259199,0.2988171000033617
RSVPLG03,km,20260219-170851,1.0.2,20251113-095759,773,Practice,T1,1,Automatic,main,16,20260219-171227,global,local,750,H,S,A,A,H-A.png,A-S.png,hH,sS,mask-3.png,mask-3.png,h,1,0.5854879000689834,none,-5,0,0.04930660000536591,0.048843099968507886,0.09989910002332181,0.09989499999210238,0.7533524000318721
RSVPLG03,km,20260219-171322,1.0.2,20251113-095759,773,Introduction,Both,1,Automatic,main,1,20260219-171350,global,local,750,S,S,E,A,S-E.png,A-S.png,sS,sS,mask-1.png,mask-3.png,h,0,5.560628699953668,h,0,5.682124299928546,0.09583439992275089,0.10040560003835708,0.19559250003658235,0.200490300077945,0.7440319999586791
RSVPLG03,km,20260219-171322,1.0.2,20251113-095759,773,Introduction,Both,1,Automatic,main,2,20260219-171406,global,global,750,S,H,E,E,S-E.png,H-E.png,sS,hH,mask-1.png,mask-4.png,h,0,2.6682813999941573,h,1,1.0241605000337586,0.09769530000630766,0.10115510004106909,0.1980053000152111,0.20039070001803339,0.7470562000526115
RSVPLG03,km,20260219-171322,1.0.2,20251113-095759,773,Introduction,Both,1,Automatic,main,3,20260219-171414,local,global,750,H,S,E,E,E-H.png,S-E.png,hH,sS,mask-2.png,mask-1.png,h,1,44.06504359992687,h,0,2.207980400067754,0.09898570005316287,0.0987637999933213,0.19895000010728836,0.20029739988967776,0.748500500107184
RSVPLG03,km,20260219-171322,1.0.2,20251113-095759,773,Introduction,Both,1,Automatic,main,4,20260219-171505,global,global,750,S,S,E,E,S-E.png,S-E.png,sS,sS,mask-1.png,mask-3.png,s,1,3.0080628999276087,h,0,0.9276518999831751,0.09963760001119226,0.09955379995517433,0.19946939998771995,0.19914989999961108,0.7487370000453666
RSVPLG03,km,20260219-171322,1.0.2,20251113-095759,773,Introduction,Both,1,Automatic,main,5,20260219-171514,local,global,750,S,S,A,A,A-S.png,S-A.png,sS,sS,mask-3.png,mask-2.png,s,1,3.058922199998051,h,0,0.6250546999508515,0.09904939995612949,0.0995894999941811,0.2009548000060022,0.20027959998697042,0.7483613999793306
RSVPLG03,km,20260219-171322,1.0.2,20251113-095759,773,Introduction,Both,1,Automatic,main,6,20260219-171522,local,global,750,S,H,A,E,A-S.png,H-E.png,sS,hH,mask-3.png,mask-4.png,s,1,3.154356300015934,h,1,0.17793089989572763,0.09829849994275719,0.09964190004393458,0.19786759989801794,0.19918029999826103,0.7486182999564335
RSVPLG03,km,20260219-171322,1.0.2,20251113-095759,773,Introduction,Both,1,Automatic,main,7,20260219-171530,global,local,750,H,S,A,A,H-A.png,A-S.png,hH,sS,mask-3.png,mask-1.png,h,1,2.219431999954395,s,1,0.4342897000024095,0.09971809992566705,0.0981061999918893,0.19963809999171644,0.1985321999527514,0.750105999992229
RSVPLG03,km,20260219-171322,1.0.2,20251113-095759,773,Introduction,Both,1,Automatic,main,8,20260219-171537,local,global,750,S,H,E,E,E-S.png,H-E.png,sS,hH,mask-3.png,mask-4.png,s,1,3.5351466999854892,h,1,3.2942860999610275,0.09987119992729276,0.10030589997768402,0.2016636999323964,0.20141590002458543,0.7485906999791041
RSVPLG03,km,20260219-171322,1.0.2,20251113-095759,773,Introduction,Both,1,Automatic,main,9,20260219-171548,global,local,750,H,H,E,E,H-E.png,E-H.png,hH,hH,mask-3.png,mask-4.png,h,1,2.762626999989152,s,0,2.8466959999641404,0.10199320001993328,0.09937009995337576,0.20133489998988807,0.19997640000656247,0.749991700053215
RSVPLG03,km,20260219-171322,1.0.2,20251113-095759,773,Introduction,Both,1,Automatic,main,10,20260219-171558,local,local,750,H,S,E,A,E-H.png,A-S.png,hH,sS,mask-3.png,mask-3.png,h,1,1.5514728999696672,s,1,1.7754879998974502,0.09908060007728636,0.09994810004718602,0.19871600007172674,0.19945900002494454,0.7487357000354677
RSVPLG03,km,20260219-171322,1.0.2,20251113-095759,773,Introduction,Both,1,Automatic,main,11,20260219-171604,local,local,750,S,S,E,A,E-S.png,A-S.png,sS,sS,mask-3.png,mask-1.png,s,1,1.7853906999807805,s,1,0.25444270006846637,0.09892729995772243,0.09993709996342659,0.20010670006740838,0.19999919994734228,0.749166400055401
RSVPLG03,km,20260219-171322,1.0.2,20251113-095759,773,Introduction,Both,1,Automatic,main,12,20260219-171611,global,global,750,H,H,E,E,H-E.png,H-E.png,hH,hH,mask-4.png,mask-3.png,h,1,1.1741685000015423,h,1,0.1289919000118971,0.09978629997931421,0.10181869997177273,0.1994184999493882,0.20151110005099326,0.7476661999244243
RSVPLG03,km,20260219-171322,1.0.2,20251113-095759,773,Introduction,Both,1,Automatic,main,13,20260219-171616,local,local,750,S,H,A,A,A-S.png,A-H.png,sS,hH,mask-1.png,mask-1.png,s,1,1.2208916998934,h,1,0.00158250005915761,0.09936540003400296,0.10071549995336682,0.20014260010793805,0.2007033999543637,0.748738200054504
RSVPLG03,km,20260219-171322,1.0.2,20251113-095759,773,Introduction,Both,1,Automatic,main,14,20260219-171622,global,local,750,H,H,E,A,H-E.png,A-H.png,hH,hH,mask-2.png,mask-1.png,h,1,3.1328523999545723,s,0,1.0566554999677464,0.1017676000483334,0.0981879000319168,0.2006668000249192,0.1994515999685973,0.7507698000408709
RSVPLG03,km,20260219-171322,1.0.2,20251113-095759,773,Introduction,Both,1,Automatic,main,15,20260219-171630,global,global,750,H,S,A,E,H-A.png,S-E.png,hH,sS,mask-4.png,mask-1.png,h,1,1.494786600000225,s,1,0.0016868000384420156,0.1010650999378413,0.1004062999272719,0.19973380002193153,0.20011809992138296,0.7480319000314921
RSVPLG03,km,20260219-171322,1.0.2,20251113-095759,773,Introduction,Both,1,Automatic,main,16,20260219-171636,local,local,750,S,H,A,E,A-S.png,E-H.png,sS,hH,mask-3.png,mask-4.png,h,0,2.5161365000531077,s,0,0.2704832999734208,0.09900109993759543,0.09984489995986223,0.2004939999897033,0.1991235000314191,0.7496336000040174
RSVPLG03,km,20260219-171701,1.0.2,20251113-095759,773,Practice,Both,1,Automatic,main,1,20260219-171746,local,global,300,H,H,E,E,E-H.png,H-E.png,hH,hH,mask-4.png,mask-1.png,h,1,3.3112984999315813,h,1,0.8018487999215722,0.04901060007978231,0.04865609994158149,0.09885760000906885,0.09825749997980893,0.3008742000674829
RSVPLG03,km,20260219-171701,1.0.2,20251113-095759,773,Practice,Both,1,Automatic,main,2,20260219-171753,global,global,300,S,H,A,A,S-A.png,H-A.png,sS,hH,mask-3.png,mask-2.png,s,1,2.346795899909921,h,1,2.490948999999091,0.051725300028920174,0.05023519997484982,0.10061910003423691,0.10156480001751333,0.301791200065054
RSVPLG03,km,20260219-171701,1.0.2,20251113-095759,773,Practice,Both,1,Automatic,main,3,20260219-171800,local,global,750,S,S,E,E,E-S.png,S-E.png,sS,sS,mask-2.png,mask-3.png,s,1,3.373552499921061,h,0,0.31945279997307807,0.04973149998113513,0.050815700087696314,0.10078249999787658,0.10090280009899288,0.7523474999470636
RSVPLG03,km,20260219-171701,1.0.2,20251113-095759,773,Practice,Both,1,Automatic,main,4,20260219-171807,local,global,750,H,H,A,E,A-H.png,H-E.png,hH,hH,mask-3.png,mask-4.png,h,1,1.501431200071238,s,0,0.32184350001625717,0.05095199996139854,0.05043369997292757,0.10043749993201345,0.101768400054425,0.7523925999412313
RSVPLG03,km,20260219-171701,1.0.2,20251113-095759,773,Practice,Both,1,Automatic,main,5,20260219-171814,global,local,750,S,H,E,E,S-E.png,E-H.png,sS,hH,mask-3.png,mask-4.png,s,1,3.3163455999456346,h,1,3.5241707999957725,0.04961679992265999,0.05051570001523942,0.10010999999940395,0.10249700001440942,0.7520701999310404
RSVPLG03,km,20260219-171701,1.0.2,20251113-095759,773,Practice,Both,1,Automatic,main,6,20260219-171821,global,local,300,H,S,A,E,H-A.png,E-S.png,hH,sS,mask-3.png,mask-3.png,h,1,1.280576099990867,s,1,0.11087880004197359,0.05169430002570152,0.0481977000599727,0.10067299997899681,0.10021710000000894,0.3028181999688968
RSVPLG03,km,20260219-171701,1.0.2,20251113-095759,773,Practice,Both,1,Automatic,main,7,20260219-171826,global,global,300,H,H,A,A,H-A.png,H-A.png,hH,hH,mask-3.png,mask-3.png,h,1,1.6730212999973446,h,1,0.09835859993472695,0.05151600006502122,0.050252399989403784,0.09959910006728023,0.1012754999101162,0.3012710000621155
RSVPLG03,km,20260219-171701,1.0.2,20251113-095759,773,Practice,Both,1,Automatic,main,8,20260219-171832,global,local,750,S,S,A,A,S-A.png,A-S.png,sS,sS,mask-3.png,mask-2.png,s,1,1.5824637999758124,h,0,1.7106432999717072,0.050308699952438474,0.05089630000293255,0.09881479991599917,0.1006554999621585,0.7518379000248387
RSVPLG03,km,20260219-171701,1.0.2,20251113-095759,773,Practice,Both,1,Automatic,main,9,20260219-171838,local,global,300,S,H,E,A,E-S.png,H-A.png,sS,hH,mask-1.png,mask-3.png,s,1,1.792890099924989,s,0,0.09813009994104505,0.0494128999998793,0.04942769999615848,0.09915969998110086,0.09996409993618727,0.3005756000056863
RSVPLG03,km,20260219-171701,1.0.2,20251113-095759,773,Practice,Both,1,Automatic,main,10,20260219-171843,global,local,300,S,S,A,A,S-A.png,A-S.png,sS,sS,mask-4.png,mask-1.png,s,1,1.3692494999850169,h,0,1.6935862000100315,0.049788499949499965,0.05237279995344579,0.10133969993330538,0.10155989998020232,0.29933900001924485
RSVPLG03,km,20260219-171701,1.0.2,20251113-095759,773,Practice,Both,1,Automatic,main,11,20260219-171850,global,global,750,H,S,A,E,H-A.png,S-E.png,hH,sS,mask-2.png,mask-4.png,h,1,1.0461300999158993,s,1,0.1251926999539137,0.048952699988149107,0.0508384999120608,0.10032460000365973,0.10098979994654655,0.7518575000576675
RSVPLG03,km,20260219-171701,1.0.2,20251113-095759,773,Practice,Both,1,Automatic,main,12,20260219-171856,local,local,750,S,H,E,E,E-S.png,E-H.png,sS,hH,mask-2.png,mask-4.png,s,1,1.4276763000525534,h,1,0.08030769997276366,0.05049340007826686,0.04950959992129356,0.10176010010764003,0.10026059998199344,0.753315000096336
RSVPLG03,km,20260219-171701,1.0.2,20251113-095759,773,Practice,Both,1,Automatic,main,13,20260219-171901,global,global,750,S,H,A,E,S-A.png,H-E.png,sS,hH,mask-3.png,mask-3.png,s,1,1.2901772999903187,h,1,0.11256360006518662,0.04929870006162673,0.04883230000268668,0.10074840008746833,0.10044539999216795,0.7526024000253528
RSVPLG03,km,20260219-171701,1.0.2,20251113-095759,773,Practice,Both,1,Automatic,main,14,20260219-171907,local,local,300,H,S,E,A,E-H.png,A-S.png,hH,sS,mask-4.png,mask-2.png,h,1,0.9640624999301508,s,1,0.07769810000900179,0.049210699973627925,0.04923949996009469,0.09897160006221384,0.09906599996611476,0.30039660003967583
RSVPLG03,km,20260219-171701,1.0.2,20251113-095759,773,Practice,Both,1,Automatic,main,15,20260219-171912,local,local,300,S,S,A,A,A-S.png,A-S.png,sS,sS,mask-3.png,mask-4.png,s,1,1.0438821000279859,s,1,0.07833469996694475,0.05189920007251203,0.050953199970535934,0.10111759998835623,0.10080039990134537,0.30139630008488894
RSVPLG03,km,20260219-171701,1.0.2,20251113-095759,773,Practice,Both,1,Automatic,main,16,20260219-171917,local,local,750,H,S,E,E,E-H.png,E-S.png,hH,sS,mask-1.png,mask-1.png,h,1,1.2230609999969602,s,1,0.13027939992025495,0.049673100002110004,0.04805159999523312,0.10041890002321452,0.09915850008837879,0.7539277999894693
RSVPLG03,km,20260219-172004,1.0.2,20251113-095759,773,Experiment,Both,1,Automatic,warmup,1,20260219-172115,global,local,750,H,H,E,A,H-E.png,A-H.png,hH,hH,mask-1.png,mask-1.png,h,1,2.796202900004573,h,1,0.06015879998449236,0.04222219996154308,0.05070460005663335,0.09251760004553944,0.10166080005001277,0.7434120000107214
RSVPLG03,km,20260219-172004,1.0.2,20251113-095759,773,Experiment,Both,1,Automatic,warmup,2,20260219-172122,global,local,300,S,S,A,A,S-A.png,A-S.png,sS,sS,mask-1.png,mask-2.png,s,1,1.4062011999776587,h,0,0.02883780002593994,0.049757499946281314,0.05077040009200573,0.09875599993392825,0.10035750002134591,0.29931279993616045
RSVPLG03,km,20260219-172004,1.0.2,20251113-095759,773,Experiment,Both,1,Automatic,warmup,3,20260219-172127,local,global,750,H,H,E,A,E-H.png,H-A.png,hH,hH,mask-3.png,mask-4.png,h,1,2.2274995000334457,h,1,0.08137659996282309,0.05104139994364232,0.04986909998115152,0.10003219998907298,0.10190040001180023,0.7504901000065729
RSVPLG03,km,20260219-172004,1.0.2,20251113-095759,773,Experiment,Both,1,Automatic,warmup,4,20260219-172133,local,global,300,S,H,E,E,E-S.png,H-E.png,sS,hH,mask-3.png,mask-3.png,s,1,2.2453456999501213,h,1,0.1095861999783665,0.04922080005053431,0.04862190003041178,0.09998230007477105,0.10004620009567589,0.3020233999704942
RSVPLG03,km,20260219-172004,1.0.2,20251113-095759,773,Experiment,Both,1,Automatic,main,5,20260219-172139,global,global,750,S,H,E,E,S-E.png,H-E.png,sS,hH,mask-3.png,mask-3.png,s,1,1.6759221999673173,h,1,1.8038654000265524,0.04839410004206002,0.05088300001807511,0.09991850005462766,0.10088319994974881,0.7504358000587672
RSVPLG03,km,20260219-172004,1.0.2,20251113-095759,773,Experiment,Both,1,Automatic,main,6,20260219-172145,global,local,300,H,S,A,E,H-A.png,E-S.png,hH,sS,mask-1.png,mask-1.png,s,0,1.752257699961774,h,0,0.06262750003952533,0.04882719996385276,0.04824839998036623,0.09887929994147271,0.09836240008007735,0.3012270999606699
RSVPLG03,km,20260219-172004,1.0.2,20251113-095759,773,Experiment,Both,1,Automatic,main,7,20260219-172151,global,local,300,H,S,A,A,H-A.png,A-S.png,hH,sS,mask-4.png,mask-2.png,h,1,1.8357865998987108,h,0,0.09500460000708699,0.0494557999772951,0.04990530002396554,0.09959909995086491,0.10052770003676414,0.29975040000863373
RSVPLG03,km,20260219-172004,1.0.2,20251113-095759,773,Experiment,Both,1,Automatic,main,8,20260219-172156,global,local,300,S,S,A,E,S-A.png,E-S.png,sS,sS,mask-1.png,mask-4.png,s,1,1.9736328000435606,h,0,3.6636010999791324,0.04945479996968061,0.04960400005802512,0.09994579991325736,0.09888940001837909,0.30109899991657585
RSVPLG03,km,20260219-172004,1.0.2,20251113-095759,773,Experiment,Both,1,Automatic,main,9,20260219-172206,global,global,750,S,S,A,A,S-A.png,S-A.png,sS,sS,mask-4.png,mask-4.png,s,1,0.5797891999827698,s,1,0.11139570001978427,0.04869109997525811,0.05119979998562485,0.10108709998894483,0.1014695999911055,0.7506257999921218
RSVPLG03,km,20260219-172004,1.0.2,20251113-095759,773,Experiment,Both,1,Automatic,main,10,20260219-172211,local,local,750,H,S,E,A,E-H.png,A-S.png,hH,sS,mask-4.png,mask-3.png,h,1,1.2575300000607967,s,1,0.14217000000644475,0.049139600014314055,0.05004080000799149,0.09996879997197539,0.10201150004286319,0.7503633999731392
RSVPLG03,km,20260219-172004,1.0.2,20251113-095759,773,Experiment,Both,1,Automatic,main,11,20260219-172216,global,global,300,H,H,A,E,H-A.png,H-E.png,hH,hH,mask-4.png,mask-3.png,h,1,1.6797289999667555,h,1,0.078442900092341,0.04824269993696362,0.050911800004541874,0.098768699914217,0.0997767000226304,0.2995313999708742
RSVPLG03,km,20260219-172004,1.0.2,20251113-095759,773,Experiment,Both,1,Automatic,main,12,20260219-172222,local,global,750,S,H,A,E,A-S.png,H-E.png,sS,hH,mask-2.png,mask-2.png,s,1,2.040065999957733,h,1,1.470748299965635,0.05003379995469004,0.05080399999860674,0.1011661000084132,0.10265370004344732,0.7504609000170603
RSVPLG03,km,20260219-172004,1.0.2,20251113-095759,773,Experiment,Both,1,Automatic,main,13,20260219-172229,local,local,300,S,H,A,E,A-S.png,E-H.png,sS,hH,mask-1.png,mask-2.png,s,1,1.7510538999922574,h,1,1.84676230000332,0.050139599945396185,0.050393000012263656,0.10166229994501919,0.10133619990665466,0.3011228999821469
RSVPLG03,km,20260219-172004,1.0.2,20251113-095759,773,Experiment,Both,1,Automatic,main,14,20260219-172235,local,local,300,S,S,E,A,E-S.png,A-S.png,sS,sS,mask-1.png,mask-4.png,s,1,1.5117117000045255,s,1,0.09693210001569241,0.0511875000083819,0.04887189995497465,0.10048519994597882,0.09938999998848885,0.300974200014025
RSVPLG03,km,20260219-172004,1.0.2,20251113-095759,773,Experiment,Both,1,Automatic,main,15,20260219-172240,global,global,750,S,S,E,E,S-E.png,S-E.png,sS,sS,mask-2.png,mask-2.png,s,1,1.113768900046125,s,1,0.06559640006162226,0.049674500012770295,0.05071909993421286,0.0991530999308452,0.1014177999459207,0.7511748999822885
RSVPLG03,km,20260219-172004,1.0.2,20251113-095759,773,Experiment,Both,1,Automatic,main,16,20260219-172245,global,local,750,H,H,E,A,H-E.png,A-H.png,hH,hH,mask-3.png,mask-1.png,h,1,1.5891136000864208,h,1,0.09687620005570352,0.05007839994505048,0.04937419993802905,0.10083789995405823,0.09894509997684509,0.7523555000079796
RSVPLG03,km,20260219-172004,1.0.2,20251113-095759,773,Experiment,Both,1,Automatic,main,17,20260219-172251,local,global,300,S,H,E,E,E-S.png,H-E.png,sS,hH,mask-4.png,mask-3.png,s,1,2.90811700001359,h,1,0.04752570006530732,0.0498180000577122,0.051868699956685305,0.1018771999515593,0.10084400000050664,0.3007659000577405
RSVPLG03,km,20260219-172004,1.0.2,20251113-095759,773,Experiment,Both,1,Automatic,main,18,20260219-172258,global,local,300,S,S,E,A,S-E.png,A-S.png,sS,sS,mask-1.png,mask-2.png,s,1,1.696282299933955,h,0,1.8564592999173328,0.04978589992970228,0.049379799980670214,0.09971689991652966,0.09906099992804229,0.30025680002290756
RSVPLG03,km,20260219-172004,1.0.2,20251113-095759,773,Experiment,Both,1,Automatic,main,19,20260219-172303,local,global,300,S,S,E,E,E-S.png,S-E.png,sS,sS,mask-4.png,mask-3.png,s,1,2.5256207999773324,h,0,0.07757040008436888,0.04883679992053658,0.04983110004104674,0.09889079991262406,0.09944290004204959,0.30004519992507994
RSVPLG03,km,20260219-172004,1.0.2,20251113-095759,773,Experiment,Both,1,Automatic,main,20,20260219-172309,global,local,750,H,H,A,A,H-A.png,A-H.png,hH,hH,mask-4.png,mask-2.png,h,1,1.6046921000815928,s,0,0.1745332001009956,0.05044989997986704,0.050452299998141825,0.10008539992850274,0.09997079998720437,0.7511768999975175
RSVPLG03,km,20260219-172004,1.0.2,20251113-095759,773,Experiment,Both,1,Automatic,main,21,20260219-172315,local,local,750,S,S,A,A,A-S.png,A-S.png,sS,sS,mask-3.png,mask-3.png,s,1,2.0269597000442445,s,1,0.07813569996505976,0.04867809999268502,0.05012230004649609,0.10061650001443923,0.10010630008764565,0.751235399977304
RSVPLG03,km,20260219-172004,1.0.2,20251113-095759,773,Experiment,Both,1,Automatic,main,22,20260219-172321,local,local,300,H,S,A,A,A-H.png,A-S.png,hH,sS,mask-2.png,mask-4.png,h,1,1.918049200088717,s,1,0.06490080000367016,0.05071779992431402,0.048327800002880394,0.09978899999987334,0.09962530003394932,0.3017111999215558
RSVPLG03,km,20260219-172004,1.0.2,20251113-095759,773,Experiment,Both,1,Automatic,main,23,20260219-172327,local,local,750,S,S,E,E,E-S.png,E-S.png,sS,sS,mask-1.png,mask-3.png,s,1,1.6797372000291944,s,1,0.09454630000982434,0.0506858000298962,0.04938800004310906,0.10003580001648515,0.09881310001946986,0.7529453999595717
RSVPLG03,km,20260219-172004,1.0.2,20251113-095759,773,Experiment,Both,1,Automatic,main,24,20260219-172333,global,global,300,H,H,E,E,H-E.png,H-E.png,hH,hH,mask-1.png,mask-1.png,h,1,1.5903443000279367,h,1,0.07763259997591376,0.05114679993130267,0.049436000059358776,0.09884069999679923,0.09959260001778603,0.3006552999140695
RSVPLG03,km,20260219-172004,1.0.2,20251113-095759,773,Experiment,Both,1,Automatic,main,25,20260219-172338,local,global,750,S,S,E,E,E-S.png,S-E.png,sS,sS,mask-4.png,mask-3.png,s,1,1.572405599988997,h,0,1.7163375000236556,0.050755799980834126,0.04826149996370077,0.09944829996675253,0.10030709998682141,0.7517458000220358
RSVPLG03,km,20260219-172004,1.0.2,20251113-095759,773,Experiment,Both,1,Automatic,main,26,20260219-172823,local,global,300,H,H,A,A,A-H.png,H-A.png,hH,hH,mask-1.png,mask-2.png,h,1,2.287946500000544,s,0,2.4160419000545517,0.05006889998912811,0.05027229990810156,0.10096700000576675,0.10067650000564754,0.3009113000007346
RSVPLG03,km,20260219-172004,1.0.2,20251113-095759,773,Experiment,Both,1,Automatic,main,27,20260219-172829,global,global,300,S,S,A,A,S-A.png,S-A.png,sS,sS,mask-2.png,mask-3.png,s,1,2.306180499959737,s,1,0.5733797000721097,0.04897490004077554,0.051114599918946624,0.09958619996905327,0.10011679993476719,0.2991435000440106
RSVPLG03,km,20260219-172004,1.0.2,20251113-095759,773,Experiment,Both,1,Automatic,main,28,20260219-172835,local,local,750,S,S,E,A,E-S.png,A-S.png,sS,sS,mask-1.png,mask-3.png,s,1,1.029649299918674,s,1,0.0793034000089392,0.05019179999362677,0.04919859999790788,0.09902820002753288,0.09947600006125867,0.7513537999475375
RSVPLG03,km,20260219-172004,1.0.2,20251113-095759,773,Experiment,Both,1,Automatic,main,29,20260219-172841,global,global,750,H,H,E,E,H-E.png,H-E.png,hH,hH,mask-4.png,mask-4.png,h,1,1.0840497000608593,h,1,0.09551429993007332,0.0484083000337705,0.052246800041757524,0.0984954999294132,0.10196890006773174,0.7489404999651015
RSVPLG03,km,20260219-172004,1.0.2,20251113-095759,773,Experiment,Both,1,Automatic,main,30,20260219-172846,global,local,300,S,S,E,E,S-E.png,E-S.png,sS,sS,mask-4.png,mask-2.png,s,1,1.676812699995935,h,0,1.8050103000132367,0.05047559994272888,0.04971349996048957,0.10002609994262457,0.10176180000416934,0.29987709992565215
RSVPLG03,km,20260219-172004,1.0.2,20251113-095759,773,Experiment,Both,1,Automatic,main,31,20260219-172851,global,global,300,S,S,E,E,S-E.png,S-E.png,sS,sS,mask-4.png,mask-4.png,s,1,1.0538796000182629,s,1,0.08260120009072125,0.05173449998255819,0.049707000027410686,0.10158060002140701,0.09950360003858805,0.3017352999886498
RSVPLG03,km,20260219-172004,1.0.2,20251113-095759,773,Experiment,Both,1,Automatic,main,32,20260219-172856,global,global,750,H,S,A,A,H-A.png,S-A.png,hH,sS,mask-4.png,mask-4.png,h,1,0.8389632999897003,s,1,1.1332768000429496,0.04959329997655004,0.05091190000530332,0.09946329996455461,0.09986419999040663,0.7507054000161588
RSVPLG03,km,20260219-172004,1.0.2,20251113-095759,773,Experiment,Both,1,Automatic,main,33,20260219-172902,local,global,750,S,H,A,E,A-S.png,H-E.png,sS,hH,mask-2.png,mask-3.png,s,1,2.891728400019929,h,1,0.07694830000400543,0.05073269992135465,0.049159100046381354,0.09876630001235753,0.09955569996964186,0.7511131999781355
RSVPLG03,km,20260219-172004,1.0.2,20251113-095759,773,Experiment,Both,1,Automatic,main,34,20260219-172910,local,global,300,S,S,A,E,A-S.png,S-E.png,sS,sS,mask-4.png,mask-1.png,s,1,2.7963355999672785,s,1,0.5124305000063032,0.04959700000472367,0.05015960009768605,0.10054420004598796,0.10055299999658018,0.3007998999673873
RSVPLG03,km,20260219-172004,1.0.2,20251113-095759,773,Experiment,Both,1,Automatic,main,35,20260219-172917,global,local,750,S,S,E,A,S-E.png,A-S.png,sS,sS,mask-2.png,mask-3.png,s,1,2.2319584999931976,h,0,0.12507799989543855,0.050095199956558645,0.04982750001363456,0.09988479991443455,0.0997561999829486,0.7529506999999285
RSVPLG03,km,20260219-172004,1.0.2,20251113-095759,773,Experiment,Both,1,Automatic,main,36,20260219-172923,global,global,300,H,H,A,E,H-A.png,H-E.png,hH,hH,mask-2.png,mask-1.png,h,1,1.4458614999894053,h,1,0.12992910004686564,0.04848440003115684,0.05051219998858869,0.10021429997868836,0.10048150003422052,0.2996212999569252
RSVPLG03,km,20260219-172004,1.0.2,20251113-095759,773,Experiment,Both,1,Automatic,main,37,20260219-172928,global,local,750,H,H,A,E,H-A.png,E-H.png,hH,hH,mask-1.png,mask-1.png,h,1,1.4281817000592127,s,0,0.08072890003677458,0.04996980004943907,0.04931689996737987,0.10246300010476261,0.09952279995195568,0.7528088000835851
RSVPLG03,km,20260219-172004,1.0.2,20251113-095759,773,Experiment,Both,1,Automatic,main,38,20260219-172934,global,local,300,S,S,A,A,S-A.png,A-S.png,sS,sS,mask-3.png,mask-1.png,s,1,1.5397882000543177,h,0,0.15819950005970895,0.05083060008473694,0.05138069996610284,0.100341200013645,0.09990160004235804,0.30079220002517104
RSVPLG03,km,20260219-172004,1.0.2,20251113-095759,773,Experiment,Both,1,Automatic,main,39,20260219-172940,global,global,300,S,H,A,A,S-A.png,H-A.png,sS,hH,mask-2.png,mask-1.png,s,1,0.9570287999231368,h,1,0.35389230004511774,0.05021050001960248,0.049907300039194524,0.10084970004390925,0.10147969995159656,0.3008889000630006
RSVPLG03,km,20260219-172004,1.0.2,20251113-095759,773,Experiment,Both,1,Automatic,main,40,20260219-172945,local,local,300,S,S,A,E,A-S.png,E-S.png,sS,sS,mask-3.png,mask-4.png,s,1,1.7504335000412539,h,0,0.23806820006575435,0.05076900008134544,0.05071990005671978,0.09860450006090105,0.09959100000560284,0.3008810000028461
RSVPLG03,km,20260219-172004,1.0.2,20251113-095759,773,Experiment,Both,1,Automatic,main,41,20260219-172951,local,local,300,H,H,E,E,E-H.png,E-H.png,hH,hH,mask-4.png,mask-4.png,h,1,1.4371542999288067,h,1,0.07802270003594458,0.04989599995315075,0.04888070002198219,0.10183499997947365,0.10053589998278767,0.3008709999267012
RSVPLG03,km,20260219-172004,1.0.2,20251113-095759,773,Experiment,Both,1,Automatic,main,42,20260219-172956,global,local,300,S,H,E,A,S-E.png,A-H.png,sS,hH,mask-3.png,mask-3.png,s,1,1.4243894000537694,h,1,0.0647998999338597,0.05092700000386685,0.05147279996890575,0.09983149997424334,0.10145620000548661,0.298540799994953
RSVPLG03,km,20260219-172004,1.0.2,20251113-095759,773,Experiment,Both,1,Automatic,main,43,20260219-173001,global,global,750,S,S,E,A,S-E.png,S-A.png,sS,sS,mask-2.png,mask-2.png,s,1,1.5749906999990344,s,1,0.07811390003189445,0.05045270000118762,0.04966160003095865,0.10087850003037602,0.10034800006542355,0.7525526999961585
RSVPLG03,km,20260219-172004,1.0.2,20251113-095759,773,Experiment,Both,1,Automatic,main,44,20260219-173007,global,local,750,H,S,A,A,H-A.png,A-S.png,hH,sS,mask-3.png,mask-2.png,h,1,0.9728466999949887,s,1,0.062451599980704486,0.0487284999107942,0.050833200104534626,0.0994886999251321,0.10087490000296384,0.7500949999084696
RSVPLG03,km,20260219-172004,1.0.2,20251113-095759,773,Experiment,Both,1,Automatic,main,45,20260219-173012,global,global,300,H,H,E,A,H-E.png,H-A.png,hH,hH,mask-1.png,mask-3.png,h,1,1.2935510000679642,h,1,0.09501119994092733,0.05074750003404915,0.050421199994161725,0.1006369999377057,0.0999824000755325,0.3015621999511495
RSVPLG03,km,20260219-172004,1.0.2,20251113-095759,773,Experiment,Both,1,Automatic,main,46,20260219-173017,local,global,750,H,S,A,E,A-H.png,S-E.png,hH,sS,mask-2.png,mask-4.png,h,1,1.5950952999992296,s,1,0.09549700003117323,0.04872830002568662,0.050354399951174855,0.1003477000631392,0.10231170000042766,0.7496265000663698
RSVPLG03,km,20260219-172004,1.0.2,20251113-095759,773,Experiment,Both,1,Automatic,main,47,20260219-173023,local,local,750,H,H,A,E,A-H.png,E-H.png,hH,hH,mask-3.png,mask-1.png,h,1,1.4212246000533924,h,1,0.09747629996854812,0.051354600000195205,0.04958540003281087,0.09923700010403991,0.10028310003690422,0.7515028000343591
RSVPLG03,km,20260219-172004,1.0.2,20251113-095759,773,Experiment,Both,1,Automatic,main,48,20260219-173029,local,local,750,H,H,A,E,A-H.png,E-H.png,hH,hH,mask-4.png,mask-3.png,s,0,1.3446758000645787,s,0,0.082723299972713,0.04953570000361651,0.05085160001181066,0.09931259998120368,0.10105519997887313,0.7497287000296637
RSVPLG03,km,20260219-172004,1.0.2,20251113-095759,773,Experiment,Both,1,Automatic,main,49,20260219-173034,global,global,750,S,H,E,A,S-E.png,H-A.png,sS,hH,mask-1.png,mask-3.png,h,0,2.6086561999982223,s,0,0.016482300008647144,0.04805250000208616,0.04931769997347146,0.09970730007626116,0.09920549998059869,0.7513609000016004
RSVPLG03,km,20260219-172004,1.0.2,20251113-095759,773,Experiment,Both,1,Automatic,main,50,20260219-173041,global,local,300,H,H,E,E,H-E.png,E-H.png,hH,hH,mask-3.png,mask-1.png,h,1,2.681890400010161,s,0,0.03067060001194477,0.050284699886105955,0.048617899999953806,0.10034909995738417,0.09949189994949847,0.3016598999965936
RSVPLG03,km,20260219-172004,1.0.2,20251113-095759,773,Experiment,Both,1,Automatic,main,51,20260219-173049,local,local,300,S,H,A,E,A-S.png,E-H.png,sS,hH,mask-1.png,mask-3.png,s,1,1.4335880000144243,h,1,0.01374329999089241,0.04959120007697493,0.051542800036258996,0.09931080008391291,0.1003597000380978,0.29877980006858706
RSVPLG03,km,20260219-172004,1.0.2,20251113-095759,773,Experiment,Both,1,Automatic,main,52,20260219-173054,global,global,300,H,S,E,E,H-E.png,S-E.png,hH,sS,mask-4.png,mask-1.png,h,1,0.9184377000201494,s,1,0.07936329999938607,0.050066999974660575,0.050161799998022616,0.10047409997787327,0.1008969999384135,0.30013480002526194
RSVPLG03,km,20260219-172004,1.0.2,20251113-095759,773,Experiment,Both,1,Automatic,main,53,20260219-173059,global,local,300,S,H,A,E,S-A.png,E-H.png,sS,hH,mask-3.png,mask-3.png,s,1,1.0333640000317246,s,0,0.09497860004194081,0.050091100041754544,0.050514800008386374,0.09822870010975748,0.10030599997844547,0.30032590008340776
RSVPLG03,km,20260219-172004,1.0.2,20251113-095759,773,Experiment,Both,1,Automatic,main,54,20260219-173103,local,local,750,H,S,E,E,E-H.png,E-S.png,hH,sS,mask-3.png,mask-3.png,h,1,0.9149184999987483,s,1,0.04838910000398755,0.048495299997739494,0.05038160004187375,0.0995892999926582,0.1000670000212267,0.7503294999478385
RSVPLG03,km,20260219-172004,1.0.2,20251113-095759,773,Experiment,Both,1,Automatic,main,55,20260219-173109,local,global,300,H,S,E,A,E-H.png,S-A.png,hH,sS,mask-1.png,mask-1.png,h,1,1.7109502999810502,h,0,0.09475980000570416,0.04999349999707192,0.04919210006482899,0.10158030001912266,0.10066770005505532,0.30194989999290556
RSVPLG03,km,20260219-172004,1.0.2,20251113-095759,773,Experiment,Both,1,Automatic,main,56,20260219-173114,global,global,300,H,S,A,A,H-A.png,S-A.png,hH,sS,mask-1.png,mask-1.png,h,1,1.0978776999982074,s,1,0.06311760004609823,0.04948899999726564,0.050862699979916215,0.10129140003118664,0.10169689997565001,0.300044700037688
RSVPLG03,km,20260219-172004,1.0.2,20251113-095759,773,Experiment,Both,1,Automatic,main,57,20260219-173119,local,global,750,H,S,E,A,E-H.png,S-A.png,hH,sS,mask-4.png,mask-1.png,h,1,1.483111699926667,s,1,0.0795296001015231,0.05118950002361089,0.050288200029172,0.09921420004684478,0.1011898999568075,0.750635200063698
RSVPLG03,km,20260219-172004,1.0.2,20251113-095759,773,Experiment,Both,1,Automatic,main,58,20260219-173124,local,global,750,S,H,E,E,E-S.png,H-E.png,sS,hH,mask-1.png,mask-1.png,s,1,2.2172428000485525,s,0,0.09449619997758418,0.05003769998438656,0.049966500024311244,0.10077679995447397,0.10052890004590154,0.7513565999688581
RSVPLG03,km,20260219-172004,1.0.2,20251113-095759,773,Experiment,Both,1,Automatic,main,59,20260219-173131,global,local,300,H,H,A,E,H-A.png,E-H.png,hH,hH,mask-2.png,mask-4.png,h,1,0.8475454999133945,s,0,0.10958899999968708,0.05102739995345473,0.05054620001465082,0.09976010001264513,0.1001794000621885,0.30035599996335804
RSVPLG03,km,20260219-172004,1.0.2,20251113-095759,773,Experiment,Both,1,Automatic,main,60,20260219-173135,global,local,300,H,H,A,A,H-A.png,A-H.png,hH,hH,mask-1.png,mask-2.png,h,1,1.8950407999800518,s,0,0.09508180001284927,0.048962999950163066,0.049023799947462976,0.09811309992801398,0.09918370004743338,0.30112049996387213
RSVPLG03,km,20260219-172004,1.0.2,20251113-095759,773,Experiment,Both,1,Automatic,main,61,20260219-173141,local,global,300,S,S,A,A,A-S.png,S-A.png,sS,sS,mask-2.png,mask-3.png,s,1,1.4522280000383034,s,1,0.14201169996522367,0.048941200016997755,0.049569299910217524,0.09999190003145486,0.09837159991730005,0.30026650009676814
RSVPLG03,km,20260219-172004,1.0.2,20251113-095759,773,Experiment,Both,1,Automatic,main,62,20260219-173146,global,local,750,H,S,A,E,H-A.png,E-S.png,hH,sS,mask-2.png,mask-2.png,h,1,1.4538575999904424,h,0,0.10993020003661513,0.049957399955019355,0.05058200005441904,0.09876580000855029,0.10024470009375364,0.7507687999168411
RSVPLG03,km,20260219-172004,1.0.2,20251113-095759,773,Experiment,Both,1,Automatic,main,63,20260219-173152,global,global,750,S,S,E,A,S-E.png,S-A.png,sS,sS,mask-3.png,mask-2.png,s,1,1.2598046000348404,s,1,0.06298729998525232,0.0490779000101611,0.05183959996793419,0.10136259999126196,0.10115949995815754,0.7501246000174433
RSVPLG03,km,20260219-172004,1.0.2,20251113-095759,773,Experiment,Both,1,Automatic,main,64,20260219-173158,global,global,750,S,H,A,E,S-A.png,H-E.png,sS,hH,mask-1.png,mask-3.png,s,1,1.017119999974966,h,1,0.12763460003770888,0.0508026999887079,0.05045620002783835,0.10143819998484105,0.10060769994743168,0.7501597000518814
RSVPLG03,km,20260219-172004,1.0.2,20251113-095759,773,Experiment,Both,1,Automatic,main,65,20260219-173203,local,local,300,S,H,A,E,A-S.png,E-H.png,sS,hH,mask-2.png,mask-4.png,s,1,1.6649407000513747,h,1,1.808662600000389,0.05209949996788055,0.050933899939991534,0.10072360001504421,0.10024459997657686,0.3011418000096455
RSVPLG03,km,20260219-172004,1.0.2,20251113-095759,773,Experiment,Both,1,Automatic,main,66,20260219-173208,global,local,750,S,S,E,E,S-E.png,E-S.png,sS,sS,mask-4.png,mask-1.png,s,1,2.6887497999705374,h,0,2.8328092999290675,0.05055539996828884,0.05031730001792312,0.10042439994867891,0.09977239998988807,0.751397299929522
RSVPLG03,km,20260219-172004,1.0.2,20251113-095759,773,Experiment,Both,1,Automatic,main,67,20260219-173215,local,local,300,H,H,E,E,E-H.png,E-H.png,hH,hH,mask-1.png,mask-1.png,h,1,1.06827309995424,h,1,0.09747559996321797,0.051718899980187416,0.04957699996884912,0.10131549998186529,0.1003396000014618,0.30209589994046837
RSVPLG03,km,20260219-172004,1.0.2,20251113-095759,773,Experiment,Both,1,Automatic,main,68,20260219-173220,local,global,300,S,S,E,A,E-S.png,S-A.png,sS,sS,mask-4.png,mask-2.png,s,1,1.2436798999551684,h,0,0.061516699963249266,0.05093609995674342,0.05047629994805902,0.09986560000106692,0.10073579999152571,0.30073060002177954
RSVPLG03,km,20260219-172004,1.0.2,20251113-095759,773,Experiment,Both,1,Automatic,main,69,20260219-173225,local,global,300,S,S,A,A,A-S.png,S-A.png,sS,sS,mask-2.png,mask-2.png,s,1,1.1160335999447852,h,0,0.17815489997155964,0.04868400003761053,0.05126490001566708,0.09775710001122206,0.09977740002796054,0.2990169000113383
RSVPLG03,km,20260219-172004,1.0.2,20251113-095759,773,Experiment,Both,1,Automatic,main,70,20260219-173230,local,global,300,H,H,E,A,E-H.png,H-A.png,hH,hH,mask-4.png,mask-4.png,h,1,1.4811345000052825,s,0,0.03264519991353154,0.04969600006006658,0.04973710002377629,0.09888429997954518,0.09925640001893044,0.30048790003638715
RSVPLG03,km,20260219-172004,1.0.2,20251113-095759,773,Experiment,Both,1,Automatic,main,71,20260219-173235,global,global,750,H,S,A,E,H-A.png,S-E.png,hH,sS,mask-4.png,mask-2.png,h,1,1.2330721999751404,s,1,0.0790308000287041,0.04995639994740486,0.051814000005833805,0.09767399996053427,0.10130719991866499,0.7494829000206664
RSVPLG03,km,20260219-172004,1.0.2,20251113-095759,773,Experiment,Both,1,Automatic,main,72,20260219-173240,local,local,300,H,H,E,A,E-H.png,A-H.png,hH,hH,mask-2.png,mask-1.png,h,1,0.8750413999659941,h,1,0.0952091000508517,0.05091989994980395,0.05117460002657026,0.1009290999500081,0.10034050000831485,0.29991770000196993
RSVPLG03,km,20260219-172004,1.0.2,20251113-095759,773,Experiment,Both,1,Automatic,main,73,20260219-173245,global,local,750,S,S,A,E,S-A.png,E-S.png,sS,sS,mask-3.png,mask-1.png,s,1,0.8644223000155762,s,1,0.0663110000314191,0.0495533999055624,0.05222760001197457,0.10046769992914051,0.10128840000834316,0.7501707999035716
RSVPLG03,km,20260219-172004,1.0.2,20251113-095759,773,Experiment,Both,1,Automatic,main,74,20260219-173250,local,local,750,H,S,E,E,E-H.png,E-S.png,hH,sS,mask-2.png,mask-3.png,h,1,0.9869124999968335,s,1,0.046112300013192,0.05001629993785173,0.050259900046512485,0.10073959990404546,0.10052750003524125,0.7514456999488175
RSVPLG03,km,20260219-172004,1.0.2,20251113-095759,773,Experiment,Both,1,Automatic,main,75,20260219-173255,local,global,300,S,S,A,A,A-S.png,S-A.png,sS,sS,mask-4.png,mask-1.png,s,1,1.8564634999493137,h,0,0.03395740000996739,0.05179110006429255,0.049838699982501566,0.10061130009125918,0.09968039998784661,0.3018618000205606
RSVPLG03,km,20260219-172004,1.0.2,20251113-095759,773,Experiment,Both,1,Automatic,main,76,20260219-173302,local,global,750,H,S,E,A,E-H.png,S-A.png,hH,sS,mask-1.png,mask-1.png,h,1,0.9889995000557974,s,1,0.01435939990915358,0.04921289999037981,0.0497787999920547,0.09813719999510795,0.10065949999261647,0.7498024000087753
RSVPLG03,km,20260219-172004,1.0.2,20251113-095759,773,Experiment,Both,1,Automatic,main,77,20260219-173307,global,global,300,S,H,A,A,S-A.png,H-A.png,sS,hH,mask-2.png,mask-2.png,s,1,1.0922524000052363,h,1,1.236517300014384,0.050110199954360723,0.05135409999638796,0.10059639997780323,0.1007052999921143,0.2996385999722406
RSVPLG03,km,20260219-172004,1.0.2,20251113-095759,773,Experiment,Both,1,Automatic,main,78,20260219-173312,local,local,750,S,S,E,E,E-S.png,E-S.png,sS,sS,mask-3.png,mask-4.png,s,1,0.9952788999071345,s,1,0.04702649998944253,0.04994449997320771,0.04741130000911653,0.10073900001589209,0.09810810000635684,0.7525963999796659
RSVPLG03,km,20260219-172004,1.0.2,20251113-095759,773,Experiment,Both,1,Automatic,main,79,20260219-173317,local,global,750,S,H,E,E,E-S.png,H-E.png,sS,hH,mask-3.png,mask-4.png,s,1,0.8760084999958053,h,1,0.0627791000297293,0.04934170003980398,0.05007919995114207,0.10035660001449287,0.10118649993091822,0.7508062000852078
RSVPLG03,km,20260219-172004,1.0.2,20251113-095759,773,Experiment,Both,1,Automatic,main,80,20260219-173323,global,global,750,S,H,A,E,S-A.png,H-E.png,sS,hH,mask-1.png,mask-1.png,s,1,0.5950451000826433,h,1,0.015083399950526655,0.04938960005529225,0.05070250004064292,0.10100810008589178,0.0985841000219807,0.7517309000249952
RSVPLG03,km,20260219-172004,1.0.2,20251113-095759,773,Experiment,Both,1,Automatic,main,81,20260219-173327,local,global,300,S,S,A,E,A-S.png,S-E.png,sS,sS,mask-1.png,mask-2.png,s,1,1.4784757000161335,h,0,0.01625159999821335,0.048353200079873204,0.048695300007238984,0.10006540000904351,0.09964969998691231,0.30070230003912
RSVPLG03,km,20260219-172004,1.0.2,20251113-095759,773,Experiment,Both,1,Automatic,main,82,20260219-173333,local,local,300,S,H,A,E,A-S.png,E-H.png,sS,hH,mask-3.png,mask-2.png,s,1,2.3009146000258625,h,1,0.031528999912552536,0.05158069997560233,0.04975660005584359,0.1011545000365004,0.10159850004129112,0.30019580002408475
RSVPLG03,km,20260219-172004,1.0.2,20251113-095759,773,Experiment,Both,1,Automatic,main,83,20260219-173339,local,local,300,S,H,E,A,E-S.png,A-H.png,sS,hH,mask-1.png,mask-4.png,s,1,0.5669688999187201,h,1,0.7270897999405861,0.04953020007815212,0.04906739993020892,0.10104640002828091,0.09914519998710603,0.3007214000681415
RSVPLG03,km,20260219-172004,1.0.2,20251113-095759,773,Experiment,Both,1,Automatic,main,84,20260219-173343,global,global,300,H,S,A,E,H-A.png,S-E.png,hH,sS,mask-3.png,mask-1.png,h,1,0.6378775000339374,s,1,0.0339822000823915,0.04966910008806735,0.05051410000305623,0.09997189999558032,0.10125019995030016,0.3006271000485867
RSVPLG03,km,20260219-172004,1.0.2,20251113-095759,773,Experiment,Both,1,Automatic,main,85,20260219-173347,global,global,750,S,S,A,E,S-A.png,S-E.png,sS,sS,mask-2.png,mask-4.png,s,1,0.6782888000598177,s,1,0.06348730006720871,0.048838499933481216,0.050627500051632524,0.10034550004638731,0.1009679000126198,0.7507002999773249
RSVPLG03,km,20260219-172004,1.0.2,20251113-095759,773,Experiment,Both,1,Automatic,main,86,20260219-173352,global,local,750,H,H,A,E,H-A.png,E-H.png,hH,hH,mask-1.png,mask-2.png,h,1,0.5353391000535339,h,1,0.09815829992294312,0.049717399990186095,0.05115399998612702,0.09863610006868839,0.09925850003492087,0.7510613000486046
RSVPLG03,km,20260219-172004,1.0.2,20251113-095759,773,Experiment,Both,1,Automatic,main,87,20260219-173357,local,global,750,H,S,A,A,A-H.png,S-A.png,hH,sS,mask-4.png,mask-3.png,h,1,0.506791100022383,s,1,0.6352718999842182,0.048921699984930456,0.05103070009499788,0.09876950003672391,0.10123070003464818,0.7507736999541521
RSVPLG03,km,20260219-172004,1.0.2,20251113-095759,773,Experiment,Both,1,Automatic,main,88,20260219-173402,global,global,300,H,H,E,E,H-E.png,H-E.png,hH,hH,mask-1.png,mask-4.png,h,1,1.1307347000110894,h,1,0.08058309997431934,0.049954399932175875,0.04979349998757243,0.09989770001266152,0.0993862000759691,0.30120899993926287
RSVPLG03,km,20260219-172004,1.0.2,20251113-095759,773,Experiment,Both,1,Automatic,main,89,20260219-173406,local,local,750,S,H,A,A,A-S.png,A-H.png,sS,hH,mask-2.png,mask-4.png,h,0,2.0052239999640733,h,1,0.111014400026761,0.04866299999412149,0.05130240006837994,0.09838799992576241,0.10108220006804913,0.749578999937512
RSVPLG03,km,20260219-172004,1.0.2,20251113-095759,773,Experiment,Both,1,Automatic,main,90,20260219-173412,global,local,750,S,S,A,A,S-A.png,A-S.png,sS,sS,mask-1.png,mask-1.png,s,1,0.6515394999878481,s,1,0.06345150002744049,0.05019810004159808,0.050877499976195395,0.10139710002113134,0.10204480006359518,0.7515277999918908
RSVPLG03,km,20260219-172004,1.0.2,20251113-095759,773,Experiment,Both,1,Automatic,main,91,20260219-173417,global,local,750,H,H,E,A,H-E.png,A-H.png,hH,hH,mask-1.png,mask-3.png,h,1,0.9307240999769419,h,1,0.0934662000508979,0.051114800036884844,0.04944110009819269,0.10021319997031242,0.09948550001718104,0.7517658999422565
RSVPLG03,km,20260219-172004,1.0.2,20251113-095759,773,Experiment,Both,1,Automatic,main,92,20260219-173422,local,local,300,H,H,E,A,E-H.png,A-H.png,hH,hH,mask-3.png,mask-1.png,h,1,1.5784452999942005,s,0,1.6905105999903753,0.04866949992720038,0.047807800001464784,0.09815350000280887,0.09871930000372231,0.3005835999501869
RSVPLG03,km,20260219-172004,1.0.2,20251113-095759,773,Experiment,Both,1,Automatic,main,93,20260219-173428,local,local,750,S,H,A,A,A-S.png,A-H.png,sS,hH,mask-1.png,mask-3.png,s,1,1.673936799983494,h,1,1.8020422999979928,0.049692300031892955,0.051929399953223765,0.09946190007030964,0.10098889993969351,0.7496410000603646
RSVPLG03,km,20260219-172004,1.0.2,20251113-095759,773,Experiment,Both,1,Automatic,main,94,20260219-173433,local,global,750,H,S,E,A,E-H.png,S-A.png,hH,sS,mask-3.png,mask-3.png,h,1,1.1076857999432832,h,0,0.09463609999511391,0.05002209998201579,0.048757500015199184,0.1013632999965921,0.10119900002609938,0.7522534999297932
RSVPLG03,km,20260219-172004,1.0.2,20251113-095759,773,Experiment,Both,1,Automatic,main,95,20260219-173439,global,local,300,S,S,A,A,S-A.png,A-S.png,sS,sS,mask-3.png,mask-2.png,s,1,0.8421333000296727,h,0,0.8464932000497356,0.05006219993811101,0.05073590006213635,0.10020859993528575,0.10155730007681996,0.29879139992408454
RSVPLG03,km,20260219-172004,1.0.2,20251113-095759,773,Experiment,Both,1,Automatic,main,96,20260219-173444,local,global,750,S,H,A,E,A-S.png,H-E.png,sS,hH,mask-3.png,mask-1.png,s,1,0.9155518999323249,h,1,0.09579710010439157,0.04862750007305294,0.049612400005571544,0.09846510004717857,0.10008540004491806,0.750505100004375
RSVPLG03,km,20260219-172004,1.0.2,20251113-095759,773,Experiment,Both,1,Automatic,main,97,20260219-173449,local,global,300,S,S,E,E,E-S.png,S-E.png,sS,sS,mask-2.png,mask-2.png,s,1,1.6488988000201061,h,0,0.41591850004624575,0.05002899991814047,0.04901019996032119,0.1001962999580428,0.09944769996218383,0.3016226999461651
RSVPLG03,km,20260219-172004,1.0.2,20251113-095759,773,Experiment,Both,1,Automatic,main,98,20260219-173455,local,local,750,S,S,E,E,E-S.png,E-S.png,sS,sS,mask-2.png,mask-1.png,s,1,0.4685251999180764,s,1,0.11328569997567683,0.05074550001882017,0.05014630011282861,0.10024459997657686,0.10030110005754977,0.7508620999287814
RSVPLG03,km,20260219-172004,1.0.2,20251113-095759,773,Experiment,Both,1,Automatic,main,99,20260219-173500,global,local,750,H,H,A,E,H-A.png,E-H.png,hH,hH,mask-3.png,mask-3.png,h,1,1.0272844000719488,s,0,0.6096573999384418,0.04957849998027086,0.04903720004949719,0.09942039998713881,0.09966190007980913,0.7504666999448091
RSVPLG03,km,20260219-172004,1.0.2,20251113-095759,773,Experiment,Both,1,Automatic,main,100,20260219-173506,local,global,750,H,H,E,A,E-H.png,H-A.png,hH,hH,mask-2.png,mask-2.png,h,1,1.974183400045149,s,0,0.20893230009824038,0.05039420002140105,0.049111400032415986,0.09994420001748949,0.09836709999945015,0.7518092000391334
RSVPLG03,km,20260219-173608,1.0.2,20251113-095759,773,Experiment,Both,1,Automatic,warmup,1,20260219-173853,local,local,300,H,S,E,A,E-H.png,A-S.png,hH,sS,mask-4.png,mask-4.png,h,1,0.7228899999754503,s,1,0.8510802999371663,0.04442279995419085,0.0486386000411585,0.09534629993140697,0.09888609999325126,0.29530479991808534
RSVPLG03,km,20260219-173608,1.0.2,20251113-095759,773,Experiment,Both,1,Automatic,warmup,2,20260219-173858,global,local,300,S,H,E,A,S-E.png,A-H.png,sS,hH,mask-2.png,mask-4.png,s,1,0.6783795999363065,h,1,0.7906659999862313,0.049151599989272654,0.04948140005581081,0.0995376999489963,0.09976250003091991,0.2997407999355346
RSVPLG03,km,20260219-173608,1.0.2,20251113-095759,773,Experiment,Both,1,Automatic,warmup,3,20260219-173902,global,global,750,S,S,A,A,S-A.png,S-A.png,sS,sS,mask-4.png,mask-1.png,s,1,0.737908500013873,s,1,0.09491220000199974,0.05019990005530417,0.05135039996821433,0.10150039999280125,0.10183389997109771,0.7500183000229299
RSVPLG03,km,20260219-173608,1.0.2,20251113-095759,773,Experiment,Both,1,Automatic,warmup,4,20260219-173907,local,global,750,S,H,A,A,A-S.png,H-A.png,sS,hH,mask-4.png,mask-1.png,s,1,1.3879727999446914,h,1,0.04962950001936406,0.049335299991071224,0.05178780003916472,0.10026340000331402,0.10036679997574538,0.7486714000115171
RSVPLG03,km,20260219-173608,1.0.2,20251113-095759,773,Experiment,Both,1,Automatic,main,5,20260219-173913,global,local,750,H,S,A,E,H-A.png,E-S.png,hH,sS,mask-3.png,mask-1.png,h,1,0.9512203000485897,s,1,0.11023309989832342,0.04762440000195056,0.05019129998981953,0.09969639999326319,0.1012085999827832,0.7489363999338821
RSVPLG03,km,20260219-173608,1.0.2,20251113-095759,773,Experiment,Both,1,Automatic,main,6,20260219-173918,global,local,750,H,H,A,E,H-A.png,E-H.png,hH,hH,mask-3.png,mask-4.png,h,1,2.1814150999998674,s,0,0.031558900023810565,0.0497791999951005,0.04957259993534535,0.10033679998014122,0.09937690000515431,0.7517452000174671
RSVPLG03,km,20260219-173608,1.0.2,20251113-095759,773,Experiment,Both,1,Automatic,main,7,20260219-173924,local,local,750,H,H,E,A,E-H.png,A-H.png,hH,hH,mask-1.png,mask-2.png,h,1,0.8041597999399528,h,1,0.09398550004698336,0.049162100069224834,0.050948599935509264,0.1001365000847727,0.10102760000154376,0.7507556000491604
RSVPLG03,km,20260219-173608,1.0.2,20251113-095759,773,Experiment,Both,1,Automatic,main,8,20260219-173929,global,global,300,S,S,E,A,S-E.png,S-A.png,sS,sS,mask-4.png,mask-1.png,s,1,0.6384301000507548,s,1,0.06375650002155453,0.05012600007466972,0.04971499997191131,0.09989380009938031,0.09961639996618032,0.2994675000663847
RSVPLG03,km,20260219-173608,1.0.2,20251113-095759,773,Experiment,Both,1,Automatic,main,9,20260219-173933,local,global,750,H,H,A,E,A-H.png,H-E.png,hH,hH,mask-4.png,mask-2.png,h,1,2.7160125999944285,s,0,0.5581831999588758,0.0501259999582544,0.05051650002133101,0.09997069998644292,0.10127859993372113,0.7488035999704152
RSVPLG03,km,20260219-173608,1.0.2,20251113-095759,773,Experiment,Both,1,Automatic,main,10,20260219-173941,local,global,300,H,H,E,A,E-H.png,H-A.png,hH,hH,mask-1.png,mask-3.png,h,1,1.760837999987416,s,0,0.016203899984247983,0.05001739994622767,0.04917270003352314,0.09948089998215437,0.10084260010626167,0.2998923999257386
RSVPLG03,km,20260219-173608,1.0.2,20251113-095759,773,Experiment,Both,1,Automatic,main,11,20260219-173946,local,local,750,S,H,E,E,E-S.png,E-H.png,sS,hH,mask-1.png,mask-1.png,s,1,0.7883855000836775,h,1,0.9163685999810696,0.050685100024566054,0.04935330001171678,0.09846870007459074,0.10011270001996309,0.7501497999764979
RSVPLG03,km,20260219-173608,1.0.2,20251113-095759,773,Experiment,Both,1,Automatic,main,12,20260219-173951,local,global,750,S,H,A,A,A-S.png,H-A.png,sS,hH,mask-4.png,mask-2.png,s,1,0.8522401000373065,h,1,0.9483572000171989,0.05042589991353452,0.05050060001667589,0.10031569993589073,0.09918640006799251,0.7491499999305233
RSVPLG03,km,20260219-173608,1.0.2,20251113-095759,773,Experiment,Both,1,Automatic,main,13,20260219-173956,local,global,750,H,S,E,A,E-H.png,S-A.png,hH,sS,mask-4.png,mask-3.png,s,0,1.6413516000611708,h,0,0.0342977000400424,0.050256700022146106,0.050755999982357025,0.0994100000243634,0.10023480001837015,0.749795800074935
RSVPLG03,km,20260219-173608,1.0.2,20251113-095759,773,Experiment,Both,1,Automatic,main,14,20260219-174002,global,global,300,H,S,A,E,H-A.png,S-E.png,hH,sS,mask-1.png,mask-3.png,s,0,2.0264313999796286,h,0,2.1382703999988735,0.05045459989923984,0.04807080002501607,0.10068139992654324,0.09877289994619787,0.30212899995967746
RSVPLG03,km,20260219-173608,1.0.2,20251113-095759,773,Experiment,Both,1,Automatic,main,15,20260219-174008,local,local,300,H,S,E,E,E-H.png,E-S.png,hH,sS,mask-3.png,mask-1.png,h,1,1.059685500105843,s,1,0.031550300074741244,0.05041879997588694,0.05075259995646775,0.10174149996601045,0.10045110003557056,0.3003764000022784
RSVPLG03,km,20260219-173608,1.0.2,20251113-095759,773,Experiment,Both,1,Automatic,main,16,20260219-174013,local,local,750,S,S,E,A,E-S.png,A-S.png,sS,sS,mask-2.png,mask-2.png,s,1,0.7981871999800205,s,1,0.050231800065375865,0.04945779999252409,0.049990199971944094,0.0994329999666661,0.09906180005054921,0.7500771000050008
RSVPLG03,km,20260219-173608,1.0.2,20251113-095759,773,Experiment,Both,1,Automatic,main,17,20260219-174018,local,local,750,S,S,E,A,E-S.png,A-S.png,sS,sS,mask-4.png,mask-4.png,s,1,0.9717844999395311,s,1,0.07950509991496801,0.05115690000820905,0.05079189990647137,0.10095079999882728,0.1017299999948591,0.75017170002684
RSVPLG03,km,20260219-173608,1.0.2,20251113-095759,773,Experiment,Both,1,Automatic,main,18,20260219-174023,local,global,750,H,H,E,A,E-H.png,H-A.png,hH,hH,mask-3.png,mask-3.png,h,1,1.132147099939175,s,0,1.259747099946253,0.05134650005493313,0.05039539991412312,0.10062849998939782,0.10143109993077815,0.7504364000633359
RSVPLG03,km,20260219-173608,1.0.2,20251113-095759,773,Experiment,Both,1,Automatic,main,19,20260219-174028,global,global,750,S,H,E,A,S-E.png,H-A.png,sS,hH,mask-2.png,mask-2.png,h,0,2.413827299955301,h,1,0.11082709999755025,0.049062500009313226,0.05001050001010299,0.09726619999855757,0.10036449995823205,0.7486691999947652
RSVPLG03,km,20260219-173608,1.0.2,20251113-095759,773,Experiment,Both,1,Automatic,main,20,20260219-174035,local,local,300,S,H,A,E,A-S.png,E-H.png,sS,hH,mask-1.png,mask-2.png,s,1,1.1571644999785349,h,1,1.269126099999994,0.04990220000036061,0.04860720003489405,0.10039700008928776,0.10010879999026656,0.2997139000799507
RSVPLG03,km,20260219-173608,1.0.2,20251113-095759,773,Experiment,Both,1,Automatic,main,21,20260219-174039,global,local,300,S,H,A,E,S-A.png,E-H.png,sS,hH,mask-2.png,mask-3.png,s,1,2.4071129000512883,s,0,0.07953690004069358,0.049392999964766204,0.0496043999446556,0.10014869994483888,0.09940859989728779,0.3011410000035539
RSVPLG03,km,20260219-173608,1.0.2,20251113-095759,773,Experiment,Both,1,Automatic,main,22,20260219-174046,global,local,300,S,S,A,A,S-A.png,A-S.png,sS,sS,mask-4.png,mask-2.png,s,1,1.1561607000185177,h,0,0.00025289994664490223,0.05001579993404448,0.051816699909977615,0.10068099992349744,0.09984469995833933,0.2991673999931663
RSVPLG03,km,20260219-173608,1.0.2,20251113-095759,773,Experiment,Both,1,Automatic,main,23,20260219-174051,local,local,750,S,S,A,A,A-S.png,A-S.png,sS,sS,mask-3.png,mask-1.png,s,1,0.7666578000644222,s,1,0.0948670000070706,0.04943080001976341,0.048773800022900105,0.09977279999293387,0.099527099984698,0.7514491999754682
RSVPLG03,km,20260219-173608,1.0.2,20251113-095759,773,Experiment,Both,1,Automatic,main,24,20260219-174055,local,global,300,H,H,A,E,A-H.png,H-E.png,hH,hH,mask-4.png,mask-4.png,h,1,2.667427000007592,h,1,0.0820417000213638,0.049382500001229346,0.05089950002729893,0.09951159998308867,0.10015680000651628,0.29982319998089224
RSVPLG03,km,20260219-173608,1.0.2,20251113-095759,773,Experiment,Both,1,Automatic,main,25,20260219-174102,local,global,300,H,H,E,A,E-H.png,H-A.png,hH,hH,mask-2.png,mask-1.png,h,1,2.238892100052908,s,0,0.029413299984298646,0.049024200066924095,0.05033420003019273,0.10015830001793802,0.09984329994767904,0.2983209000667557
RSVPLG03,km,20260219-173608,1.0.2,20251113-095759,773,Experiment,Both,1,Automatic,main,26,20260219-174109,local,global,750,S,S,A,E,A-S.png,S-E.png,sS,sS,mask-1.png,mask-4.png,s,1,1.2874560999916866,s,1,0.06133840000256896,0.049760199966840446,0.05128150002565235,0.10016350005753338,0.10202500002924353,0.74874449998606
RSVPLG03,km,20260219-173608,1.0.2,20251113-095759,773,Experiment,Both,1,Automatic,main,27,20260219-174115,global,global,300,H,H,A,A,H-A.png,H-A.png,hH,hH,mask-1.png,mask-2.png,h,1,0.7689623000333086,h,1,0.08175100001972169,0.048690699972212315,0.04964579991064966,0.10017160000279546,0.10023359989281744,0.29906480002682656
RSVPLG03,km,20260219-173608,1.0.2,20251113-095759,773,Experiment,Both,1,Automatic,main,28,20260219-174119,global,local,750,S,S,E,A,S-E.png,A-S.png,sS,sS,mask-1.png,mask-2.png,s,1,0.9886963999597356,h,0,0.0014528000028803945,0.04874050000216812,0.05038390005938709,0.0989191000116989,0.10106550005730242,0.7479258999228477
RSVPLG03,km,20260219-173608,1.0.2,20251113-095759,773,Experiment,Both,1,Automatic,main,29,20260219-174124,local,local,750,H,H,E,E,E-H.png,E-H.png,hH,hH,mask-3.png,mask-4.png,h,1,0.9850009999936447,h,1,0.09500939992722124,0.049523300025612116,0.04966310004238039,0.1006004000082612,0.0985332999844104,0.7511749999830499
RSVPLG03,km,20260219-173608,1.0.2,20251113-095759,773,Experiment,Both,1,Automatic,main,30,20260219-174129,local,global,750,S,H,E,E,E-S.png,H-E.png,sS,hH,mask-1.png,mask-3.png,s,1,3.297294299933128,h,1,3.4252901999279857,0.04870939999818802,0.04948170005809516,0.09849199990276247,0.10070470010396093,0.7489007998956367
RSVPLG03,km,20260219-173608,1.0.2,20251113-095759,773,Experiment,Both,1,Automatic,main,31,20260219-174137,global,local,300,S,S,E,A,S-E.png,A-S.png,sS,sS,mask-4.png,mask-2.png,s,1,1.8046724000014365,h,0,1.9328649999806657,0.050154800061136484,0.049784400034695864,0.10046930005773902,0.10097900009714067,0.29972989996895194
RSVPLG03,km,20260219-173608,1.0.2,20251113-095759,773,Experiment,Both,1,Automatic,main,32,20260219-174142,global,global,750,S,H,E,E,S-E.png,H-E.png,sS,hH,mask-4.png,mask-2.png,s,1,1.1707598000066355,h,1,1.2667870000004768,0.049704300006851554,0.04895850003231317,0.09868529997766018,0.09896149998530746,0.7508998999837786
RSVPLG03,km,20260219-173608,1.0.2,20251113-095759,773,Experiment,Both,1,Automatic,main,33,20260219-174147,local,local,300,H,H,E,A,E-H.png,A-H.png,hH,hH,mask-2.png,mask-1.png,h,1,1.4621063000522554,s,0,0.029728100053034723,0.049726399942301214,0.049924900056794286,0.09971219999715686,0.10103260003961623,0.2994041999336332
RSVPLG03,km,20260219-173608,1.0.2,20251113-095759,773,Experiment,Both,1,Automatic,main,34,20260219-174152,global,global,750,H,H,A,E,H-A.png,H-E.png,hH,hH,mask-1.png,mask-4.png,h,1,0.6442997999256477,h,1,0.0976974000222981,0.050825900048948824,0.050705499947071075,0.09929750009905547,0.10124799993354827,0.7497030000668019
RSVPLG03,km,20260219-173608,1.0.2,20251113-095759,773,Experiment,Both,1,Automatic,main,35,20260219-174157,local,local,300,S,H,E,E,E-S.png,E-H.png,sS,hH,mask-1.png,mask-2.png,s,1,0.8856523000868037,h,1,0.9975986999925226,0.049294000025838614,0.05138520000036806,0.0980545999482274,0.10080620006192476,0.2985341999446973
RSVPLG03,km,20260219-173608,1.0.2,20251113-095759,773,Experiment,Both,1,Automatic,main,36,20260219-174202,local,local,750,H,H,E,A,E-H.png,A-H.png,hH,hH,mask-3.png,mask-3.png,h,1,1.3105084999697283,h,1,0.11442389991134405,0.05023389996495098,0.0510828000260517,0.09983590000774711,0.10082569997757673,0.7496057000244036
RSVPLG03,km,20260219-173608,1.0.2,20251113-095759,773,Experiment,Both,1,Automatic,main,37,20260219-174207,local,global,300,S,H,A,A,A-S.png,H-A.png,sS,hH,mask-2.png,mask-3.png,s,1,1.8616384000051767,h,1,1.9573989000637084,0.04971940000541508,0.050224000005982816,0.10124519991222769,0.10089689993765205,0.3004046999849379
RSVPLG03,km,20260219-173608,1.0.2,20251113-095759,773,Experiment,Both,1,Automatic,main,38,20260219-174213,global,local,300,S,S,E,E,S-E.png,E-S.png,sS,sS,mask-2.png,mask-3.png,s,1,0.871466499986127,s,1,0.06257040007039905,0.04872510000132024,0.048994700075127184,0.09812320000492036,0.09997880004812032,0.29966649995185435
RSVPLG03,km,20260219-173608,1.0.2,20251113-095759,773,Experiment,Both,1,Automatic,main,39,20260219-174217,local,global,750,H,H,E,E,E-H.png,H-E.png,hH,hH,mask-3.png,mask-4.png,h,1,1.1673713000491261,s,0,0.015096900053322315,0.04980139993131161,0.04976839991286397,0.1001773999305442,0.099059599917382,0.7501359999878332
RSVPLG03,km,20260219-173608,1.0.2,20251113-095759,773,Experiment,Both,1,Automatic,main,40,20260219-174223,global,global,300,S,S,E,E,S-E.png,S-E.png,sS,sS,mask-1.png,mask-4.png,s,1,1.7874081999761984,s,1,0.0618539999704808,0.05091270001139492,0.04990069998893887,0.09919780003838241,0.09919139998964965,0.3010647000046447
RSVPLG03,km,20260219-173608,1.0.2,20251113-095759,773,Experiment,Both,1,Automatic,main,41,20260219-174228,local,local,300,S,H,A,A,A-S.png,A-H.png,sS,hH,mask-2.png,mask-3.png,s,1,2.109347500023432,h,1,-5.4600066505372524e-05,0.048873300082050264,0.04970049997791648,0.10041900002397597,0.09962520003318787,0.3008728000568226
RSVPLG03,km,20260219-173608,1.0.2,20251113-095759,773,Experiment,Both,1,Automatic,main,42,20260219-174234,global,global,750,H,S,A,E,H-A.png,S-E.png,hH,sS,mask-2.png,mask-4.png,h,1,1.6467883000150323,s,1,0.04574889992363751,0.049586999928578734,0.050112999975681305,0.10031350003555417,0.09965970006305724,0.7509268999565393
RSVPLG03,km,20260219-173608,1.0.2,20251113-095759,773,Experiment,Both,1,Automatic,main,43,20260219-174240,global,local,300,H,H,E,E,H-E.png,E-H.png,hH,hH,mask-4.png,mask-4.png,s,0,2.624010800034739,h,1,0.030881899991072714,0.05105180002283305,0.048659299965947866,0.10054270003456622,0.09929959999863058,0.30175169999711215
RSVPLG03,km,20260219-173608,1.0.2,20251113-095759,773,Experiment,Both,1,Automatic,main,44,20260219-174246,local,global,750,H,H,A,E,A-H.png,H-E.png,hH,hH,mask-1.png,mask-3.png,h,1,1.0104671999579296,s,0,0.014535399968735874,0.04859079991001636,0.04998289991635829,0.09850249998271465,0.10188370000105351,0.748803999973461
RSVPLG03,km,20260219-173608,1.0.2,20251113-095759,773,Experiment,Both,1,Automatic,main,45,20260219-174251,local,global,300,S,H,E,A,E-S.png,H-A.png,sS,hH,mask-1.png,mask-1.png,s,1,1.2593511999584734,h,1,1.405667299986817,0.051499599940143526,0.049635799950920045,0.10125529998913407,0.10136159998364747,0.30077960004564375
RSVPLG03,km,20260219-173608,1.0.2,20251113-095759,773,Experiment,Both,1,Automatic,main,46,20260219-174258,global,global,750,H,S,E,E,H-E.png,S-E.png,hH,sS,mask-3.png,mask-3.png,h,1,1.0563303999369964,s,1,0.05020999989937991,0.04964860004838556,0.049681900069117546,0.10006670001894236,0.09910210000816733,0.7506427000043914
RSVPLG03,km,20260219-173608,1.0.2,20251113-095759,773,Experiment,Both,1,Automatic,main,47,20260219-174303,global,global,750,H,S,E,A,H-E.png,S-A.png,hH,sS,mask-3.png,mask-1.png,h,1,0.7252497000154108,s,1,0.07843589992262423,0.0507787000387907,0.04889410000760108,0.10038390010595322,0.09970889997202903,0.7510610000463203
RSVPLG03,km,20260219-173608,1.0.2,20251113-095759,773,Experiment,Both,1,Automatic,main,48,20260219-174308,global,global,300,H,S,A,A,H-A.png,S-A.png,hH,sS,mask-3.png,mask-2.png,h,1,0.910020099952817,s,1,0.06280830001924187,0.0494328000349924,0.04855770000722259,0.09934559999965131,0.10021449998021126,0.3004814999876544
RSVPLG03,km,20260219-173608,1.0.2,20251113-095759,773,Experiment,Both,1,Automatic,main,49,20260219-174312,global,local,750,S,S,A,A,S-A.png,A-S.png,sS,sS,mask-1.png,mask-2.png,s,1,2.4621774998959154,h,0,0.0024072000524029136,0.050745299900881946,0.049977199989371,0.09955629997421056,0.10000279999803752,0.7504379999591038
RSVPLG03,km,20260219-173608,1.0.2,20251113-095759,773,Experiment,Both,1,Automatic,main,50,20260219-174319,local,global,750,H,H,A,A,A-H.png,H-A.png,hH,hH,mask-1.png,mask-3.png,h,1,1.0690479000331834,h,1,0.08265120000578463,0.049318699981085956,0.04830869997385889,0.10070499998982996,0.09818679990712553,0.7512741000391543
RSVPLG03,km,20260219-173608,1.0.2,20251113-095759,773,Experiment,Both,1,Automatic,main,51,20260219-174326,global,global,300,H,H,E,A,H-E.png,H-A.png,hH,hH,mask-3.png,mask-2.png,h,1,0.9267316000768915,h,1,0.11166519997641444,0.049902800004929304,0.04975829995237291,0.10072819993365556,0.10031779995188117,0.30046289996244013
RSVPLG03,km,20260219-173608,1.0.2,20251113-095759,773,Experiment,Both,1,Automatic,main,52,20260219-174331,global,local,300,S,S,E,A,S-E.png,A-S.png,sS,sS,mask-1.png,mask-3.png,s,1,1.4181238999590278,h,0,0.06672210001852363,0.04868869995698333,0.04855209996458143,0.10073129995726049,0.0992110000224784,0.3008327999850735
RSVPLG03,km,20260219-173608,1.0.2,20251113-095759,773,Experiment,Both,1,Automatic,main,53,20260219-174336,global,local,300,H,H,E,A,H-E.png,A-H.png,hH,hH,mask-1.png,mask-4.png,h,1,5.414786499924958,s,0,1.005312200053595,0.050206299987621605,0.04888989997562021,0.10014859994407743,0.09994519990868866,0.3002998000010848
RSVPLG03,km,20260219-173608,1.0.2,20251113-095759,773,Experiment,Both,1,Automatic,main,54,20260219-174346,global,global,750,S,S,E,A,S-E.png,S-A.png,sS,sS,mask-1.png,mask-4.png,s,1,0.9350963999750093,s,1,0.04833399993367493,0.04890039993915707,0.05040159996133298,0.09992950002197176,0.09990799997467548,0.7494514000136405
RSVPLG03,km,20260219-173608,1.0.2,20251113-095759,773,Experiment,Both,1,Automatic,main,55,20260219-174351,local,global,300,H,H,E,A,E-H.png,H-A.png,hH,hH,mask-3.png,mask-2.png,h,1,1.0676161999581382,s,0,1.2432664999505505,0.0492726000957191,0.05006380006670952,0.09904180001467466,0.09905670001171529,0.3002418000251055
RSVPLG03,km,20260219-173608,1.0.2,20251113-095759,773,Experiment,Both,1,Automatic,main,56,20260219-174356,local,global,300,S,S,E,E,E-S.png,S-E.png,sS,sS,mask-1.png,mask-3.png,s,1,0.9264125999761745,s,1,0.06698310002684593,0.049752900027669966,0.04960390005726367,0.09978560009039938,0.09841890004463494,0.30111140001099557
RSVPLG03,km,20260219-173608,1.0.2,20251113-095759,773,Experiment,Both,1,Automatic,main,57,20260219-174401,global,local,300,H,H,A,E,H-A.png,E-H.png,hH,hH,mask-1.png,mask-4.png,h,1,1.8873839000007138,h,1,0.04577229998540133,0.04896649997681379,0.04958089999854565,0.09785239992197603,0.09943800000473857,0.2998092999914661
RSVPLG03,km,20260219-173608,1.0.2,20251113-095759,773,Experiment,Both,1,Automatic,main,58,20260219-174406,local,global,300,H,H,A,E,A-H.png,H-E.png,hH,hH,mask-3.png,mask-2.png,h,1,0.9931871000444517,s,0,1.1531866000732407,0.05003230005968362,0.04971529997419566,0.09880459995474666,0.09992880001664162,0.29930239997338504
RSVPLG03,km,20260219-173608,1.0.2,20251113-095759,773,Experiment,Both,1,Automatic,main,59,20260219-174411,global,global,750,H,H,A,E,H-A.png,H-E.png,hH,hH,mask-4.png,mask-2.png,h,1,0.8500432999571785,h,1,0.1064094000030309,0.04957340005785227,0.04881089995615184,0.10066620004363358,0.09932090004440397,0.7502780000213534
RSVPLG03,km,20260219-173608,1.0.2,20251113-095759,773,Experiment,Both,1,Automatic,main,60,20260219-174416,global,local,300,H,H,E,E,H-E.png,E-H.png,hH,hH,mask-4.png,mask-3.png,h,1,0.8724529999308288,s,0,0.013658800045959651,0.05022299999836832,0.04941340000368655,0.09900909999851137,0.0985759999603033,0.30072820000350475
RSVPLG03,km,20260219-173608,1.0.2,20251113-095759,773,Experiment,Both,1,Automatic,main,61,20260219-174421,global,global,300,S,S,A,E,S-A.png,S-E.png,sS,sS,mask-2.png,mask-4.png,s,1,0.7836877999361604,s,1,0.04872590000741184,0.049846400041133165,0.04920979996677488,0.09835910005494952,0.09849789994768798,0.3001005999976769
RSVPLG03,km,20260219-173608,1.0.2,20251113-095759,773,Experiment,Both,1,Automatic,main,62,20260219-174425,global,local,300,H,H,E,E,H-E.png,E-H.png,hH,hH,mask-3.png,mask-4.png,h,1,1.1177122999215499,s,0,0.015584900043904781,0.05065320001449436,0.049115899950265884,0.09974059998057783,0.09963609999977052,0.30043970001861453
RSVPLG03,km,20260219-173608,1.0.2,20251113-095759,773,Experiment,Both,1,Automatic,main,63,20260219-174430,global,local,750,S,H,A,A,S-A.png,A-H.png,sS,hH,mask-3.png,mask-1.png,s,1,1.1410738000413403,s,0,0.03036380000412464,0.05033269990235567,0.05038180004339665,0.10083389992360026,0.09953690005932003,0.7513533999444917
RSVPLG03,km,20260219-173608,1.0.2,20251113-095759,773,Experiment,Both,1,Automatic,main,64,20260219-174436,local,local,750,H,H,A,E,A-H.png,E-H.png,hH,hH,mask-2.png,mask-2.png,h,1,0.8171524000354111,h,1,0.06214719999115914,0.05061259993817657,0.05002450000029057,0.09954209998250008,0.09986019995994866,0.749294999986887
RSVPLG03,km,20260219-173608,1.0.2,20251113-095759,773,Experiment,Both,1,Automatic,main,65,20260219-174441,global,global,300,S,S,E,E,S-E.png,S-E.png,sS,sS,mask-4.png,mask-4.png,s,1,0.7760002000723034,s,1,0.04521530005149543,0.05022380000445992,0.049401799915358424,0.10098830005154014,0.09878140001092106,0.3004571000346914
RSVPLG03,km,20260219-173608,1.0.2,20251113-095759,773,Experiment,Both,1,Automatic,main,66,20260219-174445,local,local,750,H,S,E,A,E-H.png,A-S.png,hH,sS,mask-4.png,mask-4.png,s,0,2.6283330000005662,s,1,0.04663019999861717,0.05095980002079159,0.051257000071927905,0.10084800003096461,0.10057890007738024,0.7496313999872655
RSVPLG03,km,20260219-173608,1.0.2,20251113-095759,773,Experiment,Both,1,Automatic,main,67,20260219-174452,global,global,300,S,S,A,A,S-A.png,S-A.png,sS,sS,mask-4.png,mask-4.png,s,1,0.6975443999981508,s,1,0.07971820002421737,0.050647899974137545,0.04869299998972565,0.09996119991410524,0.09862599999178201,0.3006300999550149
RSVPLG03,km,20260219-173608,1.0.2,20251113-095759,773,Experiment,Both,1,Automatic,main,68,20260219-174456,global,local,750,S,S,E,A,S-E.png,A-S.png,sS,sS,mask-4.png,mask-4.png,s,1,0.7919177999719977,h,0,0.8717543000821024,0.04853549995459616,0.04836509993765503,0.09874259994830936,0.09988619992509484,0.7501998000079766
RSVPLG03,km,20260219-173608,1.0.2,20251113-095759,773,Experiment,Both,1,Automatic,main,69,20260219-174501,global,local,300,H,S,E,E,H-E.png,E-S.png,hH,sS,mask-2.png,mask-3.png,h,1,1.027262800023891,s,1,0.11284300009720027,0.04934889997821301,0.04959840001538396,0.1001840999815613,0.09907110000494868,0.30106339999474585
RSVPLG03,km,20260219-173608,1.0.2,20251113-095759,773,Experiment,Both,1,Automatic,main,70,20260219-174506,local,global,750,S,H,E,E,E-S.png,H-E.png,sS,hH,mask-2.png,mask-4.png,s,1,2.173460900085047,s,0,0.05030800006352365,0.052431399933993816,0.05076630006078631,0.10076950001530349,0.10082070005591959,0.7512776999501511
RSVPLG03,km,20260219-173608,1.0.2,20251113-095759,773,Experiment,Both,1,Automatic,main,71,20260219-174513,global,global,750,S,S,A,E,S-A.png,S-E.png,sS,sS,mask-3.png,mask-2.png,s,1,0.8391845000442117,s,1,0.06399200006853789,0.05018609995022416,0.05008570000063628,0.10066840006038547,0.10003359999973327,0.7496914999792352
RSVPLG03,km,20260219-173608,1.0.2,20251113-095759,773,Experiment,Both,1,Automatic,main,72,20260219-174518,global,local,300,S,S,E,A,S-E.png,A-S.png,sS,sS,mask-1.png,mask-2.png,s,1,0.6480119000189006,h,0,0.09553729998879135,0.0486069000326097,0.0500324999447912,0.099782400066033,0.1013756999745965,0.29908330005127937
RSVPLG03,km,20260219-173608,1.0.2,20251113-095759,773,Experiment,Both,1,Automatic,main,73,20260219-174522,local,local,300,H,S,E,A,E-H.png,A-S.png,hH,sS,mask-4.png,mask-1.png,h,1,1.0116327999858186,s,1,0.03393790009431541,0.04941550001967698,0.05074770003557205,0.10133810003753752,0.10031050001271069,0.300109599949792
RSVPLG03,km,20260219-173608,1.0.2,20251113-095759,773,Experiment,Both,1,Automatic,main,74,20260219-174527,local,global,750,S,S,E,A,E-S.png,S-A.png,sS,sS,mask-2.png,mask-4.png,h,0,0.9047227000119165,s,1,0.014065700001083314,0.04887050006072968,0.050527699990198016,0.09894070005975664,0.10061600001063198,0.7493167000357062
RSVPLG03,km,20260219-173608,1.0.2,20251113-095759,773,Experiment,Both,1,Automatic,main,75,20260219-174532,local,local,300,H,S,E,A,E-H.png,A-S.png,hH,sS,mask-1.png,mask-2.png,h,1,0.7276937999995425,s,1,0.03374470002017915,0.049475900013931096,0.05114189989399165,0.10016140004154295,0.09997869993094355,0.30052270006854087
RSVPLG03,km,20260219-173608,1.0.2,20251113-095759,773,Experiment,Both,1,Automatic,main,76,20260219-175101,local,global,300,H,H,A,E,A-H.png,H-E.png,hH,hH,mask-3.png,mask-3.png,h,1,0.8434530000668019,s,0,0.01750680000986904,0.0494049999397248,0.04952420003246516,0.09951289999298751,0.09981459996197373,0.29899219993967563
RSVPLG03,km,20260219-173608,1.0.2,20251113-095759,773,Experiment,Both,1,Automatic,main,77,20260219-175105,local,local,750,H,H,A,A,A-H.png,A-H.png,hH,hH,mask-2.png,mask-3.png,h,1,0.6667329999618232,h,1,0.08064749999903142,0.05073489993810654,0.04924299998674542,0.1006546999560669,0.09982219990342855,0.7501539000077173
RSVPLG03,km,20260219-173608,1.0.2,20251113-095759,773,Experiment,Both,1,Automatic,main,78,20260219-175110,local,local,300,H,S,A,E,A-H.png,E-S.png,hH,sS,mask-3.png,mask-4.png,s,0,2.504467500024475,s,1,0.38483150000683963,0.0480501001002267,0.0495999000268057,0.09838490001857281,0.10060570004861802,0.2989600000437349
RSVPLG03,km,20260219-173608,1.0.2,20251113-095759,773,Experiment,Both,1,Automatic,main,79,20260219-175117,local,local,300,S,S,A,A,A-S.png,A-S.png,sS,sS,mask-4.png,mask-2.png,s,1,2.4842476999619976,s,1,0.09540720004588366,0.049732199986465275,0.048443300067447126,0.09919959993567318,0.09912160004023463,0.30030619993340224
RSVPLG03,km,20260219-173608,1.0.2,20251113-095759,773,Experiment,Both,1,Automatic,main,80,20260219-175123,global,global,300,S,H,A,E,S-A.png,H-E.png,sS,hH,mask-4.png,mask-2.png,s,1,0.8455996001139283,h,1,0.9900647000176832,0.05133080005180091,0.04887779999990016,0.10119099996518344,0.09910009999293834,0.2998541999841109
RSVPLG03,km,20260219-173608,1.0.2,20251113-095759,773,Experiment,Both,1,Automatic,main,81,20260219-175127,global,local,750,S,S,A,E,S-A.png,E-S.png,sS,sS,mask-4.png,mask-4.png,s,1,1.056282600038685,s,1,0.2389549999497831,0.05193970003165305,0.05103839992079884,0.10273799998685718,0.09968739992473274,0.7513237000675872
RSVPLG03,km,20260219-173608,1.0.2,20251113-095759,773,Experiment,Both,1,Automatic,main,82,20260219-175133,global,local,750,H,H,E,A,H-E.png,A-H.png,hH,hH,mask-4.png,mask-4.png,h,1,0.7269782999064773,h,1,0.09681599994655699,0.05031909991521388,0.04930489999242127,0.10159199999179691,0.09959490003529936,0.7503531998954713
RSVPLG03,km,20260219-173608,1.0.2,20251113-095759,773,Experiment,Both,1,Automatic,main,83,20260219-175138,local,local,300,H,H,E,A,E-H.png,A-H.png,hH,hH,mask-1.png,mask-3.png,h,1,1.9537378000095487,h,1,0.1107885999372229,0.04891399992629886,0.0493931999662891,0.09964809997472912,0.09883889998309314,0.2995279999449849
RSVPLG03,km,20260219-173608,1.0.2,20251113-095759,773,Experiment,Both,1,Automatic,main,84,20260219-175143,local,global,750,H,H,E,E,E-H.png,H-E.png,hH,hH,mask-3.png,mask-1.png,s,0,2.5098191000288352,h,1,0.07852019998244941,0.050063899951055646,0.04905570007394999,0.10118449991568923,0.10029390000272542,0.7491618999047205
RSVPLG03,km,20260219-173608,1.0.2,20251113-095759,773,Experiment,Both,1,Automatic,main,85,20260219-175150,global,global,750,S,S,E,A,S-E.png,S-A.png,sS,sS,mask-3.png,mask-2.png,s,1,0.5167868999997154,s,1,0.11099650000687689,0.049245800008066,0.05017800000496209,0.10000710003077984,0.0993787000188604,0.7508253999985754
RSVPLG03,km,20260219-173608,1.0.2,20251113-095759,773,Experiment,Both,1,Automatic,main,86,20260219-175154,global,local,750,H,S,A,A,H-A.png,A-S.png,hH,sS,mask-3.png,mask-3.png,h,1,2.0470418999902904,s,1,0.06366390001494437,0.05098230007570237,0.05005590000655502,0.09952570009045303,0.10220760002266616,0.7492445000680164
RSVPLG03,km,20260219-173608,1.0.2,20251113-095759,773,Experiment,Both,1,Automatic,main,87,20260219-175201,global,global,750,H,S,E,A,H-E.png,S-A.png,hH,sS,mask-2.png,mask-3.png,h,1,0.7142796000698581,s,1,0.06371380004566163,0.04957299993839115,0.050471599912270904,0.1002044000197202,0.10004259995184839,0.7504763000179082
RSVPLG03,km,20260219-173608,1.0.2,20251113-095759,773,Experiment,Both,1,Automatic,main,88,20260219-175206,local,global,300,S,S,E,A,E-S.png,S-A.png,sS,sS,mask-1.png,mask-2.png,s,1,2.4158558000344783,s,1,0.14433089992962778,0.051654300070367754,0.05054540000855923,0.10190610005520284,0.0998255000449717,0.3012529000407085
RSVPLG03,km,20260219-173608,1.0.2,20251113-095759,773,Experiment,Both,1,Automatic,main,89,20260219-175212,global,global,750,H,H,E,A,H-E.png,H-A.png,hH,hH,mask-4.png,mask-4.png,h,1,0.774394299951382,h,1,0.11365039995871484,0.050268499995581806,0.04867709998507053,0.1005196999758482,0.09963339997921139,0.7513048000400886
RSVPLG03,km,20260219-173608,1.0.2,20251113-095759,773,Experiment,Both,1,Automatic,main,90,20260219-175217,local,local,300,H,H,A,A,A-H.png,A-H.png,hH,hH,mask-3.png,mask-3.png,h,1,1.6005992999998853,s,0,0.07813129993155599,0.048546899924986064,0.05095220007933676,0.09973819996230304,0.09983650001231581,0.2996462999144569
RSVPLG03,km,20260219-173608,1.0.2,20251113-095759,773,Experiment,Both,1,Automatic,main,91,20260219-175222,global,global,300,H,S,A,E,H-A.png,S-E.png,hH,sS,mask-1.png,mask-3.png,h,1,0.8501607999205589,s,1,0.09656189999077469,0.04961180000100285,0.048699600039981306,0.09966639999765903,0.09768240002449602,0.30181169998832047
RSVPLG03,km,20260219-173608,1.0.2,20251113-095759,773,Experiment,Both,1,Automatic,main,92,20260219-175227,global,local,750,H,S,E,E,H-E.png,E-S.png,hH,sS,mask-3.png,mask-4.png,h,1,1.5863427000585943,s,1,0.07966280006803572,0.04931849997956306,0.049641699995845556,0.10043230000883341,0.10052320000249892,0.7496299999766052
RSVPLG03,km,20260219-173608,1.0.2,20251113-095759,773,Experiment,Both,1,Automatic,main,93,20260219-175232,local,local,750,H,S,A,A,A-H.png,A-S.png,hH,sS,mask-4.png,mask-4.png,h,1,1.8872143001062796,s,1,0.24245490005705506,0.04975800006650388,0.04979989991988987,0.09955889999400824,0.10054019989911467,0.7487438000971451
RSVPLG03,km,20260219-173608,1.0.2,20251113-095759,773,Experiment,Both,1,Automatic,main,94,20260219-175239,global,local,750,H,H,A,A,H-A.png,A-H.png,hH,hH,mask-2.png,mask-1.png,h,1,0.8625280999112874,s,0,0.09691919991746545,0.048764599952846766,0.04985309997573495,0.09927889995742589,0.09916530002374202,0.7501381000038236
RSVPLG03,km,20260219-173608,1.0.2,20251113-095759,773,Experiment,Both,1,Automatic,main,95,20260219-175244,local,global,300,H,H,E,E,E-H.png,H-E.png,hH,hH,mask-1.png,mask-1.png,h,1,1.7092483999440446,h,1,0.0784912999952212,0.05228750000242144,0.050098399980925024,0.10027080005966127,0.10074659995734692,0.30078120005782694
RSVPLG03,km,20260219-173608,1.0.2,20251113-095759,773,Experiment,Both,1,Automatic,main,96,20260219-175249,local,local,750,S,H,E,E,E-S.png,E-H.png,sS,hH,mask-1.png,mask-2.png,s,1,1.085455400054343,h,1,0.06263860000763088,0.050142499967478216,0.047601599944755435,0.10071659996174276,0.09808179992251098,0.7526503000408411
RSVPLG03,km,20260219-173608,1.0.2,20251113-095759,773,Experiment,Both,1,Automatic,main,97,20260219-175255,global,local,750,S,H,A,A,S-A.png,A-H.png,sS,hH,mask-3.png,mask-1.png,s,1,0.803214899962768,h,1,0.06247919995803386,0.05008409998845309,0.05018200003542006,0.09850480000022799,0.10189700010232627,0.7485633998876438
RSVPLG03,km,20260219-173608,1.0.2,20251113-095759,773,Experiment,Both,1,Automatic,main,98,20260219-175300,global,global,300,H,S,A,A,H-A.png,S-A.png,hH,sS,mask-2.png,mask-2.png,h,1,0.8294179000658914,s,1,0.09313070005737245,0.04969500005245209,0.05048529990017414,0.10005170002114028,0.10069489991292357,0.29939140006899834
RSVPLG03,km,20260219-173608,1.0.2,20251113-095759,773,Experiment,Both,1,Automatic,main,99,20260219-175304,local,global,300,S,H,A,E,A-S.png,H-E.png,sS,hH,mask-1.png,mask-2.png,h,0,1.5182340999599546,s,0,0.062442900030873716,0.05054299999028444,0.05056709994096309,0.10020139999687672,0.0992455999366939,0.30042490002233535
RSVPLG03,km,20260219-173608,1.0.2,20251113-095759,773,Experiment,Both,1,Automatic,main,100,20260219-175310,local,local,300,S,S,A,A,A-S.png,A-S.png,sS,sS,mask-2.png,mask-4.png,s,1,0.9067179999547079,s,1,0.11032829992473125,0.04964420001488179,0.04916300007607788,0.1000979000236839,0.09896240010857582,0.30043099995236844
