exp,exp_initials,runtime,ver,modtime,sub,blocktype,targets,cuetype,mode,trialtype,trial,trialtime,t1_level,t2_level,t2_lag,t1,t2,distractor1,distractor2,stimfile1,stimfile2,t1_corr,t2_corr,maskfile1,maskfile2,t1_resp,t1_acc,t1_rt,t2_resp,t2_acc,t2_rt,t1_dur,t2_dur,t1mask_soa,t2mask_soa,t1t2_soa
RSVPLG03,sg,20251104-131440,1.0.1,20251020-085245,735,Introduction,T1,1,Automatic,main,1,20251104-131534,local,global,750,H,H,A,A,A-H.png,H-A.png,hH,hH,mask-4.png,mask-1.png,s,0,2.523383399937302,none,-5,0,0.09714570012874901,0.0964621000457555,0.19898290000855923,0.19957750011235476,0.7507199000101537
RSVPLG03,sg,20251104-131440,1.0.1,20251020-085245,735,Introduction,T1,1,Automatic,main,2,20251104-131541,global,global,750,H,S,E,A,H-E.png,S-A.png,hH,sS,mask-1.png,mask-1.png,s,0,0.8212898001074791,none,-5,0,0.09757660003378987,0.09736989997327328,0.19960719998925924,0.19873100006952882,0.7499293000437319
RSVPLG03,sg,20251104-131440,1.0.1,20251020-085245,735,Introduction,T1,1,Automatic,main,3,20251104-131546,local,local,750,S,H,E,A,E-S.png,A-H.png,sS,hH,mask-3.png,mask-3.png,s,1,1.2177754000294954,none,-5,0,0.09601029986515641,0.09803909994661808,0.19987829984165728,0.20092270011082292,0.7497761999256909
RSVPLG03,sg,20251104-131440,1.0.1,20251020-085245,735,Introduction,T1,1,Automatic,main,4,20251104-131551,global,global,750,S,H,A,A,S-A.png,H-A.png,sS,hH,mask-3.png,mask-4.png,s,1,0.656724999891594,none,-5,0,0.09738470008596778,0.09847380011342466,0.20026870002038777,0.2003195001743734,0.7493002000264823
RSVPLG03,sg,20251104-131440,1.0.1,20251020-085245,735,Introduction,T1,1,Automatic,main,5,20251104-131556,local,local,750,H,H,A,A,A-H.png,A-H.png,hH,hH,mask-3.png,mask-3.png,h,1,1.0028315000236034,none,-5,0,0.09739360003732145,0.0975913000293076,0.20124760014005005,0.20048659993335605,0.7509312001056969
RSVPLG03,sg,20251104-131440,1.0.1,20251020-085245,735,Introduction,T1,1,Automatic,main,6,20251104-131601,global,local,750,S,H,E,A,S-E.png,A-H.png,sS,hH,mask-4.png,mask-2.png,s,1,1.2168107000179589,none,-5,0,0.0974683000240475,0.09852070012129843,0.19959459989331663,0.2005864002276212,0.7494494998827577
RSVPLG03,sg,20251104-131440,1.0.1,20251020-085245,735,Introduction,T1,1,Automatic,main,7,20251104-131606,global,global,750,S,H,E,E,S-E.png,H-E.png,sS,hH,mask-2.png,mask-2.png,s,1,0.5113983999472111,none,-5,0,0.0973778001498431,0.09749440010637045,0.19911160017363727,0.2003709999844432,0.7500022000167519
RSVPLG03,sg,20251104-131440,1.0.1,20251020-085245,735,Introduction,T1,1,Automatic,main,8,20251104-131611,global,global,750,S,S,E,E,S-E.png,S-E.png,sS,sS,mask-3.png,mask-1.png,s,1,0.6888611000031233,none,-5,0,0.09738119994290173,0.09743590001016855,0.20028900005854666,0.19975219992920756,0.7501801000908017
RSVPLG03,sg,20251104-131440,1.0.1,20251020-085245,735,Introduction,T1,1,Automatic,main,9,20251104-131616,local,global,750,S,H,E,A,E-S.png,H-A.png,sS,hH,mask-1.png,mask-4.png,s,1,0.70602190005593,none,-5,0,0.09738140017725527,0.0973811000585556,0.19827040005475283,0.19927369989454746,0.7500593001022935
RSVPLG03,sg,20251104-131440,1.0.1,20251020-085245,735,Introduction,T1,1,Automatic,main,10,20251104-131621,global,local,750,H,S,A,A,H-A.png,A-S.png,hH,sS,mask-1.png,mask-1.png,h,1,0.5119328000582755,none,-5,0,0.0985694001428783,0.09755569999106228,0.20060830004513264,0.20160949998535216,0.749446100089699
RSVPLG03,sg,20251104-131440,1.0.1,20251020-085245,735,Introduction,T1,1,Automatic,main,11,20251104-131625,local,global,750,H,S,E,E,E-H.png,S-E.png,hH,sS,mask-4.png,mask-2.png,h,1,1.8615818999242038,none,-5,0,0.09756540018133819,0.09754540002904832,0.19897320005111396,0.20061050006188452,0.7501495000906289
RSVPLG03,sg,20251104-131440,1.0.1,20251020-085245,735,Introduction,T1,1,Automatic,main,12,20251104-131631,local,global,750,S,S,A,A,A-S.png,S-A.png,sS,sS,mask-1.png,mask-3.png,s,1,0.5263002999126911,none,-5,0,0.09738339995965362,0.09838310000486672,0.2012430999893695,0.199356600176543,0.7506861998699605
RSVPLG03,sg,20251104-131440,1.0.1,20251020-085245,735,Introduction,T1,1,Automatic,main,13,20251104-131636,global,local,750,H,H,A,A,H-A.png,A-H.png,hH,hH,mask-2.png,mask-3.png,h,1,0.6405009001027793,none,-5,0,0.09766979981213808,0.09764499985612929,0.1998912999406457,0.19896189984865487,0.7500452999956906
RSVPLG03,sg,20251104-131440,1.0.1,20251020-085245,735,Introduction,T1,1,Automatic,main,14,20251104-131641,global,local,750,S,S,E,E,S-E.png,E-S.png,sS,sS,mask-3.png,mask-2.png,s,1,0.7330088999588042,none,-5,0,0.09746469999663532,0.0965631001163274,0.20035910001024604,0.19967789994552732,0.7507321001030505
RSVPLG03,sg,20251104-131440,1.0.1,20251020-085245,735,Introduction,T1,1,Automatic,main,15,20251104-131646,local,local,750,H,S,A,A,A-H.png,A-S.png,hH,sS,mask-3.png,mask-4.png,h,1,0.987668399931863,none,-5,0,0.09753489983268082,0.09752650000154972,0.1985750999301672,0.20057129999622703,0.7486285998020321
RSVPLG03,sg,20251104-131440,1.0.1,20251020-085245,735,Introduction,T1,1,Automatic,main,16,20251104-131651,local,local,750,H,H,A,E,A-H.png,E-H.png,hH,hH,mask-4.png,mask-3.png,h,1,0.8854586998932064,none,-5,0,0.09753210004419088,0.09853029996156693,0.19944150000810623,0.20059199980460107,0.7488610001746565
RSVPLG03,sg,20251104-131713,1.0.1,20251020-085245,735,Practice,T1,1,Automatic,main,1,20251104-131736,local,local,300,S,S,A,E,A-S.png,E-S.png,sS,sS,mask-3.png,mask-1.png,s,1,1.1447562000248581,none,-5,0,0.04091409989632666,0.0465749001596123,0.09502770006656647,0.09968960005789995,0.2950166999362409
RSVPLG03,sg,20251104-131713,1.0.1,20251020-085245,735,Practice,T1,1,Automatic,main,2,20251104-131741,local,local,750,S,S,E,E,E-S.png,E-S.png,sS,sS,mask-2.png,mask-4.png,s,1,0.6014598000328988,none,-5,0,0.047639100113883615,0.047426499892026186,0.09974470012821257,0.10140420007519424,0.7506393000949174
RSVPLG03,sg,20251104-131713,1.0.1,20251020-085245,735,Practice,T1,1,Automatic,main,3,20251104-131746,global,local,750,H,S,E,E,H-E.png,E-S.png,hH,sS,mask-2.png,mask-4.png,h,1,1.178620900027454,none,-5,0,0.047510100062936544,0.046468500047922134,0.10058980016037822,0.09931159997358918,0.7512841001152992
RSVPLG03,sg,20251104-131713,1.0.1,20251020-085245,735,Practice,T1,1,Automatic,main,4,20251104-131751,local,global,750,H,S,A,A,A-H.png,S-A.png,hH,sS,mask-1.png,mask-4.png,h,1,0.6847101000603288,none,-5,0,0.04765020008198917,0.04856160003691912,0.09859290020540357,0.10062689986079931,0.749427700182423
RSVPLG03,sg,20251104-131713,1.0.1,20251020-085245,735,Practice,T1,1,Automatic,main,5,20251104-131756,global,global,750,S,S,E,E,S-E.png,S-E.png,sS,sS,mask-4.png,mask-4.png,s,1,0.5788316000252962,none,-5,0,0.047742199851199985,0.04571329988539219,0.09993679984472692,0.1000879998318851,0.7518827000167221
RSVPLG03,sg,20251104-131713,1.0.1,20251020-085245,735,Practice,T1,1,Automatic,main,6,20251104-131800,global,global,300,H,H,A,A,H-A.png,H-A.png,hH,hH,mask-1.png,mask-4.png,h,1,0.5015331001486629,none,-5,0,0.04773790016770363,0.04772689985111356,0.1002184001263231,0.0999153999146074,0.29994740011170506
RSVPLG03,sg,20251104-131713,1.0.1,20251020-085245,735,Practice,T1,1,Automatic,main,7,20251104-131804,local,local,300,S,S,E,A,E-S.png,A-S.png,sS,sS,mask-2.png,mask-1.png,s,1,0.7088341999333352,none,-5,0,0.04858549986965954,0.04658220009878278,0.10157519998028874,0.09964179992675781,0.30129479989409447
RSVPLG03,sg,20251104-131713,1.0.1,20251020-085245,735,Practice,T1,1,Automatic,main,8,20251104-131808,local,global,300,S,S,A,E,A-S.png,S-E.png,sS,sS,mask-2.png,mask-3.png,s,1,0.4131497999187559,none,-5,0,0.04767660005018115,0.04747909982688725,0.10087099997326732,0.09966859989799559,0.3007386000826955
RSVPLG03,sg,20251104-131713,1.0.1,20251020-085245,735,Practice,T1,1,Automatic,main,9,20251104-131812,local,local,750,H,S,A,E,A-H.png,E-S.png,hH,sS,mask-3.png,mask-2.png,h,1,0.4930331001523882,none,-5,0,0.04654909996315837,0.04652710002847016,0.09848699998110533,0.0985259001608938,0.7509610999841243
RSVPLG03,sg,20251104-131713,1.0.1,20251020-085245,735,Practice,T1,1,Automatic,main,10,20251104-131817,global,local,300,H,S,E,E,H-E.png,E-S.png,hH,sS,mask-3.png,mask-4.png,s,0,0.7811805999372154,none,-5,0,0.04767260001972318,0.04741679993458092,0.09986499999649823,0.09987700008787215,0.300616699969396
RSVPLG03,sg,20251104-131713,1.0.1,20251020-085245,735,Practice,T1,1,Automatic,main,11,20251104-131821,global,local,750,S,H,E,E,S-E.png,E-H.png,sS,hH,mask-4.png,mask-3.png,h,0,0.4717873001936823,none,-5,0,0.04751780000515282,0.04753630002960563,0.10038720001466572,0.09884560015052557,0.7515696999616921
RSVPLG03,sg,20251104-131713,1.0.1,20251020-085245,735,Practice,T1,1,Automatic,main,12,20251104-131826,global,global,750,S,H,E,A,S-E.png,H-A.png,sS,hH,mask-3.png,mask-4.png,s,1,0.9578489998821169,none,-5,0,0.047056299867108464,0.04866049997508526,0.09973159991204739,0.09988140012137592,0.7506605999078602
RSVPLG03,sg,20251104-131713,1.0.1,20251020-085245,735,Practice,T1,1,Automatic,main,13,20251104-131831,global,local,300,H,H,E,A,H-E.png,A-H.png,hH,hH,mask-1.png,mask-2.png,h,1,0.4110503999982029,none,-5,0,0.04768320010043681,0.04768970003351569,0.09995290008373559,0.09972389996983111,0.3005373999476433
RSVPLG03,sg,20251104-131713,1.0.1,20251020-085245,735,Practice,T1,1,Automatic,main,14,20251104-131835,global,global,300,S,S,A,A,S-A.png,S-A.png,sS,sS,mask-3.png,mask-3.png,s,1,0.6523160999640822,none,-5,0,0.04728840012103319,0.047388800187036395,0.09982300014235079,0.1002652000170201,0.3001157999970019
RSVPLG03,sg,20251104-131713,1.0.1,20251020-085245,735,Practice,T1,1,Automatic,main,15,20251104-131839,local,global,750,S,S,E,E,E-S.png,S-E.png,sS,sS,mask-2.png,mask-3.png,s,1,0.406214099843055,none,-5,0,0.046502500073984265,0.047391900094226,0.09901050012558699,0.09936319990083575,0.7499758000485599
RSVPLG03,sg,20251104-131713,1.0.1,20251020-085245,735,Practice,T1,1,Automatic,main,16,20251104-131843,local,global,300,H,H,A,A,A-H.png,H-A.png,hH,hH,mask-3.png,mask-2.png,h,1,0.4095960999839008,none,-5,0,0.04750630003400147,0.047498400090262294,0.09951200010254979,0.09949900000356138,0.3001483001280576
RSVPLG03,sg,20251104-131908,1.0.1,20251020-085245,735,Introduction,Both,1,Automatic,main,1,20251104-132002,local,local,750,H,S,E,E,E-H.png,E-S.png,hH,sS,mask-4.png,mask-2.png,h,1,1.7544995001517236,s,1,1.9691476000007242,0.09580560005269945,0.0974752998445183,0.1977361999452114,0.20047069992870092,0.7485484001226723
RSVPLG03,sg,20251104-131908,1.0.1,20251020-085245,735,Introduction,Both,1,Automatic,main,2,20251104-132010,local,global,750,S,S,A,E,A-S.png,S-E.png,sS,sS,mask-4.png,mask-1.png,s,1,2.8319900000933558,h,0,0.698187799891457,0.0975484000518918,0.09654140006750822,0.1998256000224501,0.19957610010169446,0.750474999891594
RSVPLG03,sg,20251104-131908,1.0.1,20251020-085245,735,Introduction,Both,1,Automatic,main,3,20251104-132018,local,global,750,S,H,A,E,A-S.png,H-E.png,sS,hH,mask-4.png,mask-4.png,s,1,2.0192366000264883,h,1,0.4382299000862986,0.09734720014967024,0.09857140015810728,0.1993355001322925,0.20162510010413826,0.749323399970308
RSVPLG03,sg,20251104-131908,1.0.1,20251020-085245,735,Introduction,Both,1,Automatic,main,4,20251104-132024,local,global,750,H,H,A,E,A-H.png,H-E.png,hH,hH,mask-2.png,mask-3.png,h,1,2.7288106998894364,h,1,0.2805767001118511,0.09824840002693236,0.09789149998687208,0.20131899998523295,0.20000430010259151,0.7503937999717891
RSVPLG03,sg,20251104-131908,1.0.1,20251020-085245,735,Introduction,Both,1,Automatic,main,5,20251104-132032,local,local,750,H,H,A,A,A-H.png,A-H.png,hH,hH,mask-1.png,mask-4.png,h,1,0.938693700125441,h,1,0.10005720006301999,0.09738510008901358,0.09737229999154806,0.20025110011920333,0.20022719982080162,0.7499191001988947
RSVPLG03,sg,20251104-131908,1.0.1,20251020-085245,735,Introduction,Both,1,Automatic,main,6,20251104-132037,global,global,750,H,H,E,E,H-E.png,H-E.png,hH,hH,mask-1.png,mask-4.png,h,1,0.7434338999446481,h,1,0.31027070013806224,0.09739669994451106,0.09837729996070266,0.1984750998672098,0.20025149988941848,0.7498649000190198
RSVPLG03,sg,20251104-131908,1.0.1,20251020-085245,735,Introduction,Both,1,Automatic,main,7,20251104-132042,local,local,750,H,S,A,E,A-H.png,E-S.png,hH,sS,mask-1.png,mask-4.png,h,1,0.6077308000531048,s,1,0.3106364000122994,0.0973577001132071,0.09723669989034534,0.19940150016918778,0.19901079987175763,0.7494994001463056
RSVPLG03,sg,20251104-131908,1.0.1,20251020-085245,735,Introduction,Both,1,Automatic,main,8,20251104-132047,global,global,750,S,S,A,E,S-A.png,S-E.png,sS,sS,mask-2.png,mask-4.png,s,1,0.6243340000510216,s,1,0.3429340000730008,0.09837820008397102,0.09740189998410642,0.20124219986610115,0.20027090003713965,0.7508626999333501
RSVPLG03,sg,20251104-131908,1.0.1,20251020-085245,735,Introduction,Both,1,Automatic,main,9,20251104-132053,local,global,750,H,H,A,E,A-H.png,H-E.png,hH,hH,mask-2.png,mask-2.png,h,1,1.6276476001366973,h,1,0.25225990009494126,0.09747719997540116,0.09802120015956461,0.19936570012941957,0.19922480010427535,0.7496466999873519
RSVPLG03,sg,20251104-131908,1.0.1,20251020-085245,735,Introduction,Both,1,Automatic,main,10,20251104-132059,global,local,750,S,H,A,E,S-A.png,E-H.png,sS,hH,mask-4.png,mask-1.png,s,1,1.7325007000472397,h,1,0.3910392001271248,0.09751180000603199,0.09755560010671616,0.20053889998234808,0.1996323000639677,0.7500960999168456
RSVPLG03,sg,20251104-131908,1.0.1,20251020-085245,735,Introduction,Both,1,Automatic,main,11,20251104-132105,local,local,750,H,H,E,E,E-H.png,E-H.png,hH,hH,mask-1.png,mask-3.png,h,1,0.7065771000925452,h,1,0.2586662999819964,0.09685069997794926,0.09773029992356896,0.19934149994514883,0.19988759979605675,0.750456300098449
RSVPLG03,sg,20251104-131908,1.0.1,20251020-085245,735,Introduction,Both,1,Automatic,main,12,20251104-132110,global,local,750,H,S,E,A,H-E.png,A-S.png,hH,sS,mask-4.png,mask-2.png,h,1,0.8115441999398172,h,0,0.42532229982316494,0.09745409991592169,0.097576699918136,0.1996357999742031,0.2007665999699384,0.7502435001078993
RSVPLG03,sg,20251104-131908,1.0.1,20251020-085245,735,Introduction,Both,1,Automatic,main,13,20251104-132116,global,global,750,S,H,A,E,S-A.png,H-E.png,sS,hH,mask-2.png,mask-4.png,s,1,0.8561608002055436,h,1,0.2509385000448674,0.09752340009436011,0.09759109979495406,0.20058490009978414,0.20164339989423752,0.749734700191766
RSVPLG03,sg,20251104-131908,1.0.1,20251020-085245,735,Introduction,Both,1,Automatic,main,14,20251104-132121,global,local,750,H,H,E,A,H-E.png,A-H.png,hH,hH,mask-3.png,mask-2.png,h,1,0.34686980000697076,h,1,0.33225449989549816,0.09558069985359907,0.0983859000261873,0.1995160998776555,0.19992630020715296,0.7490577998105437
RSVPLG03,sg,20251104-131908,1.0.1,20251020-085245,735,Introduction,Both,1,Automatic,main,15,20251104-132126,global,global,750,H,H,E,E,H-E.png,H-E.png,hH,hH,mask-2.png,mask-2.png,h,1,0.37620269996114075,h,1,0.29475779994390905,0.09754489990882576,0.09657219983637333,0.20167109998874366,0.1996414999011904,0.7519209000747651
RSVPLG03,sg,20251104-131908,1.0.1,20251020-085245,735,Introduction,Both,1,Automatic,main,16,20251104-132131,global,local,750,S,H,E,E,S-E.png,E-H.png,sS,hH,mask-1.png,mask-2.png,s,1,0.5715524998959154,h,1,0.2165326001122594,0.09743249998427927,0.09712349995970726,0.20075499988161027,0.1995137999765575,0.7513518999330699
RSVPLG03,sg,20251104-132205,1.0.1,20251020-085245,735,Practice,Both,1,Automatic,main,1,20251104-132226,global,global,300,H,H,A,A,H-A.png,H-A.png,hH,hH,mask-1.png,mask-3.png,h,1,0.8460346001666039,h,1,0.18222260009497404,0.03982399986125529,0.04763980000279844,0.0926439999602735,0.10080930008552969,0.29285169998183846
RSVPLG03,sg,20251104-132205,1.0.1,20251020-085245,735,Practice,Both,1,Automatic,main,2,20251104-132230,global,global,750,H,H,E,A,H-E.png,H-A.png,hH,hH,mask-3.png,mask-2.png,h,1,0.7170313999522477,h,1,0.1568960000295192,0.046938200015574694,0.04750330001115799,0.10008520004339516,0.09955359995365143,0.7504179000388831
RSVPLG03,sg,20251104-132205,1.0.1,20251020-085245,735,Practice,Both,1,Automatic,main,3,20251104-132235,local,local,750,S,S,E,A,E-S.png,A-S.png,sS,sS,mask-2.png,mask-3.png,s,1,0.5839232001453638,s,1,0.202375499997288,0.04749839985743165,0.04690690012648702,0.10049479990266263,0.09989039995707572,0.7503151998389512
RSVPLG03,sg,20251104-132205,1.0.1,20251020-085245,735,Practice,Both,1,Automatic,main,4,20251104-132240,global,local,300,S,S,A,A,S-A.png,A-S.png,sS,sS,mask-2.png,mask-4.png,s,1,0.913997899973765,s,1,0.2989791000727564,0.04847879987210035,0.047505199909210205,0.09981369995512068,0.0994992998894304,0.3011433999054134
RSVPLG03,sg,20251104-132205,1.0.1,20251020-085245,735,Practice,Both,1,Automatic,main,5,20251104-132245,local,global,300,S,H,E,A,E-S.png,H-A.png,sS,hH,mask-1.png,mask-1.png,s,1,0.5813162999693304,s,0,0.2938226000405848,0.047482100082561374,0.047481399960815907,0.09840780007652938,0.09930699993856251,0.29989070002920926
RSVPLG03,sg,20251104-132205,1.0.1,20251020-085245,735,Practice,Both,1,Automatic,main,6,20251104-132250,global,local,750,S,S,E,A,S-E.png,A-S.png,sS,sS,mask-4.png,mask-3.png,s,1,0.5593215997796506,s,1,0.17426660005003214,0.0493586000520736,0.048756999894976616,0.1005188999697566,0.09976889984682202,0.7512739000376314
RSVPLG03,sg,20251104-132205,1.0.1,20251020-085245,735,Practice,Both,1,Automatic,main,7,20251104-132255,global,global,750,H,H,A,E,H-A.png,H-E.png,hH,hH,mask-2.png,mask-2.png,h,1,0.4014250999316573,h,1,0.10051679983735085,0.04673819988965988,0.04860720015130937,0.1000025998800993,0.0998850001487881,0.7490633998531848
RSVPLG03,sg,20251104-132205,1.0.1,20251020-085245,735,Practice,Both,1,Automatic,main,8,20251104-132259,global,local,750,S,S,A,E,S-A.png,E-S.png,sS,sS,mask-1.png,mask-2.png,s,1,0.41837269999086857,s,1,0.18553890008479357,0.046475599985569715,0.04759630002081394,0.09953979984857142,0.09959010011516511,0.7498726998455822
RSVPLG03,sg,20251104-132205,1.0.1,20251020-085245,735,Practice,Both,1,Automatic,main,9,20251104-132304,local,global,300,H,H,E,E,E-H.png,H-E.png,hH,hH,mask-3.png,mask-3.png,s,0,1.281455700052902,h,1,0.12610910017974675,0.04769739997573197,0.04783489997498691,0.09974770015105605,0.10187909984961152,0.29840190010145307
RSVPLG03,sg,20251104-132205,1.0.1,20251020-085245,735,Practice,Both,1,Automatic,main,10,20251104-132309,local,global,750,H,S,E,A,E-H.png,S-A.png,hH,sS,mask-1.png,mask-4.png,h,1,0.6186382002197206,s,1,0.12216989998705685,0.048514399910345674,0.047499299980700016,0.0994923000689596,0.10051300004124641,0.7507696999236941
RSVPLG03,sg,20251104-132205,1.0.1,20251020-085245,735,Practice,Both,1,Automatic,main,11,20251104-132314,local,local,750,S,H,E,A,E-S.png,A-H.png,sS,hH,mask-4.png,mask-2.png,s,1,0.3813961998093873,h,1,0.14901409996673465,0.04856120003387332,0.04748339997604489,0.09959260001778603,0.09948870004154742,0.7512066001072526
RSVPLG03,sg,20251104-132205,1.0.1,20251020-085245,735,Practice,Both,1,Automatic,main,12,20251104-132318,global,global,300,S,S,A,E,S-A.png,S-E.png,sS,sS,mask-3.png,mask-2.png,s,1,1.152253899956122,s,1,0.09186280006542802,0.04749089991673827,0.047515999991446733,0.09857090003788471,0.10055080009624362,0.2998999999836087
RSVPLG03,sg,20251104-132205,1.0.1,20251020-085245,735,Practice,Both,1,Automatic,main,13,20251104-132323,global,local,300,S,S,A,A,S-A.png,A-S.png,sS,sS,mask-3.png,mask-4.png,s,1,0.7442605998367071,h,0,0.1968753000255674,0.04674310004338622,0.047597300028428435,0.09944060002453625,0.10062179993838072,0.29982660012319684
RSVPLG03,sg,20251104-132205,1.0.1,20251020-085245,735,Practice,Both,1,Automatic,main,14,20251104-132328,local,local,300,S,H,E,E,E-S.png,E-H.png,sS,hH,mask-4.png,mask-4.png,s,1,0.8261373999994248,h,1,0.10683450009673834,0.047518699895590544,0.04752600006759167,0.09878869983367622,0.099404500098899,0.30009019980207086
RSVPLG03,sg,20251104-132205,1.0.1,20251020-085245,735,Practice,Both,1,Automatic,main,15,20251104-132333,local,global,750,H,S,E,A,E-H.png,S-A.png,hH,sS,mask-2.png,mask-1.png,h,1,0.49130519991740584,s,1,0.12565729999914765,0.04752809996716678,0.047657799907028675,0.09937840001657605,0.0998342998791486,0.7500170001294464
RSVPLG03,sg,20251104-132205,1.0.1,20251020-085245,735,Practice,Both,1,Automatic,main,16,20251104-132337,local,local,300,S,S,A,E,A-S.png,E-S.png,sS,sS,mask-2.png,mask-4.png,s,1,0.37821630015969276,s,1,0.13865249999798834,0.047353100031614304,0.04730070009827614,0.1002615001052618,0.10011240001767874,0.3001588999759406
RSVPLG03,sg,20251104-132406,1.0.1,20251020-085245,735,Experiment,Both,1,Automatic,warmup,1,20251104-132556,global,global,300,H,S,A,E,H-A.png,S-E.png,hH,sS,mask-4.png,mask-4.png,h,1,1.2615867001004517,s,1,0.18495739996433258,0.04096520016901195,0.04879190004430711,0.09396540001034737,0.1010833999607712,0.2949324001092464
RSVPLG03,sg,20251104-132406,1.0.1,20251020-085245,735,Experiment,Both,1,Automatic,warmup,2,20251104-132601,global,local,750,H,H,E,A,H-E.png,A-H.png,hH,hH,mask-1.png,mask-2.png,h,1,0.5702724000439048,h,1,0.24671120010316372,0.04741599992848933,0.04674119991250336,0.10056499997153878,0.10002469993196428,0.7533198001328856
RSVPLG03,sg,20251104-132406,1.0.1,20251020-085245,735,Experiment,Both,1,Automatic,warmup,3,20251104-132606,global,global,750,S,S,E,A,S-E.png,S-A.png,sS,sS,mask-4.png,mask-3.png,s,1,0.3463969000149518,s,1,0.13732609990984201,0.04762040008790791,0.046543899923563004,0.09992639999836683,0.10060369991697371,0.7517178000416607
RSVPLG03,sg,20251104-132406,1.0.1,20251020-085245,735,Experiment,Both,1,Automatic,warmup,4,20251104-132611,local,global,300,H,S,E,E,E-H.png,S-E.png,hH,sS,mask-1.png,mask-3.png,h,1,0.5674127000384033,s,1,0.16991739999502897,0.04771739989519119,0.04750750004313886,0.09976499993354082,0.09968230011872947,0.30023789987899363
RSVPLG03,sg,20251104-132406,1.0.1,20251020-085245,735,Experiment,Both,1,Automatic,warmup,5,20251104-132615,local,global,750,S,S,E,E,E-S.png,S-E.png,sS,sS,mask-1.png,mask-2.png,s,1,0.376834399998188,h,0,0.13847959996201098,0.04770729993470013,0.047902800142765045,0.10092379990965128,0.10011380002833903,0.7517960998229682
RSVPLG03,sg,20251104-132406,1.0.1,20251020-085245,735,Experiment,Both,1,Automatic,main,6,20251104-132620,local,local,300,S,S,A,A,A-S.png,A-S.png,sS,sS,mask-3.png,mask-3.png,s,1,0.3381711000110954,s,1,0.11996909999288619,0.04756069998256862,0.04751659999601543,0.10073770000599325,0.10147549980320036,0.30009530019015074
RSVPLG03,sg,20251104-132406,1.0.1,20251020-085245,735,Experiment,Both,1,Automatic,main,7,20251104-132624,local,local,300,S,S,A,E,A-S.png,E-S.png,sS,sS,mask-3.png,mask-2.png,s,1,0.36189080006442964,s,1,0.14025779999792576,0.04578029992990196,0.04650479997508228,0.09858900005929172,0.09863639995455742,0.30089409998618066
RSVPLG03,sg,20251104-132406,1.0.1,20251020-085245,735,Experiment,Both,1,Automatic,main,8,20251104-132628,local,global,300,S,H,E,A,E-S.png,H-A.png,sS,hH,mask-3.png,mask-1.png,s,1,0.3774693999439478,h,1,0.08680530008859932,0.047694999957457185,0.04870319995097816,0.0988680999726057,0.1009130000602454,0.2994496999308467
RSVPLG03,sg,20251104-132406,1.0.1,20251020-085245,735,Experiment,Both,1,Automatic,main,9,20251104-132632,local,global,750,S,S,A,E,A-S.png,S-E.png,sS,sS,mask-2.png,mask-2.png,s,1,0.39749369979836047,h,0,0.15639340016059577,0.04821409983560443,0.04882089979946613,0.10018099984154105,0.09981990000233054,0.7509190000128001
RSVPLG03,sg,20251104-132406,1.0.1,20251020-085245,735,Experiment,Both,1,Automatic,main,10,20251104-132637,global,global,300,S,H,E,A,S-E.png,H-A.png,sS,hH,mask-4.png,mask-3.png,s,1,0.3972074000630528,h,1,0.11295529990456998,0.047579400008544326,0.04638190008699894,0.1014761000405997,0.10021129995584488,0.3016019999049604
RSVPLG03,sg,20251104-132406,1.0.1,20251020-085245,735,Experiment,Both,1,Automatic,main,11,20251104-132641,global,global,300,H,S,A,E,H-A.png,S-E.png,hH,sS,mask-3.png,mask-1.png,h,1,0.38758060010150075,s,1,0.17127760010771453,0.04739359999075532,0.047575100092217326,0.10047219996340573,0.10067089996300638,0.300813099835068
RSVPLG03,sg,20251104-132406,1.0.1,20251020-085245,735,Experiment,Both,1,Automatic,main,12,20251104-132646,local,global,300,S,H,E,A,E-S.png,H-A.png,sS,hH,mask-2.png,mask-1.png,s,1,0.4412722000852227,h,1,0.07509399997070432,0.046575200045481324,0.047497000079602,0.0996445999480784,0.10068220016546547,0.3000979998614639
RSVPLG03,sg,20251104-132406,1.0.1,20251020-085245,735,Experiment,Both,1,Automatic,main,13,20251104-132650,global,global,300,S,H,A,E,S-A.png,H-E.png,sS,hH,mask-2.png,mask-4.png,s,1,0.33236179989762604,h,1,0.05756579991430044,0.04688900010660291,0.046688799979165196,0.10031040012836456,0.100873599993065,0.30089400010183454
RSVPLG03,sg,20251104-132406,1.0.1,20251020-085245,735,Experiment,Both,1,Automatic,main,14,20251104-132654,local,local,750,S,S,E,A,E-S.png,A-S.png,sS,sS,mask-4.png,mask-1.png,s,1,0.39326640008948743,s,1,0.10135820019058883,0.04766240017488599,0.04768570000305772,0.09990510018542409,0.09990359982475638,0.7514606001786888
RSVPLG03,sg,20251104-132406,1.0.1,20251020-085245,735,Experiment,Both,1,Automatic,main,15,20251104-132658,local,local,300,H,S,E,E,E-H.png,E-S.png,hH,sS,mask-4.png,mask-2.png,h,1,0.3490359000861645,s,1,0.11204069992527366,0.048182599944993854,0.04655340011231601,0.09942709980532527,0.09991000010631979,0.3008470998611301
RSVPLG03,sg,20251104-132406,1.0.1,20251020-085245,735,Experiment,Both,1,Automatic,main,16,20251104-132703,global,local,300,S,H,E,E,S-E.png,E-H.png,sS,hH,mask-2.png,mask-3.png,s,1,0.2965706998948008,h,1,0.2167851000558585,0.047683600103482604,0.047015100019052625,0.09985810006037354,0.10052620014175773,0.3003793000243604
RSVPLG03,sg,20251104-132406,1.0.1,20251020-085245,735,Experiment,Both,1,Automatic,main,17,20251104-132707,local,local,750,S,H,E,A,E-S.png,A-H.png,sS,hH,mask-3.png,mask-4.png,s,1,0.35614700010046363,h,1,0.11141110002063215,0.04750770004466176,0.047499800100922585,0.1015186000149697,0.10152680007740855,0.7518692999146879
RSVPLG03,sg,20251104-132406,1.0.1,20251020-085245,735,Experiment,Both,1,Automatic,main,18,20251104-132711,global,global,300,S,S,A,A,S-A.png,S-A.png,sS,sS,mask-2.png,mask-4.png,s,1,0.38046439993195236,h,0,0.03977960022166371,0.04691020003519952,0.047434099949896336,0.09944420005194843,0.10029749991372228,0.3004000000655651
RSVPLG03,sg,20251104-132406,1.0.1,20251020-085245,735,Experiment,Both,1,Automatic,main,19,20251104-132715,global,local,300,S,S,A,E,S-A.png,E-S.png,sS,sS,mask-3.png,mask-3.png,s,1,0.4368385998532176,s,1,0.21092989994212985,0.04768359987065196,0.04758269991725683,0.10005539981648326,0.09976479993201792,0.2998649999499321
RSVPLG03,sg,20251104-132406,1.0.1,20251020-085245,735,Experiment,Both,1,Automatic,main,20,20251104-132720,local,local,300,H,H,A,A,A-H.png,A-H.png,hH,hH,mask-1.png,mask-4.png,s,0,0.4899967999663204,h,1,0.03552480018697679,0.04766629985533655,0.047673299908638,0.09988059988245368,0.10086359991692007,0.29947649990208447
RSVPLG03,sg,20251104-132406,1.0.1,20251020-085245,735,Experiment,Both,1,Automatic,main,21,20251104-132724,global,local,300,S,H,E,E,S-E.png,E-H.png,sS,hH,mask-3.png,mask-2.png,s,1,0.36652670009061694,h,1,0.029299099929630756,0.04752410016953945,0.047521499916911125,0.09952779999002814,0.10053980001248419,0.29986300016753376
RSVPLG03,sg,20251104-132406,1.0.1,20251020-085245,735,Experiment,Both,1,Automatic,main,22,20251104-132728,local,global,750,H,H,A,E,A-H.png,H-E.png,hH,hH,mask-2.png,mask-2.png,h,1,0.415413900045678,h,1,0.07177849998697639,0.04748840001411736,0.04651760007254779,0.09947480005212128,0.09965019999071956,0.7524256999604404
RSVPLG03,sg,20251104-132406,1.0.1,20251020-085245,735,Experiment,Both,1,Automatic,main,23,20251104-132733,local,local,750,H,H,A,E,A-H.png,E-H.png,hH,hH,mask-4.png,mask-4.png,h,1,0.2964644997846335,h,1,0.08507030014880002,0.04657209990546107,0.046436200151219964,0.09962569992057979,0.09928210009820759,0.75167529983446
RSVPLG03,sg,20251104-132406,1.0.1,20251020-085245,735,Experiment,Both,1,Automatic,main,24,20251104-132737,global,local,750,S,S,A,A,S-A.png,A-S.png,sS,sS,mask-2.png,mask-1.png,s,1,0.40445059980265796,h,0,0.21830249996855855,0.04652359988540411,0.04837609990499914,0.10060260002501309,0.09945710003376007,0.7509236999321729
RSVPLG03,sg,20251104-132406,1.0.1,20251020-085245,735,Experiment,Both,1,Automatic,main,25,20251104-132742,global,global,300,S,S,A,E,S-A.png,S-E.png,sS,sS,mask-4.png,mask-2.png,s,1,0.3378773999866098,s,1,0.11532430001534522,0.04684079997241497,0.04671720019541681,0.09998789988458157,0.09981629997491837,0.3002841998822987
RSVPLG03,sg,20251104-132406,1.0.1,20251020-085245,735,Experiment,Both,1,Automatic,main,26,20251104-132808,global,global,300,H,H,A,E,H-A.png,H-E.png,hH,hH,mask-1.png,mask-2.png,s,0,0.38784489990212023,h,1,0.03690339997410774,0.04869539989158511,0.047687500016763806,0.10083669982850552,0.1003985998686403,0.3008636999875307
RSVPLG03,sg,20251104-132406,1.0.1,20251020-085245,735,Experiment,Both,1,Automatic,main,27,20251104-132812,global,local,750,S,S,A,A,S-A.png,A-S.png,sS,sS,mask-1.png,mask-2.png,h,0,0.8542581000365317,h,0,0.0761544001288712,0.04752619983628392,0.048505499958992004,0.10064059984870255,0.10055550001561642,0.7517464999109507
RSVPLG03,sg,20251104-132406,1.0.1,20251020-085245,735,Experiment,Both,1,Automatic,main,28,20251104-132817,local,global,300,H,S,E,E,E-H.png,S-E.png,hH,sS,mask-1.png,mask-2.png,h,1,0.4195002999622375,s,1,0.1392723999451846,0.047669999999925494,0.047529200091958046,0.09970279992558062,0.09968099999241531,0.30018340004608035
RSVPLG03,sg,20251104-132406,1.0.1,20251020-085245,735,Experiment,Both,1,Automatic,main,29,20251104-132821,local,local,300,S,S,A,E,A-S.png,E-S.png,sS,sS,mask-1.png,mask-3.png,s,1,0.26242429995909333,s,1,0.08790249982848763,0.047496600076556206,0.046492999885231256,0.10049950005486608,0.10048220003955066,0.3021215000189841
RSVPLG03,sg,20251104-132406,1.0.1,20251020-085245,735,Experiment,Both,1,Automatic,main,30,20251104-132826,local,global,300,H,S,A,E,A-H.png,S-E.png,hH,sS,mask-1.png,mask-2.png,h,1,0.41342559992335737,s,1,0.01945789996534586,0.047315599862486124,0.04735979996621609,0.10023609991185367,0.09927649982273579,0.3005301000084728
RSVPLG03,sg,20251104-132406,1.0.1,20251020-085245,735,Experiment,Both,1,Automatic,main,31,20251104-132830,local,global,300,H,S,E,E,E-H.png,S-E.png,hH,sS,mask-4.png,mask-1.png,h,1,0.4295395999215543,s,1,0.10810940014198422,0.048553200205788016,0.047575300093740225,0.10153640015050769,0.10001450008712709,0.30093490006402135
RSVPLG03,sg,20251104-132406,1.0.1,20251020-085245,735,Experiment,Both,1,Automatic,main,32,20251104-132834,local,global,750,H,H,E,A,E-H.png,H-A.png,hH,hH,mask-1.png,mask-4.png,h,1,0.41632710001431406,s,0,0.1167376998346299,0.048702399944886565,0.04855860001407564,0.10171890002675354,0.10101760015822947,0.7521547998767346
RSVPLG03,sg,20251104-132406,1.0.1,20251020-085245,735,Experiment,Both,1,Automatic,main,33,20251104-132839,global,local,300,S,H,E,E,S-E.png,E-H.png,sS,hH,mask-2.png,mask-1.png,s,1,0.4283345998264849,h,1,0.022254599956795573,0.04663149989210069,0.047606300096958876,0.10008219978772104,0.10066500003449619,0.30094129987992346
RSVPLG03,sg,20251104-132406,1.0.1,20251020-085245,735,Experiment,Both,1,Automatic,main,34,20251104-132843,global,global,750,S,S,E,A,S-E.png,S-A.png,sS,sS,mask-2.png,mask-2.png,h,0,0.34549500001594424,h,0,0.07745230011641979,0.04671329981647432,0.0465747001580894,0.10012909979559481,0.10072470013983548,0.7512174998410046
RSVPLG03,sg,20251104-132406,1.0.1,20251020-085245,735,Experiment,Both,1,Automatic,main,35,20251104-132847,global,global,300,H,S,A,E,H-A.png,S-E.png,hH,sS,mask-3.png,mask-3.png,s,0,0.7500312000047415,s,1,0.09150949981994927,0.04865709994919598,0.04846760001964867,0.10175799997523427,0.10069420002400875,0.30077579990029335
RSVPLG03,sg,20251104-132406,1.0.1,20251020-085245,735,Experiment,Both,1,Automatic,main,36,20251104-132852,local,local,750,H,S,A,A,A-H.png,A-S.png,hH,sS,mask-1.png,mask-2.png,h,1,0.3274735000450164,s,1,0.055033199954777956,0.046682699816301465,0.04768000007607043,0.09965640003792942,0.09986339998431504,0.7516135999467224
RSVPLG03,sg,20251104-132406,1.0.1,20251020-085245,735,Experiment,Both,1,Automatic,main,37,20251104-132856,local,local,300,S,S,A,A,A-S.png,A-S.png,sS,sS,mask-1.png,mask-2.png,s,1,0.5284826999995857,s,1,0.23628770001232624,0.04755210014991462,0.047697999980300665,0.100390600040555,0.10077569982968271,0.29957330017350614
RSVPLG03,sg,20251104-132406,1.0.1,20251020-085245,735,Experiment,Both,1,Automatic,main,38,20251104-132901,local,local,750,H,S,A,E,A-H.png,E-S.png,hH,sS,mask-4.png,mask-4.png,h,1,0.3295273999683559,s,1,0.1640576000791043,0.0475878999568522,0.04670800012536347,0.09965099999681115,0.09984800009988248,0.7527548999059945
RSVPLG03,sg,20251104-132406,1.0.1,20251020-085245,735,Experiment,Both,1,Automatic,main,39,20251104-132905,global,local,300,S,S,E,A,S-E.png,A-S.png,sS,sS,mask-2.png,mask-3.png,s,1,0.4606334001291543,h,0,0.21200629998929799,0.048851200146600604,0.04704510001465678,0.09999780007638037,0.10129959997721016,0.3007935001514852
RSVPLG03,sg,20251104-132406,1.0.1,20251020-085245,735,Experiment,Both,1,Automatic,main,40,20251104-132910,global,global,300,S,S,A,E,S-A.png,S-E.png,sS,sS,mask-3.png,mask-3.png,s,1,0.24255329999141395,s,1,0.10902619990520179,0.047578199999406934,0.04740460007451475,0.0996244999114424,0.09942690003663301,0.3005323999095708
RSVPLG03,sg,20251104-132406,1.0.1,20251020-085245,735,Experiment,Both,1,Automatic,main,41,20251104-132914,local,global,300,H,H,A,A,A-H.png,H-A.png,hH,hH,mask-4.png,mask-4.png,h,1,0.36711360001936555,s,0,0.08662049984559417,0.047754700062796474,0.04772640019655228,0.09995039994828403,0.0999222001992166,0.30062599992379546
RSVPLG03,sg,20251104-132406,1.0.1,20251020-085245,735,Experiment,Both,1,Automatic,main,42,20251104-132918,global,local,750,S,H,A,E,S-A.png,E-H.png,sS,hH,mask-1.png,mask-4.png,s,1,0.43155739991925657,h,1,0.12391990004107356,0.04568290011957288,0.047711600083857775,0.09880960010923445,0.09992370009422302,0.7513107000850141
RSVPLG03,sg,20251104-132406,1.0.1,20251020-085245,735,Experiment,Both,1,Automatic,main,43,20251104-132923,global,local,750,S,S,A,E,S-A.png,E-S.png,sS,sS,mask-2.png,mask-1.png,s,1,0.29590010014362633,s,1,0.07172919996082783,0.04767640004865825,0.04754599998705089,0.10046260012313724,0.09973149979487062,0.7522073001600802
RSVPLG03,sg,20251104-132406,1.0.1,20251020-085245,735,Experiment,Both,1,Automatic,main,44,20251104-132927,global,global,750,S,S,A,E,S-A.png,S-E.png,sS,sS,mask-2.png,mask-2.png,s,1,0.4477313000243157,s,1,0.10547210020013154,0.046698200050741434,0.04715730017051101,0.09989010007120669,0.10036869999021292,0.7515744999982417
RSVPLG03,sg,20251104-132406,1.0.1,20251020-085245,735,Experiment,Both,1,Automatic,main,45,20251104-132932,global,local,300,H,S,A,A,H-A.png,A-S.png,hH,sS,mask-1.png,mask-4.png,s,0,0.40546520007774234,s,1,0.07050759997218847,0.04834600002504885,0.04678119998425245,0.09871219983324409,0.0999781999271363,0.3004517999943346
RSVPLG03,sg,20251104-132406,1.0.1,20251020-085245,735,Experiment,Both,1,Automatic,main,46,20251104-132936,global,global,300,S,H,A,E,S-A.png,H-E.png,sS,hH,mask-3.png,mask-2.png,s,1,0.5692553999833763,h,1,0.7419374000746757,0.048586999997496605,0.04758060001768172,0.10166690009646118,0.09863870008848608,0.30302240001037717
RSVPLG03,sg,20251104-132406,1.0.1,20251020-085245,735,Experiment,Both,1,Automatic,main,47,20251104-132941,local,global,750,H,H,A,A,A-H.png,H-A.png,hH,hH,mask-4.png,mask-2.png,s,0,1.0984779000282288,s,0,0.05458060000091791,0.04649550002068281,0.04672039998695254,0.10055100009776652,0.09978529997169971,0.7522449002135545
RSVPLG03,sg,20251104-132406,1.0.1,20251020-085245,735,Experiment,Both,1,Automatic,main,48,20251104-132946,global,global,750,H,S,A,A,H-A.png,S-A.png,hH,sS,mask-4.png,mask-2.png,s,0,0.548543700017035,s,1,0.06922039994969964,0.04770910018123686,0.048640500055626035,0.09995250008068979,0.10078070010058582,0.7511571000795811
RSVPLG03,sg,20251104-132406,1.0.1,20251020-085245,735,Experiment,Both,1,Automatic,main,49,20251104-132951,global,global,300,H,H,A,E,H-A.png,H-E.png,hH,hH,mask-2.png,mask-1.png,h,1,0.7982596999499947,h,1,0.08996219979599118,0.04636530019342899,0.04736989992670715,0.0996315001975745,0.10059379995800555,0.30001380015164614
RSVPLG03,sg,20251104-132406,1.0.1,20251020-085245,735,Experiment,Both,1,Automatic,main,50,20251104-132956,local,local,750,S,H,A,A,A-S.png,A-H.png,sS,hH,mask-3.png,mask-4.png,s,1,0.22052510012872517,h,1,0.01099209999665618,0.04734820011071861,0.046669099945575,0.10111619997769594,0.0998549999203533,0.7529118000529706
RSVPLG03,sg,20251104-132406,1.0.1,20251020-085245,735,Experiment,Both,1,Automatic,main,51,20251104-133107,local,global,300,H,S,A,E,A-H.png,S-E.png,hH,sS,mask-3.png,mask-1.png,s,0,0.509378399932757,s,1,0.018270199885591865,0.04753280011937022,0.04750739992596209,0.10055950004607439,0.10049439989961684,0.3007543000858277
RSVPLG03,sg,20251104-132406,1.0.1,20251020-085245,735,Experiment,Both,1,Automatic,main,52,20251104-133111,global,global,750,S,S,A,A,S-A.png,S-A.png,sS,sS,mask-1.png,mask-1.png,h,0,0.5180276001337916,h,0,0.1197408998850733,0.04928910010494292,0.048562899930402637,0.10168720013462007,0.09972369996830821,0.752090800087899
RSVPLG03,sg,20251104-132406,1.0.1,20251020-085245,735,Experiment,Both,1,Automatic,main,53,20251104-133116,local,global,300,S,H,E,E,E-S.png,H-E.png,sS,hH,mask-1.png,mask-3.png,s,1,0.38340470008552074,h,1,0.06148729985579848,0.04739570012316108,0.047502399887889624,0.10025559994392097,0.09947479981929064,0.3013369000982493
RSVPLG03,sg,20251104-132406,1.0.1,20251020-085245,735,Experiment,Both,1,Automatic,main,54,20251104-133120,local,local,750,H,S,A,E,A-H.png,E-S.png,hH,sS,mask-2.png,mask-2.png,h,1,0.2639099000953138,s,1,0.12836330011487007,0.04863580013625324,0.048606100026518106,0.10164700006134808,0.10158480005338788,0.7523489000741392
RSVPLG03,sg,20251104-132406,1.0.1,20251020-085245,735,Experiment,Both,1,Automatic,main,55,20251104-133124,local,local,300,H,S,E,A,E-H.png,A-S.png,hH,sS,mask-4.png,mask-1.png,h,1,0.2951885999646038,s,1,0.10725150001235306,0.04806749988347292,0.04725089995190501,0.10007889987900853,0.10025249980390072,0.2999307999853045
RSVPLG03,sg,20251104-132406,1.0.1,20251020-085245,735,Experiment,Both,1,Automatic,main,56,20251104-133128,local,global,300,H,S,E,A,E-H.png,S-A.png,hH,sS,mask-1.png,mask-1.png,h,1,0.31466679996810853,s,1,0.06893439986743033,0.04748960002325475,0.04748990014195442,0.09934910014271736,0.09947900008410215,0.3004095000214875
RSVPLG03,sg,20251104-132406,1.0.1,20251020-085245,735,Experiment,Both,1,Automatic,main,57,20251104-133132,global,local,300,S,S,A,A,S-A.png,A-S.png,sS,sS,mask-4.png,mask-1.png,s,1,0.6025658999569714,s,1,0.10217670002020895,0.046494000125676394,0.046552800107747316,0.0995769000146538,0.09963469998911023,0.30016350001096725
RSVPLG03,sg,20251104-132406,1.0.1,20251020-085245,735,Experiment,Both,1,Automatic,main,58,20251104-133137,local,global,750,S,H,A,A,A-S.png,H-A.png,sS,hH,mask-2.png,mask-1.png,s,1,0.39918540022335947,h,1,0.10566950007341802,0.04767210013233125,0.046663800021633506,0.0998647001106292,0.10084949992597103,0.751533200033009
RSVPLG03,sg,20251104-132406,1.0.1,20251020-085245,735,Experiment,Both,1,Automatic,main,59,20251104-133141,global,local,750,S,S,A,A,S-A.png,A-S.png,sS,sS,mask-4.png,mask-4.png,s,1,0.28008779999800026,s,1,0.10361859994009137,0.047655300004407763,0.04767670016735792,0.10083019989542663,0.09986990015022457,0.7525563999079168
RSVPLG03,sg,20251104-132406,1.0.1,20251020-085245,735,Experiment,Both,1,Automatic,main,60,20251104-133146,local,local,750,S,H,A,A,A-S.png,A-H.png,sS,hH,mask-3.png,mask-3.png,s,1,0.2914281999692321,h,1,0.15886680013500154,0.04853920009918511,0.047666799975559115,0.1015633000060916,0.09887599991634488,0.7535721000749618
RSVPLG03,sg,20251104-132406,1.0.1,20251020-085245,735,Experiment,Both,1,Automatic,main,61,20251104-133151,local,global,300,S,H,A,A,A-S.png,H-A.png,sS,hH,mask-1.png,mask-1.png,s,1,0.4913294001016766,s,0,0.1666865001898259,0.046799999894574285,0.04644179996103048,0.1000177999958396,0.10004470008425415,0.3015844998881221
RSVPLG03,sg,20251104-132406,1.0.1,20251020-085245,735,Experiment,Both,1,Automatic,main,62,20251104-133155,global,global,750,H,H,A,E,H-A.png,H-E.png,hH,hH,mask-4.png,mask-4.png,h,1,0.22869540005922318,h,1,0.07803460001014173,0.04700989997945726,0.047692100051790476,0.0988926999270916,0.09973519993945956,0.7514965999871492
RSVPLG03,sg,20251104-132406,1.0.1,20251020-085245,735,Experiment,Both,1,Automatic,main,63,20251104-133159,local,global,750,S,H,A,A,A-S.png,H-A.png,sS,hH,mask-2.png,mask-3.png,s,1,0.3900162000209093,h,1,0.07431429997086525,0.04884970001876354,0.047527199843898416,0.10198340006172657,0.10061939992010593,0.7529680000152439
RSVPLG03,sg,20251104-132406,1.0.1,20251020-085245,735,Experiment,Both,1,Automatic,main,64,20251104-133204,global,global,300,S,H,E,E,S-E.png,H-E.png,sS,hH,mask-3.png,mask-4.png,s,1,0.7008761998731643,h,1,0.07230750005692244,0.047632900066673756,0.047730599995702505,0.1015592000912875,0.10023900005035102,0.30087570007890463
RSVPLG03,sg,20251104-132406,1.0.1,20251020-085245,735,Experiment,Both,1,Automatic,main,65,20251104-133208,global,local,750,H,H,A,E,H-A.png,E-H.png,hH,hH,mask-3.png,mask-4.png,h,1,0.3955945000052452,h,1,0.10898849996738136,0.049530799966305494,0.04732059990055859,0.10171260009519756,0.10038509988225996,0.7524620001204312
RSVPLG03,sg,20251104-132406,1.0.1,20251020-085245,735,Experiment,Both,1,Automatic,main,66,20251104-133213,local,local,750,S,H,A,A,A-S.png,A-H.png,sS,hH,mask-4.png,mask-4.png,s,1,0.3130626999773085,h,1,0.05903000012040138,0.04751639999449253,0.04752429993823171,0.10050579998642206,0.10053099994547665,0.7515982000622898
RSVPLG03,sg,20251104-132406,1.0.1,20251020-085245,735,Experiment,Both,1,Automatic,main,67,20251104-133217,local,global,300,H,H,E,E,E-H.png,H-E.png,hH,hH,mask-4.png,mask-4.png,h,1,0.6740693999454379,h,1,0.10859169997274876,0.04851519991643727,0.04955550003796816,0.10095439990982413,0.10067409998737276,0.30033909995108843
RSVPLG03,sg,20251104-132406,1.0.1,20251020-085245,735,Experiment,Both,1,Automatic,main,68,20251104-133222,global,local,750,S,H,A,E,S-A.png,E-H.png,sS,hH,mask-4.png,mask-1.png,s,1,0.2769686998799443,h,1,0.18617340014316142,0.04754119995050132,0.04756570002064109,0.10054909996688366,0.10057429992593825,0.7516799999866635
RSVPLG03,sg,20251104-132406,1.0.1,20251020-085245,735,Experiment,Both,1,Automatic,main,69,20251104-133226,global,local,300,H,S,E,E,H-E.png,E-S.png,hH,sS,mask-2.png,mask-1.png,h,1,1.6383052999153733,s,1,0.13905830006115139,0.048441800056025386,0.048392299795523286,0.10029270011000335,0.1002542998176068,0.3001932001207024
RSVPLG03,sg,20251104-132406,1.0.1,20251020-085245,735,Experiment,Both,1,Automatic,main,70,20251104-133232,global,global,750,S,H,E,A,S-E.png,H-A.png,sS,hH,mask-1.png,mask-4.png,s,1,0.30750049999915063,h,1,0.11830789991654456,0.048443700186908245,0.04750810004770756,0.10033260006457567,0.10053850011900067,0.7530010000336915
RSVPLG03,sg,20251104-132406,1.0.1,20251020-085245,735,Experiment,Both,1,Automatic,main,71,20251104-133236,global,local,300,S,H,A,A,S-A.png,A-H.png,sS,hH,mask-1.png,mask-2.png,s,1,0.4294537999667227,h,1,0.298899200046435,0.047080900054425,0.049046800006181,0.09942100010812283,0.10020559979602695,0.30001080012880266
RSVPLG03,sg,20251104-132406,1.0.1,20251020-085245,735,Experiment,Both,1,Automatic,main,72,20251104-133241,local,global,750,H,S,E,A,E-H.png,S-A.png,hH,sS,mask-3.png,mask-1.png,s,0,0.6363074998371303,s,1,0.14903689990751445,0.0464816999156028,0.04906350001692772,0.10058710002340376,0.10008769994601607,0.7504183000419289
RSVPLG03,sg,20251104-132406,1.0.1,20251020-085245,735,Experiment,Both,1,Automatic,main,73,20251104-133246,local,local,750,S,S,A,E,A-S.png,E-S.png,sS,sS,mask-1.png,mask-3.png,s,1,0.4046561000868678,s,1,0.1224198997952044,0.04756259988062084,0.047691799933090806,0.10082689998671412,0.099764300044626,0.7524055000394583
RSVPLG03,sg,20251104-132406,1.0.1,20251020-085245,735,Experiment,Both,1,Automatic,main,74,20251104-133250,local,local,750,H,H,A,A,A-H.png,A-H.png,hH,hH,mask-3.png,mask-1.png,s,0,0.3712481998372823,h,1,0.06720989989116788,0.04849439999088645,0.04773019999265671,0.10054089990444481,0.09936739993281662,0.7525975999888033
RSVPLG03,sg,20251104-132406,1.0.1,20251020-085245,735,Experiment,Both,1,Automatic,main,75,20251104-133255,global,global,750,H,S,A,E,H-A.png,S-E.png,hH,sS,mask-3.png,mask-2.png,h,1,0.31099810008890927,s,1,0.07646570005454123,0.04722129995934665,0.04664129996672273,0.10036559985019267,0.10071150003932416,0.7512389998883009
RSVPLG03,sg,20251104-132406,1.0.1,20251020-085245,735,Experiment,Both,1,Automatic,main,76,20251104-133320,local,local,300,H,H,A,E,A-H.png,E-H.png,hH,hH,mask-3.png,mask-2.png,s,0,1.6292258000466973,h,1,1.725118099944666,0.04750960017554462,0.04749749996699393,0.10056980000808835,0.09959260001778603,0.30080600013025105
RSVPLG03,sg,20251104-132406,1.0.1,20251020-085245,735,Experiment,Both,1,Automatic,main,77,20251104-133325,local,local,300,H,H,E,A,E-H.png,A-H.png,hH,hH,mask-1.png,mask-2.png,h,1,0.2318714999128133,h,1,0.15320319985039532,0.04750350001268089,0.048373700119554996,0.10049450001679361,0.10122129996307194,0.29899989999830723
RSVPLG03,sg,20251104-132406,1.0.1,20251020-085245,735,Experiment,Both,1,Automatic,main,78,20251104-133329,local,global,750,H,S,A,A,A-H.png,S-A.png,hH,sS,mask-4.png,mask-3.png,h,1,0.376836100127548,s,1,0.11035380000248551,0.04756249999627471,0.048518599942326546,0.09956220001913607,0.10158889996819198,0.7509308999869972
RSVPLG03,sg,20251104-132406,1.0.1,20251020-085245,735,Experiment,Both,1,Automatic,main,79,20251104-133334,local,local,750,H,H,E,E,E-H.png,E-H.png,hH,hH,mask-2.png,mask-1.png,h,1,0.2506427001208067,h,1,0.056292599998414516,0.04750350001268089,0.04753759992308915,0.1005491001997143,0.10154509986750782,0.7506382002029568
RSVPLG03,sg,20251104-132406,1.0.1,20251020-085245,735,Experiment,Both,1,Automatic,main,80,20251104-133338,global,local,750,S,H,A,E,S-A.png,E-H.png,sS,hH,mask-4.png,mask-2.png,h,0,0.34718989999964833,h,1,0.06762540014460683,0.047420699847862124,0.04780189995653927,0.1015905998647213,0.10000430000945926,0.7518279999494553
RSVPLG03,sg,20251104-132406,1.0.1,20251020-085245,735,Experiment,Both,1,Automatic,main,81,20251104-133343,local,local,750,H,H,E,A,E-H.png,A-H.png,hH,hH,mask-4.png,mask-3.png,h,1,0.2950788999442011,h,1,0.0740578998811543,0.04860679991543293,0.04647649987600744,0.10063659981824458,0.09876289987005293,0.7534843999892473
RSVPLG03,sg,20251104-132406,1.0.1,20251020-085245,735,Experiment,Both,1,Automatic,main,82,20251104-133347,global,global,750,S,S,E,E,S-E.png,S-E.png,sS,sS,mask-4.png,mask-4.png,h,0,0.4658735999837518,h,0,0.11327490000985563,0.048718699952587485,0.04867240018211305,0.10019179992377758,0.10087050008587539,0.751289299922064
RSVPLG03,sg,20251104-132406,1.0.1,20251020-085245,735,Experiment,Both,1,Automatic,main,83,20251104-133352,global,global,300,S,S,A,E,S-A.png,S-E.png,sS,sS,mask-4.png,mask-3.png,s,1,0.4184723000507802,s,1,0.09055540012195706,0.048696199897676706,0.0476887000259012,0.09985350002534688,0.0997726998757571,0.30148210003972054
RSVPLG03,sg,20251104-132406,1.0.1,20251020-085245,735,Experiment,Both,1,Automatic,main,84,20251104-133356,global,global,750,H,S,E,A,H-E.png,S-A.png,hH,sS,mask-4.png,mask-3.png,h,1,0.6042657000944018,s,1,0.056183299981057644,0.0474053998477757,0.0475399000570178,0.10125850001350045,0.0987436999566853,0.753442799905315
RSVPLG03,sg,20251104-132406,1.0.1,20251020-085245,735,Experiment,Both,1,Automatic,main,85,20251104-133401,local,local,300,S,S,A,E,A-S.png,E-S.png,sS,sS,mask-2.png,mask-1.png,s,1,0.3307767999358475,s,1,0.11745780007913709,0.04763350007124245,0.046343700028955936,0.10071090003475547,0.10049470001831651,0.3010641001164913
RSVPLG03,sg,20251104-132406,1.0.1,20251020-085245,735,Experiment,Both,1,Automatic,main,86,20251104-133405,local,global,300,S,S,A,E,A-S.png,S-E.png,sS,sS,mask-2.png,mask-2.png,s,1,0.5557772999163717,s,1,0.11768890009261668,0.04722719988785684,0.04672860004939139,0.10044680000282824,0.0998850001487881,0.3002026998437941
RSVPLG03,sg,20251104-132406,1.0.1,20251020-085245,735,Experiment,Both,1,Automatic,main,87,20251104-133410,local,global,750,H,S,E,A,E-H.png,S-A.png,hH,sS,mask-4.png,mask-3.png,s,0,0.7209217001218349,s,1,0.09145949990488589,0.04650190006941557,0.047671200009062886,0.09966000006534159,0.09987320005893707,0.7519777999259531
RSVPLG03,sg,20251104-132406,1.0.1,20251020-085245,735,Experiment,Both,1,Automatic,main,88,20251104-133415,global,global,750,S,H,A,E,S-A.png,H-E.png,sS,hH,mask-3.png,mask-4.png,s,1,0.6777560000773519,h,1,0.10261139995418489,0.04767829994671047,0.046677100006490946,0.09989169985055923,0.0991601999849081,0.7520073999185115
RSVPLG03,sg,20251104-132406,1.0.1,20251020-085245,735,Experiment,Both,1,Automatic,main,89,20251104-133420,global,global,300,S,S,A,A,S-A.png,S-A.png,sS,sS,mask-3.png,mask-3.png,s,1,0.32782000000588596,s,1,0.0819043000228703,0.04795049992389977,0.04754800000227988,0.10030649998225272,0.10020660003647208,0.299701499985531
RSVPLG03,sg,20251104-132406,1.0.1,20251020-085245,735,Experiment,Both,1,Automatic,main,90,20251104-133424,global,local,300,S,H,E,A,S-E.png,A-H.png,sS,hH,mask-2.png,mask-1.png,s,1,0.39148580003529787,h,1,0.0884674999397248,0.047690399922430515,0.04779940005391836,0.1004611998796463,0.10056499997153878,0.3005966998171061
RSVPLG03,sg,20251104-132406,1.0.1,20251020-085245,735,Experiment,Both,1,Automatic,main,91,20251104-133428,local,local,750,S,S,A,E,A-S.png,E-S.png,sS,sS,mask-2.png,mask-4.png,s,1,0.4555816000793129,s,1,0.39533809991553426,0.04770850017666817,0.04668969986960292,0.10081510012969375,0.09870089986361563,0.7530492001678795
RSVPLG03,sg,20251104-132406,1.0.1,20251020-085245,735,Experiment,Both,1,Automatic,main,92,20251104-133433,global,local,750,H,H,A,A,H-A.png,A-H.png,hH,hH,mask-2.png,mask-2.png,h,1,0.39328949991613626,h,1,0.12313849991187453,0.04696390009485185,0.04757570009678602,0.10016210004687309,0.10042949998751283,0.7520179999992251
RSVPLG03,sg,20251104-132406,1.0.1,20251020-085245,735,Experiment,Both,1,Automatic,main,93,20251104-133437,local,global,300,H,S,E,A,E-H.png,S-A.png,hH,sS,mask-3.png,mask-2.png,s,0,0.5831124000251293,h,0,0.058203900000080466,0.046716699842363596,0.048385299975052476,0.0996289998292923,0.1012903000228107,0.30062919994816184
RSVPLG03,sg,20251104-132406,1.0.1,20251020-085245,735,Experiment,Both,1,Automatic,main,94,20251104-133442,global,global,750,H,S,A,E,H-A.png,S-E.png,hH,sS,mask-3.png,mask-2.png,h,1,0.33458400005474687,s,1,0.19814720004796982,0.04768140008673072,0.0476887000259012,0.10096119996160269,0.09987640008330345,0.7528715999796987
RSVPLG03,sg,20251104-132406,1.0.1,20251020-085245,735,Experiment,Both,1,Automatic,main,95,20251104-133446,local,global,750,H,H,E,A,E-H.png,H-A.png,hH,hH,mask-3.png,mask-4.png,s,0,1.417511299951002,s,0,0.028490500058978796,0.04850070015527308,0.04721809993498027,0.10053719999268651,0.10027859988622367,0.7525772000662982
RSVPLG03,sg,20251104-132406,1.0.1,20251020-085245,735,Experiment,Both,1,Automatic,main,96,20251104-133452,global,global,750,H,H,E,E,H-E.png,H-E.png,hH,hH,mask-2.png,mask-3.png,h,1,0.5739945000968874,h,1,0.0766990000847727,0.04636550019495189,0.046792499953880906,0.09862170019187033,0.09998019994236529,0.7513648001477122
RSVPLG03,sg,20251104-132406,1.0.1,20251020-085245,735,Experiment,Both,1,Automatic,main,97,20251104-133457,local,local,750,H,S,A,A,A-H.png,A-S.png,hH,sS,mask-1.png,mask-1.png,s,0,0.615393599960953,s,1,0.07392309978604317,0.04750829981639981,0.04713959991931915,0.10034239990636706,0.09829519991762936,0.7521478999406099
RSVPLG03,sg,20251104-132406,1.0.1,20251020-085245,735,Experiment,Both,1,Automatic,main,98,20251104-133502,global,local,750,H,S,E,A,H-E.png,A-S.png,hH,sS,mask-2.png,mask-4.png,h,1,0.3650884998496622,s,1,0.09971629991196096,0.0466263999696821,0.047591400099918246,0.09971880004741251,0.09987290017306805,0.7519731000065804
RSVPLG03,sg,20251104-132406,1.0.1,20251020-085245,735,Experiment,Both,1,Automatic,main,99,20251104-133507,global,local,750,H,S,E,E,H-E.png,E-S.png,hH,sS,mask-2.png,mask-2.png,h,1,0.26312460005283356,s,1,0.18721810006536543,0.045806300127878785,0.04750739992596209,0.09987489995546639,0.10055439989082515,0.7516672001220286
RSVPLG03,sg,20251104-132406,1.0.1,20251020-085245,735,Experiment,Both,1,Automatic,main,100,20251104-133511,global,global,750,S,S,A,A,S-A.png,S-A.png,sS,sS,mask-4.png,mask-3.png,s,1,0.3452491001226008,s,1,0.125020100036636,0.04755229991860688,0.047573700081557035,0.10062699997797608,0.10137510020285845,0.7504637998063117
RSVPLG03,sg,20251104-132406,1.0.1,20251020-085245,735,Experiment,Both,1,Automatic,main,101,20251104-133614,global,global,750,H,H,A,E,H-A.png,H-E.png,hH,hH,mask-3.png,mask-2.png,s,0,0.42264009988866746,h,1,0.09055749978870153,0.04750479990616441,0.048694000113755465,0.10066039999946952,0.09986270009540021,0.7517444000113755
RSVPLG03,sg,20251104-132406,1.0.1,20251020-085245,735,Experiment,Both,1,Automatic,main,102,20251104-133619,local,global,750,S,S,E,A,E-S.png,S-A.png,sS,sS,mask-4.png,mask-1.png,s,1,0.5982399999629706,s,1,0.10874629998579621,0.04755240003578365,0.04859840008430183,0.10060930019244552,0.09961259993724525,0.7511146001052111
RSVPLG03,sg,20251104-132406,1.0.1,20251020-085245,735,Experiment,Both,1,Automatic,main,103,20251104-133623,local,global,750,H,S,E,A,E-H.png,S-A.png,hH,sS,mask-2.png,mask-1.png,h,1,0.2854511998593807,s,1,0.10404239990748465,0.048470000037923455,0.04749889997765422,0.10055799991823733,0.10162459989078343,0.7522680000402033
RSVPLG03,sg,20251104-132406,1.0.1,20251020-085245,735,Experiment,Both,1,Automatic,main,104,20251104-133628,local,local,300,H,S,E,A,E-H.png,A-S.png,hH,sS,mask-2.png,mask-2.png,h,1,0.236312200082466,s,1,0.05246789986267686,0.0467266000341624,0.048733900068327785,0.0999503000639379,0.10008220002055168,0.29971239995211363
RSVPLG03,sg,20251104-132406,1.0.1,20251020-085245,735,Experiment,Both,1,Automatic,main,105,20251104-133632,local,local,300,S,H,E,E,E-S.png,E-H.png,sS,hH,mask-1.png,mask-2.png,s,1,0.31625989987514913,h,1,0.049650900065898895,0.04663169989362359,0.04872819990850985,0.09955409984104335,0.10001579998061061,0.3000672999769449
RSVPLG03,sg,20251104-132406,1.0.1,20251020-085245,735,Experiment,Both,1,Automatic,main,106,20251104-133636,global,global,300,H,H,E,A,H-E.png,H-A.png,hH,hH,mask-1.png,mask-3.png,h,1,0.2225351999513805,h,1,0.07624229998327792,0.0474862998817116,0.047538600163534284,0.10150839993730187,0.10053639998659492,0.3016595998778939
RSVPLG03,sg,20251104-132406,1.0.1,20251020-085245,735,Experiment,Both,1,Automatic,main,107,20251104-133640,global,local,300,H,S,E,E,H-E.png,E-S.png,hH,sS,mask-2.png,mask-3.png,h,1,1.0001542998943478,s,1,0.6847560000605881,0.046563999960199,0.04761050012893975,0.09865519986487925,0.10163399996235967,0.29908759985119104
RSVPLG03,sg,20251104-132406,1.0.1,20251020-085245,735,Experiment,Both,1,Automatic,main,108,20251104-133645,local,global,750,S,S,E,E,E-S.png,S-E.png,sS,sS,mask-3.png,mask-3.png,s,1,0.3384865999687463,h,0,0.066621899837628,0.047516100108623505,0.04651969997212291,0.10063130012713373,0.10052330000326037,0.7516105000395328
RSVPLG03,sg,20251104-132406,1.0.1,20251020-085245,735,Experiment,Both,1,Automatic,main,109,20251104-133650,global,local,750,H,S,A,E,H-A.png,E-S.png,hH,sS,mask-1.png,mask-2.png,h,1,0.15393259981647134,s,1,0.06865809997543693,0.047487499890848994,0.047348499996587634,0.10057669994421303,0.09871240006759763,0.752280900022015
RSVPLG03,sg,20251104-132406,1.0.1,20251020-085245,735,Experiment,Both,1,Automatic,main,110,20251104-133654,global,local,300,H,H,A,E,H-A.png,E-H.png,hH,hH,mask-3.png,mask-1.png,h,1,0.33089759992435575,h,1,0.18830149993300438,0.04846479999832809,0.047522300155833364,0.1008189998101443,0.09953110013157129,0.30126609979197383
RSVPLG03,sg,20251104-132406,1.0.1,20251020-085245,735,Experiment,Both,1,Automatic,main,111,20251104-133659,local,local,300,S,H,E,A,E-S.png,A-H.png,sS,hH,mask-1.png,mask-3.png,s,1,0.6908138999715447,h,1,0.11938030016608536,0.04754059994593263,0.04749589995481074,0.09953220002353191,0.10147290001623333,0.3001149999909103
RSVPLG03,sg,20251104-132406,1.0.1,20251020-085245,735,Experiment,Both,1,Automatic,main,112,20251104-133703,global,local,750,H,S,E,E,H-E.png,E-S.png,hH,sS,mask-3.png,mask-3.png,h,1,0.13390540005639195,s,1,0.07084119995124638,0.04753169999457896,0.0465834999922663,0.10089859995059669,0.09966000006534159,0.7526873999740928
RSVPLG03,sg,20251104-132406,1.0.1,20251020-085245,735,Experiment,Both,1,Automatic,main,113,20251104-133708,global,local,300,H,S,E,E,H-E.png,E-S.png,hH,sS,mask-4.png,mask-3.png,h,1,0.30974049982614815,s,1,0.058044000063091516,0.04737880011089146,0.04748809989541769,0.1003519999794662,0.10046049999073148,0.300565600162372
RSVPLG03,sg,20251104-132406,1.0.1,20251020-085245,735,Experiment,Both,1,Automatic,main,114,20251104-133712,local,local,300,H,S,A,A,A-H.png,A-S.png,hH,sS,mask-1.png,mask-4.png,h,1,0.2501024999655783,s,1,0.12136599980294704,0.04752209992147982,0.04753739992156625,0.10153539991006255,0.10052530001848936,0.3017619999591261
RSVPLG03,sg,20251104-132406,1.0.1,20251020-085245,735,Experiment,Both,1,Automatic,main,115,20251104-133716,global,local,750,H,H,E,A,H-E.png,A-H.png,hH,hH,mask-3.png,mask-1.png,h,1,0.47198449983261526,s,0,0.0916434999089688,0.04856280004605651,0.04745509987697005,0.10053719999268651,0.10065999999642372,0.7519076000899076
RSVPLG03,sg,20251104-132406,1.0.1,20251020-085245,735,Experiment,Both,1,Automatic,main,116,20251104-133721,local,global,750,S,S,A,A,A-S.png,S-A.png,sS,sS,mask-1.png,mask-1.png,s,1,0.17121249996125698,h,0,0.15194209991022944,0.04754339996725321,0.04681869992054999,0.10006189998239279,0.09976579993963242,0.7511752999853343
RSVPLG03,sg,20251104-132406,1.0.1,20251020-085245,735,Experiment,Both,1,Automatic,main,117,20251104-133725,global,local,750,H,H,E,A,H-E.png,A-H.png,hH,hH,mask-2.png,mask-3.png,h,1,0.47216030000709,h,1,0.0713120000436902,0.04768819990567863,0.04770990018732846,0.0997531998436898,0.10017180000431836,0.7515836998354644
RSVPLG03,sg,20251104-132406,1.0.1,20251020-085245,735,Experiment,Both,1,Automatic,main,118,20251104-133730,global,global,300,S,S,E,E,S-E.png,S-E.png,sS,sS,mask-1.png,mask-1.png,s,1,0.3164797001518309,s,1,0.09924530005082488,0.04664839990437031,0.048585099866613746,0.09983179997652769,0.10088609997183084,0.2995015000924468
RSVPLG03,sg,20251104-132406,1.0.1,20251020-085245,735,Experiment,Both,1,Automatic,main,119,20251104-133734,local,global,300,H,H,A,A,A-H.png,H-A.png,hH,hH,mask-4.png,mask-4.png,h,1,0.7146801000926644,s,0,0.10823329980485141,0.04886110010556877,0.048744500149041414,0.10054230014793575,0.10185989993624389,0.3003899999894202
RSVPLG03,sg,20251104-132406,1.0.1,20251020-085245,735,Experiment,Both,1,Automatic,main,120,20251104-133739,global,local,300,H,H,A,E,H-A.png,E-H.png,hH,hH,mask-4.png,mask-2.png,h,1,0.36561829992569983,h,1,0.0858870001975447,0.04791509988717735,0.046913000056520104,0.101059400010854,0.0990937000606209,0.3024331999476999
RSVPLG03,sg,20251104-132406,1.0.1,20251020-085245,735,Experiment,Both,1,Automatic,main,121,20251104-133743,global,global,750,H,H,E,E,H-E.png,H-E.png,hH,hH,mask-2.png,mask-1.png,h,1,0.5037020000163466,h,1,0.11993080005049706,0.04764689994044602,0.047626900020986795,0.09917049994692206,0.09967419994063675,0.7523135000374168
RSVPLG03,sg,20251104-132406,1.0.1,20251020-085245,735,Experiment,Both,1,Automatic,main,122,20251104-133747,global,local,300,S,S,A,E,S-A.png,E-S.png,sS,sS,mask-1.png,mask-4.png,s,1,0.2541879001073539,s,1,0.08520209998823702,0.047196799889206886,0.04755489993840456,0.10023719980381429,0.1005536001175642,0.29967179987579584
RSVPLG03,sg,20251104-132406,1.0.1,20251020-085245,735,Experiment,Both,1,Automatic,main,123,20251104-133752,local,global,300,H,H,E,E,E-H.png,H-E.png,hH,hH,mask-1.png,mask-4.png,h,1,0.5072628001216799,s,0,0.043447199976071715,0.04824690008535981,0.048876200104132295,0.10091660008765757,0.10086000012233853,0.3009132998995483
RSVPLG03,sg,20251104-132406,1.0.1,20251020-085245,735,Experiment,Both,1,Automatic,main,124,20251104-133756,local,local,300,S,S,E,A,E-S.png,A-S.png,sS,sS,mask-4.png,mask-2.png,s,1,1.035420099971816,h,0,0.02557229995727539,0.04752049990929663,0.04957160004414618,0.10051799984648824,0.10157159995287657,0.29903759993612766
RSVPLG03,sg,20251104-132406,1.0.1,20251020-085245,735,Experiment,Both,1,Automatic,main,125,20251104-133801,local,global,750,H,H,A,A,A-H.png,H-A.png,hH,hH,mask-4.png,mask-1.png,h,1,0.34839960001409054,s,0,0.02127719996497035,0.04862009990029037,0.047401199815794826,0.10155629995279014,0.10024289996363223,0.7522650000173599
RSVPLG03,sg,20251104-133849,1.0.1,20251020-085245,735,Experiment,Both,1,Automatic,warmup,1,20251104-133920,global,global,750,S,H,A,A,S-A.png,H-A.png,sS,hH,mask-1.png,mask-3.png,h,0,0.4568843001034111,h,1,0.08628519997000694,0.04034269996918738,0.04693269985727966,0.09295769990421832,0.10011540004052222,0.7435145999770612
RSVPLG03,sg,20251104-133849,1.0.1,20251020-085245,735,Experiment,Both,1,Automatic,warmup,2,20251104-133924,local,local,750,H,H,E,A,E-H.png,A-H.png,hH,hH,mask-4.png,mask-3.png,h,1,0.2938546999357641,h,1,0.06581790000200272,0.047050500055775046,0.04802009998820722,0.09941689996048808,0.1002468999940902,0.7497781000565737
RSVPLG03,sg,20251104-133849,1.0.1,20251020-085245,735,Experiment,Both,1,Automatic,warmup,3,20251104-133929,global,global,300,H,S,E,E,H-E.png,S-E.png,hH,sS,mask-4.png,mask-1.png,h,1,0.5415827999822795,h,0,0.07007819996215403,0.04767400003038347,0.04867559997364879,0.0987436999566853,0.10088549996726215,0.2984128000680357
RSVPLG03,sg,20251104-133849,1.0.1,20251020-085245,735,Experiment,Both,1,Automatic,warmup,4,20251104-133933,local,local,300,H,S,E,E,E-H.png,E-S.png,hH,sS,mask-1.png,mask-4.png,h,1,1.702145399991423,h,0,0.07524990011006594,0.047473000129684806,0.048507400089874864,0.10146580007858574,0.09948400012217462,0.3006919000763446
RSVPLG03,sg,20251104-133849,1.0.1,20251020-085245,735,Experiment,Both,1,Automatic,warmup,5,20251104-133939,local,global,300,S,S,E,A,E-S.png,S-A.png,sS,sS,mask-1.png,mask-2.png,s,1,0.46589950006455183,h,0,0.17734189983457327,0.04751179995946586,0.045783199835568666,0.09955339995212853,0.09808419994078577,0.3008202000055462
RSVPLG03,sg,20251104-133849,1.0.1,20251020-085245,735,Experiment,Both,1,Automatic,main,6,20251104-133943,global,local,750,S,S,A,A,S-A.png,A-S.png,sS,sS,mask-3.png,mask-1.png,s,1,0.61984259984456,h,0,0.17381699988618493,0.04750500014051795,0.046839999966323376,0.10050540021620691,0.09990489995107055,0.7504950000438839
RSVPLG03,sg,20251104-133849,1.0.1,20251020-085245,735,Experiment,Both,1,Automatic,main,7,20251104-133948,global,global,300,H,H,A,E,H-A.png,H-E.png,hH,hH,mask-4.png,mask-2.png,h,1,1.311494000023231,h,1,0.06572040007449687,0.048496600007638335,0.047861999832093716,0.10047820000909269,0.1008823998272419,0.2998250999953598
RSVPLG03,sg,20251104-133849,1.0.1,20251020-085245,735,Experiment,Both,1,Automatic,main,8,20251104-133953,global,local,300,S,S,A,E,S-A.png,E-S.png,sS,sS,mask-3.png,mask-2.png,s,1,0.6698590000160038,h,0,0.061425300082191825,0.04750450002029538,0.04849620000459254,0.10149769997224212,0.10050310008227825,0.30075889988802373
RSVPLG03,sg,20251104-133849,1.0.1,20251020-085245,735,Experiment,Both,1,Automatic,main,9,20251104-133957,global,global,300,H,H,A,A,H-A.png,H-A.png,hH,hH,mask-2.png,mask-3.png,h,1,0.6271337999496609,h,1,0.15758110000751913,0.04651240003295243,0.04857559991069138,0.09952419996261597,0.10060009988956153,0.2988996000494808
RSVPLG03,sg,20251104-133849,1.0.1,20251020-085245,735,Experiment,Both,1,Automatic,main,10,20251104-134002,local,local,750,H,H,A,E,A-H.png,E-H.png,hH,hH,mask-3.png,mask-3.png,h,1,1.6668622000142932,s,0,0.010203199926763773,0.049138200003653765,0.04893990000709891,0.10135510005056858,0.10009860014542937,0.7501995000056922
RSVPLG03,sg,20251104-133849,1.0.1,20251020-085245,735,Experiment,Both,1,Automatic,main,11,20251104-134008,global,local,750,S,S,E,E,S-E.png,E-S.png,sS,sS,mask-2.png,mask-4.png,s,1,0.4928782000206411,s,1,0.11787530011497438,0.04865309991873801,0.047657900024205446,0.10186729999259114,0.09988410002551973,0.7503812999930233
RSVPLG03,sg,20251104-133849,1.0.1,20251020-085245,735,Experiment,Both,1,Automatic,main,12,20251104-134012,local,local,300,H,S,E,A,E-H.png,A-S.png,hH,sS,mask-2.png,mask-1.png,h,1,0.5079045000020415,s,1,0.07309940014965832,0.047766500152647495,0.04759400011971593,0.09878940018825233,0.10013279994018376,0.30030820006504655
RSVPLG03,sg,20251104-133849,1.0.1,20251020-085245,735,Experiment,Both,1,Automatic,main,13,20251104-134017,local,local,750,S,H,A,A,A-S.png,A-H.png,sS,hH,mask-1.png,mask-3.png,s,1,0.39456789987161756,h,1,0.10949659999459982,0.046539400005713105,0.046877099899575114,0.09969669999554753,0.10009060008451343,0.7496726999524981
RSVPLG03,sg,20251104-133849,1.0.1,20251020-085245,735,Experiment,Both,1,Automatic,main,14,20251104-134021,local,global,750,H,S,A,E,A-H.png,S-E.png,hH,sS,mask-1.png,mask-1.png,h,1,1.2462053000926971,h,0,0.06910900003276765,0.047780999913811684,0.047668999992311,0.09995309985242784,0.09985760017298162,0.7495426998939365
RSVPLG03,sg,20251104-133849,1.0.1,20251020-085245,735,Experiment,Both,1,Automatic,main,15,20251104-134027,global,global,300,H,S,E,E,H-E.png,S-E.png,hH,sS,mask-2.png,mask-1.png,h,1,0.4226522999815643,s,1,0.04277820000424981,0.048604700015857816,0.0486067000310868,0.10170609992928803,0.09979190002195537,0.3004457999486476
RSVPLG03,sg,20251104-133849,1.0.1,20251020-085245,735,Experiment,Both,1,Automatic,main,16,20251104-134031,global,global,750,H,S,E,E,H-E.png,S-E.png,hH,sS,mask-4.png,mask-3.png,h,1,0.2890699999406934,s,1,0.02480960008688271,0.04750009998679161,0.048527900129556656,0.09872959996573627,0.09974279999732971,0.7490880999248475
RSVPLG03,sg,20251104-133849,1.0.1,20251020-085245,735,Experiment,Both,1,Automatic,main,17,20251104-134035,local,global,300,S,S,E,A,E-S.png,S-A.png,sS,sS,mask-2.png,mask-1.png,s,1,0.8134953998960555,h,0,0.05240879999473691,0.04653410008177161,0.04750200011767447,0.09959010011516511,0.1006392000708729,0.29901900002732873
RSVPLG03,sg,20251104-133849,1.0.1,20251020-085245,735,Experiment,Both,1,Automatic,main,18,20251104-134040,global,global,300,S,S,E,E,S-E.png,S-E.png,sS,sS,mask-1.png,mask-4.png,s,1,0.565348899923265,s,1,0.14976980001665652,0.04767509992234409,0.047663699835538864,0.09985350002534688,0.09984449995681643,0.2998721001204103
RSVPLG03,sg,20251104-133849,1.0.1,20251020-085245,735,Experiment,Both,1,Automatic,main,19,20251104-134044,global,local,750,H,S,E,E,H-E.png,E-S.png,hH,sS,mask-1.png,mask-2.png,h,1,0.39520910009741783,s,1,0.05901840003207326,0.04769010003656149,0.04670640011318028,0.10083570005372167,0.09991069999523461,0.7506382998544723
RSVPLG03,sg,20251104-133849,1.0.1,20251020-085245,735,Experiment,Both,1,Automatic,main,20,20251104-134049,global,local,300,S,H,E,A,S-E.png,A-H.png,sS,hH,mask-2.png,mask-2.png,s,1,0.2966855999547988,h,1,0.055090999929234385,0.04766050004400313,0.04770729993470013,0.10090439999476075,0.10058300010859966,0.3006380000151694
RSVPLG03,sg,20251104-133849,1.0.1,20251020-085245,735,Experiment,Both,1,Automatic,main,21,20251104-134053,global,global,750,H,S,E,E,H-E.png,S-E.png,hH,sS,mask-4.png,mask-2.png,s,0,0.9203550999518484,h,0,0.05849350010976195,0.047414699802175164,0.04774950002320111,0.09842809988185763,0.09982270002365112,0.7486016999464482
RSVPLG03,sg,20251104-133849,1.0.1,20251020-085245,735,Experiment,Both,1,Automatic,main,22,20251104-134058,global,global,750,H,S,E,A,H-E.png,S-A.png,hH,sS,mask-3.png,mask-3.png,s,0,0.8340926000382751,h,0,0.012746999971568584,0.04625509981997311,0.04656489985063672,0.09981179982423782,0.09975519985891879,0.7506589000113308
RSVPLG03,sg,20251104-133849,1.0.1,20251020-085245,735,Experiment,Both,1,Automatic,main,23,20251104-134103,local,local,300,H,S,A,E,A-H.png,E-S.png,hH,sS,mask-2.png,mask-2.png,s,0,0.6187831999268383,s,1,0.08642469998449087,0.048519400181248784,0.04761389992199838,0.10058410000056028,0.10013519995845854,0.3004024000838399
RSVPLG03,sg,20251104-133849,1.0.1,20251020-085245,735,Experiment,Both,1,Automatic,main,24,20251104-134108,global,global,300,H,H,A,E,H-A.png,H-E.png,hH,hH,mask-2.png,mask-3.png,h,1,0.28761140001006424,h,1,0.07033020001836121,0.047536399913951755,0.04752380005083978,0.09949419996701181,0.09950320003554225,0.299820699961856
RSVPLG03,sg,20251104-133849,1.0.1,20251020-085245,735,Experiment,Both,1,Automatic,main,25,20251104-134112,local,local,300,H,S,E,E,E-H.png,E-S.png,hH,sS,mask-3.png,mask-2.png,s,0,0.6987651998642832,s,1,0.11447550007142127,0.046519300201907754,0.04746320005506277,0.09940640022978187,0.10047630011104047,0.29966180003248155
RSVPLG03,sg,20251104-133849,1.0.1,20251020-085245,735,Experiment,Both,1,Automatic,main,26,20251104-134145,global,local,750,S,H,E,A,S-E.png,A-H.png,sS,hH,mask-3.png,mask-2.png,h,0,0.8814763000700623,h,1,0.05232370016165078,0.047604399966076016,0.04762970004230738,0.09986289986409247,0.09976810007356107,0.7506043999455869
RSVPLG03,sg,20251104-133849,1.0.1,20251020-085245,735,Experiment,Both,1,Automatic,main,27,20251104-134150,local,global,300,H,H,E,E,E-H.png,H-E.png,hH,hH,mask-4.png,mask-2.png,h,1,0.5805510000791401,s,0,0.23288689996115863,0.048656600061804056,0.0478832998778671,0.09984839987009764,0.10008209990337491,0.2995875000488013
RSVPLG03,sg,20251104-133849,1.0.1,20251020-085245,735,Experiment,Both,1,Automatic,main,28,20251104-134154,global,local,750,H,S,A,E,H-A.png,E-S.png,hH,sS,mask-1.png,mask-1.png,h,1,0.4604513000231236,s,1,0.008500399999320507,0.04835529997944832,0.04748290008865297,0.1005532001145184,0.10058020008727908,0.7513315000105649
RSVPLG03,sg,20251104-133849,1.0.1,20251020-085245,735,Experiment,Both,1,Automatic,main,29,20251104-134159,local,local,750,H,H,E,A,E-H.png,A-H.png,hH,hH,mask-1.png,mask-3.png,h,1,0.31928099994547665,h,1,0.08617449994198978,0.0467739999294281,0.04867690009996295,0.0999706001020968,0.09984810021705925,0.74933149991557
RSVPLG03,sg,20251104-133849,1.0.1,20251020-085245,735,Experiment,Both,1,Automatic,main,30,20251104-134204,global,local,300,S,S,E,A,S-E.png,A-S.png,sS,sS,mask-2.png,mask-2.png,s,1,0.6760853999294341,h,0,0.14902199991047382,0.04656949988566339,0.04651940008625388,0.09956369991414249,0.09851039992645383,0.30006289994344115
RSVPLG03,sg,20251104-133849,1.0.1,20251020-085245,735,Experiment,Both,1,Automatic,main,31,20251104-134208,global,global,750,S,S,E,E,S-E.png,S-E.png,sS,sS,mask-4.png,mask-2.png,s,1,0.2832162999548018,s,1,0.09009129996411502,0.04769419995136559,0.0477271000854671,0.09888499998487532,0.0999710001051426,0.750114900059998
RSVPLG03,sg,20251104-133849,1.0.1,20251020-085245,735,Experiment,Both,1,Automatic,main,32,20251104-134213,local,local,750,S,S,A,E,A-S.png,E-S.png,sS,sS,mask-3.png,mask-2.png,s,1,0.3047893000766635,s,1,0.11841230001300573,0.047651599859818816,0.047530699986964464,0.10007330006919801,0.09980619978159666,0.7498876000754535
RSVPLG03,sg,20251104-133849,1.0.1,20251020-085245,735,Experiment,Both,1,Automatic,main,33,20251104-134217,global,global,750,S,S,E,A,S-E.png,S-A.png,sS,sS,mask-4.png,mask-3.png,s,1,0.28248259983956814,s,1,0.09965899982489645,0.04564449982717633,0.04756720014847815,0.09868159983307123,0.09979520016349852,0.7497577997855842
RSVPLG03,sg,20251104-133849,1.0.1,20251020-085245,735,Experiment,Both,1,Automatic,main,34,20251104-134222,global,local,300,H,H,E,E,H-E.png,E-H.png,hH,hH,mask-3.png,mask-3.png,h,1,0.5118742999620736,s,0,0.03885090001858771,0.045678399968892336,0.04688140004873276,0.09986139996908605,0.10041689989157021,0.2994657000526786
RSVPLG03,sg,20251104-133849,1.0.1,20251020-085245,735,Experiment,Both,1,Automatic,main,35,20251104-134226,global,local,750,S,S,E,A,S-E.png,A-S.png,sS,sS,mask-1.png,mask-4.png,s,1,0.4613562000449747,s,1,0.4422176000662148,0.04867859999649227,0.04944119998253882,0.09986580000258982,0.10144470003433526,0.7493370000738651
RSVPLG03,sg,20251104-133849,1.0.1,20251020-085245,735,Experiment,Both,1,Automatic,main,36,20251104-134231,global,global,750,S,H,A,A,S-A.png,H-A.png,sS,hH,mask-3.png,mask-3.png,s,1,0.3306472999975085,h,1,0.1373410001397133,0.04766929987818003,0.0475962997879833,0.0996084997896105,0.09976999997161329,0.7504898000042886
RSVPLG03,sg,20251104-133849,1.0.1,20251020-085245,735,Experiment,Both,1,Automatic,main,37,20251104-134236,local,global,300,H,S,E,E,E-H.png,S-E.png,hH,sS,mask-4.png,mask-1.png,h,1,0.30834129988215864,s,1,0.06884129997342825,0.047605999978259206,0.04775769985280931,0.09977780003100634,0.10013849986717105,0.29947190009988844
RSVPLG03,sg,20251104-133849,1.0.1,20251020-085245,735,Experiment,Both,1,Automatic,main,38,20251104-134240,local,local,750,S,H,A,E,A-S.png,E-H.png,sS,hH,mask-4.png,mask-3.png,s,1,0.44960679998621345,h,1,0.13785680010914803,0.047453599981963634,0.047432800056412816,0.0991882998496294,0.1000759000889957,0.7496457998640835
RSVPLG03,sg,20251104-133849,1.0.1,20251020-085245,735,Experiment,Both,1,Automatic,main,39,20251104-134244,global,local,300,S,H,E,A,S-E.png,A-H.png,sS,hH,mask-3.png,mask-1.png,s,1,0.7167658999096602,h,1,0.27620820002630353,0.047516100108623505,0.047506900038570166,0.09950890019536018,0.1006046999245882,0.2986089000478387
RSVPLG03,sg,20251104-133849,1.0.1,20251020-085245,735,Experiment,Both,1,Automatic,main,40,20251104-134249,local,global,750,H,H,E,E,E-H.png,H-E.png,hH,hH,mask-1.png,mask-1.png,h,1,0.2297962000593543,h,1,0.4546837001107633,0.04649599990807474,0.04912179987877607,0.09956649993546307,0.1019643999170512,0.7478736001066864
RSVPLG03,sg,20251104-133849,1.0.1,20251020-085245,735,Experiment,Both,1,Automatic,main,41,20251104-134254,local,local,300,H,S,E,E,E-H.png,E-S.png,hH,sS,mask-3.png,mask-3.png,h,1,0.49371560011059046,s,1,0.0897212999407202,0.04767080000601709,0.0486928999889642,0.09981040004640818,0.1000177999958396,0.29844560008496046
RSVPLG03,sg,20251104-133849,1.0.1,20251020-085245,735,Experiment,Both,1,Automatic,main,42,20251104-134258,local,local,750,H,H,A,E,A-H.png,E-H.png,hH,hH,mask-4.png,mask-3.png,h,1,0.37970770010724664,h,1,0.11797289992682636,0.047662199940532446,0.047864000080153346,0.10009879991412163,0.09969620010815561,0.7496747998520732
RSVPLG03,sg,20251104-133849,1.0.1,20251020-085245,735,Experiment,Both,1,Automatic,main,43,20251104-134303,global,local,750,H,H,A,A,H-A.png,A-H.png,hH,hH,mask-1.png,mask-2.png,h,1,0.7069835001602769,s,0,0.01241580001078546,0.047481399960815907,0.04750240012072027,0.0984718999825418,0.10149960010312498,0.7485893999692053
RSVPLG03,sg,20251104-133849,1.0.1,20251020-085245,735,Experiment,Both,1,Automatic,main,44,20251104-134308,local,global,750,S,S,E,A,E-S.png,S-A.png,sS,sS,mask-4.png,mask-4.png,s,1,1.2054520999081433,s,1,0.2973525000270456,0.047548299888148904,0.04754279996268451,0.10081309988163412,0.09955339995212853,0.7506969999521971
RSVPLG03,sg,20251104-133849,1.0.1,20251020-085245,735,Experiment,Both,1,Automatic,main,45,20251104-134313,local,local,750,H,S,A,A,A-H.png,A-S.png,hH,sS,mask-4.png,mask-4.png,h,1,0.6462924999650568,s,1,0.060555499978363514,0.04753760015591979,0.04770140000618994,0.09962320001795888,0.09974580002017319,0.7497254000045359
RSVPLG03,sg,20251104-133849,1.0.1,20251020-085245,735,Experiment,Both,1,Automatic,main,46,20251104-134318,global,local,300,S,S,A,A,S-A.png,A-S.png,sS,sS,mask-4.png,mask-2.png,s,1,0.3689421999733895,s,1,0.07408150006085634,0.046681700041517615,0.04765610001049936,0.10085410019382834,0.09984209993854165,0.29942660010419786
RSVPLG03,sg,20251104-133849,1.0.1,20251020-085245,735,Experiment,Both,1,Automatic,main,47,20251104-134322,local,local,300,H,S,A,A,A-H.png,A-S.png,hH,sS,mask-2.png,mask-4.png,h,1,0.9184204998891801,s,1,0.3164171001408249,0.04701140010729432,0.047719999914988875,0.09887730004265904,0.09891039994545281,0.29955670004710555
RSVPLG03,sg,20251104-133849,1.0.1,20251020-085245,735,Experiment,Both,1,Automatic,main,48,20251104-134327,global,global,750,H,H,E,E,H-E.png,H-E.png,hH,hH,mask-2.png,mask-4.png,h,1,0.4533802999649197,h,1,0.08902540011331439,0.046687700087204576,0.047919000033289194,0.0991766001097858,0.10100549994967878,0.7493009001482278
RSVPLG03,sg,20251104-133849,1.0.1,20251020-085245,735,Experiment,Both,1,Automatic,main,49,20251104-134332,local,global,750,H,H,A,A,A-H.png,H-A.png,hH,hH,mask-3.png,mask-3.png,h,1,0.455589999910444,s,0,0.06068479991517961,0.048499700147658587,0.04650350008159876,0.10049940017051995,0.09951069997623563,0.7511340000201017
RSVPLG03,sg,20251104-133849,1.0.1,20251020-085245,735,Experiment,Both,1,Automatic,main,50,20251104-134337,global,global,750,H,H,E,E,H-E.png,H-E.png,hH,hH,mask-2.png,mask-1.png,h,1,0.15985140018165112,h,1,0.07401060010306537,0.04766229982487857,0.046758900163695216,0.09928720002062619,0.10013140016235411,0.7502879998646677
RSVPLG03,sg,20251104-133849,1.0.1,20251020-085245,735,Experiment,Both,1,Automatic,main,51,20251104-134404,global,local,750,S,S,E,A,S-E.png,A-S.png,sS,sS,mask-2.png,mask-2.png,s,1,0.1760157998651266,s,1,0.10704169981181622,0.04871340002864599,0.04666789993643761,0.09994140011258423,0.0988654000684619,0.7512072001118213
RSVPLG03,sg,20251104-133849,1.0.1,20251020-085245,735,Experiment,Both,1,Automatic,main,52,20251104-134408,global,global,750,H,S,E,A,H-E.png,S-A.png,hH,sS,mask-4.png,mask-4.png,h,1,0.26110899983905256,s,1,0.024493700126186013,0.04766799998469651,0.04752680007368326,0.10007059993222356,0.09860150003805757,0.7507438000757247
RSVPLG03,sg,20251104-133849,1.0.1,20251020-085245,735,Experiment,Both,1,Automatic,main,53,20251104-134413,local,global,750,H,H,E,E,E-H.png,H-E.png,hH,hH,mask-2.png,mask-3.png,h,1,0.1868290000129491,s,0,0.02399459993466735,0.047669799998402596,0.046400299994274974,0.09970830008387566,0.10043960018083453,0.749529599910602
RSVPLG03,sg,20251104-133849,1.0.1,20251020-085245,735,Experiment,Both,1,Automatic,main,54,20251104-134417,local,global,750,H,H,E,A,E-H.png,H-A.png,hH,hH,mask-4.png,mask-1.png,h,1,0.8325038000475615,s,0,0.027730599977076054,0.04737879987806082,0.0472484000492841,0.09840809996239841,0.09824580000713468,0.7501258000265807
RSVPLG03,sg,20251104-133849,1.0.1,20251020-085245,735,Experiment,Both,1,Automatic,main,55,20251104-134422,local,local,300,S,S,E,E,E-S.png,E-S.png,sS,sS,mask-3.png,mask-4.png,s,1,0.269879300147295,s,1,0.059638099977746606,0.047521400032565,0.046503699850291014,0.0995155000127852,0.09872399992309511,0.2997326001059264
RSVPLG03,sg,20251104-133849,1.0.1,20251020-085245,735,Experiment,Both,1,Automatic,main,56,20251104-134426,local,local,300,S,H,E,A,E-S.png,A-H.png,sS,hH,mask-4.png,mask-1.png,s,1,0.4098394000902772,h,1,0.03701119986362755,0.04773069988004863,0.04669380001723766,0.10068989987485111,0.0999029001686722,0.3001050997991115
RSVPLG03,sg,20251104-133849,1.0.1,20251020-085245,735,Experiment,Both,1,Automatic,main,57,20251104-134430,local,global,300,S,S,A,A,A-S.png,S-A.png,sS,sS,mask-1.png,mask-1.png,s,1,0.9968606000766158,h,0,0.037605199962854385,0.04749600007198751,0.0474976000841707,0.09850220009684563,0.0984962999355048,0.30006040004082024
RSVPLG03,sg,20251104-133849,1.0.1,20251020-085245,735,Experiment,Both,1,Automatic,main,58,20251104-134435,global,global,750,H,S,E,E,H-E.png,S-E.png,hH,sS,mask-1.png,mask-1.png,h,1,0.6666719000786543,s,1,0.0447070999071002,0.04751149984076619,0.04738559992983937,0.09982239990495145,0.1018165999557823,0.7494484998751432
RSVPLG03,sg,20251104-133849,1.0.1,20251020-085245,735,Experiment,Both,1,Automatic,main,59,20251104-134440,local,local,300,H,S,E,A,E-H.png,A-S.png,hH,sS,mask-2.png,mask-2.png,h,1,1.3823608001694083,s,1,0.5980981001630425,0.048393100034445524,0.04750810004770756,0.10068879998289049,0.10067409998737276,0.29989639995619655
RSVPLG03,sg,20251104-133849,1.0.1,20251020-085245,735,Experiment,Both,1,Automatic,main,60,20251104-134446,local,global,300,S,S,A,A,A-S.png,S-A.png,sS,sS,mask-3.png,mask-3.png,h,0,0.5563396001234651,h,0,0.08382740011438727,0.04750669980421662,0.04753419989719987,0.09860029979608953,0.09951139986515045,0.30018749996088445
RSVPLG03,sg,20251104-133849,1.0.1,20251020-085245,735,Experiment,Both,1,Automatic,main,61,20251104-134450,local,global,300,H,S,E,E,E-H.png,S-E.png,hH,sS,mask-1.png,mask-2.png,h,1,2.5186771999578923,s,1,2.646902599837631,0.0476257000118494,0.047443400137126446,0.0998539999127388,0.09933220013044775,0.3006998999044299
RSVPLG03,sg,20251104-133849,1.0.1,20251020-085245,735,Experiment,Both,1,Automatic,main,62,20251104-134456,local,global,300,H,S,A,E,A-H.png,S-E.png,hH,sS,mask-3.png,mask-4.png,h,1,0.7314538999926299,s,1,0.08537350012920797,0.04768819990567863,0.047647800063714385,0.10186389996670187,0.09982360014691949,0.30056479992344975
RSVPLG03,sg,20251104-133849,1.0.1,20251020-085245,735,Experiment,Both,1,Automatic,main,63,20251104-134501,global,local,300,S,S,E,A,S-E.png,A-S.png,sS,sS,mask-4.png,mask-4.png,s,1,0.2678610999137163,s,1,0.1312222999986261,0.046659700106829405,0.04883749992586672,0.09972250019200146,0.10188469989225268,0.29816730017773807
RSVPLG03,sg,20251104-133849,1.0.1,20251020-085245,735,Experiment,Both,1,Automatic,main,64,20251104-134505,local,global,300,H,S,E,E,E-H.png,S-E.png,hH,sS,mask-3.png,mask-3.png,h,1,0.2886496998835355,h,0,0.30083349999040365,0.046945600071921945,0.04671379993669689,0.09976270003244281,0.09932399983517826,0.29943290003575385
RSVPLG03,sg,20251104-133849,1.0.1,20251020-085245,735,Experiment,Both,1,Automatic,main,65,20251104-134509,local,local,750,S,H,A,E,A-S.png,E-H.png,sS,hH,mask-3.png,mask-3.png,s,1,0.46482870006002486,h,1,0.07210059999488294,0.04839999997057021,0.04749160003848374,0.10126819997094572,0.1004965000320226,0.7516357998829335
RSVPLG03,sg,20251104-133849,1.0.1,20251020-085245,735,Experiment,Both,1,Automatic,main,66,20251104-134514,local,local,300,S,H,E,E,E-S.png,E-H.png,sS,hH,mask-2.png,mask-2.png,s,1,0.9823479999322444,h,1,0.04026770009659231,0.047526200069114566,0.047485999995842576,0.09956480003893375,0.09850699990056455,0.30119100003503263
RSVPLG03,sg,20251104-133849,1.0.1,20251020-085245,735,Experiment,Both,1,Automatic,main,67,20251104-134519,global,local,300,H,S,E,E,H-E.png,E-S.png,hH,sS,mask-3.png,mask-4.png,h,1,0.33972640009596944,s,1,0.08617789996787906,0.04760819999501109,0.04767360002733767,0.09924550005234778,0.09985380014404655,0.30023019993677735
RSVPLG03,sg,20251104-133849,1.0.1,20251020-085245,735,Experiment,Both,1,Automatic,main,68,20251104-134523,global,local,750,H,S,A,E,H-A.png,E-S.png,hH,sS,mask-4.png,mask-3.png,h,1,1.066193399950862,s,1,0.3645345000550151,0.04672509990632534,0.04653459996916354,0.09948750003241003,0.09856810001656413,0.7498329998925328
RSVPLG03,sg,20251104-133849,1.0.1,20251020-085245,735,Experiment,Both,1,Automatic,main,69,20251104-134528,global,global,300,S,S,E,E,S-E.png,S-E.png,sS,sS,mask-2.png,mask-4.png,s,1,0.518845499958843,s,1,0.1174556000623852,0.048545500030741096,0.04750739992596209,0.10042779985815287,0.1003993998747319,0.2997012999840081
RSVPLG03,sg,20251104-133849,1.0.1,20251020-085245,735,Experiment,Both,1,Automatic,main,70,20251104-134533,global,global,750,S,H,A,A,S-A.png,H-A.png,sS,hH,mask-2.png,mask-4.png,h,0,1.6445170999504626,s,0,0.10535349999554455,0.04719509999267757,0.04680539993569255,0.10020099999383092,0.09986319998279214,0.7497153000440449
RSVPLG03,sg,20251104-133849,1.0.1,20251020-085245,735,Experiment,Both,1,Automatic,main,71,20251104-134539,local,global,300,H,H,E,A,E-H.png,H-A.png,hH,hH,mask-4.png,mask-4.png,h,1,0.31682299985550344,s,0,0.02125820005312562,0.047519100131466985,0.047355399932712317,0.0995931001380086,0.09870869992300868,0.29999430011957884
RSVPLG03,sg,20251104-133849,1.0.1,20251020-085245,735,Experiment,Both,1,Automatic,main,72,20251104-134543,global,global,750,S,S,A,E,S-A.png,S-E.png,sS,sS,mask-1.png,mask-3.png,h,0,0.40570329991169274,s,1,0.07500940002501011,0.04748039995320141,0.048499600030481815,0.09930570004507899,0.10049299988895655,0.7492696000263095
RSVPLG03,sg,20251104-133849,1.0.1,20251020-085245,735,Experiment,Both,1,Automatic,main,73,20251104-134547,global,global,300,H,H,E,A,H-E.png,H-A.png,hH,hH,mask-2.png,mask-2.png,h,1,0.43705339985899627,h,1,0.11022979998961091,0.046568699879571795,0.04750439990311861,0.09962140000425279,0.09954639989882708,0.29987549991346896
RSVPLG03,sg,20251104-133849,1.0.1,20251020-085245,735,Experiment,Both,1,Automatic,main,74,20251104-134552,global,global,300,S,S,E,A,S-E.png,S-A.png,sS,sS,mask-2.png,mask-4.png,s,1,0.45598459988832474,s,1,0.10556260007433593,0.04852119996212423,0.04849490011110902,0.10041119996458292,0.10140569997020066,0.29985409998334944
RSVPLG03,sg,20251104-133849,1.0.1,20251020-085245,735,Experiment,Both,1,Automatic,main,75,20251104-134556,global,local,300,H,S,A,A,H-A.png,A-S.png,hH,sS,mask-2.png,mask-1.png,h,1,0.2122396999038756,s,1,0.07335090008564293,0.04630929999984801,0.047601900063455105,0.09846069989725947,0.09936959994956851,0.29966160003095865
RSVPLG03,sg,20251104-133849,1.0.1,20251020-085245,735,Experiment,Both,1,Automatic,main,76,20251104-134625,local,global,300,H,S,A,E,A-H.png,S-E.png,hH,sS,mask-1.png,mask-1.png,h,1,0.39189149998128414,s,1,0.2171867999713868,0.047507999930530787,0.0465440999250859,0.09957179985940456,0.09851689985953271,0.301139899995178
RSVPLG03,sg,20251104-133849,1.0.1,20251020-085245,735,Experiment,Both,1,Automatic,main,77,20251104-134630,global,local,750,H,H,E,A,H-E.png,A-H.png,hH,hH,mask-1.png,mask-2.png,h,1,0.22955860011279583,h,1,0.10206800000742078,0.047528799856081605,0.047238799976184964,0.09946929989382625,0.10003420012071729,0.7489020999055356
RSVPLG03,sg,20251104-133849,1.0.1,20251020-085245,735,Experiment,Both,1,Automatic,main,78,20251104-134634,local,local,300,H,H,A,A,A-H.png,A-H.png,hH,hH,mask-3.png,mask-4.png,h,1,0.2516536999028176,s,0,0.10856739990413189,0.04760960000567138,0.04749889997765422,0.10061140009202063,0.09949159994721413,0.30086990003474057
RSVPLG03,sg,20251104-133849,1.0.1,20251020-085245,735,Experiment,Both,1,Automatic,main,79,20251104-134638,global,global,750,S,S,A,A,S-A.png,S-A.png,sS,sS,mask-4.png,mask-4.png,s,1,0.48750109993852675,s,1,0.10882339999079704,0.0470898998901248,0.0458279000595212,0.10007459996268153,0.09984409995377064,0.7502216999419034
RSVPLG03,sg,20251104-133849,1.0.1,20251020-085245,735,Experiment,Both,1,Automatic,main,80,20251104-134643,global,global,750,H,S,A,A,H-A.png,S-A.png,hH,sS,mask-1.png,mask-1.png,h,1,0.36005449993535876,s,1,0.11921830009669065,0.04754920001141727,0.047468400094658136,0.10091329994611442,0.10048800008371472,0.7508735000155866
RSVPLG03,sg,20251104-133849,1.0.1,20251020-085245,735,Experiment,Both,1,Automatic,main,81,20251104-134648,local,local,300,S,S,E,E,E-S.png,E-S.png,sS,sS,mask-4.png,mask-1.png,s,1,0.6436600999440998,s,1,0.09982350002974272,0.04758160002529621,0.047489400021731853,0.10059980000369251,0.09775130008347332,0.3018334999214858
RSVPLG03,sg,20251104-133849,1.0.1,20251020-085245,735,Experiment,Both,1,Automatic,main,82,20251104-134652,local,local,750,H,S,A,E,A-H.png,E-S.png,hH,sS,mask-1.png,mask-3.png,h,1,0.2575222000014037,s,1,0.012859600130468607,0.04854029999114573,0.04742660000920296,0.10037920018658042,0.10045640007592738,0.7500638000201434
RSVPLG03,sg,20251104-133849,1.0.1,20251020-085245,735,Experiment,Both,1,Automatic,main,83,20251104-134656,global,global,300,H,S,E,A,H-E.png,S-A.png,hH,sS,mask-2.png,mask-4.png,h,1,0.19366000010631979,s,1,0.048242100048810244,0.04748340020887554,0.047498999862000346,0.10045500006526709,0.10050179995596409,0.2999135002028197
RSVPLG03,sg,20251104-133849,1.0.1,20251020-085245,735,Experiment,Both,1,Automatic,main,84,20251104-134701,global,global,300,H,H,A,A,H-A.png,H-A.png,hH,hH,mask-2.png,mask-4.png,h,1,0.5023602999281138,h,1,0.08409129991196096,0.04691489995457232,0.0474197999574244,0.09979670005850494,0.0993896999862045,0.3007134001236409
RSVPLG03,sg,20251104-133849,1.0.1,20251020-085245,735,Experiment,Both,1,Automatic,main,85,20251104-134705,local,global,750,H,S,A,E,A-H.png,S-E.png,hH,sS,mask-2.png,mask-4.png,h,1,0.510049499804154,s,1,0.20572580001316965,0.04749590018764138,0.047480800189077854,0.10046030022203922,0.09859010018408298,0.7507841000333428
RSVPLG03,sg,20251104-133849,1.0.1,20251020-085245,735,Experiment,Both,1,Automatic,main,86,20251104-134710,local,global,750,H,H,E,E,E-H.png,H-E.png,hH,hH,mask-3.png,mask-3.png,h,1,2.2849123999476433,s,0,0.15166099998168647,0.04754059994593263,0.04599159979261458,0.1005896998103708,0.09868999989703298,0.7508398999925703
RSVPLG03,sg,20251104-133849,1.0.1,20251020-085245,735,Experiment,Both,1,Automatic,main,87,20251104-134716,global,global,750,H,H,A,A,H-A.png,H-A.png,hH,hH,mask-4.png,mask-3.png,h,1,0.1913592000491917,h,1,0.11721769999712706,0.04756249999627471,0.047689600149169564,0.0988223000895232,0.09998120018281043,0.748961899895221
RSVPLG03,sg,20251104-133849,1.0.1,20251020-085245,735,Experiment,Both,1,Automatic,main,88,20251104-134721,global,local,750,H,H,A,A,H-A.png,A-H.png,hH,hH,mask-2.png,mask-1.png,h,1,0.20245139999315143,h,1,0.1062892999034375,0.04666059999726713,0.049638699973002076,0.10098210000433028,0.10081129986792803,0.7487515001557767
RSVPLG03,sg,20251104-133849,1.0.1,20251020-085245,735,Experiment,Both,1,Automatic,main,89,20251104-134725,global,global,300,S,H,A,A,S-A.png,H-A.png,sS,hH,mask-3.png,mask-1.png,h,0,0.3164431999903172,s,0,0.13736519985832274,0.047530499985441566,0.04767929995432496,0.09853870002552867,0.0992862000130117,0.2995027001015842
RSVPLG03,sg,20251104-133849,1.0.1,20251020-085245,735,Experiment,Both,1,Automatic,main,90,20251104-134729,local,global,750,H,H,E,A,E-H.png,H-A.png,hH,hH,mask-3.png,mask-2.png,s,0,0.8562066000886261,s,0,0.17100970004685223,0.047481499845162034,0.047460699919611216,0.09945610002614558,0.10045189992524683,0.7497439999133348
RSVPLG03,sg,20251104-133849,1.0.1,20251020-085245,735,Experiment,Both,1,Automatic,main,91,20251104-134735,global,local,750,S,H,A,E,S-A.png,E-H.png,sS,hH,mask-3.png,mask-1.png,h,0,0.3801321000792086,h,1,0.0931779001839459,0.04748519998975098,0.04657320003025234,0.10060479980893433,0.09864370012655854,0.750311599811539
RSVPLG03,sg,20251104-133849,1.0.1,20251020-085245,735,Experiment,Both,1,Automatic,main,92,20251104-134739,local,global,750,H,S,E,E,E-H.png,S-E.png,hH,sS,mask-4.png,mask-4.png,s,0,0.18282650015316904,h,0,0.205914500169456,0.048579299822449684,0.04758160002529621,0.10053469985723495,0.09859830001369119,0.751245099818334
RSVPLG03,sg,20251104-133849,1.0.1,20251020-085245,735,Experiment,Both,1,Automatic,main,93,20251104-134744,local,global,750,H,H,A,A,A-H.png,H-A.png,hH,hH,mask-2.png,mask-2.png,h,1,0.3264650998171419,s,0,0.09759459993802011,0.04676060006022453,0.04849989991635084,0.09891250007785857,0.09953489992767572,0.749322900082916
RSVPLG03,sg,20251104-133849,1.0.1,20251020-085245,735,Experiment,Both,1,Automatic,main,94,20251104-134748,local,local,300,H,S,E,A,E-H.png,A-S.png,hH,sS,mask-4.png,mask-4.png,h,1,0.9972194998990744,h,0,0.1355713999364525,0.045505200047045946,0.047525699948892,0.0985330999828875,0.09856000007130206,0.29982610000297427
RSVPLG03,sg,20251104-133849,1.0.1,20251020-085245,735,Experiment,Both,1,Automatic,main,95,20251104-134753,local,global,300,H,S,E,E,E-H.png,S-E.png,hH,sS,mask-2.png,mask-3.png,h,1,0.7666297000832856,h,0,0.12390249990858138,0.04796979995444417,0.04917500005103648,0.10114809987135231,0.10017450014129281,0.2994120998773724
RSVPLG03,sg,20251104-133849,1.0.1,20251020-085245,735,Experiment,Both,1,Automatic,main,96,20251104-134758,local,global,750,H,S,A,E,A-H.png,S-E.png,hH,sS,mask-1.png,mask-3.png,h,1,0.5766715998761356,s,1,0.057814199943095446,0.04900679993443191,0.047739499947056174,0.09966489998623729,0.09893999993801117,0.7516791999805719
RSVPLG03,sg,20251104-133849,1.0.1,20251020-085245,735,Experiment,Both,1,Automatic,main,97,20251104-134803,local,local,750,H,S,E,A,E-H.png,A-S.png,hH,sS,mask-3.png,mask-2.png,s,0,0.42257639998570085,h,0,0.18055650009773672,0.047331899870187044,0.046498100040480494,0.09834839985705912,0.10050170007161796,0.7493277997709811
RSVPLG03,sg,20251104-133849,1.0.1,20251020-085245,735,Experiment,Both,1,Automatic,main,98,20251104-134807,local,local,300,H,S,E,E,E-H.png,E-S.png,hH,sS,mask-4.png,mask-1.png,h,1,0.2340969000943005,s,1,0.15769169991835952,0.0464625998865813,0.04752699984237552,0.10045939986594021,0.09853119985200465,0.3007849999703467
RSVPLG03,sg,20251104-133849,1.0.1,20251020-085245,735,Experiment,Both,1,Automatic,main,99,20251104-134811,global,local,750,H,H,E,E,H-E.png,E-H.png,hH,hH,mask-4.png,mask-1.png,h,1,0.3444143000524491,s,0,0.11379610002040863,0.047523500164970756,0.0475057999137789,0.09874169994145632,0.09949089982546866,0.749803600134328
RSVPLG03,sg,20251104-133849,1.0.1,20251020-085245,735,Experiment,Both,1,Automatic,main,100,20251104-134816,local,global,300,H,H,E,E,E-H.png,H-E.png,hH,hH,mask-3.png,mask-3.png,h,1,0.42802240001037717,h,1,0.12336049997247756,0.04653509985655546,0.04837030009366572,0.09855039999820292,0.10045090015046299,0.29829119984060526
RSVPLG03,sg,20251104-133849,1.0.1,20251020-085245,735,Experiment,Both,1,Automatic,main,101,20251104-134833,local,local,300,S,S,E,E,E-S.png,E-S.png,sS,sS,mask-4.png,mask-3.png,s,1,0.4144518000539392,s,1,0.09462769981473684,0.045970299979671836,0.045540599850937724,0.09942730003967881,0.09973499993793666,0.30015940009616315
RSVPLG03,sg,20251104-133849,1.0.1,20251020-085245,735,Experiment,Both,1,Automatic,main,102,20251104-134837,global,local,300,S,S,E,A,S-E.png,A-S.png,sS,sS,mask-4.png,mask-3.png,s,1,0.32565160002559423,s,1,0.09386679995805025,0.047771899960935116,0.047620799858123064,0.099940599873662,0.10082119982689619,0.29947440000250936
RSVPLG03,sg,20251104-133849,1.0.1,20251020-085245,735,Experiment,Both,1,Automatic,main,103,20251104-134841,local,global,750,S,S,A,A,A-S.png,S-A.png,sS,sS,mask-4.png,mask-1.png,s,1,0.6272581999655813,h,0,0.060123100178316236,0.047657000133767724,0.04771840013563633,0.10179490013979375,0.09996260004118085,0.7517520999535918
RSVPLG03,sg,20251104-133849,1.0.1,20251020-085245,735,Experiment,Both,1,Automatic,main,104,20251104-134846,global,global,300,S,S,E,E,S-E.png,S-E.png,sS,sS,mask-4.png,mask-2.png,s,1,0.2900427000131458,s,1,0.10431950003840029,0.048607900040224195,0.04776099999435246,0.10081930016167462,0.09911559987813234,0.3005471001379192
RSVPLG03,sg,20251104-133849,1.0.1,20251020-085245,735,Experiment,Both,1,Automatic,main,105,20251104-134850,local,local,300,H,H,A,E,A-H.png,E-H.png,hH,hH,mask-3.png,mask-2.png,h,1,0.6258821000810713,h,1,0.0884479999076575,0.04875770001672208,0.046678900020197034,0.10099920001812279,0.10007620020769536,0.30073759984225035
RSVPLG03,sg,20251104-133849,1.0.1,20251020-085245,735,Experiment,Both,1,Automatic,main,106,20251104-134855,global,local,300,S,H,E,E,S-E.png,E-H.png,sS,hH,mask-3.png,mask-4.png,h,0,1.3437067000195384,s,0,0.07484409981407225,0.04768959991633892,0.047632900066673756,0.09986209985800087,0.10183870000764728,0.29829079983755946
RSVPLG03,sg,20251104-133849,1.0.1,20251020-085245,735,Experiment,Both,1,Automatic,main,107,20251104-134900,local,local,750,H,H,A,A,A-H.png,A-H.png,hH,hH,mask-1.png,mask-1.png,s,0,1.920616599963978,s,0,0.1673812000080943,0.048699099803343415,0.047595900017768145,0.1019393999595195,0.1018582999240607,0.7500352999195457
RSVPLG03,sg,20251104-133849,1.0.1,20251020-085245,735,Experiment,Both,1,Automatic,main,108,20251104-134906,global,local,750,S,H,A,A,S-A.png,A-H.png,sS,hH,mask-3.png,mask-4.png,h,0,1.0161208999343216,h,1,0.05366800003685057,0.04765870003029704,0.04748090007342398,0.10003329999744892,0.10037790006026626,0.7494871998205781
RSVPLG03,sg,20251104-133849,1.0.1,20251020-085245,735,Experiment,Both,1,Automatic,main,109,20251104-134911,global,local,300,S,S,A,A,S-A.png,A-S.png,sS,sS,mask-2.png,mask-1.png,s,1,0.40022199996747077,s,1,0.14095499995164573,0.04662729986011982,0.04744999995455146,0.0996826000045985,0.09849150013178587,0.29991779988631606
RSVPLG03,sg,20251104-133849,1.0.1,20251020-085245,735,Experiment,Both,1,Automatic,main,110,20251104-134915,local,global,750,H,S,E,E,E-H.png,S-E.png,hH,sS,mask-4.png,mask-4.png,s,0,0.6539764001499861,s,1,0.17046390008181334,0.047462299931794405,0.04751079995185137,0.09844479989260435,0.09944379981607199,0.7501165000721812
RSVPLG03,sg,20251104-133849,1.0.1,20251020-085245,735,Experiment,Both,1,Automatic,main,111,20251104-134920,global,local,300,H,H,E,A,H-E.png,A-H.png,hH,hH,mask-4.png,mask-2.png,h,1,0.4515813998878002,s,0,0.07827349985018373,0.04681379999965429,0.04671080014668405,0.09901129989884794,0.09977600001730025,0.3006163998506963
RSVPLG03,sg,20251104-133849,1.0.1,20251020-085245,735,Experiment,Both,1,Automatic,main,112,20251104-134924,local,local,750,S,S,A,A,A-S.png,A-S.png,sS,sS,mask-3.png,mask-3.png,h,0,0.5625044000335038,h,0,0.08453190000727773,0.04648949997499585,0.047499399865046144,0.09847450000233948,0.10148680000565946,0.748432399937883
RSVPLG03,sg,20251104-133849,1.0.1,20251020-085245,735,Experiment,Both,1,Automatic,main,113,20251104-134929,global,local,300,H,S,E,E,H-E.png,E-S.png,hH,sS,mask-1.png,mask-4.png,h,1,0.44642900000326335,s,1,0.12234200001694262,0.04760830011218786,0.04750200011767447,0.10024460009299219,0.09951309999451041,0.30044359993189573
RSVPLG03,sg,20251104-133849,1.0.1,20251020-085245,735,Experiment,Both,1,Automatic,main,114,20251104-134933,global,global,300,S,H,A,E,S-A.png,H-E.png,sS,hH,mask-4.png,mask-3.png,s,1,0.5975087999831885,h,1,0.07182920002378523,0.04749249992892146,0.04749769996851683,0.09871299983933568,0.0994919000659138,0.30002349987626076
RSVPLG03,sg,20251104-133849,1.0.1,20251020-085245,735,Experiment,Both,1,Automatic,main,115,20251104-134938,local,global,300,H,H,A,E,A-H.png,H-E.png,hH,hH,mask-2.png,mask-4.png,h,1,12.570167500060052,s,0,0.23506729979999363,0.047501099994406104,0.04742279998026788,0.098685999866575,0.10028549982234836,0.2997443999629468
RSVPLG03,sg,20251104-133849,1.0.1,20251020-085245,735,Experiment,Both,1,Automatic,main,116,20251104-134954,global,global,300,S,S,A,A,S-A.png,S-A.png,sS,sS,mask-2.png,mask-3.png,s,1,0.39587610005401075,s,1,0.09253960009664297,0.04838289995677769,0.04663380002602935,0.10039660008624196,0.10066880006343126,0.3007004000246525
RSVPLG03,sg,20251104-133849,1.0.1,20251020-085245,735,Experiment,Both,1,Automatic,main,117,20251104-134958,local,global,750,S,H,A,A,A-S.png,H-A.png,sS,hH,mask-4.png,mask-1.png,s,1,0.4852048000320792,h,1,0.11852359981276095,0.048487399937584996,0.047524699941277504,0.10049770004115999,0.09951759991236031,0.7504898000042886
RSVPLG03,sg,20251104-133849,1.0.1,20251020-085245,735,Experiment,Both,1,Automatic,main,118,20251104-135003,local,global,300,S,H,E,E,E-S.png,H-E.png,sS,hH,mask-2.png,mask-1.png,s,1,0.4502350001130253,h,1,0.08790810010395944,0.048653299920260906,0.047425199998542666,0.09982659993693233,0.09820999996736646,0.301200799876824
RSVPLG03,sg,20251104-133849,1.0.1,20251020-085245,735,Experiment,Both,1,Automatic,main,119,20251104-135007,global,local,750,H,S,E,A,H-E.png,A-S.png,hH,sS,mask-3.png,mask-1.png,h,1,0.34939530002884567,h,0,0.07722699991427362,0.045690900180488825,0.04733569989912212,0.09874760010279715,0.10140520008280873,0.7485756000969559
RSVPLG03,sg,20251104-133849,1.0.1,20251020-085245,735,Experiment,Both,1,Automatic,main,120,20251104-135012,local,global,300,S,S,E,A,E-S.png,S-A.png,sS,sS,mask-2.png,mask-3.png,s,1,0.26139719993807375,s,1,0.10795100010000169,0.04749400005675852,0.047471199883148074,0.0994561999104917,0.0987627999857068,0.29982630000449717
RSVPLG03,sg,20251104-133849,1.0.1,20251020-085245,735,Experiment,Both,1,Automatic,main,121,20251104-135016,global,global,300,S,H,A,A,S-A.png,H-A.png,sS,hH,mask-4.png,mask-3.png,s,1,0.32871869998052716,h,1,0.08637939998880029,0.045525999972596765,0.04647950013168156,0.09954099985770881,0.09847910003736615,0.29973239987157285
