exp,exp_initials,runtime,ver,modtime,sub,blocktype,targets,cuetype,mode,trialtype,trial,trialtime,t1_level,t2_level,t2_lag,t1,t2,distractor1,distractor2,stimfile1,stimfile2,t1_corr,t2_corr,maskfile1,maskfile2,t1_resp,t1_acc,t1_rt,t2_resp,t2_acc,t2_rt,t1_dur,t2_dur,t1mask_soa,t2mask_soa,t1t2_soa
RSVPLG03,si,20260226-151457,1.0.2,20260219-152011,777,Introduction,T1,1,Automatic,main,1,20260226-151542,global,local,750,H,H,A,A,H-A.png,A-H.png,hH,hH,mask-3.png,mask-3.png,h,1,1.7977133998647332,none,-5,0,0.09812199999578297,0.10068990010768175,0.1980841001495719,0.20102600008249283,0.7517097999807447
RSVPLG03,si,20260226-151457,1.0.2,20260219-152011,777,Introduction,T1,1,Automatic,main,2,20260226-151548,global,local,750,H,S,E,E,H-E.png,E-S.png,hH,sS,mask-2.png,mask-2.png,h,1,1.38745480007492,none,-5,0,0.09887340012937784,0.10039749997667968,0.199839600129053,0.2012603001203388,0.7541414999868721
RSVPLG03,si,20260226-151457,1.0.2,20260219-152011,777,Introduction,T1,1,Automatic,main,3,20260226-151554,global,local,750,S,S,A,A,S-A.png,A-S.png,sS,sS,mask-2.png,mask-1.png,s,1,0.6311954001430422,none,-5,0,0.10281710000708699,0.0997015000320971,0.2019815999083221,0.19943250017240644,0.7559588998556137
RSVPLG03,si,20260226-151457,1.0.2,20260219-152011,777,Introduction,T1,1,Automatic,main,4,20260226-151558,local,local,750,S,S,E,E,E-S.png,E-S.png,sS,sS,mask-4.png,mask-1.png,s,1,1.0249436998274177,none,-5,0,0.1008262000977993,0.09952169982716441,0.20106150000356138,0.20142129994928837,0.7551043001003563
RSVPLG03,si,20260226-151457,1.0.2,20260219-152011,777,Introduction,T1,1,Automatic,main,5,20260226-151604,global,global,750,S,H,A,A,S-A.png,H-A.png,sS,hH,mask-4.png,mask-2.png,s,1,0.4730980000458658,none,-5,0,0.10114570008590817,0.10356889991089702,0.20210440014488995,0.2015559000428766,0.7554804000537843
RSVPLG03,si,20260226-151457,1.0.2,20260219-152011,777,Introduction,T1,1,Automatic,main,6,20260226-151608,local,global,750,H,H,A,A,A-H.png,H-A.png,hH,hH,mask-2.png,mask-1.png,h,1,2.6942040000576526,none,-5,0,0.09964970010332763,0.10090780002065003,0.19983050017617643,0.20139280008152127,0.7530495000537485
RSVPLG03,si,20260226-151457,1.0.2,20260219-152011,777,Introduction,T1,1,Automatic,main,7,20260226-151615,global,global,750,S,S,E,E,S-E.png,S-E.png,sS,sS,mask-4.png,mask-2.png,s,1,0.6121807999443263,none,-5,0,0.10043559991754591,0.10047609987668693,0.20161129999905825,0.20211359998211265,0.7548813000321388
RSVPLG03,si,20260226-151457,1.0.2,20260219-152011,777,Introduction,T1,1,Automatic,main,8,20260226-151620,global,global,750,H,S,A,E,H-A.png,S-E.png,hH,sS,mask-1.png,mask-4.png,h,1,0.9414385999552906,none,-5,0,0.10199049999937415,0.1011502998881042,0.20058010006323457,0.20197259983979166,0.7538332000840455
RSVPLG03,si,20260226-151457,1.0.2,20260219-152011,777,Introduction,T1,1,Automatic,main,9,20260226-151625,local,local,750,H,S,A,E,A-H.png,E-S.png,hH,sS,mask-4.png,mask-4.png,h,1,1.971580599900335,none,-5,0,0.09895869996398687,0.09913549991324544,0.20069159986451268,0.20042629982344806,0.754311400000006
RSVPLG03,si,20260226-151457,1.0.2,20260219-152011,777,Introduction,T1,1,Automatic,main,10,20260226-151631,global,global,750,H,S,A,E,H-A.png,S-E.png,hH,sS,mask-4.png,mask-2.png,s,0,1.8043659999966621,none,-5,0,0.09967299993149936,0.10133450012654066,0.20130640012212098,0.201950800139457,0.7544319999869913
RSVPLG03,si,20260226-151457,1.0.2,20260219-152011,777,Introduction,T1,1,Automatic,main,11,20260226-151637,local,global,750,S,H,A,E,A-S.png,H-E.png,sS,hH,mask-4.png,mask-1.png,h,0,1.5900332999881357,none,-5,0,0.09827430010773242,0.09967639995738864,0.19901660014875233,0.20150199998170137,0.7521838000975549
RSVPLG03,si,20260226-151457,1.0.2,20260219-152011,777,Introduction,T1,1,Automatic,main,12,20260226-151643,local,local,750,S,S,E,A,E-S.png,A-S.png,sS,sS,mask-1.png,mask-1.png,s,1,1.2470757998526096,none,-5,0,0.09977410011924803,0.09887970006093383,0.20124890003353357,0.1997514001559466,0.7552767000161111
RSVPLG03,si,20260226-151457,1.0.2,20260219-152011,777,Introduction,T1,1,Automatic,main,13,20260226-151648,local,global,750,S,H,E,E,E-S.png,H-E.png,sS,hH,mask-3.png,mask-2.png,s,1,1.102271500043571,none,-5,0,0.10076669999398291,0.1012891000136733,0.2019917001016438,0.20159230008721352,0.7538932999596
RSVPLG03,si,20260226-151457,1.0.2,20260219-152011,777,Introduction,T1,1,Automatic,main,14,20260226-151654,global,local,750,H,S,E,A,H-E.png,A-S.png,hH,sS,mask-3.png,mask-4.png,s,0,0.4793887999840081,none,-5,0,0.10161380004137754,0.09965310012921691,0.2018957999534905,0.20166730019263923,0.7552658999338746
RSVPLG03,si,20260226-151457,1.0.2,20260219-152011,777,Introduction,T1,1,Automatic,main,15,20260226-151658,local,local,750,S,S,E,A,E-S.png,A-S.png,sS,sS,mask-1.png,mask-1.png,s,1,1.3451985998544842,none,-5,0,0.10177300008945167,0.10065530007705092,0.20165390009060502,0.20057049999013543,0.75631930003874
RSVPLG03,si,20260226-151457,1.0.2,20260219-152011,777,Introduction,T1,1,Automatic,main,16,20260226-151704,local,global,750,S,H,E,A,E-S.png,H-A.png,sS,hH,mask-1.png,mask-1.png,s,1,0.8364465001504868,none,-5,0,0.0993673000484705,0.10059090005233884,0.20000070007517934,0.2022013000678271,0.7538262999150902
RSVPLG03,si,20260226-151733,1.0.2,20260219-152011,777,Practice,T1,1,Automatic,main,1,20260226-151754,local,local,750,H,S,E,E,E-H.png,E-S.png,hH,sS,mask-2.png,mask-4.png,h,1,1.3522173000965267,none,-5,0,0.046953200129792094,0.049143300158903,0.09655840019695461,0.10013030003756285,0.7468568000476807
RSVPLG03,si,20260226-151733,1.0.2,20260219-152011,777,Practice,T1,1,Automatic,main,2,20260226-151759,global,local,750,H,S,A,A,H-A.png,A-S.png,hH,sS,mask-2.png,mask-1.png,h,1,2.3811991000548005,none,-5,0,0.050634599989280105,0.04902660008519888,0.10090669989585876,0.09909699996933341,0.7507440999615937
RSVPLG03,si,20260226-151733,1.0.2,20260219-152011,777,Practice,T1,1,Automatic,main,3,20260226-151806,global,local,750,H,S,A,E,H-A.png,E-S.png,hH,sS,mask-3.png,mask-4.png,h,1,1.2409484998788685,none,-5,0,0.049892500042915344,0.04926879983395338,0.09971030009910464,0.10128249996341765,0.7500856001861393
RSVPLG03,si,20260226-151733,1.0.2,20260219-152011,777,Practice,T1,1,Automatic,main,4,20260226-151811,global,local,300,H,H,A,A,H-A.png,A-H.png,hH,hH,mask-1.png,mask-3.png,h,1,0.4709797000978142,none,-5,0,0.05010439991019666,0.05088300001807511,0.10021499986760318,0.10069380002096295,0.2992661998141557
RSVPLG03,si,20260226-151733,1.0.2,20260219-152011,777,Practice,T1,1,Automatic,main,5,20260226-151815,global,global,300,S,S,E,E,S-E.png,S-E.png,sS,sS,mask-4.png,mask-1.png,s,1,0.23186079994775355,none,-5,0,0.049583000130951405,0.050462699960917234,0.09891379997134209,0.09987010015174747,0.29965980001725256
RSVPLG03,si,20260226-151733,1.0.2,20260219-152011,777,Practice,T1,1,Automatic,main,6,20260226-151819,local,local,300,H,H,A,E,A-H.png,E-H.png,hH,hH,mask-1.png,mask-1.png,h,1,0.4474200000986457,none,-5,0,0.049128100043162704,0.048335300059989095,0.09928640001453459,0.09928730013780296,0.2999276998452842
RSVPLG03,si,20260226-151733,1.0.2,20260219-152011,777,Practice,T1,1,Automatic,main,7,20260226-151823,local,global,300,S,H,A,A,A-S.png,H-A.png,sS,hH,mask-2.png,mask-3.png,h,0,0.35654679988510907,none,-5,0,0.04866129998117685,0.05144149996340275,0.10011670016683638,0.09975139982998371,0.30025760014541447
RSVPLG03,si,20260226-151733,1.0.2,20260219-152011,777,Practice,T1,1,Automatic,main,8,20260226-151827,local,global,300,H,S,A,A,A-H.png,S-A.png,hH,sS,mask-2.png,mask-2.png,h,1,2.6045756998937577,none,-5,0,0.051279000006616116,0.05019410001114011,0.0994909000582993,0.1003428001422435,0.2996367998421192
RSVPLG03,si,20260226-151733,1.0.2,20260219-152011,777,Practice,T1,1,Automatic,main,9,20260226-151833,local,local,750,H,H,E,A,E-H.png,A-H.png,hH,hH,mask-1.png,mask-2.png,h,1,1.4928438998758793,none,-5,0,0.048578400164842606,0.04893389996141195,0.09843420004472136,0.09904240001924336,0.7504942000377923
RSVPLG03,si,20260226-151733,1.0.2,20260219-152011,777,Practice,T1,1,Automatic,main,10,20260226-151838,global,global,750,H,S,E,E,H-E.png,S-E.png,hH,sS,mask-3.png,mask-3.png,h,1,0.9816865001339465,none,-5,0,0.04923450015485287,0.05027509992942214,0.09987810021266341,0.10121920006349683,0.7498711000662297
RSVPLG03,si,20260226-151733,1.0.2,20260219-152011,777,Practice,T1,1,Automatic,main,11,20260226-151843,global,local,300,H,H,E,E,H-E.png,E-H.png,hH,hH,mask-2.png,mask-2.png,h,1,0.6238851000089198,none,-5,0,0.048522400204092264,0.05022309999912977,0.09921999997459352,0.09971460001543164,0.2989565001334995
RSVPLG03,si,20260226-151733,1.0.2,20260219-152011,777,Practice,T1,1,Automatic,main,12,20260226-151847,local,global,750,S,H,A,E,A-S.png,H-E.png,sS,hH,mask-2.png,mask-4.png,s,1,0.6416414000559598,none,-5,0,0.04899860010482371,0.049798900028690696,0.1001182000618428,0.10129539994522929,0.7498419000767171
RSVPLG03,si,20260226-151733,1.0.2,20260219-152011,777,Practice,T1,1,Automatic,main,13,20260226-151852,local,global,750,S,S,A,A,A-S.png,S-A.png,sS,sS,mask-1.png,mask-2.png,s,1,0.9757542000152171,none,-5,0,0.05211160006001592,0.048708399990573525,0.10057919984683394,0.09945550002157688,0.7509343000128865
RSVPLG03,si,20260226-151733,1.0.2,20260219-152011,777,Practice,T1,1,Automatic,main,14,20260226-151857,global,global,300,S,S,A,E,S-A.png,S-E.png,sS,sS,mask-3.png,mask-1.png,s,1,0.9592955000698566,none,-5,0,0.04948700009845197,0.049588099820539355,0.09971219999715686,0.09932579984888434,0.2997054001316428
RSVPLG03,si,20260226-151733,1.0.2,20260219-152011,777,Practice,T1,1,Automatic,main,15,20260226-151902,local,local,300,S,S,A,E,A-S.png,E-S.png,sS,sS,mask-3.png,mask-4.png,h,0,0.63093789992854,none,-5,0,0.05088429991155863,0.049404900055378675,0.10012479987926781,0.10131460009142756,0.30048089986667037
RSVPLG03,si,20260226-151733,1.0.2,20260219-152011,777,Practice,T1,1,Automatic,main,16,20260226-151906,global,global,750,H,H,A,A,H-A.png,H-A.png,hH,hH,mask-1.png,mask-1.png,h,1,1.2190394999925047,none,-5,0,0.05187670001760125,0.050767599837854505,0.10080909985117614,0.10060699982568622,0.7497876000124961
RSVPLG03,si,20260226-151951,1.0.2,20260219-152011,777,Introduction,Both,1,Automatic,main,1,20260226-152119,global,local,750,S,H,E,E,S-E.png,E-H.png,sS,hH,mask-1.png,mask-2.png,s,1,1.2552881999872625,s,0,2.5513243000023067,0.09823290002532303,0.10133079998195171,0.19923519995063543,0.20114840008318424,0.7488110999111086
RSVPLG03,si,20260226-151951,1.0.2,20260219-152011,777,Introduction,Both,1,Automatic,main,2,20260226-152127,local,global,750,H,H,E,A,E-H.png,H-A.png,hH,hH,mask-2.png,mask-2.png,h,1,2.8015548998955637,h,1,1.5401508000213653,0.0985609998460859,0.099885200150311,0.20156640000641346,0.2008812001440674,0.7501673998776823
RSVPLG03,si,20260226-151951,1.0.2,20260219-152011,777,Introduction,Both,1,Automatic,main,3,20260226-152136,local,global,750,S,S,A,A,A-S.png,S-A.png,sS,sS,mask-4.png,mask-4.png,s,1,1.0369655000977218,h,0,1.6412102000322193,0.1013002002146095,0.10020540002733469,0.20137300016358495,0.20055709988810122,0.7505881001707166
RSVPLG03,si,20260226-151951,1.0.2,20260219-152011,777,Introduction,Both,1,Automatic,main,4,20260226-152143,local,local,750,H,H,E,A,E-H.png,A-H.png,hH,hH,mask-4.png,mask-2.png,s,0,1.8656808000523597,h,1,0.3096125000156462,0.10255630011670291,0.09915079991333187,0.19969070004299283,0.19954639999195933,0.7513416002038866
RSVPLG03,si,20260226-151951,1.0.2,20260219-152011,777,Introduction,Both,1,Automatic,main,5,20260226-152149,local,local,750,S,S,A,E,A-S.png,E-S.png,sS,sS,mask-4.png,mask-4.png,s,1,2.4596814000979066,h,0,1.5933741999324411,0.09978149994276464,0.09991299989633262,0.19829649990424514,0.20210129977203906,0.7490672999992967
RSVPLG03,si,20260226-151951,1.0.2,20260219-152011,777,Introduction,Both,1,Automatic,main,6,20260226-152157,global,global,750,H,S,E,A,H-E.png,S-A.png,hH,sS,mask-2.png,mask-1.png,h,1,1.6357140999753028,s,1,0.4422424000222236,0.10035620001144707,0.10032589989714324,0.20052809990011156,0.19929779996164143,0.7517146000172943
RSVPLG03,si,20260226-151951,1.0.2,20260219-152011,777,Introduction,Both,1,Automatic,main,7,20260226-152204,local,global,750,S,H,A,E,A-S.png,H-E.png,sS,hH,mask-4.png,mask-3.png,s,1,0.989936700090766,h,1,0.41606529988348484,0.10133170010522008,0.09986339998431504,0.1997992000542581,0.19995180005207658,0.7508988999761641
RSVPLG03,si,20260226-151951,1.0.2,20260219-152011,777,Introduction,Both,1,Automatic,main,8,20260226-152210,global,global,750,H,H,E,A,H-E.png,H-A.png,hH,hH,mask-4.png,mask-2.png,h,1,1.271219100104645,h,1,0.4341907000634819,0.09943119995296001,0.1005778000690043,0.20048330002464354,0.19973709993064404,0.7504594000056386
RSVPLG03,si,20260226-151951,1.0.2,20260219-152011,777,Introduction,Both,1,Automatic,main,9,20260226-152216,local,local,750,H,S,A,E,A-H.png,E-S.png,hH,sS,mask-2.png,mask-4.png,h,1,0.9759667001198977,s,1,0.3051388000603765,0.09955579997040331,0.10099210008047521,0.20160909998230636,0.20015619997866452,0.7507591000758111
RSVPLG03,si,20260226-151951,1.0.2,20260219-152011,777,Introduction,Both,1,Automatic,main,10,20260226-152221,global,local,750,S,H,A,E,S-A.png,E-H.png,sS,hH,mask-1.png,mask-1.png,s,1,1.1481860999483615,h,1,0.15276150009594858,0.09968969994224608,0.10190689982846379,0.20183879998512566,0.20286699989810586,0.7501988001167774
RSVPLG03,si,20260226-151951,1.0.2,20260219-152011,777,Introduction,Both,1,Automatic,main,11,20260226-152227,global,global,750,S,S,A,E,S-A.png,S-E.png,sS,sS,mask-3.png,mask-2.png,s,1,1.417089099995792,h,0,0.16174280014820397,0.10003029997460544,0.1014523000922054,0.19902850012294948,0.20137699996121228,0.7494717000517994
RSVPLG03,si,20260226-151951,1.0.2,20260219-152011,777,Introduction,Both,1,Automatic,main,12,20260226-152233,global,local,750,S,S,A,E,S-A.png,E-S.png,sS,sS,mask-4.png,mask-3.png,s,1,0.561341900145635,s,1,0.4174671000801027,0.10043439990840852,0.0997730998788029,0.19846850004978478,0.20064579998143017,0.7502667000517249
RSVPLG03,si,20260226-151951,1.0.2,20260219-152011,777,Introduction,Both,1,Automatic,main,13,20260226-152238,global,global,750,H,S,A,A,H-A.png,S-A.png,hH,sS,mask-3.png,mask-1.png,s,0,0.7627871998120099,h,0,0.7882964999880642,0.0999557999894023,0.10001039993949234,0.20064030005596578,0.20032890001311898,0.7500593999866396
RSVPLG03,si,20260226-151951,1.0.2,20260219-152011,777,Introduction,Both,1,Automatic,main,14,20260226-152244,global,local,750,S,H,E,A,S-E.png,A-H.png,sS,hH,mask-2.png,mask-2.png,s,1,1.3705865999218076,h,1,0.3531466999556869,0.09871829999610782,0.09962570015341043,0.19886490004137158,0.19934990000911057,0.7500654999166727
RSVPLG03,si,20260226-151951,1.0.2,20260219-152011,777,Introduction,Both,1,Automatic,main,15,20260226-152250,local,global,750,H,H,A,A,A-H.png,H-A.png,hH,hH,mask-1.png,mask-3.png,h,1,1.0829034000635147,h,1,1.307178599992767,0.09895969997160137,0.09945970005355775,0.19836669997312129,0.200304500060156,0.7500425998587161
RSVPLG03,si,20260226-151951,1.0.2,20260219-152011,777,Introduction,Both,1,Automatic,main,16,20260226-152256,local,local,750,S,S,E,A,E-S.png,A-S.png,sS,sS,mask-4.png,mask-2.png,s,1,1.714969899971038,h,0,0.2642312999814749,0.09934519999660552,0.09970309981144965,0.2003295999020338,0.20197329996153712,0.7494427000638098
RSVPLG03,si,20260226-152347,1.0.2,20260219-152011,777,Practice,Both,1,Automatic,main,1,20260226-152421,local,local,300,S,S,E,A,E-S.png,A-S.png,sS,sS,mask-3.png,mask-2.png,h,0,2.343555400148034,s,1,0.07966839987784624,0.04819700005464256,0.049552799900993705,0.09800749993883073,0.0990605999249965,0.298961800057441
RSVPLG03,si,20260226-152347,1.0.2,20260219-152011,777,Practice,Both,1,Automatic,main,2,20260226-152427,global,global,750,H,S,E,A,H-E.png,S-A.png,hH,sS,mask-3.png,mask-3.png,h,1,1.5562652999069542,h,0,0.3299390999600291,0.04931390006095171,0.0486026001162827,0.09964510006830096,0.09981940011493862,0.7521480999421328
RSVPLG03,si,20260226-152347,1.0.2,20260219-152011,777,Practice,Both,1,Automatic,main,3,20260226-152433,global,local,300,S,S,A,E,S-A.png,E-S.png,sS,sS,mask-2.png,mask-1.png,s,1,2.1201182000804693,h,0,0.1042804999742657,0.04970470000989735,0.050528999883681536,0.10110730002634227,0.09929589997045696,0.30173439998179674
RSVPLG03,si,20260226-152347,1.0.2,20260219-152011,777,Practice,Both,1,Automatic,main,4,20260226-152439,local,global,750,H,H,A,A,A-H.png,H-A.png,hH,hH,mask-3.png,mask-2.png,h,1,1.329183999914676,h,1,0.07121989992447197,0.04861259995959699,0.04997109994292259,0.09996720007620752,0.10048989998176694,0.7502749999985099
RSVPLG03,si,20260226-152347,1.0.2,20260219-152011,777,Practice,Both,1,Automatic,main,5,20260226-152445,local,local,300,H,S,A,E,A-H.png,E-S.png,hH,sS,mask-4.png,mask-4.png,h,1,0.926262800116092,s,1,0.010680600069463253,0.05016219988465309,0.05017179995775223,0.10002660006284714,0.1009156999643892,0.3000300999265164
RSVPLG03,si,20260226-152347,1.0.2,20260219-152011,777,Practice,Both,1,Automatic,main,6,20260226-152449,local,global,300,H,H,A,A,A-H.png,H-A.png,hH,hH,mask-4.png,mask-1.png,s,0,3.1985377001110464,h,1,0.04757050005719066,0.05119509994983673,0.048802699893713,0.09992210008203983,0.09992359997704625,0.3007952000480145
RSVPLG03,si,20260226-152347,1.0.2,20260219-152011,777,Practice,Both,1,Automatic,main,7,20260226-152456,local,global,750,H,S,A,E,A-H.png,S-E.png,hH,sS,mask-2.png,mask-2.png,h,1,0.5984108000993729,s,1,0.28687640000134706,0.04848910006694496,0.0507406999822706,0.10057529993355274,0.10060720006003976,0.7504143000114709
RSVPLG03,si,20260226-152347,1.0.2,20260219-152011,777,Practice,Both,1,Automatic,main,8,20260226-152501,global,local,750,H,S,E,E,H-E.png,E-S.png,hH,sS,mask-3.png,mask-2.png,h,1,1.231069999979809,h,0,0.10488449991680682,0.05067169992253184,0.04930860013701022,0.10056650009937584,0.0994439001660794,0.7516375998966396
RSVPLG03,si,20260226-152347,1.0.2,20260219-152011,777,Practice,Both,1,Automatic,main,9,20260226-152507,global,local,300,S,H,E,A,S-E.png,A-H.png,sS,hH,mask-1.png,mask-1.png,s,1,0.8684235000982881,s,0,0.6024213000200689,0.04905229993164539,0.04874980007298291,0.10091229993849993,0.09982360014691949,0.30127509986050427
RSVPLG03,si,20260226-152347,1.0.2,20260219-152011,777,Practice,Both,1,Automatic,main,10,20260226-152512,local,global,300,H,S,E,E,E-H.png,S-E.png,hH,sS,mask-4.png,mask-1.png,s,0,1.9555154999252409,h,0,0.09725989983417094,0.05021819984540343,0.052022599847987294,0.10003950004465878,0.10144479991868138,0.3000237999949604
RSVPLG03,si,20260226-152347,1.0.2,20260219-152011,777,Practice,Both,1,Automatic,main,11,20260226-152518,global,global,300,S,H,E,A,S-E.png,H-A.png,sS,hH,mask-3.png,mask-1.png,s,1,0.4862333000637591,h,1,0.09994629980064929,0.0492919001262635,0.05138380010612309,0.09884920017793775,0.09979040012694895,0.30002079997211695
RSVPLG03,si,20260226-152347,1.0.2,20260219-152011,777,Practice,Both,1,Automatic,main,12,20260226-152522,global,global,300,S,S,A,A,S-A.png,S-A.png,sS,sS,mask-2.png,mask-4.png,s,1,0.5314589000772685,h,0,0.13038079999387264,0.050232899840921164,0.05014519998803735,0.09967859997414052,0.09885139996185899,0.300788699882105
RSVPLG03,si,20260226-152347,1.0.2,20260219-152011,777,Practice,Both,1,Automatic,main,13,20260226-152526,local,local,750,H,S,E,A,E-H.png,A-S.png,hH,sS,mask-4.png,mask-1.png,s,0,1.2827408001758158,h,0,0.38507509999908507,0.05043669999577105,0.05093559995293617,0.09994670003652573,0.09966520010493696,0.7518603999633342
RSVPLG03,si,20260226-152347,1.0.2,20260219-152011,777,Practice,Both,1,Automatic,main,14,20260226-152532,local,local,750,H,S,A,E,A-H.png,E-S.png,hH,sS,mask-3.png,mask-4.png,h,1,4.0456741999369115,h,0,0.440746899927035,0.05024020001292229,0.05064509995281696,0.10169710009358823,0.10199779993854463,0.7513607000000775
RSVPLG03,si,20260226-152347,1.0.2,20260219-152011,777,Practice,Both,1,Automatic,main,15,20260226-152541,global,global,750,S,H,E,E,S-E.png,H-E.png,sS,hH,mask-3.png,mask-1.png,s,1,0.8442770999390632,h,1,0.7202540000434965,0.049699499970301986,0.05007219989784062,0.10009960015304387,0.10033080005086958,0.7526964000426233
RSVPLG03,si,20260226-152347,1.0.2,20260219-152011,777,Practice,Both,1,Automatic,main,16,20260226-152546,global,local,750,S,S,E,E,S-E.png,E-S.png,sS,sS,mask-3.png,mask-1.png,s,1,0.5383903998881578,s,1,0.08402450010180473,0.04982940014451742,0.05066169984638691,0.10081239999271929,0.1016873000189662,0.7513920001219958
RSVPLG03,si,20260226-152632,1.0.2,20260219-152011,777,Experiment,Both,1,Automatic,warmup,1,20260226-152741,local,local,750,H,S,E,E,E-H.png,E-S.png,hH,sS,mask-3.png,mask-2.png,h,1,0.5048617001157254,s,1,0.1378791001625359,0.04287940007634461,0.04951509996317327,0.0937018000986427,0.1009207998868078,0.7464694001246244
RSVPLG03,si,20260226-152632,1.0.2,20260219-152011,777,Experiment,Both,1,Automatic,warmup,2,20260226-152746,global,local,750,H,S,E,E,H-E.png,E-S.png,hH,sS,mask-3.png,mask-3.png,h,1,0.44607589999213815,s,1,0.15321430005133152,0.04973539989441633,0.04987909994088113,0.1016909999307245,0.09857199992984533,0.7540364000014961
RSVPLG03,si,20260226-152632,1.0.2,20260219-152011,777,Experiment,Both,1,Automatic,warmup,3,20260226-152751,global,global,750,H,H,A,A,H-A.png,H-A.png,hH,hH,mask-4.png,mask-1.png,h,1,0.4079634000081569,h,1,0.11347229988314211,0.05060459999367595,0.05111110000871122,0.10017210012301803,0.09980709990486503,0.7526297001168132
RSVPLG03,si,20260226-152632,1.0.2,20260219-152011,777,Experiment,Both,1,Automatic,warmup,4,20260226-152756,local,local,300,S,S,A,A,A-S.png,A-S.png,sS,sS,mask-1.png,mask-2.png,h,0,0.9693626000080258,s,1,0.1904684999026358,0.04874050011858344,0.05094320001080632,0.10044800001196563,0.10086300014518201,0.29926640004850924
RSVPLG03,si,20260226-152632,1.0.2,20260219-152011,777,Experiment,Both,1,Automatic,main,5,20260226-152801,local,local,750,S,S,A,A,A-S.png,A-S.png,sS,sS,mask-3.png,mask-3.png,h,0,0.23495210008695722,s,1,0.021424500038847327,0.049482300179079175,0.051972500048577785,0.10013520019128919,0.10180349997244775,0.75160580012016
RSVPLG03,si,20260226-152632,1.0.2,20260219-152011,777,Experiment,Both,1,Automatic,main,6,20260226-152805,local,global,300,S,H,E,E,E-S.png,H-E.png,sS,hH,mask-4.png,mask-2.png,s,1,0.5118483998812735,h,1,0.07039779983460903,0.052043099887669086,0.05166029999963939,0.10201339982450008,0.10156080010347068,0.3015115999151021
RSVPLG03,si,20260226-152632,1.0.2,20260219-152011,777,Experiment,Both,1,Automatic,main,7,20260226-152809,local,global,300,H,H,E,A,E-H.png,H-A.png,hH,hH,mask-3.png,mask-3.png,h,1,0.30557619989849627,s,0,0.23390250001102686,0.049728200072422624,0.04890600009821355,0.10236400016583502,0.09822580008767545,0.30295630008913577
RSVPLG03,si,20260226-152632,1.0.2,20260219-152011,777,Experiment,Both,1,Automatic,main,8,20260226-152814,global,local,750,H,S,A,E,H-A.png,E-S.png,hH,sS,mask-2.png,mask-3.png,h,1,0.2975429999642074,s,1,0.017487699864432216,0.04893089993856847,0.049085799837484956,0.09944109991192818,0.10057440004311502,0.7515287999995053
RSVPLG03,si,20260226-152632,1.0.2,20260219-152011,777,Experiment,Both,1,Automatic,main,9,20260226-152818,local,global,300,H,S,A,A,A-H.png,S-A.png,hH,sS,mask-2.png,mask-3.png,s,0,0.3673340000677854,h,0,0.08125560008920729,0.04960380005650222,0.05044219992123544,0.10068100015632808,0.10033240006305277,0.3004258000291884
RSVPLG03,si,20260226-152632,1.0.2,20260219-152011,777,Experiment,Both,1,Automatic,main,10,20260226-152822,global,global,300,H,S,A,A,H-A.png,S-A.png,hH,sS,mask-4.png,mask-3.png,h,1,0.4326420999132097,s,1,0.05794630013406277,0.05009480006992817,0.04991120006889105,0.1004139999859035,0.09998429985716939,0.30051390011794865
RSVPLG03,si,20260226-152632,1.0.2,20260219-152011,777,Experiment,Both,1,Automatic,main,11,20260226-152826,local,local,300,H,H,A,E,A-H.png,E-H.png,hH,hH,mask-4.png,mask-4.png,h,1,0.9242886998690665,h,1,0.10601349989883602,0.048641900066286325,0.050279000075533986,0.0983855000231415,0.1013474001083523,0.3007813999429345
RSVPLG03,si,20260226-152632,1.0.2,20260219-152011,777,Experiment,Both,1,Automatic,main,12,20260226-152831,local,local,750,S,S,A,E,A-S.png,E-S.png,sS,sS,mask-3.png,mask-2.png,s,1,0.4213139999192208,h,0,0.2725700999144465,0.04839990008622408,0.05258050002157688,0.09878999995999038,0.1021265999879688,0.7503378000110388
RSVPLG03,si,20260226-152632,1.0.2,20260219-152011,777,Experiment,Both,1,Automatic,main,13,20260226-152836,global,local,300,H,S,E,E,H-E.png,E-S.png,hH,sS,mask-3.png,mask-2.png,h,1,0.6051306999288499,s,1,0.016257799929007888,0.047552699921652675,0.050977100152522326,0.09780430002138019,0.10128140007145703,0.29943339992314577
RSVPLG03,si,20260226-152632,1.0.2,20260219-152011,777,Experiment,Both,1,Automatic,main,14,20260226-152840,local,local,750,H,H,E,A,E-H.png,A-H.png,hH,hH,mask-4.png,mask-3.png,s,0,0.4557447999250144,h,1,0.26594549999572337,0.049972900189459324,0.05024349992163479,0.10042300005443394,0.10005669994279742,0.7516761000733823
RSVPLG03,si,20260226-152632,1.0.2,20260219-152011,777,Experiment,Both,1,Automatic,main,15,20260226-152845,global,local,300,S,S,E,A,S-E.png,A-S.png,sS,sS,mask-3.png,mask-3.png,s,1,0.6388622999656945,s,1,0.37801710003986955,0.04880860005505383,0.05057780002243817,0.09898420004174113,0.09953740006312728,0.30024749995209277
RSVPLG03,si,20260226-152632,1.0.2,20260219-152011,777,Experiment,Both,1,Automatic,main,16,20260226-152850,local,local,300,H,S,A,E,A-H.png,E-S.png,hH,sS,mask-2.png,mask-3.png,h,1,0.6119435001164675,h,0,0.10554989986121655,0.0491096000187099,0.05180140002630651,0.10074989986605942,0.1010791000444442,0.29985149996355176
RSVPLG03,si,20260226-152632,1.0.2,20260219-152011,777,Experiment,Both,1,Automatic,main,17,20260226-152854,local,local,750,H,S,E,E,E-H.png,E-S.png,hH,sS,mask-1.png,mask-3.png,s,0,1.5712753999978304,h,0,0.13695820001885295,0.05059479991905391,0.04975189990364015,0.10043770004995167,0.10051229991950095,0.7526917001232505
RSVPLG03,si,20260226-152632,1.0.2,20260219-152011,777,Experiment,Both,1,Automatic,main,18,20260226-152900,global,global,300,H,S,A,A,H-A.png,S-A.png,hH,sS,mask-3.png,mask-4.png,s,0,2.8143939001020044,s,1,0.12055309978313744,0.04966669995337725,0.05092139984481037,0.09938459983095527,0.09992789989337325,0.29993929993361235
RSVPLG03,si,20260226-152632,1.0.2,20260219-152011,777,Experiment,Both,1,Automatic,main,19,20260226-152907,local,local,300,H,S,A,E,A-H.png,E-S.png,hH,sS,mask-3.png,mask-1.png,h,1,0.3546561000403017,s,1,0.9079583000857383,0.04971309984102845,0.05063209985382855,0.09918269980698824,0.10204309993423522,0.30029259994626045
RSVPLG03,si,20260226-152632,1.0.2,20260219-152011,777,Experiment,Both,1,Automatic,main,20,20260226-152912,global,global,300,S,S,A,A,S-A.png,S-A.png,sS,sS,mask-3.png,mask-4.png,s,1,0.42611349979415536,h,0,0.05330529995262623,0.05064210016280413,0.051542900037020445,0.10113020008429885,0.101643200032413,0.3003589999862015
RSVPLG03,si,20260226-152632,1.0.2,20260219-152011,777,Experiment,Both,1,Automatic,main,21,20260226-152916,local,local,300,H,S,A,A,A-H.png,A-S.png,hH,sS,mask-4.png,mask-4.png,h,1,0.7788132999558002,s,1,0.02319869981147349,0.04921029997058213,0.04987420001998544,0.10010170005261898,0.1030687999445945,0.30159189994446933
RSVPLG03,si,20260226-152632,1.0.2,20260219-152011,777,Experiment,Both,1,Automatic,main,22,20260226-152921,local,global,300,S,S,A,A,A-S.png,S-A.png,sS,sS,mask-4.png,mask-1.png,h,0,0.6114282000344247,s,1,0.028487199917435646,0.049286199966445565,0.05051640002056956,0.09978639986366034,0.10018700012005866,0.3003347998019308
RSVPLG03,si,20260226-152632,1.0.2,20260219-152011,777,Experiment,Both,1,Automatic,main,23,20260226-152925,global,local,300,H,S,E,A,H-E.png,A-S.png,hH,sS,mask-2.png,mask-1.png,h,1,1.0930016001220793,h,0,0.25666369986720383,0.049191800178959966,0.049791699973866343,0.09907320002093911,0.1000173999927938,0.3012794000096619
RSVPLG03,si,20260226-152632,1.0.2,20260219-152011,777,Experiment,Both,1,Automatic,main,24,20260226-152930,local,global,300,H,S,A,A,A-H.png,S-A.png,hH,sS,mask-1.png,mask-1.png,h,1,0.8237222000025213,s,1,0.01407049992121756,0.04950439999811351,0.04929409991018474,0.09969669999554753,0.10076029994525015,0.3001467001158744
RSVPLG03,si,20260226-152632,1.0.2,20260219-152011,777,Experiment,Both,1,Automatic,main,25,20260226-152935,global,global,750,H,S,E,E,H-E.png,S-E.png,hH,sS,mask-3.png,mask-3.png,h,1,0.5235457001253963,h,0,0.13084880006499588,0.04917389992624521,0.050348199903964996,0.10068019991740584,0.10110560012981296,0.7522674999199808
RSVPLG03,si,20260226-152632,1.0.2,20260219-152011,777,Experiment,Both,1,Automatic,main,26,20260226-152948,local,global,300,H,S,A,E,A-H.png,S-E.png,hH,sS,mask-4.png,mask-3.png,h,1,0.8644004000816494,s,1,0.9925011000595987,0.04889139998704195,0.05081319995224476,0.09734930004924536,0.10087500000372529,0.2990113999694586
RSVPLG03,si,20260226-152632,1.0.2,20260219-152011,777,Experiment,Both,1,Automatic,main,27,20260226-152953,global,local,300,H,H,E,E,H-E.png,E-H.png,hH,hH,mask-1.png,mask-4.png,h,1,1.4194936000276357,h,1,0.20286879991181195,0.04990520002320409,0.05016739992424846,0.10141670005396008,0.10107199987396598,0.30033320002257824
RSVPLG03,si,20260226-152632,1.0.2,20260219-152011,777,Experiment,Both,1,Automatic,main,28,20260226-152958,global,local,300,H,S,E,A,H-E.png,A-S.png,hH,sS,mask-3.png,mask-3.png,h,1,0.583070799941197,h,0,0.14186100009828806,0.04954189993441105,0.05074050021357834,0.09947040001861751,0.10207540006376803,0.29943579994142056
RSVPLG03,si,20260226-152632,1.0.2,20260219-152011,777,Experiment,Both,1,Automatic,main,29,20260226-153002,global,global,300,S,H,E,A,S-E.png,H-A.png,sS,hH,mask-2.png,mask-4.png,s,1,0.3117196001112461,h,1,0.10475259996019304,0.0498794000595808,0.04943710006773472,0.10016639996320009,0.09919580002315342,0.3023731999564916
RSVPLG03,si,20260226-152632,1.0.2,20260219-152011,777,Experiment,Both,1,Automatic,main,30,20260226-153007,global,global,300,S,S,E,A,S-E.png,S-A.png,sS,sS,mask-3.png,mask-4.png,s,1,0.37970980000682175,h,0,0.05687540001235902,0.04905609996058047,0.050483600003644824,0.10086150001734495,0.09934610011987388,0.3004300999455154
RSVPLG03,si,20260226-152632,1.0.2,20260219-152011,777,Experiment,Both,1,Automatic,main,31,20260226-153011,local,global,750,H,S,A,E,A-H.png,S-E.png,hH,sS,mask-4.png,mask-4.png,h,1,0.38785400008782744,s,1,0.3061835002154112,0.0495145998429507,0.05038530007004738,0.10104279988445342,0.10118720005266368,0.7535611998755485
RSVPLG03,si,20260226-152632,1.0.2,20260219-152011,777,Experiment,Both,1,Automatic,main,32,20260226-153016,local,local,300,S,S,E,A,E-S.png,A-S.png,sS,sS,mask-3.png,mask-4.png,s,1,0.916598099982366,h,0,0.01752880006097257,0.04927400010637939,0.0510134999640286,0.10001890012063086,0.09988350002095103,0.30052080005407333
RSVPLG03,si,20260226-152632,1.0.2,20260219-152011,777,Experiment,Both,1,Automatic,main,33,20260226-153021,local,global,750,S,H,A,A,A-S.png,H-A.png,sS,hH,mask-1.png,mask-3.png,s,1,0.42812589998357,h,1,1.0797339999116957,0.0502150000538677,0.05002409988082945,0.10058420011773705,0.10181430005468428,0.7510738000273705
RSVPLG03,si,20260226-152632,1.0.2,20260219-152011,777,Experiment,Both,1,Automatic,main,34,20260226-153026,global,local,300,S,S,A,A,S-A.png,A-S.png,sS,sS,mask-4.png,mask-1.png,s,1,0.2539703999646008,h,0,0.1942267999984324,0.05005720001645386,0.05026619997806847,0.10065450007095933,0.10105770011432469,0.3016600999981165
RSVPLG03,si,20260226-152632,1.0.2,20260219-152011,777,Experiment,Both,1,Automatic,main,35,20260226-153031,global,local,750,H,H,E,A,H-E.png,A-H.png,hH,hH,mask-3.png,mask-4.png,h,1,0.28606799989938736,h,1,0.12189919990487397,0.049595999997109175,0.04956139996647835,0.1001371000893414,0.09980870014987886,0.7513218999374658
RSVPLG03,si,20260226-152632,1.0.2,20260219-152011,777,Experiment,Both,1,Automatic,main,36,20260226-153035,global,local,300,S,S,A,E,S-A.png,E-S.png,sS,sS,mask-1.png,mask-2.png,s,1,0.45905489986762404,h,0,0.05006579984910786,0.05168889998458326,0.05015960009768605,0.10219789994880557,0.10053770011290908,0.30246599996462464
RSVPLG03,si,20260226-152632,1.0.2,20260219-152011,777,Experiment,Both,1,Automatic,main,37,20260226-153039,global,global,750,S,H,A,A,S-A.png,H-A.png,sS,hH,mask-4.png,mask-3.png,h,0,0.40243620006367564,s,0,0.24670280003920197,0.0487036001868546,0.050483600003644824,0.10071110003627837,0.10065190005116165,0.7525913000572473
RSVPLG03,si,20260226-152632,1.0.2,20260219-152011,777,Experiment,Both,1,Automatic,main,38,20260226-153044,local,local,750,S,H,A,A,A-S.png,A-H.png,sS,hH,mask-1.png,mask-3.png,h,0,0.0927112998906523,h,1,0.38225640007294714,0.04943659994751215,0.051104600075632334,0.09922449989244342,0.10064370022155344,0.7508728997781873
RSVPLG03,si,20260226-152632,1.0.2,20260219-152011,777,Experiment,Both,1,Automatic,main,39,20260226-153049,global,global,750,H,H,A,E,H-A.png,H-E.png,hH,hH,mask-4.png,mask-4.png,h,1,0.3869731999002397,h,1,0.20074250013567507,0.04955110000446439,0.05025329999625683,0.10089010000228882,0.1000983000267297,0.7517178000416607
RSVPLG03,si,20260226-152632,1.0.2,20260219-152011,777,Experiment,Both,1,Automatic,main,40,20260226-153054,global,global,750,H,S,E,A,H-E.png,S-A.png,hH,sS,mask-2.png,mask-4.png,h,1,0.07457129983231425,s,1,0.11156749981455505,0.05249279993586242,0.05063810013234615,0.10127989994361997,0.10166579997166991,0.7520762998610735
RSVPLG03,si,20260226-152632,1.0.2,20260219-152011,777,Experiment,Both,1,Automatic,main,41,20260226-153058,global,local,750,H,H,E,E,H-E.png,E-H.png,hH,hH,mask-1.png,mask-1.png,h,1,0.2133491998538375,h,1,0.6254624000284821,0.04979509999975562,0.05019229999743402,0.10071310005150735,0.100247299997136,0.7527894000522792
RSVPLG03,si,20260226-152632,1.0.2,20260219-152011,777,Experiment,Both,1,Automatic,main,42,20260226-153103,global,local,750,S,S,E,A,S-E.png,A-S.png,sS,sS,mask-1.png,mask-4.png,h,0,0.35620280005969107,h,0,0.6102156999986619,0.04986029979772866,0.049942499957978725,0.10143499984405935,0.10071250004693866,0.7538375998847187
RSVPLG03,si,20260226-152632,1.0.2,20260219-152011,777,Experiment,Both,1,Automatic,main,43,20260226-153108,local,local,300,S,S,E,A,E-S.png,A-S.png,sS,sS,mask-4.png,mask-1.png,h,0,0.8214372000657022,s,1,0.10500769992358983,0.048916899831965566,0.04998019989579916,0.1005050998646766,0.10090809990651906,0.3003169000148773
RSVPLG03,si,20260226-152632,1.0.2,20260219-152011,777,Experiment,Both,1,Automatic,main,44,20260226-153113,global,local,750,H,H,A,E,H-A.png,E-H.png,hH,hH,mask-3.png,mask-3.png,h,1,0.22826230013743043,h,1,0.6254654000513256,0.05122340004891157,0.04974799999035895,0.10187550005502999,0.10022959997877479,0.7537253999616951
RSVPLG03,si,20260226-152632,1.0.2,20260219-152011,777,Experiment,Both,1,Automatic,main,45,20260226-153118,global,global,300,S,S,A,E,S-A.png,S-E.png,sS,sS,mask-4.png,mask-4.png,s,1,0.2999507999047637,s,1,0.160617999965325,0.0507366000674665,0.04766770009882748,0.10227759997360408,0.09987350017763674,0.30355129996314645
RSVPLG03,si,20260226-152632,1.0.2,20260219-152011,777,Experiment,Both,1,Automatic,main,46,20260226-153122,global,global,750,S,S,A,E,S-A.png,S-E.png,sS,sS,mask-3.png,mask-1.png,s,1,0.3482673999387771,h,0,0.12165190000087023,0.05001999996602535,0.050793400034308434,0.10142299998551607,0.09970879997126758,0.7514881999231875
RSVPLG03,si,20260226-152632,1.0.2,20260219-152011,777,Experiment,Both,1,Automatic,main,47,20260226-153127,local,local,300,H,S,A,A,A-H.png,A-S.png,hH,sS,mask-3.png,mask-3.png,h,1,1.6749299999792129,h,0,0.2086750001180917,0.0501568999607116,0.050327799981459975,0.09874240006320179,0.1003123999107629,0.3005562999751419
RSVPLG03,si,20260226-152632,1.0.2,20260219-152011,777,Experiment,Both,1,Automatic,main,48,20260226-153133,local,local,750,H,S,A,E,A-H.png,E-S.png,hH,sS,mask-2.png,mask-3.png,h,1,0.10633080010302365,s,1,0.02632519998587668,0.049516000086441636,0.04950339999049902,0.10035960003733635,0.09988699993118644,0.7528338001575321
RSVPLG03,si,20260226-152632,1.0.2,20260219-152011,777,Experiment,Both,1,Automatic,main,49,20260226-153137,global,local,300,H,H,A,A,H-A.png,A-H.png,hH,hH,mask-3.png,mask-2.png,h,1,0.7298732998315245,s,0,0.9297848998103291,0.04890809999778867,0.049611200112849474,0.09912510006688535,0.10070950002409518,0.3003507999237627
RSVPLG03,si,20260226-152632,1.0.2,20260219-152011,777,Experiment,Both,1,Automatic,main,50,20260226-153142,local,global,750,H,S,E,E,E-H.png,S-E.png,hH,sS,mask-1.png,mask-2.png,h,1,1.1280237999744713,s,1,0.00773270009085536,0.050089600030332804,0.052006500074639916,0.10012280009686947,0.10168619989417493,0.7520576000679284
RSVPLG03,si,20260226-152632,1.0.2,20260219-152011,777,Experiment,Both,1,Automatic,main,51,20260226-153156,global,global,750,S,S,A,E,S-A.png,S-E.png,sS,sS,mask-4.png,mask-1.png,s,1,0.3904762000311166,s,1,0.5486296999733895,0.053542899899184704,0.04906970006413758,0.10186020005494356,0.10051489993929863,0.7538697998970747
RSVPLG03,si,20260226-152632,1.0.2,20260219-152011,777,Experiment,Both,1,Automatic,main,52,20260226-153201,local,local,750,S,S,E,A,E-S.png,A-S.png,sS,sS,mask-2.png,mask-2.png,s,1,0.4614903999026865,h,0,0.06366360001266003,0.05064689996652305,0.049482000060379505,0.09989780001342297,0.09977789991535246,0.7522507000248879
RSVPLG03,si,20260226-152632,1.0.2,20260219-152011,777,Experiment,Both,1,Automatic,main,53,20260226-153206,local,global,300,S,S,E,E,E-S.png,S-E.png,sS,sS,mask-2.png,mask-1.png,s,1,0.5883792000822723,s,1,0.1331696999259293,0.0492338000331074,0.04981559980660677,0.0988794001750648,0.10102849989198148,0.299011800205335
RSVPLG03,si,20260226-152632,1.0.2,20260219-152011,777,Experiment,Both,1,Automatic,main,54,20260226-153210,local,local,300,S,S,A,E,A-S.png,E-S.png,sS,sS,mask-1.png,mask-4.png,h,0,0.4779160001780838,s,1,0.05804269993677735,0.05025040009059012,0.049319100100547075,0.10110050020739436,0.10125940013676882,0.3021132000721991
RSVPLG03,si,20260226-152632,1.0.2,20260219-152011,777,Experiment,Both,1,Automatic,main,55,20260226-153215,global,local,750,H,H,E,A,H-E.png,A-H.png,hH,hH,mask-2.png,mask-3.png,h,1,0.025191699853166938,h,1,0.6016528001055121,0.05181970004923642,0.04962679999880493,0.10254150000400841,0.099806800018996,0.7537811000365764
RSVPLG03,si,20260226-152632,1.0.2,20260219-152011,777,Experiment,Both,1,Automatic,main,56,20260226-153220,local,local,750,H,H,A,A,A-H.png,A-H.png,hH,hH,mask-3.png,mask-4.png,h,1,0.3049674998037517,h,1,0.1210290000308305,0.04980000015348196,0.049268199829384685,0.10059739998541772,0.09791999985463917,0.7544709001667798
RSVPLG03,si,20260226-152632,1.0.2,20260219-152011,777,Experiment,Both,1,Automatic,main,57,20260226-153224,local,local,300,H,H,E,E,E-H.png,E-H.png,hH,hH,mask-1.png,mask-3.png,s,0,0.32172759994864464,s,0,0.13840240007266402,0.05038499995134771,0.05144539987668395,0.10100969998165965,0.10080030001699924,0.30125409993343055
RSVPLG03,si,20260226-152632,1.0.2,20260219-152011,777,Experiment,Both,1,Automatic,main,58,20260226-153228,global,global,300,H,H,A,E,H-A.png,H-E.png,hH,hH,mask-3.png,mask-4.png,h,1,0.7453395999036729,s,0,0.04150170017965138,0.051978500094264746,0.051988699939101934,0.10182560002431273,0.10121369990520179,0.30030760006047785
RSVPLG03,si,20260226-152632,1.0.2,20260219-152011,777,Experiment,Both,1,Automatic,main,59,20260226-153233,local,local,750,H,S,A,A,A-H.png,A-S.png,hH,sS,mask-3.png,mask-3.png,h,1,0.19645210006274283,h,0,0.19123849994502962,0.04973770002834499,0.049339900026097894,0.1011193001177162,0.0994947999715805,0.7538386001251638
RSVPLG03,si,20260226-152632,1.0.2,20260219-152011,777,Experiment,Both,1,Automatic,main,60,20260226-153238,global,global,750,S,S,E,E,S-E.png,S-E.png,sS,sS,mask-1.png,mask-3.png,h,0,0.4653882998973131,h,0,0.6642308000009507,0.0507518001832068,0.05003109993413091,0.1011228000279516,0.10107060009613633,0.7524552000686526
RSVPLG03,si,20260226-152632,1.0.2,20260219-152011,777,Experiment,Both,1,Automatic,main,61,20260226-153243,local,global,750,S,H,A,A,A-S.png,H-A.png,sS,hH,mask-4.png,mask-3.png,s,1,0.782961499877274,h,1,0.11440919991582632,0.049403399927541614,0.05178079986944795,0.0996669998858124,0.10117139993235469,0.7516592999454588
RSVPLG03,si,20260226-152632,1.0.2,20260219-152011,777,Experiment,Both,1,Automatic,main,62,20260226-153248,local,local,750,S,S,A,E,A-S.png,E-S.png,sS,sS,mask-4.png,mask-4.png,s,1,0.2198206998873502,s,1,0.7585743998643011,0.052055199863389134,0.05076999985612929,0.10111969988793135,0.1022361998911947,0.7535939000081271
RSVPLG03,si,20260226-152632,1.0.2,20260219-152011,777,Experiment,Both,1,Automatic,main,63,20260226-153253,global,global,750,H,S,E,E,H-E.png,S-E.png,hH,sS,mask-2.png,mask-1.png,h,1,0.3471888001076877,h,0,0.2238422001246363,0.04990889993496239,0.050479100085794926,0.10016719996929169,0.10127560002729297,0.7513307998888195
RSVPLG03,si,20260226-152632,1.0.2,20260219-152011,777,Experiment,Both,1,Automatic,main,64,20260226-153258,local,global,750,H,H,E,E,E-H.png,H-E.png,hH,hH,mask-2.png,mask-3.png,s,0,0.9869157001376152,h,1,0.31398990005254745,0.05039500002749264,0.050215200055390596,0.10137369995936751,0.09986130008473992,0.752688999986276
RSVPLG03,si,20260226-152632,1.0.2,20260219-152011,777,Experiment,Both,1,Automatic,main,65,20260226-153304,local,local,750,S,H,E,E,E-S.png,E-H.png,sS,hH,mask-2.png,mask-3.png,h,0,4.426054399926215,s,0,0.18667580001056194,0.04933699988760054,0.04934910009615123,0.09995639999397099,0.10002849996089935,0.7525203998666257
RSVPLG03,si,20260226-152632,1.0.2,20260219-152011,777,Experiment,Both,1,Automatic,main,66,20260226-153312,local,local,300,S,S,E,A,E-S.png,A-S.png,sS,sS,mask-4.png,mask-4.png,s,1,0.6040592999197543,h,0,0.4705904999282211,0.05038360017351806,0.05205169995315373,0.10009640012867749,0.10181490005925298,0.3002788000740111
RSVPLG03,si,20260226-152632,1.0.2,20260219-152011,777,Experiment,Both,1,Automatic,main,67,20260226-153317,local,local,300,S,H,A,E,A-S.png,E-H.png,sS,hH,mask-1.png,mask-2.png,s,1,0.6843107000458986,h,1,0.27329979999922216,0.04980529984459281,0.04977930011227727,0.10237349988892674,0.10143080004490912,0.30213329987600446
RSVPLG03,si,20260226-152632,1.0.2,20260219-152011,777,Experiment,Both,1,Automatic,main,68,20260226-153322,global,local,750,S,H,A,E,S-A.png,E-H.png,sS,hH,mask-4.png,mask-4.png,s,1,0.22533459984697402,h,1,0.11178189981728792,0.05136460019275546,0.05042650015093386,0.1013762999791652,0.10035310010425746,0.7542542000301182
RSVPLG03,si,20260226-152632,1.0.2,20260219-152011,777,Experiment,Both,1,Automatic,main,69,20260226-153326,local,global,750,H,S,A,E,A-H.png,S-E.png,hH,sS,mask-2.png,mask-1.png,h,1,0.5195877999067307,h,0,0.20041500008665025,0.05092870001681149,0.049510000040754676,0.1024378000292927,0.1002464999910444,0.7542393999174237
RSVPLG03,si,20260226-152632,1.0.2,20260219-152011,777,Experiment,Both,1,Automatic,main,70,20260226-153331,global,global,750,H,H,A,A,H-A.png,H-A.png,hH,hH,mask-3.png,mask-3.png,h,1,0.5776166999712586,h,1,0.15456050005741417,0.05032710009254515,0.04999949992634356,0.10086170001886785,0.10005729994736612,0.7526005001273006
RSVPLG03,si,20260226-152632,1.0.2,20260219-152011,777,Experiment,Both,1,Automatic,main,71,20260226-153336,local,global,300,H,H,E,E,E-H.png,H-E.png,hH,hH,mask-3.png,mask-4.png,s,0,0.5124906999990344,h,1,0.19381229998543859,0.049886400112882257,0.04999629990197718,0.0995153000112623,0.10173419979400933,0.2995224001351744
RSVPLG03,si,20260226-152632,1.0.2,20260219-152011,777,Experiment,Both,1,Automatic,main,72,20260226-153341,local,global,750,H,H,E,E,E-H.png,H-E.png,hH,hH,mask-3.png,mask-2.png,h,1,0.4266938001383096,h,1,0.1379269000608474,0.04908440005965531,0.04725439986214042,0.10153230000287294,0.09904500003904104,0.7542795999906957
RSVPLG03,si,20260226-152632,1.0.2,20260219-152011,777,Experiment,Both,1,Automatic,main,73,20260226-153346,global,local,750,H,S,A,E,H-A.png,E-S.png,hH,sS,mask-3.png,mask-2.png,h,1,0.6667873000260442,s,1,0.1747653998900205,0.05179270007647574,0.04980630008503795,0.09928840002976358,0.0991382000502199,0.753644899930805
RSVPLG03,si,20260226-152632,1.0.2,20260219-152011,777,Experiment,Both,1,Automatic,main,74,20260226-153351,local,global,300,S,H,E,E,E-S.png,H-E.png,sS,hH,mask-3.png,mask-2.png,h,0,1.0024037000257522,s,0,0.9503317000344396,0.04973000008612871,0.05113610019907355,0.10172690008766949,0.10250810021534562,0.3017271999269724
RSVPLG03,si,20260226-152632,1.0.2,20260219-152011,777,Experiment,Both,1,Automatic,main,75,20260226-153357,global,local,750,S,S,E,E,S-E.png,E-S.png,sS,sS,mask-2.png,mask-3.png,s,1,0.36863790010102093,s,1,0.17629009997472167,0.050619800109416246,0.050056600011885166,0.09992700000293553,0.10105850012041628,0.7519016000442207
RSVPLG03,si,20260226-152632,1.0.2,20260219-152011,777,Experiment,Both,1,Automatic,main,76,20260226-153410,global,local,300,H,H,A,A,H-A.png,A-H.png,hH,hH,mask-4.png,mask-2.png,h,1,0.9089965000748634,h,1,0.11183800012804568,0.051196200074627995,0.05111690005287528,0.1021030000410974,0.10130360000766814,0.30024680006317794
RSVPLG03,si,20260226-152632,1.0.2,20260219-152011,777,Experiment,Both,1,Automatic,main,77,20260226-153415,global,global,300,S,H,E,A,S-E.png,H-A.png,sS,hH,mask-3.png,mask-3.png,s,1,0.32117390003986657,h,1,0.049924000166356564,0.0496458001434803,0.050444599939510226,0.099138000048697,0.09996260004118085,0.3003229000605643
RSVPLG03,si,20260226-152632,1.0.2,20260219-152011,777,Experiment,Both,1,Automatic,main,78,20260226-153419,global,global,750,S,S,E,E,S-E.png,S-E.png,sS,sS,mask-3.png,mask-2.png,s,1,0.26632279995828867,s,1,0.14388930005952716,0.051616800017654896,0.05095270019955933,0.10194239998236299,0.10023310012184083,0.7529388999100775
RSVPLG03,si,20260226-152632,1.0.2,20260219-152011,777,Experiment,Both,1,Automatic,main,79,20260226-153424,global,local,300,H,H,A,A,H-A.png,A-H.png,hH,hH,mask-3.png,mask-2.png,s,0,0.4750938001088798,h,1,0.6435821000486612,0.050229799933731556,0.05036420002579689,0.10017469990998507,0.09963120007887483,0.30092619988135993
RSVPLG03,si,20260226-152632,1.0.2,20260219-152011,777,Experiment,Both,1,Automatic,main,80,20260226-153428,global,global,300,S,S,A,A,S-A.png,S-A.png,sS,sS,mask-2.png,mask-2.png,s,1,0.5815763000864536,s,1,0.15883819991722703,0.0489071998745203,0.05183969996869564,0.09948859992437065,0.10024380008690059,0.30003829998895526
RSVPLG03,si,20260226-152632,1.0.2,20260219-152011,777,Experiment,Both,1,Automatic,main,81,20260226-153432,global,global,300,H,H,A,A,H-A.png,H-A.png,hH,hH,mask-1.png,mask-4.png,h,1,5.233592899981886,h,1,0.3544355002231896,0.05049600009806454,0.04940730007365346,0.10167280002497137,0.0992376001086086,0.3018251999747008
RSVPLG03,si,20260226-152632,1.0.2,20260219-152011,777,Experiment,Both,1,Automatic,main,82,20260226-153442,local,global,750,S,S,E,A,E-S.png,S-A.png,sS,sS,mask-4.png,mask-3.png,s,1,0.1983541001100093,s,1,0.2792422999627888,0.04943459993228316,0.05142479995265603,0.10174529999494553,0.101173099828884,0.7529254001565278
RSVPLG03,si,20260226-152632,1.0.2,20260219-152011,777,Experiment,Both,1,Automatic,main,83,20260226-153447,global,global,750,S,S,E,A,S-E.png,S-A.png,sS,sS,mask-2.png,mask-2.png,s,1,2.095934099983424,h,0,0.1225210998672992,0.04782329988665879,0.04870899999514222,0.09857479995116591,0.09863540017977357,0.752994499867782
RSVPLG03,si,20260226-152632,1.0.2,20260219-152011,777,Experiment,Both,1,Automatic,main,84,20260226-153453,global,local,300,H,H,A,E,H-A.png,E-H.png,hH,hH,mask-1.png,mask-2.png,h,1,2.654951599892229,s,0,0.02656179992482066,0.04911829996854067,0.05060590011999011,0.0997675999533385,0.10106620006263256,0.2999950998928398
RSVPLG03,si,20260226-152632,1.0.2,20260219-152011,777,Experiment,Both,1,Automatic,main,85,20260226-153459,global,local,750,H,S,A,E,H-A.png,E-S.png,hH,sS,mask-4.png,mask-3.png,s,0,6.27186349988915,s,1,0.2176720998249948,0.05294349999167025,0.04940290004014969,0.10056040016934276,0.10039989999495447,0.7537328000180423
RSVPLG03,si,20260226-152632,1.0.2,20260219-152011,777,Experiment,Both,1,Automatic,main,86,20260226-153510,local,global,750,S,S,A,A,A-S.png,S-A.png,sS,sS,mask-3.png,mask-1.png,s,1,0.49568470008671284,h,0,0.15423450013622642,0.05062009999528527,0.04729999997653067,0.10252640000544488,0.09868109994567931,0.7552378999534994
RSVPLG03,si,20260226-152632,1.0.2,20260219-152011,777,Experiment,Both,1,Automatic,main,87,20260226-153515,local,global,300,H,S,E,E,E-H.png,S-E.png,hH,sS,mask-2.png,mask-3.png,h,1,0.36997410003095865,s,1,0.02413339982740581,0.04833660018630326,0.05187229998409748,0.1013281000778079,0.1014328000601381,0.2992940000258386
RSVPLG03,si,20260226-152632,1.0.2,20260219-152011,777,Experiment,Both,1,Automatic,main,88,20260226-153519,global,local,750,H,H,A,A,H-A.png,A-H.png,hH,hH,mask-2.png,mask-1.png,h,1,0.30948220007121563,h,1,0.11214100010693073,0.05071430001407862,0.049572500167414546,0.10289320000447333,0.09991520014591515,0.7533588998485357
RSVPLG03,si,20260226-152632,1.0.2,20260219-152011,777,Experiment,Both,1,Automatic,main,89,20260226-153524,global,local,750,H,S,A,E,H-A.png,E-S.png,hH,sS,mask-3.png,mask-2.png,h,1,0.3092729998752475,s,1,0.08779450017027557,0.05205329996533692,0.050868599908426404,0.09940290008671582,0.1014809999614954,0.7530581001192331
RSVPLG03,si,20260226-152632,1.0.2,20260219-152011,777,Experiment,Both,1,Automatic,main,90,20260226-153528,local,global,300,S,H,A,E,A-S.png,H-E.png,sS,hH,mask-4.png,mask-2.png,h,0,0.39451889996416867,h,1,0.09168730000965297,0.0493151000700891,0.05065910005941987,0.1009551000315696,0.10031290003098547,0.2998047999572009
RSVPLG03,si,20260226-152632,1.0.2,20260219-152011,777,Experiment,Both,1,Automatic,main,91,20260226-153533,local,local,750,H,S,E,A,E-H.png,A-S.png,hH,sS,mask-3.png,mask-3.png,s,0,0.30957009992562234,h,0,0.12174180010333657,0.051454100059345365,0.0507130001205951,0.10038860002532601,0.10053750011138618,0.7534837999846786
RSVPLG03,si,20260226-152632,1.0.2,20260219-152011,777,Experiment,Both,1,Automatic,main,92,20260226-153537,global,global,300,H,S,A,E,H-A.png,S-E.png,hH,sS,mask-1.png,mask-4.png,s,0,1.981823799898848,h,0,0.17547570005990565,0.050404699984937906,0.049748599994927645,0.10111630009487271,0.10067730001173913,0.3031033000443131
RSVPLG03,si,20260226-152632,1.0.2,20260219-152011,777,Experiment,Both,1,Automatic,main,93,20260226-153543,local,local,300,H,H,E,E,E-H.png,E-H.png,hH,hH,mask-3.png,mask-4.png,s,0,3.3621528998482972,h,1,0.1447730998042971,0.05095990002155304,0.05075710010714829,0.10054170014336705,0.1000275001861155,0.3005993999540806
RSVPLG03,si,20260226-152632,1.0.2,20260219-152011,777,Experiment,Both,1,Automatic,main,94,20260226-153551,local,global,750,S,S,E,E,E-S.png,S-E.png,sS,sS,mask-2.png,mask-4.png,s,1,3.549903100123629,s,1,0.34166120016016066,0.05035999999381602,0.050660100067034364,0.10186260007321835,0.10067069996148348,0.7520757999736816
RSVPLG03,si,20260226-152632,1.0.2,20260219-152011,777,Experiment,Both,1,Automatic,main,95,20260226-153559,global,global,750,H,S,E,E,H-E.png,S-E.png,hH,sS,mask-4.png,mask-4.png,s,0,0.126507299952209,h,0,0.23253539996221662,0.04823469999246299,0.05042449990287423,0.09868060005828738,0.1004646997898817,0.7526480001397431
RSVPLG03,si,20260226-152632,1.0.2,20260219-152011,777,Experiment,Both,1,Automatic,main,96,20260226-153603,global,local,300,S,H,E,E,S-E.png,E-H.png,sS,hH,mask-2.png,mask-3.png,h,0,0.4326535000000149,h,1,0.1930382999125868,0.04866129998117685,0.050375499995425344,0.10035249986685812,0.10186740010976791,0.30017429986037314
RSVPLG03,si,20260226-152632,1.0.2,20260219-152011,777,Experiment,Both,1,Automatic,main,97,20260226-153608,local,global,750,S,S,E,A,E-S.png,S-A.png,sS,sS,mask-4.png,mask-2.png,h,0,0.3977844000328332,h,0,0.6427776000928134,0.049637700198218226,0.05063369986601174,0.10208870004862547,0.1002519999165088,0.753094700165093
RSVPLG03,si,20260226-152632,1.0.2,20260219-152011,777,Experiment,Both,1,Automatic,main,98,20260226-153613,local,global,300,S,S,E,A,E-S.png,S-A.png,sS,sS,mask-1.png,mask-1.png,s,1,0.574839900014922,s,1,0.21933059999719262,0.04973399988375604,0.04889159998856485,0.09996029990725219,0.10035610012710094,0.30095059983432293
RSVPLG03,si,20260226-152632,1.0.2,20260219-152011,777,Experiment,Both,1,Automatic,main,99,20260226-153617,local,global,750,S,H,E,E,E-S.png,H-E.png,sS,hH,mask-1.png,mask-1.png,h,0,2.0941478998865932,s,0,0.05700469994917512,0.050172399962320924,0.051204000134021044,0.1003048000857234,0.10252559999935329,0.7518068000208586
RSVPLG03,si,20260226-152632,1.0.2,20260219-152011,777,Experiment,Both,1,Automatic,main,100,20260226-153624,global,global,300,S,S,A,A,S-A.png,S-A.png,sS,sS,mask-3.png,mask-1.png,s,1,0.3812257999088615,s,1,0.19352319999597967,0.05059420014731586,0.050067099975422025,0.10039749997667968,0.1007069000042975,0.30090440018102527
RSVPLG03,si,20260226-153718,1.0.2,20260219-152011,777,Experiment,Both,1,Automatic,warmup,1,20260226-153739,local,global,750,S,H,E,A,E-S.png,H-A.png,sS,hH,mask-4.png,mask-2.png,s,1,0.3198084000032395,h,1,0.47953979996964335,0.047879100078716874,0.049073400208726525,0.09835559991188347,0.09693860006518662,0.7573698998894542
RSVPLG03,si,20260226-153718,1.0.2,20260219-152011,777,Experiment,Both,1,Automatic,warmup,2,20260226-153743,local,local,750,S,S,E,E,E-S.png,E-S.png,sS,sS,mask-1.png,mask-4.png,s,1,0.5023845999967307,h,0,0.6541928998194635,0.047172100050374866,0.04887659987434745,0.09749959991313517,0.09779709996655583,0.7561520000454038
RSVPLG03,si,20260226-153718,1.0.2,20260219-152011,777,Experiment,Both,1,Automatic,warmup,3,20260226-153748,global,global,750,H,S,E,E,H-E.png,S-E.png,hH,sS,mask-4.png,mask-2.png,h,1,0.04256110009737313,s,1,0.09597839997150004,0.04801500006578863,0.049789899960160255,0.09702360001392663,0.0966576999053359,0.7566206001210958
RSVPLG03,si,20260226-153718,1.0.2,20260219-152011,777,Experiment,Both,1,Automatic,warmup,4,20260226-153752,global,local,300,S,S,E,A,S-E.png,A-S.png,sS,sS,mask-1.png,mask-2.png,s,1,0.4772687000222504,h,0,0.05723079992458224,0.04870429984293878,0.05143569991923869,0.1007538998965174,0.10095439990982413,0.2950007999315858
RSVPLG03,si,20260226-153718,1.0.2,20260219-152011,777,Experiment,Both,1,Automatic,main,5,20260226-153756,local,global,750,S,H,A,E,A-S.png,H-E.png,sS,hH,mask-2.png,mask-2.png,h,0,0.31286319997161627,h,1,0.11370250000618398,0.049135300097987056,0.047866799868643284,0.09985910006798804,0.09783199988305569,0.7572016001213342
RSVPLG03,si,20260226-153718,1.0.2,20260219-152011,777,Experiment,Both,1,Automatic,main,6,20260226-153801,global,local,750,S,H,A,E,S-A.png,E-H.png,sS,hH,mask-3.png,mask-1.png,s,1,0.06656450009904802,h,1,0.07809189986437559,0.047886200016364455,0.049214999889954925,0.0970119999255985,0.09936130000278354,0.7545028000604361
RSVPLG03,si,20260226-153718,1.0.2,20260219-152011,777,Experiment,Both,1,Automatic,main,7,20260226-153805,local,global,750,H,S,E,A,E-H.png,S-A.png,hH,sS,mask-2.png,mask-3.png,s,0,0.0632779998704791,h,0,1.569629600038752,0.04946470004506409,0.04863570001907647,0.09955579997040331,0.09926169994287193,0.7554897000081837
RSVPLG03,si,20260226-153718,1.0.2,20260219-152011,777,Experiment,Both,1,Automatic,main,8,20260226-153811,local,local,750,H,H,E,E,E-H.png,E-H.png,hH,hH,mask-2.png,mask-3.png,h,1,0.13339420012198389,h,1,0.14606659999117255,0.04945689998567104,0.05004259990528226,0.09999980009160936,0.09756439994089305,0.7566808999981731
RSVPLG03,si,20260226-153718,1.0.2,20260219-152011,777,Experiment,Both,1,Automatic,main,9,20260226-153816,global,local,750,H,S,E,A,H-E.png,A-S.png,hH,sS,mask-3.png,mask-2.png,h,1,0.11475139996036887,s,1,0.079977200133726,0.04708549985662103,0.048757600132375956,0.09739469992928207,0.0988359001930803,0.7542488998733461
RSVPLG03,si,20260226-153718,1.0.2,20260219-152011,777,Experiment,Both,1,Automatic,main,10,20260226-153820,global,global,300,S,H,E,A,S-E.png,H-A.png,sS,hH,mask-2.png,mask-4.png,s,1,0.204008299857378,h,1,0.030262599932029843,0.04760279995389283,0.05046080006286502,0.09553549997508526,0.09875919995829463,0.29389430000446737
RSVPLG03,si,20260226-153718,1.0.2,20260219-152011,777,Experiment,Both,1,Automatic,main,11,20260226-153824,global,global,750,S,H,E,E,S-E.png,H-E.png,sS,hH,mask-2.png,mask-1.png,s,1,0.045166200026869774,h,1,0.0335266999900341,0.04809459997341037,0.05135260010138154,0.09753609984181821,0.09958930010907352,0.7546503997873515
RSVPLG03,si,20260226-153718,1.0.2,20260219-152011,777,Experiment,Both,1,Automatic,main,12,20260226-153828,global,local,300,H,H,E,A,H-E.png,A-H.png,hH,hH,mask-3.png,mask-2.png,h,1,0.3320073999930173,h,1,0.10445610014721751,0.04934030002914369,0.0484479998704046,0.09982840018346906,0.09844339988194406,0.2971791001036763
RSVPLG03,si,20260226-153718,1.0.2,20260219-152011,777,Experiment,Both,1,Automatic,main,13,20260226-153832,local,global,750,H,H,A,E,A-H.png,H-E.png,hH,hH,mask-2.png,mask-3.png,h,1,0.38676810008473694,h,1,0.1207379000261426,0.04892960004508495,0.049399999901652336,0.09783120010979474,0.09997099987231195,0.7548049001488835
RSVPLG03,si,20260226-153718,1.0.2,20260219-152011,777,Experiment,Both,1,Automatic,main,14,20260226-153837,global,global,750,S,S,A,E,S-A.png,S-E.png,sS,sS,mask-2.png,mask-2.png,h,0,0.2815148998051882,h,0,0.6401706000324339,0.047529299976304173,0.048678499879315495,0.09854730009101331,0.09897579997777939,0.7560598000418395
RSVPLG03,si,20260226-153718,1.0.2,20260219-152011,777,Experiment,Both,1,Automatic,main,15,20260226-153842,global,local,750,S,S,A,A,S-A.png,A-S.png,sS,sS,mask-2.png,mask-2.png,h,0,1.5066259999293834,s,1,0.0014988998882472515,0.05043219984509051,0.04903710004873574,0.09947289992123842,0.09753989987075329,0.7571962999645621
RSVPLG03,si,20260226-153718,1.0.2,20260219-152011,777,Experiment,Both,1,Automatic,main,16,20260226-153848,local,local,300,S,H,A,E,A-S.png,E-H.png,sS,hH,mask-1.png,mask-1.png,s,1,0.42858710000291467,h,1,0.1133846000302583,0.04801020002923906,0.04946879995986819,0.09736949997022748,0.09849809994921088,0.29381279996596277
RSVPLG03,si,20260226-153718,1.0.2,20260219-152011,777,Experiment,Both,1,Automatic,main,17,20260226-153852,global,local,300,H,S,A,A,H-A.png,A-S.png,hH,sS,mask-1.png,mask-2.png,h,1,0.388030800037086,s,1,0.05097660003229976,0.04788890015333891,0.048185700085014105,0.09667950007133186,0.09790650010108948,0.29396639997139573
RSVPLG03,si,20260226-153718,1.0.2,20260219-152011,777,Experiment,Both,1,Automatic,main,18,20260226-153856,global,global,750,S,S,A,E,S-A.png,S-E.png,sS,sS,mask-4.png,mask-4.png,s,1,0.32990500004962087,s,1,0.22536249994300306,0.04872449999675155,0.04725400009192526,0.09783490002155304,0.09937010006979108,0.7572033000178635
RSVPLG03,si,20260226-153718,1.0.2,20260219-152011,777,Experiment,Both,1,Automatic,main,19,20260226-153901,global,global,300,H,H,E,A,H-E.png,H-A.png,hH,hH,mask-2.png,mask-4.png,h,1,0.5683653999585658,h,1,0.08835670002736151,0.052200400037691,0.0496117000002414,0.09865780011750758,0.09905319986864924,0.29743960010819137
RSVPLG03,si,20260226-153718,1.0.2,20260219-152011,777,Experiment,Both,1,Automatic,main,20,20260226-153905,global,global,300,H,H,A,E,H-A.png,H-E.png,hH,hH,mask-4.png,mask-4.png,h,1,0.6761697998736054,h,1,0.09307800000533462,0.050107400165870786,0.050149899907410145,0.09937750012613833,0.09973819996230304,0.295991700142622
RSVPLG03,si,20260226-153718,1.0.2,20260219-152011,777,Experiment,Both,1,Automatic,main,21,20260226-153910,local,global,750,S,H,A,A,A-S.png,H-A.png,sS,hH,mask-3.png,mask-3.png,s,1,0.16963480017147958,s,0,0.1252508000470698,0.048766399966552854,0.04818569985218346,0.09883469995111227,0.09701470006257296,0.7560244000051171
RSVPLG03,si,20260226-153718,1.0.2,20260219-152011,777,Experiment,Both,1,Automatic,main,22,20260226-153914,global,local,750,S,H,A,E,S-A.png,E-H.png,sS,hH,mask-3.png,mask-2.png,h,0,2.16392569988966,h,1,0.46971500013023615,0.04708399996161461,0.047167800134047866,0.0974254000466317,0.09762979997321963,0.755757899954915
RSVPLG03,si,20260226-153718,1.0.2,20260219-152011,777,Experiment,Both,1,Automatic,main,23,20260226-153921,local,local,750,S,S,E,E,E-S.png,E-S.png,sS,sS,mask-2.png,mask-2.png,s,1,3.401021899888292,s,1,0.10325329983606935,0.04836379992775619,0.04990220000036061,0.09790209983475506,0.09811770007945597,0.7565308997873217
RSVPLG03,si,20260226-153718,1.0.2,20260219-152011,777,Experiment,Both,1,Automatic,main,24,20260226-153929,local,global,300,H,S,E,E,E-H.png,S-E.png,hH,sS,mask-1.png,mask-4.png,h,1,0.47041679988615215,h,0,0.08069159998558462,0.04969929996877909,0.049986499827355146,0.09953660005703568,0.09928149986080825,0.29552270006388426
RSVPLG03,si,20260226-153718,1.0.2,20260219-152011,777,Experiment,Both,1,Automatic,main,25,20260226-153933,global,local,750,S,H,A,A,S-A.png,A-H.png,sS,hH,mask-2.png,mask-3.png,s,1,0.234938699984923,h,1,0.19892520015127957,0.0494639000389725,0.05050659994594753,0.098659300012514,0.0991833999287337,0.7552928999066353
RSVPLG03,si,20260226-153718,1.0.2,20260219-152011,777,Experiment,Both,1,Automatic,main,26,20260226-153952,global,global,300,H,H,E,E,H-E.png,H-E.png,hH,hH,mask-2.png,mask-2.png,h,1,0.2089921000879258,h,1,0.09814330004155636,0.049623699858784676,0.049945399863645434,0.09925299999304116,0.09902209998108447,0.2949594999663532
RSVPLG03,si,20260226-153718,1.0.2,20260219-152011,777,Experiment,Both,1,Automatic,main,27,20260226-153956,global,global,750,H,S,E,A,H-E.png,S-A.png,hH,sS,mask-4.png,mask-4.png,h,1,0.1101502999663353,s,1,0.6090548001229763,0.04925159993581474,0.04662530007772148,0.09868029993958771,0.09659820003435016,0.7578616999089718
RSVPLG03,si,20260226-153718,1.0.2,20260219-152011,777,Experiment,Both,1,Automatic,main,28,20260226-154001,local,global,750,H,H,E,A,E-H.png,H-A.png,hH,hH,mask-4.png,mask-4.png,h,1,0.3949045999906957,h,1,0.12659100000746548,0.050753100076690316,0.04851420014165342,0.10001650010235608,0.09816070017404854,0.7566253000404686
RSVPLG03,si,20260226-153718,1.0.2,20260219-152011,777,Experiment,Both,1,Automatic,main,29,20260226-154006,global,local,300,S,S,E,E,S-E.png,E-S.png,sS,sS,mask-3.png,mask-1.png,s,1,1.1806530999019742,s,1,1.0720130999106914,0.050007699988782406,0.0487504000775516,0.09794569993391633,0.09771460015326738,0.2967122998088598
RSVPLG03,si,20260226-153718,1.0.2,20260219-152011,777,Experiment,Both,1,Automatic,main,30,20260226-154012,local,global,750,S,H,A,E,A-S.png,H-E.png,sS,hH,mask-3.png,mask-1.png,h,0,6.363471900112927,s,0,0.03292389982379973,0.04849010007455945,0.04854929982684553,0.09758599987253547,0.09774430003017187,0.75696190004237
RSVPLG03,si,20260226-153718,1.0.2,20260219-152011,777,Experiment,Both,1,Automatic,main,31,20260226-154022,global,global,750,H,S,E,E,H-E.png,S-E.png,hH,sS,mask-4.png,mask-2.png,h,1,0.24590510013513267,h,0,0.1197953000664711,0.04844980011694133,0.0478511000983417,0.09915719996206462,0.09599720011465251,0.7574678999371827
RSVPLG03,si,20260226-153718,1.0.2,20260219-152011,777,Experiment,Both,1,Automatic,main,32,20260226-154027,local,global,300,H,S,E,E,E-H.png,S-E.png,hH,sS,mask-1.png,mask-4.png,s,0,10.20213730004616,h,0,0.2081022998318076,0.049494200153276324,0.047897899989038706,0.09892490017227829,0.09729760000482202,0.2964465001132339
RSVPLG03,si,20260226-153718,1.0.2,20260219-152011,777,Experiment,Both,1,Automatic,main,33,20260226-154041,local,local,750,S,S,A,A,A-S.png,A-S.png,sS,sS,mask-4.png,mask-1.png,h,0,0.7635447001084685,h,0,0.11279429984278977,0.04849369986914098,0.04979109996929765,0.09909399994648993,0.09944449993781745,0.7553492998704314
RSVPLG03,si,20260226-153718,1.0.2,20260219-152011,777,Experiment,Both,1,Automatic,main,34,20260226-154046,local,global,300,S,S,A,A,A-S.png,S-A.png,sS,sS,mask-2.png,mask-2.png,s,1,0.5299458000808954,h,0,0.6585625999141484,0.04731260007247329,0.04690830013714731,0.09738980000838637,0.09527759999036789,0.2974000999238342
RSVPLG03,si,20260226-153718,1.0.2,20260219-152011,777,Experiment,Both,1,Automatic,main,35,20260226-154051,local,local,300,H,H,E,A,E-H.png,A-H.png,hH,hH,mask-2.png,mask-2.png,s,0,6.768838099902496,h,1,0.26544260000810027,0.04938309988938272,0.049462900031358004,0.09690959984436631,0.09902610001154244,0.29567599995061755
RSVPLG03,si,20260226-153718,1.0.2,20260219-152011,777,Experiment,Both,1,Automatic,main,36,20260226-154102,global,local,300,H,S,A,E,H-A.png,E-S.png,hH,sS,mask-4.png,mask-1.png,h,1,0.30116669996641576,h,0,0.08037419989705086,0.04915959993377328,0.05102659994736314,0.09840849996544421,0.09808490006253123,0.2957661999389529
RSVPLG03,si,20260226-153718,1.0.2,20260219-152011,777,Experiment,Both,1,Automatic,main,37,20260226-154106,local,global,750,H,H,E,A,E-H.png,H-A.png,hH,hH,mask-3.png,mask-1.png,h,1,0.29696270008571446,s,0,0.07127600000239909,0.049544200068339705,0.04999039997346699,0.09739229991100729,0.09922820003703237,0.7554258999880403
RSVPLG03,si,20260226-153718,1.0.2,20260219-152011,777,Experiment,Both,1,Automatic,main,38,20260226-154110,local,local,300,H,S,E,A,E-H.png,A-S.png,hH,sS,mask-4.png,mask-1.png,h,1,0.40729430015198886,s,1,0.6727383001707494,0.04894530004821718,0.04988149995915592,0.10006840014830232,0.0985818998888135,0.29562410013750196
RSVPLG03,si,20260226-153718,1.0.2,20260219-152011,777,Experiment,Both,1,Automatic,main,39,20260226-154115,global,global,750,H,S,E,E,H-E.png,S-E.png,hH,sS,mask-2.png,mask-4.png,h,1,0.14084369991905987,h,0,0.140633599832654,0.04982670000754297,0.049357299925759435,0.099643399938941,0.09811130003072321,0.7572882999666035
RSVPLG03,si,20260226-153718,1.0.2,20260219-152011,777,Experiment,Both,1,Automatic,main,40,20260226-154120,global,local,750,S,S,A,A,S-A.png,A-S.png,sS,sS,mask-2.png,mask-3.png,h,0,0.06756250001490116,s,1,0.5634232999291271,0.049867199966683984,0.050180100137367845,0.09888119995594025,0.10104480013251305,0.7565665999427438
RSVPLG03,si,20260226-153718,1.0.2,20260219-152011,777,Experiment,Both,1,Automatic,main,41,20260226-154124,local,global,750,H,S,E,E,E-H.png,S-E.png,hH,sS,mask-3.png,mask-3.png,h,1,0.25088639999739826,s,1,0.14267989993095398,0.04852450010366738,0.04765120008960366,0.10018649999983609,0.09749979991465807,0.7574285001028329
RSVPLG03,si,20260226-153718,1.0.2,20260219-152011,777,Experiment,Both,1,Automatic,main,42,20260226-154129,local,local,750,H,H,E,E,E-H.png,E-H.png,hH,hH,mask-2.png,mask-4.png,s,0,0.06460489984601736,s,0,0.2487756998743862,0.049938099924474955,0.050179900135844946,0.09813580010086298,0.0987357001286,0.7560380999930203
RSVPLG03,si,20260226-153718,1.0.2,20260219-152011,777,Experiment,Both,1,Automatic,main,43,20260226-154134,local,local,750,S,H,E,A,E-S.png,A-H.png,sS,hH,mask-3.png,mask-4.png,s,1,7.361587199848145,h,1,0.4177677999250591,0.0496737000066787,0.04864699998870492,0.10042340005747974,0.0967387999407947,0.7584786000661552
RSVPLG03,si,20260226-153718,1.0.2,20260219-152011,777,Experiment,Both,1,Automatic,main,44,20260226-154146,local,global,300,H,S,A,E,A-H.png,S-E.png,hH,sS,mask-2.png,mask-3.png,s,0,7.43579539982602,h,0,0.1044854000210762,0.04895789991132915,0.04939979990012944,0.09813899989239872,0.09902309998869896,0.2954577000346035
RSVPLG03,si,20260226-153718,1.0.2,20260219-152011,777,Experiment,Both,1,Automatic,main,45,20260226-154157,global,global,300,S,S,A,A,S-A.png,S-A.png,sS,sS,mask-4.png,mask-2.png,s,1,0.6873687000479549,s,1,0.07444370002485812,0.049641899997368455,0.04823959991335869,0.09798279986716807,0.0985137999523431,0.2955789000261575
RSVPLG03,si,20260226-153718,1.0.2,20260219-152011,777,Experiment,Both,1,Automatic,main,46,20260226-154201,local,local,300,H,H,A,E,A-H.png,E-H.png,hH,hH,mask-2.png,mask-1.png,h,1,0.44883679994381964,h,1,0.09729710011743009,0.05081299995072186,0.050193100003525615,0.10001319996081293,0.09808079991489649,0.2974994999822229
RSVPLG03,si,20260226-153718,1.0.2,20260219-152011,777,Experiment,Both,1,Automatic,main,47,20260226-154205,local,global,300,S,H,A,E,A-S.png,H-E.png,sS,hH,mask-3.png,mask-4.png,s,1,0.3781785999890417,h,1,0.05644950014539063,0.05025139986537397,0.04917170014232397,0.0989125999622047,0.09904780006036162,0.2958356998860836
RSVPLG03,si,20260226-153718,1.0.2,20260219-152011,777,Experiment,Both,1,Automatic,main,48,20260226-154210,local,global,750,S,S,A,E,A-S.png,S-E.png,sS,sS,mask-4.png,mask-1.png,h,0,0.4099050001241267,h,0,0.4685439998283982,0.04990129987709224,0.04826080007478595,0.09879780001938343,0.09948970004916191,0.756608699914068
RSVPLG03,si,20260226-153718,1.0.2,20260219-152011,777,Experiment,Both,1,Automatic,main,49,20260226-154215,local,global,750,S,S,A,E,A-S.png,S-E.png,sS,sS,mask-3.png,mask-2.png,h,0,10.60822350019589,s,1,0.08520860015414655,0.04891540016978979,0.04995580017566681,0.09853250021114945,0.09727430017665029,0.7557808000128716
RSVPLG03,si,20260226-153718,1.0.2,20260219-152011,777,Experiment,Both,1,Automatic,main,50,20260226-154229,global,local,300,H,H,A,A,H-A.png,A-H.png,hH,hH,mask-2.png,mask-2.png,h,1,0.4966345999855548,s,0,0.17112829978577793,0.04965309984982014,0.05107950000092387,0.10000839992426336,0.10032009985297918,0.2953937000129372
RSVPLG03,si,20260226-153718,1.0.2,20260219-152011,777,Experiment,Both,1,Automatic,main,51,20260226-154242,global,global,300,S,S,E,A,S-E.png,S-A.png,sS,sS,mask-3.png,mask-4.png,s,1,0.020530799869447947,h,0,0.17984190001152456,0.048975300043821335,0.04978649993427098,0.09919170010834932,0.09947000001557171,0.29554070020094514
RSVPLG03,si,20260226-153718,1.0.2,20260219-152011,777,Experiment,Both,1,Automatic,main,52,20260226-154245,global,local,750,H,S,A,E,H-A.png,E-S.png,hH,sS,mask-1.png,mask-2.png,h,1,0.2877905999775976,h,0,0.14239230006933212,0.050301099894568324,0.05115960002876818,0.09890439989976585,0.09964859997853637,0.7561820999253541
RSVPLG03,si,20260226-153718,1.0.2,20260219-152011,777,Experiment,Both,1,Automatic,main,53,20260226-154250,local,local,750,S,H,E,E,E-S.png,E-H.png,sS,hH,mask-1.png,mask-4.png,s,1,0.15379340015351772,s,0,0.10510719986632466,0.048750999849289656,0.04989010002464056,0.09883829997852445,0.09820479992777109,0.756170199951157
RSVPLG03,si,20260226-153718,1.0.2,20260219-152011,777,Experiment,Both,1,Automatic,main,54,20260226-154254,global,local,300,S,S,A,A,S-A.png,A-S.png,sS,sS,mask-4.png,mask-3.png,h,0,0.37217270000837743,s,1,0.01746060000732541,0.048766399966552854,0.04879950010217726,0.0979311999399215,0.09917220007628202,0.2945804998744279
RSVPLG03,si,20260226-153718,1.0.2,20260219-152011,777,Experiment,Both,1,Automatic,main,55,20260226-154259,local,global,300,S,S,E,A,E-S.png,S-A.png,sS,sS,mask-1.png,mask-2.png,h,0,0.35407950007356703,s,1,0.025538899935781956,0.04896970000118017,0.04886139999143779,0.09790649986825883,0.09688539989292622,0.2963757000397891
RSVPLG03,si,20260226-153718,1.0.2,20260219-152011,777,Experiment,Both,1,Automatic,main,56,20260226-154303,local,global,300,H,H,E,E,E-H.png,H-E.png,hH,hH,mask-3.png,mask-3.png,h,1,0.8279811998363584,h,1,0.14630519994534552,0.04938920005224645,0.04928730009123683,0.09874729998409748,0.09898100001737475,0.2947807000018656
RSVPLG03,si,20260226-153718,1.0.2,20260219-152011,777,Experiment,Both,1,Automatic,main,57,20260226-154307,local,local,300,S,S,E,E,E-S.png,E-S.png,sS,sS,mask-3.png,mask-4.png,h,0,12.154587400145829,s,1,0.1094810999929905,0.048250499879941344,0.05090810009278357,0.09878750005736947,0.09917349996976554,0.2939577999059111
RSVPLG03,si,20260226-153718,1.0.2,20260219-152011,777,Experiment,Both,1,Automatic,main,58,20260226-154323,local,local,300,S,S,A,A,A-S.png,A-S.png,sS,sS,mask-2.png,mask-3.png,s,1,0.7998446000274271,s,1,0.10586669994518161,0.04845259990543127,0.050455500138923526,0.10104759992100298,0.10021460009738803,0.29425469995476305
RSVPLG03,si,20260226-153718,1.0.2,20260219-152011,777,Experiment,Both,1,Automatic,main,59,20260226-154328,global,global,300,S,H,A,E,S-A.png,H-E.png,sS,hH,mask-3.png,mask-2.png,s,1,0.33428860013373196,s,0,0.06517710001207888,0.04966680007055402,0.05017569987103343,0.0978405000641942,0.10014309990219772,0.294341100146994
RSVPLG03,si,20260226-153718,1.0.2,20260219-152011,777,Experiment,Both,1,Automatic,main,60,20260226-154332,global,global,750,S,S,A,A,S-A.png,S-A.png,sS,sS,mask-2.png,mask-2.png,h,0,0.257566099986434,h,0,0.5353045999072492,0.04672709992155433,0.04773340001702309,0.09571539983153343,0.0979116999078542,0.7558240999933332
RSVPLG03,si,20260226-153718,1.0.2,20260219-152011,777,Experiment,Both,1,Automatic,main,61,20260226-154337,local,global,300,S,H,E,A,E-S.png,H-A.png,sS,hH,mask-3.png,mask-1.png,h,0,0.5573771998751909,s,0,0.16071199998259544,0.04838319984264672,0.0498688998632133,0.09855100000277162,0.09927570004947484,0.29490229999646544
RSVPLG03,si,20260226-153718,1.0.2,20260219-152011,777,Experiment,Both,1,Automatic,main,62,20260226-154341,local,local,750,S,S,A,A,A-S.png,A-S.png,sS,sS,mask-1.png,mask-3.png,h,0,0.05951980012468994,h,0,0.5042698001489043,0.049256799975410104,0.048706999979913235,0.09950799983926117,0.09965640003792942,0.7554949999321252
RSVPLG03,si,20260226-153718,1.0.2,20260219-152011,777,Experiment,Both,1,Automatic,main,63,20260226-154346,global,local,750,H,S,E,E,H-E.png,E-S.png,hH,sS,mask-2.png,mask-1.png,h,1,0.25613779993727803,s,1,0.15729369991458952,0.04884779988788068,0.048603500006720424,0.09907649992965162,0.09725539991632104,0.7567978999577463
RSVPLG03,si,20260226-153718,1.0.2,20260219-152011,777,Experiment,Both,1,Automatic,main,64,20260226-154351,local,local,300,S,H,A,A,A-S.png,A-H.png,sS,hH,mask-3.png,mask-1.png,h,0,0.5163809000514448,s,0,0.1129052999895066,0.05066820001229644,0.04816080001182854,0.09754540002904832,0.09757680003531277,0.2959181999322027
RSVPLG03,si,20260226-153718,1.0.2,20260219-152011,777,Experiment,Both,1,Automatic,main,65,20260226-154355,local,local,300,H,H,A,A,A-H.png,A-H.png,hH,hH,mask-1.png,mask-1.png,s,0,0.23147399979643524,s,0,0.14618819998577237,0.049917700001969934,0.04821579996496439,0.09898250014521182,0.09703219984658062,0.2963603001553565
RSVPLG03,si,20260226-153718,1.0.2,20260219-152011,777,Experiment,Both,1,Automatic,main,66,20260226-154359,global,global,300,H,S,A,A,H-A.png,S-A.png,hH,sS,mask-2.png,mask-4.png,h,1,0.5400411000009626,h,0,0.3616981999948621,0.04958919994533062,0.0507746001239866,0.09854539996013045,0.10030669998377562,0.2948512998409569
RSVPLG03,si,20260226-153718,1.0.2,20260219-152011,777,Experiment,Both,1,Automatic,main,67,20260226-154404,global,global,750,H,H,E,E,H-E.png,H-E.png,hH,hH,mask-1.png,mask-2.png,h,1,0.0752488998696208,h,1,0.8638960998505354,0.049118899973109365,0.04723599995486438,0.09741130005568266,0.09749840013682842,0.756616499973461
RSVPLG03,si,20260226-153718,1.0.2,20260219-152011,777,Experiment,Both,1,Automatic,main,68,20260226-154409,local,local,300,H,H,A,A,A-H.png,A-H.png,hH,hH,mask-4.png,mask-2.png,h,1,1.910857800161466,s,0,0.009862400125712156,0.048934000078588724,0.050068699987605214,0.09826450003311038,0.10043619992211461,0.2944322000257671
RSVPLG03,si,20260226-153718,1.0.2,20260219-152011,777,Experiment,Both,1,Automatic,main,69,20260226-154414,global,global,300,S,S,E,A,S-E.png,S-A.png,sS,sS,mask-3.png,mask-3.png,s,1,0.10495589999482036,h,0,0.1516144999768585,0.05000720010139048,0.048344100126996636,0.09963209996931255,0.09781299997121096,0.29726779996417463
RSVPLG03,si,20260226-153718,1.0.2,20260219-152011,777,Experiment,Both,1,Automatic,main,70,20260226-154418,global,local,300,H,H,A,E,H-A.png,E-H.png,hH,hH,mask-4.png,mask-2.png,h,1,0.4454351000022143,h,1,0.10476459981873631,0.04829640011303127,0.05021589994430542,0.09794760006479919,0.09925550012849271,0.29483580007217824
RSVPLG03,si,20260226-153718,1.0.2,20260219-152011,777,Experiment,Both,1,Automatic,main,71,20260226-154422,local,global,300,H,S,A,E,A-H.png,S-E.png,hH,sS,mask-1.png,mask-1.png,s,0,0.615518799982965,h,0,0.8552329998929054,0.04824939998798072,0.049458099994808435,0.09743710001930594,0.09733639983460307,0.2950345000717789
RSVPLG03,si,20260226-153718,1.0.2,20260219-152011,777,Experiment,Both,1,Automatic,main,72,20260226-154427,local,global,300,S,H,A,E,A-S.png,H-E.png,sS,hH,mask-1.png,mask-1.png,s,1,0.3508961999323219,h,1,0.24951260001398623,0.048004799988120794,0.04879120015539229,0.0970660001039505,0.09738159994594753,0.29465429997071624
RSVPLG03,si,20260226-153718,1.0.2,20260219-152011,777,Experiment,Both,1,Automatic,main,73,20260226-154431,global,local,300,H,S,E,A,H-E.png,A-S.png,hH,sS,mask-4.png,mask-4.png,h,1,7.894490299979225,s,1,0.15333170001395047,0.0489656999707222,0.049756200052797794,0.10117519996128976,0.09862060006707907,0.29636420006863773
RSVPLG03,si,20260226-153718,1.0.2,20260219-152011,777,Experiment,Both,1,Automatic,main,74,20260226-154443,global,local,300,S,S,E,E,S-E.png,E-S.png,sS,sS,mask-4.png,mask-2.png,s,1,0.38649579999037087,s,1,0.12657779990695417,0.04975159978494048,0.0492382999509573,0.09698059991933405,0.10052859992720187,0.29444430000148714
RSVPLG03,si,20260226-153718,1.0.2,20260219-152011,777,Experiment,Both,1,Automatic,main,75,20260226-154447,local,global,300,S,S,E,A,E-S.png,S-A.png,sS,sS,mask-1.png,mask-1.png,h,0,0.5351123998407274,s,1,0.24687249981798232,0.049443399999290705,0.05180040001869202,0.09800040000118315,0.09973039990291,0.2957293000072241
RSVPLG03,si,20260226-153718,1.0.2,20260219-152011,777,Experiment,Both,1,Automatic,main,76,20260226-154453,global,global,750,H,H,A,E,H-A.png,H-E.png,hH,hH,mask-4.png,mask-2.png,h,1,0.32080399990081787,h,1,0.553954100003466,0.049465500051155686,0.0505961999297142,0.0975112000014633,0.09965489991009235,0.7557916000951082
RSVPLG03,si,20260226-153718,1.0.2,20260219-152011,777,Experiment,Both,1,Automatic,main,77,20260226-154458,global,global,300,S,H,E,A,S-E.png,H-A.png,sS,hH,mask-2.png,mask-2.png,h,0,0.39635059982538223,h,1,0.15331439999863505,0.05104100005701184,0.04900579992681742,0.09958939999341965,0.09807659988291562,0.2965365999843925
RSVPLG03,si,20260226-153718,1.0.2,20260219-152011,777,Experiment,Both,1,Automatic,main,78,20260226-154502,global,local,300,H,S,A,E,H-A.png,E-S.png,hH,sS,mask-4.png,mask-1.png,s,0,1.1483420000877231,h,0,0.29927029996179044,0.049147099955007434,0.048099400009959936,0.09852729993872344,0.0983480999711901,0.29698730004020035
RSVPLG03,si,20260226-153718,1.0.2,20260219-152011,777,Experiment,Both,1,Automatic,main,79,20260226-154507,global,global,750,H,S,E,E,H-E.png,S-E.png,hH,sS,mask-1.png,mask-1.png,h,1,8.975358699914068,s,1,0.058679600013419986,0.05336340004578233,0.048414899967610836,0.09877659985795617,0.10000480012968183,0.7566040998790413
RSVPLG03,si,20260226-153718,1.0.2,20260219-152011,777,Experiment,Both,1,Automatic,main,80,20260226-154521,global,local,300,S,H,A,A,S-A.png,A-H.png,sS,hH,mask-3.png,mask-4.png,h,0,0.5784911999944597,h,1,0.1286375999916345,0.049639199860394,0.05048600002191961,0.10015289997681975,0.09857710008509457,0.2961021999362856
RSVPLG03,si,20260226-153718,1.0.2,20260219-152011,777,Experiment,Both,1,Automatic,main,81,20260226-154525,local,local,750,S,S,E,A,E-S.png,A-S.png,sS,sS,mask-4.png,mask-2.png,h,0,0.1882592998445034,h,0,1.4262207001447678,0.05023870011791587,0.050276500172913074,0.09740840015001595,0.10100590018555522,0.7550755999982357
RSVPLG03,si,20260226-153718,1.0.2,20260219-152011,777,Experiment,Both,1,Automatic,main,82,20260226-154531,local,local,300,H,S,A,E,A-H.png,E-S.png,hH,sS,mask-3.png,mask-3.png,h,1,0.38421540008857846,s,1,0.136686900164932,0.05000179982744157,0.04985650000162423,0.10021029994823039,0.0979261000175029,0.29624639987014234
RSVPLG03,si,20260226-153718,1.0.2,20260219-152011,777,Experiment,Both,1,Automatic,main,83,20260226-154535,global,global,750,H,S,A,A,H-A.png,S-A.png,hH,sS,mask-1.png,mask-4.png,h,1,0.4043765999376774,s,1,0.05671729985624552,0.05021120002493262,0.04809590009972453,0.09954659990034997,0.09714409988373518,0.7572216999251395
RSVPLG03,si,20260226-153718,1.0.2,20260219-152011,777,Experiment,Both,1,Automatic,main,84,20260226-154540,local,global,750,S,H,A,A,A-S.png,H-A.png,sS,hH,mask-2.png,mask-4.png,s,1,0.36127930018119514,s,0,0.541571700014174,0.050184200052171946,0.04804699984379113,0.09816300007514656,0.09767739987000823,0.756379900034517
RSVPLG03,si,20260226-153718,1.0.2,20260219-152011,777,Experiment,Both,1,Automatic,main,85,20260226-154545,local,local,300,S,S,A,E,A-S.png,E-S.png,sS,sS,mask-1.png,mask-4.png,h,0,0.7112288998905569,s,1,0.10469970013946295,0.05288450000807643,0.048102900153025985,0.09974769991822541,0.09964290005154908,0.2972539998590946
RSVPLG03,si,20260226-153718,1.0.2,20260219-152011,777,Experiment,Both,1,Automatic,main,86,20260226-154549,local,local,750,H,S,E,A,E-H.png,A-S.png,hH,sS,mask-2.png,mask-4.png,h,1,0.10864420002326369,s,1,0.057883899891749024,0.05021089990623295,0.04707009997218847,0.09742859983816743,0.09877709997817874,0.7568753999657929
RSVPLG03,si,20260226-153718,1.0.2,20260219-152011,777,Experiment,Both,1,Automatic,main,87,20260226-154554,local,local,750,H,S,E,E,E-H.png,E-S.png,hH,sS,mask-1.png,mask-4.png,h,1,0.09157079993747175,s,1,0.06114340014755726,0.05083540012128651,0.05141750001348555,0.09862730000168085,0.09973239991813898,0.7562214001081884
RSVPLG03,si,20260226-153718,1.0.2,20260219-152011,777,Experiment,Both,1,Automatic,main,88,20260226-154558,global,global,750,S,H,E,E,S-E.png,H-E.png,sS,hH,mask-3.png,mask-3.png,s,1,0.1287520001642406,s,0,0.1140920000616461,0.04955959995277226,0.05125519982539117,0.09828009991906583,0.09891940001398325,0.7544815000146627
RSVPLG03,si,20260226-153718,1.0.2,20260219-152011,777,Experiment,Both,1,Automatic,main,89,20260226-154603,local,local,750,H,S,A,A,A-H.png,A-S.png,hH,sS,mask-2.png,mask-4.png,h,1,0.5309971000533551,s,1,0.15082330000586808,0.049483600072562695,0.04916279995813966,0.09901160001754761,0.09732670010998845,0.7571026999503374
RSVPLG03,si,20260226-153718,1.0.2,20260219-152011,777,Experiment,Both,1,Automatic,main,90,20260226-154608,global,local,750,H,H,E,A,H-E.png,A-H.png,hH,hH,mask-3.png,mask-1.png,h,1,0.13143479987047613,h,1,0.1292824000120163,0.0485965998377651,0.0496783999260515,0.09913280000910163,0.09913569991476834,0.7551247999072075
RSVPLG03,si,20260226-153718,1.0.2,20260219-152011,777,Experiment,Both,1,Automatic,main,91,20260226-154612,global,local,300,H,S,A,A,H-A.png,A-S.png,hH,sS,mask-3.png,mask-1.png,s,0,0.3382188000250608,s,1,0.11303080013021827,0.048345600022003055,0.04962800000794232,0.09858670015819371,0.09892809996381402,0.29569240007549524
RSVPLG03,si,20260226-153718,1.0.2,20260219-152011,777,Experiment,Both,1,Automatic,main,92,20260226-154616,global,global,300,H,S,E,A,H-E.png,S-A.png,hH,sS,mask-2.png,mask-1.png,h,1,0.4443634001072496,h,0,0.21396169997751713,0.04926960007287562,0.047668700106441975,0.09791310015134513,0.09715889999642968,0.29717619996517897
RSVPLG03,si,20260226-153718,1.0.2,20260219-152011,777,Experiment,Both,1,Automatic,main,93,20260226-154620,global,local,750,S,S,A,E,S-A.png,E-S.png,sS,sS,mask-2.png,mask-1.png,h,0,0.6025272000115365,s,1,0.18435760005377233,0.045790799893438816,0.0447416000533849,0.09666989999823272,0.09513520007021725,0.7571123999077827
RSVPLG03,si,20260226-153718,1.0.2,20260219-152011,777,Experiment,Both,1,Automatic,main,94,20260226-154625,global,local,750,S,H,E,A,S-E.png,A-H.png,sS,hH,mask-2.png,mask-3.png,s,1,0.02392189996317029,h,1,0.11932709999382496,0.050702800042927265,0.04922030004672706,0.09831189992837608,0.09862850001081824,0.7573388000018895
RSVPLG03,si,20260226-153718,1.0.2,20260219-152011,777,Experiment,Both,1,Automatic,main,95,20260226-154630,global,global,300,H,S,A,E,H-A.png,S-E.png,hH,sS,mask-3.png,mask-4.png,s,0,0.26524279988370836,s,1,0.08132649981416762,0.04987509991042316,0.049177899956703186,0.09764649998396635,0.09777190000750124,0.2959129000082612
RSVPLG03,si,20260226-153718,1.0.2,20260219-152011,777,Experiment,Both,1,Automatic,main,96,20260226-154634,local,local,750,S,S,A,E,A-S.png,E-S.png,sS,sS,mask-3.png,mask-3.png,s,1,0.3944317998830229,h,0,9.164887399878353,0.0494673999492079,0.04989779996685684,0.09780870005488396,0.09859119984321296,0.7552402000874281
RSVPLG03,si,20260226-153718,1.0.2,20260219-152011,777,Experiment,Both,1,Automatic,main,97,20260226-154648,local,global,750,S,H,E,E,E-S.png,H-E.png,sS,hH,mask-3.png,mask-1.png,s,1,6.628448599949479,h,1,0.040293899830430746,0.04815019993111491,0.048397399950772524,0.09783330000936985,0.09855610015802085,0.7560651998501271
RSVPLG03,si,20260226-153718,1.0.2,20260219-152011,777,Experiment,Both,1,Automatic,main,98,20260226-154658,local,local,300,S,S,A,E,A-S.png,E-S.png,sS,sS,mask-4.png,mask-2.png,s,1,0.9478412000462413,s,1,0.08377170003950596,0.04948369995690882,0.05068879993632436,0.09975779987871647,0.09807770000770688,0.29667850001715124
RSVPLG03,si,20260226-153718,1.0.2,20260219-152011,777,Experiment,Both,1,Automatic,main,99,20260226-154703,local,global,300,H,S,A,E,A-H.png,S-E.png,hH,sS,mask-4.png,mask-1.png,h,1,0.4895987999625504,s,1,0.6703358001541346,0.04799079988151789,0.04802199988625944,0.09875799994915724,0.09841699991375208,0.2967864000238478
RSVPLG03,si,20260226-153718,1.0.2,20260219-152011,777,Experiment,Both,1,Automatic,main,100,20260226-154708,global,local,750,H,H,A,E,H-A.png,E-H.png,hH,hH,mask-2.png,mask-1.png,h,1,0.35700000007636845,h,1,0.10511859995312989,0.049474400002509356,0.049432299798354506,0.09827459999360144,0.10093719977885485,0.7556402001064271
