exp,exp_initials,runtime,ver,modtime,sub,blocktype,targets,cuetype,mode,trialtype,trial,trialtime,t1_level,t2_level,t2_lag,t1,t2,distractor1,distractor2,stimfile1,stimfile2,t1_corr,t2_corr,maskfile1,maskfile2,t1_resp,t1_acc,t1_rt,t2_resp,t2_acc,t2_rt,t1_dur,t2_dur,t1mask_soa,t2mask_soa,t1t2_soa
RSVPLG03,JM,20260305-093001,1.0.2,20251105-084826,786,Introduction,T1,1,Automatic,main,1,20260305-093026,global,global,750,H,H,E,A,H-E.png,H-A.png,hH,hH,mask-1.png,mask-2.png,h,1,4.210065899998881,none,-5,0,0.09332640003412962,0.09652449993882328,0.1941725000506267,0.19958959997165948,0.7462975000962615
RSVPLG03,JM,20260305-093001,1.0.2,20251105-084826,786,Introduction,T1,1,Automatic,main,2,20260305-093034,global,local,750,H,H,A,E,H-A.png,E-H.png,hH,hH,mask-3.png,mask-3.png,h,1,2.2150153000839055,none,-5,0,0.09752340009436011,0.09577799995895475,0.19889450003392994,0.1997871999628842,0.7505940000992268
RSVPLG03,JM,20260305-093001,1.0.2,20251105-084826,786,Introduction,T1,1,Automatic,main,3,20260305-093041,global,local,750,H,H,E,A,H-E.png,A-H.png,hH,hH,mask-1.png,mask-2.png,h,1,1.3829159000888467,none,-5,0,0.09930030000396073,0.09881299990229309,0.20117550005670637,0.20159079995937645,0.750225100084208
RSVPLG03,JM,20260305-093001,1.0.2,20251105-084826,786,Introduction,T1,1,Automatic,main,4,20260305-093046,local,global,750,H,S,E,A,E-H.png,S-A.png,hH,sS,mask-3.png,mask-3.png,s,0,1.6457046999130398,none,-5,0,0.09808370005339384,0.09815780003555119,0.20195790007710457,0.19831659994088113,0.7520250000525266
RSVPLG03,JM,20260305-093001,1.0.2,20251105-084826,786,Introduction,T1,1,Automatic,main,5,20260305-093052,local,local,750,H,H,E,A,E-H.png,A-H.png,hH,hH,mask-2.png,mask-4.png,h,1,1.6142327000852674,none,-5,0,0.09698639996349812,0.09754500002600253,0.2010753999929875,0.2004470000974834,0.7502381999511272
RSVPLG03,JM,20260305-093001,1.0.2,20251105-084826,786,Introduction,T1,1,Automatic,main,6,20260305-093058,local,global,750,H,H,A,E,A-H.png,H-E.png,hH,hH,mask-4.png,mask-2.png,h,1,2.7219357999274507,none,-5,0,0.09826740005519241,0.0976150999777019,0.1997059000423178,0.19965369999408722,0.7510186000727117
RSVPLG03,JM,20260305-093001,1.0.2,20251105-084826,786,Introduction,T1,1,Automatic,main,7,20260305-093105,local,global,750,S,S,E,A,E-S.png,S-A.png,sS,sS,mask-3.png,mask-3.png,s,1,0.6563344999449328,none,-5,0,0.09975490008946508,0.09757370001170784,0.20082840009126812,0.199731900007464,0.7523095000069588
RSVPLG03,JM,20260305-093001,1.0.2,20251105-084826,786,Introduction,T1,1,Automatic,main,8,20260305-093110,local,local,750,S,H,E,E,E-S.png,E-H.png,sS,hH,mask-3.png,mask-2.png,h,0,0.8384100999683142,none,-5,0,0.09733000001870096,0.09796420007478446,0.20045609993394464,0.19990210002288222,0.7503257999196649
RSVPLG03,JM,20260305-093001,1.0.2,20251105-084826,786,Introduction,T1,1,Automatic,main,9,20260305-093115,local,local,750,H,H,A,A,A-H.png,A-H.png,hH,hH,mask-1.png,mask-2.png,h,1,0.7275399999925867,none,-5,0,0.09761980001349002,0.09724649996496737,0.19977960002142936,0.20034320000559092,0.7498973000328988
RSVPLG03,JM,20260305-093001,1.0.2,20251105-084826,786,Introduction,T1,1,Automatic,main,10,20260305-093120,global,global,750,H,H,E,E,H-E.png,H-E.png,hH,hH,mask-3.png,mask-3.png,s,0,1.0469853000249714,none,-5,0,0.09758109995163977,0.09838879993185401,0.19962990004569292,0.19946249993517995,0.7507658000104129
RSVPLG03,JM,20260305-093001,1.0.2,20251105-084826,786,Introduction,T1,1,Automatic,main,11,20260305-093125,global,local,750,H,S,A,E,H-A.png,E-S.png,hH,sS,mask-3.png,mask-2.png,h,1,1.3325579001102597,none,-5,0,0.0974557000445202,0.09744959999807179,0.19948440010193735,0.2002567999297753,0.7493721001083031
RSVPLG03,JM,20260305-093001,1.0.2,20251105-084826,786,Introduction,T1,1,Automatic,main,12,20260305-093130,global,global,750,H,H,E,E,H-E.png,H-E.png,hH,hH,mask-3.png,mask-3.png,s,0,1.9294024999253452,none,-5,0,0.09655480005312711,0.09940659999847412,0.20080099999904633,0.20240920002106577,0.748522000038065
RSVPLG03,JM,20260305-093001,1.0.2,20251105-084826,786,Introduction,T1,1,Automatic,main,13,20260305-093136,global,global,750,H,H,A,E,H-A.png,H-E.png,hH,hH,mask-2.png,mask-2.png,s,0,1.3558699999703094,none,-5,0,0.09828320005908608,0.0973343999357894,0.20042360003571957,0.20154079992789775,0.7508228000951931
RSVPLG03,JM,20260305-093001,1.0.2,20251105-084826,786,Introduction,T1,1,Automatic,main,14,20260305-093142,global,local,750,H,H,A,E,H-A.png,E-H.png,hH,hH,mask-2.png,mask-2.png,h,1,2.2124182999832556,none,-5,0,0.09837550006341189,0.09815440000966191,0.20108569995500147,0.19938180001918226,0.7510072999866679
RSVPLG03,JM,20260305-093001,1.0.2,20251105-084826,786,Introduction,T1,1,Automatic,main,15,20260305-093148,local,local,750,S,S,A,E,A-S.png,E-S.png,sS,sS,mask-2.png,mask-1.png,h,0,1.2118972999742255,none,-5,0,0.09815780003555119,0.09647940006107092,0.20034179999493062,0.1999801000347361,0.751645699958317
RSVPLG03,JM,20260305-093001,1.0.2,20251105-084826,786,Introduction,T1,1,Automatic,main,16,20260305-093154,local,global,750,H,H,A,E,A-H.png,H-E.png,hH,hH,mask-4.png,mask-2.png,h,1,0.7875892999581993,none,-5,0,0.09713050001300871,0.09780600003432482,0.20150680001825094,0.19912420003674924,0.7514420999214053
RSVPLG03,JM,20260305-092957,1.0.2,20251105-084826,786,Introduction,Both,1,Automatic,main,1,20260305-093259,local,global,750,H,S,E,A,E-H.png,S-A.png,hH,sS,mask-3.png,mask-3.png,h,1,1.260331799974665,s,1,3.364073700038716,0.09637509996537119,0.09881529991980642,0.19939089997205883,0.2021025000140071,0.7538276000414044
RSVPLG03,JM,20260305-092957,1.0.2,20251105-084826,786,Introduction,Both,1,Automatic,main,2,20260305-093308,local,local,750,S,H,E,A,E-S.png,A-H.png,sS,hH,mask-1.png,mask-2.png,s,1,2.0975320999277756,h,1,0.857656899956055,0.09764039993751794,0.09742840006947517,0.19976459990721196,0.20179040008224547,0.7561195999151096
RSVPLG03,JM,20260305-092957,1.0.2,20251105-084826,786,Introduction,Both,1,Automatic,main,3,20260305-093315,local,local,750,H,H,E,A,E-H.png,A-H.png,hH,hH,mask-1.png,mask-2.png,h,1,1.2303234999999404,s,0,0.6367430000100285,0.09851160005200654,0.09654169995337725,0.20160869997926056,0.20193800004199147,0.7581341000040993
RSVPLG03,JM,20260305-092957,1.0.2,20251105-084826,786,Introduction,Both,1,Automatic,main,4,20260305-093321,local,local,750,S,S,A,E,A-S.png,E-S.png,sS,sS,mask-1.png,mask-4.png,s,1,1.345750299980864,s,1,0.22817839996423572,0.09838890004903078,0.09844519989565015,0.20225249999202788,0.2023657999234274,0.7562434000428766
RSVPLG03,JM,20260305-092957,1.0.2,20251105-084826,786,Introduction,Both,1,Automatic,main,5,20260305-093327,local,local,750,H,H,E,A,E-H.png,A-H.png,hH,hH,mask-4.png,mask-3.png,h,1,1.7129973999690264,s,0,0.4718655999749899,0.09779140003956854,0.09953439992386848,0.2017878000624478,0.20258949999697506,0.7562623000703752
RSVPLG03,JM,20260305-092957,1.0.2,20251105-084826,786,Introduction,Both,1,Automatic,main,6,20260305-093333,global,local,750,H,H,E,E,H-E.png,E-H.png,hH,hH,mask-1.png,mask-3.png,h,1,1.8115902999415994,s,0,3.141316800029017,0.09836469998117536,0.09882720001041889,0.2033260999014601,0.20281309995334595,0.7570319999940693
RSVPLG03,JM,20260305-092957,1.0.2,20251105-084826,786,Introduction,Both,1,Automatic,main,7,20260305-093342,global,global,750,H,H,A,E,H-A.png,H-E.png,hH,hH,mask-4.png,mask-3.png,h,1,1.60830329998862,h,1,1.9764525999780744,0.09858980006538332,0.09853930003009737,0.20268099999520928,0.20120540005154908,0.7571714000077918
RSVPLG03,JM,20260305-092957,1.0.2,20251105-084826,786,Introduction,Both,1,Automatic,main,8,20260305-093350,local,global,750,H,S,E,A,E-H.png,S-A.png,hH,sS,mask-4.png,mask-1.png,h,1,1.5403549000620842,s,1,0.18739580002147704,0.09661970008164644,0.0980425999732688,0.20063620002474636,0.20059410005342215,0.7562867000233382
RSVPLG03,JM,20260305-092957,1.0.2,20251105-084826,786,Introduction,Both,1,Automatic,main,9,20260305-093356,global,global,750,H,H,E,A,H-E.png,H-A.png,hH,hH,mask-4.png,mask-1.png,h,1,0.9203898999840021,h,1,0.13602600002195686,0.09864410001318902,0.09755119995679706,0.20167640002910048,0.20060310000553727,0.757310300017707
RSVPLG03,JM,20260305-092957,1.0.2,20251105-084826,786,Introduction,Both,1,Automatic,main,10,20260305-093402,global,local,750,H,S,A,E,H-A.png,E-S.png,hH,sS,mask-4.png,mask-1.png,h,1,0.8681840000208467,s,1,0.24458489997778088,0.09947959997225553,0.09773360006511211,0.20156339998356998,0.20186410006135702,0.7566478999797255
RSVPLG03,JM,20260305-092957,1.0.2,20251105-084826,786,Introduction,Both,1,Automatic,main,11,20260305-093407,global,local,750,S,S,A,E,S-A.png,E-S.png,sS,sS,mask-3.png,mask-3.png,s,1,1.0326686999760568,s,1,1.2704252999974415,0.09954030008520931,0.09679430001415312,0.2025877000996843,0.20045950007624924,0.7588393000187352
RSVPLG03,JM,20260305-092957,1.0.2,20251105-084826,786,Introduction,Both,1,Automatic,main,12,20260305-093414,local,global,750,S,H,E,E,E-S.png,H-E.png,sS,hH,mask-2.png,mask-1.png,s,1,1.052550800028257,h,1,0.5544369999552146,0.09854119992814958,0.0977506999624893,0.20261259994003922,0.2028334999922663,0.7567424000008032
RSVPLG03,JM,20260305-092957,1.0.2,20251105-084826,786,Introduction,Both,1,Automatic,main,13,20260305-093420,local,global,750,S,S,E,A,E-S.png,S-A.png,sS,sS,mask-1.png,mask-2.png,s,1,0.9823661999544129,h,0,0.42150679999031126,0.09751440002582967,0.0995850000763312,0.20056650007609278,0.20273330004420131,0.7551046999869868
RSVPLG03,JM,20260305-092957,1.0.2,20251105-084826,786,Introduction,Both,1,Automatic,main,14,20260305-093425,global,local,750,H,S,A,E,H-A.png,E-S.png,hH,sS,mask-1.png,mask-1.png,h,1,1.2543797000544146,s,1,0.21860440005548298,0.09940059995278716,0.09740420000161976,0.20227170002181083,0.20234650000929832,0.7576597000006586
RSVPLG03,JM,20260305-092957,1.0.2,20251105-084826,786,Introduction,Both,1,Automatic,main,15,20260305-093431,global,global,750,S,H,E,A,S-E.png,H-A.png,sS,hH,mask-2.png,mask-2.png,s,1,0.9110574000515044,h,1,0.371091999928467,0.09859910001978278,0.09739120001904666,0.20259030000306666,0.20237010007258505,0.7568884999491274
RSVPLG03,JM,20260305-092957,1.0.2,20251105-084826,786,Introduction,Both,1,Automatic,main,16,20260305-093437,global,global,750,H,H,A,A,H-A.png,H-A.png,hH,hH,mask-4.png,mask-1.png,h,1,1.4625603000167757,h,1,0.09166389994788915,0.09956839994993061,0.09761499997694045,0.2026279999408871,0.20069590001367033,0.7580722999991849
RSVPLG03,JM,20260305-093529,1.0.2,20251105-084826,786,Practice,T1,1,Automatic,main,1,20260305-093549,global,local,750,S,H,E,A,S-E.png,A-H.png,sS,hH,mask-2.png,mask-2.png,s,1,2.967662199982442,none,-5,0,0.040112199960276484,0.047696800087578595,0.09427560004405677,0.10062979999929667,0.7447648999514058
RSVPLG03,JM,20260305-093529,1.0.2,20251105-084826,786,Practice,T1,1,Automatic,main,2,20260305-093556,global,global,750,H,H,A,E,H-A.png,H-E.png,hH,hH,mask-2.png,mask-3.png,h,1,1.0359664000570774,none,-5,0,0.0469802999868989,0.0476803999627009,0.10019290004856884,0.10092410002835095,0.7516449000686407
RSVPLG03,JM,20260305-093529,1.0.2,20251105-084826,786,Practice,T1,1,Automatic,main,3,20260305-093601,global,global,300,H,H,E,A,H-E.png,H-A.png,hH,hH,mask-2.png,mask-3.png,h,1,0.7974119000136852,none,-5,0,0.04680809995625168,0.049127900041639805,0.09924469992984086,0.10012630000710487,0.30058349994942546
RSVPLG03,JM,20260305-093529,1.0.2,20251105-084826,786,Practice,T1,1,Automatic,main,4,20260305-093605,global,local,300,H,H,E,E,H-E.png,E-H.png,hH,hH,mask-1.png,mask-4.png,h,1,0.48202910006511956,none,-5,0,0.04859619995113462,0.046687700087204576,0.10013070004060864,0.10022750007919967,0.30182529997546226
RSVPLG03,JM,20260305-093529,1.0.2,20251105-084826,786,Practice,T1,1,Automatic,main,5,20260305-093609,local,global,300,H,S,A,E,A-H.png,S-E.png,hH,sS,mask-2.png,mask-2.png,s,0,1.3569843999575824,none,-5,0,0.04751780000515282,0.04729079990647733,0.10152459994424134,0.0993157000048086,0.30157520005013794
RSVPLG03,JM,20260305-093529,1.0.2,20251105-084826,786,Practice,T1,1,Automatic,main,6,20260305-093614,global,local,300,S,S,E,E,S-E.png,E-S.png,sS,sS,mask-4.png,mask-3.png,s,1,0.8681204000022262,none,-5,0,0.047530799987725914,0.04772290005348623,0.10051729995757341,0.10070239997003227,0.2996561999898404
RSVPLG03,JM,20260305-093529,1.0.2,20251105-084826,786,Practice,T1,1,Automatic,main,7,20260305-093619,local,global,750,H,H,A,A,A-H.png,H-A.png,hH,hH,mask-3.png,mask-4.png,s,0,1.0447627999819815,none,-5,0,0.0473772999830544,0.04898200009483844,0.1002458999864757,0.1000554000493139,0.7506371999625117
RSVPLG03,JM,20260305-093529,1.0.2,20251105-084826,786,Practice,T1,1,Automatic,main,8,20260305-093624,global,global,300,H,S,A,E,H-A.png,S-E.png,hH,sS,mask-1.png,mask-2.png,h,1,0.744689500075765,none,-5,0,0.04774609999731183,0.04595289996359497,0.10097579995635897,0.10006789991166443,0.3006579000502825
RSVPLG03,JM,20260305-093529,1.0.2,20251105-084826,786,Practice,T1,1,Automatic,main,9,20260305-093628,local,global,300,S,S,E,E,E-S.png,S-E.png,sS,sS,mask-1.png,mask-4.png,s,1,1.2741347999544814,none,-5,0,0.047684799996204674,0.046957500046119094,0.09984609996899962,0.09985620004590601,0.30040559999179095
RSVPLG03,JM,20260305-093529,1.0.2,20251105-084826,786,Practice,T1,1,Automatic,main,10,20260305-093633,local,local,300,S,H,E,E,E-S.png,E-H.png,sS,hH,mask-3.png,mask-3.png,s,1,0.8785854000598192,none,-5,0,0.04863490001298487,0.04683630005456507,0.10065869998652488,0.10100030002649873,0.301719699986279
RSVPLG03,JM,20260305-093529,1.0.2,20251105-084826,786,Practice,T1,1,Automatic,main,11,20260305-093637,local,local,300,H,S,E,A,E-H.png,A-S.png,hH,sS,mask-2.png,mask-2.png,s,0,1.7059995000017807,none,-5,0,0.04693889990448952,0.046252200030721724,0.10043170000426471,0.09977960004471242,0.3020162999164313
RSVPLG03,JM,20260305-093529,1.0.2,20251105-084826,786,Practice,T1,1,Automatic,main,12,20260305-093643,global,local,750,S,S,A,E,S-A.png,E-S.png,sS,sS,mask-1.png,mask-4.png,s,1,1.4368744000094011,none,-5,0,0.0476813999703154,0.04770590004045516,0.09986049996223301,0.0999072000849992,0.7518910999642685
RSVPLG03,JM,20260305-093529,1.0.2,20251105-084826,786,Practice,T1,1,Automatic,main,13,20260305-093648,local,local,750,S,H,A,A,A-S.png,A-H.png,sS,hH,mask-1.png,mask-4.png,h,0,1.11571260006167,none,-5,0,0.04638279997743666,0.04751679999753833,0.09947879996616393,0.10158650006633252,0.7512582999188453
RSVPLG03,JM,20260305-093529,1.0.2,20251105-084826,786,Practice,T1,1,Automatic,main,14,20260305-093653,local,local,750,S,S,E,E,E-S.png,E-S.png,sS,sS,mask-4.png,mask-4.png,s,1,0.8291684000287205,none,-5,0,0.04768410010728985,0.047649400075897574,0.09989539999514818,0.09991480002645403,0.7524039000272751
RSVPLG03,JM,20260305-093529,1.0.2,20251105-084826,786,Practice,T1,1,Automatic,main,15,20260305-093658,local,global,750,S,H,E,A,E-S.png,H-A.png,sS,hH,mask-2.png,mask-2.png,s,1,2.051240999950096,none,-5,0,0.047662400058470666,0.04666430002544075,0.10184610006399453,0.09883670008275658,0.7537273999769241
RSVPLG03,JM,20260305-093529,1.0.2,20251105-084826,786,Practice,T1,1,Automatic,main,16,20260305-093704,global,global,750,H,H,A,A,H-A.png,H-A.png,hH,hH,mask-3.png,mask-4.png,h,1,1.087378800031729,none,-5,0,0.04866510001011193,0.04766780009958893,0.10029560001567006,0.10183770000003278,0.751314299996011
RSVPLG03,JM,20260305-093729,1.0.2,20251105-084826,786,Practice,T1,1,Automatic,main,1,20260305-093749,local,global,750,H,S,E,A,E-H.png,S-A.png,hH,sS,mask-4.png,mask-1.png,s,0,1.0055483999894932,none,-5,0,0.0400668999645859,0.0475447999779135,0.09390139998868108,0.10059049993287772,0.7490305000683293
RSVPLG03,JM,20260305-093729,1.0.2,20251105-084826,786,Practice,T1,1,Automatic,main,2,20260305-093754,local,local,300,H,H,E,E,E-H.png,E-H.png,hH,hH,mask-4.png,mask-4.png,s,0,1.2489093000767753,none,-5,0,0.04681879992131144,0.04777880001347512,0.09993449994362891,0.09976050001569092,0.30190269998274744
RSVPLG03,JM,20260305-093729,1.0.2,20251105-084826,786,Practice,T1,1,Automatic,main,3,20260305-093759,local,local,300,H,S,A,A,A-H.png,A-S.png,hH,sS,mask-2.png,mask-3.png,h,1,1.1223571998998523,none,-5,0,0.04673609999008477,0.047465099953114986,0.10079359996598214,0.10042339994106442,0.3005596000002697
RSVPLG03,JM,20260305-093729,1.0.2,20251105-084826,786,Practice,T1,1,Automatic,main,4,20260305-093803,global,local,300,H,S,A,A,H-A.png,A-S.png,hH,sS,mask-2.png,mask-4.png,s,0,1.2674094999674708,none,-5,0,0.04751069995108992,0.04950960003770888,0.0988505999557674,0.1008608000120148,0.30018629995174706
RSVPLG03,JM,20260305-093729,1.0.2,20251105-084826,786,Practice,T1,1,Automatic,main,5,20260305-093808,local,global,750,H,S,A,A,A-H.png,S-A.png,hH,sS,mask-3.png,mask-4.png,h,1,0.9901146000484005,none,-5,0,0.048390000010840595,0.047904200037010014,0.10038050008006394,0.10084389999974519,0.7535216000396758
RSVPLG03,JM,20260305-093729,1.0.2,20251105-084826,786,Practice,T1,1,Automatic,main,6,20260305-093813,local,global,300,S,H,E,A,E-S.png,H-A.png,sS,hH,mask-4.png,mask-2.png,s,1,1.6954404000425711,none,-5,0,0.047536600031889975,0.046546899946406484,0.10085960000287741,0.09969069994986057,0.30231150006875396
RSVPLG03,JM,20260305-093729,1.0.2,20251105-084826,786,Practice,T1,1,Automatic,main,7,20260305-093819,global,local,300,H,S,A,E,H-A.png,E-S.png,hH,sS,mask-3.png,mask-3.png,h,1,2.4040845000417903,none,-5,0,0.047869700007140636,0.048301300033926964,0.10165229998528957,0.10108229995239526,0.30246759997680783
RSVPLG03,JM,20260305-093729,1.0.2,20251105-084826,786,Practice,T1,1,Automatic,main,8,20260305-093824,global,global,300,H,S,A,E,H-A.png,S-E.png,hH,sS,mask-2.png,mask-4.png,h,1,0.4197035999968648,none,-5,0,0.047742399969138205,0.04768140008673072,0.09993699996266514,0.09988700004760176,0.30157139990478754
RSVPLG03,JM,20260305-093729,1.0.2,20251105-084826,786,Practice,T1,1,Automatic,main,9,20260305-093828,local,global,300,H,H,E,E,E-H.png,H-E.png,hH,hH,mask-1.png,mask-2.png,h,1,0.9054625000571832,none,-5,0,0.046684299944899976,0.04871050000656396,0.10024950001388788,0.10126760008279234,0.3000485999509692
RSVPLG03,JM,20260305-093729,1.0.2,20251105-084826,786,Practice,T1,1,Automatic,main,10,20260305-093833,global,global,750,H,H,A,A,H-A.png,H-A.png,hH,hH,mask-4.png,mask-4.png,s,0,2.5064821999985725,none,-5,0,0.047518800012767315,0.04731049994006753,0.09958669997286052,0.1002975000301376,0.7537016000133008
RSVPLG03,JM,20260305-093729,1.0.2,20251105-084826,786,Practice,T1,1,Automatic,main,11,20260305-093840,global,global,300,H,S,A,A,H-A.png,S-A.png,hH,sS,mask-1.png,mask-4.png,h,1,0.7941025000764057,none,-5,0,0.04756109998561442,0.047506900038570166,0.10058410000056028,0.10092090000398457,0.3018845999613404
RSVPLG03,JM,20260305-093729,1.0.2,20251105-084826,786,Practice,T1,1,Automatic,main,12,20260305-093844,global,local,750,H,H,E,E,H-E.png,E-H.png,hH,hH,mask-3.png,mask-4.png,h,1,0.3908217999851331,none,-5,0,0.04751810000743717,0.04652269999496639,0.10161080001853406,0.09943569998722523,0.7549904000479728
RSVPLG03,JM,20260305-093729,1.0.2,20251105-084826,786,Practice,T1,1,Automatic,main,13,20260305-093848,local,local,750,S,S,E,E,E-S.png,E-S.png,sS,sS,mask-4.png,mask-4.png,s,1,1.256278800079599,none,-5,0,0.04685919999610633,0.04859649995341897,0.10028160002548248,0.10060329991392791,0.7541783000342548
RSVPLG03,JM,20260305-093729,1.0.2,20251105-084826,786,Practice,T1,1,Automatic,main,14,20260305-093854,local,local,750,S,H,E,E,E-S.png,E-H.png,sS,hH,mask-2.png,mask-4.png,s,1,0.9916707000229508,none,-5,0,0.048499500029720366,0.04864809999708086,0.10136259999126196,0.10062709997873753,0.7538593000499532
RSVPLG03,JM,20260305-093729,1.0.2,20251105-084826,786,Practice,T1,1,Automatic,main,15,20260305-093859,global,local,750,S,H,A,A,S-A.png,A-H.png,sS,hH,mask-2.png,mask-2.png,h,0,0.8302843000274152,none,-5,0,0.04927980003412813,0.04748509998898953,0.10134190006647259,0.10025830008089542,0.7551538000116125
RSVPLG03,JM,20260305-093729,1.0.2,20251105-084826,786,Practice,T1,1,Automatic,main,16,20260305-093904,global,global,750,H,H,E,E,H-E.png,H-E.png,hH,hH,mask-4.png,mask-1.png,s,0,1.8995009999489412,none,-5,0,0.04753099998924881,0.04752210003789514,0.10160180006641895,0.10051020001992583,0.7542796999914572
RSVPLG03,JM,20260305-093931,1.0.2,20251105-084826,786,Practice,T1,1,Automatic,main,1,20260305-093948,global,local,750,H,S,E,E,H-E.png,E-S.png,hH,sS,mask-3.png,mask-4.png,h,1,1.9108586000511423,none,-5,0,0.04209199990145862,0.047943899990059435,0.09418419993016869,0.10100760008208454,0.7407227999065071
RSVPLG03,JM,20260305-093931,1.0.2,20251105-084826,786,Practice,T1,1,Automatic,main,2,20260305-093954,global,local,300,H,S,E,E,H-E.png,E-S.png,hH,sS,mask-3.png,mask-3.png,h,1,0.597886300063692,none,-5,0,0.048729500034824014,0.047691899933852255,0.09991680004168302,0.09894729999359697,0.2995682000182569
RSVPLG03,JM,20260305-093931,1.0.2,20251105-084826,786,Practice,T1,1,Automatic,main,3,20260305-093958,global,local,300,H,H,E,E,H-E.png,E-H.png,hH,hH,mask-1.png,mask-3.png,h,1,0.7676414999878034,none,-5,0,0.04691070003900677,0.046598799992352724,0.09932000003755093,0.09860989998560399,0.2995237000286579
RSVPLG03,JM,20260305-093931,1.0.2,20251105-084826,786,Practice,T1,1,Automatic,main,4,20260305-094002,global,global,300,S,H,A,E,S-A.png,H-E.png,sS,hH,mask-3.png,mask-1.png,s,1,0.604914499912411,none,-5,0,0.047503800014965236,0.04734749998897314,0.09888629999477416,0.1001410000026226,0.29789599997457117
RSVPLG03,JM,20260305-093931,1.0.2,20251105-084826,786,Practice,T1,1,Automatic,main,5,20260305-094006,global,global,300,S,S,A,A,S-A.png,S-A.png,sS,sS,mask-2.png,mask-2.png,s,1,1.5483586000045761,none,-5,0,0.04749420005828142,0.04601480008568615,0.09881220001261681,0.10015810001641512,0.2985835999716073
RSVPLG03,JM,20260305-093931,1.0.2,20251105-084826,786,Practice,T1,1,Automatic,main,6,20260305-094011,local,local,300,S,H,E,E,E-S.png,E-H.png,sS,hH,mask-3.png,mask-2.png,s,1,0.8910917000612244,none,-5,0,0.04768670001067221,0.04871060000732541,0.09991820005234331,0.0997720001032576,0.2985637999372557
RSVPLG03,JM,20260305-093931,1.0.2,20251105-084826,786,Practice,T1,1,Automatic,main,7,20260305-094016,global,global,750,S,H,A,A,S-A.png,H-A.png,sS,hH,mask-1.png,mask-2.png,s,1,0.6617166999494657,none,-5,0,0.046561700059100986,0.04650929989293218,0.09857760008890182,0.09952939988579601,0.7469568001106381
RSVPLG03,JM,20260305-093931,1.0.2,20251105-084826,786,Practice,T1,1,Automatic,main,8,20260305-094020,global,global,750,H,S,A,E,H-A.png,S-E.png,hH,sS,mask-1.png,mask-2.png,h,1,1.1589859999949113,none,-5,0,0.04650729999411851,0.04673279996495694,0.0985727000515908,0.097719999961555,0.7471778000472113
RSVPLG03,JM,20260305-093931,1.0.2,20251105-084826,786,Practice,T1,1,Automatic,main,9,20260305-094025,local,global,300,S,S,A,A,A-S.png,S-A.png,sS,sS,mask-4.png,mask-3.png,s,1,1.1764316000044346,none,-5,0,0.04867990000639111,0.04637100000400096,0.10008300002664328,0.09874619997572154,0.2993257000343874
RSVPLG03,JM,20260305-093931,1.0.2,20251105-084826,786,Practice,T1,1,Automatic,main,10,20260305-094030,local,local,750,H,H,A,A,A-H.png,A-H.png,hH,hH,mask-1.png,mask-2.png,h,1,0.4325861999532208,none,-5,0,0.046028099954128265,0.047025399981066585,0.09929159993771464,0.0985336999874562,0.7472264999523759
RSVPLG03,JM,20260305-093931,1.0.2,20251105-084826,786,Practice,T1,1,Automatic,main,11,20260305-094034,local,local,750,H,H,E,E,E-H.png,E-H.png,hH,hH,mask-1.png,mask-1.png,s,0,0.6570355999283493,none,-5,0,0.047615099931135774,0.04671589995268732,0.09978499996941537,0.09784169995691627,0.7487478000111878
RSVPLG03,JM,20260305-093931,1.0.2,20251105-084826,786,Practice,T1,1,Automatic,main,12,20260305-094039,local,global,750,S,H,A,A,A-S.png,H-A.png,sS,hH,mask-2.png,mask-3.png,h,0,0.4804901999887079,none,-5,0,0.046611799974925816,0.04768700001295656,0.09783880005124956,0.09985280002001673,0.7458090999862179
RSVPLG03,JM,20260305-093931,1.0.2,20251105-084826,786,Practice,T1,1,Automatic,main,13,20260305-094044,local,local,300,H,S,A,E,A-H.png,E-S.png,hH,sS,mask-4.png,mask-3.png,h,1,0.6470178000163287,none,-5,0,0.04669920005835593,0.04745719989296049,0.09990000003017485,0.09873259998857975,0.29945420008152723
RSVPLG03,JM,20260305-093931,1.0.2,20251105-084826,786,Practice,T1,1,Automatic,main,14,20260305-094048,local,global,300,H,S,A,A,A-H.png,S-A.png,hH,sS,mask-1.png,mask-4.png,h,1,0.9815348000265658,none,-5,0,0.04672209999989718,0.04660779994446784,0.09824469999875873,0.09943729999940842,0.29815759998746216
RSVPLG03,JM,20260305-093931,1.0.2,20251105-084826,786,Practice,T1,1,Automatic,main,15,20260305-094052,local,global,750,S,S,A,A,A-S.png,S-A.png,sS,sS,mask-3.png,mask-3.png,s,1,0.8665964000392705,none,-5,0,0.04770590004045516,0.04766340006608516,0.09990330005530268,0.09980610001366585,0.7471860999939963
RSVPLG03,JM,20260305-093931,1.0.2,20251105-084826,786,Practice,T1,1,Automatic,main,16,20260305-094057,global,local,750,H,H,E,A,H-E.png,A-H.png,hH,hH,mask-2.png,mask-1.png,h,1,1.2523336000740528,none,-5,0,0.045536099933087826,0.04619960009586066,0.09788209991529584,0.09974650002550334,0.7464582999236882
RSVPLG03,JM,20260305-094136,1.0.2,20251105-084826,786,Practice,Both,1,Automatic,main,1,20260305-094154,local,global,750,H,S,A,E,A-H.png,S-E.png,hH,sS,mask-1.png,mask-1.png,h,1,1.011986600002274,s,1,1.9606344999046996,0.041029299958609045,0.045917200041003525,0.09412279992830008,0.1002036000136286,0.7458896999014542
RSVPLG03,JM,20260305-094136,1.0.2,20251105-084826,786,Practice,Both,1,Automatic,main,2,20260305-094201,local,local,300,H,H,A,A,A-H.png,A-H.png,hH,hH,mask-3.png,mask-2.png,h,1,0.9815852000610903,s,0,0.5571934999898076,0.04758799995761365,0.0474821999669075,0.10043440002482384,0.1004056999227032,0.30012240004725754
RSVPLG03,JM,20260305-094136,1.0.2,20251105-084826,786,Practice,Both,1,Automatic,main,3,20260305-094206,local,global,300,S,H,E,A,E-S.png,H-A.png,sS,hH,mask-4.png,mask-1.png,s,1,1.1323241000063717,s,0,0.8107714999932796,0.04640680004376918,0.047413800028152764,0.10028080001939088,0.10028320003766567,0.3002753999317065
RSVPLG03,JM,20260305-094136,1.0.2,20251105-084826,786,Practice,Both,1,Automatic,main,4,20260305-094212,global,global,300,S,H,A,E,S-A.png,H-E.png,sS,hH,mask-4.png,mask-1.png,s,1,0.9432376999175176,h,1,0.38937129999976605,0.0474939999403432,0.04751219996251166,0.09950729995034635,0.09853700001258403,0.301609699963592
RSVPLG03,JM,20260305-094136,1.0.2,20251105-084826,786,Practice,Both,1,Automatic,main,5,20260305-094217,global,global,750,H,H,E,E,H-E.png,H-E.png,hH,hH,mask-2.png,mask-3.png,h,1,1.8297073000576347,s,0,0.20828160003293306,0.047693599946796894,0.04773989995010197,0.1019411999732256,0.10028749995399266,0.7518821000121534
RSVPLG03,JM,20260305-094136,1.0.2,20251105-084826,786,Practice,Both,1,Automatic,main,6,20260305-094223,global,local,750,S,S,A,E,S-A.png,E-S.png,sS,sS,mask-4.png,mask-3.png,s,1,1.5166238999227062,s,1,0.3272508999798447,0.04758140002377331,0.04757249995600432,0.09978399996180087,0.10179049998987466,0.7501227000029758
RSVPLG03,JM,20260305-094136,1.0.2,20251105-084826,786,Practice,Both,1,Automatic,main,7,20260305-094229,global,local,750,S,H,E,E,S-E.png,E-H.png,sS,hH,mask-3.png,mask-3.png,s,1,0.7356153998989612,h,1,0.34166529995854944,0.04849850002210587,0.04696549999061972,0.10081860003992915,0.10009690001606941,0.7516963999951258
RSVPLG03,JM,20260305-094136,1.0.2,20251105-084826,786,Practice,Both,1,Automatic,main,8,20260305-094234,global,local,300,H,S,A,E,H-A.png,E-S.png,hH,sS,mask-2.png,mask-2.png,h,1,1.4682573999743909,s,1,0.15649280010256916,0.0485727998893708,0.04660060000605881,0.09982259990647435,0.09860179992392659,0.302130899974145
RSVPLG03,JM,20260305-094136,1.0.2,20251105-084826,786,Practice,Both,1,Automatic,main,9,20260305-094240,local,global,300,S,H,E,E,E-S.png,H-E.png,sS,hH,mask-4.png,mask-3.png,s,1,0.7746082999510691,h,1,0.3250323999673128,0.04751029994804412,0.0467314999550581,0.10052259999793023,0.09981259994674474,0.29976429999805987
RSVPLG03,JM,20260305-094136,1.0.2,20251105-084826,786,Practice,Both,1,Automatic,main,10,20260305-094244,local,global,750,S,S,E,E,E-S.png,S-E.png,sS,sS,mask-3.png,mask-2.png,s,1,1.7215900999726728,h,0,0.2681358999107033,0.04588539991527796,0.047478700056672096,0.09875759994611144,0.10146749997511506,0.7503417999250814
RSVPLG03,JM,20260305-094136,1.0.2,20251105-084826,786,Practice,Both,1,Automatic,main,11,20260305-094251,global,local,300,S,S,E,A,S-E.png,A-S.png,sS,sS,mask-2.png,mask-2.png,h,0,2.222898899926804,h,0,0.08766199997626245,0.04859539994504303,0.04928160004783422,0.10159480001311749,0.10034440003801137,0.30107759998645633
RSVPLG03,JM,20260305-094136,1.0.2,20251105-084826,786,Practice,Both,1,Automatic,main,12,20260305-094256,local,local,750,H,S,E,E,E-H.png,E-S.png,hH,sS,mask-2.png,mask-3.png,h,1,1.0746546000009403,s,1,0.3091320999665186,0.047434199950657785,0.04674789996352047,0.09986479999497533,0.09975249995477498,0.7515124999918044
RSVPLG03,JM,20260305-094136,1.0.2,20251105-084826,786,Practice,Both,1,Automatic,main,13,20260305-094302,local,local,750,S,S,E,A,E-S.png,A-S.png,sS,sS,mask-4.png,mask-1.png,s,1,0.7071928000077605,s,1,0.10264529997948557,0.04843359999358654,0.04669560003094375,0.10054520005360246,0.09994730004109442,0.7528580999933183
RSVPLG03,JM,20260305-094136,1.0.2,20251105-084826,786,Practice,Both,1,Automatic,main,14,20260305-094307,global,global,750,S,H,A,A,S-A.png,H-A.png,sS,hH,mask-1.png,mask-2.png,h,0,1.2351098000071943,h,1,0.09465280000586063,0.04773839993868023,0.04770060000009835,0.09979419992305338,0.10108269995544106,0.7511730999685824
RSVPLG03,JM,20260305-094136,1.0.2,20251105-084826,786,Practice,Both,1,Automatic,main,15,20260305-094312,global,global,300,S,S,E,E,S-E.png,S-E.png,sS,sS,mask-3.png,mask-4.png,s,1,1.5945678999414667,h,0,0.2780794999562204,0.04767070000525564,0.04768660000991076,0.10088290006387979,0.0998893000651151,0.30028359999414533
RSVPLG03,JM,20260305-094136,1.0.2,20251105-084826,786,Practice,Both,1,Automatic,main,16,20260305-094318,local,local,300,S,S,A,A,A-S.png,A-S.png,sS,sS,mask-2.png,mask-4.png,s,1,2.210776000050828,h,0,2.098938100039959,0.04768570000305772,0.047439999994821846,0.09974799992050976,0.0996238999068737,0.3003159000072628
RSVPLG03,JM,20260305-094353,1.0.2,20251105-084826,786,Practice,Both,1,Automatic,main,1,20260305-094413,local,global,300,S,H,E,A,E-S.png,H-A.png,sS,hH,mask-3.png,mask-4.png,s,1,1.2743014000589028,h,1,0.2296744000632316,0.04516830004286021,0.04598489997442812,0.09837680007331073,0.09921679995022714,0.29780220007523894
RSVPLG03,JM,20260305-094353,1.0.2,20251105-084826,786,Practice,Both,1,Automatic,main,2,20260305-094418,global,global,750,H,H,E,E,H-E.png,H-E.png,hH,hH,mask-4.png,mask-2.png,h,1,1.0450789999449626,h,1,0.060309599968604743,0.04672109999228269,0.04810939996968955,0.09997840004507452,0.09970909997355193,0.7490347001003101
RSVPLG03,JM,20260305-094353,1.0.2,20251105-084826,786,Practice,Both,1,Automatic,main,3,20260305-094423,local,global,750,H,S,E,E,E-H.png,S-E.png,hH,sS,mask-3.png,mask-4.png,h,1,2.0038166000740603,s,1,0.1997741999803111,0.047342099947854877,0.046980699989944696,0.09993350005242974,0.10027629998512566,0.7502950000343844
RSVPLG03,JM,20260305-094353,1.0.2,20251105-084826,786,Practice,Both,1,Automatic,main,4,20260305-094429,local,global,300,H,S,E,A,E-H.png,S-A.png,hH,sS,mask-2.png,mask-2.png,s,0,1.6077570000197738,h,0,0.22183410008437932,0.04749260004609823,0.04743919998873025,0.09988630004227161,0.10123779997229576,0.2985829000826925
RSVPLG03,JM,20260305-094353,1.0.2,20251105-084826,786,Practice,Both,1,Automatic,main,5,20260305-094435,global,local,750,S,S,A,E,S-A.png,E-S.png,sS,sS,mask-3.png,mask-2.png,s,1,1.4101296999724582,h,0,0.2665976999560371,0.04642630007583648,0.046727400040254,0.0994608000619337,0.10044260008726269,0.7488529999973252
RSVPLG03,JM,20260305-094353,1.0.2,20251105-084826,786,Practice,Both,1,Automatic,main,6,20260305-094441,global,global,300,H,H,E,A,H-E.png,H-A.png,hH,hH,mask-2.png,mask-2.png,h,1,2.214882900007069,h,1,0.06914540007710457,0.047880199970677495,0.04980429995339364,0.09987240005284548,0.10099609999451786,0.2993905000621453
RSVPLG03,JM,20260305-094353,1.0.2,20251105-084826,786,Practice,Both,1,Automatic,main,7,20260305-094447,global,local,300,S,S,A,E,S-A.png,E-S.png,sS,sS,mask-1.png,mask-2.png,s,1,1.7684788999613374,s,1,0.20047859998885542,0.04667920002248138,0.04714339994825423,0.10068809997756034,0.09972419997211546,0.2993550000246614
RSVPLG03,JM,20260305-094353,1.0.2,20251105-084826,786,Practice,Both,1,Automatic,main,8,20260305-094452,global,global,300,H,H,A,E,H-A.png,H-E.png,hH,hH,mask-2.png,mask-1.png,h,1,1.8518971999874339,h,1,0.3684809999540448,0.04760549997445196,0.04678019997663796,0.10055989993270487,0.09943800000473857,0.2989138999255374
RSVPLG03,JM,20260305-094353,1.0.2,20251105-084826,786,Practice,Both,1,Automatic,main,9,20260305-094458,local,global,750,S,H,A,A,A-S.png,H-A.png,sS,hH,mask-2.png,mask-4.png,s,1,1.5281349000288174,h,1,0.21534629992675036,0.047326200059615076,0.046890400000847876,0.09970540006179363,0.10029289999511093,0.7488965999800712
RSVPLG03,JM,20260305-094353,1.0.2,20251105-084826,786,Practice,Both,1,Automatic,main,10,20260305-094504,global,local,750,H,H,A,A,H-A.png,A-H.png,hH,hH,mask-3.png,mask-2.png,h,1,1.5357419999781996,h,1,0.28208919998724014,0.04727840004488826,0.04647149995435029,0.09914850001223385,0.09784820000641048,0.7488622000673786
RSVPLG03,JM,20260305-094353,1.0.2,20251105-084826,786,Practice,Both,1,Automatic,main,11,20260305-094510,global,global,750,S,S,A,A,S-A.png,S-A.png,sS,sS,mask-3.png,mask-1.png,s,1,1.1996720000170171,h,0,0.31382889999076724,0.047787000075913966,0.04761150002013892,0.10096820001490414,0.09936960006598383,0.750760699971579
RSVPLG03,JM,20260305-094353,1.0.2,20251105-084826,786,Practice,Both,1,Automatic,main,12,20260305-094515,local,local,300,S,H,E,E,E-S.png,E-H.png,sS,hH,mask-3.png,mask-3.png,s,1,1.0046862000599504,h,1,0.2797590000554919,0.04977570008486509,0.04759199998807162,0.10083590005524457,0.09981190005782992,0.3007165000308305
RSVPLG03,JM,20260305-094353,1.0.2,20251105-084826,786,Practice,Both,1,Automatic,main,13,20260305-094520,local,local,750,H,S,A,A,A-H.png,A-S.png,hH,sS,mask-2.png,mask-4.png,h,1,2.1444784000050277,s,1,0.22699239989742637,0.04767769994214177,0.0475948000093922,0.09938419994432479,0.10074290004558861,0.7489679999416694
RSVPLG03,JM,20260305-094353,1.0.2,20251105-084826,786,Practice,Both,1,Automatic,main,14,20260305-094527,local,local,750,H,S,E,E,E-H.png,E-S.png,hH,sS,mask-4.png,mask-1.png,h,1,1.0767346000066027,s,1,0.20091329992283136,0.047170599922537804,0.047011899994686246,0.10055049997754395,0.0983039999846369,0.7502610000083223
RSVPLG03,JM,20260305-094353,1.0.2,20251105-084826,786,Practice,Both,1,Automatic,main,15,20260305-094532,local,local,300,H,H,A,E,A-H.png,E-H.png,hH,hH,mask-2.png,mask-2.png,h,1,1.288678599987179,s,0,0.21762479993049055,0.04870370007120073,0.04764440003782511,0.1008309000171721,0.09964859997853637,0.3007773000281304
RSVPLG03,JM,20260305-094353,1.0.2,20251105-084826,786,Practice,Both,1,Automatic,main,16,20260305-094537,global,local,300,H,H,A,E,H-A.png,E-H.png,hH,hH,mask-2.png,mask-2.png,h,1,1.431929999962449,h,1,0.4425269999774173,0.04612110008019954,0.047784200054593384,0.09813779999967664,0.10115380003117025,0.2976253000088036
RSVPLG03,JM,20260305-094605,1.0.2,20251105-084826,786,Practice,Both,1,Automatic,main,1,20260305-094622,global,local,300,S,S,E,A,S-E.png,A-S.png,sS,sS,mask-3.png,mask-4.png,s,1,1.0719836000353098,h,0,0.27853250002954155,0.041026400052942336,0.04755200003273785,0.09456630004569888,0.10063759994227439,0.2948290000203997
RSVPLG03,JM,20260305-094605,1.0.2,20251105-084826,786,Practice,Both,1,Automatic,main,2,20260305-094627,global,global,300,H,H,A,A,H-A.png,H-A.png,hH,hH,mask-1.png,mask-3.png,h,1,3.0486965000163764,s,0,0.2683771000010893,0.0466845000628382,0.04570559994317591,0.100044000078924,0.09774299990385771,0.3009803000604734
RSVPLG03,JM,20260305-094605,1.0.2,20251105-084826,786,Practice,Both,1,Automatic,main,3,20260305-094634,global,global,300,S,H,E,A,S-E.png,H-A.png,sS,hH,mask-1.png,mask-4.png,s,1,2.3036125999642536,h,1,0.29355539998505265,0.04705569997895509,0.04668960010167211,0.09909929998684675,0.09965480002574623,0.3003064999356866
RSVPLG03,JM,20260305-094605,1.0.2,20251105-084826,786,Practice,Both,1,Automatic,main,4,20260305-094640,local,global,300,S,H,E,A,E-S.png,H-A.png,sS,hH,mask-4.png,mask-1.png,s,1,1.1667428000364453,h,1,0.2637918000109494,0.04692280001472682,0.04812359996140003,0.10005979996640235,0.10016069991979748,0.3005480000283569
RSVPLG03,JM,20260305-094605,1.0.2,20251105-084826,786,Practice,Both,1,Automatic,main,5,20260305-094645,global,local,750,H,S,A,A,H-A.png,A-S.png,hH,sS,mask-1.png,mask-1.png,h,1,1.923537600087002,s,1,0.18711220007389784,0.0477391000604257,0.04668959998525679,0.09999330004211515,0.09913899993989617,0.750084700062871
RSVPLG03,JM,20260305-094605,1.0.2,20251105-084826,786,Practice,Both,1,Automatic,main,6,20260305-094651,global,local,750,H,S,A,A,H-A.png,A-S.png,hH,sS,mask-4.png,mask-2.png,h,1,1.5512870999518782,s,1,0.16608599992468953,0.04705239995382726,0.04752349993214011,0.09948819992132485,0.1005320999538526,0.751146599999629
RSVPLG03,JM,20260305-094605,1.0.2,20251105-084826,786,Practice,Both,1,Automatic,main,7,20260305-094657,global,local,300,H,H,A,E,H-A.png,E-H.png,hH,hH,mask-3.png,mask-4.png,h,1,1.8469901999924332,s,0,0.18074999994132668,0.047991400002501905,0.04651710006874055,0.10023540002293885,0.10085030004847795,0.30090339994058013
RSVPLG03,JM,20260305-094605,1.0.2,20251105-084826,786,Practice,Both,1,Automatic,main,8,20260305-094703,local,global,300,H,S,A,A,A-H.png,S-A.png,hH,sS,mask-1.png,mask-1.png,h,1,2.0352225999813527,s,1,0.19965860003139824,0.048613599967211485,0.04698159999679774,0.0999737000092864,0.10009419999551028,0.3009655000641942
RSVPLG03,JM,20260305-094605,1.0.2,20251105-084826,786,Practice,Both,1,Automatic,main,9,20260305-094709,global,global,750,S,S,A,E,S-A.png,S-E.png,sS,sS,mask-1.png,mask-2.png,h,0,0.934691600035876,s,1,0.21505440003238618,0.04764140001498163,0.04781100002583116,0.09979630005545914,0.09957400010898709,0.7509894999675453
RSVPLG03,JM,20260305-094605,1.0.2,20251105-084826,786,Practice,Both,1,Automatic,main,10,20260305-094714,local,local,300,S,S,E,A,E-S.png,A-S.png,sS,sS,mask-4.png,mask-4.png,h,0,1.864589300006628,s,1,0.1887643999652937,0.04752629995346069,0.04869039996992797,0.09962620004080236,0.09978469996713102,0.29926660005003214
RSVPLG03,JM,20260305-094605,1.0.2,20251105-084826,786,Practice,Both,1,Automatic,main,11,20260305-094720,local,global,750,S,S,E,A,E-S.png,S-A.png,sS,sS,mask-4.png,mask-2.png,h,0,1.0229400999378413,s,1,0.18876889999955893,0.047569100046530366,0.04675749992020428,0.10048509994521737,0.09978369995951653,0.751716100028716
RSVPLG03,JM,20260305-094605,1.0.2,20251105-084826,786,Practice,Both,1,Automatic,main,12,20260305-094725,local,local,300,H,H,A,E,A-H.png,E-H.png,hH,hH,mask-4.png,mask-3.png,s,0,2.553712400025688,h,1,0.2082943000132218,0.046900699962861836,0.04784370004199445,0.10014979995321482,0.10045510006602854,0.2992998999543488
RSVPLG03,JM,20260305-094605,1.0.2,20251105-084826,786,Practice,Both,1,Automatic,main,13,20260305-094731,local,local,750,H,H,E,E,E-H.png,E-H.png,hH,hH,mask-4.png,mask-2.png,h,1,3.228522300021723,s,0,0.176113500026986,0.04770310001913458,0.04688070004340261,0.10000570002011955,0.09924569993745536,0.7498360000317916
RSVPLG03,JM,20260305-094605,1.0.2,20251105-084826,786,Practice,Both,1,Automatic,main,14,20260305-094739,local,global,750,S,S,A,E,A-S.png,S-E.png,sS,sS,mask-1.png,mask-4.png,h,0,1.014565599965863,s,1,0.19497539999429137,0.04852359998039901,0.0458824000088498,0.10062210005708039,0.1002981000347063,0.7515293000033125
RSVPLG03,JM,20260305-094605,1.0.2,20251105-084826,786,Practice,Both,1,Automatic,main,15,20260305-094744,local,local,750,S,S,E,E,E-S.png,E-S.png,sS,sS,mask-2.png,mask-4.png,h,0,1.5217930999351665,s,1,0.2970126000000164,0.04662590008229017,0.04603450000286102,0.09903220005799085,0.09933190001174808,0.7498633000068367
RSVPLG03,JM,20260305-094605,1.0.2,20251105-084826,786,Practice,Both,1,Automatic,main,16,20260305-094750,global,global,750,S,S,A,E,S-A.png,S-E.png,sS,sS,mask-1.png,mask-1.png,h,0,2.221779500017874,s,1,0.1311445999890566,0.04766769998241216,0.047656399896368384,0.10001109994482249,0.10178059991449118,0.7495724000036716
RSVPLG03,JM,20260305-094834,1.0.2,20251105-084826,786,Experiment,T1,1,Automatic,warmup,1,20260305-094906,global,global,750,H,H,E,E,H-E.png,H-E.png,hH,hH,mask-3.png,mask-2.png,h,1,1.0833175000734627,none,-5,0,0.04002539999783039,0.0476807999657467,0.09308419993612915,0.10185259999707341,0.7431931999744847
RSVPLG03,JM,20260305-094834,1.0.2,20251105-084826,786,Experiment,T1,1,Automatic,warmup,2,20260305-094911,local,global,750,H,S,E,E,E-H.png,S-E.png,hH,sS,mask-3.png,mask-3.png,s,0,0.6820847999770194,none,-5,0,0.04665679996833205,0.04770500003360212,0.10001840000040829,0.10095150000415742,0.7494765999726951
RSVPLG03,JM,20260305-094834,1.0.2,20251105-084826,786,Experiment,T1,1,Automatic,warmup,3,20260305-094916,global,local,300,H,S,A,E,H-A.png,E-S.png,hH,sS,mask-2.png,mask-4.png,h,1,0.7759977999376133,none,-5,0,0.045796799939125776,0.04748270008713007,0.0999860999872908,0.10041240009013563,0.30007229989860207
RSVPLG03,JM,20260305-094834,1.0.2,20251105-084826,786,Experiment,T1,1,Automatic,warmup,4,20260305-094920,local,local,750,H,H,E,A,E-H.png,A-H.png,hH,hH,mask-4.png,mask-4.png,h,1,0.5533101999899372,none,-5,0,0.047260900028049946,0.04691810009535402,0.09969080006703734,0.10012300009839237,0.7502752000000328
RSVPLG03,JM,20260305-094834,1.0.2,20251105-084826,786,Experiment,T1,1,Automatic,main,5,20260305-094925,local,global,750,S,H,A,E,A-S.png,H-E.png,sS,hH,mask-1.png,mask-4.png,s,1,0.6954491999931633,none,-5,0,0.04770769993774593,0.04710180009715259,0.09908610000275075,0.09978250006679446,0.7504980999510735
RSVPLG03,JM,20260305-094834,1.0.2,20251105-084826,786,Experiment,T1,1,Automatic,main,6,20260305-094930,global,global,300,H,H,E,E,H-E.png,H-E.png,hH,hH,mask-3.png,mask-2.png,h,1,0.5829583000158891,none,-5,0,0.046536499983631074,0.047587000066414475,0.09962780005298555,0.09967879997566342,0.29930549999698997
RSVPLG03,JM,20260305-094834,1.0.2,20251105-084826,786,Experiment,T1,1,Automatic,main,7,20260305-094934,global,global,300,H,S,E,E,H-E.png,S-E.png,hH,sS,mask-1.png,mask-1.png,h,1,0.27891320001799613,none,-5,0,0.0475328000029549,0.047274300013668835,0.09930729994084686,0.09973920008633286,0.2994635999202728
RSVPLG03,JM,20260305-094834,1.0.2,20251105-084826,786,Experiment,T1,1,Automatic,main,8,20260305-094938,global,local,750,H,S,A,E,H-A.png,E-S.png,hH,sS,mask-4.png,mask-3.png,h,1,0.44387419999111444,none,-5,0,0.04773630003910512,0.04567799996584654,0.10066080000251532,0.09986019995994866,0.751657500048168
RSVPLG03,JM,20260305-094834,1.0.2,20251105-084826,786,Experiment,T1,1,Automatic,main,9,20260305-094942,local,global,300,S,H,A,E,A-S.png,H-E.png,sS,hH,mask-3.png,mask-2.png,h,0,0.8529738000361249,none,-5,0,0.04772179992869496,0.04867659998126328,0.09927649993915111,0.10004309995565563,0.29986649996135384
RSVPLG03,JM,20260305-094834,1.0.2,20251105-084826,786,Experiment,T1,1,Automatic,main,10,20260305-094946,global,global,300,H,S,A,E,H-A.png,S-E.png,hH,sS,mask-4.png,mask-3.png,h,1,0.4098544000880793,none,-5,0,0.04585430002771318,0.04741989995818585,0.09838810004293919,0.10052840004209429,0.2995373000157997
RSVPLG03,JM,20260305-094834,1.0.2,20251105-084826,786,Experiment,T1,1,Automatic,main,11,20260305-094950,global,local,750,S,H,E,A,S-E.png,A-H.png,sS,hH,mask-4.png,mask-2.png,s,1,1.9484909999882802,none,-5,0,0.04750770004466176,0.047537999926134944,0.09851750009693205,0.10156689991708845,0.7487255000742152
RSVPLG03,JM,20260305-094834,1.0.2,20251105-084826,786,Experiment,T1,1,Automatic,main,12,20260305-094956,global,global,750,H,S,E,E,H-E.png,S-E.png,hH,sS,mask-4.png,mask-1.png,h,1,0.7543560999911278,none,-5,0,0.04871749994345009,0.04871480003930628,0.09980339999310672,0.10095700004603714,0.7508331999415532
RSVPLG03,JM,20260305-094834,1.0.2,20251105-084826,786,Experiment,T1,1,Automatic,main,13,20260305-095001,global,local,300,S,H,A,A,S-A.png,A-H.png,sS,hH,mask-4.png,mask-4.png,s,1,0.897847400046885,none,-5,0,0.04753250000067055,0.04835990001447499,0.09853900002781302,0.1001842999830842,0.29909670003689826
RSVPLG03,JM,20260305-094834,1.0.2,20251105-084826,786,Experiment,T1,1,Automatic,main,14,20260305-095005,global,local,300,S,H,E,E,S-E.png,E-H.png,sS,hH,mask-2.png,mask-2.png,h,0,0.5701036000391468,none,-5,0,0.04673309996724129,0.04866880003828555,0.09913089999463409,0.10089100000914186,0.2988875999581069
RSVPLG03,JM,20260305-094834,1.0.2,20251105-084826,786,Experiment,T1,1,Automatic,main,15,20260305-095010,local,local,300,H,H,A,A,A-H.png,A-H.png,hH,hH,mask-2.png,mask-1.png,h,1,0.9471735999686643,none,-5,0,0.047728899982757866,0.04770619992632419,0.09996989998035133,0.09991319989785552,0.2996627000393346
RSVPLG03,JM,20260305-094834,1.0.2,20251105-084826,786,Experiment,T1,1,Automatic,main,16,20260305-095014,global,local,750,H,H,E,A,H-E.png,A-H.png,hH,hH,mask-2.png,mask-4.png,h,1,0.48448020010255277,none,-5,0,0.045967599959112704,0.047680300078354776,0.09876019996590912,0.10087470000144094,0.7491840999573469
RSVPLG03,JM,20260305-094834,1.0.2,20251105-084826,786,Experiment,T1,1,Automatic,main,17,20260305-095018,local,local,300,H,S,A,A,A-H.png,A-S.png,hH,sS,mask-2.png,mask-2.png,h,1,0.5733316999394447,none,-5,0,0.04761549993418157,0.04923840006813407,0.09980440000072122,0.10046360001433641,0.29976709990296513
RSVPLG03,JM,20260305-094834,1.0.2,20251105-084826,786,Experiment,T1,1,Automatic,main,18,20260305-095023,global,global,750,H,H,E,A,H-E.png,H-A.png,hH,hH,mask-3.png,mask-2.png,h,1,0.3217116999439895,none,-5,0,0.0466524000512436,0.0477389000589028,0.09986790001858026,0.09915210003964603,0.7498314999975264
RSVPLG03,JM,20260305-094834,1.0.2,20251105-084826,786,Experiment,T1,1,Automatic,main,19,20260305-095027,local,global,750,S,S,A,A,A-S.png,S-A.png,sS,sS,mask-2.png,mask-3.png,s,1,0.4342041000491008,none,-5,0,0.04751169995870441,0.047511099954135716,0.10051919997204095,0.1008235999615863,0.7503252000315115
RSVPLG03,JM,20260305-094834,1.0.2,20251105-084826,786,Experiment,T1,1,Automatic,main,20,20260305-095031,global,local,750,H,H,A,A,H-A.png,A-H.png,hH,hH,mask-4.png,mask-3.png,h,1,0.3955219000345096,none,-5,0,0.047096800059080124,0.049080300028435886,0.10033909999765456,0.10012880002614111,0.7498559000669047
RSVPLG03,JM,20260305-094834,1.0.2,20251105-084826,786,Experiment,T1,1,Automatic,main,21,20260305-095036,global,local,300,H,S,E,E,H-E.png,E-S.png,hH,sS,mask-3.png,mask-4.png,h,1,0.40460800006985664,none,-5,0,0.04808980005327612,0.046114200027659535,0.10053070005960763,0.09844660002272576,0.3016511000460014
RSVPLG03,JM,20260305-094834,1.0.2,20251105-084826,786,Experiment,T1,1,Automatic,main,22,20260305-095040,local,local,750,S,H,A,E,A-S.png,E-H.png,sS,hH,mask-2.png,mask-4.png,s,1,0.3133470000466332,none,-5,0,0.04827690008096397,0.04710750002413988,0.09956340002827346,0.10040120000485331,0.7510369999799877
RSVPLG03,JM,20260305-094834,1.0.2,20251105-084826,786,Experiment,T1,1,Automatic,main,23,20260305-095044,global,local,300,H,H,E,E,H-E.png,E-H.png,hH,hH,mask-2.png,mask-1.png,h,1,0.35123040003236383,none,-5,0,0.04683589993510395,0.04793740005698055,0.10055279999505728,0.10089970007538795,0.2998641999438405
RSVPLG03,JM,20260305-094834,1.0.2,20251105-084826,786,Experiment,T1,1,Automatic,main,24,20260305-095048,local,local,750,H,S,E,E,E-H.png,E-S.png,hH,sS,mask-3.png,mask-3.png,h,1,0.46630919992458075,none,-5,0,0.04665719997137785,0.047703900025226176,0.09966669999994338,0.10084620001725852,0.7496467999881133
RSVPLG03,JM,20260305-094834,1.0.2,20251105-084826,786,Experiment,T1,1,Automatic,main,25,20260305-095052,global,global,750,H,H,A,E,H-A.png,H-E.png,hH,hH,mask-3.png,mask-2.png,h,1,0.3097968000220135,none,-5,0,0.04882840008940548,0.04876719997264445,0.10110800003167242,0.0999663999537006,0.7510787000646815
RSVPLG03,JM,20260305-094834,1.0.2,20251105-084826,786,Experiment,T1,1,Automatic,main,26,20260305-095100,local,local,750,H,H,A,E,A-H.png,E-H.png,hH,hH,mask-1.png,mask-1.png,h,1,0.7042115000076592,none,-5,0,0.04630609997548163,0.046687299967743456,0.09948999993503094,0.09986780001781881,0.7501374999992549
RSVPLG03,JM,20260305-094834,1.0.2,20251105-084826,786,Experiment,T1,1,Automatic,main,27,20260305-095105,local,local,300,H,S,E,E,E-H.png,E-S.png,hH,sS,mask-2.png,mask-3.png,h,1,0.4360829000361264,none,-5,0,0.04815530008636415,0.047946800012141466,0.10126859997399151,0.1000405999366194,0.30064500006847084
RSVPLG03,JM,20260305-094834,1.0.2,20251105-084826,786,Experiment,T1,1,Automatic,main,28,20260305-095109,local,local,300,S,H,A,E,A-S.png,E-H.png,sS,hH,mask-1.png,mask-1.png,s,1,0.3539294999791309,none,-5,0,0.04750320001039654,0.04647079994902015,0.09944100002758205,0.10074369993526489,0.2995895000640303
RSVPLG03,JM,20260305-094834,1.0.2,20251105-084826,786,Experiment,T1,1,Automatic,main,29,20260305-095113,global,global,750,H,H,A,E,H-A.png,H-E.png,hH,hH,mask-1.png,mask-4.png,h,1,0.35389600007329136,none,-5,0,0.04781529994215816,0.04806159995496273,0.0998927999753505,0.10051489993929863,0.7500852999510244
RSVPLG03,JM,20260305-094834,1.0.2,20251105-084826,786,Experiment,T1,1,Automatic,main,30,20260305-095117,global,global,750,S,H,A,E,S-A.png,H-E.png,sS,hH,mask-3.png,mask-4.png,s,1,0.3388793000485748,none,-5,0,0.047909799963235855,0.04743040003813803,0.10206359997391701,0.0994478000793606,0.7525119999190792
RSVPLG03,JM,20260305-094834,1.0.2,20251105-084826,786,Experiment,T1,1,Automatic,main,31,20260305-095122,local,local,750,S,H,E,E,E-S.png,E-H.png,sS,hH,mask-4.png,mask-2.png,s,1,0.35306520003359765,none,-5,0,0.04762059997301549,0.04679320007562637,0.09963029995560646,0.09876710001844913,0.7505414999322966
RSVPLG03,JM,20260305-094834,1.0.2,20251105-084826,786,Experiment,T1,1,Automatic,main,32,20260305-095126,global,local,300,H,S,A,A,H-A.png,A-S.png,hH,sS,mask-4.png,mask-4.png,h,1,0.45896580000407994,none,-5,0,0.04815509996842593,0.0470311000244692,0.10207099991384894,0.09966830001212656,0.3013029999565333
RSVPLG03,JM,20260305-094834,1.0.2,20251105-084826,786,Experiment,T1,1,Automatic,main,33,20260305-095130,local,global,750,S,S,A,A,A-S.png,S-A.png,sS,sS,mask-3.png,mask-4.png,s,1,0.3779911999590695,none,-5,0,0.04750630003400147,0.04780830000527203,0.10003880003932863,0.10084280010778457,0.748913099989295
RSVPLG03,JM,20260305-094834,1.0.2,20251105-084826,786,Experiment,T1,1,Automatic,main,34,20260305-095134,local,global,750,H,H,A,E,A-H.png,H-E.png,hH,hH,mask-3.png,mask-2.png,h,1,0.3955171999987215,none,-5,0,0.04771630000323057,0.0476998999947682,0.09918839996680617,0.1002773999935016,0.7495743000181392
RSVPLG03,JM,20260305-094834,1.0.2,20251105-084826,786,Experiment,T1,1,Automatic,main,35,20260305-095139,local,global,300,S,H,A,E,A-S.png,H-E.png,sS,hH,mask-2.png,mask-2.png,s,1,0.36842449998948723,none,-5,0,0.04830230004154146,0.046523199998773634,0.10028960008639842,0.10013739997521043,0.3005534000694752
RSVPLG03,JM,20260305-094834,1.0.2,20251105-084826,786,Experiment,T1,1,Automatic,main,36,20260305-095143,local,local,750,H,H,A,E,A-H.png,E-H.png,hH,hH,mask-3.png,mask-3.png,h,1,0.3563723999541253,none,-5,0,0.04651800007559359,0.04758719995152205,0.09916260000318289,0.09967729996424168,0.7497915000421926
RSVPLG03,JM,20260305-094834,1.0.2,20251105-084826,786,Experiment,T1,1,Automatic,main,37,20260305-095147,local,local,750,H,H,E,E,E-H.png,E-H.png,hH,hH,mask-3.png,mask-3.png,h,1,0.36526260001119226,none,-5,0,0.04749600007198751,0.04858320008497685,0.09946460009086877,0.10057020001113415,0.7491753000067547
RSVPLG03,JM,20260305-094834,1.0.2,20251105-084826,786,Experiment,T1,1,Automatic,main,38,20260305-095152,local,global,750,S,H,A,A,A-S.png,H-A.png,sS,hH,mask-2.png,mask-3.png,h,0,0.40119000000413507,none,-5,0,0.04753550002351403,0.04754009994212538,0.10155250004027039,0.09862710000015795,0.7518082000315189
RSVPLG03,JM,20260305-094834,1.0.2,20251105-084826,786,Experiment,T1,1,Automatic,main,39,20260305-095156,local,global,750,S,S,A,E,A-S.png,S-E.png,sS,sS,mask-2.png,mask-4.png,s,1,0.48466089996509254,none,-5,0,0.047563100000843406,0.04755100002512336,0.10001030005514622,0.09956849995069206,0.7505995000246912
RSVPLG03,JM,20260305-094834,1.0.2,20251105-084826,786,Experiment,T1,1,Automatic,main,40,20260305-095201,local,global,750,H,H,E,A,E-H.png,H-A.png,hH,hH,mask-3.png,mask-1.png,h,1,0.3409983000019565,none,-5,0,0.04654310003388673,0.04756970005109906,0.09902099997270852,0.09978000004775822,0.7499404000118375
RSVPLG03,JM,20260305-094834,1.0.2,20251105-084826,786,Experiment,T1,1,Automatic,main,41,20260305-095205,global,global,300,H,S,E,E,H-E.png,S-E.png,hH,sS,mask-3.png,mask-3.png,h,1,0.4684345999266952,none,-5,0,0.047679100069217384,0.04669450002256781,0.09935290005523711,0.10005300003103912,0.3010808000108227
RSVPLG03,JM,20260305-094834,1.0.2,20251105-084826,786,Experiment,T1,1,Automatic,main,42,20260305-095209,local,global,300,H,H,A,E,A-H.png,H-E.png,hH,hH,mask-3.png,mask-4.png,h,1,0.49791430006735027,none,-5,0,0.04883059998974204,0.04770739993546158,0.10003249999135733,0.09992099995724857,0.3007013000315055
RSVPLG03,JM,20260305-094834,1.0.2,20251105-084826,786,Experiment,T1,1,Automatic,main,43,20260305-095213,global,local,750,S,H,A,A,S-A.png,A-H.png,sS,hH,mask-3.png,mask-3.png,s,1,0.37041540001519024,none,-5,0,0.046801600023172796,0.04770130000542849,0.09900390007533133,0.1002586999675259,0.7495427000103518
RSVPLG03,JM,20260305-094834,1.0.2,20251105-084826,786,Experiment,T1,1,Automatic,main,44,20260305-095218,global,local,300,H,H,A,A,H-A.png,A-H.png,hH,hH,mask-4.png,mask-1.png,h,1,0.6118556999135762,none,-5,0,0.04771270009223372,0.047714499989524484,0.09898510004859418,0.09901070001069456,0.2996361000696197
RSVPLG03,JM,20260305-094834,1.0.2,20251105-084826,786,Experiment,T1,1,Automatic,main,45,20260305-095222,local,local,300,H,H,E,A,E-H.png,A-H.png,hH,hH,mask-3.png,mask-2.png,h,1,0.5511807999573648,none,-5,0,0.048681499902158976,0.047570900060236454,0.09917770000174642,0.10022110003046691,0.299337099888362
RSVPLG03,JM,20260305-094834,1.0.2,20251105-084826,786,Experiment,T1,1,Automatic,main,46,20260305-095226,global,global,750,H,S,A,A,H-A.png,S-A.png,hH,sS,mask-1.png,mask-3.png,h,1,0.27775619993917644,none,-5,0,0.047662099939771,0.046901200083084404,0.09970259992405772,0.09931090008467436,0.7499458999373019
RSVPLG03,JM,20260305-094834,1.0.2,20251105-084826,786,Experiment,T1,1,Automatic,main,47,20260305-095230,global,global,300,S,S,E,E,S-E.png,S-E.png,sS,sS,mask-2.png,mask-3.png,s,1,0.4247493000002578,none,-5,0,0.04782010009512305,0.048431599978357553,0.10108120006043464,0.10155340004712343,0.29996830003801733
RSVPLG03,JM,20260305-094834,1.0.2,20251105-084826,786,Experiment,T1,1,Automatic,main,48,20260305-095234,global,local,750,H,H,A,A,H-A.png,A-H.png,hH,hH,mask-2.png,mask-2.png,h,1,0.6262515999842435,none,-5,0,0.047647399944253266,0.045758599997498095,0.09984269994311035,0.09757400001399219,0.7506063999608159
RSVPLG03,JM,20260305-094834,1.0.2,20251105-084826,786,Experiment,T1,1,Automatic,main,49,20260305-095239,global,global,750,H,S,A,A,H-A.png,S-A.png,hH,sS,mask-3.png,mask-1.png,h,1,0.3279407999943942,none,-5,0,0.04772830009460449,0.04765610001049936,0.09995980001986027,0.09989379998296499,0.7501322000753134
RSVPLG03,JM,20260305-094834,1.0.2,20251105-084826,786,Experiment,T1,1,Automatic,main,50,20260305-095243,local,local,750,H,S,E,A,E-H.png,A-S.png,hH,sS,mask-3.png,mask-1.png,h,1,0.5854390999302268,none,-5,0,0.04720280005130917,0.04657030000817031,0.10034530004486442,0.10080999997444451,0.7515032000374049
RSVPLG03,JM,20260305-094834,1.0.2,20251105-084826,786,Experiment,T1,1,Automatic,main,51,20260305-095249,global,local,300,H,H,E,A,H-E.png,A-H.png,hH,hH,mask-3.png,mask-4.png,h,1,0.397532100090757,none,-5,0,0.04822140000760555,0.04768229997716844,0.09928169997874647,0.10062179993838072,0.29918650002218783
RSVPLG03,JM,20260305-094834,1.0.2,20251105-084826,786,Experiment,T1,1,Automatic,main,52,20260305-095253,global,global,750,S,S,E,E,S-E.png,S-E.png,sS,sS,mask-2.png,mask-2.png,s,1,0.7443578999955207,none,-5,0,0.047680099960416555,0.046995699987746775,0.1001230999827385,0.10092709993477911,0.7493398999795318
RSVPLG03,JM,20260305-094834,1.0.2,20251105-084826,786,Experiment,T1,1,Automatic,main,53,20260305-095258,local,local,300,H,H,A,E,A-H.png,E-H.png,hH,hH,mask-1.png,mask-3.png,h,1,0.6013114000670612,none,-5,0,0.048549699946306646,0.04674280004110187,0.10051779996138066,0.10113389999605715,0.30009459995198995
RSVPLG03,JM,20260305-094834,1.0.2,20251105-084826,786,Experiment,T1,1,Automatic,main,54,20260305-095302,global,local,750,S,S,A,A,S-A.png,A-S.png,sS,sS,mask-1.png,mask-3.png,s,1,0.4937911999877542,none,-5,0,0.04752550006378442,0.04670639999676496,0.10072340001352131,0.09882159996777773,0.7520508000161499
RSVPLG03,JM,20260305-094834,1.0.2,20251105-084826,786,Experiment,T1,1,Automatic,main,55,20260305-095306,global,local,750,H,H,A,E,H-A.png,E-H.png,hH,hH,mask-1.png,mask-1.png,h,1,0.33245630003511906,none,-5,0,0.04958289989735931,0.04859699995722622,0.10162759991362691,0.10079120006412268,0.7505868999287486
RSVPLG03,JM,20260305-094834,1.0.2,20251105-084826,786,Experiment,T1,1,Automatic,main,56,20260305-095311,local,local,300,S,S,A,E,A-S.png,E-S.png,sS,sS,mask-4.png,mask-1.png,h,0,0.4575094999745488,none,-5,0,0.046736399992369115,0.048973499913699925,0.09904270002152771,0.10032369999680668,0.2987772000487894
RSVPLG03,JM,20260305-094834,1.0.2,20251105-084826,786,Experiment,T1,1,Automatic,main,57,20260305-095315,global,local,300,H,S,A,E,H-A.png,E-S.png,hH,sS,mask-4.png,mask-3.png,h,1,0.8534712000982836,none,-5,0,0.047859499929472804,0.04700060002505779,0.10007699998095632,0.09923520009033382,0.2997987999115139
RSVPLG03,JM,20260305-094834,1.0.2,20251105-084826,786,Experiment,T1,1,Automatic,main,58,20260305-095319,global,global,300,S,H,A,A,S-A.png,H-A.png,sS,hH,mask-4.png,mask-1.png,s,1,0.307581500033848,none,-5,0,0.04603379999753088,0.04756249999627471,0.09815350000280887,0.09861109999474138,0.29982690000906587
RSVPLG03,JM,20260305-094834,1.0.2,20251105-084826,786,Experiment,T1,1,Automatic,main,59,20260305-095323,global,global,300,H,H,A,E,H-A.png,H-E.png,hH,hH,mask-4.png,mask-1.png,h,1,0.3557738000527024,none,-5,0,0.04681410000193864,0.04671670007519424,0.09957269998267293,0.10008830006700009,0.30042619991581887
RSVPLG03,JM,20260305-094834,1.0.2,20251105-084826,786,Experiment,T1,1,Automatic,main,60,20260305-095327,global,local,750,S,H,E,A,S-E.png,A-H.png,sS,hH,mask-4.png,mask-2.png,s,1,0.3166295000119135,none,-5,0,0.0464897999772802,0.047847399953752756,0.09851879999041557,0.10176839993800968,0.7482650000602007
RSVPLG03,JM,20260305-094834,1.0.2,20251105-084826,786,Experiment,T1,1,Automatic,main,61,20260305-095331,local,global,300,H,S,A,E,A-H.png,S-E.png,hH,sS,mask-1.png,mask-1.png,h,1,0.39649650000501424,none,-5,0,0.0485562999965623,0.04835190006997436,0.10150349989999086,0.10028230003081262,0.300423999899067
RSVPLG03,JM,20260305-094834,1.0.2,20251105-084826,786,Experiment,T1,1,Automatic,main,62,20260305-095335,global,global,300,H,H,A,A,H-A.png,H-A.png,hH,hH,mask-2.png,mask-1.png,h,1,0.3375732999993488,none,-5,0,0.047003300045616925,0.04695529991295189,0.10110610001720488,0.10112369991838932,0.3001867000712082
RSVPLG03,JM,20260305-094834,1.0.2,20251105-084826,786,Experiment,T1,1,Automatic,main,63,20260305-095339,global,local,300,S,H,E,A,S-E.png,A-H.png,sS,hH,mask-1.png,mask-4.png,s,1,0.33510660007596016,none,-5,0,0.04773669992573559,0.048434500000439584,0.09924849995877594,0.10020790004637092,0.29937159991823137
RSVPLG03,JM,20260305-094834,1.0.2,20251105-084826,786,Experiment,T1,1,Automatic,main,64,20260305-095343,global,local,300,S,S,A,E,S-A.png,E-S.png,sS,sS,mask-3.png,mask-3.png,s,1,0.3306577999610454,none,-5,0,0.04906910005956888,0.04805330000817776,0.10082010005135089,0.10233019990846515,0.30001730006188154
RSVPLG03,JM,20260305-094834,1.0.2,20251105-084826,786,Experiment,T1,1,Automatic,main,65,20260305-095347,global,global,750,H,H,E,E,H-E.png,H-E.png,hH,hH,mask-3.png,mask-3.png,h,1,0.3327326000435278,none,-5,0,0.046911300043575466,0.0476728999055922,0.10024950001388788,0.09991889994125813,0.7504182000411674
RSVPLG03,JM,20260305-094834,1.0.2,20251105-084826,786,Experiment,T1,1,Automatic,main,66,20260305-095352,local,local,750,S,S,A,A,A-S.png,A-S.png,sS,sS,mask-2.png,mask-4.png,s,1,0.6774316999362782,none,-5,0,0.04739099997095764,0.04865480004809797,0.0986082999734208,0.10099260008428246,0.748740499955602
RSVPLG03,JM,20260305-094834,1.0.2,20251105-084826,786,Experiment,T1,1,Automatic,main,67,20260305-095356,local,global,750,H,S,E,A,E-H.png,S-A.png,hH,sS,mask-3.png,mask-4.png,s,0,0.3550184000050649,none,-5,0,0.0475643000099808,0.048678899998776615,0.09940840001218021,0.10105199995450675,0.7503002999583259
RSVPLG03,JM,20260305-094834,1.0.2,20251105-084826,786,Experiment,T1,1,Automatic,main,68,20260305-095401,global,global,750,S,S,A,A,S-A.png,S-A.png,sS,sS,mask-1.png,mask-2.png,s,1,0.4226499000797048,none,-5,0,0.04721910005901009,0.04725840000901371,0.10022500006016344,0.10092930006794631,0.7494334999937564
RSVPLG03,JM,20260305-094834,1.0.2,20251105-084826,786,Experiment,T1,1,Automatic,main,69,20260305-095405,global,global,750,H,H,E,A,H-E.png,H-A.png,hH,hH,mask-1.png,mask-2.png,h,1,0.2911912000272423,none,-5,0,0.04753720003645867,0.04959370009601116,0.09951030008960515,0.10181760007981211,0.7484860999975353
RSVPLG03,JM,20260305-094834,1.0.2,20251105-084826,786,Experiment,T1,1,Automatic,main,70,20260305-095410,global,global,750,H,S,A,E,H-A.png,S-E.png,hH,sS,mask-1.png,mask-2.png,s,0,0.31924320000689477,none,-5,0,0.04767799994442612,0.04642950010020286,0.10087570000905544,0.09920090006198734,0.7512582999188453
RSVPLG03,JM,20260305-094834,1.0.2,20251105-084826,786,Experiment,T1,1,Automatic,main,71,20260305-095414,global,local,750,H,H,E,E,H-E.png,E-H.png,hH,hH,mask-1.png,mask-1.png,s,0,0.7292537000030279,none,-5,0,0.04723629995714873,0.04771620000246912,0.1005379999987781,0.09987140004523098,0.7501516999909654
RSVPLG03,JM,20260305-094834,1.0.2,20251105-084826,786,Experiment,T1,1,Automatic,main,72,20260305-095419,local,global,750,H,S,E,A,E-H.png,S-A.png,hH,sS,mask-2.png,mask-3.png,s,0,0.6288327999645844,none,-5,0,0.04867019993253052,0.04805260000284761,0.10071089991834015,0.09964770008809865,0.7503833998925984
RSVPLG03,JM,20260305-094834,1.0.2,20251105-084826,786,Experiment,T1,1,Automatic,main,73,20260305-095423,local,local,300,H,H,E,E,E-H.png,E-H.png,hH,hH,mask-3.png,mask-1.png,h,1,0.8737239999463782,none,-5,0,0.04491649998817593,0.0476069999858737,0.09972110006492585,0.09850170009303838,0.29990109999198467
RSVPLG03,JM,20260305-094834,1.0.2,20251105-084826,786,Experiment,T1,1,Automatic,main,74,20260305-095428,local,local,750,S,S,E,A,E-S.png,A-S.png,sS,sS,mask-3.png,mask-3.png,s,1,0.4022423999849707,none,-5,0,0.04751619999296963,0.04864509997423738,0.09882409998681396,0.10065170004963875,0.7491710999747738
RSVPLG03,JM,20260305-094834,1.0.2,20251105-084826,786,Experiment,T1,1,Automatic,main,75,20260305-095432,global,local,750,H,S,E,E,H-E.png,E-S.png,hH,sS,mask-3.png,mask-1.png,h,1,0.3578440999845043,none,-5,0,0.04813100001774728,0.046942299930378795,0.10123479994945228,0.10056489997077733,0.7506719999946654
RSVPLG03,JM,20260305-094834,1.0.2,20251105-084826,786,Experiment,T1,1,Automatic,main,76,20260305-095438,global,global,300,H,H,E,A,H-E.png,H-A.png,hH,hH,mask-4.png,mask-4.png,h,1,0.3507097000256181,none,-5,0,0.048696500016376376,0.04631170001812279,0.100943100056611,0.10063820006325841,0.3010037000058219
RSVPLG03,JM,20260305-094834,1.0.2,20251105-084826,786,Experiment,T1,1,Automatic,main,77,20260305-095442,local,local,750,H,H,A,E,A-H.png,E-H.png,hH,hH,mask-3.png,mask-2.png,s,0,0.47678330005146563,none,-5,0,0.047055000090040267,0.047625400009565055,0.10014360002242029,0.09997860004659742,0.7507955000037327
RSVPLG03,JM,20260305-094834,1.0.2,20251105-084826,786,Experiment,T1,1,Automatic,main,78,20260305-095446,global,local,300,S,H,A,E,S-A.png,E-H.png,sS,hH,mask-2.png,mask-2.png,s,1,0.6870647999458015,none,-5,0,0.04755110002588481,0.0479108999716118,0.09975479997228831,0.09908299997914582,0.3001042000250891
RSVPLG03,JM,20260305-094834,1.0.2,20251105-084826,786,Experiment,T1,1,Automatic,main,79,20260305-095451,local,global,300,S,H,E,E,E-S.png,H-E.png,sS,hH,mask-1.png,mask-2.png,s,1,0.6514128000708297,none,-5,0,0.04859210003633052,0.04672490002121776,0.10082900000270456,0.1010610000230372,0.30025089997798204
RSVPLG03,JM,20260305-094834,1.0.2,20251105-084826,786,Experiment,T1,1,Automatic,main,80,20260305-095455,local,global,300,S,S,E,A,E-S.png,S-A.png,sS,sS,mask-1.png,mask-4.png,s,1,0.4028551001101732,none,-5,0,0.04562570003326982,0.04716090008150786,0.0983285999391228,0.10096050007268786,0.2988378999289125
RSVPLG03,JM,20260305-094834,1.0.2,20251105-084826,786,Experiment,T1,1,Automatic,main,81,20260305-095459,local,local,300,H,S,A,E,A-H.png,E-S.png,hH,sS,mask-1.png,mask-2.png,h,1,1.339188399957493,none,-5,0,0.04671669995877892,0.047943799989297986,0.09959390002768487,0.0993984000524506,0.29881720000412315
RSVPLG03,JM,20260305-094834,1.0.2,20251105-084826,786,Experiment,T1,1,Automatic,main,82,20260305-095504,local,global,300,H,H,A,E,A-H.png,H-E.png,hH,hH,mask-1.png,mask-2.png,h,1,0.3898654000367969,none,-5,0,0.046695100027136505,0.047440199996344745,0.09990589995868504,0.10030600009486079,0.29884259996470064
RSVPLG03,JM,20260305-094834,1.0.2,20251105-084826,786,Experiment,T1,1,Automatic,main,83,20260305-095508,global,global,300,H,S,E,E,H-E.png,S-E.png,hH,sS,mask-2.png,mask-4.png,h,1,0.28140800003893673,none,-5,0,0.04718180000782013,0.04769679997116327,0.10068470006808639,0.10003169998526573,0.30094630003441125
RSVPLG03,JM,20260305-094834,1.0.2,20251105-084826,786,Experiment,T1,1,Automatic,main,84,20260305-095511,local,local,300,H,H,A,E,A-H.png,E-H.png,hH,hH,mask-4.png,mask-3.png,s,0,1.0185840000631288,none,-5,0,0.047527599963359535,0.0465717000188306,0.09962649992667139,0.10009990003891289,0.30005329998675734
RSVPLG03,JM,20260305-094834,1.0.2,20251105-084826,786,Experiment,T1,1,Automatic,main,85,20260305-095516,global,global,300,H,H,A,A,H-A.png,H-A.png,hH,hH,mask-1.png,mask-2.png,h,1,0.189021100057289,none,-5,0,0.04830080003011972,0.046438299934379756,0.09886549995280802,0.10018789989408106,0.299693200038746
RSVPLG03,JM,20260305-094834,1.0.2,20251105-084826,786,Experiment,T1,1,Automatic,main,86,20260305-095520,local,global,300,S,S,A,E,A-S.png,S-E.png,sS,sS,mask-3.png,mask-4.png,h,0,0.5476641999557614,none,-5,0,0.04803619999438524,0.04783219995442778,0.10021069995127618,0.10026059998199344,0.30015799996908754
RSVPLG03,JM,20260305-094834,1.0.2,20251105-084826,786,Experiment,T1,1,Automatic,main,87,20260305-095524,local,global,300,H,S,E,E,E-H.png,S-E.png,hH,sS,mask-3.png,mask-4.png,h,1,0.5986837999662384,none,-5,0,0.04837169998791069,0.047953200060874224,0.10002359992358834,0.09919500001706183,0.2999332998879254
RSVPLG03,JM,20260305-094834,1.0.2,20251105-084826,786,Experiment,T1,1,Automatic,main,88,20260305-095528,local,local,750,S,H,E,A,E-S.png,A-H.png,sS,hH,mask-4.png,mask-1.png,s,1,0.6637141000246629,none,-5,0,0.046139399986714125,0.047758499975316226,0.09824750002007931,0.10185790003743023,0.7490640999749303
RSVPLG03,JM,20260305-094834,1.0.2,20251105-084826,786,Experiment,T1,1,Automatic,main,89,20260305-095533,local,global,300,H,S,E,E,E-H.png,S-E.png,hH,sS,mask-3.png,mask-4.png,h,1,0.45726599998306483,none,-5,0,0.047588499961420894,0.0479918000055477,0.10083969996776432,0.1012701999861747,0.3001601999858394
RSVPLG03,JM,20260305-094834,1.0.2,20251105-084826,786,Experiment,T1,1,Automatic,main,90,20260305-095537,local,global,300,H,S,E,E,E-H.png,S-E.png,hH,sS,mask-4.png,mask-1.png,h,1,0.3083478999324143,none,-5,0,0.04567000002134591,0.04691560007631779,0.099880599998869,0.10002730006817728,0.2994677999522537
RSVPLG03,JM,20260305-094834,1.0.2,20251105-084826,786,Experiment,T1,1,Automatic,main,91,20260305-095541,global,local,300,H,S,A,A,H-A.png,A-S.png,hH,sS,mask-1.png,mask-3.png,h,1,0.3445714999688789,none,-5,0,0.047566000022925436,0.047570399940013885,0.09961609996389598,0.09863889997359365,0.30100059998221695
RSVPLG03,JM,20260305-094834,1.0.2,20251105-084826,786,Experiment,T1,1,Automatic,main,92,20260305-095545,global,local,750,H,S,A,A,H-A.png,A-S.png,hH,sS,mask-3.png,mask-3.png,s,0,0.7737202999414876,none,-5,0,0.047960500000044703,0.047970800078473985,0.1000592999625951,0.09957900003064424,0.7502838999498636
RSVPLG03,JM,20260305-094834,1.0.2,20251105-084826,786,Experiment,T1,1,Automatic,main,93,20260305-095549,local,global,300,S,S,A,E,A-S.png,S-E.png,sS,sS,mask-2.png,mask-4.png,s,1,0.6219165000366047,none,-5,0,0.04745549999643117,0.04656849999446422,0.10015710000880063,0.10042969998903573,0.3004268000368029
RSVPLG03,JM,20260305-094834,1.0.2,20251105-084826,786,Experiment,T1,1,Automatic,main,94,20260305-095554,local,global,750,H,S,A,A,A-H.png,S-A.png,hH,sS,mask-2.png,mask-1.png,h,1,0.3183320000534877,none,-5,0,0.04935970006044954,0.046287199947983027,0.10033020004630089,0.09943950001616031,0.751868800027296
RSVPLG03,JM,20260305-094834,1.0.2,20251105-084826,786,Experiment,T1,1,Automatic,main,95,20260305-095558,local,local,300,S,H,E,E,E-S.png,E-H.png,sS,hH,mask-1.png,mask-3.png,s,1,0.2732541000004858,none,-5,0,0.04769320006016642,0.047519999905489385,0.0998757000779733,0.10056509997230023,0.29977500007953495
RSVPLG03,JM,20260305-094834,1.0.2,20251105-084826,786,Experiment,T1,1,Automatic,main,96,20260305-095602,local,local,750,H,S,A,E,A-H.png,E-S.png,hH,sS,mask-4.png,mask-4.png,h,1,0.5323920999653637,none,-5,0,0.04709690005984157,0.04810140002518892,0.09818950004409999,0.1007182999746874,0.7494082000339404
RSVPLG03,JM,20260305-094834,1.0.2,20251105-084826,786,Experiment,T1,1,Automatic,main,97,20260305-095606,global,global,300,S,H,A,E,S-A.png,H-E.png,sS,hH,mask-3.png,mask-4.png,h,0,0.6994411000050604,none,-5,0,0.047715900000184774,0.0491833999985829,0.09939460002351552,0.10161399992648512,0.299549899995327
RSVPLG03,JM,20260305-094834,1.0.2,20251105-084826,786,Experiment,T1,1,Automatic,main,98,20260305-095611,local,global,750,H,S,A,E,A-H.png,S-E.png,hH,sS,mask-4.png,mask-1.png,h,1,0.6212187999626622,none,-5,0,0.048947200062684715,0.04733700002543628,0.10115030000451952,0.10046069999225438,0.7511300999904051
RSVPLG03,JM,20260305-094834,1.0.2,20251105-084826,786,Experiment,T1,1,Automatic,main,99,20260305-095615,local,local,300,S,H,A,E,A-S.png,E-H.png,sS,hH,mask-1.png,mask-4.png,s,1,1.0794646000722423,none,-5,0,0.0477860999526456,0.04863500001374632,0.10097879997920245,0.10067319998051971,0.30010779993608594
RSVPLG03,JM,20260305-094834,1.0.2,20251105-084826,786,Experiment,T1,1,Automatic,main,100,20260305-095620,local,global,750,S,H,A,A,A-S.png,H-A.png,sS,hH,mask-4.png,mask-2.png,s,1,0.4455110999988392,none,-5,0,0.047563100000843406,0.04770939995069057,0.09975249995477498,0.09989720000885427,0.7497201999649405
RSVPLG03,JM,20260305-095645,1.0.2,20251105-084826,786,Experiment,Both,1,Automatic,warmup,1,20260305-095711,local,local,300,S,S,A,E,A-S.png,E-S.png,sS,sS,mask-3.png,mask-1.png,h,0,1.5385384999681264,s,1,1.0009953000117093,0.0493317999644205,0.04759660002309829,0.1022739999461919,0.10151010006666183,0.3004737999290228
RSVPLG03,JM,20260305-095645,1.0.2,20251105-084826,786,Experiment,Both,1,Automatic,warmup,2,20260305-095718,global,global,750,S,S,E,A,S-E.png,S-A.png,sS,sS,mask-3.png,mask-3.png,h,0,0.892152399988845,s,1,0.40810170001350343,0.048779599950648844,0.04572450008708984,0.10040480003226548,0.1000791999977082,0.751520499936305
RSVPLG03,JM,20260305-095645,1.0.2,20251105-084826,786,Experiment,Both,1,Automatic,warmup,3,20260305-095723,global,global,300,H,H,E,A,H-E.png,H-A.png,hH,hH,mask-4.png,mask-2.png,h,1,1.0065508000552654,s,0,0.21828669996466488,0.04765249998308718,0.04599639994557947,0.10170130000915378,0.09821730002295226,0.3016442999942228
RSVPLG03,JM,20260305-095645,1.0.2,20251105-084826,786,Experiment,Both,1,Automatic,warmup,4,20260305-095728,global,local,750,S,H,E,A,S-E.png,A-H.png,sS,hH,mask-4.png,mask-2.png,s,1,1.9998478000052273,h,1,0.04377079999540001,0.04815430007874966,0.04759770003147423,0.10025650006718934,0.09907120000571012,0.7496705000521615
RSVPLG03,JM,20260305-095645,1.0.2,20251105-084826,786,Experiment,Both,1,Automatic,main,5,20260305-095734,global,global,300,H,H,A,A,H-A.png,H-A.png,hH,hH,mask-4.png,mask-2.png,h,1,0.9194394999649376,s,0,0.1500438000075519,0.04702479997649789,0.04778150003403425,0.09933530003763735,0.09987869998440146,0.29814560001250356
RSVPLG03,JM,20260305-095645,1.0.2,20251105-084826,786,Experiment,Both,1,Automatic,main,6,20260305-095739,local,global,300,S,H,E,E,E-S.png,H-E.png,sS,hH,mask-1.png,mask-1.png,s,1,0.4991440000012517,h,1,1.136562299914658,0.048581400071270764,0.04742289998102933,0.100453200051561,0.10041770001407713,0.30034090008120984
RSVPLG03,JM,20260305-095645,1.0.2,20251105-084826,786,Experiment,Both,1,Automatic,main,7,20260305-095744,local,local,750,H,H,E,E,E-H.png,E-H.png,hH,hH,mask-1.png,mask-2.png,h,1,0.4060578999342397,h,1,0.10876940004527569,0.04768530000001192,0.04865879996214062,0.0988367999671027,0.10189159994479269,0.7484591000247747
RSVPLG03,JM,20260305-095645,1.0.2,20251105-084826,786,Experiment,Both,1,Automatic,main,8,20260305-095749,local,global,300,H,S,A,A,A-H.png,S-A.png,hH,sS,mask-2.png,mask-1.png,h,1,2.4315432999283075,s,1,0.038114900002256036,0.04773310001473874,0.04767649993300438,0.10002610005903989,0.09986389998812228,0.2996076000854373
RSVPLG03,JM,20260305-095645,1.0.2,20251105-084826,786,Experiment,Both,1,Automatic,main,9,20260305-095755,local,global,750,S,S,E,E,E-S.png,S-E.png,sS,sS,mask-1.png,mask-4.png,s,1,1.0151349001098424,s,1,1.1511739999987185,0.04778900009114295,0.04755609994754195,0.09972559998277575,0.09938899998087436,0.7508627000497654
RSVPLG03,JM,20260305-095645,1.0.2,20251105-084826,786,Experiment,Both,1,Automatic,main,10,20260305-095802,local,local,750,H,H,E,A,E-H.png,A-H.png,hH,hH,mask-1.png,mask-3.png,h,1,1.044054300058633,h,1,0.4043956999666989,0.04667609999887645,0.04768540000077337,0.1001216999720782,0.10038390010595322,0.7484575998969376
RSVPLG03,JM,20260305-095645,1.0.2,20251105-084826,786,Experiment,Both,1,Automatic,main,11,20260305-095807,global,global,750,S,S,A,E,S-A.png,S-E.png,sS,sS,mask-3.png,mask-2.png,s,1,0.6797767999814823,s,1,0.09580310003366321,0.04745249997358769,0.04651790007483214,0.09960179997142404,0.09910490002948791,0.7500186999095604
RSVPLG03,JM,20260305-095645,1.0.2,20251105-084826,786,Experiment,Both,1,Automatic,main,12,20260305-095812,global,global,300,H,H,E,A,H-E.png,H-A.png,hH,hH,mask-4.png,mask-4.png,h,1,0.766215999959968,s,0,1.0956943000201136,0.04568870004732162,0.0467306999489665,0.09918949997518212,0.10096339997835457,0.29890070005785674
RSVPLG03,JM,20260305-095645,1.0.2,20251105-084826,786,Experiment,Both,1,Automatic,main,13,20260305-095818,local,global,300,H,S,E,A,E-H.png,S-A.png,hH,sS,mask-2.png,mask-3.png,h,1,1.3719117000000551,s,1,0.0320515000494197,0.047686000005342066,0.047690399922430515,0.10175799997523427,0.10085069993510842,0.30008379998616874
RSVPLG03,JM,20260305-095645,1.0.2,20251105-084826,786,Experiment,Both,1,Automatic,main,14,20260305-095823,global,local,300,S,H,A,A,S-A.png,A-H.png,sS,hH,mask-1.png,mask-1.png,s,1,0.6815781999612227,h,1,0.7874224999686703,0.046536499983631074,0.04606299998704344,0.09972539998125285,0.09860329993534833,0.3007232000818476
RSVPLG03,JM,20260305-095645,1.0.2,20251105-084826,786,Experiment,Both,1,Automatic,main,15,20260305-095828,local,global,300,S,S,E,E,E-S.png,S-E.png,sS,sS,mask-2.png,mask-4.png,s,1,0.580803900025785,h,0,0.08470969996415079,0.04767950007226318,0.047821099986322224,0.09886670007836074,0.10099189996253699,0.2989030000753701
RSVPLG03,JM,20260305-095645,1.0.2,20251105-084826,786,Experiment,Both,1,Automatic,main,16,20260305-095833,global,local,300,H,S,A,E,H-A.png,E-S.png,hH,sS,mask-3.png,mask-3.png,h,1,1.1377148000756279,s,1,2.0125955000985414,0.04806810000445694,0.04649410001002252,0.09998109994921833,0.09941900009289384,0.30021369992755353
RSVPLG03,JM,20260305-095645,1.0.2,20251105-084826,786,Experiment,Both,1,Automatic,main,17,20260305-095839,global,global,750,H,S,E,A,H-E.png,S-A.png,hH,sS,mask-3.png,mask-3.png,h,1,1.1697523000184447,h,0,0.09015000006183982,0.048508900101296604,0.04643180000130087,0.10051400004886091,0.09871649998240173,0.7502810000441968
RSVPLG03,JM,20260305-095645,1.0.2,20251105-084826,786,Experiment,Both,1,Automatic,main,18,20260305-095845,local,local,300,H,H,A,E,A-H.png,E-H.png,hH,hH,mask-2.png,mask-3.png,h,1,0.7672558000776917,s,0,0.13345720001962036,0.04769419995136559,0.046734300092794,0.09972880000714213,0.09994900005403906,0.2996195999439806
RSVPLG03,JM,20260305-095645,1.0.2,20251105-084826,786,Experiment,Both,1,Automatic,main,19,20260305-095849,local,global,300,H,S,E,A,E-H.png,S-A.png,hH,sS,mask-4.png,mask-1.png,h,1,1.476798800053075,s,1,0.035128199961036444,0.04750069999136031,0.047512899967841804,0.09965570003259927,0.09850989992264658,0.29985860001761466
RSVPLG03,JM,20260305-095645,1.0.2,20251105-084826,786,Experiment,Both,1,Automatic,main,20,20260305-095855,local,local,750,S,S,E,E,E-S.png,E-S.png,sS,sS,mask-3.png,mask-1.png,s,1,1.0550191999645904,s,1,0.331864699954167,0.0476653000805527,0.046630999888293445,0.09905830002389848,0.09976039989851415,0.7502097000833601
RSVPLG03,JM,20260305-095645,1.0.2,20251105-084826,786,Experiment,Both,1,Automatic,main,21,20260305-095900,local,local,300,S,S,E,E,E-S.png,E-S.png,sS,sS,mask-3.png,mask-4.png,s,1,0.5424575000070035,s,1,0.13150950009003282,0.04664300009608269,0.0476458000484854,0.09884660004172474,0.09981230006087571,0.29958560003433377
RSVPLG03,JM,20260305-095645,1.0.2,20251105-084826,786,Experiment,Both,1,Automatic,main,22,20260305-095905,local,global,750,S,H,A,E,A-S.png,H-E.png,sS,hH,mask-1.png,mask-3.png,s,1,1.2669528999831527,s,0,3.1958023000042886,0.04840779991354793,0.047535000019706786,0.10142839991021901,0.10049139999318868,0.7496557999402285
RSVPLG03,JM,20260305-095645,1.0.2,20251105-084826,786,Experiment,Both,1,Automatic,main,23,20260305-095913,global,global,750,H,H,A,E,H-A.png,H-E.png,hH,hH,mask-4.png,mask-3.png,h,1,1.2523138000397012,h,1,0.31060249998699874,0.04686820006463677,0.047615200048312545,0.10140410007443279,0.09923849999904633,0.7497238999931142
RSVPLG03,JM,20260305-095645,1.0.2,20251105-084826,786,Experiment,Both,1,Automatic,main,24,20260305-095919,local,local,750,S,S,E,A,E-S.png,A-S.png,sS,sS,mask-4.png,mask-4.png,s,1,0.9300235999980941,s,1,0.14325850002933294,0.04671020002570003,0.04774469998665154,0.09928369999397546,0.09994550002738833,0.7493310000281781
RSVPLG03,JM,20260305-095645,1.0.2,20251105-084826,786,Experiment,Both,1,Automatic,main,25,20260305-095924,global,global,300,S,S,A,A,S-A.png,S-A.png,sS,sS,mask-4.png,mask-3.png,s,1,1.1603928999975324,s,1,0.4052063999697566,0.046331899939104915,0.048011799925006926,0.09946569998282939,0.10223709989804775,0.29735140001866966
RSVPLG03,JM,20260305-095645,1.0.2,20251105-084826,786,Experiment,Both,1,Automatic,main,26,20260305-095931,global,global,300,S,S,E,A,S-E.png,S-A.png,sS,sS,mask-3.png,mask-3.png,s,1,1.0996157000772655,h,0,1.0010496000759304,0.04783529997803271,0.048681700020097196,0.1000560000538826,0.10092930006794631,0.2986635999986902
RSVPLG03,JM,20260305-095645,1.0.2,20251105-084826,786,Experiment,Both,1,Automatic,main,27,20260305-095937,local,global,300,H,H,E,E,E-H.png,H-E.png,hH,hH,mask-2.png,mask-1.png,s,0,0.6347725999075919,h,1,0.3818017999874428,0.04765739990398288,0.047659700037911534,0.09972309996373951,0.09982779994606972,0.3004465999547392
RSVPLG03,JM,20260305-095645,1.0.2,20251105-084826,786,Experiment,Both,1,Automatic,main,28,20260305-095942,local,local,300,H,S,A,E,A-H.png,E-S.png,hH,sS,mask-1.png,mask-1.png,h,1,2.102278899983503,s,1,0.48609449993819,0.04651390004437417,0.047660899930633605,0.09893590002320707,0.09920939989387989,0.29957280005328357
RSVPLG03,JM,20260305-095645,1.0.2,20251105-084826,786,Experiment,Both,1,Automatic,main,29,20260305-095948,local,local,750,S,H,A,A,A-S.png,A-H.png,sS,hH,mask-1.png,mask-4.png,s,1,0.941377199953422,h,1,0.021971700014546514,0.048696800018660724,0.04754629998933524,0.10017360001802444,0.09992810001131147,0.7490961999865249
RSVPLG03,JM,20260305-095645,1.0.2,20251105-084826,786,Experiment,Both,1,Automatic,main,30,20260305-095954,global,local,750,H,H,E,E,H-E.png,E-H.png,hH,hH,mask-1.png,mask-4.png,h,1,0.8196620000526309,h,1,0.20285530004184693,0.04760890000034124,0.04856229992583394,0.0995888999896124,0.10075109999161214,0.7493911000201479
RSVPLG03,JM,20260305-095645,1.0.2,20251105-084826,786,Experiment,Both,1,Automatic,main,31,20260305-095959,global,global,750,H,S,E,A,H-E.png,S-A.png,hH,sS,mask-4.png,mask-1.png,h,1,0.5509021000470966,h,0,1.527367900009267,0.04750340001191944,0.047280099941417575,0.10151100007351488,0.0996817999985069,0.7496885000728071
RSVPLG03,JM,20260305-095645,1.0.2,20251105-084826,786,Experiment,Both,1,Automatic,main,32,20260305-100005,global,global,750,H,H,A,A,H-A.png,H-A.png,hH,hH,mask-3.png,mask-4.png,h,1,1.9366832999512553,s,0,0.17956509999930859,0.046610599965788424,0.04694320005364716,0.10047429997939616,0.09841089998371899,0.7504244999727234
RSVPLG03,JM,20260305-095645,1.0.2,20251105-084826,786,Experiment,Both,1,Automatic,main,33,20260305-100012,global,global,300,H,H,A,E,H-A.png,H-E.png,hH,hH,mask-3.png,mask-1.png,h,1,0.48781349998898804,h,1,0.6911320999497548,0.048566299956291914,0.048492099973373115,0.09965200000442564,0.10172220005188137,0.29990089999046177
RSVPLG03,JM,20260305-095645,1.0.2,20251105-084826,786,Experiment,Both,1,Automatic,main,34,20260305-100016,local,local,300,H,H,E,E,E-H.png,E-H.png,hH,hH,mask-4.png,mask-3.png,h,1,0.704931000014767,h,1,0.10064960003364831,0.04776349989697337,0.04675300000235438,0.0999852999811992,0.0989536999259144,0.3007129000034183
RSVPLG03,JM,20260305-095645,1.0.2,20251105-084826,786,Experiment,Both,1,Automatic,main,35,20260305-100021,global,local,300,S,S,E,E,S-E.png,E-S.png,sS,sS,mask-2.png,mask-3.png,s,1,0.3841837999643758,s,1,0.28380570001900196,0.0486737999599427,0.047677199938334525,0.10085139994043857,0.09965859993826598,0.3005147000076249
RSVPLG03,JM,20260305-095645,1.0.2,20251105-084826,786,Experiment,Both,1,Automatic,main,36,20260305-100025,global,local,750,S,S,A,E,S-A.png,E-S.png,sS,sS,mask-3.png,mask-2.png,s,1,0.29192270000930876,s,1,0.1390971998916939,0.047659500036388636,0.0483267999952659,0.10194890003185719,0.0992784999543801,0.7503557000309229
RSVPLG03,JM,20260305-095645,1.0.2,20251105-084826,786,Experiment,Both,1,Automatic,main,37,20260305-100030,local,local,750,H,H,A,A,A-H.png,A-H.png,hH,hH,mask-1.png,mask-3.png,h,1,0.6478373999707401,h,1,0.49352759995963424,0.04761749994941056,0.04752389993518591,0.10068000003229827,0.10089819994755089,0.7500658000353724
RSVPLG03,JM,20260305-095645,1.0.2,20251105-084826,786,Experiment,Both,1,Automatic,main,38,20260305-100036,global,local,300,H,H,E,E,H-E.png,E-H.png,hH,hH,mask-4.png,mask-3.png,h,1,0.4337942000711337,h,1,0.2611312000080943,0.047664700075984,0.04764130001422018,0.09964969998691231,0.09968980005942285,0.29959820001386106
RSVPLG03,JM,20260305-095645,1.0.2,20251105-084826,786,Experiment,Both,1,Automatic,main,39,20260305-100040,local,global,750,H,S,A,E,A-H.png,S-E.png,hH,sS,mask-1.png,mask-2.png,h,1,0.7326731000794098,s,1,0.006767699960619211,0.04771820001769811,0.047579700010828674,0.10075280000455678,0.09876029996667057,0.7499007000587881
RSVPLG03,JM,20260305-095645,1.0.2,20251105-084826,786,Experiment,Both,1,Automatic,main,40,20260305-100045,global,local,300,S,H,A,E,S-A.png,E-H.png,sS,hH,mask-4.png,mask-3.png,s,1,1.5192802000092342,h,1,0.05885949998628348,0.04774629999883473,0.04748830001335591,0.09897309995722026,0.09945149999111891,0.29965589998755604
RSVPLG03,JM,20260305-095645,1.0.2,20251105-084826,786,Experiment,Both,1,Automatic,main,41,20260305-100050,global,local,300,H,H,E,E,H-E.png,E-H.png,hH,hH,mask-2.png,mask-2.png,h,1,0.5467178999679163,h,1,0.1105964999878779,0.047589799971319735,0.04754330008290708,0.10066450003068894,0.10059659997932613,0.2999873999506235
RSVPLG03,JM,20260305-095645,1.0.2,20251105-084826,786,Experiment,Both,1,Automatic,main,42,20260305-100055,local,global,750,S,H,A,E,A-S.png,H-E.png,sS,hH,mask-4.png,mask-2.png,s,1,0.7382810999406502,h,1,0.1184791000559926,0.04756929993163794,0.046505399979650974,0.10041219997219741,0.0995763000100851,0.7506528999656439
RSVPLG03,JM,20260305-095645,1.0.2,20251105-084826,786,Experiment,Both,1,Automatic,main,43,20260305-100100,global,global,300,S,S,A,E,S-A.png,S-E.png,sS,sS,mask-4.png,mask-4.png,s,1,0.4115373999811709,h,0,0.0245782999554649,0.04756650002673268,0.047155700041912496,0.10022580006625503,0.10018069995567203,0.29940200003329664
RSVPLG03,JM,20260305-095645,1.0.2,20251105-084826,786,Experiment,Both,1,Automatic,main,44,20260305-100104,local,global,750,S,H,A,A,A-S.png,H-A.png,sS,hH,mask-3.png,mask-3.png,h,0,0.679933900013566,s,0,0.06978529994376004,0.04650259995833039,0.04868550004903227,0.10040150000713766,0.1008813000516966,0.7488776999525726
RSVPLG03,JM,20260305-095645,1.0.2,20251105-084826,786,Experiment,Both,1,Automatic,main,45,20260305-100109,global,local,750,H,S,E,A,H-E.png,A-S.png,hH,sS,mask-2.png,mask-4.png,h,1,0.6799048000248149,s,1,0.07469699997454882,0.04713000007905066,0.047689300030469894,0.10031590005382895,0.09939909994136542,0.750465500052087
RSVPLG03,JM,20260305-095645,1.0.2,20251105-084826,786,Experiment,Both,1,Automatic,main,46,20260305-100114,global,global,300,S,S,A,A,S-A.png,S-A.png,sS,sS,mask-1.png,mask-2.png,s,1,0.4986860000062734,s,1,0.47522180003579706,0.04710339999292046,0.04765869991388172,0.1003511999733746,0.09945609990973026,0.29999129998032004
RSVPLG03,JM,20260305-095645,1.0.2,20251105-084826,786,Experiment,Both,1,Automatic,main,47,20260305-100119,global,local,300,S,S,E,E,S-E.png,E-S.png,sS,sS,mask-4.png,mask-1.png,s,1,0.4808014000300318,s,1,0.10873589990660548,0.046857899986207485,0.04740399995353073,0.09988200000952929,0.1003093000035733,0.2993523000041023
RSVPLG03,JM,20260305-095645,1.0.2,20251105-084826,786,Experiment,Both,1,Automatic,main,48,20260305-100123,local,local,300,S,H,E,A,E-S.png,A-H.png,sS,hH,mask-4.png,mask-3.png,s,1,0.3767712999833748,s,0,0.07415290002245456,0.04856000002473593,0.046692000003531575,0.1001172000542283,0.09997440001461655,0.300355099956505
RSVPLG03,JM,20260305-095645,1.0.2,20251105-084826,786,Experiment,Both,1,Automatic,main,49,20260305-100127,global,global,750,S,H,E,A,S-E.png,H-A.png,sS,hH,mask-2.png,mask-2.png,s,1,1.0149617000715807,s,0,1.491981399944052,0.0482336999848485,0.047689099912531674,0.10050539998337626,0.10036219994071871,0.7501575000351295
RSVPLG03,JM,20260305-095645,1.0.2,20251105-084826,786,Experiment,Both,1,Automatic,main,50,20260305-100134,global,global,300,S,H,A,E,S-A.png,H-E.png,sS,hH,mask-2.png,mask-2.png,h,0,0.442342400085181,h,1,0.26815629994962364,0.04751299996860325,0.047558599966578186,0.10051049990579486,0.10140269994735718,0.29902499995660037
RSVPLG03,JM,20260305-095645,1.0.2,20251105-084826,786,Experiment,Both,1,Automatic,main,51,20260305-100140,local,local,750,S,S,E,E,E-S.png,E-S.png,sS,sS,mask-1.png,mask-3.png,s,1,0.5944630999583751,h,0,0.32493630005046725,0.04666459991130978,0.046684699947945774,0.09990829997695982,0.09989289997611195,0.7500139999901876
RSVPLG03,JM,20260305-095645,1.0.2,20251105-084826,786,Experiment,Both,1,Automatic,main,52,20260305-100145,local,local,300,H,S,E,E,E-H.png,E-S.png,hH,sS,mask-2.png,mask-4.png,h,1,1.0418363999342546,h,0,0.6311432999791577,0.04681719990912825,0.04715410002972931,0.10007219994440675,0.10014170000795275,0.2997102999361232
RSVPLG03,JM,20260305-095645,1.0.2,20251105-084826,786,Experiment,Both,1,Automatic,main,53,20260305-100150,global,global,300,H,H,A,E,H-A.png,H-E.png,hH,hH,mask-3.png,mask-1.png,h,1,0.8291051998967305,s,0,0.0074112999718636274,0.04731359996367246,0.048831499996595085,0.10004329995717853,0.10007389995735139,0.29855700000189245
RSVPLG03,JM,20260305-095645,1.0.2,20251105-084826,786,Experiment,Both,1,Automatic,main,54,20260305-100155,local,global,750,S,S,A,E,A-S.png,S-E.png,sS,sS,mask-4.png,mask-4.png,s,1,0.492171399993822,s,1,1.5422077999683097,0.04764700005762279,0.04885619995184243,0.10067950002849102,0.10099999990779907,0.7489238000707701
RSVPLG03,JM,20260305-095645,1.0.2,20251105-084826,786,Experiment,Both,1,Automatic,main,55,20260305-100201,local,local,750,H,S,A,A,A-H.png,A-S.png,hH,sS,mask-3.png,mask-3.png,h,1,0.5025214999914169,s,1,0.04189970006700605,0.047521900036372244,0.047343999962322414,0.10152560006827116,0.09906589996535331,0.7498697000555694
RSVPLG03,JM,20260305-095645,1.0.2,20251105-084826,786,Experiment,Both,1,Automatic,main,56,20260305-100206,global,local,750,H,H,E,E,H-E.png,E-H.png,hH,hH,mask-3.png,mask-3.png,h,1,0.7619544999906793,h,1,0.33249129995238036,0.04758449993096292,0.04767410003114492,0.09977869992144406,0.09963820001576096,0.749967799987644
RSVPLG03,JM,20260305-095645,1.0.2,20251105-084826,786,Experiment,Both,1,Automatic,main,57,20260305-100211,global,local,750,S,H,E,E,S-E.png,E-H.png,sS,hH,mask-2.png,mask-4.png,s,1,0.42715559992939234,h,1,0.07586350000929087,0.04771389998495579,0.047675800044089556,0.0999466999201104,0.09992229996714741,0.7499179999576882
RSVPLG03,JM,20260305-095645,1.0.2,20251105-084826,786,Experiment,Both,1,Automatic,main,58,20260305-100216,local,global,300,H,S,E,A,E-H.png,S-A.png,hH,sS,mask-2.png,mask-3.png,h,1,0.44108550006058067,s,1,0.11028630007058382,0.047503799898549914,0.046616400009952486,0.10164049989543855,0.09867990005295724,0.30126929993275553
RSVPLG03,JM,20260305-095645,1.0.2,20251105-084826,786,Experiment,Both,1,Automatic,main,59,20260305-100220,local,local,750,H,S,E,A,E-H.png,A-S.png,hH,sS,mask-3.png,mask-3.png,h,1,0.4655804999638349,s,1,1.116666099987924,0.04768109996803105,0.04849860002286732,0.09910180000588298,0.10032239998690784,0.7492054000031203
RSVPLG03,JM,20260305-095645,1.0.2,20251105-084826,786,Experiment,Both,1,Automatic,main,60,20260305-100226,global,local,750,S,H,E,E,S-E.png,E-H.png,sS,hH,mask-3.png,mask-3.png,s,1,1.375407800078392,s,0,0.10276689997408539,0.046908500022254884,0.047695100074633956,0.09997009998187423,0.10166110005229712,0.7486500999657437
RSVPLG03,JM,20260305-095645,1.0.2,20251105-084826,786,Experiment,Both,1,Automatic,main,61,20260305-100232,local,global,300,H,H,E,E,E-H.png,H-E.png,hH,hH,mask-2.png,mask-3.png,h,1,0.5304075999883935,s,0,0.02415610000025481,0.04761340003460646,0.0477120999712497,0.10046180000063032,0.09916420001536608,0.3000609000446275
RSVPLG03,JM,20260305-095645,1.0.2,20251105-084826,786,Experiment,Both,1,Automatic,main,62,20260305-100236,local,global,750,H,H,A,E,A-H.png,H-E.png,hH,hH,mask-3.png,mask-3.png,h,1,1.7778484999435022,s,0,0.7596242999425158,0.04771359998267144,0.047461000038310885,0.09991540003102273,0.1016562000149861,0.7482078999746591
RSVPLG03,JM,20260305-095645,1.0.2,20251105-084826,786,Experiment,Both,1,Automatic,main,63,20260305-100243,global,local,300,S,S,A,E,S-A.png,E-S.png,sS,sS,mask-1.png,mask-3.png,s,1,0.5338035000022501,s,1,0.06374959996901453,0.0477391000604257,0.04696269996929914,0.0989581000758335,0.10052089998498559,0.29877570003736764
RSVPLG03,JM,20260305-095645,1.0.2,20251105-084826,786,Experiment,Both,1,Automatic,main,64,20260305-100247,local,local,750,S,H,E,A,E-S.png,A-H.png,sS,hH,mask-2.png,mask-3.png,s,1,1.1046373000135645,h,1,2.407634300063364,0.04720669996459037,0.04748680000193417,0.09918510005809367,0.09870050009340048,0.7500713999615982
RSVPLG03,JM,20260305-095645,1.0.2,20251105-084826,786,Experiment,Both,1,Automatic,main,65,20260305-100255,local,local,300,H,H,A,A,A-H.png,A-H.png,hH,hH,mask-2.png,mask-4.png,h,1,0.6611071999650449,h,1,0.08827269996982068,0.04663909994997084,0.048517700051888824,0.09973140002693981,0.1018125000409782,0.29812399996444583
RSVPLG03,JM,20260305-095645,1.0.2,20251105-084826,786,Experiment,Both,1,Automatic,main,66,20260305-100259,global,local,750,H,H,E,E,H-E.png,E-H.png,hH,hH,mask-3.png,mask-4.png,h,1,0.3504526000469923,h,1,0.11436830007005483,0.049618400051258504,0.04574269999284297,0.10164879995863885,0.09930719994008541,0.7510771000524983
RSVPLG03,JM,20260305-095645,1.0.2,20251105-084826,786,Experiment,Both,1,Automatic,main,67,20260305-100304,global,local,750,S,S,A,E,S-A.png,E-S.png,sS,sS,mask-3.png,mask-3.png,s,1,0.3737685000523925,s,1,0.08832950005307794,0.04750739992596209,0.04733710002619773,0.1005081000039354,0.10034970007836819,0.7493619999149814
RSVPLG03,JM,20260305-095645,1.0.2,20251105-084826,786,Experiment,Both,1,Automatic,main,68,20260305-100308,global,global,750,H,S,A,E,H-A.png,S-E.png,hH,sS,mask-4.png,mask-3.png,h,1,1.1868054000660777,s,1,1.3152489999774843,0.04751960001885891,0.046892000013031065,0.10085779998917133,0.1009748000651598,0.7498807000229135
RSVPLG03,JM,20260305-095645,1.0.2,20251105-084826,786,Experiment,Both,1,Automatic,main,69,20260305-100314,local,global,750,S,S,A,A,A-S.png,S-A.png,sS,sS,mask-4.png,mask-1.png,h,0,4.702770699979737,s,1,4.830958299920894,0.04786070005502552,0.04589389998000115,0.10005979996640235,0.09883039991836995,0.7505133000668138
RSVPLG03,JM,20260305-095645,1.0.2,20251105-084826,786,Experiment,Both,1,Automatic,main,70,20260305-100323,global,global,750,H,H,A,E,H-A.png,H-E.png,hH,hH,mask-4.png,mask-1.png,h,1,0.736905499943532,s,0,0.055236499989405274,0.04766569996718317,0.04766040004324168,0.09987209993414581,0.09918970009312034,0.7499132999219
RSVPLG03,JM,20260305-095645,1.0.2,20251105-084826,786,Experiment,Both,1,Automatic,main,71,20260305-100328,global,global,750,H,H,A,A,H-A.png,H-A.png,hH,hH,mask-1.png,mask-1.png,h,1,0.6965293000685051,h,1,0.05044719995930791,0.04771179996896535,0.0470622000284493,0.10087999992538244,0.10048559994902462,0.7507780999876559
RSVPLG03,JM,20260305-095645,1.0.2,20251105-084826,786,Experiment,Both,1,Automatic,main,72,20260305-100333,global,local,750,S,H,E,E,S-E.png,E-H.png,sS,hH,mask-4.png,mask-4.png,s,1,0.7671904000453651,s,0,0.07210800005123019,0.04850349994376302,0.04579060000833124,0.09956829994916916,0.0998812000034377,0.7506176999304444
RSVPLG03,JM,20260305-095645,1.0.2,20251105-084826,786,Experiment,Both,1,Automatic,main,73,20260305-100338,local,local,300,S,S,E,A,E-S.png,A-S.png,sS,sS,mask-1.png,mask-1.png,s,1,1.0432789999758825,h,0,0.05457010003738105,0.046809400082565844,0.046997199999168515,0.09904130001086742,0.10028559993952513,0.2991187000880018
RSVPLG03,JM,20260305-095645,1.0.2,20251105-084826,786,Experiment,Both,1,Automatic,main,74,20260305-100342,local,local,300,H,H,E,A,E-H.png,A-H.png,hH,hH,mask-1.png,mask-4.png,h,1,1.9866585999261588,h,1,1.876859400072135,0.04656499996781349,0.04573559993878007,0.0993167000124231,0.09990189992822707,0.30078100005630404
RSVPLG03,JM,20260305-095645,1.0.2,20251105-084826,786,Experiment,Both,1,Automatic,main,75,20260305-100350,global,local,300,S,H,E,A,S-E.png,A-H.png,sS,hH,mask-1.png,mask-1.png,s,1,1.2091846999246627,h,1,0.31930149998515844,0.04873280005995184,0.04772719996981323,0.10000660002697259,0.09990849997848272,0.30145710008218884
RSVPLG03,JM,20260305-095645,1.0.2,20251105-084826,786,Experiment,Both,1,Automatic,main,76,20260305-100406,local,global,750,H,H,E,A,E-H.png,H-A.png,hH,hH,mask-3.png,mask-4.png,h,1,1.4665008999872953,s,0,0.028236099984496832,0.047812200034968555,0.047425500000827014,0.09902429999783635,0.10046639991924167,0.7489500000374392
RSVPLG03,JM,20260305-095645,1.0.2,20251105-084826,786,Experiment,Both,1,Automatic,main,77,20260305-100412,global,local,300,S,S,A,A,S-A.png,A-S.png,sS,sS,mask-3.png,mask-3.png,h,0,0.663706700084731,h,0,0.5717451999662444,0.04771110008005053,0.047435499960556626,0.10081420000642538,0.09947959997225553,0.30048830003943294
RSVPLG03,JM,20260305-095645,1.0.2,20251105-084826,786,Experiment,Both,1,Automatic,main,78,20260305-100417,local,local,750,H,S,A,A,A-H.png,A-S.png,hH,sS,mask-4.png,mask-3.png,h,1,0.4871567999944091,s,1,0.04718039999715984,0.048197600059211254,0.04764380003325641,0.10042380006052554,0.10010250005871058,0.75058180000633
RSVPLG03,JM,20260305-095645,1.0.2,20251105-084826,786,Experiment,Both,1,Automatic,main,79,20260305-100421,global,local,750,H,S,E,E,H-E.png,E-S.png,hH,sS,mask-1.png,mask-3.png,h,1,0.3483424000442028,s,1,0.05690269998740405,0.046360400039702654,0.04742800001986325,0.10007419995963573,0.10081680002622306,0.7489304000046104
RSVPLG03,JM,20260305-095645,1.0.2,20251105-084826,786,Experiment,Both,1,Automatic,main,80,20260305-100426,global,local,300,S,H,A,E,S-A.png,E-H.png,sS,hH,mask-3.png,mask-1.png,s,1,0.9384582999628037,h,1,1.0663884000387043,0.047362000099383295,0.047385199926793575,0.10001090005971491,0.09997909993398935,0.3000514000887051
RSVPLG03,JM,20260305-095645,1.0.2,20251105-084826,786,Experiment,Both,1,Automatic,main,81,20260305-100431,local,global,300,H,S,E,A,E-H.png,S-A.png,hH,sS,mask-2.png,mask-1.png,h,1,1.07059959997423,h,0,0.09675280004739761,0.04740550008136779,0.0459013000363484,0.09934499999508262,0.09948700002860278,0.2993883000453934
RSVPLG03,JM,20260305-095645,1.0.2,20251105-084826,786,Experiment,Both,1,Automatic,main,82,20260305-100435,local,global,300,H,S,A,A,A-H.png,S-A.png,hH,sS,mask-3.png,mask-2.png,h,1,0.7345517000649124,s,1,0.8627377999946475,0.04833239992149174,0.047246300033293664,0.09986459999345243,0.0995272999862209,0.3002511999802664
RSVPLG03,JM,20260305-095645,1.0.2,20251105-084826,786,Experiment,Both,1,Automatic,main,83,20260305-100440,local,local,300,S,H,A,A,A-S.png,A-H.png,sS,hH,mask-2.png,mask-3.png,s,1,0.6404896999010816,h,1,0.1121741000097245,0.04626739991363138,0.04719329997897148,0.09958709997590631,0.09982180001679808,0.30064949998632073
RSVPLG03,JM,20260305-095645,1.0.2,20251105-084826,786,Experiment,Both,1,Automatic,main,84,20260305-100444,local,global,750,S,S,E,E,E-S.png,S-E.png,sS,sS,mask-3.png,mask-1.png,s,1,0.6347929999465123,s,1,0.06372879992704839,0.047637399984523654,0.04801979998592287,0.10007569997105747,0.10054519993718714,0.7495157000375912
RSVPLG03,JM,20260305-095645,1.0.2,20251105-084826,786,Experiment,Both,1,Automatic,main,85,20260305-100449,local,global,750,S,H,E,A,E-S.png,H-A.png,sS,hH,mask-2.png,mask-4.png,s,1,0.4899929000530392,h,1,0.049951299908570945,0.04840680002234876,0.04629470000509173,0.10133139998652041,0.09881410002708435,0.7509371999185532
RSVPLG03,JM,20260305-095645,1.0.2,20251105-084826,786,Experiment,Both,1,Automatic,main,86,20260305-100454,global,global,300,S,S,A,E,S-A.png,S-E.png,sS,sS,mask-2.png,mask-2.png,s,1,0.8153938999166712,h,0,0.04567579994909465,0.04926799994427711,0.04717790009453893,0.1017336999066174,0.10053599998354912,0.30027129990048707
RSVPLG03,JM,20260305-095645,1.0.2,20251105-084826,786,Experiment,Both,1,Automatic,main,87,20260305-100458,global,global,300,S,S,E,E,S-E.png,S-E.png,sS,sS,mask-1.png,mask-2.png,s,1,0.8908452000468969,h,0,0.06481430004350841,0.04814129997976124,0.04631919995881617,0.10011440003290772,0.10065139993093908,0.30038360005710274
RSVPLG03,JM,20260305-095645,1.0.2,20251105-084826,786,Experiment,Both,1,Automatic,main,88,20260305-100503,local,global,750,S,S,E,E,E-S.png,S-E.png,sS,sS,mask-1.png,mask-4.png,s,1,0.7156858000671491,h,0,0.11221339995972812,0.0482448999537155,0.04735769995022565,0.10084460000507534,0.09986319998279214,0.7499489999609068
RSVPLG03,JM,20260305-095645,1.0.2,20251105-084826,786,Experiment,Both,1,Automatic,main,89,20260305-100508,global,local,750,H,H,E,E,H-E.png,E-H.png,hH,hH,mask-4.png,mask-1.png,h,1,0.6668912000022829,h,1,0.20328810007777065,0.047235699952580035,0.04814430000260472,0.09976389992516488,0.09988670004531741,0.7491349999327213
RSVPLG03,JM,20260305-095645,1.0.2,20251105-084826,786,Experiment,Both,1,Automatic,main,90,20260305-100513,global,local,750,H,S,E,E,H-E.png,E-S.png,hH,sS,mask-4.png,mask-1.png,h,1,0.953736099996604,h,0,0.26632130006328225,0.047490100027062,0.04719309997744858,0.09990949998609722,0.09931069996673614,0.7502327000256628
