exp,exp_initials,runtime,ver,modtime,sub,blocktype,targets,cuetype,mode,trialtype,trial,trialtime,t1_level,t2_level,t2_lag,t1,t2,distractor1,distractor2,stimfile1,stimfile2,t1_corr,t2_corr,maskfile1,maskfile2,t1_resp,t1_acc,t1_rt,t2_resp,t2_acc,t2_rt,t1_dur,t2_dur,t1mask_soa,t2mask_soa,t1t2_soa
RSVPLG03,md,20251118-111022,1.0.2,20251105-084826,745,Introduction,T1,1,Automatic,main,1,20251118-111516,global,global,750,S,S,A,E,S-A.png,S-E.png,sS,sS,mask-2.png,mask-3.png,s,1,1.876392999998643,none,-5,0,0.09011560000362806,0.09755720000248402,0.19289080000453396,0.20061659999919357,0.7423848000034923
RSVPLG03,md,20251118-111022,1.0.2,20251105-084826,745,Introduction,T1,1,Automatic,main,2,20251118-111522,global,local,750,H,H,A,A,H-A.png,A-H.png,hH,hH,mask-4.png,mask-2.png,h,1,0.42640680000477005,none,-5,0,0.09734369999932824,0.09753719999571331,0.20019170000159647,0.2003605999998399,0.7501101000016206
RSVPLG03,md,20251118-111022,1.0.2,20251105-084826,745,Introduction,T1,1,Automatic,main,3,20251118-111527,global,local,750,H,H,E,A,H-E.png,A-H.png,hH,hH,mask-2.png,mask-1.png,h,1,0.33788710000226274,none,-5,0,0.09794300000066869,0.0975109000064549,0.20103360000211978,0.200439300002472,0.7514273999986472
RSVPLG03,md,20251118-111022,1.0.2,20251105-084826,745,Introduction,T1,1,Automatic,main,4,20251118-111531,local,global,750,H,H,A,A,A-H.png,H-A.png,hH,hH,mask-2.png,mask-1.png,h,1,2.292056099999172,none,-5,0,0.09737779999704799,0.09767280000232859,0.19927199999801815,0.20061900000291644,0.749437599995872
RSVPLG03,md,20251118-111022,1.0.2,20251105-084826,745,Introduction,T1,1,Automatic,main,5,20251118-111538,local,local,750,S,H,A,E,A-S.png,E-H.png,sS,hH,mask-2.png,mask-3.png,s,1,1.4342797999997856,none,-5,0,0.09838390000368236,0.0963839000032749,0.1995366000046488,0.20025030000397237,0.7513116999980411
RSVPLG03,md,20251118-111022,1.0.2,20251105-084826,745,Introduction,T1,1,Automatic,main,6,20251118-111543,global,local,750,H,S,E,E,H-E.png,E-S.png,hH,sS,mask-3.png,mask-3.png,s,0,1.7939834999997402,none,-5,0,0.09642699999676552,0.09739229999831878,0.19934269999794196,0.20033069999772124,0.7495679999992717
RSVPLG03,md,20251118-111022,1.0.2,20251105-084826,745,Introduction,T1,1,Automatic,main,7,20251118-111549,local,global,750,S,H,A,A,A-S.png,H-A.png,sS,hH,mask-4.png,mask-1.png,h,0,1.7343905000016093,none,-5,0,0.09740659999806667,0.09742700000060722,0.19924929999979213,0.19935740000073565,0.750668400003633
RSVPLG03,md,20251118-111022,1.0.2,20251105-084826,745,Introduction,T1,1,Automatic,main,8,20251118-111555,global,global,750,S,H,A,A,S-A.png,H-A.png,sS,hH,mask-4.png,mask-4.png,s,1,0.9459578999958467,none,-5,0,0.09744460000365507,0.09756539999943925,0.20061140000325395,0.19970679999823915,0.750505100004375
RSVPLG03,md,20251118-111022,1.0.2,20251105-084826,745,Introduction,T1,1,Automatic,main,9,20251118-111600,global,local,750,S,H,E,E,S-E.png,E-H.png,sS,hH,mask-3.png,mask-4.png,s,1,2.0409717000002274,none,-5,0,0.09755529999529244,0.09647659999609459,0.19962410000152886,0.19959949999611126,0.7502511999991839
RSVPLG03,md,20251118-111022,1.0.2,20251105-084826,745,Introduction,T1,1,Automatic,main,10,20251118-111606,local,global,750,S,S,E,A,E-S.png,S-A.png,sS,sS,mask-2.png,mask-3.png,s,1,4.7571667000011075,none,-5,0,0.09764089999953285,0.09770600000047125,0.19968940000399016,0.20188100000086706,0.7497808000043733
RSVPLG03,md,20251118-111022,1.0.2,20251105-084826,745,Introduction,T1,1,Automatic,main,11,20251118-111615,local,local,750,S,H,E,E,E-S.png,E-H.png,sS,hH,mask-2.png,mask-1.png,s,1,0.8652072999975644,none,-5,0,0.09757620000164025,0.09755130000121426,0.19964030000119237,0.19961040000634966,0.7500600999992457
RSVPLG03,md,20251118-111022,1.0.2,20251105-084826,745,Introduction,T1,1,Automatic,main,12,20251118-111620,global,global,750,H,S,A,E,H-A.png,S-E.png,hH,sS,mask-1.png,mask-2.png,s,0,1.1781760999947437,none,-5,0,0.09755109999969136,0.09759510000003502,0.1995868000012706,0.19961789999797475,0.7499004999990575
RSVPLG03,md,20251118-111022,1.0.2,20251105-084826,745,Introduction,T1,1,Automatic,main,13,20251118-111625,global,global,750,S,H,A,A,S-A.png,H-A.png,sS,hH,mask-3.png,mask-1.png,s,1,1.5105373000042164,none,-5,0,0.09761980000621406,0.09653300000354648,0.19867390000581509,0.200254399998812,0.7502889000024879
RSVPLG03,md,20251118-111022,1.0.2,20251105-084826,745,Introduction,T1,1,Automatic,main,14,20251118-111631,local,local,750,H,H,E,A,E-H.png,A-H.png,hH,hH,mask-1.png,mask-1.png,h,1,1.277715000003809,none,-5,0,0.09912140000233194,0.09564789999421919,0.2020630000042729,0.20030769999721088,0.7521370000031311
RSVPLG03,md,20251118-111022,1.0.2,20251105-084826,745,Introduction,T1,1,Automatic,main,15,20251118-111636,local,local,750,H,S,A,E,A-H.png,E-S.png,hH,sS,mask-4.png,mask-3.png,h,1,0.6166320000047563,none,-5,0,0.09736540000449168,0.09876449999865144,0.2012308000048506,0.20043040000018664,0.7500040000013541
RSVPLG03,md,20251118-111022,1.0.2,20251105-084826,745,Introduction,T1,1,Automatic,main,16,20251118-111641,local,global,750,S,H,A,A,A-S.png,H-A.png,sS,hH,mask-3.png,mask-3.png,s,1,0.6387979999999516,none,-5,0,0.09733879999839701,0.09734190000017406,0.2002262999958475,0.20024150000244845,0.7499306999961846
RSVPLG03,md,20251118-111700,1.0.2,20251105-084826,745,Practice,T1,1,Automatic,main,1,20251118-111722,global,global,300,H,S,E,A,H-E.png,S-A.png,hH,sS,mask-3.png,mask-2.png,h,1,1.3774459999985993,none,-5,0,0.03943230000004405,0.04663830000208691,0.0926060999991023,0.09970859999884851,0.292971499999112
RSVPLG03,md,20251118-111700,1.0.2,20251105-084826,745,Practice,T1,1,Automatic,main,2,20251118-111727,local,global,300,H,S,A,A,A-H.png,S-A.png,hH,sS,mask-2.png,mask-4.png,h,1,0.34367119999660645,none,-5,0,0.04845180000120308,0.04743640000378946,0.10060660000453936,0.10064490000513615,0.2999987000002875
RSVPLG03,md,20251118-111700,1.0.2,20251105-084826,745,Practice,T1,1,Automatic,main,3,20251118-111731,local,global,300,S,S,E,E,E-S.png,S-E.png,sS,sS,mask-3.png,mask-3.png,s,1,0.3106106000050204,none,-5,0,0.04722749999928055,0.0471968999991077,0.10023879999789642,0.09923069999786094,0.2999733999968157
RSVPLG03,md,20251118-111700,1.0.2,20251105-084826,745,Practice,T1,1,Automatic,main,4,20251118-111735,global,local,750,S,H,A,A,S-A.png,A-H.png,sS,hH,mask-3.png,mask-3.png,s,1,0.37922319999779575,none,-5,0,0.045741699999780394,0.047524200002953876,0.09956570000213105,0.09952180000254884,0.7496436000001268
RSVPLG03,md,20251118-111700,1.0.2,20251105-084826,745,Practice,T1,1,Automatic,main,5,20251118-111739,global,global,750,S,S,E,E,S-E.png,S-E.png,sS,sS,mask-3.png,mask-2.png,s,1,0.9855677999948966,none,-5,0,0.047316600001067854,0.049418900001910515,0.10029060000670142,0.10042740000062622,0.7499542000005022
RSVPLG03,md,20251118-111700,1.0.2,20251105-084826,745,Practice,T1,1,Automatic,main,6,20251118-111744,local,local,300,S,H,E,E,E-S.png,E-H.png,sS,hH,mask-2.png,mask-4.png,s,1,0.4275240999995731,none,-5,0,0.04757989999779966,0.04843369999434799,0.10042979999707313,0.1006647999965935,0.3003769999995711
RSVPLG03,md,20251118-111700,1.0.2,20251105-084826,745,Practice,T1,1,Automatic,main,7,20251118-111748,global,local,300,H,H,A,E,H-A.png,E-H.png,hH,hH,mask-4.png,mask-4.png,h,1,0.3416829999987385,none,-5,0,0.04823179999948479,0.04824219999863999,0.09881860000314191,0.10125949999928707,0.2997539999996661
RSVPLG03,md,20251118-111700,1.0.2,20251105-084826,745,Practice,T1,1,Automatic,main,8,20251118-111752,global,local,300,H,H,E,E,H-E.png,E-H.png,hH,hH,mask-4.png,mask-1.png,h,1,0.3155495000028168,none,-5,0,0.048678699997253716,0.047708199999760836,0.10086539999610977,0.09989760000462411,0.3011772999961977
RSVPLG03,md,20251118-111700,1.0.2,20251105-084826,745,Practice,T1,1,Automatic,main,9,20251118-111756,global,local,750,H,H,A,E,H-A.png,E-H.png,hH,hH,mask-2.png,mask-2.png,h,1,0.48358510000252863,none,-5,0,0.04875739999988582,0.048702600004617125,0.09996339999634074,0.09999860000243643,0.7509921999953804
RSVPLG03,md,20251118-111700,1.0.2,20251105-084826,745,Practice,T1,1,Automatic,main,10,20251118-111800,global,global,300,S,H,A,A,S-A.png,H-A.png,sS,hH,mask-2.png,mask-4.png,s,1,0.34895569999935105,none,-5,0,0.04770890000509098,0.046709999995073304,0.09973159999935888,0.0999082999987877,0.3004112000053283
RSVPLG03,md,20251118-111700,1.0.2,20251105-084826,745,Practice,T1,1,Automatic,main,11,20251118-111804,local,global,750,H,H,A,A,A-H.png,H-A.png,hH,hH,mask-3.png,mask-1.png,s,0,1.329809100003331,none,-5,0,0.04767500000161817,0.047683800003142096,0.1019116000024951,0.09988780000276165,0.751678599997831
RSVPLG03,md,20251118-111700,1.0.2,20251105-084826,745,Practice,T1,1,Automatic,main,12,20251118-111810,local,local,750,H,H,A,A,A-H.png,A-H.png,hH,hH,mask-3.png,mask-1.png,h,1,0.36059799999929965,none,-5,0,0.04867340000055265,0.04769879999366822,0.09987399999954505,0.09966529999655904,0.7515692000015406
RSVPLG03,md,20251118-111700,1.0.2,20251105-084826,745,Practice,T1,1,Automatic,main,13,20251118-111814,local,local,750,H,S,A,E,A-H.png,E-S.png,hH,sS,mask-4.png,mask-1.png,h,1,0.35186439999961294,none,-5,0,0.04869469999539433,0.04667620000691386,0.09986869999556802,0.09989390000555431,0.751746899994032
RSVPLG03,md,20251118-111700,1.0.2,20251105-084826,745,Practice,T1,1,Automatic,main,14,20251118-111818,global,global,750,S,H,E,E,S-E.png,H-E.png,sS,hH,mask-3.png,mask-1.png,s,1,0.33489510000072187,none,-5,0,0.04856070000096224,0.04674160000286065,0.10157349999644794,0.0993878000008408,0.7514959999971325
RSVPLG03,md,20251118-111700,1.0.2,20251105-084826,745,Practice,T1,1,Automatic,main,15,20251118-111823,local,local,300,H,H,A,A,A-H.png,A-H.png,hH,hH,mask-4.png,mask-4.png,h,1,0.42324070000177016,none,-5,0,0.04854879999766126,0.04655400000046939,0.09958670000196435,0.09955369999806862,0.30032110000320245
RSVPLG03,md,20251118-111700,1.0.2,20251105-084826,745,Practice,T1,1,Automatic,main,16,20251118-111826,local,global,750,H,H,E,A,E-H.png,H-A.png,hH,hH,mask-1.png,mask-1.png,h,1,0.3055049999966286,none,-5,0,0.04654650000156835,0.04867229999945266,0.09865020000142977,0.09908390000055078,0.7492330000022775
RSVPLG03,md,20251118-112003,1.0.2,20251105-084826,745,Introduction,Both,1,Automatic,main,1,20251118-112022,global,global,750,S,S,A,E,S-A.png,S-E.png,sS,sS,mask-4.png,mask-1.png,s,1,1.4614903000037884,s,1,1.1271992000038153,0.0903522000007797,0.09755199999926845,0.1922275000033551,0.2006041999993613,0.7425816000031773
RSVPLG03,md,20251118-112003,1.0.2,20251105-084826,745,Introduction,Both,1,Automatic,main,2,20251118-112029,local,local,750,H,H,E,E,E-H.png,E-H.png,hH,hH,mask-3.png,mask-1.png,h,1,1.5521152000001166,h,1,0.5960965000049328,0.09754299999622162,0.09754989999782993,0.19949620000261348,0.201444199999969,0.750009700001101
RSVPLG03,md,20251118-112003,1.0.2,20251105-084826,745,Introduction,Both,1,Automatic,main,3,20251118-112035,global,local,750,H,H,A,E,H-A.png,E-H.png,hH,hH,mask-2.png,mask-1.png,h,1,1.5529094000012265,s,0,4.791070200000831,0.09745409999595722,0.09738250000373228,0.2002571999983047,0.1983371000023908,0.7520157999970252
RSVPLG03,md,20251118-112003,1.0.2,20251105-084826,745,Introduction,Both,1,Automatic,main,4,20251118-112046,global,local,750,H,S,E,A,H-E.png,A-S.png,hH,sS,mask-3.png,mask-3.png,h,1,6.629815699998289,h,0,2.021294799997122,0.097349600000598,0.09733509999932721,0.20024739999644225,0.20024689999991097,0.7502189000006183
RSVPLG03,md,20251118-112003,1.0.2,20251105-084826,745,Introduction,Both,1,Automatic,main,5,20251118-112059,local,global,750,S,H,E,A,E-S.png,H-A.png,sS,hH,mask-2.png,mask-3.png,s,1,2.55091650000395,h,1,0.30661800000234507,0.09843099999852711,0.09808060000068508,0.20029839999915566,0.1999525999999605,0.7506922999964445
RSVPLG03,md,20251118-112003,1.0.2,20251105-084826,745,Introduction,Both,1,Automatic,main,6,20251118-112106,local,global,750,H,S,E,E,E-H.png,S-E.png,hH,sS,mask-1.png,mask-4.png,h,1,1.2399275999996462,s,1,0.3319772999966517,0.09743970000272384,0.09575769999355543,0.1993755000003148,0.19960659999924246,0.7501681000067038
RSVPLG03,md,20251118-112003,1.0.2,20251105-084826,745,Introduction,Both,1,Automatic,main,7,20251118-112112,local,local,750,H,H,A,E,A-H.png,E-H.png,hH,hH,mask-2.png,mask-1.png,h,1,1.8910092000005534,s,0,0.31209349999699043,0.09599100000195904,0.09763470000325469,0.19989770000393037,0.1997126999995089,0.7502950999987661
RSVPLG03,md,20251118-112003,1.0.2,20251105-084826,745,Introduction,Both,1,Automatic,main,8,20251118-112118,local,local,750,H,H,A,A,A-H.png,A-H.png,hH,hH,mask-1.png,mask-1.png,h,1,1.1881332999982988,h,1,0.38801250000688015,0.09695520000241231,0.0965548000021954,0.1990189999996801,0.19862580000335583,0.7507984999974724
RSVPLG03,md,20251118-112003,1.0.2,20251105-084826,745,Introduction,Both,1,Automatic,main,9,20251118-112124,global,global,750,H,S,E,A,H-E.png,S-A.png,hH,sS,mask-1.png,mask-4.png,h,1,1.5522683000017423,s,1,0.2848715000000084,0.09738640000432497,0.09686550000333227,0.20025000000168802,0.1988238999983878,0.7515335999996751
RSVPLG03,md,20251118-112003,1.0.2,20251105-084826,745,Introduction,Both,1,Automatic,main,10,20251118-112130,global,local,750,S,S,E,A,S-E.png,A-S.png,sS,sS,mask-1.png,mask-3.png,s,1,1.0197001000051387,s,1,0.5095536000007996,0.09754749999410706,0.09751210000104038,0.20064109999657376,0.2004134000017075,0.7503881999946316
RSVPLG03,md,20251118-112003,1.0.2,20251105-084826,745,Introduction,Both,1,Automatic,main,11,20251118-112136,local,global,750,S,H,A,E,A-S.png,H-E.png,sS,hH,mask-3.png,mask-3.png,s,1,1.3616435999938403,h,1,0.42487139999866486,0.09737150000000838,0.09738579999975627,0.19824830000288785,0.1992675000001327,0.7503141999986838
RSVPLG03,md,20251118-112003,1.0.2,20251105-084826,745,Introduction,Both,1,Automatic,main,12,20251118-112142,global,global,750,H,H,A,E,H-A.png,H-E.png,hH,hH,mask-3.png,mask-4.png,h,1,1.0669523999968078,h,1,0.2777014000021154,0.09644329999719048,0.096445399998629,0.1993203999954858,0.19935009999608155,0.7504795999993803
RSVPLG03,md,20251118-112003,1.0.2,20251105-084826,745,Introduction,Both,1,Automatic,main,13,20251118-112147,local,global,750,S,H,E,E,E-S.png,H-E.png,sS,hH,mask-4.png,mask-4.png,s,1,0.9147148999982164,h,1,0.2678920999969705,0.09734870000102092,0.09750260000146227,0.19826759999705246,0.20035009999992326,0.7486839999983204
RSVPLG03,md,20251118-112003,1.0.2,20251105-084826,745,Introduction,Both,1,Automatic,main,14,20251118-112153,global,local,750,S,S,A,A,S-A.png,A-S.png,sS,sS,mask-2.png,mask-2.png,h,0,2.4479829000047175,h,0,0.2310894999973243,0.09737619999941671,0.09739180000178749,0.19907709999824874,0.19957850000355393,0.7499386999988928
RSVPLG03,md,20251118-112003,1.0.2,20251105-084826,745,Introduction,Both,1,Automatic,main,15,20251118-112200,local,local,750,S,H,A,E,A-S.png,E-H.png,sS,hH,mask-3.png,mask-2.png,s,1,2.6182861999986926,h,1,0.15432390000205487,0.09837810000317404,0.09642669999448117,0.20025690000329632,0.1992848999943817,0.7508835000044201
RSVPLG03,md,20251118-112003,1.0.2,20251105-084826,745,Introduction,Both,1,Automatic,main,16,20251118-112207,global,global,750,H,H,A,A,H-A.png,H-A.png,hH,hH,mask-4.png,mask-4.png,h,1,1.3986778999969829,h,1,0.35569970000506146,0.09645080000336748,0.09744209999917075,0.19933590000437107,0.19839259999571368,0.7501830000037444
RSVPLG03,md,20251118-112222,1.0.2,20251105-084826,745,Practice,Both,1,Automatic,main,1,20251118-112255,local,local,300,H,S,A,E,A-H.png,E-S.png,hH,sS,mask-2.png,mask-1.png,h,1,1.233768099998997,s,1,0.24059370000031777,0.04375710000022082,0.04772220000450034,0.09677699999883771,0.10012660000211326,0.29651059999741847
RSVPLG03,md,20251118-112222,1.0.2,20251105-084826,745,Practice,Both,1,Automatic,main,2,20251118-112300,global,local,750,S,H,A,A,S-A.png,A-H.png,sS,hH,mask-3.png,mask-1.png,s,1,0.8218743999968865,h,1,0.13801959999545943,0.04774770000221906,0.045695100001466926,0.10095890000229701,0.09932520000438672,0.7530202999987523
RSVPLG03,md,20251118-112222,1.0.2,20251105-084826,745,Practice,Both,1,Automatic,main,3,20251118-112305,global,local,750,H,H,A,E,H-A.png,E-H.png,hH,hH,mask-1.png,mask-4.png,h,1,0.9132915000009234,h,1,0.24509309999848483,0.04857289999927161,0.047512000004644506,0.10161849999713013,0.09947150000516558,0.7516786999985925
RSVPLG03,md,20251118-112222,1.0.2,20251105-084826,745,Practice,Both,1,Automatic,main,4,20251118-112310,global,global,750,H,S,E,E,H-E.png,S-E.png,hH,sS,mask-4.png,mask-3.png,h,1,1.0135194000031333,s,1,0.23600279999664053,0.0465256000024965,0.04755440000008093,0.09956460000103107,0.10059559999353951,0.7517570000054548
RSVPLG03,md,20251118-112222,1.0.2,20251105-084826,745,Practice,Both,1,Automatic,main,5,20251118-112315,local,local,300,H,S,E,A,E-H.png,A-S.png,hH,sS,mask-3.png,mask-4.png,h,1,0.994630799999868,s,1,0.15741800000250805,0.046115900004224386,0.04755719999957364,0.1002375000025495,0.10158439999941038,0.2996004000015091
RSVPLG03,md,20251118-112222,1.0.2,20251105-084826,745,Practice,Both,1,Automatic,main,6,20251118-112320,global,global,300,S,H,A,A,S-A.png,H-A.png,sS,hH,mask-4.png,mask-2.png,s,1,0.8029681999978493,h,1,0.11810690000129398,0.04645370000071125,0.04757650000101421,0.09977470000012545,0.10052870000072289,0.30024120000598487
RSVPLG03,md,20251118-112222,1.0.2,20251105-084826,745,Practice,Both,1,Automatic,main,7,20251118-112325,local,local,750,H,S,A,A,A-H.png,A-S.png,hH,sS,mask-2.png,mask-2.png,h,1,0.9907883999985643,s,1,0.11753409999801079,0.0468890000047395,0.047703700001875404,0.1004843000046094,0.09990290000132518,0.7512684000030276
RSVPLG03,md,20251118-112222,1.0.2,20251105-084826,745,Practice,Both,1,Automatic,main,8,20251118-112330,global,local,300,S,S,A,E,S-A.png,E-S.png,sS,sS,mask-2.png,mask-3.png,s,1,1.0362186999991536,h,0,0.18238230000133626,0.047754300001543015,0.04655600000114646,0.10072819999913918,0.09966690000146627,0.3007426999974996
RSVPLG03,md,20251118-112222,1.0.2,20251105-084826,745,Practice,Both,1,Automatic,main,9,20251118-112335,local,global,300,H,H,A,A,A-H.png,H-A.png,hH,hH,mask-1.png,mask-1.png,h,1,1.262156299999333,h,1,0.3933711999998195,0.04691070000262698,0.04733249999844702,0.10015199999907054,0.10033079999993788,0.2991353000033996
RSVPLG03,md,20251118-112222,1.0.2,20251105-084826,745,Practice,Both,1,Automatic,main,10,20251118-112340,local,local,750,S,S,E,A,E-S.png,A-S.png,sS,sS,mask-2.png,mask-4.png,s,1,0.7811014000035357,s,1,0.1524892000015825,0.04670059999625664,0.04669070000090869,0.09988480000174604,0.10091709999687737,0.7508608999996795
RSVPLG03,md,20251118-112222,1.0.2,20251105-084826,745,Practice,Both,1,Automatic,main,11,20251118-112345,local,global,750,H,S,A,E,A-H.png,S-E.png,hH,sS,mask-1.png,mask-4.png,h,1,1.3419702999963192,s,1,0.21946570000000065,0.04775059999519726,0.048703199994633906,0.10009789999458008,0.10149539999838453,0.7504759000003105
RSVPLG03,md,20251118-112222,1.0.2,20251105-084826,745,Practice,Both,1,Automatic,main,12,20251118-112351,global,local,300,S,H,E,E,S-E.png,E-H.png,sS,hH,mask-3.png,mask-1.png,s,1,1.9970442999983788,h,1,0.3684575000006589,0.04771269999764627,0.04770499999722233,0.09894419999909587,0.09993009999743663,0.2998987999962992
RSVPLG03,md,20251118-112222,1.0.2,20251105-084826,745,Practice,Both,1,Automatic,main,13,20251118-112357,global,global,300,S,H,A,A,S-A.png,H-A.png,sS,hH,mask-2.png,mask-1.png,s,1,0.7584102999971947,h,1,0.08120600000256673,0.047623999998904765,0.04771479999908479,0.10048190000088653,0.10083930000109831,0.30010220000258414
RSVPLG03,md,20251118-112222,1.0.2,20251105-084826,745,Practice,Both,1,Automatic,main,14,20251118-112401,local,global,750,S,S,E,E,E-S.png,S-E.png,sS,sS,mask-1.png,mask-2.png,s,1,1.2074345000000903,s,1,0.24914640000497457,0.047691600004327483,0.04769519999535987,0.09880970000085654,0.09992280000005849,0.749923100003798
RSVPLG03,md,20251118-112222,1.0.2,20251105-084826,745,Practice,Both,1,Automatic,main,15,20251118-112407,local,global,300,H,S,A,E,A-H.png,S-E.png,hH,sS,mask-1.png,mask-3.png,h,1,1.0719209000017145,h,0,0.387851799998316,0.04668459999811603,0.0475397000045632,0.09960190000128932,0.10079920000134734,0.29980090000026394
RSVPLG03,md,20251118-112222,1.0.2,20251105-084826,745,Practice,Both,1,Automatic,main,16,20251118-112412,global,global,750,S,H,E,A,S-E.png,H-A.png,sS,hH,mask-3.png,mask-4.png,s,1,0.7418438000022434,h,1,0.12958529999741586,0.04767840000567958,0.04666140000335872,0.10188620000553783,0.09971570000197971,0.7527208000028622
RSVPLG03,md,20251118-112552,1.0.2,20251105-084826,745,Experiment,Both,1,Automatic,warmup,1,20251118-112611,local,local,300,H,S,A,A,A-H.png,A-S.png,hH,sS,mask-2.png,mask-3.png,h,1,0.7795667000027606,s,1,0.2198525999992853,0.04023579999920912,0.04767140000330983,0.09122329999809153,0.10185269999783486,0.29137700000137556
RSVPLG03,md,20251118-112552,1.0.2,20251105-084826,745,Experiment,Both,1,Automatic,warmup,2,20251118-112616,global,local,300,S,S,E,A,S-E.png,A-S.png,sS,sS,mask-4.png,mask-2.png,s,1,0.8362033999947016,h,0,0.4304460999992443,0.045722199996816926,0.048767600004794076,0.0998706999962451,0.09981150000385242,0.298369799995271
RSVPLG03,md,20251118-112552,1.0.2,20251105-084826,745,Experiment,Both,1,Automatic,warmup,3,20251118-112621,global,global,300,H,S,A,A,H-A.png,S-A.png,hH,sS,mask-1.png,mask-4.png,h,1,0.6751823000013246,s,1,0.14144529999612132,0.047425400000065565,0.04746539999905508,0.10048030000325525,0.10030099999858066,0.2997843999983161
RSVPLG03,md,20251118-112552,1.0.2,20251105-084826,745,Experiment,Both,1,Automatic,warmup,4,20251118-112625,local,local,750,H,S,A,A,A-H.png,A-S.png,hH,sS,mask-2.png,mask-2.png,h,1,0.8065082000030088,s,1,0.06917640000028769,0.04752159999770811,0.04743919999600621,0.10059439999895403,0.09952720000001136,0.7502268000025651
RSVPLG03,md,20251118-112552,1.0.2,20251105-084826,745,Experiment,Both,1,Automatic,main,5,20251118-112630,local,local,750,H,S,A,A,A-H.png,A-S.png,hH,sS,mask-4.png,mask-1.png,h,1,0.9698549000022467,s,1,0.04148960000020452,0.047497999999905005,0.04739790000166977,0.09950969999772497,0.10023099999671103,0.7489772999979323
RSVPLG03,md,20251118-112552,1.0.2,20251105-084826,745,Experiment,Both,1,Automatic,main,6,20251118-112635,local,local,300,H,H,E,E,E-H.png,E-H.png,hH,hH,mask-4.png,mask-1.png,h,1,0.9879499999951804,h,1,0.15527599999768427,0.04766869999730261,0.04768079999485053,0.10185980000096606,0.09987839999666903,0.3014552000022377
RSVPLG03,md,20251118-112552,1.0.2,20251105-084826,745,Experiment,Both,1,Automatic,main,7,20251118-112640,global,local,300,H,S,E,E,H-E.png,E-S.png,hH,sS,mask-4.png,mask-4.png,h,1,1.1642179999980726,s,1,0.4548311999969883,0.04554620000271825,0.047512400000414345,0.09854379999887897,0.09949860000051558,0.29877940000005765
RSVPLG03,md,20251118-112552,1.0.2,20251105-084826,745,Experiment,Both,1,Automatic,main,8,20251118-112646,global,local,750,S,S,A,E,S-A.png,E-S.png,sS,sS,mask-3.png,mask-3.png,s,1,0.6984745999943698,s,1,0.11355120000371244,0.046528499995474704,0.047560799997881986,0.09964529999706428,0.10084719999576919,0.7478367000003345
RSVPLG03,md,20251118-112552,1.0.2,20251105-084826,745,Experiment,Both,1,Automatic,main,9,20251118-112650,global,global,300,H,H,E,A,H-E.png,H-A.png,hH,hH,mask-3.png,mask-2.png,h,1,0.6660219000041252,h,1,0.12310969999816734,0.04800779999641236,0.04798509999818634,0.10134589999506716,0.09935129999939818,0.30092059999878984
RSVPLG03,md,20251118-112552,1.0.2,20251105-084826,745,Experiment,Both,1,Automatic,main,10,20251118-112655,local,local,300,H,S,A,A,A-H.png,A-S.png,hH,sS,mask-3.png,mask-4.png,h,1,0.6242940000011004,s,1,0.06516779999947175,0.04751599999872269,0.04853950000688201,0.09850499999447493,0.1005321000047843,0.2976289999933215
RSVPLG03,md,20251118-112552,1.0.2,20251105-084826,745,Experiment,Both,1,Automatic,main,11,20251118-112659,global,global,300,S,S,E,E,S-E.png,S-E.png,sS,sS,mask-4.png,mask-1.png,s,1,0.9168721000023652,s,1,0.24340590000065276,0.04672669999854406,0.04774580000230344,0.09996790000150213,0.09999830000015208,0.2997090999997454
RSVPLG03,md,20251118-112552,1.0.2,20251105-084826,745,Experiment,Both,1,Automatic,main,12,20251118-112704,local,global,300,S,H,E,E,E-S.png,H-E.png,sS,hH,mask-4.png,mask-1.png,s,1,0.7555093000046327,h,1,0.13402369999676012,0.047713599997223355,0.049661099998047575,0.10015150000253925,0.10158229999797186,0.2979445000019041
RSVPLG03,md,20251118-112552,1.0.2,20251105-084826,745,Experiment,Both,1,Automatic,main,13,20251118-112709,local,local,300,S,H,A,E,A-S.png,E-H.png,sS,hH,mask-3.png,mask-1.png,s,1,0.6073267000028864,h,1,0.10194390000106068,0.0485294000027352,0.048527900005865376,0.1006137000003946,0.09953210000094259,0.2999141999971471
RSVPLG03,md,20251118-112552,1.0.2,20251105-084826,745,Experiment,Both,1,Automatic,main,14,20251118-112713,global,local,750,S,S,A,A,S-A.png,A-S.png,sS,sS,mask-2.png,mask-1.png,h,0,0.8123743999967701,s,1,0.13827909999963595,0.04699550000077579,0.04870660000597127,0.10020819999772357,0.10024280000652652,0.7488420999943628
RSVPLG03,md,20251118-112552,1.0.2,20251105-084826,745,Experiment,Both,1,Automatic,main,15,20251118-112718,local,local,750,S,S,E,A,E-S.png,A-S.png,sS,sS,mask-2.png,mask-2.png,s,1,0.672946900005627,s,1,0.10263799999665935,0.046223099998314865,0.047606799998902716,0.09950079999543959,0.10051519999979064,0.7488688999947044
RSVPLG03,md,20251118-112552,1.0.2,20251105-084826,745,Experiment,Both,1,Automatic,main,16,20251118-112723,local,local,300,H,S,E,A,E-H.png,A-S.png,hH,sS,mask-2.png,mask-4.png,h,1,0.7350590999994893,s,1,0.08563200000207871,0.04777240000112215,0.04761590000271099,0.10031549999985145,0.10064240000065183,0.299560699997528
RSVPLG03,md,20251118-112552,1.0.2,20251105-084826,745,Experiment,Both,1,Automatic,main,17,20251118-112728,local,local,300,H,S,E,E,E-H.png,E-S.png,hH,sS,mask-2.png,mask-4.png,h,1,0.6347139999998035,s,1,0.05330260000482667,0.0475497000006726,0.04853730000468204,0.09906880000198726,0.09969980000460055,0.2996306999993976
RSVPLG03,md,20251118-112552,1.0.2,20251105-084826,745,Experiment,Both,1,Automatic,main,18,20251118-112732,local,global,750,H,H,A,E,A-H.png,H-E.png,hH,hH,mask-2.png,mask-4.png,h,1,1.2956088999999338,h,1,0.15411060000042198,0.04750929999863729,0.047480400004133116,0.10153189999982715,0.10034280000400031,0.7502453999986756
RSVPLG03,md,20251118-112552,1.0.2,20251105-084826,745,Experiment,Both,1,Automatic,main,19,20251118-112738,local,global,300,S,H,A,A,A-S.png,H-A.png,sS,hH,mask-1.png,mask-2.png,s,1,1.0082899999979418,h,1,0.14656210000248393,0.04770500000449829,0.04570850000163773,0.09988639999937732,0.09890579999773763,0.30182990000321297
RSVPLG03,md,20251118-112552,1.0.2,20251105-084826,745,Experiment,Both,1,Automatic,main,20,20251118-112742,global,global,300,H,H,E,A,H-E.png,H-A.png,hH,hH,mask-4.png,mask-2.png,h,1,0.7899777000056929,h,1,0.20133490000444,0.04770229999849107,0.04770730000018375,0.10178789999918081,0.09892229999968549,0.30146650000097
RSVPLG03,md,20251118-112552,1.0.2,20251105-084826,745,Experiment,Both,1,Automatic,main,21,20251118-112747,local,global,750,H,S,E,A,E-H.png,S-A.png,hH,sS,mask-4.png,mask-2.png,h,1,1.6202336999995168,h,0,0.20124629999918398,0.04728089999844087,0.047790999997232575,0.09965509999892674,0.09977909999724943,0.7503925999990315
RSVPLG03,md,20251118-112552,1.0.2,20251105-084826,745,Experiment,Both,1,Automatic,main,22,20251118-112753,global,global,300,S,S,A,E,S-A.png,S-E.png,sS,sS,mask-2.png,mask-3.png,s,1,2.3424752999999328,h,0,0.32653299999947194,0.0476803000055952,0.04588089999742806,0.09889370000018971,0.0999186999979429,0.3005020000055083
RSVPLG03,md,20251118-112552,1.0.2,20251105-084826,745,Experiment,Both,1,Automatic,main,23,20251118-112759,local,local,750,H,H,A,A,A-H.png,A-H.png,hH,hH,mask-4.png,mask-1.png,h,1,1.3577628999992157,h,1,0.18818359999568202,0.04567450000467943,0.04684180000185734,0.09823950000281911,0.09841980000055628,0.7497693000041181
RSVPLG03,md,20251118-112552,1.0.2,20251105-084826,745,Experiment,Both,1,Automatic,main,24,20251118-112805,global,local,300,H,H,E,E,H-E.png,E-H.png,hH,hH,mask-1.png,mask-1.png,h,1,1.6159161999967182,h,1,0.5345431999958237,0.04767040000297129,0.047662500001024455,0.09964790000231005,0.09966559999884339,0.3000132000015583
RSVPLG03,md,20251118-112552,1.0.2,20251105-084826,745,Experiment,Both,1,Automatic,main,25,20251118-112811,local,local,750,H,H,A,E,A-H.png,E-H.png,hH,hH,mask-1.png,mask-1.png,h,1,0.602100199997949,h,1,0.11982719999650726,0.04654540000046836,0.04751160000159871,0.10059090000140714,0.09958090000145603,0.7503721000030055
RSVPLG03,md,20251118-112552,1.0.2,20251105-084826,745,Experiment,Both,1,Automatic,main,26,20251118-112841,local,global,300,S,S,E,A,E-S.png,S-A.png,sS,sS,mask-4.png,mask-3.png,s,1,1.4497991999960504,h,0,0.09321189999900525,0.04757989999779966,0.04763069999899017,0.09908179999911226,0.09974700000020675,0.3004021999950055
RSVPLG03,md,20251118-112552,1.0.2,20251105-084826,745,Experiment,Both,1,Automatic,main,27,20251118-112846,global,local,300,H,H,E,E,H-E.png,E-H.png,hH,hH,mask-4.png,mask-3.png,h,1,1.505676200002199,h,1,0.9272431999997934,0.04553049999958603,0.046505600003001746,0.09953970000060508,0.09850030000234256,0.2993903999959002
RSVPLG03,md,20251118-112552,1.0.2,20251105-084826,745,Experiment,Both,1,Automatic,main,28,20251118-112852,global,local,300,H,S,E,E,H-E.png,E-S.png,hH,sS,mask-3.png,mask-4.png,h,1,0.6222106999994139,s,1,0.02835399999457877,0.045741000001726206,0.04873389999556821,0.09992960000090534,0.09996020000107819,0.2985790000020643
RSVPLG03,md,20251118-112552,1.0.2,20251105-084826,745,Experiment,Both,1,Automatic,main,29,20251118-112856,local,global,750,H,H,E,A,E-H.png,H-A.png,hH,hH,mask-4.png,mask-4.png,h,1,0.7230717999991612,h,1,0.07656169999972917,0.047529000003123656,0.04749480000464246,0.09949649999907706,0.09838950000266777,0.7497992999997223
RSVPLG03,md,20251118-112552,1.0.2,20251105-084826,745,Experiment,Both,1,Automatic,main,30,20251118-112901,local,local,750,S,H,A,A,A-S.png,A-H.png,sS,hH,mask-1.png,mask-4.png,s,1,0.5133115999997244,h,1,0.05264139999781037,0.047669600004155654,0.04778420000366168,0.09987959999853047,0.09996880000107922,0.7482361000002129
RSVPLG03,md,20251118-112552,1.0.2,20251105-084826,745,Experiment,Both,1,Automatic,main,31,20251118-112906,global,local,300,S,S,A,A,S-A.png,A-S.png,sS,sS,mask-2.png,mask-2.png,h,0,1.4926486000040313,s,1,0.03779280000162544,0.047510399999737274,0.04850579999765614,0.09950689999823226,0.1015731000006781,0.2998340999984066
RSVPLG03,md,20251118-112552,1.0.2,20251105-084826,745,Experiment,Both,1,Automatic,main,32,20251118-112911,local,global,300,S,S,E,A,E-S.png,S-A.png,sS,sS,mask-3.png,mask-1.png,s,1,1.6664837000062107,h,0,0.33332460000383435,0.04849909999757074,0.04751630000100704,0.10027869999612449,0.10151290000067092,0.29962890000024345
RSVPLG03,md,20251118-112552,1.0.2,20251105-084826,745,Experiment,Both,1,Automatic,main,33,20251118-112917,local,global,300,S,S,E,A,E-S.png,S-A.png,sS,sS,mask-4.png,mask-3.png,s,1,1.5712817999956314,h,0,0.23390979999385308,0.046627000003354624,0.04751889999897685,0.0987710000044899,0.10054019999370212,0.29844270000467077
RSVPLG03,md,20251118-112552,1.0.2,20251105-084826,745,Experiment,Both,1,Automatic,main,34,20251118-112922,global,global,300,S,S,E,A,S-E.png,S-A.png,sS,sS,mask-4.png,mask-1.png,s,1,0.5151375999994343,s,1,0.10815500000171596,0.047788600000785664,0.047773400001460686,0.10175940000044648,0.10030940000433475,0.3004810999991605
RSVPLG03,md,20251118-112552,1.0.2,20251105-084826,745,Experiment,Both,1,Automatic,main,35,20251118-112926,local,local,300,H,S,E,A,E-H.png,A-S.png,hH,sS,mask-3.png,mask-4.png,h,1,0.5557534000035957,s,1,0.02168320000055246,0.04753809999965597,0.04654149999987567,0.10156589999678545,0.09854669999913312,0.30101189999550115
RSVPLG03,md,20251118-112552,1.0.2,20251105-084826,745,Experiment,Both,1,Automatic,main,36,20251118-112931,global,local,300,H,S,E,E,H-E.png,E-S.png,hH,sS,mask-3.png,mask-3.png,h,1,3.2737754999980098,s,1,0.9070703000033973,0.04767030000220984,0.04747940000379458,0.09916470000462141,0.10048130000359379,0.2996679999996559
RSVPLG03,md,20251118-112552,1.0.2,20251105-084826,745,Experiment,Both,1,Automatic,main,37,20251118-112939,local,local,300,S,H,E,A,E-S.png,A-H.png,sS,hH,mask-4.png,mask-4.png,s,1,0.9300875999979326,h,1,0.06712420000258135,0.04746359999990091,0.04729790000419598,0.09984180000174092,0.10032440000213683,0.29983189999620663
RSVPLG03,md,20251118-112552,1.0.2,20251105-084826,745,Experiment,Both,1,Automatic,main,38,20251118-112943,local,local,750,S,S,E,A,E-S.png,A-S.png,sS,sS,mask-4.png,mask-4.png,s,1,0.5439717999979621,s,1,0.10174370000459021,0.04568199999630451,0.04682129999855533,0.09987939999700757,0.1010106999965501,0.7485503999996581
RSVPLG03,md,20251118-112552,1.0.2,20251105-084826,745,Experiment,Both,1,Automatic,main,39,20251118-112948,local,global,300,H,H,E,A,E-H.png,H-A.png,hH,hH,mask-4.png,mask-3.png,h,1,1.8895104999974137,h,1,0.12720309999713209,0.047640500000852626,0.046948800001700874,0.10084759999881499,0.10057660000165924,0.300445499997295
RSVPLG03,md,20251118-112552,1.0.2,20251105-084826,745,Experiment,Both,1,Automatic,main,40,20251118-112954,local,local,750,H,S,E,A,E-H.png,A-S.png,hH,sS,mask-1.png,mask-4.png,h,1,0.682209700004023,s,1,0.7140652000016416,0.046563700001570396,0.04864819999784231,0.09970849999808706,0.10171190000255592,0.7486678999994183
RSVPLG03,md,20251118-112552,1.0.2,20251105-084826,745,Experiment,Both,1,Automatic,main,41,20251118-112959,local,local,300,H,S,E,E,E-H.png,E-S.png,hH,sS,mask-3.png,mask-4.png,h,1,0.5422266000023228,s,1,1.042093299998669,0.047732500002894085,0.0475529999966966,0.09712759999820264,0.0994905999978073,0.2989937000020291
RSVPLG03,md,20251118-112552,1.0.2,20251105-084826,745,Experiment,Both,1,Automatic,main,42,20251118-113004,global,global,300,S,H,A,A,S-A.png,H-A.png,sS,hH,mask-3.png,mask-3.png,h,0,3.201106799999252,s,0,1.6366640999985975,0.04763209999509854,0.04873110000335146,0.10097659999883035,0.10081329999957234,0.29963609999686014
RSVPLG03,md,20251118-112552,1.0.2,20251105-084826,745,Experiment,Both,1,Automatic,main,43,20251118-113012,global,local,750,S,S,E,A,S-E.png,A-S.png,sS,sS,mask-1.png,mask-1.png,s,1,0.7781796999988728,s,1,0.050488200002291705,0.046776700000918936,0.04676860000472516,0.09903900000063004,0.09901510000054259,0.750223899995035
RSVPLG03,md,20251118-112552,1.0.2,20251105-084826,745,Experiment,Both,1,Automatic,main,44,20251118-113017,global,local,750,S,S,E,A,S-E.png,A-S.png,sS,sS,mask-2.png,mask-4.png,s,1,1.3267539000007673,s,1,0.21460729999671457,0.0467824000006658,0.04751110000506742,0.0998870999974315,0.09852540000429144,0.7497279999952298
RSVPLG03,md,20251118-112552,1.0.2,20251105-084826,745,Experiment,Both,1,Automatic,main,45,20251118-113023,global,local,750,H,S,A,E,H-A.png,E-S.png,hH,sS,mask-2.png,mask-1.png,h,1,1.1663820000030682,s,1,0.138932299996668,0.04750380000041332,0.04651850000664126,0.09851399999752175,0.09888490000594174,0.7495396999947843
RSVPLG03,md,20251118-112552,1.0.2,20251105-084826,745,Experiment,Both,1,Automatic,main,46,20251118-113028,global,local,300,S,H,A,A,S-A.png,A-H.png,sS,hH,mask-3.png,mask-2.png,s,1,1.3051889999987907,h,1,0.20498520000546705,0.049187099997652695,0.04718239999783691,0.10139219999837223,0.1003227000037441,0.30005309999978635
RSVPLG03,md,20251118-112552,1.0.2,20251105-084826,745,Experiment,Both,1,Automatic,main,47,20251118-113033,global,global,750,S,S,E,E,S-E.png,S-E.png,sS,sS,mask-3.png,mask-1.png,s,1,1.0678986999992048,s,1,0.1362779999981285,0.04668649999803165,0.04767079999874113,0.10090259999560658,0.09986629999912111,0.7491758999967715
RSVPLG03,md,20251118-112552,1.0.2,20251105-084826,745,Experiment,Both,1,Automatic,main,48,20251118-113039,local,local,300,S,H,A,E,A-S.png,E-H.png,sS,hH,mask-2.png,mask-4.png,s,1,1.2029766000050586,h,1,0.22079479999956675,0.047302399994805455,0.047742100003233645,0.09966979999444447,0.09993300000496674,0.29857029999402585
RSVPLG03,md,20251118-112552,1.0.2,20251105-084826,745,Experiment,Both,1,Automatic,main,49,20251118-113044,local,local,750,S,S,A,E,A-S.png,E-S.png,sS,sS,mask-3.png,mask-4.png,s,1,0.46526089999679243,s,1,0.09932090000074822,0.0478064999988419,0.04717520000122022,0.10000359999685315,0.1009321000019554,0.7502530999990995
RSVPLG03,md,20251118-112552,1.0.2,20251105-084826,745,Experiment,Both,1,Automatic,main,50,20251118-113048,local,global,300,S,H,A,A,A-S.png,H-A.png,sS,hH,mask-1.png,mask-2.png,s,1,0.9125859000050696,h,1,0.1676112999994075,0.04768740000145044,0.04767500000161817,0.09989620000123978,0.09987600000022212,0.2996160999973654
RSVPLG03,md,20251118-112552,1.0.2,20251105-084826,745,Experiment,Both,1,Automatic,main,51,20251118-113119,local,global,750,S,S,A,E,A-S.png,S-E.png,sS,sS,mask-2.png,mask-1.png,s,1,0.5613212000025669,s,1,0.2031051000012667,0.048592299994197674,0.04749549999542069,0.10068219999811845,0.10059139999793842,0.750390499997593
RSVPLG03,md,20251118-112552,1.0.2,20251105-084826,745,Experiment,Both,1,Automatic,main,52,20251118-113124,global,global,300,H,H,E,E,H-E.png,H-E.png,hH,hH,mask-4.png,mask-2.png,h,1,0.5199293999976362,h,1,0.11895229999936419,0.04756959999940591,0.04654299999674549,0.09977290000097128,0.09951369999907911,0.3004155000016908
RSVPLG03,md,20251118-112552,1.0.2,20251105-084826,745,Experiment,Both,1,Automatic,main,53,20251118-113128,global,global,750,S,S,E,E,S-E.png,S-E.png,sS,sS,mask-1.png,mask-1.png,s,1,0.463987700000871,s,1,0.07335299999976996,0.04745399999956135,0.04705130000365898,0.09847089999675518,0.09948780000559054,0.749902799994743
RSVPLG03,md,20251118-112552,1.0.2,20251105-084826,745,Experiment,Both,1,Automatic,main,54,20251118-113133,global,local,750,S,S,A,A,S-A.png,A-S.png,sS,sS,mask-2.png,mask-4.png,s,1,0.5116627999959746,s,1,0.09069470000395086,0.047715599997900426,0.04674279999744613,0.10092409999924712,0.09997419999854174,0.7499231999972835
RSVPLG03,md,20251118-112552,1.0.2,20251105-084826,745,Experiment,Both,1,Automatic,main,55,20251118-113138,global,local,300,H,H,E,E,H-E.png,E-H.png,hH,hH,mask-3.png,mask-2.png,h,1,0.7566072000045097,h,1,0.4412131999997655,0.04776750000019092,0.047611499998311047,0.10004360000311863,0.09987769999861484,0.30053910000424366
RSVPLG03,md,20251118-112552,1.0.2,20251105-084826,745,Experiment,Both,1,Automatic,main,56,20251118-113142,global,global,750,S,S,E,A,S-E.png,S-A.png,sS,sS,mask-4.png,mask-4.png,s,1,1.345290000004752,s,1,0.15661339999496704,0.04759020000346936,0.04779430000053253,0.09881380000297213,0.09979399999429006,0.7492105000055744
RSVPLG03,md,20251118-112552,1.0.2,20251105-084826,745,Experiment,Both,1,Automatic,main,57,20251118-113148,local,global,750,H,H,A,A,A-H.png,H-A.png,hH,hH,mask-4.png,mask-4.png,h,1,0.9993432999981451,h,1,0.09120119999715826,0.046327599993674085,0.04746859999431763,0.0990172999954666,0.09960609999689041,0.7485608999995748
RSVPLG03,md,20251118-112552,1.0.2,20251105-084826,745,Experiment,Both,1,Automatic,main,58,20251118-113153,local,global,750,H,S,E,E,E-H.png,S-E.png,hH,sS,mask-1.png,mask-4.png,h,1,0.6489836999971885,s,1,0.04512529999919934,0.04730869999912102,0.04639419999875827,0.09965589999774238,0.10039919999690028,0.7507068999984767
RSVPLG03,md,20251118-112552,1.0.2,20251105-084826,745,Experiment,Both,1,Automatic,main,59,20251118-113158,global,global,750,H,S,E,E,H-E.png,S-E.png,hH,sS,mask-1.png,mask-1.png,h,1,0.6903210999953444,s,1,0.04831500000000233,0.047718000001623295,0.04769479999959003,0.0991100000028382,0.09887200000230223,0.7499935000014375
RSVPLG03,md,20251118-112552,1.0.2,20251105-084826,745,Experiment,Both,1,Automatic,main,60,20251118-113203,local,global,300,S,H,E,E,E-S.png,H-E.png,sS,hH,mask-3.png,mask-4.png,s,1,1.4366947000016808,h,1,0.14623430000210647,0.04785039999842411,0.04654100000334438,0.09898200000316137,0.09860330000083195,0.3008484000019962
RSVPLG03,md,20251118-112552,1.0.2,20251105-084826,745,Experiment,Both,1,Automatic,main,61,20251118-113208,local,local,750,H,S,E,E,E-H.png,E-S.png,hH,sS,mask-1.png,mask-2.png,h,1,0.9598318999996991,s,1,0.05107220000354573,0.04611329999897862,0.04676559999643359,0.10029639999993378,0.09961820000171429,0.7492167000018526
RSVPLG03,md,20251118-112552,1.0.2,20251105-084826,745,Experiment,Both,1,Automatic,main,62,20251118-113213,local,local,300,S,S,E,E,E-S.png,E-S.png,sS,sS,mask-1.png,mask-1.png,s,1,0.7277762999947299,s,1,0.14142049999645678,0.04752169999846956,0.04752439999720082,0.09854420000192476,0.09854449999693315,0.29982120000204304
RSVPLG03,md,20251118-112552,1.0.2,20251105-084826,745,Experiment,Both,1,Automatic,main,63,20251118-113218,local,local,750,H,S,E,A,E-H.png,A-S.png,hH,sS,mask-3.png,mask-2.png,h,1,1.1461568999948213,s,1,0.15485130000161007,0.047214700003678445,0.04677079999964917,0.10037110000121174,0.10098049999942305,0.7490966000041226
RSVPLG03,md,20251118-112552,1.0.2,20251105-084826,745,Experiment,Both,1,Automatic,main,64,20251118-113223,global,global,750,H,S,A,E,H-A.png,S-E.png,hH,sS,mask-2.png,mask-1.png,h,1,0.7029201999976067,s,1,0.10189220000029309,0.04785769999580225,0.04870830000436399,0.10103299999900628,0.09966710000298917,0.7496371999950497
RSVPLG03,md,20251118-112552,1.0.2,20251105-084826,745,Experiment,Both,1,Automatic,main,65,20251118-113228,local,global,750,H,S,A,E,A-H.png,S-E.png,hH,sS,mask-1.png,mask-3.png,h,1,0.7374753999974928,s,1,0.12413409999862779,0.047531900003377814,0.047694000000774395,0.0994492000027094,0.09891970000171568,0.7498234000013326
RSVPLG03,md,20251118-112552,1.0.2,20251105-084826,745,Experiment,Both,1,Automatic,main,66,20251118-113233,global,global,300,S,H,E,E,S-E.png,H-E.png,sS,hH,mask-3.png,mask-3.png,s,1,0.7833068000036292,h,1,0.18261779999738792,0.04755470000236528,0.04766929999459535,0.10075640000286512,0.09985229999438161,0.299355100003595
RSVPLG03,md,20251118-112552,1.0.2,20251105-084826,745,Experiment,Both,1,Automatic,main,67,20251118-113238,global,global,300,S,S,E,A,S-E.png,S-A.png,sS,sS,mask-4.png,mask-2.png,s,1,1.1913535999992746,h,0,0.18888340000557946,0.04754020000109449,0.047505000002274755,0.0985757000016747,0.10053010000410723,0.2982914999956847
RSVPLG03,md,20251118-112552,1.0.2,20251105-084826,745,Experiment,Both,1,Automatic,main,68,20251118-113243,local,global,300,H,H,A,A,A-H.png,H-A.png,hH,hH,mask-1.png,mask-2.png,h,1,1.5958439000023645,h,1,0.2469757000071695,0.04755719999957364,0.048514100002648775,0.09855359999346547,0.0995074000020395,0.2988993999970262
RSVPLG03,md,20251118-112552,1.0.2,20251105-084826,745,Experiment,Both,1,Automatic,main,69,20251118-113248,global,global,750,H,H,A,E,H-A.png,H-E.png,hH,hH,mask-1.png,mask-4.png,h,1,0.4804262999969069,h,1,0.16484569999738596,0.04749879999872064,0.046620000000984874,0.09841299999970943,0.10039790000155335,0.7488475999998627
RSVPLG03,md,20251118-112552,1.0.2,20251105-084826,745,Experiment,Both,1,Automatic,main,70,20251118-113253,global,global,750,H,S,A,A,H-A.png,S-A.png,hH,sS,mask-4.png,mask-1.png,h,1,1.645219600002747,s,1,0.9068792000034591,0.04772619999857852,0.04843740000069374,0.0998741000003065,0.10049209999851882,0.7498291000010795
RSVPLG03,md,20251118-112552,1.0.2,20251105-084826,745,Experiment,Both,1,Automatic,main,71,20251118-113259,global,local,750,S,S,E,A,S-E.png,A-S.png,sS,sS,mask-3.png,mask-1.png,s,1,0.8009946000020136,h,0,0.2371528999938164,0.04754240000329446,0.047648200001276564,0.09862810000049649,0.09990619999734918,0.7488087000019732
RSVPLG03,md,20251118-112552,1.0.2,20251105-084826,745,Experiment,Both,1,Automatic,main,72,20251118-113305,local,global,750,S,S,A,E,A-S.png,S-E.png,sS,sS,mask-4.png,mask-1.png,s,1,0.5133189000043785,s,1,0.10849339999549557,0.04654139999911422,0.04756360000465065,0.0985616999969352,0.09859100000176113,0.7500471999956062
RSVPLG03,md,20251118-112552,1.0.2,20251105-084826,745,Experiment,Both,1,Automatic,main,73,20251118-113309,global,local,750,H,H,A,A,H-A.png,A-H.png,hH,hH,mask-3.png,mask-1.png,h,1,0.6434693000046536,h,1,0.10926299999846378,0.0475741000045673,0.04879119999532122,0.10161820000212174,0.10189810000156285,0.7497178000048734
RSVPLG03,md,20251118-112552,1.0.2,20251105-084826,745,Experiment,Both,1,Automatic,main,74,20251118-113314,global,local,300,H,H,A,A,H-A.png,A-H.png,hH,hH,mask-2.png,mask-2.png,h,1,1.5707726999971783,s,0,0.41052330000093207,0.048520900003495626,0.04561670000111917,0.10055190000275616,0.09845780000614468,0.3008449999979348
RSVPLG03,md,20251118-112552,1.0.2,20251105-084826,745,Experiment,Both,1,Automatic,main,75,20251118-113320,global,local,300,S,S,E,E,S-E.png,E-S.png,sS,sS,mask-2.png,mask-2.png,s,1,0.9792903999987175,s,1,1.3226008999990881,0.04769029999442864,0.04771489999984624,0.10091879999527009,0.09925139999540988,0.2994674000001396
RSVPLG03,md,20251118-112552,1.0.2,20251105-084826,745,Experiment,Both,1,Automatic,main,76,20251118-113406,global,global,300,S,H,A,A,S-A.png,H-A.png,sS,hH,mask-1.png,mask-2.png,s,1,0.6366605000002892,h,1,0.022134699996968266,0.0475702999974601,0.04753789999813307,0.09990539999853354,0.09949329999653855,0.2995688000009977
RSVPLG03,md,20251118-112552,1.0.2,20251105-084826,745,Experiment,Both,1,Automatic,main,77,20251118-113411,local,global,750,H,S,A,E,A-H.png,S-E.png,hH,sS,mask-4.png,mask-1.png,h,1,0.7327753999998095,s,1,0.05428550000215182,0.04640799999469891,0.046546199999284,0.09844419999717502,0.09957619999477174,0.7497495999996318
RSVPLG03,md,20251118-112552,1.0.2,20251105-084826,745,Experiment,Both,1,Automatic,main,78,20251118-113416,global,global,300,H,H,A,A,H-A.png,H-A.png,hH,hH,mask-4.png,mask-1.png,h,1,0.5456103000033181,h,1,0.0740458000000217,0.047522300003038254,0.048678699997253716,0.10058040000149049,0.09988879999582423,0.29990730000281474
RSVPLG03,md,20251118-112552,1.0.2,20251105-084826,745,Experiment,Both,1,Automatic,main,79,20251118-113420,global,global,750,H,S,A,A,H-A.png,S-A.png,hH,sS,mask-2.png,mask-2.png,h,1,0.49848609999753535,s,1,0.017619400001422036,0.048719500002334826,0.047744499999680556,0.10092959999747109,0.10008869999728631,0.7499602000025334
RSVPLG03,md,20251118-112552,1.0.2,20251105-084826,745,Experiment,Both,1,Automatic,main,80,20251118-113424,global,local,750,H,S,E,A,H-E.png,A-S.png,hH,sS,mask-2.png,mask-2.png,h,1,0.5553033999967738,s,1,0.004720199998700991,0.04769769999984419,0.04768179999518907,0.09911509999801638,0.09961810000095284,0.7498631999987992
RSVPLG03,md,20251118-112552,1.0.2,20251105-084826,745,Experiment,Both,1,Automatic,main,81,20251118-113429,global,local,300,H,H,E,E,H-E.png,E-H.png,hH,hH,mask-4.png,mask-1.png,h,1,1.9534727999998722,s,0,0.06876149999879999,0.04710939999495167,0.04684689999703551,0.10050879999471363,0.1002509000027203,0.30026969999744324
RSVPLG03,md,20251118-112552,1.0.2,20251105-084826,745,Experiment,Both,1,Automatic,main,82,20251118-113435,global,global,300,S,S,E,A,S-E.png,S-A.png,sS,sS,mask-3.png,mask-1.png,s,1,0.5916433000020334,s,1,0.12002859999483917,0.048644300004525576,0.046007700002519414,0.10089710000465857,0.09907570000359556,0.3005856000017957
RSVPLG03,md,20251118-112552,1.0.2,20251105-084826,745,Experiment,Both,1,Automatic,main,83,20251118-113439,local,local,750,H,S,E,E,E-H.png,E-S.png,hH,sS,mask-2.png,mask-1.png,h,1,0.5708318000033614,s,1,0.006702200000290759,0.048545999998168554,0.04754930000490276,0.10054120000131661,0.10058520000166027,0.7502002999972319
RSVPLG03,md,20251118-112552,1.0.2,20251105-084826,745,Experiment,Both,1,Automatic,main,84,20251118-113444,global,local,750,S,S,A,E,S-A.png,E-S.png,sS,sS,mask-3.png,mask-2.png,s,1,0.44709750000038184,s,1,0.07901380000112113,0.046847199999319855,0.04773820000264095,0.1010043999995105,0.09897089999867603,0.7505535000018426
RSVPLG03,md,20251118-112552,1.0.2,20251105-084826,745,Experiment,Both,1,Automatic,main,85,20251118-113448,local,global,750,S,H,E,A,E-S.png,H-A.png,sS,hH,mask-3.png,mask-1.png,s,1,0.8958841999992728,h,1,0.0521664999978384,0.04704929999570595,0.04749659999652067,0.1010928999967291,0.10028339999553282,0.7509309000015492
RSVPLG03,md,20251118-112552,1.0.2,20251105-084826,745,Experiment,Both,1,Automatic,main,86,20251118-113454,global,global,750,S,S,A,E,S-A.png,S-E.png,sS,sS,mask-2.png,mask-2.png,s,1,0.5463782999941031,s,1,0.0713536000039312,0.048511500004678965,0.04751280000346014,0.09951680000085616,0.10152190000371775,0.749154199998884
RSVPLG03,md,20251118-112552,1.0.2,20251105-084826,745,Experiment,Both,1,Automatic,main,87,20251118-113458,local,global,750,H,S,E,E,E-H.png,S-E.png,hH,sS,mask-1.png,mask-2.png,h,1,0.7763003999934881,s,1,0.03561739999713609,0.0475155000021914,0.04749440000159666,0.09857819999888306,0.09955900000204565,0.7485363000014331
RSVPLG03,md,20251118-112552,1.0.2,20251105-084826,745,Experiment,Both,1,Automatic,main,88,20251118-113503,global,local,750,H,S,A,A,H-A.png,A-S.png,hH,sS,mask-2.png,mask-1.png,h,1,0.8153487000017776,s,1,0.9275668999980553,0.04580800000258023,0.0466861999957473,0.0988844000021345,0.0989079999999376,0.7492852000068524
RSVPLG03,md,20251118-112552,1.0.2,20251105-084826,745,Experiment,Both,1,Automatic,main,89,20251118-113508,local,global,300,S,H,A,E,A-S.png,H-E.png,sS,hH,mask-4.png,mask-4.png,s,1,2.900842199996987,s,0,1.492862499995681,0.04753789999813307,0.04853670000011334,0.09961520000069868,0.10056160000385717,0.29894019999483135
RSVPLG03,md,20251118-112552,1.0.2,20251105-084826,745,Experiment,Both,1,Automatic,main,90,20251118-113516,global,local,300,H,H,A,A,H-A.png,A-H.png,hH,hH,mask-4.png,mask-1.png,h,1,0.6765388999992865,h,1,0.10547680000308901,0.04757690000406001,0.047735200001625344,0.09965850000298815,0.09984350000013364,0.2998410000000149
RSVPLG03,md,20251118-112552,1.0.2,20251105-084826,745,Experiment,Both,1,Automatic,main,91,20251118-113521,local,local,750,H,S,E,E,E-H.png,E-S.png,hH,sS,mask-3.png,mask-4.png,h,1,0.4791001000048709,s,1,0.03308159999869531,0.04975589999958174,0.045705399999860674,0.10204499999963446,0.09896100000332808,0.7519497999965097
RSVPLG03,md,20251118-112552,1.0.2,20251105-084826,745,Experiment,Both,1,Automatic,main,92,20251118-113525,local,global,750,S,S,A,E,A-S.png,S-E.png,sS,sS,mask-4.png,mask-3.png,s,1,1.3621805000002496,s,1,0.10141719999955967,0.0456930999935139,0.047824500004935544,0.09988399999565445,0.09903810000105295,0.7492223999943235
RSVPLG03,md,20251118-112552,1.0.2,20251105-084826,745,Experiment,Both,1,Automatic,main,93,20251118-113531,global,global,750,H,S,E,E,H-E.png,S-E.png,hH,sS,mask-2.png,mask-4.png,h,1,0.738001700003224,s,1,0.00991240000439575,0.04644420000113314,0.04784549999749288,0.0997503999969922,0.09989209999912418,0.7491363000008278
RSVPLG03,md,20251118-112552,1.0.2,20251105-084826,745,Experiment,Both,1,Automatic,main,94,20251118-113536,local,global,300,H,H,E,E,E-H.png,H-E.png,hH,hH,mask-4.png,mask-2.png,h,1,1.2217864999984158,s,0,0.02733319999970263,0.046517800001311116,0.04577850000350736,0.09952940000221133,0.09898470000189263,0.30018240000208607
RSVPLG03,md,20251118-112552,1.0.2,20251105-084826,745,Experiment,Both,1,Automatic,main,95,20251118-113541,local,local,300,S,H,A,A,A-S.png,A-H.png,sS,hH,mask-1.png,mask-2.png,s,1,1.013384700003371,h,1,0.10913060000166297,0.04653320000215899,0.047534299999824725,0.09965319999901112,0.10023999999975786,0.29844730000331765
RSVPLG03,md,20251118-112552,1.0.2,20251105-084826,745,Experiment,Both,1,Automatic,main,96,20251118-113545,local,local,300,H,S,A,E,A-H.png,E-S.png,hH,sS,mask-2.png,mask-2.png,h,1,0.6150407000022824,s,1,0.0017703999983496033,0.04569189999892842,0.04843799999798648,0.09858559999702265,0.09959949999756645,0.29866900000342866
RSVPLG03,md,20251118-112552,1.0.2,20251105-084826,745,Experiment,Both,1,Automatic,main,97,20251118-113550,global,global,750,S,S,A,E,S-A.png,S-E.png,sS,sS,mask-1.png,mask-1.png,s,1,0.6387392000033287,s,1,0.07753869999578455,0.0475363000005018,0.046692100004293025,0.1005349999977625,0.09928430000582011,0.7500126999948407
RSVPLG03,md,20251118-112552,1.0.2,20251105-084826,745,Experiment,Both,1,Automatic,main,98,20251118-113554,global,local,750,S,H,E,A,S-E.png,A-H.png,sS,hH,mask-4.png,mask-1.png,s,1,0.4978717999983928,h,1,0.037958000000799075,0.046511000000464264,0.04756630000338191,0.10057329999835929,0.09956520000559976,0.748985399994126
RSVPLG03,md,20251118-112552,1.0.2,20251105-084826,745,Experiment,Both,1,Automatic,main,99,20251118-113559,global,global,750,S,S,E,E,S-E.png,S-E.png,sS,sS,mask-4.png,mask-1.png,s,1,0.49607589999504853,s,1,0.05965499999729218,0.04771159999654628,0.047720399998070206,0.10019160000229022,0.09999860000243643,0.7488531999988481
RSVPLG03,md,20251118-112552,1.0.2,20251105-084826,745,Experiment,Both,1,Automatic,main,100,20251118-113604,local,global,300,S,H,A,E,A-S.png,H-E.png,sS,hH,mask-1.png,mask-4.png,s,1,1.206815400000778,h,1,0.18556730000273092,0.04655240000283811,0.047536400001263246,0.09957009999925504,0.09958149999874877,0.2997959999993327
RSVPLG03,,20251118-113656,1.0.2,20251105-084826,745,Experiment,Both,1,Automatic,warmup,1,20251118-113717,local,global,300,S,S,E,E,E-S.png,S-E.png,sS,sS,mask-3.png,mask-3.png,s,1,0.7082893999977387,h,0,0.19906369999807794,0.04015610000351444,0.046878799999831244,0.09339790000376524,0.0980550999956904,0.29390020000573713
RSVPLG03,,20251118-113656,1.0.2,20251105-084826,745,Experiment,Both,1,Automatic,warmup,2,20251118-113721,local,global,750,S,S,E,E,E-S.png,S-E.png,sS,sS,mask-1.png,mask-4.png,s,1,0.714567499999248,s,1,0.057667299995955545,0.04871100000309525,0.04765889999544015,0.09982850000233157,0.10094869999738876,0.7494249000010313
RSVPLG03,,20251118-113656,1.0.2,20251105-084826,745,Experiment,Both,1,Automatic,warmup,3,20251118-113726,global,local,750,S,H,A,E,S-A.png,E-H.png,sS,hH,mask-4.png,mask-1.png,s,1,0.7144794999985606,h,1,0.05852520000189543,0.04860769999504555,0.04874330000166083,0.10192629999801284,0.09992509999574395,0.7500467999998364
RSVPLG03,,20251118-113656,1.0.2,20251105-084826,745,Experiment,Both,1,Automatic,warmup,4,20251118-113731,local,local,300,H,S,A,E,A-H.png,E-S.png,hH,sS,mask-4.png,mask-3.png,h,1,0.7046847000019625,s,1,0.8925502999991295,0.04861389999859966,0.04732430000149179,0.10060099999827798,0.10027830000035465,0.300027899997076
RSVPLG03,,20251118-113656,1.0.2,20251105-084826,745,Experiment,Both,1,Automatic,main,5,20251118-113736,global,global,750,S,H,E,A,S-E.png,H-A.png,sS,hH,mask-1.png,mask-1.png,s,1,0.39660279999952763,h,1,0.052353899998706765,0.045696199995290954,0.04752780000126222,0.09990249999827938,0.10062960000504972,0.7481017999962205
RSVPLG03,,20251118-113656,1.0.2,20251105-084826,745,Experiment,Both,1,Automatic,main,6,20251118-113741,global,local,300,S,H,A,A,S-A.png,A-H.png,sS,hH,mask-2.png,mask-3.png,s,1,0.5019793000028585,h,1,0.07602489999408135,0.04905210000288207,0.04901080000126967,0.10014000000228407,0.10009310000168625,0.30004570000164676
RSVPLG03,,20251118-113656,1.0.2,20251105-084826,745,Experiment,Both,1,Automatic,main,7,20251118-113745,global,global,750,H,H,A,A,H-A.png,H-A.png,hH,hH,mask-4.png,mask-1.png,h,1,0.5130662000010489,h,1,0.08390499999950407,0.047527099995932076,0.04754500000126427,0.10055769999598851,0.09954490000382066,0.749782699997013
RSVPLG03,,20251118-113656,1.0.2,20251105-084826,745,Experiment,Both,1,Automatic,main,8,20251118-113750,global,global,750,S,S,E,A,S-E.png,S-A.png,sS,sS,mask-2.png,mask-3.png,s,1,0.4567088999974658,s,1,0.15385359999345383,0.04852720000053523,0.04857069999707164,0.10056780000013532,0.10162499999569263,0.7499127999981283
RSVPLG03,,20251118-113656,1.0.2,20251105-084826,745,Experiment,Both,1,Automatic,main,9,20251118-113754,global,global,300,S,S,E,E,S-E.png,S-E.png,sS,sS,mask-4.png,mask-1.png,s,1,0.7017183999996632,s,1,0.2287475000048289,0.046532400003343355,0.04554810000263387,0.10058160000335192,0.0995963000023039,0.3009325000020908
RSVPLG03,,20251118-113656,1.0.2,20251105-084826,745,Experiment,Both,1,Automatic,main,10,20251118-113759,local,local,750,H,H,E,A,E-H.png,A-H.png,hH,hH,mask-2.png,mask-1.png,h,1,0.7554234000053839,h,1,0.10510169999906793,0.0475153000006685,0.04750919999787584,0.10056210000038845,0.0984972000005655,0.750103800004581
RSVPLG03,,20251118-113656,1.0.2,20251105-084826,745,Experiment,Both,1,Automatic,main,11,20251118-113804,global,local,750,H,H,E,A,H-E.png,A-H.png,hH,hH,mask-1.png,mask-1.png,h,1,0.44987570000375854,h,1,0.1292364000037196,0.046818099996016826,0.0487377999961609,0.10003549999964889,0.10196719999657944,0.7481855000005453
RSVPLG03,,20251118-113656,1.0.2,20251105-084826,745,Experiment,Both,1,Automatic,main,12,20251118-113808,local,local,750,S,H,A,A,A-S.png,A-H.png,sS,hH,mask-1.png,mask-4.png,s,1,0.4491167000014684,h,1,0.08439429999998538,0.04566000000340864,0.0474097000042093,0.09985969999979716,0.10021360000246204,0.7492381999982172
RSVPLG03,,20251118-113656,1.0.2,20251105-084826,745,Experiment,Both,1,Automatic,main,13,20251118-113813,global,local,750,H,H,A,E,H-A.png,E-H.png,hH,hH,mask-1.png,mask-4.png,h,1,3.2821569000007003,h,1,0.18572149999818066,0.047749400000611786,0.047701199997391086,0.10013140000228304,0.09932649999973364,0.7500107000014395
RSVPLG03,,20251118-113656,1.0.2,20251105-084826,745,Experiment,Both,1,Automatic,main,14,20251118-113821,local,global,300,S,S,A,E,A-S.png,S-E.png,sS,sS,mask-2.png,mask-1.png,s,1,1.1456237999955192,h,0,0.29300859999784734,0.045753599995805416,0.047713799998746254,0.09925769999972545,0.10010060000058729,0.2980463999992935
RSVPLG03,,20251118-113656,1.0.2,20251105-084826,745,Experiment,Both,1,Automatic,main,15,20251118-113826,local,local,300,S,H,A,A,A-S.png,A-H.png,sS,hH,mask-2.png,mask-3.png,s,1,1.7615977000023122,h,1,0.33295619999989867,0.04774790000374196,0.0480868999948143,0.10000769999896875,0.10123629999725381,0.29884030000539497
RSVPLG03,,20251118-113656,1.0.2,20251105-084826,745,Experiment,Both,1,Automatic,main,16,20251118-113831,local,global,300,S,H,E,A,E-S.png,H-A.png,sS,hH,mask-4.png,mask-1.png,s,1,1.0571111999961431,h,1,0.16630810000060592,0.04720349999843165,0.047323699996923096,0.10023609999916516,0.10013559999788413,0.29988370000501163
RSVPLG03,,20251118-113656,1.0.2,20251105-084826,745,Experiment,Both,1,Automatic,main,17,20251118-113836,global,local,750,S,S,E,E,S-E.png,E-S.png,sS,sS,mask-3.png,mask-2.png,s,1,0.5941864000051282,s,1,0.0852634000038961,0.04851749999943422,0.04650359999504872,0.10053020000486868,0.09952709999924991,0.7509094000051846
RSVPLG03,,20251118-113656,1.0.2,20251105-084826,745,Experiment,Both,1,Automatic,main,18,20251118-113841,local,global,750,H,H,A,E,A-H.png,H-E.png,hH,hH,mask-4.png,mask-3.png,h,1,0.7469981000031112,h,1,0.07707890000165207,0.04744760000176029,0.047572700001182966,0.10052720000385307,0.10060420000081649,0.7506517000001622
RSVPLG03,,20251118-113656,1.0.2,20251105-084826,745,Experiment,Both,1,Automatic,main,19,20251118-113846,local,global,750,H,H,A,A,A-H.png,H-A.png,hH,hH,mask-1.png,mask-1.png,h,1,0.387377999999444,h,1,0.07603449999442091,0.04672579999896698,0.04743070000404259,0.09981450000486802,0.10038660000282107,0.7487413999988348
RSVPLG03,,20251118-113656,1.0.2,20251105-084826,745,Experiment,Both,1,Automatic,main,20,20251118-113850,local,global,300,S,S,A,A,A-S.png,S-A.png,sS,sS,mask-4.png,mask-2.png,s,1,0.853136199999426,h,0,0.1512758999961079,0.04774599999655038,0.04715299999952549,0.10004569999728119,0.10045420000096783,0.29817629999888595
RSVPLG03,,20251118-113656,1.0.2,20251105-084826,745,Experiment,Both,1,Automatic,main,21,20251118-113855,local,global,750,H,H,E,E,E-H.png,H-E.png,hH,hH,mask-1.png,mask-1.png,h,1,0.609507000001031,h,1,0.08820579999883194,0.04566280000290135,0.04772879999654833,0.09987849999743048,0.0999967999960063,0.7478996999998344
RSVPLG03,,20251118-113656,1.0.2,20251105-084826,745,Experiment,Both,1,Automatic,main,22,20251118-113900,local,local,750,S,S,A,A,A-S.png,A-S.png,sS,sS,mask-1.png,mask-4.png,s,1,0.5589491999999154,s,1,0.0899003000013181,0.047602200000255834,0.04789890000392916,0.10062900000048103,0.09957150000263937,0.7503661000009743
RSVPLG03,,20251118-113656,1.0.2,20251105-084826,745,Experiment,Both,1,Automatic,main,23,20251118-113905,global,global,300,S,H,A,E,S-A.png,H-E.png,sS,hH,mask-2.png,mask-2.png,s,1,0.5637615999949048,h,1,0.09475709999969695,0.048526300000958145,0.047345899998617824,0.10149889999593142,0.10128919999988284,0.29989000000205124
RSVPLG03,,20251118-113656,1.0.2,20251105-084826,745,Experiment,Both,1,Automatic,main,24,20251118-113909,global,local,300,S,H,A,A,S-A.png,A-H.png,sS,hH,mask-1.png,mask-1.png,s,1,1.16014400000131,s,0,1.2589421999946353,0.04757400000380585,0.04753570000320906,0.10056560000521131,0.10025220000534318,0.30050219999975525
RSVPLG03,,20251118-113656,1.0.2,20251105-084826,745,Experiment,Both,1,Automatic,main,25,20251118-113915,global,local,750,S,S,A,A,S-A.png,A-S.png,sS,sS,mask-3.png,mask-4.png,s,1,0.5619138999973075,s,1,0.07755739999993239,0.04654199999640696,0.04670500000065658,0.09969270000146935,0.10067200000048615,0.7490812999967602
RSVPLG03,,20251118-113656,1.0.2,20251105-084826,745,Experiment,Both,1,Automatic,main,26,20251118-114014,global,global,300,H,S,A,E,H-A.png,S-E.png,hH,sS,mask-3.png,mask-1.png,h,1,0.5164446999988286,s,1,0.0026486999995540828,0.048669199997675605,0.047275600001739804,0.10014619999856222,0.10013679999974556,0.3001570999986143
RSVPLG03,,20251118-113656,1.0.2,20251105-084826,745,Experiment,Both,1,Automatic,main,27,20251118-114018,local,global,300,S,H,E,A,E-S.png,H-A.png,sS,hH,mask-1.png,mask-4.png,s,1,0.9716346000059275,h,1,0.023528000005171634,0.047571099996275734,0.04855169999791542,0.09960609999689041,0.09958049999841023,0.29888449999998556
RSVPLG03,,20251118-113656,1.0.2,20251105-084826,745,Experiment,Both,1,Automatic,main,28,20251118-114023,global,local,300,S,H,E,E,S-E.png,E-H.png,sS,hH,mask-4.png,mask-2.png,s,1,0.982073200000741,h,1,0.13923960000101943,0.04670550000446383,0.0485804999989341,0.09983459999784827,0.0995591000028071,0.29846330000145826
RSVPLG03,,20251118-113656,1.0.2,20251105-084826,745,Experiment,Both,1,Automatic,main,29,20251118-114027,global,global,750,H,H,A,A,H-A.png,H-A.png,hH,hH,mask-2.png,mask-3.png,h,1,0.4582721999977366,h,1,0.06925149999733549,0.048792200002935715,0.04569369999808259,0.09998210000048857,0.09989140000107,0.7514299000031315
RSVPLG03,,20251118-113656,1.0.2,20251105-084826,745,Experiment,Both,1,Automatic,main,30,20251118-114032,global,local,750,S,H,E,A,S-E.png,A-H.png,sS,hH,mask-4.png,mask-2.png,s,1,0.9944764000028954,h,1,0.11836999999650288,0.047686100006103516,0.045727499993517995,0.10189200000604615,0.0989350999952876,0.751531600006274
RSVPLG03,,20251118-113656,1.0.2,20251105-084826,745,Experiment,Both,1,Automatic,main,31,20251118-114037,local,local,750,H,H,E,A,E-H.png,A-H.png,hH,hH,mask-4.png,mask-4.png,h,1,0.5446138999977848,h,1,0.07150260000344133,0.047444200004974846,0.04668859999947017,0.10100710000551771,0.09989550000318559,0.7502199000009568
RSVPLG03,,20251118-113656,1.0.2,20251105-084826,745,Experiment,Both,1,Automatic,main,32,20251118-114042,global,local,300,H,H,E,E,H-E.png,E-H.png,hH,hH,mask-2.png,mask-1.png,h,1,0.5495327000026009,s,0,0.6490053000015905,0.04723829999420559,0.04767790000187233,0.09843069999624277,0.10189349999564001,0.29805579999811016
RSVPLG03,,20251118-113656,1.0.2,20251105-084826,745,Experiment,Both,1,Automatic,main,33,20251118-114047,local,global,300,H,S,E,A,E-H.png,S-A.png,hH,sS,mask-4.png,mask-2.png,h,1,2.6888346999985515,s,1,0.1671795000002021,0.04543920000287471,0.04858480000257259,0.09877620000042953,0.10064740000234451,0.2982329000005848
RSVPLG03,,20251118-113656,1.0.2,20251105-084826,745,Experiment,Both,1,Automatic,main,34,20251118-114053,global,local,750,S,H,A,E,S-A.png,E-H.png,sS,hH,mask-4.png,mask-1.png,s,1,1.3560631000000285,h,1,0.23647959999652812,0.04751419999956852,0.047502300003543496,0.09851520000665914,0.09973010000248905,0.7486616000023787
RSVPLG03,,20251118-113656,1.0.2,20251105-084826,745,Experiment,Both,1,Automatic,main,35,20251118-114059,global,local,300,S,S,E,A,S-E.png,A-S.png,sS,sS,mask-2.png,mask-4.png,s,1,1.2770391999947606,h,0,0.188198799995007,0.04856899999867892,0.04751620000024559,0.10159829999611247,0.10054800000216346,0.3000735999958124
RSVPLG03,,20251118-113656,1.0.2,20251105-084826,745,Experiment,Both,1,Automatic,main,36,20251118-114104,global,local,300,S,H,E,A,S-E.png,A-H.png,sS,hH,mask-3.png,mask-4.png,s,1,1.8078530999991926,h,1,0.2532764000061434,0.047657200004323386,0.045872100003180094,0.10086860000592424,0.09857120000378927,0.3004252000027918
RSVPLG03,,20251118-113656,1.0.2,20251105-084826,745,Experiment,Both,1,Automatic,main,37,20251118-114110,global,global,300,H,S,E,A,H-E.png,S-A.png,hH,sS,mask-1.png,mask-2.png,h,1,1.9872438000020338,h,0,0.19502730000385782,0.047265699999115895,0.04750649999914458,0.09828550000383984,0.09953040000254987,0.29856260000087786
RSVPLG03,,20251118-113656,1.0.2,20251105-084826,745,Experiment,Both,1,Automatic,main,38,20251118-114116,local,local,750,H,S,A,A,A-H.png,A-S.png,hH,sS,mask-4.png,mask-4.png,h,1,0.5632522000014433,s,1,0.03373709999868879,0.04753499999787891,0.04591939999954775,0.09861589999491116,0.09885450000001583,0.7495745999985957
RSVPLG03,,20251118-113656,1.0.2,20251105-084826,745,Experiment,Both,1,Automatic,main,39,20251118-114120,global,local,750,S,S,A,A,S-A.png,A-S.png,sS,sS,mask-1.png,mask-4.png,s,1,0.5939711000028183,s,1,0.06778739999572281,0.04766699999890989,0.048586600001726765,0.10184260000096401,0.09899749999749474,0.7502610000010463
RSVPLG03,,20251118-113656,1.0.2,20251105-084826,745,Experiment,Both,1,Automatic,main,40,20251118-114125,local,global,300,S,S,A,E,A-S.png,S-E.png,sS,sS,mask-1.png,mask-1.png,s,1,2.143791999995301,h,0,0.2315493999994942,0.04740170000150101,0.047536400001263246,0.09877509999932954,0.09883149999950547,0.29986929999722634
RSVPLG03,,20251118-113656,1.0.2,20251105-084826,745,Experiment,Both,1,Automatic,main,41,20251118-114131,local,local,750,H,S,A,E,A-H.png,E-S.png,hH,sS,mask-3.png,mask-1.png,h,1,0.9789762000000337,s,1,0.036530699995637406,0.04867319999902975,0.04765200000110781,0.09985890000098152,0.09984529999928782,0.7499752000003355
RSVPLG03,,20251118-113656,1.0.2,20251105-084826,745,Experiment,Both,1,Automatic,main,42,20251118-114136,global,local,750,H,H,E,A,H-E.png,A-H.png,hH,hH,mask-3.png,mask-2.png,h,1,0.5189180000015767,h,1,0.13668860000325367,0.04858560000138823,0.04774049999832641,0.10079679999762448,0.09926299999642652,0.7499588999999105
RSVPLG03,,20251118-113656,1.0.2,20251105-084826,745,Experiment,Both,1,Automatic,main,43,20251118-114141,global,global,300,H,S,A,A,H-A.png,S-A.png,hH,sS,mask-4.png,mask-1.png,h,1,0.5030890999987605,s,1,0.10858449999795994,0.04751799999939976,0.04553689999738708,0.10055439999996452,0.09905029999936232,0.3018329000042286
RSVPLG03,,20251118-113656,1.0.2,20251105-084826,745,Experiment,Both,1,Automatic,main,44,20251118-114145,global,global,750,H,H,A,A,H-A.png,H-A.png,hH,hH,mask-4.png,mask-3.png,h,1,0.41930149999825517,h,1,0.11638039999525063,0.04676929999550339,0.04670600000099512,0.09997569999541156,0.09987360000377521,0.7497201999940444
RSVPLG03,,20251118-113656,1.0.2,20251105-084826,745,Experiment,Both,1,Automatic,main,45,20251118-114150,global,global,750,S,S,E,A,S-E.png,S-A.png,sS,sS,mask-1.png,mask-1.png,s,1,1.2188259999966249,h,0,0.31096439999964787,0.04725210000469815,0.04745940000429982,0.10010950000287266,0.09954310000466648,0.7494545000008657
RSVPLG03,,20251118-113656,1.0.2,20251105-084826,745,Experiment,Both,1,Automatic,main,46,20251118-114156,local,local,750,S,S,A,A,A-S.png,A-S.png,sS,sS,mask-2.png,mask-2.png,s,1,0.5270117999971262,s,1,0.106257799998275,0.047501099994406104,0.04764150000119116,0.09960539999883622,0.09970130000147037,0.7505363999953261
RSVPLG03,,20251118-113656,1.0.2,20251105-084826,745,Experiment,Both,1,Automatic,main,47,20251118-114201,global,global,300,S,H,E,A,S-E.png,H-A.png,sS,hH,mask-4.png,mask-3.png,s,1,0.9861315000016475,h,1,0.22436159999779193,0.047248700000636745,0.04723050000029616,0.09955400000035297,0.09950650000246242,0.299995499997749
RSVPLG03,,20251118-113656,1.0.2,20251105-084826,745,Experiment,Both,1,Automatic,main,48,20251118-114205,local,local,300,H,H,A,A,A-H.png,A-H.png,hH,hH,mask-1.png,mask-3.png,h,1,0.6406949000011082,h,1,0.23497869999846444,0.04650470000342466,0.046973299999081064,0.09972510000079637,0.10024529999645893,0.299380000004021
RSVPLG03,,20251118-113656,1.0.2,20251105-084826,745,Experiment,Both,1,Automatic,main,49,20251118-114210,global,local,750,S,H,E,A,S-E.png,A-H.png,sS,hH,mask-1.png,mask-2.png,s,1,0.48099079999519745,h,1,0.2344678000008571,0.04570040000544395,0.0477314000017941,0.09989170000335434,0.09991040000022622,0.7480759000027319
RSVPLG03,,20251118-113656,1.0.2,20251105-084826,745,Experiment,Both,1,Automatic,main,50,20251118-114215,local,global,300,S,S,E,A,E-S.png,S-A.png,sS,sS,mask-4.png,mask-3.png,s,1,1.1691688999999315,h,0,0.2565236000009463,0.046590699996158946,0.04720829999860143,0.09961420000036014,0.09921849999955157,0.29945299999963026
RSVPLG03,,20251118-113656,1.0.2,20251105-084826,745,Experiment,Both,1,Automatic,main,51,20251118-114354,local,global,300,S,S,A,E,A-S.png,S-E.png,sS,sS,mask-4.png,mask-4.png,s,1,0.7500956000003498,s,1,0.4860060999999405,0.04758929999661632,0.04764689999865368,0.10176520000095479,0.09966949999943608,0.30140060000121593
RSVPLG03,,20251118-113656,1.0.2,20251105-084826,745,Experiment,Both,1,Automatic,main,52,20251118-114359,global,global,750,S,S,A,A,S-A.png,S-A.png,sS,sS,mask-3.png,mask-2.png,h,0,0.8591688000014983,s,1,0.7158311000021058,0.04773410000052536,0.04773879999993369,0.0989804000055301,0.09896229999867501,0.7499959000051604
RSVPLG03,,20251118-113656,1.0.2,20251105-084826,745,Experiment,Both,1,Automatic,main,53,20251118-114405,local,local,300,S,H,A,A,A-S.png,A-H.png,sS,hH,mask-4.png,mask-1.png,s,1,0.408704100002069,h,1,0.9376278000054299,0.046709000002010725,0.04870939999818802,0.09996160000446253,0.09991279999667313,0.2985543000031612
RSVPLG03,,20251118-113656,1.0.2,20251105-084826,745,Experiment,Both,1,Automatic,main,54,20251118-114410,local,global,750,S,H,E,A,E-S.png,H-A.png,sS,hH,mask-4.png,mask-1.png,s,1,0.44552599999587983,h,1,0.15407359999517212,0.04672329999448266,0.04568270000163466,0.09894669999630423,0.0999117000028491,0.7500061999962782
RSVPLG03,,20251118-113656,1.0.2,20251105-084826,745,Experiment,Both,1,Automatic,main,55,20251118-114414,local,local,300,H,H,E,E,E-H.png,E-H.png,hH,hH,mask-1.png,mask-1.png,h,1,0.41291869999986375,h,1,0.21687099999689963,0.04666890000225976,0.047517300001345575,0.09912839999742573,0.10052159999759169,0.2981475999986287
RSVPLG03,,20251118-113656,1.0.2,20251105-084826,745,Experiment,Both,1,Automatic,main,56,20251118-114419,global,local,300,S,S,A,A,S-A.png,A-S.png,sS,sS,mask-2.png,mask-1.png,s,1,0.7276847000030102,s,1,0.3639582999967388,0.049501299996336456,0.04752759999973932,0.10153880000143545,0.10051349999412196,0.29980600000271806
RSVPLG03,,20251118-113656,1.0.2,20251105-084826,745,Experiment,Both,1,Automatic,main,57,20251118-114424,global,global,300,S,H,E,A,S-E.png,H-A.png,sS,hH,mask-2.png,mask-3.png,s,1,1.392927899993083,h,1,0.24615500000072643,0.04751440000109142,0.0485084999963874,0.10052580000046873,0.09952039999916451,0.3007900000011432
RSVPLG03,,20251118-113656,1.0.2,20251105-084826,745,Experiment,Both,1,Automatic,main,58,20251118-114429,local,global,750,H,H,A,E,A-H.png,H-E.png,hH,hH,mask-2.png,mask-3.png,h,1,0.5266110000011395,h,1,0.18230079999921145,0.04749739999533631,0.04774040000484092,0.09857769999507582,0.09966200000053504,0.7482468999951379
RSVPLG03,,20251118-113656,1.0.2,20251105-084826,745,Experiment,Both,1,Automatic,main,59,20251118-114434,global,global,300,H,S,E,A,H-E.png,S-A.png,hH,sS,mask-1.png,mask-1.png,h,1,1.1140884999986156,s,1,0.3326247000004514,0.047561100000166334,0.04750790000252891,0.0995757999990019,0.09882430000288878,0.30042279999906896
RSVPLG03,,20251118-113656,1.0.2,20251105-084826,745,Experiment,Both,1,Automatic,main,60,20251118-114439,local,global,750,S,S,E,E,E-S.png,S-E.png,sS,sS,mask-3.png,mask-3.png,s,1,1.58138190000318,h,0,0.1845893999998225,0.04852319999918109,0.048521999997319654,0.10158450000017183,0.10072460000083083,0.7496381000019028
RSVPLG03,,20251118-113656,1.0.2,20251105-084826,745,Experiment,Both,1,Automatic,main,61,20251118-114445,global,local,750,S,S,A,E,S-A.png,E-S.png,sS,sS,mask-3.png,mask-1.png,s,1,1.660536299998057,s,1,0.13589369999681367,0.046559999995224643,0.04759809999814024,0.09844059999886667,0.0986482000007527,0.7493500999989919
RSVPLG03,,20251118-113656,1.0.2,20251105-084826,745,Experiment,Both,1,Automatic,main,62,20251118-114451,local,global,750,H,S,E,A,E-H.png,S-A.png,hH,sS,mask-4.png,mask-4.png,h,1,0.5965877999988152,s,1,0.16800119999970775,0.04750950000016019,0.0485393999988446,0.09853010000369977,0.10053949999564793,0.7483283000037773
RSVPLG03,,20251118-113656,1.0.2,20251105-084826,745,Experiment,Both,1,Automatic,main,63,20251118-114456,local,global,300,H,H,A,A,A-H.png,H-A.png,hH,hH,mask-3.png,mask-1.png,h,1,0.7777927000061027,h,1,0.20477140000002692,0.048565599994617514,0.047529000003123656,0.09896219999791356,0.09930000000167638,0.3001060999959009
RSVPLG03,,20251118-113656,1.0.2,20251105-084826,745,Experiment,Both,1,Automatic,main,64,20251118-114500,global,local,300,H,S,A,A,H-A.png,A-S.png,hH,sS,mask-1.png,mask-3.png,h,1,0.6530626000021584,s,1,0.4540186000012909,0.04738070000166772,0.04845329999807291,0.09912590000021737,0.10017800000059651,0.29908920000161743
RSVPLG03,,20251118-113656,1.0.2,20251105-084826,745,Experiment,Both,1,Automatic,main,65,20251118-114505,local,global,750,H,S,A,A,A-H.png,S-A.png,hH,sS,mask-4.png,mask-4.png,h,1,0.872099199994409,s,1,0.04317989999981364,0.04651449999801116,0.04865089999657357,0.09968619999563089,0.09976269999606302,0.7487098999990849
RSVPLG03,,20251118-113656,1.0.2,20251105-084826,745,Experiment,Both,1,Automatic,main,66,20251118-114510,local,global,750,H,S,E,A,E-H.png,S-A.png,hH,sS,mask-3.png,mask-1.png,h,1,0.7528212999968673,s,1,0.08499870000377996,0.0477000999962911,0.04750700000295183,0.09997070000099484,0.09959720000188099,0.7514168999987305
RSVPLG03,,20251118-113656,1.0.2,20251105-084826,745,Experiment,Both,1,Automatic,main,67,20251118-114515,local,local,300,H,S,A,E,A-H.png,E-S.png,hH,sS,mask-2.png,mask-4.png,h,1,0.5939455000043381,s,1,0.07018519999837736,0.04750580000109039,0.04551790000550682,0.10150760000396986,0.09851760000310605,0.30176180000125896
RSVPLG03,,20251118-113656,1.0.2,20251105-084826,745,Experiment,Both,1,Automatic,main,68,20251118-114520,global,global,750,S,S,A,E,S-A.png,S-E.png,sS,sS,mask-2.png,mask-2.png,s,1,0.45114299999841023,s,1,0.15198679999593878,0.047535899997456,0.04748159999871859,0.1005315000002156,0.099490100001276,0.7501255000024685
RSVPLG03,,20251118-113656,1.0.2,20251105-084826,745,Experiment,Both,1,Automatic,main,69,20251118-114524,local,global,300,S,S,A,A,A-S.png,S-A.png,sS,sS,mask-1.png,mask-3.png,s,1,0.7372880000039004,h,0,0.304312200001732,0.04794890000630403,0.04853259999799775,0.09998550000454998,0.10061670000141021,0.29890890000388026
RSVPLG03,,20251118-113656,1.0.2,20251105-084826,745,Experiment,Both,1,Automatic,main,70,20251118-114529,local,local,300,H,S,A,E,A-H.png,E-S.png,hH,sS,mask-1.png,mask-4.png,h,1,0.5980539000011049,s,1,0.23546899999928428,0.047509300005913246,0.04850409999926342,0.10049900000012713,0.10053260000131559,0.3000141000011354
RSVPLG03,,20251118-113656,1.0.2,20251105-084826,745,Experiment,Both,1,Automatic,main,71,20251118-114534,local,global,300,S,S,A,E,A-S.png,S-E.png,sS,sS,mask-3.png,mask-1.png,s,1,2.5209964999958174,h,0,0.23134239999490092,0.048482600002898835,0.04702980000001844,0.09941950000211364,0.10073749999719439,0.2997380000015255
RSVPLG03,,20251118-113656,1.0.2,20251105-084826,745,Experiment,Both,1,Automatic,main,72,20251118-114540,local,global,750,S,H,A,E,A-S.png,H-E.png,sS,hH,mask-3.png,mask-1.png,s,1,0.866450800000166,h,1,0.18371099999785656,0.04752819999703206,0.04751150000083726,0.09958509999705711,0.09956370000145398,0.749553299996478
RSVPLG03,,20251118-113656,1.0.2,20251105-084826,745,Experiment,Both,1,Automatic,main,73,20251118-114545,global,global,300,S,S,A,A,S-A.png,S-A.png,sS,sS,mask-3.png,mask-1.png,s,1,48.324660199999926,s,1,0.17805990000488237,0.04578570000012405,0.04765000000043074,0.09797479999542702,0.09904909999750089,0.29959709999820916
RSVPLG03,,20251118-113656,1.0.2,20251105-084826,745,Experiment,Both,1,Automatic,main,74,20251118-114637,local,global,750,S,S,A,E,A-S.png,S-E.png,sS,sS,mask-1.png,mask-1.png,s,1,0.5056690999990678,s,1,0.1138169999976526,0.048674099998606835,0.04767030000220984,0.1018908999976702,0.1002401000005193,0.750431699998444
RSVPLG03,,20251118-113656,1.0.2,20251105-084826,745,Experiment,Both,1,Automatic,main,75,20251118-114642,local,global,750,S,S,A,A,A-S.png,S-A.png,sS,sS,mask-1.png,mask-3.png,s,1,0.6329794999983278,s,1,0.33101510000415146,0.047669999999925494,0.04887709999457002,0.09987289999844506,0.10006679999787593,0.7497910000020056
RSVPLG03,,20251118-113656,1.0.2,20251105-084826,745,Experiment,Both,1,Automatic,main,76,20251118-114729,global,local,300,H,S,E,E,H-E.png,E-S.png,hH,sS,mask-1.png,mask-2.png,h,1,1.2365245999972103,s,1,0.32057070000155363,0.0486592999950517,0.046721200000320096,0.10140899999532849,0.09892560000298545,0.3010703999971156
RSVPLG03,,20251118-113656,1.0.2,20251105-084826,745,Experiment,Both,1,Automatic,main,77,20251118-114734,global,global,750,H,S,A,E,H-A.png,S-E.png,hH,sS,mask-1.png,mask-4.png,h,1,0.4310064999954193,s,1,0.011212500001420267,0.0459499999997206,0.04770160000043688,0.09919890000310261,0.0998669999971753,0.7487084000022151
RSVPLG03,,20251118-113656,1.0.2,20251105-084826,745,Experiment,Both,1,Automatic,main,78,20251118-114739,local,local,300,H,H,A,E,A-H.png,E-H.png,hH,hH,mask-2.png,mask-3.png,h,1,0.6280072000008659,h,1,0.059977400000207126,0.047498499996436294,0.048105499998200685,0.09896379999554483,0.10025999999925261,0.2985478999980842
RSVPLG03,,20251118-113656,1.0.2,20251105-084826,745,Experiment,Both,1,Automatic,main,79,20251118-114743,local,local,300,S,S,A,A,A-S.png,A-S.png,sS,sS,mask-2.png,mask-1.png,s,1,0.29221790000156034,s,1,0.10887409999850206,0.04747989999304991,0.04736569999658968,0.10044029999698978,0.1003017999973963,0.299899199999345
RSVPLG03,,20251118-113656,1.0.2,20251105-084826,745,Experiment,Both,1,Automatic,main,80,20251118-114747,global,global,300,H,H,A,A,H-A.png,H-A.png,hH,hH,mask-2.png,mask-1.png,h,1,0.3782904999970924,h,1,0.08587270000134595,0.04766799999924842,0.04767139999603387,0.10086620000220137,0.0998602999970899,0.3004787000027136
RSVPLG03,,20251118-113656,1.0.2,20251105-084826,745,Experiment,Both,1,Automatic,main,81,20251118-114751,local,global,300,H,H,A,E,A-H.png,H-E.png,hH,hH,mask-3.png,mask-2.png,h,1,0.8460761999958777,h,1,0.08982390000164742,0.04567920000408776,0.04872740000428166,0.09987140000157524,0.0999528000029386,0.29849359999934677
RSVPLG03,,20251118-113656,1.0.2,20251105-084826,745,Experiment,Both,1,Automatic,main,82,20251118-114756,local,local,750,H,H,E,E,E-H.png,E-H.png,hH,hH,mask-4.png,mask-4.png,h,1,0.48349169999710284,h,1,0.08385709999856772,0.04771610000170767,0.04666919999726815,0.1001791000016965,0.09963889999926323,0.7491221000018413
RSVPLG03,,20251118-113656,1.0.2,20251105-084826,745,Experiment,Both,1,Automatic,main,83,20251118-114800,local,local,300,H,S,E,E,E-H.png,E-S.png,hH,sS,mask-3.png,mask-2.png,h,1,0.8682251999998698,s,1,0.05518999999912921,0.04588090000470402,0.047640799995861016,0.09899370000493946,0.09936899999593152,0.29930630000308156
RSVPLG03,,20251118-113656,1.0.2,20251105-084826,745,Experiment,Both,1,Automatic,main,84,20251118-114805,global,global,750,S,H,A,A,S-A.png,H-A.png,sS,hH,mask-4.png,mask-1.png,s,1,0.30239840000285767,h,1,0.12982740000006743,0.04757480000262149,0.047698900001705624,0.10092060000170022,0.09882159999688156,0.7510228000028292
RSVPLG03,,20251118-113656,1.0.2,20251105-084826,745,Experiment,Both,1,Automatic,main,85,20251118-114810,global,local,300,S,H,E,E,S-E.png,E-H.png,sS,hH,mask-1.png,mask-4.png,s,1,1.5853673000019626,s,0,0.2015380999946501,0.04751379999652272,0.04648200000519864,0.10029629999917233,0.10030550000374205,0.2997140999941621
RSVPLG03,,20251118-113656,1.0.2,20251105-084826,745,Experiment,Both,1,Automatic,main,86,20251118-114815,global,local,300,S,S,A,A,S-A.png,A-S.png,sS,sS,mask-1.png,mask-4.png,s,1,0.7904356999933952,h,0,0.25125710000429535,0.04767359999823384,0.0478371999997762,0.09973729999910574,0.10100919999968028,0.2992493999990984
RSVPLG03,,20251118-113656,1.0.2,20251105-084826,745,Experiment,Both,1,Automatic,main,87,20251118-114820,global,local,750,S,S,A,A,S-A.png,A-S.png,sS,sS,mask-1.png,mask-2.png,s,1,0.7645042000003741,h,0,0.5069664999973611,0.04881639999803156,0.047193200000037905,0.10001049999846146,0.10037240000383463,0.7496986999976798
RSVPLG03,,20251118-113656,1.0.2,20251105-084826,745,Experiment,Both,1,Automatic,main,88,20251118-114825,local,local,750,H,S,E,E,E-H.png,E-S.png,hH,sS,mask-1.png,mask-1.png,h,1,0.617255799996201,s,1,0.1062679999959073,0.047681300005933736,0.047679700001026504,0.0989218000031542,0.09988679999514716,0.7482825000042794
RSVPLG03,,20251118-113656,1.0.2,20251105-084826,745,Experiment,Both,1,Automatic,main,89,20251118-114830,global,global,300,H,S,E,E,H-E.png,S-E.png,hH,sS,mask-4.png,mask-3.png,h,1,0.3711690999989514,s,1,0.05131799999799114,0.04762950000440469,0.04610390000016196,0.09984560000157217,0.09830150000198046,0.3015356000032625
RSVPLG03,,20251118-113656,1.0.2,20251105-084826,745,Experiment,Both,1,Automatic,main,90,20251118-114834,global,global,750,S,H,A,A,S-A.png,H-A.png,sS,hH,mask-3.png,mask-3.png,s,1,0.3298852000007173,h,1,0.12022609999985434,0.04910700000618817,0.04755900000600377,0.1012992000032682,0.10076939999999013,0.7496025000000373
RSVPLG03,,20251118-113656,1.0.2,20251105-084826,745,Experiment,Both,1,Automatic,main,91,20251118-114839,global,global,300,S,H,A,E,S-A.png,H-E.png,sS,hH,mask-3.png,mask-2.png,s,1,0.41780329999892274,h,1,0.15549319999990985,0.04703549999976531,0.04746829999930924,0.10061239999777172,0.09918899999320274,0.30032850000134204
RSVPLG03,,20251118-113656,1.0.2,20251105-084826,745,Experiment,Both,1,Automatic,main,92,20251118-114843,local,local,300,S,H,A,E,A-S.png,E-H.png,sS,hH,mask-3.png,mask-2.png,s,1,0.43636890000198036,h,1,0.18009429999801796,0.04752269999880809,0.047304100000474136,0.10038899999926798,0.10052600000199163,0.3001603000011528
RSVPLG03,,20251118-113656,1.0.2,20251105-084826,745,Experiment,Both,1,Automatic,main,93,20251118-114848,local,local,300,S,S,A,A,A-S.png,A-S.png,sS,sS,mask-1.png,mask-3.png,s,1,0.40432270000019344,s,1,0.20216130000335397,0.04747660000430187,0.04654370000207564,0.10052960000029998,0.09955050000280607,0.2995745000007446
RSVPLG03,,20251118-113656,1.0.2,20251105-084826,745,Experiment,Both,1,Automatic,main,94,20251118-114852,global,global,750,H,S,E,A,H-E.png,S-A.png,hH,sS,mask-2.png,mask-4.png,h,1,0.3745935000042664,s,1,0.09289649999846006,0.04857320000155596,0.04754680000041844,0.10063720000471221,0.10062589999870397,0.750592800002778
RSVPLG03,,20251118-113656,1.0.2,20251105-084826,745,Experiment,Both,1,Automatic,main,95,20251118-114857,local,local,750,S,H,E,E,E-S.png,E-H.png,sS,hH,mask-4.png,mask-1.png,s,1,0.3927209000030416,h,1,0.035175500001059845,0.04751100000430597,0.04750629999762168,0.09956319999764673,0.09950160000153119,0.7497745000000577
RSVPLG03,,20251118-113656,1.0.2,20251105-084826,745,Experiment,Both,1,Automatic,main,96,20251118-114901,global,local,300,S,S,E,E,S-E.png,E-S.png,sS,sS,mask-1.png,mask-4.png,s,1,0.4657919999954174,s,1,0.15454969999700552,0.047509800002444535,0.04750420000345912,0.09952209999755723,0.09951790000195615,0.2998324000000139
RSVPLG03,,20251118-113656,1.0.2,20251105-084826,745,Experiment,Both,1,Automatic,main,97,20251118-114905,local,local,750,S,S,E,E,E-S.png,E-S.png,sS,sS,mask-3.png,mask-3.png,s,1,0.490563999999722,s,1,0.15389539999887347,0.04552809999586316,0.0475189999997383,0.09958609999739565,0.09953600000153529,0.7481382999976631
RSVPLG03,,20251118-113656,1.0.2,20251105-084826,745,Experiment,Both,1,Automatic,main,98,20251118-114910,local,local,300,S,H,A,E,A-S.png,E-H.png,sS,hH,mask-1.png,mask-3.png,s,1,0.41315010000107577,h,1,0.17092240000056336,0.047526500005915295,0.04852340000070399,0.09863290000066627,0.10055319999810308,0.29792660000384785
RSVPLG03,,20251118-113656,1.0.2,20251105-084826,745,Experiment,Both,1,Automatic,main,99,20251118-114915,global,local,750,S,H,E,A,S-E.png,A-H.png,sS,hH,mask-1.png,mask-4.png,s,1,1.0618258000031346,h,1,0.08577199999854201,0.048494599999685306,0.048557200003415346,0.10059429999819258,0.10068950000277255,0.7492227999973693
RSVPLG03,,20251118-113656,1.0.2,20251105-084826,745,Experiment,Both,1,Automatic,main,100,20251118-114920,local,local,750,H,S,E,E,E-H.png,E-S.png,hH,sS,mask-1.png,mask-2.png,h,1,0.43298499999946216,s,1,0.10452939999959199,0.046026800002437085,0.04637150000053225,0.10017250000237254,0.09866350000083912,0.7497801999998046
