exp,exp_initials,runtime,ver,modtime,sub,blocktype,targets,cuetype,mode,trialtype,trial,trialtime,t1_level,t2_level,t2_lag,t1,t2,distractor1,distractor2,stimfile1,stimfile2,t1_corr,t2_corr,maskfile1,maskfile2,t1_resp,t1_acc,t1_rt,t2_resp,t2_acc,t2_rt,t1_dur,t2_dur,t1mask_soa,t2mask_soa,t1t2_soa
RSVPLG03,sg,20251118-123527,1.0.2,20251105-084826,747,Introduction,T1,1,Automatic,main,1,20251118-131347,local,local,750,S,S,E,A,E-S.png,A-S.png,sS,sS,mask-1.png,mask-2.png,s,1,1.3771702000012738,none,-5,0,0.09776160000183154,0.0957708000059938,0.19851380000181962,0.19857670000055805,0.7460277999998652
RSVPLG03,sg,20251118-123527,1.0.2,20251105-084826,747,Introduction,T1,1,Automatic,main,2,20251118-131353,local,global,750,S,H,E,E,E-S.png,H-E.png,sS,hH,mask-4.png,mask-1.png,h,0,1.9837201999980607,none,-5,0,0.0959657999992487,0.09788239999761572,0.19759699999849545,0.1999327999947127,0.7439451000027475
RSVPLG03,sg,20251118-123527,1.0.2,20251105-084826,747,Introduction,T1,1,Automatic,main,3,20251118-131359,global,local,750,H,H,A,E,H-A.png,E-H.png,hH,hH,mask-2.png,mask-1.png,h,1,0.5399078000045847,none,-5,0,0.09695189999911236,0.0970203999968362,0.19841029999952298,0.19964700000127777,0.7449339000013424
RSVPLG03,sg,20251118-123527,1.0.2,20251105-084826,747,Introduction,T1,1,Automatic,main,4,20251118-131404,local,global,750,S,H,E,A,E-S.png,H-A.png,sS,hH,mask-4.png,mask-1.png,s,1,0.46593399999983376,none,-5,0,0.0977573999989545,0.09565830000065034,0.19818069999746513,0.19726819999777945,0.7469402999995509
RSVPLG03,sg,20251118-123527,1.0.2,20251105-084826,747,Introduction,T1,1,Automatic,main,5,20251118-131408,global,global,750,S,S,A,A,S-A.png,S-A.png,sS,sS,mask-4.png,mask-2.png,s,1,0.4414541000005556,none,-5,0,0.09777400000166381,0.09662639999442035,0.19929109999793582,0.199408599997696,0.7460475000043516
RSVPLG03,sg,20251118-123527,1.0.2,20251105-084826,747,Introduction,T1,1,Automatic,main,6,20251118-131413,global,global,750,S,S,E,A,S-E.png,S-A.png,sS,sS,mask-2.png,mask-4.png,s,1,0.37221560000034515,none,-5,0,0.09549859999970067,0.09669559999747435,0.1980418000021018,0.19836199999554083,0.7457864000025438
RSVPLG03,sg,20251118-123527,1.0.2,20251105-084826,747,Introduction,T1,1,Automatic,main,7,20251118-131417,local,global,750,H,S,A,E,A-H.png,S-E.png,hH,sS,mask-2.png,mask-2.png,s,0,0.8798287000026903,none,-5,0,0.09773899999709101,0.09788709999702405,0.19947200000024168,0.200940199996694,0.7438527999984217
RSVPLG03,sg,20251118-123527,1.0.2,20251105-084826,747,Introduction,T1,1,Automatic,main,8,20251118-131422,local,global,750,S,H,E,A,E-S.png,H-A.png,sS,hH,mask-3.png,mask-3.png,h,0,1.2214910999973654,none,-5,0,0.09648880000167992,0.09571889999642735,0.1981697000010172,0.19903269999485929,0.7448397000043769
RSVPLG03,sg,20251118-123527,1.0.2,20251105-084826,747,Introduction,T1,1,Automatic,main,9,20251118-131428,local,local,750,H,H,A,A,A-H.png,A-H.png,hH,hH,mask-2.png,mask-2.png,h,1,0.5527799000046798,none,-5,0,0.09595169999374775,0.0946438999962993,0.19776489999640035,0.1984900999959791,0.7462054999996326
RSVPLG03,sg,20251118-123527,1.0.2,20251105-084826,747,Introduction,T1,1,Automatic,main,10,20251118-131432,global,global,750,S,S,A,A,S-A.png,S-A.png,sS,sS,mask-2.png,mask-1.png,s,1,0.39208979999966687,none,-5,0,0.0982397999978275,0.09592759999941336,0.19909509999706643,0.1995695000005071,0.7463726999994833
RSVPLG03,sg,20251118-123527,1.0.2,20251105-084826,747,Introduction,T1,1,Automatic,main,11,20251118-131437,global,local,750,H,H,A,A,H-A.png,A-H.png,hH,hH,mask-3.png,mask-1.png,h,1,0.35720719999517314,none,-5,0,0.09556679999514017,0.09672689999570139,0.1993268000005628,0.19844089999969583,0.746297500001674
RSVPLG03,sg,20251118-123527,1.0.2,20251105-084826,747,Introduction,T1,1,Automatic,main,12,20251118-131441,local,local,750,S,H,A,E,A-S.png,E-H.png,sS,hH,mask-1.png,mask-1.png,s,1,0.3973503000015626,none,-5,0,0.09670320000441279,0.09657719999813708,0.1976319000023068,0.19825280000077328,0.7449520000009215
RSVPLG03,sg,20251118-123527,1.0.2,20251105-084826,747,Introduction,T1,1,Automatic,main,13,20251118-131446,global,local,750,S,S,E,E,S-E.png,E-S.png,sS,sS,mask-3.png,mask-1.png,s,1,0.37970640000276035,none,-5,0,0.09759950000443496,0.09686819999478757,0.19934030000149505,0.19840019999537617,0.7457110000032117
RSVPLG03,sg,20251118-123527,1.0.2,20251105-084826,747,Introduction,T1,1,Automatic,main,14,20251118-131450,global,local,750,H,S,E,E,H-E.png,E-S.png,hH,sS,mask-3.png,mask-4.png,h,1,0.37926270000025397,none,-5,0,0.0968328000017209,0.09489880000182893,0.1995939999978873,0.1988673000014387,0.7461286999969161
RSVPLG03,sg,20251118-123527,1.0.2,20251105-084826,747,Introduction,T1,1,Automatic,main,15,20251118-131455,global,global,750,S,S,E,E,S-E.png,S-E.png,sS,sS,mask-4.png,mask-2.png,s,1,0.41163439999945695,none,-5,0,0.0967875999995158,0.0960648999971454,0.19837259999621892,0.1974945000038133,0.7469111999962479
RSVPLG03,sg,20251118-123527,1.0.2,20251105-084826,747,Introduction,T1,1,Automatic,main,16,20251118-131459,local,local,750,H,H,A,A,A-H.png,A-H.png,hH,hH,mask-1.png,mask-3.png,h,1,0.41208569999434985,none,-5,0,0.0965342999988934,0.09470480000163661,0.19853349999903003,0.19843089999631047,0.7470911999989767
RSVPLG03,sg,20251118-131534,1.0.2,20251105-084826,747,Practice,T1,1,Automatic,main,1,20251118-131600,local,local,750,S,S,A,A,A-S.png,A-S.png,sS,sS,mask-1.png,mask-4.png,s,1,1.2339751000035903,none,-5,0,0.047197400002914947,0.04727460000140127,0.09958410000399454,0.10056420000182698,0.7489454000024125
RSVPLG03,sg,20251118-131534,1.0.2,20251105-084826,747,Practice,T1,1,Automatic,main,2,20251118-131605,global,local,750,H,H,A,A,H-A.png,A-H.png,hH,hH,mask-3.png,mask-2.png,h,1,0.9043602999954601,none,-5,0,0.04717180000443477,0.047021799997310154,0.10048680000181776,0.09960149999824353,0.7511059000025853
RSVPLG03,sg,20251118-131534,1.0.2,20251105-084826,747,Practice,T1,1,Automatic,main,3,20251118-131610,local,local,750,S,S,A,A,A-S.png,A-S.png,sS,sS,mask-3.png,mask-3.png,s,1,0.4154281000010087,none,-5,0,0.04729850000148872,0.04929110000375658,0.09967689999757567,0.10145090000150958,0.7492447999975411
RSVPLG03,sg,20251118-131534,1.0.2,20251105-084826,747,Practice,T1,1,Automatic,main,4,20251118-131615,local,global,750,H,H,A,E,A-H.png,H-E.png,hH,hH,mask-1.png,mask-1.png,h,1,0.46557400000165217,none,-5,0,0.04631170000357088,0.048330400000850204,0.09865990000253078,0.1026242000007187,0.7490417000008165
RSVPLG03,sg,20251118-131534,1.0.2,20251105-084826,747,Practice,T1,1,Automatic,main,5,20251118-131619,local,global,300,S,H,E,E,E-S.png,H-E.png,sS,hH,mask-3.png,mask-3.png,s,1,0.5038704999969923,none,-5,0,0.04633049999392824,0.0474056999955792,0.09881639999366598,0.09982089999539312,0.2991911999997683
RSVPLG03,sg,20251118-131534,1.0.2,20251105-084826,747,Practice,T1,1,Automatic,main,6,20251118-131623,global,global,300,S,H,E,E,S-E.png,H-E.png,sS,hH,mask-1.png,mask-1.png,s,1,1.5334514999995008,none,-5,0,0.046663300003274344,0.04742629999964265,0.09981279999919934,0.09994539999752305,0.30015329999878304
RSVPLG03,sg,20251118-131534,1.0.2,20251105-084826,747,Practice,T1,1,Automatic,main,7,20251118-131628,global,global,300,H,H,A,A,H-A.png,H-A.png,hH,hH,mask-2.png,mask-2.png,h,1,0.3554208000059589,none,-5,0,0.04720090000046184,0.04643260000011651,0.0995210000037332,0.09976989999995567,0.30007779999868944
RSVPLG03,sg,20251118-131534,1.0.2,20251105-084826,747,Practice,T1,1,Automatic,main,8,20251118-131632,local,local,300,S,S,A,A,A-S.png,A-S.png,sS,sS,mask-3.png,mask-3.png,s,1,0.3079384000011487,none,-5,0,0.046220600001106504,0.04724110000097426,0.09864449999440694,0.09999899999820627,0.3001674999977695
RSVPLG03,sg,20251118-131534,1.0.2,20251105-084826,747,Practice,T1,1,Automatic,main,9,20251118-131636,local,global,750,H,S,A,A,A-H.png,S-A.png,hH,sS,mask-1.png,mask-2.png,h,1,0.9379827000011574,none,-5,0,0.049211199999263044,0.04916030000458704,0.10162999999738531,0.10244080000120448,0.7499229999957606
RSVPLG03,sg,20251118-131534,1.0.2,20251105-084826,747,Practice,T1,1,Automatic,main,10,20251118-131641,global,local,300,H,H,E,E,H-E.png,E-H.png,hH,hH,mask-4.png,mask-1.png,s,0,0.5202089000013075,none,-5,0,0.046133000003464986,0.04534359999524895,0.09855500000412576,0.09887699999671895,0.30110660000354983
RSVPLG03,sg,20251118-131534,1.0.2,20251105-084826,747,Practice,T1,1,Automatic,main,11,20251118-131645,local,global,300,H,H,A,E,A-H.png,H-E.png,hH,hH,mask-1.png,mask-2.png,h,1,0.4085895999960485,none,-5,0,0.04728850000537932,0.04719840000325348,0.10040660000231583,0.09995100000378443,0.2991403999985778
RSVPLG03,sg,20251118-131534,1.0.2,20251105-084826,747,Practice,T1,1,Automatic,main,12,20251118-131649,global,global,750,S,S,E,A,S-E.png,S-A.png,sS,sS,mask-3.png,mask-1.png,s,1,0.49486529999558115,none,-5,0,0.0461834000016097,0.04830290000245441,0.09963060000154655,0.10057919999962905,0.7488872999965679
RSVPLG03,sg,20251118-131534,1.0.2,20251105-084826,747,Practice,T1,1,Automatic,main,13,20251118-131653,global,local,750,H,S,E,E,H-E.png,E-S.png,hH,sS,mask-1.png,mask-3.png,h,1,0.47646079999685753,none,-5,0,0.04699819999950705,0.04787129999749595,0.10050290000071982,0.09979749999911292,0.751427800001693
RSVPLG03,sg,20251118-131534,1.0.2,20251105-084826,747,Practice,T1,1,Automatic,main,14,20251118-131658,global,local,300,H,S,A,A,H-A.png,A-S.png,hH,sS,mask-1.png,mask-3.png,h,1,0.4959463000050164,none,-5,0,0.0463238000011188,0.04834890000347514,0.09954110000398941,0.10007819999736967,0.29883970000082627
RSVPLG03,sg,20251118-131534,1.0.2,20251105-084826,747,Practice,T1,1,Automatic,main,15,20251118-131702,local,local,300,S,H,A,A,A-S.png,A-H.png,sS,hH,mask-2.png,mask-1.png,h,0,1.1235006999995676,none,-5,0,0.04608939999889117,0.04722880000190344,0.09651389999635285,0.09880700000212528,0.29813829999329755
RSVPLG03,sg,20251118-131534,1.0.2,20251105-084826,747,Practice,T1,1,Automatic,main,16,20251118-131707,global,global,750,H,S,A,E,H-A.png,S-E.png,hH,sS,mask-1.png,mask-1.png,h,1,1.9204129999998258,none,-5,0,0.047224699999787845,0.047212299999955576,0.10072619999846211,0.10055760000250302,0.7511742999995477
RSVPLG03,sg,20251118-131849,1.0.2,20251105-084826,747,Introduction,Both,1,Automatic,main,1,20251118-131908,local,global,750,S,H,E,A,E-S.png,H-A.png,sS,hH,mask-1.png,mask-2.png,s,1,1.0267507000025944,h,1,1.4613677000015741,0.0907123000069987,0.09755130000121426,0.19353740000224207,0.20171409999602474,0.7438718000048539
RSVPLG03,sg,20251118-131849,1.0.2,20251105-084826,747,Introduction,Both,1,Automatic,main,2,20251118-131915,local,local,750,H,H,E,E,E-H.png,E-H.png,hH,hH,mask-2.png,mask-2.png,h,1,0.9662053000065498,h,1,0.34285000000090804,0.09740210000018124,0.09756020000349963,0.2000839000029373,0.20094860000244807,0.7508683999985806
RSVPLG03,sg,20251118-131849,1.0.2,20251105-084826,747,Introduction,Both,1,Automatic,main,3,20251118-131921,global,global,750,H,S,A,E,H-A.png,S-E.png,hH,sS,mask-2.png,mask-1.png,h,1,0.46519899999839254,s,1,0.4117389000020921,0.09838280000258237,0.09765499999775784,0.20126080000045476,0.19947160000447184,0.7511047000007238
RSVPLG03,sg,20251118-131849,1.0.2,20251105-084826,747,Introduction,Both,1,Automatic,main,4,20251118-131926,local,global,750,S,S,A,E,A-S.png,S-E.png,sS,sS,mask-1.png,mask-2.png,s,1,1.2014093000034336,s,1,0.2856692999994266,0.09753199999977369,0.0981374000039068,0.20062630000029458,0.20013480000488926,0.7508185999977286
RSVPLG03,sg,20251118-131849,1.0.2,20251105-084826,747,Introduction,Both,1,Automatic,main,5,20251118-131932,global,local,750,H,S,A,E,H-A.png,E-S.png,hH,sS,mask-4.png,mask-2.png,h,1,0.7842495000004419,s,1,0.3276821999970707,0.0966307999988203,0.09748119999858318,0.19942459999583662,0.200548599998001,0.7499494000003324
RSVPLG03,sg,20251118-131849,1.0.2,20251105-084826,747,Introduction,Both,1,Automatic,main,6,20251118-131937,global,local,750,H,H,A,A,H-A.png,A-H.png,hH,hH,mask-1.png,mask-3.png,h,1,0.5489885999995749,h,1,0.1844046000041999,0.09866589999728603,0.09755229999427684,0.20071230000030482,0.20059909999690717,0.7517991999993683
RSVPLG03,sg,20251118-131849,1.0.2,20251105-084826,747,Introduction,Both,1,Automatic,main,7,20251118-131942,local,local,750,S,S,A,A,A-S.png,A-S.png,sS,sS,mask-2.png,mask-1.png,s,1,0.32766950000223005,s,1,0.29458960000192747,0.0970923999993829,0.09654030000092462,0.20020259999728296,0.19964510000136215,0.7502838000000338
RSVPLG03,sg,20251118-131849,1.0.2,20251105-084826,747,Introduction,Both,1,Automatic,main,8,20251118-131947,global,global,750,S,H,E,E,S-E.png,H-E.png,sS,hH,mask-4.png,mask-2.png,s,1,0.4029854999971576,h,1,0.28480230000423035,0.09753120000095805,0.09844139999768231,0.19789809999929275,0.20131949999631615,0.7492213000004995
RSVPLG03,sg,20251118-131849,1.0.2,20251105-084826,747,Introduction,Both,1,Automatic,main,9,20251118-131952,global,global,750,H,H,A,E,H-A.png,H-E.png,hH,hH,mask-1.png,mask-2.png,h,1,0.2696310999963316,h,1,0.25100770000426564,0.09735110000474378,0.09734159999788972,0.20118460000230698,0.19921520000207238,0.751282800003537
RSVPLG03,sg,20251118-131849,1.0.2,20251105-084826,747,Introduction,Both,1,Automatic,main,10,20251118-131957,global,local,750,S,H,A,A,S-A.png,A-H.png,sS,hH,mask-1.png,mask-2.png,s,1,0.4466420000026119,h,1,0.29314879999583354,0.09846839999954682,0.09749029999511549,0.19958499999484047,0.20123400000011316,0.7505552000002353
RSVPLG03,sg,20251118-131849,1.0.2,20251105-084826,747,Introduction,Both,1,Automatic,main,11,20251118-132002,local,local,750,S,S,E,A,E-S.png,A-S.png,sS,sS,mask-2.png,mask-1.png,s,1,0.261150300000736,s,1,0.210042999999132,0.09741150000627385,0.0974655999962124,0.19934000000648666,0.20123519999469863,0.749695000005886
RSVPLG03,sg,20251118-131849,1.0.2,20251105-084826,747,Introduction,Both,1,Automatic,main,12,20251118-132007,local,local,750,H,S,E,E,E-H.png,E-S.png,hH,sS,mask-4.png,mask-2.png,h,1,0.32653489999938756,s,1,0.17301649999717483,0.09675219999917317,0.09641759999794886,0.19987870000477415,0.19930939999903785,0.7508691000039107
RSVPLG03,sg,20251118-131849,1.0.2,20251105-084826,747,Introduction,Both,1,Automatic,main,13,20251118-132012,global,global,750,H,H,E,E,H-E.png,H-E.png,hH,hH,mask-3.png,mask-2.png,h,1,0.35346969999955036,h,1,0.1541298000011011,0.09666529999958584,0.09743929999967804,0.1996101999975508,0.201289500000712,0.7504681999998866
RSVPLG03,sg,20251118-131849,1.0.2,20251105-084826,747,Introduction,Both,1,Automatic,main,14,20251118-132017,global,local,750,H,H,E,E,H-E.png,E-H.png,hH,hH,mask-2.png,mask-2.png,h,1,0.4981483000010485,s,0,0.2591130000000703,0.09661229999619536,0.09943770000245422,0.19967650000035064,0.20182460000069113,0.7494340999983251
RSVPLG03,sg,20251118-131849,1.0.2,20251105-084826,747,Introduction,Both,1,Automatic,main,15,20251118-132022,local,global,750,H,S,E,E,E-H.png,S-E.png,hH,sS,mask-4.png,mask-3.png,h,1,0.3957501000040793,s,1,0.20381559999805177,0.09611109999968903,0.09690489999775309,0.1999950999961584,0.1997685999958776,0.7500599999984843
RSVPLG03,sg,20251118-131849,1.0.2,20251105-084826,747,Introduction,Both,1,Automatic,main,16,20251118-132027,local,global,750,S,H,A,E,A-S.png,H-E.png,sS,hH,mask-2.png,mask-4.png,s,1,0.7903206999981194,h,1,0.15083699999377131,0.097349600000598,0.09739080000144895,0.199203000003763,0.1992921999990358,0.7501322000025539
RSVPLG03,sg,20251118-132127,1.0.2,20251105-084826,747,Practice,Both,1,Automatic,main,1,20251118-132151,global,local,750,H,S,A,A,H-A.png,A-S.png,hH,sS,mask-3.png,mask-3.png,h,1,0.8468752000044333,s,1,0.7269038999947952,0.03900609999982407,0.04769849999865983,0.09237359999679029,0.0996240000022226,0.742007900000317
RSVPLG03,sg,20251118-132127,1.0.2,20251105-084826,747,Practice,Both,1,Automatic,main,2,20251118-132156,global,global,750,H,H,E,E,H-E.png,H-E.png,hH,hH,mask-3.png,mask-2.png,h,1,0.9048664000001736,h,1,0.251825799998187,0.04764769999746932,0.047664999998232815,0.0998494999948889,0.09985259999666596,0.7502568999989307
RSVPLG03,sg,20251118-132127,1.0.2,20251105-084826,747,Practice,Both,1,Automatic,main,3,20251118-132202,local,local,750,S,S,A,E,A-S.png,E-S.png,sS,sS,mask-2.png,mask-2.png,s,1,0.3719194000004791,s,1,0.17850259999977425,0.047360000004118774,0.04803880000690697,0.0996302999992622,0.10009630000422476,0.7499606999990647
RSVPLG03,sg,20251118-132127,1.0.2,20251105-084826,747,Practice,Both,1,Automatic,main,4,20251118-132206,local,local,300,H,S,A,A,A-H.png,A-S.png,hH,sS,mask-1.png,mask-3.png,h,1,1.353069199998572,s,1,0.6584905999989132,0.04756920000363607,0.04663310000614729,0.10047990000020945,0.09930980000353884,0.30053339999722084
RSVPLG03,sg,20251118-132127,1.0.2,20251105-084826,747,Practice,Both,1,Automatic,main,5,20251118-132212,local,global,300,H,S,E,A,E-H.png,S-A.png,hH,sS,mask-1.png,mask-3.png,h,1,0.4312837999968906,s,1,0.017165199998999014,0.048693799995817244,0.048575299995718524,0.10009419999551028,0.10185169999749633,0.2997923000002629
RSVPLG03,sg,20251118-132127,1.0.2,20251105-084826,747,Practice,Both,1,Automatic,main,6,20251118-132216,local,global,750,H,H,A,A,A-H.png,H-A.png,hH,hH,mask-3.png,mask-1.png,h,1,0.490704600000754,h,1,0.2493534000022919,0.04722909999691183,0.047307100001489744,0.09914320000098087,0.0987678000019514,0.7497029000005568
RSVPLG03,sg,20251118-132127,1.0.2,20251105-084826,747,Practice,Both,1,Automatic,main,7,20251118-132221,local,local,300,H,H,A,E,A-H.png,E-H.png,hH,hH,mask-3.png,mask-2.png,h,1,0.37120560000039404,h,1,0.07394400000339374,0.04567680000036489,0.047667599996202625,0.09985130000131903,0.09898209999664687,0.2996268999995664
RSVPLG03,sg,20251118-132127,1.0.2,20251105-084826,747,Practice,Both,1,Automatic,main,8,20251118-132225,global,local,300,S,S,A,E,S-A.png,E-S.png,sS,sS,mask-1.png,mask-3.png,s,1,0.5723374000008334,s,1,0.14574310000170954,0.04566499999782536,0.04766100000415463,0.09983659999852534,0.10184890000527957,0.29816059999575373
RSVPLG03,sg,20251118-132127,1.0.2,20251105-084826,747,Practice,Both,1,Automatic,main,9,20251118-132230,local,global,300,H,H,A,E,A-H.png,H-E.png,hH,hH,mask-1.png,mask-4.png,h,1,0.39847599999484373,s,0,0.10429389999626437,0.04866300000139745,0.04866180000681197,0.10034549999545561,0.09984600000461796,0.2997877999951015
RSVPLG03,sg,20251118-132127,1.0.2,20251105-084826,747,Practice,Both,1,Automatic,main,10,20251118-132234,global,global,300,H,S,A,A,H-A.png,S-A.png,hH,sS,mask-1.png,mask-2.png,h,1,0.36676640000223415,s,1,0.0977539000014076,0.0477997999987565,0.046687699999893084,0.09910099999979138,0.10028539999620989,0.3001631000006455
RSVPLG03,sg,20251118-132127,1.0.2,20251105-084826,747,Practice,Both,1,Automatic,main,11,20251118-132238,local,global,750,H,S,E,A,E-H.png,S-A.png,hH,sS,mask-1.png,mask-4.png,s,0,0.42737010000564624,s,1,0.1500852000026498,0.047635599999921396,0.04866079999919748,0.10008409999863943,0.1007783000022755,0.7493059999978868
RSVPLG03,sg,20251118-132127,1.0.2,20251105-084826,747,Practice,Both,1,Automatic,main,12,20251118-132243,local,local,750,H,H,A,E,A-H.png,E-H.png,hH,hH,mask-4.png,mask-2.png,h,1,0.38075019999814685,h,1,0.13712139999552164,0.04750649999914458,0.048390500000095926,0.1006102999963332,0.10138020000158576,0.7493199999953504
RSVPLG03,sg,20251118-132127,1.0.2,20251105-084826,747,Practice,Both,1,Automatic,main,13,20251118-132247,global,local,750,H,H,E,A,H-E.png,A-H.png,hH,hH,mask-4.png,mask-1.png,s,0,0.3549071000015829,h,1,0.11400010000215843,0.045688699996389914,0.04780219999520341,0.09902799999690615,0.10000279999803752,0.7495467999979155
RSVPLG03,sg,20251118-132127,1.0.2,20251105-084826,747,Practice,Both,1,Automatic,main,14,20251118-132252,global,global,750,S,H,A,E,S-A.png,H-E.png,sS,hH,mask-3.png,mask-1.png,s,1,0.6409476999979233,h,1,0.2817300999959116,0.04775109999900451,0.04758130000118399,0.10089190000144299,0.09983740000461694,0.7507209999967017
RSVPLG03,sg,20251118-132127,1.0.2,20251105-084826,747,Practice,Both,1,Automatic,main,15,20251118-132257,global,global,300,S,S,A,A,S-A.png,S-A.png,sS,sS,mask-2.png,mask-3.png,s,1,0.37988779999432154,s,1,0.1368755000003148,0.0473137000008137,0.04765839999890886,0.10016429999814136,0.09986809999827528,0.3004408999986481
RSVPLG03,sg,20251118-132127,1.0.2,20251105-084826,747,Practice,Both,1,Automatic,main,16,20251118-132301,global,local,300,S,S,E,E,S-E.png,E-S.png,sS,sS,mask-4.png,mask-3.png,s,1,0.7037720000007539,h,0,0.18501020000257995,0.0467547999942326,0.04773800000111805,0.10099929999705637,0.09977190000063274,0.29961189999448834
RSVPLG03,sg,20251118-132525,1.0.2,20251105-084826,747,Experiment,Both,1,Automatic,warmup,1,20251118-132552,local,local,300,S,S,A,A,A-S.png,A-S.png,sS,sS,mask-2.png,mask-4.png,s,1,0.7093569999997271,h,0,1.0677731000032509,0.04602980000345269,0.04755550000118092,0.09928290000243578,0.1002204000033089,0.29944329999852926
RSVPLG03,sg,20251118-132525,1.0.2,20251105-084826,747,Experiment,Both,1,Automatic,warmup,2,20251118-132557,global,local,750,S,S,A,E,S-A.png,E-S.png,sS,sS,mask-3.png,mask-3.png,s,1,0.7870377999934135,s,1,0.10810240000137128,0.047486000003118534,0.04852740000205813,0.10048380000080215,0.10154119999788236,0.7489121000035084
RSVPLG03,sg,20251118-132525,1.0.2,20251105-084826,747,Experiment,Both,1,Automatic,warmup,3,20251118-132602,local,global,300,S,S,A,E,A-S.png,S-E.png,sS,sS,mask-4.png,mask-3.png,s,1,0.4115913999994518,h,0,0.005616800001007505,0.04671580000285758,0.04775350000272738,0.10002720000193221,0.1000043000021833,0.2997101000000839
RSVPLG03,sg,20251118-132525,1.0.2,20251105-084826,747,Experiment,Both,1,Automatic,warmup,4,20251118-132607,global,global,300,H,S,A,E,H-A.png,S-E.png,hH,sS,mask-1.png,mask-4.png,h,1,0.31369119999726536,s,1,0.10103049999452196,0.04564839999511605,0.04765909999696305,0.09981239999615354,0.10042079999402631,0.29981620000035036
RSVPLG03,sg,20251118-132525,1.0.2,20251105-084826,747,Experiment,Both,1,Automatic,main,5,20251118-132611,local,local,750,H,S,E,E,E-H.png,E-S.png,hH,sS,mask-2.png,mask-1.png,h,1,0.3301041000013356,s,1,0.044069800002034754,0.04569489999994403,0.04750429999694461,0.09891849999985425,0.09946099999797298,0.7501237000033143
RSVPLG03,sg,20251118-132525,1.0.2,20251105-084826,747,Experiment,Both,1,Automatic,main,6,20251118-132615,global,local,300,S,S,A,E,S-A.png,E-S.png,sS,sS,mask-1.png,mask-4.png,s,1,0.8904710999995586,h,0,0.03477299999940442,0.04765220000263071,0.04665019999811193,0.10069839999778196,0.0987057000020286,0.3015330999987782
RSVPLG03,sg,20251118-132525,1.0.2,20251105-084826,747,Experiment,Both,1,Automatic,main,7,20251118-132620,global,local,300,H,H,A,E,H-A.png,E-H.png,hH,hH,mask-2.png,mask-3.png,h,1,0.35331420000147773,s,0,0.010831499996129423,0.04666490000090562,0.047670399995695334,0.0998327999986941,0.09984629999962635,0.2994105000034324
RSVPLG03,sg,20251118-132525,1.0.2,20251105-084826,747,Experiment,Both,1,Automatic,main,8,20251118-132624,global,local,750,S,S,A,E,S-A.png,E-S.png,sS,sS,mask-1.png,mask-4.png,s,1,0.4467198999991524,s,1,0.1372713999953703,0.04765369999950053,0.047660099997301586,0.0990765000024112,0.09986229999776697,0.7497845000034431
RSVPLG03,sg,20251118-132525,1.0.2,20251105-084826,747,Experiment,Both,1,Automatic,main,9,20251118-132629,local,global,750,S,S,E,E,E-S.png,S-E.png,sS,sS,mask-1.png,mask-4.png,s,1,0.765990599997167,s,1,0.07655639999575214,0.047210400000039954,0.04657540000334848,0.09838989999843761,0.09855699999752687,0.7498400999975274
RSVPLG03,sg,20251118-132525,1.0.2,20251105-084826,747,Experiment,Both,1,Automatic,main,10,20251118-132634,local,local,300,H,S,E,E,E-H.png,E-S.png,hH,sS,mask-3.png,mask-2.png,h,1,0.34343770000123186,s,1,0.43967939999856753,0.047531200005323626,0.04752369999914663,0.09924470000260044,0.09960900000442052,0.2995459000012488
RSVPLG03,sg,20251118-132525,1.0.2,20251105-084826,747,Experiment,Both,1,Automatic,main,11,20251118-132638,global,global,750,S,H,E,A,S-E.png,H-A.png,sS,hH,mask-2.png,mask-4.png,s,1,0.35459789999731584,h,1,0.04173309999896446,0.04766119999840157,0.04760150000220165,0.0997397999963141,0.09964880000188714,0.7502893999990192
RSVPLG03,sg,20251118-132525,1.0.2,20251105-084826,747,Experiment,Both,1,Automatic,main,12,20251118-132642,local,local,300,S,S,A,A,A-S.png,A-S.png,sS,sS,mask-4.png,mask-1.png,s,1,0.3446464000007836,s,1,0.08617950000189012,0.04748430000472581,0.04650390000460902,0.10050190000038128,0.09953430000314256,0.3006935000012163
RSVPLG03,sg,20251118-132525,1.0.2,20251105-084826,747,Experiment,Both,1,Automatic,main,13,20251118-132646,local,global,300,S,S,E,A,E-S.png,S-A.png,sS,sS,mask-2.png,mask-4.png,s,1,0.5139905999967596,s,1,0.10901619999640388,0.0474945999958436,0.04746829999930924,0.10059159999946132,0.09896550000121351,0.3008460999990348
RSVPLG03,sg,20251118-132525,1.0.2,20251105-084826,747,Experiment,Both,1,Automatic,main,14,20251118-132650,global,local,300,S,S,E,E,S-E.png,E-S.png,sS,sS,mask-3.png,mask-2.png,s,1,1.2338364999959595,s,1,0.053310600000259,0.046529700004612096,0.04752269999880809,0.09956490000331542,0.09957529999519465,0.2998139000046649
RSVPLG03,sg,20251118-132525,1.0.2,20251105-084826,747,Experiment,Both,1,Automatic,main,15,20251118-132655,local,local,750,H,H,A,E,A-H.png,E-H.png,hH,hH,mask-3.png,mask-1.png,h,1,0.9888074999980745,h,1,0.9501559999989695,0.047147599994787015,0.04734610000014072,0.10020439999789232,0.10035639999841806,0.7498268999988795
RSVPLG03,sg,20251118-132525,1.0.2,20251105-084826,747,Experiment,Both,1,Automatic,main,16,20251118-132701,global,global,300,H,H,E,E,H-E.png,H-E.png,hH,hH,mask-3.png,mask-3.png,h,1,1.1746053000024403,h,1,0.12333370000123978,0.04774889999680454,0.04773379999824101,0.09995659999549389,0.09980279999581398,0.29957439999998314
RSVPLG03,sg,20251118-132525,1.0.2,20251105-084826,747,Experiment,Both,1,Automatic,main,17,20251118-132706,local,global,750,S,S,A,E,A-S.png,S-E.png,sS,sS,mask-1.png,mask-1.png,s,1,0.3826807999939774,s,1,0.07108010000229115,0.04731990000436781,0.04746940000040922,0.10027430000627646,0.09932739999931073,0.7502940000049421
RSVPLG03,sg,20251118-132525,1.0.2,20251105-084826,747,Experiment,Both,1,Automatic,main,18,20251118-132711,local,global,300,S,S,E,A,E-S.png,S-A.png,sS,sS,mask-2.png,mask-4.png,s,1,1.1728827999977511,h,0,0.4019916000033845,0.04751799999939976,0.04748969999491237,0.1006273999955738,0.09848799999599578,0.30023090000031516
RSVPLG03,sg,20251118-132525,1.0.2,20251105-084826,747,Experiment,Both,1,Automatic,main,19,20251118-132716,global,global,300,S,S,E,A,S-E.png,S-A.png,sS,sS,mask-2.png,mask-3.png,s,1,0.33498120000149356,s,1,0.07709500000055414,0.048487899999599904,0.04649239999707788,0.09950080000271555,0.10054639999725623,0.3004830999998376
RSVPLG03,sg,20251118-132525,1.0.2,20251105-084826,747,Experiment,Both,1,Automatic,main,20,20251118-132720,local,global,300,S,S,E,A,E-S.png,S-A.png,sS,sS,mask-2.png,mask-3.png,s,1,0.7527131000024383,s,1,0.07590869999694405,0.04746460000023944,0.04732220000005327,0.1004633999982616,0.10028760000568582,0.2999216999960481
RSVPLG03,sg,20251118-132525,1.0.2,20251105-084826,747,Experiment,Both,1,Automatic,main,21,20251118-132725,local,local,750,S,S,E,E,E-S.png,E-S.png,sS,sS,mask-3.png,mask-4.png,s,1,0.40933709999808343,s,1,0.10810610000044107,0.04755939999449765,0.04756140000245068,0.09854970000014873,0.09957189999840921,0.7502995999966515
RSVPLG03,sg,20251118-132525,1.0.2,20251105-084826,747,Experiment,Both,1,Automatic,main,22,20251118-132730,local,local,300,H,S,A,A,A-H.png,A-S.png,hH,sS,mask-1.png,mask-1.png,h,1,2.608598200000415,s,1,2.7209625000032247,0.04764670000440674,0.047662400000263005,0.10074159999930998,0.09819029999925988,0.30131519999849843
RSVPLG03,sg,20251118-132525,1.0.2,20251105-084826,747,Experiment,Both,1,Automatic,main,23,20251118-132736,global,local,750,H,H,E,A,H-E.png,A-H.png,hH,hH,mask-4.png,mask-4.png,s,0,0.736876700000721,h,1,0.8487843999973848,0.04667180000251392,0.04613130000507226,0.10082440000405768,0.10035400000197114,0.7504850999976043
RSVPLG03,sg,20251118-132525,1.0.2,20251105-084826,747,Experiment,Both,1,Automatic,main,24,20251118-132741,global,local,750,H,H,E,A,H-E.png,A-H.png,hH,hH,mask-4.png,mask-3.png,h,1,0.5787042000010842,h,1,0.06259230000432581,0.04761339999822667,0.047696000001451466,0.10080709999601822,0.09984610000537941,0.7504797999936272
RSVPLG03,sg,20251118-132525,1.0.2,20251105-084826,747,Experiment,Both,1,Automatic,main,25,20251118-132745,local,local,300,S,H,A,A,A-S.png,A-H.png,sS,hH,mask-4.png,mask-3.png,s,1,0.8004499999951804,h,1,0.8128477999998722,0.04763229999662144,0.04768579999654321,0.0988156999956118,0.1008806999961962,0.29938899999979185
RSVPLG03,sg,20251118-132525,1.0.2,20251105-084826,747,Experiment,Both,1,Automatic,main,26,20251118-132821,global,local,300,H,S,E,E,H-E.png,E-S.png,hH,sS,mask-1.png,mask-3.png,h,1,0.7527923000016017,s,1,0.8646721999975853,0.04748639999888837,0.04747979999956442,0.10066759999608621,0.10062309999921126,0.30007990000012796
RSVPLG03,sg,20251118-132525,1.0.2,20251105-084826,747,Experiment,Both,1,Automatic,main,27,20251118-132826,global,global,750,S,H,A,A,S-A.png,H-A.png,sS,hH,mask-4.png,mask-3.png,h,0,0.4192503000012948,h,1,1.491813499997079,0.0457204999984242,0.046713700001419056,0.09970759999850998,0.0998122000019066,0.7498107999999775
RSVPLG03,sg,20251118-132525,1.0.2,20251105-084826,747,Experiment,Both,1,Automatic,main,28,20251118-132832,global,global,300,S,S,A,A,S-A.png,S-A.png,sS,sS,mask-2.png,mask-4.png,h,0,0.6783340000038152,s,1,0.05563180000171997,0.04721869999775663,0.04738350000116043,0.09943919999932405,0.09873900000093272,0.2998463999974774
RSVPLG03,sg,20251118-132525,1.0.2,20251105-084826,747,Experiment,Both,1,Automatic,main,29,20251118-132836,local,global,750,S,H,E,A,E-S.png,H-A.png,sS,hH,mask-4.png,mask-1.png,s,1,0.3537616999965394,h,1,0.06593109999812441,0.047403399999893736,0.04962140000134241,0.09958059999917168,0.10162790000322275,0.7480547999948612
RSVPLG03,sg,20251118-132525,1.0.2,20251105-084826,747,Experiment,Both,1,Automatic,main,30,20251118-132841,global,local,300,S,H,A,A,S-A.png,A-H.png,sS,hH,mask-2.png,mask-3.png,s,1,0.5608565000002272,h,1,0.09942210000008345,0.04749869999795919,0.04749650000303518,0.0984930999984499,0.1009706000040751,0.2987804999938817
RSVPLG03,sg,20251118-132525,1.0.2,20251105-084826,747,Experiment,Both,1,Automatic,main,31,20251118-132845,global,global,750,H,H,A,E,H-A.png,H-E.png,hH,hH,mask-4.png,mask-3.png,s,0,0.3371733000021777,h,1,0.15639480000390904,0.046476700001221616,0.04750670000066748,0.09947570000076666,0.10049760000401875,0.7493560000002617
RSVPLG03,sg,20251118-132525,1.0.2,20251105-084826,747,Experiment,Both,1,Automatic,main,32,20251118-132850,global,local,750,H,H,E,E,H-E.png,E-H.png,hH,hH,mask-3.png,mask-2.png,h,1,0.30837549999705516,s,0,0.16445139999996172,0.047512400000414345,0.047502800000074785,0.09851689999777591,0.1005795000019134,0.7481713999950443
RSVPLG03,sg,20251118-132525,1.0.2,20251105-084826,747,Experiment,Both,1,Automatic,main,33,20251118-132854,local,global,750,S,S,A,A,A-S.png,S-A.png,sS,sS,mask-2.png,mask-2.png,s,1,0.8322222000060719,s,1,0.09932729999854928,0.048032999999122694,0.047638500000175554,0.10112300000037067,0.0987569999997504,0.7514135000019451
RSVPLG03,sg,20251118-132525,1.0.2,20251105-084826,747,Experiment,Both,1,Automatic,main,34,20251118-132859,global,global,300,S,H,E,E,S-E.png,H-E.png,sS,hH,mask-3.png,mask-1.png,s,1,0.38635919999796897,h,1,0.17299800000182586,0.04750889999559149,0.04748209999524988,0.0995141999956104,0.09948399999848334,0.2997292000000016
RSVPLG03,sg,20251118-132525,1.0.2,20251105-084826,747,Experiment,Both,1,Automatic,main,35,20251118-132904,local,local,300,S,H,E,E,E-S.png,E-H.png,sS,hH,mask-1.png,mask-1.png,s,1,0.43541809999442194,h,1,0.044275100000959355,0.047294500000134576,0.04749689999880502,0.10163589999865508,0.10150140000041574,0.2999167999951169
RSVPLG03,sg,20251118-132525,1.0.2,20251105-084826,747,Experiment,Both,1,Automatic,main,36,20251118-132908,global,local,750,H,H,E,A,H-E.png,A-H.png,hH,hH,mask-3.png,mask-1.png,h,1,0.36007900000549853,h,1,0.1674429999984568,0.047500300002866425,0.046510699998179916,0.10051080000266666,0.0996279000028153,0.7511239000014029
RSVPLG03,sg,20251118-132525,1.0.2,20251105-084826,747,Experiment,Both,1,Automatic,main,37,20251118-132913,local,global,300,S,S,E,E,E-S.png,S-E.png,sS,sS,mask-3.png,mask-3.png,s,1,0.5652488999985508,h,0,0.15070209999976214,0.047510299998975825,0.04749609999998938,0.09951749999891035,0.09932969999499619,0.2997161000021151
RSVPLG03,sg,20251118-132525,1.0.2,20251105-084826,747,Experiment,Both,1,Automatic,main,38,20251118-132917,global,local,750,S,S,A,E,S-A.png,E-S.png,sS,sS,mask-3.png,mask-4.png,s,1,0.41135270000086166,s,1,0.13624930000514723,0.046593699997174554,0.047163700000965036,0.09958760000154143,0.10021810000034748,0.748505199997453
RSVPLG03,sg,20251118-132525,1.0.2,20251105-084826,747,Experiment,Both,1,Automatic,main,39,20251118-132922,global,local,300,H,H,A,E,H-A.png,E-H.png,hH,hH,mask-4.png,mask-3.png,h,1,0.42577390000224113,h,1,0.2370872999963467,0.04760309999983292,0.04869000000326196,0.09963520000019344,0.10073510000074748,0.29840279999916675
RSVPLG03,sg,20251118-132525,1.0.2,20251105-084826,747,Experiment,Both,1,Automatic,main,40,20251118-132926,global,global,300,S,S,A,E,S-A.png,S-E.png,sS,sS,mask-1.png,mask-2.png,s,1,0.36583039999823086,s,1,0.09948159999476047,0.04750639999838313,0.047577500001352746,0.10047800000029383,0.1006411999987904,0.29962829999567475
RSVPLG03,sg,20251118-132525,1.0.2,20251105-084826,747,Experiment,Both,1,Automatic,main,41,20251118-132930,global,global,750,S,H,E,E,S-E.png,H-E.png,sS,hH,mask-1.png,mask-2.png,s,1,0.3207468999971752,h,1,0.138843500004441,0.04658930000005057,0.04751070000202162,0.10058240000216756,0.10050359999877401,0.7504231999992044
RSVPLG03,sg,20251118-132525,1.0.2,20251105-084826,747,Experiment,Both,1,Automatic,main,42,20251118-132935,local,global,750,H,S,A,E,A-H.png,S-E.png,hH,sS,mask-3.png,mask-1.png,s,0,0.3529206000021077,s,1,0.1301418000002741,0.04739700000209268,0.047292299997934606,0.09857259999989765,0.09846819999802392,0.7504711000001407
RSVPLG03,sg,20251118-132525,1.0.2,20251105-084826,747,Experiment,Both,1,Automatic,main,43,20251118-132940,global,local,300,S,S,A,E,S-A.png,E-S.png,sS,sS,mask-4.png,mask-4.png,s,1,0.5135922000044957,s,1,0.11721830000169575,0.04650499999843305,0.047474200000579,0.09951910000381758,0.09985670000605751,0.2997299999988172
RSVPLG03,sg,20251118-132525,1.0.2,20251105-084826,747,Experiment,Both,1,Automatic,main,44,20251118-132944,global,global,300,H,H,A,E,H-A.png,H-E.png,hH,hH,mask-1.png,mask-3.png,s,0,0.324544800001604,h,1,0.1144618000034825,0.04750380000041332,0.04834090000076685,0.09850490000098944,0.10015109999949345,0.29849239999748534
RSVPLG03,sg,20251118-132525,1.0.2,20251105-084826,747,Experiment,Both,1,Automatic,main,45,20251118-132948,local,local,750,H,H,E,A,E-H.png,A-H.png,hH,hH,mask-2.png,mask-3.png,s,0,1.523981400001503,h,1,0.02328480000142008,0.04745320000074571,0.048468499997397885,0.10047079999640118,0.1014625999960117,0.7495300000009593
RSVPLG03,sg,20251118-132525,1.0.2,20251105-084826,747,Experiment,Both,1,Automatic,main,46,20251118-132954,local,global,300,S,S,E,A,E-S.png,S-A.png,sS,sS,mask-4.png,mask-2.png,s,1,0.4959190000008675,s,1,0.07756979999976465,0.04649900000367779,0.049571499999728985,0.09949810000398429,0.10156609999830835,0.2981724999990547
RSVPLG03,sg,20251118-132525,1.0.2,20251105-084826,747,Experiment,Both,1,Automatic,main,47,20251118-132958,global,global,750,H,H,E,A,H-E.png,H-A.png,hH,hH,mask-3.png,mask-2.png,h,1,0.5747004000004381,h,1,0.07880450000084238,0.0485149999949499,0.04753289999644039,0.10048860000097193,0.09934819999762112,0.7507660999981454
RSVPLG03,sg,20251118-132525,1.0.2,20251105-084826,747,Experiment,Both,1,Automatic,main,48,20251118-133003,global,global,300,S,S,A,A,S-A.png,S-A.png,sS,sS,mask-4.png,mask-1.png,s,1,1.9999997000049916,s,1,0.0580234000008204,0.04567949999909615,0.04570640000019921,0.09987489999912214,0.09986940000089817,0.30001459999766666
RSVPLG03,sg,20251118-132525,1.0.2,20251105-084826,747,Experiment,Both,1,Automatic,main,49,20251118-133008,global,global,750,S,S,A,E,S-A.png,S-E.png,sS,sS,mask-4.png,mask-2.png,s,1,3.2638020000013057,s,1,0.07669349999923725,0.04588260000309674,0.0465150999953039,0.09847570000420092,0.09954669999569887,0.7502100000056089
RSVPLG03,sg,20251118-132525,1.0.2,20251105-084826,747,Experiment,Both,1,Automatic,main,50,20251118-133016,local,global,300,H,S,A,A,A-H.png,S-A.png,hH,sS,mask-4.png,mask-3.png,h,1,0.8940677999999025,s,1,0.3556754000019282,0.045357099996181205,0.04749910000100499,0.09801499999593943,0.09949110000161454,0.2999411999990116
RSVPLG03,sg,20251118-132525,1.0.2,20251105-084826,747,Experiment,Both,1,Automatic,main,51,20251118-133023,local,global,750,H,H,A,A,A-H.png,H-A.png,hH,hH,mask-2.png,mask-2.png,h,1,0.4901512000069488,h,1,0.1055837000021711,0.04769099999975879,0.048071199998958036,0.0998916000025929,0.10125520000292454,0.7492186000017682
RSVPLG03,sg,20251118-132525,1.0.2,20251105-084826,747,Experiment,Both,1,Automatic,main,52,20251118-133028,global,global,300,H,S,E,A,H-E.png,S-A.png,hH,sS,mask-2.png,mask-4.png,h,1,0.35233750000043074,s,1,0.05403120000119088,0.04774290000204928,0.04874019999988377,0.1004869000025792,0.10001380000176141,0.300170700000308
RSVPLG03,sg,20251118-132525,1.0.2,20251105-084826,747,Experiment,Both,1,Automatic,main,53,20251118-133032,global,global,750,S,S,A,E,S-A.png,S-E.png,sS,sS,mask-2.png,mask-1.png,s,1,0.3246699999945122,s,1,0.09915380000165896,0.04810499999439344,0.047514600002614316,0.09915650000039022,0.10051570000359789,0.750627399997029
RSVPLG03,sg,20251118-132525,1.0.2,20251105-084826,747,Experiment,Both,1,Automatic,main,54,20251118-133037,local,global,750,S,S,A,A,A-S.png,S-A.png,sS,sS,mask-3.png,mask-2.png,s,1,0.32898150000255555,s,1,0.10634749999735504,0.04578340000443859,0.046690299997862894,0.10003250000590924,0.10082159999728901,0.7492065000042203
RSVPLG03,sg,20251118-132525,1.0.2,20251105-084826,747,Experiment,Both,1,Automatic,main,55,20251118-133041,global,global,750,S,S,E,E,S-E.png,S-E.png,sS,sS,mask-1.png,mask-3.png,s,1,0.31709440000122413,s,1,0.1342538999961107,0.04570590000366792,0.04760639999585692,0.10001300000294577,0.09957549999671755,0.7483215000029304
RSVPLG03,sg,20251118-132525,1.0.2,20251105-084826,747,Experiment,Both,1,Automatic,main,56,20251118-133046,global,global,750,H,S,E,E,H-E.png,S-E.png,hH,sS,mask-3.png,mask-3.png,s,0,0.22812980000162497,s,1,0.09405960000003688,0.04755470000236528,0.04749620000075083,0.09957730000314768,0.10052359999826876,0.7492773000049056
RSVPLG03,sg,20251118-132525,1.0.2,20251105-084826,747,Experiment,Both,1,Automatic,main,57,20251118-133050,global,local,750,S,H,E,A,S-E.png,A-H.png,sS,hH,mask-1.png,mask-4.png,s,1,0.4628976000021794,h,1,0.21450320000440115,0.04687920000287704,0.047485600000072736,0.09896219999791356,0.10047500000655418,0.7489588999960688
RSVPLG03,sg,20251118-132525,1.0.2,20251105-084826,747,Experiment,Both,1,Automatic,main,58,20251118-133055,local,global,750,S,S,E,A,E-S.png,S-A.png,sS,sS,mask-3.png,mask-1.png,s,1,9.947935300006066,s,1,0.05667189999803668,0.04750810000405181,0.048517199997149874,0.09867710000253282,0.10151529999711784,0.7484104000031948
RSVPLG03,sg,20251118-132525,1.0.2,20251105-084826,747,Experiment,Both,1,Automatic,main,59,20251118-133109,local,local,300,H,H,E,A,E-H.png,A-H.png,hH,hH,mask-3.png,mask-2.png,h,1,0.352880999998888,s,0,0.08606739999959245,0.048725299995567184,0.04863259999547154,0.1009522999956971,0.10084949999873061,0.3005559000011999
RSVPLG03,sg,20251118-132525,1.0.2,20251105-084826,747,Experiment,Both,1,Automatic,main,60,20251118-133113,global,global,750,H,H,A,E,H-A.png,H-E.png,hH,hH,mask-3.png,mask-1.png,h,1,1.6051183999952627,h,1,0.10828149999724701,0.04636759999993956,0.0473234999954002,0.09925909999583382,0.0995688999973936,0.7492414000007557
RSVPLG03,sg,20251118-132525,1.0.2,20251105-084826,747,Experiment,Both,1,Automatic,main,61,20251118-133119,global,local,300,S,H,A,E,S-A.png,E-H.png,sS,hH,mask-2.png,mask-2.png,s,1,0.40959120000479743,h,1,0.14998080000077607,0.04770419999840669,0.04770759999519214,0.09941679999610642,0.0998768999997992,0.3001756000012392
RSVPLG03,sg,20251118-132525,1.0.2,20251105-084826,747,Experiment,Both,1,Automatic,main,62,20251118-133123,local,global,300,H,S,E,A,E-H.png,S-A.png,hH,sS,mask-2.png,mask-4.png,h,1,0.6280477999971481,s,1,0.019146899998304434,0.04770309999730671,0.04765000000043074,0.09987980000005336,0.09980560000258265,0.29856889999791747
RSVPLG03,sg,20251118-132525,1.0.2,20251105-084826,747,Experiment,Both,1,Automatic,main,63,20251118-133128,global,local,750,S,S,A,A,S-A.png,A-S.png,sS,sS,mask-2.png,mask-3.png,s,1,0.36821409999538446,h,0,0.33073630000581034,0.04666350000479724,0.047666700003901497,0.09988490000250749,0.09990490000200225,0.7494889000008698
RSVPLG03,sg,20251118-132525,1.0.2,20251105-084826,747,Experiment,Both,1,Automatic,main,64,20251118-133133,local,local,300,H,H,E,E,E-H.png,E-H.png,hH,hH,mask-3.png,mask-2.png,s,0,0.5293072999993456,s,0,0.12013760000263574,0.047021899998071603,0.04768150000018068,0.09868129999813391,0.09890640000230633,0.29965139999694657
RSVPLG03,sg,20251118-132525,1.0.2,20251105-084826,747,Experiment,Both,1,Automatic,main,65,20251118-133137,global,local,750,H,H,A,A,H-A.png,A-H.png,hH,hH,mask-2.png,mask-3.png,h,1,2.4335329000023194,s,0,0.1692987999995239,0.04595139999582898,0.047483499998634215,0.09805749999941327,0.09969210000417661,0.7497741999977734
RSVPLG03,sg,20251118-132525,1.0.2,20251105-084826,747,Experiment,Both,1,Automatic,main,66,20251118-133144,global,local,300,H,S,A,E,H-A.png,E-S.png,hH,sS,mask-1.png,mask-4.png,h,1,0.7786449000050197,s,1,0.2306795999975293,0.04767439999704948,0.04767980000178795,0.09986829999979818,0.09990249999827938,0.2996506999988924
RSVPLG03,sg,20251118-132525,1.0.2,20251105-084826,747,Experiment,Both,1,Automatic,main,67,20251118-133148,global,global,300,H,S,E,E,H-E.png,S-E.png,hH,sS,mask-3.png,mask-3.png,h,1,10.195816299994476,s,1,0.09720129999914207,0.04776239999773679,0.046735700001590885,0.09896099999605212,0.09894660000281874,0.30065649999596644
RSVPLG03,sg,20251118-132525,1.0.2,20251105-084826,747,Experiment,Both,1,Automatic,main,68,20251118-133202,local,local,750,H,H,A,E,A-H.png,E-H.png,hH,hH,mask-3.png,mask-2.png,h,1,12.982948799995938,s,0,0.11310810000577476,0.047558400001435075,0.046535299996321555,0.0993806999977096,0.09851360000175191,0.7497621000002255
RSVPLG03,sg,20251118-132525,1.0.2,20251105-084826,747,Experiment,Both,1,Automatic,main,69,20251118-133220,local,global,750,S,H,A,A,A-S.png,H-A.png,sS,hH,mask-1.png,mask-2.png,s,1,0.5786975999944843,s,0,0.0576128000029712,0.048574799999187235,0.048623099995893426,0.10055670000292594,0.10062350000225706,0.7499581000010949
RSVPLG03,sg,20251118-132525,1.0.2,20251105-084826,747,Experiment,Both,1,Automatic,main,70,20251118-133224,local,global,300,H,H,E,E,E-H.png,H-E.png,hH,hH,mask-1.png,mask-3.png,h,1,0.4415015000049607,h,1,0.020772299998498056,0.047055399998498615,0.04709710000315681,0.1002306000009412,0.09846809999726247,0.2999580999967293
RSVPLG03,sg,20251118-132525,1.0.2,20251105-084826,747,Experiment,Both,1,Automatic,main,71,20251118-133229,local,local,750,H,S,A,A,A-H.png,A-S.png,hH,sS,mask-2.png,mask-4.png,h,1,0.41471580000506947,s,1,0.1560435999999754,0.04655720000300789,0.0464298000006238,0.09858550000353716,0.09946999999374384,0.7496547000046121
RSVPLG03,sg,20251118-132525,1.0.2,20251105-084826,747,Experiment,Both,1,Automatic,main,72,20251118-133233,local,global,750,S,H,E,E,E-S.png,H-E.png,sS,hH,mask-3.png,mask-1.png,s,1,0.645082299997739,s,0,0.4707288999998127,0.04770999999891501,0.047677499998826534,0.09988760000123875,0.0997572999986005,0.7500059000012698
RSVPLG03,sg,20251118-132525,1.0.2,20251105-084826,747,Experiment,Both,1,Automatic,main,73,20251118-133239,local,local,750,S,H,E,A,E-S.png,A-H.png,sS,hH,mask-2.png,mask-2.png,s,1,0.3671070000054897,h,1,0.06426849999843398,0.045721400005277246,0.048444299995026086,0.10013180000532884,0.09961289999773726,0.7487843000053545
RSVPLG03,sg,20251118-132525,1.0.2,20251105-084826,747,Experiment,Both,1,Automatic,main,74,20251118-133243,local,local,750,S,H,E,E,E-S.png,E-H.png,sS,hH,mask-2.png,mask-4.png,s,1,0.5434019999956945,h,1,0.14645020000170916,0.04750639999838313,0.04763939999975264,0.0995173999981489,0.09963199999765493,0.7500459000002593
RSVPLG03,sg,20251118-132525,1.0.2,20251105-084826,747,Experiment,Both,1,Automatic,main,75,20251118-133248,local,local,750,H,H,A,A,A-H.png,A-H.png,hH,hH,mask-2.png,mask-1.png,h,1,0.46804659999907017,h,1,0.09687180000037188,0.04880540000158362,0.0477584999971441,0.10098779999680119,0.10043059999588877,0.750642400002107
RSVPLG03,sg,20251118-132525,1.0.2,20251105-084826,747,Experiment,Both,1,Automatic,main,76,20251118-133254,local,local,300,H,H,A,E,A-H.png,E-H.png,hH,hH,mask-1.png,mask-3.png,h,1,0.7651907999970717,h,1,0.13011809999443358,0.048683100001653656,0.04779310000594705,0.10186989999783691,0.09999450000032084,0.30032329999812646
RSVPLG03,sg,20251118-132525,1.0.2,20251105-084826,747,Experiment,Both,1,Automatic,main,77,20251118-133258,local,global,300,H,S,A,E,A-H.png,S-E.png,hH,sS,mask-2.png,mask-1.png,h,1,0.47397600000113016,h,0,0.08805450000363635,0.04573309999977937,0.04774660000111908,0.09919699999591103,0.09988710000470746,0.2999721999949543
RSVPLG03,sg,20251118-132525,1.0.2,20251105-084826,747,Experiment,Both,1,Automatic,main,78,20251118-133303,local,local,750,H,H,E,A,E-H.png,A-H.png,hH,hH,mask-4.png,mask-3.png,h,1,0.5312182999987272,h,1,0.0906092000004719,0.0476901000001817,0.0487042000022484,0.09986589999607531,0.10092679999797838,0.7489113999981782
RSVPLG03,sg,20251118-132525,1.0.2,20251105-084826,747,Experiment,Both,1,Automatic,main,79,20251118-133307,local,global,300,S,H,A,A,A-S.png,H-A.png,sS,hH,mask-3.png,mask-1.png,h,0,0.593791199993575,h,1,0.09106710000196472,0.04770479999569943,0.04869270000199322,0.0989698999983375,0.10174630000256002,0.2988145999988774
RSVPLG03,sg,20251118-132525,1.0.2,20251105-084826,747,Experiment,Both,1,Automatic,main,80,20251118-133312,local,local,300,H,H,A,E,A-H.png,E-H.png,hH,hH,mask-3.png,mask-4.png,h,1,0.5886449000026914,h,1,0.09561920000123791,0.04666680000082124,0.047679000002972316,0.09987199999886798,0.0998741000003065,0.29947769999853335
RSVPLG03,sg,20251118-132525,1.0.2,20251105-084826,747,Experiment,Both,1,Automatic,main,81,20251118-133316,global,local,300,S,S,E,E,S-E.png,E-S.png,sS,sS,mask-4.png,mask-2.png,s,1,0.6991525000048568,s,1,0.10827539999445435,0.04752310000185389,0.047508099996775854,0.09952760000305716,0.09950879999814788,0.29983370000263676
RSVPLG03,sg,20251118-132525,1.0.2,20251105-084826,747,Experiment,Both,1,Automatic,main,82,20251118-133321,global,local,750,S,S,E,A,S-E.png,A-S.png,sS,sS,mask-4.png,mask-3.png,s,1,1.460653900001489,s,1,0.07740510000439826,0.04748109999491135,0.04756479999923613,0.0985925999993924,0.10154399999737507,0.7485595999969519
RSVPLG03,sg,20251118-132525,1.0.2,20251105-084826,747,Experiment,Both,1,Automatic,main,83,20251118-133326,global,local,300,S,H,E,E,S-E.png,E-H.png,sS,hH,mask-4.png,mask-1.png,s,1,0.6222811999978148,s,0,0.12072189999889815,0.04765699999552453,0.04764419999992242,0.09984819999954198,0.09981749999860767,0.30041379999602214
RSVPLG03,sg,20251118-132525,1.0.2,20251105-084826,747,Experiment,Both,1,Automatic,main,84,20251118-133331,local,local,300,S,H,E,E,E-S.png,E-H.png,sS,hH,mask-1.png,mask-1.png,s,1,0.7869944000049145,h,1,0.11914149999938672,0.04567739999765763,0.04741649999778019,0.09955130000162171,0.10096640000119805,0.29920359999960056
RSVPLG03,sg,20251118-132525,1.0.2,20251105-084826,747,Experiment,Both,1,Automatic,main,85,20251118-133335,global,local,750,S,H,A,E,S-A.png,E-H.png,sS,hH,mask-1.png,mask-4.png,s,1,0.7964591999989352,s,0,0.4927841000026092,0.04753760000312468,0.0477411999963806,0.09862060000159545,0.09874739999941085,0.7496759000059683
RSVPLG03,sg,20251118-132525,1.0.2,20251105-084826,747,Experiment,Both,1,Automatic,main,86,20251118-133341,local,local,300,S,H,A,A,A-S.png,A-H.png,sS,hH,mask-2.png,mask-1.png,s,1,0.3118862000046647,h,1,0.6326392999981181,0.04752780000126222,0.04867069999454543,0.10058720000233734,0.09996069999760948,0.29899200000363635
RSVPLG03,sg,20251118-132525,1.0.2,20251105-084826,747,Experiment,Both,1,Automatic,main,87,20251118-133345,local,global,750,S,S,E,E,E-S.png,S-E.png,sS,sS,mask-3.png,mask-1.png,s,1,0.4165368000030867,s,1,0.12078109999856679,0.04750400000193622,0.047623799997381866,0.0995175999996718,0.10167039999942062,0.7482940000045346
RSVPLG03,sg,20251118-132525,1.0.2,20251105-084826,747,Experiment,Both,1,Automatic,main,88,20251118-133350,global,global,750,H,S,A,E,H-A.png,S-E.png,hH,sS,mask-3.png,mask-2.png,h,1,0.28358339999977034,s,1,0.19707670000207145,0.048499000004085246,0.04642479999893112,0.10048400000232505,0.09925530000327853,0.7508955000012065
RSVPLG03,sg,20251118-132525,1.0.2,20251105-084826,747,Experiment,Both,1,Automatic,main,89,20251118-133355,local,global,750,S,H,A,A,A-S.png,H-A.png,sS,hH,mask-1.png,mask-4.png,s,1,2.0219772000054945,h,1,16.85426980000193,0.04770880000432953,0.048669000003428664,0.09914800000115065,0.09972209999978077,0.7501635000007809
RSVPLG03,sg,20251118-132525,1.0.2,20251105-084826,747,Experiment,Both,1,Automatic,main,90,20251118-133418,local,local,300,H,S,A,E,A-H.png,E-S.png,hH,sS,mask-3.png,mask-3.png,h,1,0.30812390000210144,s,1,0.18035710000549443,0.04751290000422159,0.0484329999962938,0.10051210000528954,0.09974109999893699,0.2996389000036288
RSVPLG03,sg,20251118-132525,1.0.2,20251105-084826,747,Experiment,Both,1,Automatic,main,91,20251118-133422,local,global,300,S,H,A,A,A-S.png,H-A.png,sS,hH,mask-1.png,mask-3.png,s,1,0.37076109999907203,h,1,0.05722399999649497,0.04642039999453118,0.04856860000290908,0.09849810000014259,0.09965589999774238,0.299150799997733
RSVPLG03,sg,20251118-132525,1.0.2,20251105-084826,747,Experiment,Both,1,Automatic,main,92,20251118-133426,global,global,300,H,H,E,E,H-E.png,H-E.png,hH,hH,mask-3.png,mask-2.png,h,1,0.35479629999463214,h,1,0.1652373000033549,0.046537499998521525,0.04752619999635499,0.099621000001207,0.100174799998058,0.2999737999998615
RSVPLG03,sg,20251118-132525,1.0.2,20251105-084826,747,Experiment,Both,1,Automatic,main,93,20251118-133430,local,global,300,H,S,A,A,A-H.png,S-A.png,hH,sS,mask-3.png,mask-1.png,h,1,0.3622020999973756,s,1,0.17161019999912241,0.04752629999711644,0.04757830000016838,0.09861409999575699,0.1015447999961907,0.29834090000076685
RSVPLG03,sg,20251118-132525,1.0.2,20251105-084826,747,Experiment,Both,1,Automatic,main,94,20251118-133434,global,local,300,S,H,E,E,S-E.png,E-H.png,sS,hH,mask-3.png,mask-1.png,s,1,0.8034314000033191,h,1,0.1161396000024979,0.04754690000117989,0.04759980000380892,0.09956729999976233,0.09864229999948293,0.299840799998492
RSVPLG03,sg,20251118-132525,1.0.2,20251105-084826,747,Experiment,Both,1,Automatic,main,95,20251118-133439,global,global,300,S,S,A,A,S-A.png,S-A.png,sS,sS,mask-2.png,mask-4.png,s,1,0.37840700000379,s,1,0.12335909999819705,0.04757170000084443,0.0475116999950842,0.10143719999905443,0.10154139999940526,0.2997657000014442
RSVPLG03,sg,20251118-132525,1.0.2,20251105-084826,747,Experiment,Both,1,Automatic,main,96,20251118-133443,global,global,750,S,H,A,A,S-A.png,H-A.png,sS,hH,mask-2.png,mask-4.png,s,1,0.3352521000051638,h,1,0.09948679999797605,0.047529600000416394,0.048647100004018284,0.0998777999993763,0.10172220000094967,0.7491986999957589
RSVPLG03,sg,20251118-132525,1.0.2,20251105-084826,747,Experiment,Both,1,Automatic,main,97,20251118-133448,local,local,750,S,H,A,A,A-S.png,A-H.png,sS,hH,mask-2.png,mask-3.png,s,1,0.48418970000057016,h,1,0.11761649999971269,0.04765580000093905,0.04749180000362685,0.09971560000121826,0.09958639999968,0.7496902999992017
RSVPLG03,sg,20251118-132525,1.0.2,20251105-084826,747,Experiment,Both,1,Automatic,main,98,20251118-133453,global,global,300,S,H,A,E,S-A.png,H-E.png,sS,hH,mask-3.png,mask-1.png,s,1,0.33515820000320673,h,1,0.15508210000552936,0.04750410000269767,0.048485200000868645,0.09854579999955604,0.10032119999959832,0.2985917999976664
RSVPLG03,sg,20251118-132525,1.0.2,20251105-084826,747,Experiment,Both,1,Automatic,main,99,20251118-133457,local,local,750,H,S,A,A,A-H.png,A-S.png,hH,sS,mask-3.png,mask-4.png,h,1,0.3607241999998223,s,1,0.08507919999829028,0.047500599997874815,0.047512000004644506,0.10053260000131559,0.09850359999836655,0.7516347999990103
RSVPLG03,sg,20251118-132525,1.0.2,20251105-084826,747,Experiment,Both,1,Automatic,main,100,20251118-133501,global,local,750,H,S,E,A,H-E.png,A-S.png,hH,sS,mask-1.png,mask-1.png,h,1,0.4619989999991958,h,0,0.10395460000290768,0.04757429999881424,0.047473899998294655,0.10062240000115708,0.09923960000014631,0.7505774000019301
RSVPLG03,sg,20251118-133602,1.0.2,20251105-084826,747,Experiment,Both,1,Automatic,warmup,1,20251118-133628,local,global,750,S,S,A,E,A-S.png,S-E.png,sS,sS,mask-4.png,mask-4.png,s,1,0.3501971000005142,s,1,0.06910700000298675,0.04106480000336887,0.047669799998402596,0.093171300002723,0.10070840000116732,0.7438699999984237
RSVPLG03,sg,20251118-133602,1.0.2,20251105-084826,747,Experiment,Both,1,Automatic,warmup,2,20251118-133632,global,local,300,H,S,A,A,H-A.png,A-S.png,hH,sS,mask-1.png,mask-2.png,h,1,0.3311651000040001,h,0,0.31557230000180425,0.04672969999955967,0.047696699999505654,0.09920380000403384,0.09916270000394434,0.29979630000161706
RSVPLG03,sg,20251118-133602,1.0.2,20251105-084826,747,Experiment,Both,1,Automatic,warmup,3,20251118-133637,local,local,300,H,S,E,E,E-H.png,E-S.png,hH,sS,mask-3.png,mask-2.png,s,0,0.886413200001698,s,1,0.1062441999965813,0.047686799996881746,0.04685550000431249,0.0998773999963305,0.10017119999974966,0.2995069999960833
RSVPLG03,sg,20251118-133602,1.0.2,20251105-084826,747,Experiment,Both,1,Automatic,warmup,4,20251118-133641,global,local,750,S,H,E,A,S-E.png,A-H.png,sS,hH,mask-4.png,mask-2.png,s,1,0.3016829999978654,h,1,0.11929499999678228,0.04700050000246847,0.047727500001201406,0.10029110000323271,0.10000030000082916,0.7502317000034964
RSVPLG03,sg,20251118-133602,1.0.2,20251105-084826,747,Experiment,Both,1,Automatic,main,5,20251118-133646,local,local,750,S,S,A,E,A-S.png,E-S.png,sS,sS,mask-3.png,mask-2.png,s,1,0.3010558999958448,s,1,0.09201770000072429,0.04824289999669418,0.04880989999946905,0.10026119999383809,0.10002450000320096,0.7504534999970929
RSVPLG03,sg,20251118-133602,1.0.2,20251105-084826,747,Experiment,Both,1,Automatic,main,6,20251118-133650,global,local,750,H,H,A,E,H-A.png,E-H.png,hH,hH,mask-3.png,mask-2.png,h,1,0.2707793000008678,s,0,0.12379030000010971,0.047512200006167404,0.04649760000029346,0.09852680000039982,0.09881509999831906,0.7499185000051511
RSVPLG03,sg,20251118-133602,1.0.2,20251105-084826,747,Experiment,Both,1,Automatic,main,7,20251118-133655,local,global,300,S,H,E,A,E-S.png,H-A.png,sS,hH,mask-1.png,mask-4.png,s,1,0.497240899996541,h,1,0.02762329999677604,0.046737900003790855,0.04656680000334745,0.09991650000301888,0.09963969999807887,0.3002672000002349
RSVPLG03,sg,20251118-133602,1.0.2,20251105-084826,747,Experiment,Both,1,Automatic,main,8,20251118-133659,global,local,750,H,H,E,A,H-E.png,A-H.png,hH,hH,mask-1.png,mask-4.png,h,1,0.39819359999819426,h,1,1.208331800000451,0.04750640000565909,0.04750320000312058,0.10050910000427393,0.09951929999806453,0.7505775000026915
RSVPLG03,sg,20251118-133602,1.0.2,20251105-084826,747,Experiment,Both,1,Automatic,main,9,20251118-133705,global,local,750,H,H,A,A,H-A.png,A-H.png,hH,hH,mask-3.png,mask-4.png,h,1,0.37908949999837205,s,0,0.3713281000018469,0.047512999997707084,0.04866509999556001,0.09951980000187177,0.0998429999963264,0.7488298000025679
RSVPLG03,sg,20251118-133602,1.0.2,20251105-084826,747,Experiment,Both,1,Automatic,main,10,20251118-133710,local,global,300,H,H,E,E,E-H.png,H-E.png,hH,hH,mask-2.png,mask-3.png,s,0,1.3189333000045735,h,1,1.41506610000215,0.046436199998424854,0.04770270000153687,0.09977900000376394,0.10006460000295192,0.299783499998739
RSVPLG03,sg,20251118-133602,1.0.2,20251105-084826,747,Experiment,Both,1,Automatic,main,11,20251118-133715,local,local,750,H,H,E,E,E-H.png,E-H.png,hH,hH,mask-1.png,mask-1.png,h,1,0.3517833999940194,h,1,0.10618889999750536,0.04859269999724347,0.047502800000074785,0.09964879999461118,0.09851160000107484,0.7516098999985843
RSVPLG03,sg,20251118-133602,1.0.2,20251105-084826,747,Experiment,Both,1,Automatic,main,12,20251118-133719,global,global,300,H,S,A,E,H-A.png,S-E.png,hH,sS,mask-4.png,mask-4.png,h,1,0.32542909999756375,s,1,0.05465859999821987,0.046522399999958,0.04749440000159666,0.09952029999840306,0.09950989999924786,0.2997773999959463
RSVPLG03,sg,20251118-133602,1.0.2,20251105-084826,747,Experiment,Both,1,Automatic,main,13,20251118-133723,local,local,750,H,H,E,E,E-H.png,E-H.png,hH,hH,mask-3.png,mask-4.png,s,0,0.5042765999969561,h,1,0.04076119999808725,0.047570300004736055,0.047696200002974365,0.09962550000636838,0.0997369000033359,0.7500371999994968
RSVPLG03,sg,20251118-133602,1.0.2,20251105-084826,747,Experiment,Both,1,Automatic,main,14,20251118-133728,global,global,300,S,S,A,A,S-A.png,S-A.png,sS,sS,mask-3.png,mask-2.png,s,1,0.28501020000112476,s,1,0.058281200006604195,0.04747069999575615,0.04849169999943115,0.10047259999555536,0.10048079999978654,0.29944329999852926
RSVPLG03,sg,20251118-133602,1.0.2,20251105-084826,747,Experiment,Both,1,Automatic,main,15,20251118-133732,global,global,300,S,H,A,E,S-A.png,H-E.png,sS,hH,mask-3.png,mask-3.png,s,1,0.25998819999949774,h,1,0.3724865000040154,0.04684660000202712,0.047311700000136625,0.10086189999856288,0.10032689999934519,0.3007025999977486
RSVPLG03,sg,20251118-133602,1.0.2,20251105-084826,747,Experiment,Both,1,Automatic,main,16,20251118-133736,local,global,300,S,H,A,A,A-S.png,H-A.png,sS,hH,mask-4.png,mask-2.png,s,1,0.5528592000046046,h,1,0.1066724999982398,0.047546300003887154,0.04748269999981858,0.10000340000260621,0.10170059999654768,0.2984128000025521
RSVPLG03,sg,20251118-133602,1.0.2,20251105-084826,747,Experiment,Both,1,Automatic,main,17,20251118-133740,global,global,750,S,H,E,E,S-E.png,H-E.png,sS,hH,mask-2.png,mask-2.png,s,1,0.23494400000345195,h,1,0.026241399995342363,0.04747990000032587,0.04773459999705665,0.1014837999973679,0.10180679999757558,0.7498833999998169
RSVPLG03,sg,20251118-133602,1.0.2,20251105-084826,747,Experiment,Both,1,Automatic,main,18,20251118-133745,global,local,300,H,S,A,E,H-A.png,E-S.png,hH,sS,mask-2.png,mask-4.png,h,1,2.712683499994455,s,1,0.6001638999950956,0.04753960000380175,0.047555800003465265,0.09957890000077896,0.09959440000238828,0.2998391000000993
RSVPLG03,sg,20251118-133602,1.0.2,20251105-084826,747,Experiment,Both,1,Automatic,main,19,20251118-133752,global,global,300,H,H,E,E,H-E.png,H-E.png,hH,hH,mask-2.png,mask-2.png,h,1,0.3028007999964757,h,1,0.12574160000076517,0.04652619999978924,0.04757640000025276,0.09962590000213822,0.09969060000003083,0.3000140000003739
RSVPLG03,sg,20251118-133602,1.0.2,20251105-084826,747,Experiment,Both,1,Automatic,main,20,20251118-133756,local,global,750,H,S,A,A,A-H.png,S-A.png,hH,sS,mask-1.png,mask-1.png,h,1,0.2712041999984649,s,1,0.12302600000111852,0.0464129000029061,0.048586899996735156,0.09924630000023171,0.10058150000259047,0.7495108000002801
RSVPLG03,sg,20251118-133602,1.0.2,20251105-084826,747,Experiment,Both,1,Automatic,main,21,20251118-133801,local,local,750,S,S,A,E,A-S.png,E-S.png,sS,sS,mask-4.png,mask-3.png,s,1,0.5133643000008306,s,1,0.09113380000053439,0.047524599998723716,0.04704920000222046,0.10157549999712501,0.09872500000346918,0.7514933999991626
RSVPLG03,sg,20251118-133602,1.0.2,20251105-084826,747,Experiment,Both,1,Automatic,main,22,20251118-133805,global,local,750,H,S,A,E,H-A.png,E-S.png,hH,sS,mask-1.png,mask-3.png,h,1,0.2349497000031988,s,1,0.03912039999704575,0.04656010000326205,0.04769750000559725,0.09970940000494011,0.09992820000479696,0.7502227000004495
RSVPLG03,sg,20251118-133602,1.0.2,20251105-084826,747,Experiment,Both,1,Automatic,main,23,20251118-133810,global,global,300,S,H,A,A,S-A.png,H-A.png,sS,hH,mask-2.png,mask-3.png,s,1,0.28865740000037476,h,1,0.054899899994779844,0.046735999996599276,0.046697199999471195,0.0997510000015609,0.09966989999520592,0.29967670000041835
RSVPLG03,sg,20251118-133602,1.0.2,20251105-084826,747,Experiment,Both,1,Automatic,main,24,20251118-133814,global,local,750,H,S,A,E,H-A.png,E-S.png,hH,sS,mask-2.png,mask-3.png,h,1,0.2390815000035218,s,1,0.15032959999371087,0.04572629999893252,0.04668200000014622,0.09996270000556251,0.10036929999478161,0.749186600005487
RSVPLG03,sg,20251118-133602,1.0.2,20251105-084826,747,Experiment,Both,1,Automatic,main,25,20251118-133818,global,local,300,S,S,A,E,S-A.png,E-S.png,sS,sS,mask-2.png,mask-2.png,s,1,0.4805460999996285,h,0,0.12139490000117803,0.047594499999831896,0.04737849999946775,0.0996179000067059,0.09863539999787463,0.2997125000038068
RSVPLG03,sg,20251118-133602,1.0.2,20251105-084826,747,Experiment,Both,1,Automatic,main,26,20251118-133823,local,global,300,S,H,A,A,A-S.png,H-A.png,sS,hH,mask-4.png,mask-4.png,s,1,0.5523931999996421,h,1,0.08619360000011511,0.04761589999543503,0.04759049999847775,0.09968329999537673,0.09965689999808092,0.2999928999997792
RSVPLG03,sg,20251118-133602,1.0.2,20251105-084826,747,Experiment,Both,1,Automatic,main,27,20251118-133827,local,local,300,H,S,E,A,E-H.png,A-S.png,hH,sS,mask-4.png,mask-4.png,s,0,0.5338031999999657,h,0,0.7781985000037821,0.04750680000142893,0.04903519999788841,0.09933500000624917,0.10105929999554064,0.29866060000495054
RSVPLG03,sg,20251118-133602,1.0.2,20251105-084826,747,Experiment,Both,1,Automatic,main,28,20251118-133832,local,local,750,H,H,E,A,E-H.png,A-H.png,hH,hH,mask-1.png,mask-4.png,s,0,0.7308091000013519,h,1,0.8430838999993284,0.04827079999813577,0.04716379999445053,0.10027029999764636,0.10023749999527354,0.7500709000014467
RSVPLG03,sg,20251118-133602,1.0.2,20251105-084826,747,Experiment,Both,1,Automatic,main,29,20251118-133837,global,local,300,S,H,E,A,S-E.png,A-H.png,sS,hH,mask-3.png,mask-3.png,s,1,0.3926902000021073,h,1,0.5493754000053741,0.04770219999772962,0.04869989999860991,0.10149589999491582,0.10094460000254912,0.3004899999941699
RSVPLG03,sg,20251118-133602,1.0.2,20251105-084826,747,Experiment,Both,1,Automatic,main,30,20251118-133842,local,global,750,H,H,A,E,A-H.png,H-E.png,hH,hH,mask-2.png,mask-1.png,h,1,0.3398555000021588,s,0,0.28292969999893103,0.04756699999416014,0.04862440000579227,0.09958349999942584,0.10163480000483105,0.7489384999935282
RSVPLG03,sg,20251118-133602,1.0.2,20251105-084826,747,Experiment,Both,1,Automatic,main,31,20251118-133847,global,local,300,S,S,A,E,S-A.png,E-S.png,sS,sS,mask-4.png,mask-1.png,s,1,1.2500635999967926,s,1,0.13748380000470206,0.047507899995252956,0.045746000003418885,0.09951429999637185,0.09983199999987846,0.29975899999408284
RSVPLG03,sg,20251118-133602,1.0.2,20251105-084826,747,Experiment,Both,1,Automatic,main,32,20251118-133852,local,global,750,S,S,E,A,E-S.png,S-A.png,sS,sS,mask-4.png,mask-1.png,s,1,0.6568684000012581,h,0,0.5321633000057773,0.04749159999482799,0.046515999994880985,0.09850539999752073,0.10038579999672947,0.7487742000012076
RSVPLG03,sg,20251118-133602,1.0.2,20251105-084826,747,Experiment,Both,1,Automatic,main,33,20251118-133857,local,local,300,S,S,A,E,A-S.png,E-S.png,sS,sS,mask-2.png,mask-1.png,s,1,0.38474469999346184,s,1,0.4103058999971836,0.04568509999808157,0.04768210000474937,0.09987989999353886,0.09987870000622934,0.29950759999337606
RSVPLG03,sg,20251118-133602,1.0.2,20251105-084826,747,Experiment,Both,1,Automatic,main,34,20251118-133902,local,global,750,S,S,E,E,E-S.png,S-E.png,sS,sS,mask-4.png,mask-2.png,s,1,0.5804303000040818,s,1,0.06429599999682978,0.04749189999711234,0.048574300002655946,0.09939099999610335,0.10071829999651527,0.7488580999997794
RSVPLG03,sg,20251118-133602,1.0.2,20251105-084826,747,Experiment,Both,1,Automatic,main,35,20251118-133906,local,local,300,S,S,E,E,E-S.png,E-S.png,sS,sS,mask-2.png,mask-1.png,s,1,4.1498468999998295,s,1,0.05310250000184169,0.04771850000543054,0.04751850000320701,0.0997856000030879,0.0988470000011148,0.30041740000160644
RSVPLG03,sg,20251118-133602,1.0.2,20251105-084826,747,Experiment,Both,1,Automatic,main,36,20251118-133914,local,local,300,H,S,A,A,A-H.png,A-S.png,hH,sS,mask-1.png,mask-4.png,h,1,0.3760122000021511,s,1,0.1535126000017044,0.047689699997135904,0.04870909999590367,0.09986819999903673,0.10095439999713562,0.2992876999996952
RSVPLG03,sg,20251118-133602,1.0.2,20251105-084826,747,Experiment,Both,1,Automatic,main,37,20251118-133918,local,local,750,S,S,E,E,E-S.png,E-S.png,sS,sS,mask-1.png,mask-1.png,s,1,0.29846030000044266,s,1,0.13464730000123382,0.04650250000122469,0.047405900004378054,0.10058300000673626,0.0992333000031067,0.7502459000024828
RSVPLG03,sg,20251118-133602,1.0.2,20251105-084826,747,Experiment,Both,1,Automatic,main,38,20251118-133923,global,local,750,S,S,E,E,S-E.png,E-S.png,sS,sS,mask-3.png,mask-1.png,s,1,0.41581350000342354,s,1,0.1057005000038771,0.04657479999877978,0.04867699999886099,0.09977490000164835,0.10096889999840641,0.7490690999984508
RSVPLG03,sg,20251118-133602,1.0.2,20251105-084826,747,Experiment,Both,1,Automatic,main,39,20251118-133928,local,global,300,S,H,E,E,E-S.png,H-E.png,sS,hH,mask-2.png,mask-1.png,s,1,0.9287517000047956,s,0,0.06125570000585867,0.04673219999676803,0.04748729999846546,0.09905309999885503,0.10028830000374,0.29961769999499666
RSVPLG03,sg,20251118-133602,1.0.2,20251105-084826,747,Experiment,Both,1,Automatic,main,40,20251118-133932,local,local,300,S,S,A,A,A-S.png,A-S.png,sS,sS,mask-4.png,mask-2.png,s,1,0.29562630000145873,s,1,0.07974609999655513,0.04635260000213748,0.047522599998046644,0.09984130000520963,0.10062810000090394,0.2984911000021384
RSVPLG03,sg,20251118-133602,1.0.2,20251105-084826,747,Experiment,Both,1,Automatic,main,41,20251118-133936,local,local,300,H,H,A,A,A-H.png,A-H.png,hH,hH,mask-1.png,mask-4.png,h,1,0.4422989999948186,h,1,0.06930979999742704,0.04751360000227578,0.047531700001854915,0.10050300000148127,0.09954230000585085,0.3007778999963193
RSVPLG03,sg,20251118-133602,1.0.2,20251105-084826,747,Experiment,Both,1,Automatic,main,42,20251118-133941,local,global,300,H,S,A,E,A-H.png,S-E.png,hH,sS,mask-4.png,mask-3.png,h,1,0.48248379999859026,s,1,0.10826770000130637,0.04772919999959413,0.048533100001804996,0.1008914999983972,0.10113019999698736,0.3001055999993696
RSVPLG03,sg,20251118-133602,1.0.2,20251105-084826,747,Experiment,Both,1,Automatic,main,43,20251118-133945,global,local,300,S,S,E,E,S-E.png,E-S.png,sS,sS,mask-4.png,mask-4.png,s,1,0.4387120999963372,s,1,0.09915560000081314,0.046513499997672625,0.047536799997033086,0.09966439999698196,0.09955059999629157,0.2999555999995209
RSVPLG03,sg,20251118-133602,1.0.2,20251105-084826,747,Experiment,Both,1,Automatic,main,44,20251118-133949,global,global,750,S,S,A,A,S-A.png,S-A.png,sS,sS,mask-3.png,mask-2.png,s,1,0.32267139999748906,s,1,0.14058460000524065,0.046568600002501626,0.0476319000008516,0.09861580000142567,0.10070570000243606,0.7493106999972952
RSVPLG03,sg,20251118-133602,1.0.2,20251105-084826,747,Experiment,Both,1,Automatic,main,45,20251118-133954,global,global,750,S,H,E,A,S-E.png,H-A.png,sS,hH,mask-3.png,mask-3.png,s,1,0.2603836999987834,h,1,0.10205530000530416,0.04766110000491608,0.04567900000256486,0.09984880000411067,0.09992220000276575,0.7518240999997943
RSVPLG03,sg,20251118-133602,1.0.2,20251105-084826,747,Experiment,Both,1,Automatic,main,46,20251118-133958,local,local,750,S,S,E,E,E-S.png,E-S.png,sS,sS,mask-2.png,mask-4.png,s,1,0.44668990000354825,s,1,0.10719970000354806,0.04791339999792399,0.045724300005531404,0.10023449999425793,0.09993860000395216,0.7519924999942305
RSVPLG03,sg,20251118-133602,1.0.2,20251105-084826,747,Experiment,Both,1,Automatic,main,47,20251118-134003,global,global,750,H,S,E,E,H-E.png,S-E.png,hH,sS,mask-2.png,mask-4.png,h,1,0.27183760000480106,s,1,0.16694940000161296,0.04769739999755984,0.04658680000284221,0.0999283999990439,0.0998050999987754,0.7495406999951228
RSVPLG03,sg,20251118-133602,1.0.2,20251105-084826,747,Experiment,Both,1,Automatic,main,48,20251118-134007,global,global,300,S,S,A,E,S-A.png,S-E.png,sS,sS,mask-3.png,mask-4.png,s,1,0.3073981999987154,s,1,0.14107459999650018,0.04721129999961704,0.04857769999944139,0.09909740000148304,0.09956999999849359,0.29971590000059223
RSVPLG03,sg,20251118-133602,1.0.2,20251105-084826,747,Experiment,Both,1,Automatic,main,49,20251118-134012,global,global,300,S,S,A,E,S-A.png,S-E.png,sS,sS,mask-1.png,mask-3.png,s,1,0.33758400000078836,s,1,0.12229489999299403,0.0475529999966966,0.04659820000233594,0.09964219999528723,0.09869800000160467,0.30015979999734554
RSVPLG03,sg,20251118-133602,1.0.2,20251105-084826,747,Experiment,Both,1,Automatic,main,50,20251118-134016,global,global,750,H,S,A,A,H-A.png,S-A.png,hH,sS,mask-3.png,mask-4.png,h,1,0.2985530999940238,s,1,0.10135270000318997,0.04750560000684345,0.04750509999576025,0.09852250000403728,0.09857049999845913,0.7497962000052212
RSVPLG03,sg,20251118-133602,1.0.2,20251105-084826,747,Experiment,Both,1,Automatic,main,51,20251118-134022,local,local,300,S,S,A,A,A-S.png,A-S.png,sS,sS,mask-1.png,mask-2.png,s,1,0.3406987999987905,s,1,0.09211209999921266,0.04755250000016531,0.048552400003245566,0.10057580000284361,0.09962240000459133,0.3008544999975129
RSVPLG03,sg,20251118-133602,1.0.2,20251105-084826,747,Experiment,Both,1,Automatic,main,52,20251118-134026,global,global,750,H,S,E,A,H-E.png,S-A.png,hH,sS,mask-4.png,mask-4.png,h,1,0.23272060000454076,s,1,0.12133510000421666,0.047514500001852866,0.04750829999829875,0.09963089999655494,0.09956419999798527,0.7499117999977898
RSVPLG03,sg,20251118-133602,1.0.2,20251105-084826,747,Experiment,Both,1,Automatic,main,53,20251118-134030,local,global,750,S,H,A,A,A-S.png,H-A.png,sS,hH,mask-4.png,mask-3.png,s,1,0.42048849999991944,h,1,0.07613709999714047,0.047532299999147654,0.04750969999440713,0.0995210000037332,0.09952440000051865,0.7499651000034646
RSVPLG03,sg,20251118-133602,1.0.2,20251105-084826,747,Experiment,Both,1,Automatic,main,54,20251118-134035,local,global,300,S,S,E,E,E-S.png,S-E.png,sS,sS,mask-3.png,mask-2.png,s,1,0.3485893999968539,s,1,0.10434089999762364,0.04634489999443758,0.04752290000033099,0.0994254999968689,0.0987165999977151,0.29969169999822043
RSVPLG03,sg,20251118-133602,1.0.2,20251105-084826,747,Experiment,Both,1,Automatic,main,55,20251118-134039,global,local,750,S,H,E,E,S-E.png,E-H.png,sS,hH,mask-3.png,mask-3.png,s,1,0.3291019000025699,h,1,0.10932989999855636,0.04772729999967851,0.04682560000219382,0.10084510000160662,0.10008920000109356,0.750107100000605
RSVPLG03,sg,20251118-133602,1.0.2,20251105-084826,747,Experiment,Both,1,Automatic,main,56,20251118-134044,local,global,750,H,H,A,E,A-H.png,H-E.png,hH,hH,mask-4.png,mask-3.png,s,0,0.3344972999984748,h,1,0.05586490000132471,0.048494900001969654,0.04749140000058105,0.10045790000003763,0.0993153999952483,0.7508354000019608
RSVPLG03,sg,20251118-133602,1.0.2,20251105-084826,747,Experiment,Both,1,Automatic,main,57,20251118-134048,global,local,300,H,S,E,A,H-E.png,A-S.png,hH,sS,mask-2.png,mask-4.png,h,1,0.35025709999899846,s,1,0.07743879999907222,0.04671299999608891,0.04690850000042701,0.09984679999615764,0.10056169999734266,0.29832059999898775
RSVPLG03,sg,20251118-133602,1.0.2,20251105-084826,747,Experiment,Both,1,Automatic,main,58,20251118-134052,global,local,750,H,S,A,A,H-A.png,A-S.png,hH,sS,mask-4.png,mask-2.png,s,0,0.4173194000031799,s,1,0.08681889999570558,0.0474781000011717,0.04766859999654116,0.09984020000410965,0.09983800000190968,0.7503434000027482
RSVPLG03,sg,20251118-133602,1.0.2,20251105-084826,747,Experiment,Both,1,Automatic,main,59,20251118-134057,local,global,750,H,S,E,A,E-H.png,S-A.png,hH,sS,mask-4.png,mask-1.png,h,1,0.3648830000020098,h,0,0.13844830000016373,0.04572819999884814,0.04709839999850374,0.09989109999878565,0.09987499999988358,0.7490955000030226
RSVPLG03,sg,20251118-133602,1.0.2,20251105-084826,747,Experiment,Both,1,Automatic,main,60,20251118-134102,local,global,300,H,H,E,E,E-H.png,H-E.png,hH,hH,mask-1.png,mask-1.png,h,1,0.6486692000034964,s,0,0.2532961999968393,0.04728129999421071,0.049001199993654154,0.09825189999537542,0.10210749999532709,0.29785249999986263
RSVPLG03,sg,20251118-133602,1.0.2,20251105-084826,747,Experiment,Both,1,Automatic,main,61,20251118-134106,local,global,750,S,H,E,A,E-S.png,H-A.png,sS,hH,mask-2.png,mask-1.png,s,1,0.6848822000029031,h,1,0.02970389999973122,0.0465459999977611,0.04740470000251662,0.09948469999653753,0.10040540000045439,0.7498878999977023
RSVPLG03,sg,20251118-133602,1.0.2,20251105-084826,747,Experiment,Both,1,Automatic,main,62,20251118-134111,global,local,750,S,S,A,A,S-A.png,A-S.png,sS,sS,mask-1.png,mask-3.png,s,1,0.6896269999997457,h,0,0.04324760000599781,0.045673300002817996,0.04867260000173701,0.0998634999996284,0.09984300000360236,0.7487117999990005
RSVPLG03,sg,20251118-133602,1.0.2,20251105-084826,747,Experiment,Both,1,Automatic,main,63,20251118-134116,global,global,750,H,S,A,E,H-A.png,S-E.png,hH,sS,mask-1.png,mask-4.png,h,1,0.2702900000003865,s,1,0.08975619999546325,0.04636420000315411,0.04734009999810951,0.09934659999998985,0.10044139999808976,0.7489781000040239
RSVPLG03,sg,20251118-133602,1.0.2,20251105-084826,747,Experiment,Both,1,Automatic,main,64,20251118-134121,global,local,300,S,S,E,E,S-E.png,E-S.png,sS,sS,mask-4.png,mask-3.png,s,1,0.5398948000001837,s,1,0.10740090000035707,0.04753360000177054,0.0465944000025047,0.10159230000135722,0.10066989999904763,0.30088209999667015
RSVPLG03,sg,20251118-133602,1.0.2,20251105-084826,747,Experiment,Both,1,Automatic,main,65,20251118-134125,global,local,300,S,H,E,A,S-E.png,A-H.png,sS,hH,mask-1.png,mask-4.png,s,1,0.31744109999999637,h,1,0.08535609999671578,0.04852979999850504,0.04764219999924535,0.09963839999545598,0.09970500000054017,0.30104779999965103
RSVPLG03,sg,20251118-133602,1.0.2,20251105-084826,747,Experiment,Both,1,Automatic,main,66,20251118-134129,local,local,300,S,S,E,A,E-S.png,A-S.png,sS,sS,mask-1.png,mask-3.png,s,1,0.45622000000003027,h,0,0.0586334000036004,0.048567899997578934,0.04758919999585487,0.10062469999684254,0.09968789999402361,0.3009455999999773
RSVPLG03,sg,20251118-133602,1.0.2,20251105-084826,747,Experiment,Both,1,Automatic,main,67,20251118-134133,local,global,300,S,H,E,A,E-S.png,H-A.png,sS,hH,mask-2.png,mask-3.png,s,1,0.4220991999973194,s,0,0.21109019999857992,0.04752770000050077,0.04751219999889145,0.09954479999578325,0.09956180000153836,0.2997966999973869
RSVPLG03,sg,20251118-133602,1.0.2,20251105-084826,747,Experiment,Both,1,Automatic,main,68,20251118-134138,local,local,300,H,H,E,A,E-H.png,A-H.png,hH,hH,mask-1.png,mask-3.png,h,1,0.3198197999954573,h,1,0.07270319999952335,0.04858480000257259,0.0475667999999132,0.10064250000141328,0.10063719999743626,0.3003677000015159
RSVPLG03,sg,20251118-133602,1.0.2,20251105-084826,747,Experiment,Both,1,Automatic,main,69,20251118-134142,local,global,750,S,H,A,A,A-S.png,H-A.png,sS,hH,mask-1.png,mask-2.png,s,1,0.41918689999874914,h,1,0.0919616999963182,0.04751399999804562,0.0475157000037143,0.09952579999662703,0.1005250000016531,0.7495675999962259
RSVPLG03,sg,20251118-133602,1.0.2,20251105-084826,747,Experiment,Both,1,Automatic,main,70,20251118-134146,local,local,300,S,S,A,A,A-S.png,A-S.png,sS,sS,mask-1.png,mask-4.png,s,1,0.47501419999753125,h,0,0.10040019999723881,0.0475185999966925,0.04752580000058515,0.09853889999794774,0.09952899999916553,0.2988097999987076
RSVPLG03,sg,20251118-133602,1.0.2,20251105-084826,747,Experiment,Both,1,Automatic,main,71,20251118-134151,local,global,300,S,S,A,A,A-S.png,S-A.png,sS,sS,mask-2.png,mask-3.png,s,1,0.5596198999992339,h,0,0.02067929999611806,0.04675180000049295,0.04756049999559764,0.09918660000403179,0.09854990000167163,0.2996750000020256
RSVPLG03,sg,20251118-133602,1.0.2,20251105-084826,747,Experiment,Both,1,Automatic,main,72,20251118-134155,global,global,750,S,H,E,E,S-E.png,H-E.png,sS,hH,mask-4.png,mask-4.png,s,1,0.30162460000428837,h,1,0.10830010000063339,0.048039799999969546,0.047323000006144866,0.10038350000104401,0.1003331000028993,0.7498790999961784
RSVPLG03,sg,20251118-133602,1.0.2,20251105-084826,747,Experiment,Both,1,Automatic,main,73,20251118-134200,global,global,300,H,H,E,A,H-E.png,H-A.png,hH,hH,mask-3.png,mask-1.png,h,1,0.28769939999619965,h,1,0.09051480000198353,0.046479399999952875,0.048533200002566446,0.0988223999956972,0.10055710000597173,0.29895079999550944
RSVPLG03,sg,20251118-133602,1.0.2,20251105-084826,747,Experiment,Both,1,Automatic,main,74,20251118-134204,local,local,750,H,H,E,E,E-H.png,E-H.png,hH,hH,mask-3.png,mask-4.png,h,1,1.4257059000010486,s,0,0.05665199999930337,0.04604500000277767,0.0469500999970478,0.10014719999890076,0.09996129999490222,0.7501705000031507
RSVPLG03,sg,20251118-133602,1.0.2,20251105-084826,747,Experiment,Both,1,Automatic,main,75,20251118-134209,local,local,750,S,S,A,A,A-S.png,A-S.png,sS,sS,mask-3.png,mask-3.png,s,1,0.3033741000035661,s,1,0.0847938000006252,0.04804359999980079,0.04570840000087628,0.09938859999965644,0.09990090000064811,0.7509480000007898
RSVPLG03,sg,20251118-133602,1.0.2,20251105-084826,747,Experiment,Both,1,Automatic,main,76,20251118-134228,local,global,300,H,H,A,A,A-H.png,H-A.png,hH,hH,mask-4.png,mask-1.png,h,1,0.35155119999399176,h,1,0.07059799999842653,0.0486293000067235,0.0483890000032261,0.10164730000542477,0.09947660000034375,0.3009631000022637
RSVPLG03,sg,20251118-133602,1.0.2,20251105-084826,747,Experiment,Both,1,Automatic,main,77,20251118-134232,global,global,750,H,H,E,A,H-E.png,H-A.png,hH,hH,mask-2.png,mask-4.png,h,1,0.5061244000025908,h,1,0.29662249999819323,0.04757190000236733,0.047602200000255834,0.0996281000043382,0.10052010000072187,0.749783600003866
RSVPLG03,sg,20251118-133602,1.0.2,20251105-084826,747,Experiment,Both,1,Automatic,main,78,20251118-134237,global,local,750,H,H,A,E,H-A.png,E-H.png,hH,hH,mask-4.png,mask-3.png,h,1,0.3238458000050741,s,0,0.07351699999708217,0.04769059999671299,0.0487347000016598,0.09988259999954607,0.09992929999862099,0.7498877999969409
RSVPLG03,sg,20251118-133602,1.0.2,20251105-084826,747,Experiment,Both,1,Automatic,main,79,20251118-134242,local,global,750,H,S,A,A,A-H.png,S-A.png,hH,sS,mask-4.png,mask-1.png,h,1,0.4164299999974901,s,1,0.04229619999387069,0.046883499999239575,0.04763480000110576,0.09812480000255164,0.09964849999960279,0.7495770000023185
RSVPLG03,sg,20251118-133602,1.0.2,20251105-084826,747,Experiment,Both,1,Automatic,main,80,20251118-134246,global,local,750,S,S,E,E,S-E.png,E-S.png,sS,sS,mask-1.png,mask-1.png,s,1,0.40256020000379067,h,0,0.32790509999904316,0.04774319999705767,0.047979599999962375,0.09997440000006463,0.09911930000089342,0.7504349000009825
RSVPLG03,sg,20251118-133602,1.0.2,20251105-084826,747,Experiment,Both,1,Automatic,main,81,20251118-134251,global,global,300,S,S,A,A,S-A.png,S-A.png,sS,sS,mask-3.png,mask-1.png,s,1,0.3604626999949687,s,1,0.103785200000857,0.04664650000631809,0.04690410000330303,0.09995150000031572,0.09928620000573574,0.2989428000000771
RSVPLG03,sg,20251118-133602,1.0.2,20251105-084826,747,Experiment,Both,1,Automatic,main,82,20251118-134255,global,global,750,H,H,A,E,H-A.png,H-E.png,hH,hH,mask-3.png,mask-1.png,h,1,0.21667359999992186,h,1,0.05466840000008233,0.04653050000342773,0.04752010000083828,0.09970480000629323,0.09969979999732459,0.7492572000046493
RSVPLG03,sg,20251118-133602,1.0.2,20251105-084826,747,Experiment,Both,1,Automatic,main,83,20251118-134300,local,global,750,H,S,E,E,E-H.png,S-E.png,hH,sS,mask-2.png,mask-1.png,h,1,0.82821690000128,h,0,0.06132410000282107,0.047601700003724545,0.04754070000490174,0.09861390000151005,0.09969070000079228,0.7501892000000225
RSVPLG03,sg,20251118-133602,1.0.2,20251105-084826,747,Experiment,Both,1,Automatic,main,84,20251118-134305,local,local,300,S,H,A,E,A-S.png,E-H.png,sS,hH,mask-4.png,mask-3.png,s,1,0.319878800000879,h,1,0.5690377999999328,0.04636519999621669,0.04674939999677008,0.09924940000200877,0.10035829999833368,0.29918370000086725
RSVPLG03,sg,20251118-133602,1.0.2,20251105-084826,747,Experiment,Both,1,Automatic,main,85,20251118-134309,global,global,300,H,H,A,E,H-A.png,H-E.png,hH,hH,mask-4.png,mask-3.png,h,1,0.28592700000444893,h,1,0.10097929999756161,0.046331400000781287,0.046789100000751205,0.09930390000226907,0.0997542999975849,0.29854409999825293
RSVPLG03,sg,20251118-133602,1.0.2,20251105-084826,747,Experiment,Both,1,Automatic,main,86,20251118-134313,local,global,750,S,S,E,A,E-S.png,S-A.png,sS,sS,mask-4.png,mask-3.png,s,1,0.4521845999988727,h,0,0.13502889999654144,0.046573700004955754,0.047522599998046644,0.0985971000045538,0.09957469999790192,0.749874400004046
RSVPLG03,sg,20251118-133602,1.0.2,20251105-084826,747,Experiment,Both,1,Automatic,main,87,20251118-134318,local,global,300,S,H,A,A,A-S.png,H-A.png,sS,hH,mask-1.png,mask-4.png,s,1,0.8325341000017943,h,1,0.1231677000032505,0.04722909999691183,0.04747589999897173,0.09992349999811267,0.09934059999795863,0.300971099997696
RSVPLG03,sg,20251118-133602,1.0.2,20251105-084826,747,Experiment,Both,1,Automatic,main,88,20251118-134323,global,global,300,H,H,A,A,H-A.png,H-A.png,hH,hH,mask-4.png,mask-1.png,h,1,0.23440780000237282,h,1,0.08912050000071758,0.047517300001345575,0.04850599999917904,0.09851550000166753,0.10154529999999795,0.2988148000004003
RSVPLG03,sg,20251118-133602,1.0.2,20251105-084826,747,Experiment,Both,1,Automatic,main,89,20251118-134327,local,local,750,H,S,A,A,A-H.png,A-S.png,hH,sS,mask-1.png,mask-3.png,h,1,0.39557570000033593,s,1,0.17185369999788236,0.04761780000262661,0.046532200001820456,0.09960860000137473,0.10057999999844469,0.7508898000014597
RSVPLG03,sg,20251118-133602,1.0.2,20251105-084826,747,Experiment,Both,1,Automatic,main,90,20251118-134332,local,local,300,S,H,A,E,A-S.png,E-H.png,sS,hH,mask-1.png,mask-4.png,s,1,0.3117313999973703,h,1,0.08838739999919198,0.04755540000041947,0.04735249999794178,0.0985519999958342,0.10042719999910332,0.29841429999942193
RSVPLG03,sg,20251118-133602,1.0.2,20251105-084826,747,Experiment,Both,1,Automatic,main,91,20251118-134336,global,global,750,H,S,A,A,H-A.png,S-A.png,hH,sS,mask-4.png,mask-1.png,h,1,0.34932649999973364,s,1,0.12429249999695458,0.04704130000027362,0.04714619999867864,0.10005760000058217,0.10015019999991637,0.7498811999976169
RSVPLG03,sg,20251118-133602,1.0.2,20251105-084826,747,Experiment,Both,1,Automatic,main,92,20251118-134340,global,local,300,H,S,E,A,H-E.png,A-S.png,hH,sS,mask-3.png,mask-1.png,h,1,0.4487356000026921,s,1,1.3627372000046307,0.04655419999471633,0.047544499997457024,0.09987209999962943,0.10119169999961741,0.29882009999710135
RSVPLG03,sg,20251118-133602,1.0.2,20251105-084826,747,Experiment,Both,1,Automatic,main,93,20251118-134346,local,local,750,H,S,A,E,A-H.png,E-S.png,hH,sS,mask-4.png,mask-1.png,h,1,0.297264399996493,s,1,0.10518169999704696,0.04768719999992754,0.04567669999960344,0.10009429999627173,0.09988570000132313,0.7518954999977723
RSVPLG03,sg,20251118-133602,1.0.2,20251105-084826,747,Experiment,Both,1,Automatic,main,94,20251118-134351,global,global,300,H,H,E,E,H-E.png,H-E.png,hH,hH,mask-1.png,mask-4.png,h,1,0.3885500000033062,h,1,0.3160361999980523,0.0476760999954422,0.04783829999360023,0.09989269999641692,0.10102259999985108,0.29956030000175815
RSVPLG03,sg,20251118-133602,1.0.2,20251105-084826,747,Experiment,Both,1,Automatic,main,95,20251118-134355,global,local,300,H,S,A,E,H-A.png,E-S.png,hH,sS,mask-4.png,mask-4.png,h,1,0.38239140000223415,s,1,0.1401285999963875,0.04769259999739006,0.04853390000062063,0.1001269999978831,0.09871470000507543,0.2998511999976472
RSVPLG03,sg,20251118-133602,1.0.2,20251105-084826,747,Experiment,Both,1,Automatic,main,96,20251118-134359,global,local,300,S,H,E,A,S-E.png,A-H.png,sS,hH,mask-4.png,mask-4.png,s,1,0.40103369999997085,s,0,0.14945150000130525,0.047289600006479304,0.04777550000289921,0.09851300000445917,0.10005890000320505,0.2992785000024014
RSVPLG03,sg,20251118-133602,1.0.2,20251105-084826,747,Experiment,Both,1,Automatic,main,97,20251118-134403,global,local,750,H,S,E,A,H-E.png,A-S.png,hH,sS,mask-1.png,mask-2.png,h,1,0.38945469999453053,h,0,0.1531877000015811,0.04770950000238372,0.047655399997893255,0.10007740000582999,0.09979670000029728,0.7498646000021836
RSVPLG03,sg,20251118-133602,1.0.2,20251105-084826,747,Experiment,Both,1,Automatic,main,98,20251118-134408,local,local,750,H,H,A,A,A-H.png,A-H.png,hH,hH,mask-2.png,mask-4.png,h,1,0.5607959999979357,h,1,0.06794300000183284,0.04764470000372967,0.045705000004090834,0.1008300000030431,0.09987530000216793,0.7511599999997998
RSVPLG03,sg,20251118-133602,1.0.2,20251105-084826,747,Experiment,Both,1,Automatic,main,99,20251118-134413,global,global,750,H,S,E,A,H-E.png,S-A.png,hH,sS,mask-1.png,mask-1.png,h,1,0.3200208999987808,s,1,1.4509548999994877,0.04758700000093086,0.047601999998732936,0.10057980000419775,0.09977950000029523,0.7506863000016892
RSVPLG03,sg,20251118-133602,1.0.2,20251105-084826,747,Experiment,Both,1,Automatic,main,100,20251118-134419,global,local,300,H,S,E,E,H-E.png,E-S.png,hH,sS,mask-3.png,mask-1.png,h,1,0.37002229999779956,s,1,0.15360900000086986,0.04768309999781195,0.04569239999545971,0.09989070000301581,0.09985329999472015,0.3003394000043045
