exp,exp_initials,runtime,ver,modtime,sub,blocktype,targets,cuetype,mode,trialtype,trial,trialtime,t1_level,t2_level,t2_lag,t1,t2,distractor1,distractor2,stimfile1,stimfile2,t1_corr,t2_corr,maskfile1,maskfile2,t1_resp,t1_acc,t1_rt,t2_resp,t2_acc,t2_rt,t1_dur,t2_dur,t1mask_soa,t2mask_soa,t1t2_soa
RSVPLG03,cs,20251106-135502,1.0.2,20251105-084826,739,Introduction,T1,1,Automatic,main,1,20251106-135540,global,global,750,H,S,A,E,H-A.png,S-E.png,hH,sS,mask-1.png,mask-1.png,h,1,5.376489899819717,none,-5,0,0.09020320000126958,0.09754949994385242,0.19125799997709692,0.20060670003294945,0.7409423000644892
RSVPLG03,cs,20251106-135502,1.0.2,20251105-084826,739,Introduction,T1,1,Automatic,main,2,20251106-135549,global,global,750,S,H,E,A,S-E.png,H-A.png,sS,hH,mask-3.png,mask-3.png,s,1,1.6739614000543952,none,-5,0,0.09681009990163147,0.098249799804762,0.19953529979102314,0.20487399981357157,0.7497099000029266
RSVPLG03,cs,20251106-135502,1.0.2,20251105-084826,739,Introduction,T1,1,Automatic,main,3,20251106-135555,global,local,750,S,S,A,A,S-A.png,A-S.png,sS,sS,mask-2.png,mask-4.png,h,0,1.2832081001251936,none,-5,0,0.0969934999011457,0.09738120017573237,0.19988829991780221,0.20029520010575652,0.7483104998245835
RSVPLG03,cs,20251106-135502,1.0.2,20251105-084826,739,Introduction,T1,1,Automatic,main,4,20251106-135601,local,local,750,S,H,E,A,E-S.png,A-H.png,sS,hH,mask-2.png,mask-4.png,s,1,0.8613680999260396,none,-5,0,0.09743559989146888,0.09735150006599724,0.2003096998669207,0.20019280002452433,0.7496813999023288
RSVPLG03,cs,20251106-135502,1.0.2,20251105-084826,739,Introduction,T1,1,Automatic,main,5,20251106-135606,local,global,750,S,H,E,A,E-S.png,H-A.png,sS,hH,mask-2.png,mask-1.png,s,1,1.1236958999652416,none,-5,0,0.09769830014556646,0.09630370000377297,0.20165290008299053,0.20028510014526546,0.7501163999550045
RSVPLG03,cs,20251106-135502,1.0.2,20251105-084826,739,Introduction,T1,1,Automatic,main,6,20251106-135611,global,local,750,S,S,A,A,S-A.png,A-S.png,sS,sS,mask-4.png,mask-1.png,none,-6,0,none,-5,0,0.09866570006124675,0.09778019995428622,0.20077290013432503,0.20000479998998344,0.7500822001602501
RSVPLG03,cs,20251106-135624,1.0.2,20251105-084826,739,Practice,T1,1,Automatic,main,1,20251106-135643,local,local,750,S,H,A,E,A-S.png,E-H.png,sS,hH,mask-4.png,mask-4.png,s,1,0.7248075001407415,none,-5,0,0.04013380012474954,0.046499399933964014,0.09315810003317893,0.09869189979508519,0.7447555002290756
RSVPLG03,cs,20251106-135624,1.0.2,20251105-084826,739,Practice,T1,1,Automatic,main,2,20251106-135648,global,local,300,H,H,A,A,H-A.png,A-H.png,hH,hH,mask-4.png,mask-4.png,h,1,1.3597469001542777,none,-5,0,0.048527600010856986,0.047541300067678094,0.10054529993794858,0.09955230006016791,0.3011439999099821
RSVPLG03,cs,20251106-135624,1.0.2,20251105-084826,739,Practice,T1,1,Automatic,main,3,20251106-135653,local,local,300,H,S,E,A,E-H.png,A-S.png,hH,sS,mask-3.png,mask-4.png,s,0,0.7849489999935031,none,-5,0,0.04781590006314218,0.047508700052276254,0.09949319995939732,0.09952390007674694,0.30081579997204244
RSVPLG03,cs,20251106-135624,1.0.2,20251105-084826,739,Practice,T1,1,Automatic,main,4,20251106-135657,local,global,300,S,S,A,A,A-S.png,S-A.png,sS,sS,mask-2.png,mask-3.png,s,1,1.3022523999679834,none,-5,0,0.046588500030338764,0.04749210015870631,0.10061880014836788,0.10060250014066696,0.30002059997059405
RSVPLG03,cs,20251106-135624,1.0.2,20251105-084826,739,Practice,T1,1,Automatic,main,5,20251106-135702,global,local,750,H,S,A,A,H-A.png,A-S.png,hH,sS,mask-3.png,mask-4.png,h,1,1.628718099789694,none,-5,0,0.04776680003851652,0.046586799900978804,0.10001490009017289,0.09967839997261763,0.7518432000651956
RSVPLG03,cs,20251106-135624,1.0.2,20251105-084826,739,Practice,T1,1,Automatic,main,6,20251106-135708,global,global,300,S,H,E,A,S-E.png,H-A.png,sS,hH,mask-3.png,mask-1.png,s,1,0.9238964000251144,none,-5,0,0.04851299989968538,0.0486150998622179,0.0995390999596566,0.09965229989029467,0.3004244000185281
RSVPLG03,cs,20251106-135624,1.0.2,20251105-084826,739,Practice,T1,1,Automatic,main,7,20251106-135712,global,global,750,S,H,A,E,S-A.png,H-E.png,sS,hH,mask-3.png,mask-3.png,s,1,1.2213183999992907,none,-5,0,0.0485343998298049,0.0475602000951767,0.09965419978834689,0.10019919998012483,0.7513132998719811
RSVPLG03,cs,20251106-135624,1.0.2,20251105-084826,739,Practice,T1,1,Automatic,main,8,20251106-135717,global,local,300,H,S,E,A,H-E.png,A-S.png,hH,sS,mask-2.png,mask-1.png,h,1,1.5091187001671642,none,-5,0,0.04754230007529259,0.047534599900245667,0.09954590001143515,0.0995732001028955,0.29976850003004074
RSVPLG03,cs,20251106-135624,1.0.2,20251105-084826,739,Practice,T1,1,Automatic,main,9,20251106-135722,global,global,300,S,H,A,E,S-A.png,H-E.png,sS,hH,mask-3.png,mask-4.png,s,1,0.986773599870503,none,-5,0,0.04871830018237233,0.047694999957457185,0.10091410018503666,0.0997159001417458,0.3016325000207871
RSVPLG03,cs,20251106-135624,1.0.2,20251105-084826,739,Practice,T1,1,Automatic,main,10,20251106-135727,local,global,300,S,S,E,A,E-S.png,S-A.png,sS,sS,mask-1.png,mask-1.png,s,1,0.6454461999237537,none,-5,0,0.04768620012328029,0.04759060009382665,0.09991700015962124,0.09860199992544949,0.30164030008018017
RSVPLG03,cs,20251106-135624,1.0.2,20251105-084826,739,Practice,T1,1,Automatic,main,11,20251106-135731,local,local,750,H,H,A,A,A-H.png,A-H.png,hH,hH,mask-2.png,mask-4.png,s,0,0.992102200165391,none,-5,0,0.04696250008419156,0.04784969985485077,0.10001559997908771,0.0998309999704361,0.7500313001219183
RSVPLG03,cs,20251106-135624,1.0.2,20251105-084826,739,Practice,T1,1,Automatic,main,12,20251106-135736,global,global,750,S,H,A,A,S-A.png,H-A.png,sS,hH,mask-4.png,mask-4.png,s,1,0.8317404999397695,none,-5,0,0.0476773998234421,0.0495724999345839,0.09987619984894991,0.10071470006369054,0.74951529991813
RSVPLG03,cs,20251106-135624,1.0.2,20251105-084826,739,Practice,T1,1,Automatic,main,13,20251106-135741,local,global,750,H,S,A,E,A-H.png,S-E.png,hH,sS,mask-1.png,mask-1.png,h,1,1.0827852999791503,none,-5,0,0.048508499981835485,0.04752010013908148,0.09983450011350214,0.09856389998458326,0.7528371999505907
RSVPLG03,cs,20251106-135624,1.0.2,20251105-084826,739,Practice,T1,1,Automatic,main,14,20251106-135747,local,local,300,H,H,E,A,E-H.png,A-H.png,hH,hH,mask-1.png,mask-4.png,h,1,1.1933999999891967,none,-5,0,0.0475250999443233,0.04754579998552799,0.10155980009585619,0.10079729999415576,0.3003457000013441
RSVPLG03,cs,20251106-135624,1.0.2,20251105-084826,739,Practice,T1,1,Automatic,main,15,20251106-135751,global,local,750,S,H,E,A,S-E.png,A-H.png,sS,hH,mask-4.png,mask-3.png,s,1,0.6064182999543846,none,-5,0,0.047896800097078085,0.04751309985294938,0.10198449995368719,0.10151239996775985,0.7518109001684934
RSVPLG03,cs,20251106-135624,1.0.2,20251105-084826,739,Practice,T1,1,Automatic,main,16,20251106-135756,local,global,750,H,H,A,A,A-H.png,H-A.png,hH,hH,mask-2.png,mask-2.png,h,1,0.8572907999623567,none,-5,0,0.04748970014043152,0.04749999986961484,0.09945950005203485,0.09848949988372624,0.7519899001345038
RSVPLG03,cs,20251106-135936,1.0.2,20251105-084826,739,Practice,Both,1,Automatic,main,1,20251106-135954,global,global,750,H,H,E,A,H-E.png,H-A.png,hH,hH,mask-1.png,mask-3.png,h,1,2.620252300053835,s,0,1.1922873998992145,0.042038500076159835,0.047670300118625164,0.09313330007717013,0.09984120004810393,0.7435194000136107
RSVPLG03,cs,20251106-135936,1.0.2,20251105-084826,739,Practice,Both,1,Automatic,main,2,20251106-140002,local,local,300,H,S,A,A,A-H.png,A-S.png,hH,sS,mask-2.png,mask-3.png,s,0,2.9249696999322623,h,0,0.6471186999697238,0.047396300127729774,0.047690500039607286,0.098026700085029,0.09990080003626645,0.2993147000670433
RSVPLG03,cs,20251106-135936,1.0.2,20251105-084826,739,Practice,Both,1,Automatic,main,3,20251106-140010,global,local,300,S,H,A,E,S-A.png,E-H.png,sS,hH,mask-2.png,mask-2.png,s,1,1.4746565001551062,h,1,0.40729310014285147,0.047828700160607696,0.0476887000259012,0.10005040001124144,0.09889669995754957,0.30162500008009374
RSVPLG03,cs,20251106-135936,1.0.2,20251105-084826,739,Practice,Both,1,Automatic,main,4,20251106-140016,local,local,300,S,H,A,E,A-S.png,E-H.png,sS,hH,mask-1.png,mask-3.png,s,1,0.9249345001298934,h,1,2.1207983000203967,0.048752799862995744,0.04669680004008114,0.10099099995568395,0.09998040017671883,0.3017080998979509
RSVPLG03,cs,20251106-135936,1.0.2,20251105-084826,739,Practice,Both,1,Automatic,main,5,20251106-140022,global,local,750,S,H,E,E,S-E.png,E-H.png,sS,hH,mask-4.png,mask-3.png,s,1,0.9341029999777675,h,1,0.16568079986609519,0.047707300167530775,0.04765839991159737,0.09993669996038079,0.09982759994454682,0.7498086001724005
RSVPLG03,cs,20251106-135936,1.0.2,20251105-084826,739,Practice,Both,1,Automatic,main,6,20251106-140028,local,global,750,H,H,A,A,A-H.png,H-A.png,hH,hH,mask-2.png,mask-3.png,h,1,0.9861934999935329,h,1,0.24161319993436337,0.047659700037911534,0.04760549985803664,0.09913159999996424,0.1016679999884218,0.7488506999798119
RSVPLG03,cs,20251106-135936,1.0.2,20251105-084826,739,Practice,Both,1,Automatic,main,7,20251106-140033,local,local,750,H,S,E,E,E-H.png,E-S.png,hH,sS,mask-4.png,mask-3.png,h,1,3.8405967000871897,s,1,0.09957559988833964,0.046718399971723557,0.0476972998585552,0.10098200011998415,0.09888259996660054,0.7507728000637144
RSVPLG03,cs,20251106-135936,1.0.2,20251105-084826,739,Practice,Both,1,Automatic,main,8,20251106-140041,local,global,750,S,S,A,E,A-S.png,S-E.png,sS,sS,mask-4.png,mask-3.png,s,1,1.1920494001824409,h,0,0.14886489999480546,0.04750709980726242,0.047503799898549914,0.0995155000127852,0.10050330008380115,0.7500775998923928
RSVPLG03,cs,20251106-135936,1.0.2,20251105-084826,739,Practice,Both,1,Automatic,main,9,20251106-140047,global,local,750,H,H,A,E,H-A.png,E-H.png,hH,hH,mask-2.png,mask-2.png,s,0,2.935232700081542,h,1,0.2357902000658214,0.04758859984576702,0.04750380013138056,0.09960389998741448,0.09952100017108023,0.7497713998891413
RSVPLG03,cs,20251106-135936,1.0.2,20251105-084826,739,Practice,Both,1,Automatic,main,10,20251106-140054,global,global,300,S,H,E,E,S-E.png,H-E.png,sS,hH,mask-1.png,mask-3.png,h,0,1.2490085000172257,s,0,0.09041239996440709,0.04668039991520345,0.04742129985243082,0.0997647000476718,0.09831949998624623,0.30072130006738007
RSVPLG03,cs,20251106-135936,1.0.2,20251105-084826,739,Practice,Both,1,Automatic,main,11,20251106-140059,global,global,750,S,H,E,E,S-E.png,H-E.png,sS,hH,mask-1.png,mask-2.png,s,1,0.7631184998899698,h,1,0.1471408000215888,0.04767060000449419,0.04691980010829866,0.09999959985725582,0.1002416000701487,0.7500228998251259
RSVPLG03,cs,20251106-135936,1.0.2,20251105-084826,739,Practice,Both,1,Automatic,main,12,20251106-140105,global,global,300,S,H,A,A,S-A.png,H-A.png,sS,hH,mask-3.png,mask-2.png,s,1,1.4428898999467492,h,1,0.5734594999812543,0.0475876999553293,0.04775669984519482,0.10077330004423857,0.10004859999753535,0.3005268000997603
RSVPLG03,cs,20251106-135936,1.0.2,20251105-084826,739,Practice,Both,1,Automatic,main,13,20251106-140110,local,global,300,S,S,A,A,A-S.png,S-A.png,sS,sS,mask-2.png,mask-4.png,s,1,0.8662188001908362,h,0,0.15186589979566634,0.04768429999239743,0.0476844001095742,0.09988660016097128,0.09888479998335242,0.2993956001009792
RSVPLG03,cs,20251106-135936,1.0.2,20251105-084826,739,Practice,Both,1,Automatic,main,14,20251106-140115,local,local,750,S,S,A,E,A-S.png,E-S.png,sS,sS,mask-2.png,mask-3.png,s,1,1.043838599929586,s,1,0.20416070008650422,0.046555599896237254,0.047510899836197495,0.09954890003427863,0.10151229985058308,0.7487188000231981
RSVPLG03,cs,20251106-135936,1.0.2,20251105-084826,739,Practice,Both,1,Automatic,main,15,20251106-140121,global,local,300,S,H,E,A,S-E.png,A-H.png,sS,hH,mask-2.png,mask-2.png,s,1,0.7662817998789251,h,1,0.020805400097742677,0.047671500127762556,0.04677879996597767,0.10075170011259615,0.09888539998792112,0.3000962999649346
RSVPLG03,cs,20251106-135936,1.0.2,20251105-084826,739,Practice,Both,1,Automatic,main,16,20251106-140125,local,global,300,S,H,A,A,A-S.png,H-A.png,sS,hH,mask-1.png,mask-4.png,s,1,0.87738629989326,h,1,0.069015400018543,0.04647230007685721,0.04711230006068945,0.10085740010254085,0.09850309998728335,0.3005937000270933
RSVPLG03,cs,20251106-140211,1.0.2,20251105-084826,739,Experiment,Both,1,Automatic,warmup,1,20251106-140304,global,global,750,S,S,E,E,S-E.png,S-E.png,sS,sS,mask-3.png,mask-4.png,h,0,1.0712613998912275,s,1,0.19789489987306297,0.04007040010765195,0.046543699922040105,0.09304210008122027,0.09860399994067848,0.7432637000456452
RSVPLG03,cs,20251106-140211,1.0.2,20251105-084826,739,Experiment,Both,1,Automatic,warmup,2,20251106-140310,global,local,300,H,S,E,A,H-E.png,A-S.png,hH,sS,mask-3.png,mask-3.png,s,0,0.9227448001038283,h,0,0.18963899998925626,0.04754900000989437,0.047527699964120984,0.10036600008606911,0.1005816999822855,0.29969900008291006
RSVPLG03,cs,20251106-140211,1.0.2,20251105-084826,739,Experiment,Both,1,Automatic,warmup,3,20251106-140315,local,global,750,H,H,A,E,A-H.png,H-E.png,hH,hH,mask-1.png,mask-2.png,h,1,2.044947599992156,s,0,0.11978859989903867,0.04753500013612211,0.048480299999937415,0.09958799998275936,0.10095069999806583,0.7493436001241207
RSVPLG03,cs,20251106-140211,1.0.2,20251105-084826,739,Experiment,Both,1,Automatic,warmup,4,20251106-140321,local,local,750,S,S,E,E,E-S.png,E-S.png,sS,sS,mask-1.png,mask-2.png,s,1,0.8130675000138581,h,0,0.12152899987995625,0.047615999821573496,0.04713200009427965,0.10192779987119138,0.09814050002023578,0.7519651998300105
RSVPLG03,cs,20251106-140211,1.0.2,20251105-084826,739,Experiment,Both,1,Automatic,main,5,20251106-140326,local,global,750,S,S,E,E,E-S.png,S-E.png,sS,sS,mask-2.png,mask-1.png,s,1,0.6378105999901891,s,1,0.2209862000308931,0.046659199986606836,0.047553000040352345,0.09965269989334047,0.0985346999950707,0.7510444999206811
RSVPLG03,cs,20251106-140211,1.0.2,20251105-084826,739,Experiment,Both,1,Automatic,main,6,20251106-140331,global,global,300,H,S,A,A,H-A.png,S-A.png,hH,sS,mask-1.png,mask-1.png,s,0,1.3340597997885197,h,0,0.09112400002777576,0.04751800000667572,0.04754759999923408,0.10052530001848936,0.10057969996705651,0.2997976001352072
RSVPLG03,cs,20251106-140211,1.0.2,20251105-084826,739,Experiment,Both,1,Automatic,main,7,20251106-140337,local,global,750,S,S,E,A,E-S.png,S-A.png,sS,sS,mask-1.png,mask-4.png,s,1,1.3500588000752032,h,0,0.07070140005089343,0.04752969997934997,0.04851889982819557,0.10019340016879141,0.10055430000647902,0.7494849001523107
RSVPLG03,cs,20251106-140211,1.0.2,20251105-084826,739,Experiment,Both,1,Automatic,main,8,20251106-140342,local,global,750,H,H,A,A,A-H.png,H-A.png,hH,hH,mask-1.png,mask-2.png,s,0,1.4519281999673694,h,1,0.12319789989851415,0.04752649995498359,0.047509799944236875,0.09954719990491867,0.10054609994404018,0.7492211000062525
RSVPLG03,cs,20251106-140211,1.0.2,20251105-084826,739,Experiment,Both,1,Automatic,main,9,20251106-140348,global,local,750,H,H,E,E,H-E.png,E-H.png,hH,hH,mask-1.png,mask-4.png,h,1,0.715578000061214,h,1,0.08414630009792745,0.04628939996473491,0.04670919990167022,0.09956300002522767,0.10000890004448593,0.7498500000219792
RSVPLG03,cs,20251106-140211,1.0.2,20251105-084826,739,Experiment,Both,1,Automatic,main,10,20251106-140353,local,global,300,H,H,A,E,A-H.png,H-E.png,hH,hH,mask-3.png,mask-1.png,h,1,1.5498366998508573,s,0,0.07330029993318021,0.047668199986219406,0.047650699969381094,0.10031489981338382,0.1006199000403285,0.2994327999185771
RSVPLG03,cs,20251106-140211,1.0.2,20251105-084826,739,Experiment,Both,1,Automatic,main,11,20251106-140359,local,global,300,H,S,A,E,A-H.png,S-E.png,hH,sS,mask-4.png,mask-3.png,s,0,1.0864116000011563,h,0,0.03800269984640181,0.04646919993683696,0.045816099969670177,0.09935260005295277,0.09996269992552698,0.30061920010484755
RSVPLG03,cs,20251106-140211,1.0.2,20251105-084826,739,Experiment,Both,1,Automatic,main,12,20251106-140404,global,global,300,S,S,E,E,S-E.png,S-E.png,sS,sS,mask-1.png,mask-1.png,s,1,2.162858400028199,h,0,0.06954580009914935,0.046503799967467785,0.048512599896639585,0.09950599982403219,0.10153219988569617,0.298822799930349
RSVPLG03,cs,20251106-140211,1.0.2,20251105-084826,739,Experiment,Both,1,Automatic,main,13,20251106-140410,local,local,750,S,H,A,E,A-S.png,E-H.png,sS,hH,mask-1.png,mask-2.png,s,1,1.038294699974358,h,1,0.154082499910146,0.04669270012527704,0.047671200009062886,0.09991820016875863,0.09961719997227192,0.7496586001943797
RSVPLG03,cs,20251106-140211,1.0.2,20251105-084826,739,Experiment,Both,1,Automatic,main,14,20251106-140415,local,local,750,H,S,E,E,E-H.png,E-S.png,hH,sS,mask-1.png,mask-1.png,h,1,1.0543854001443833,s,1,0.06507430016063154,0.04872240009717643,0.04867950011976063,0.10067280009388924,0.10063500003889203,0.7499563000164926
RSVPLG03,cs,20251106-140211,1.0.2,20251105-084826,739,Experiment,Both,1,Automatic,main,15,20251106-140420,local,local,750,H,H,A,A,A-H.png,A-H.png,hH,hH,mask-2.png,mask-1.png,h,1,1.2941713999025524,h,1,0.13217650004662573,0.04752010013908148,0.04751980002038181,0.10056310007348657,0.0989693000447005,0.7507307000923902
RSVPLG03,cs,20251106-140211,1.0.2,20251105-084826,739,Experiment,Both,1,Automatic,main,16,20251106-140426,global,local,300,H,H,A,E,H-A.png,E-H.png,hH,hH,mask-1.png,mask-1.png,h,1,1.3268766000401229,s,0,0.28170399996452034,0.047345400089398026,0.04739079996943474,0.09927330003120005,0.10036839987151325,0.30017870012670755
RSVPLG03,cs,20251106-140211,1.0.2,20251105-084826,739,Experiment,Both,1,Automatic,main,17,20251106-140432,global,global,750,H,S,A,E,H-A.png,S-E.png,hH,sS,mask-4.png,mask-3.png,h,1,1.0118180001154542,h,0,0.08360270014964044,0.04749869997613132,0.04750049998983741,0.09949799999594688,0.09951279987581074,0.7500358999241143
RSVPLG03,cs,20251106-140211,1.0.2,20251105-084826,739,Experiment,Both,1,Automatic,main,18,20251106-140437,local,global,300,H,H,E,E,E-H.png,H-E.png,hH,hH,mask-2.png,mask-2.png,s,0,1.113631800049916,h,1,0.026165799936279655,0.04753330000676215,0.04803179996088147,0.09772869991138577,0.10004629986360669,0.2985449000261724
RSVPLG03,cs,20251106-140211,1.0.2,20251105-084826,739,Experiment,Both,1,Automatic,main,19,20251106-140442,global,local,300,S,S,A,E,S-A.png,E-S.png,sS,sS,mask-3.png,mask-3.png,s,1,1.231168300146237,h,0,0.2730771000497043,0.04773910017684102,0.04670589999295771,0.10091020003892481,0.09998719999566674,0.30064240004867315
RSVPLG03,cs,20251106-140211,1.0.2,20251105-084826,739,Experiment,Both,1,Automatic,main,20,20251106-140447,local,local,300,S,H,E,A,E-S.png,A-H.png,sS,hH,mask-4.png,mask-1.png,s,1,0.7349609001539648,s,0,0.12455129995942116,0.04804860008880496,0.04699370008893311,0.1013126999605447,0.09945000009611249,0.3016792999114841
RSVPLG03,cs,20251106-140211,1.0.2,20251105-084826,739,Experiment,Both,1,Automatic,main,21,20251106-140452,global,global,300,S,S,A,E,S-A.png,S-E.png,sS,sS,mask-1.png,mask-3.png,s,1,1.850885899970308,h,0,0.09031780017539859,0.047184100141748786,0.0480663999915123,0.10022760019637644,0.09997660014778376,0.2982111000455916
RSVPLG03,cs,20251106-140211,1.0.2,20251105-084826,739,Experiment,Both,1,Automatic,main,22,20251106-140458,global,local,750,H,S,A,E,H-A.png,E-S.png,hH,sS,mask-1.png,mask-3.png,h,1,0.8416063999757171,s,1,0.1529117999598384,0.04755019978620112,0.04751729988493025,0.09942469978705049,0.09953469992615283,0.7501568999141455
RSVPLG03,cs,20251106-140211,1.0.2,20251105-084826,739,Experiment,Both,1,Automatic,main,23,20251106-140503,local,local,750,H,H,A,A,A-H.png,A-H.png,hH,hH,mask-2.png,mask-2.png,h,1,1.1336783000733703,s,0,0.1389788999222219,0.04552749986760318,0.04751039994880557,0.09954839991405606,0.09990189992822707,0.7498749999795109
RSVPLG03,cs,20251106-140211,1.0.2,20251105-084826,739,Experiment,Both,1,Automatic,main,24,20251106-140508,local,global,300,H,S,E,A,E-H.png,S-A.png,hH,sS,mask-2.png,mask-1.png,h,1,0.7601286999415606,h,0,0.14031839999370277,0.0474396999925375,0.047551099909469485,0.10046299989335239,0.09962009987793863,0.3000970999710262
RSVPLG03,cs,20251106-140211,1.0.2,20251105-084826,739,Experiment,Both,1,Automatic,main,25,20251106-140513,global,local,300,S,S,A,A,S-A.png,A-S.png,sS,sS,mask-4.png,mask-2.png,s,1,1.579450200079009,h,0,0.14850420015864074,0.04787870007567108,0.047690800158306956,0.10120290005579591,0.09988410002551973,0.3008683999069035
RSVPLG03,cs,20251106-140211,1.0.2,20251105-084826,739,Experiment,Both,1,Automatic,main,26,20251106-140523,local,global,750,S,S,E,E,E-S.png,S-E.png,sS,sS,mask-2.png,mask-1.png,s,1,0.8936831001192331,s,1,0.13946680002845824,0.04753659991547465,0.04847220005467534,0.09960509999655187,0.10016370005905628,0.7486216998659074
RSVPLG03,cs,20251106-140211,1.0.2,20251105-084826,739,Experiment,Both,1,Automatic,main,27,20251106-140528,local,local,750,H,H,E,E,E-H.png,E-H.png,hH,hH,mask-4.png,mask-1.png,s,0,0.8921012000646442,h,1,0.18812370020896196,0.04751309985294938,0.04731420008465648,0.09950839984230697,0.10031030001118779,0.7494666997808963
RSVPLG03,cs,20251106-140211,1.0.2,20251105-084826,739,Experiment,Both,1,Automatic,main,28,20251106-140533,global,global,300,S,H,E,E,S-E.png,H-E.png,sS,hH,mask-1.png,mask-1.png,s,1,1.3846883000805974,h,1,0.07625130005180836,0.04852800001390278,0.047582099912688136,0.10054889996536076,0.09958879998885095,0.3004195000976324
RSVPLG03,cs,20251106-140211,1.0.2,20251105-084826,739,Experiment,Both,1,Automatic,main,29,20251106-140539,global,local,750,S,H,E,E,S-E.png,E-H.png,sS,hH,mask-2.png,mask-1.png,s,1,0.78631899994798,h,1,0.07968780002556741,0.046521800104528666,0.04660789994522929,0.09857559995725751,0.09963019983842969,0.7495544000994414
RSVPLG03,cs,20251106-140211,1.0.2,20251105-084826,739,Experiment,Both,1,Automatic,main,30,20251106-140544,local,local,300,S,S,A,E,A-S.png,E-S.png,sS,sS,mask-2.png,mask-4.png,s,1,0.8716470999643207,h,0,0.06751079997047782,0.04709160001948476,0.04712649993598461,0.09941589995287359,0.09926619986072183,0.2999619001056999
RSVPLG03,cs,20251106-140211,1.0.2,20251105-084826,739,Experiment,Both,1,Automatic,main,31,20251106-140548,local,global,750,H,S,A,A,A-H.png,S-A.png,hH,sS,mask-1.png,mask-2.png,h,1,0.7509190000128001,h,0,0.08534509991295636,0.04753410001285374,0.04766010004095733,0.09916720003820956,0.09983990015462041,0.7498637998942286
RSVPLG03,cs,20251106-140211,1.0.2,20251105-084826,739,Experiment,Both,1,Automatic,main,32,20251106-140554,local,global,750,H,H,E,A,E-H.png,H-A.png,hH,hH,mask-4.png,mask-3.png,h,1,0.7105836998671293,h,1,0.09134199982509017,0.04563349997624755,0.048754800111055374,0.09985650004819036,0.1010022999253124,0.7484472999349236
RSVPLG03,cs,20251106-140211,1.0.2,20251105-084826,739,Experiment,Both,1,Automatic,main,33,20251106-140558,local,global,300,S,H,A,A,A-S.png,H-A.png,sS,hH,mask-4.png,mask-4.png,s,1,0.6884987000375986,s,0,0.138641000026837,0.04771810001693666,0.046821999829262495,0.09892200003378093,0.10008260002359748,0.3005916001275182
RSVPLG03,cs,20251106-140211,1.0.2,20251105-084826,739,Experiment,Both,1,Automatic,main,34,20251106-140603,global,global,750,H,S,A,A,H-A.png,S-A.png,hH,sS,mask-3.png,mask-3.png,h,1,0.9472076999954879,s,1,0.13956520007923245,0.04571600002236664,0.04573610005900264,0.09982019988819957,0.09995330008678138,0.7499355999752879
RSVPLG03,cs,20251106-140211,1.0.2,20251105-084826,739,Experiment,Both,1,Automatic,main,35,20251106-140608,global,local,300,S,H,A,E,S-A.png,E-H.png,sS,hH,mask-1.png,mask-4.png,s,1,1.7283084001392126,h,1,0.3110380999278277,0.04776240000501275,0.048728000139817595,0.09998790011741221,0.10013950010761619,0.2986492000054568
RSVPLG03,cs,20251106-140211,1.0.2,20251105-084826,739,Experiment,Both,1,Automatic,main,36,20251106-140614,global,global,750,S,S,A,A,S-A.png,S-A.png,sS,sS,mask-3.png,mask-4.png,s,1,0.5895813000388443,s,1,0.1219711999874562,0.047689300030469894,0.04879850009456277,0.09877669997513294,0.10098650003783405,0.7489082999527454
RSVPLG03,cs,20251106-140211,1.0.2,20251105-084826,739,Experiment,Both,1,Automatic,main,37,20251106-140619,global,local,750,S,H,A,E,S-A.png,E-H.png,sS,hH,mask-1.png,mask-2.png,s,1,0.457284800009802,s,0,0.17100739991292357,0.04787070001475513,0.04672820004634559,0.09987320005893707,0.09894110006280243,0.7510317999403924
RSVPLG03,cs,20251106-140211,1.0.2,20251105-084826,739,Experiment,Both,1,Automatic,main,38,20251106-140624,global,local,300,H,H,E,A,H-E.png,A-H.png,hH,hH,mask-1.png,mask-1.png,s,0,0.959925499977544,h,1,0.092535600066185,0.046370700001716614,0.047482999972999096,0.10043599992059171,0.10032919980585575,0.2988307001069188
RSVPLG03,cs,20251106-140211,1.0.2,20251105-084826,739,Experiment,Both,1,Automatic,main,39,20251106-140629,global,global,300,S,H,E,A,S-E.png,H-A.png,sS,hH,mask-4.png,mask-4.png,s,1,1.3085945001803339,s,0,0.12454560003243387,0.047526400070637465,0.04756519990041852,0.09958170005120337,0.09961070003919303,0.30020210007205606
RSVPLG03,cs,20251106-140211,1.0.2,20251105-084826,739,Experiment,Both,1,Automatic,main,40,20251106-140634,local,global,750,H,S,A,E,A-H.png,S-E.png,hH,sS,mask-2.png,mask-3.png,h,1,0.7956209999974817,s,1,0.15002349996939301,0.046961099840700626,0.04446889995597303,0.09990719985216856,0.09868830000050366,0.7514102000277489
RSVPLG03,cs,20251106-140211,1.0.2,20251105-084826,739,Experiment,Both,1,Automatic,main,41,20251106-140639,global,local,300,H,H,E,A,H-E.png,A-H.png,hH,hH,mask-2.png,mask-3.png,s,0,0.7202860999386758,h,1,1.787707599811256,0.04776099999435246,0.049378199968487024,0.09832399990409613,0.10047419997863472,0.29784559994004667
RSVPLG03,cs,20251106-140211,1.0.2,20251105-084826,739,Experiment,Both,1,Automatic,main,42,20251106-140645,local,local,750,H,H,A,E,A-H.png,E-H.png,hH,hH,mask-1.png,mask-4.png,h,1,0.7796410999726504,s,0,0.087339699966833,0.04655349999666214,0.04762069997377694,0.09966609999537468,0.1006471998989582,0.7491383000742644
RSVPLG03,cs,20251106-140211,1.0.2,20251105-084826,739,Experiment,Both,1,Automatic,main,43,20251106-140650,global,local,300,H,H,A,E,H-A.png,E-H.png,hH,hH,mask-3.png,mask-1.png,h,1,0.8621722999960184,h,1,0.18556599994190037,0.047471800120547414,0.04669669992290437,0.0989855001680553,0.10060289991088212,0.2996299001388252
RSVPLG03,cs,20251106-140211,1.0.2,20251105-084826,739,Experiment,Both,1,Automatic,main,44,20251106-140655,local,local,750,H,H,E,A,E-H.png,A-H.png,hH,hH,mask-2.png,mask-3.png,h,1,0.47922330000437796,h,1,0.13698299997486174,0.04671950009651482,0.0477080000564456,0.0989355999045074,0.09992700000293553,0.7496023999992758
RSVPLG03,cs,20251106-140211,1.0.2,20251105-084826,739,Experiment,Both,1,Automatic,main,45,20251106-140700,global,global,750,H,S,E,E,H-E.png,S-E.png,hH,sS,mask-4.png,mask-2.png,h,1,0.6071858999785036,s,1,0.18120380002073944,0.04725320008583367,0.04777599987573922,0.09925600001588464,0.0987863999325782,0.749735200079158
RSVPLG03,cs,20251106-140211,1.0.2,20251105-084826,739,Experiment,Both,1,Automatic,main,46,20251106-140705,local,global,750,S,S,A,E,A-S.png,S-E.png,sS,sS,mask-4.png,mask-4.png,s,1,1.5378962999675423,s,1,0.14834169996902347,0.04760110005736351,0.04758000001311302,0.09973090002313256,0.09782749996520579,0.7501926000695676
RSVPLG03,cs,20251106-140211,1.0.2,20251105-084826,739,Experiment,Both,1,Automatic,main,47,20251106-140711,local,global,300,H,H,E,E,E-H.png,H-E.png,hH,hH,mask-3.png,mask-4.png,s,0,0.5643122000619769,s,0,0.22813189984299242,0.048456399934366345,0.046802799915894866,0.10032119997777045,0.09975800011307001,0.300263199955225
RSVPLG03,cs,20251106-140211,1.0.2,20251105-084826,739,Experiment,Both,1,Automatic,main,48,20251106-140715,local,global,750,H,H,E,A,E-H.png,H-A.png,hH,hH,mask-3.png,mask-1.png,h,1,0.7108545999508351,h,1,0.08601809991523623,0.047694799955934286,0.045738100074231625,0.1019050998147577,0.09839599998667836,0.7517372998408973
RSVPLG03,cs,20251106-140211,1.0.2,20251105-084826,739,Experiment,Both,1,Automatic,main,49,20251106-140720,global,global,750,H,H,A,E,H-A.png,H-E.png,hH,hH,mask-2.png,mask-2.png,h,1,0.4614514000713825,h,1,0.10650620004162192,0.04673750000074506,0.04694349993951619,0.09960879990831017,0.09999760007485747,0.7507501998916268
RSVPLG03,cs,20251106-140211,1.0.2,20251105-084826,739,Experiment,Both,1,Automatic,main,50,20251106-140725,global,global,750,H,H,A,A,H-A.png,H-A.png,hH,hH,mask-1.png,mask-1.png,h,1,0.42940340004861355,h,1,0.06599339982494712,0.04673160007223487,0.04769180016592145,0.09994210000149906,0.0989113999530673,0.7494556999299675
RSVPLG03,cs,20251106-140211,1.0.2,20251105-084826,739,Experiment,Both,1,Automatic,main,51,20251106-140732,local,local,750,S,H,E,E,E-S.png,E-H.png,sS,hH,mask-1.png,mask-1.png,s,1,0.6138810999691486,h,1,0.23930680006742477,0.04753360012546182,0.048616799991577864,0.0985737000592053,0.09964019991457462,0.7489163000136614
RSVPLG03,cs,20251106-140211,1.0.2,20251105-084826,739,Experiment,Both,1,Automatic,main,52,20251106-140737,local,global,300,H,S,A,A,A-H.png,S-A.png,hH,sS,mask-1.png,mask-3.png,h,1,1.5735577000305057,h,0,0.0951704999897629,0.04672360001131892,0.04723120015114546,0.09895400004461408,0.09934550011530519,0.300073399906978
RSVPLG03,cs,20251106-140211,1.0.2,20251105-084826,739,Experiment,Both,1,Automatic,main,53,20251106-140742,global,global,300,S,S,A,A,S-A.png,S-A.png,sS,sS,mask-4.png,mask-4.png,h,0,0.8496248999144882,s,1,0.8500902999658138,0.0477466001175344,0.047733600018545985,0.10001219995319843,0.09996660007163882,0.2996936999261379
RSVPLG03,cs,20251106-140211,1.0.2,20251105-084826,739,Experiment,Both,1,Automatic,main,54,20251106-140748,local,local,300,H,H,A,A,A-H.png,A-H.png,hH,hH,mask-2.png,mask-3.png,s,0,0.6122161999810487,h,1,1.0506901999469846,0.047728699864819646,0.04759189998731017,0.09942479990422726,0.099887500051409,0.29937139991670847
RSVPLG03,cs,20251106-140211,1.0.2,20251105-084826,739,Experiment,Both,1,Automatic,main,55,20251106-140753,local,global,300,H,S,E,A,E-H.png,S-A.png,hH,sS,mask-2.png,mask-4.png,h,1,1.1700132999103516,h,0,1.6412330002058297,0.04774279985576868,0.045752499951049685,0.09999489993788302,0.0999936000443995,0.30167059996165335
RSVPLG03,cs,20251106-140211,1.0.2,20251105-084826,739,Experiment,Both,1,Automatic,main,56,20251106-140800,global,local,750,S,H,E,A,S-E.png,A-H.png,sS,hH,mask-3.png,mask-3.png,s,1,4.483340499922633,s,0,0.05146669992245734,0.04771459987387061,0.04769579996354878,0.10155769996345043,0.10156819992698729,0.7499692998826504
RSVPLG03,cs,20251106-140211,1.0.2,20251105-084826,739,Experiment,Both,1,Automatic,main,57,20251106-140808,local,global,750,S,H,E,E,E-S.png,H-E.png,sS,hH,mask-3.png,mask-3.png,s,1,1.4214641998987645,s,0,0.18623810005374253,0.04673780011944473,0.047705400036647916,0.09912939998321235,0.09991690004244447,0.7495629999320954
RSVPLG03,cs,20251106-140211,1.0.2,20251105-084826,739,Experiment,Both,1,Automatic,main,58,20251106-140814,local,local,300,S,H,E,A,E-S.png,A-H.png,sS,hH,mask-3.png,mask-3.png,s,1,0.9993204001802951,h,1,0.07277500000782311,0.046549899969249964,0.04754039994440973,0.09859489998780191,0.09856429998762906,0.2999251999426633
RSVPLG03,cs,20251106-140211,1.0.2,20251105-084826,739,Experiment,Both,1,Automatic,main,59,20251106-140819,global,local,750,S,S,A,E,S-A.png,E-S.png,sS,sS,mask-4.png,mask-2.png,s,1,0.7364560000132769,s,1,0.2330102000851184,0.04567639995366335,0.04769570007920265,0.09886320005171001,0.1007607001811266,0.7491553998552263
RSVPLG03,cs,20251106-140211,1.0.2,20251105-084826,739,Experiment,Both,1,Automatic,main,60,20251106-140824,global,global,300,H,H,E,A,H-E.png,H-A.png,hH,hH,mask-2.png,mask-1.png,h,1,1.4864168998319656,h,1,0.08518690010532737,0.04575509997084737,0.048224500147625804,0.10002329992130399,0.09999940008856356,0.29840479977428913
RSVPLG03,cs,20251106-140211,1.0.2,20251105-084826,739,Experiment,Both,1,Automatic,main,61,20251106-140830,global,global,750,S,S,A,A,S-A.png,S-A.png,sS,sS,mask-2.png,mask-1.png,s,1,0.49301499989815056,s,1,0.0064542999025434256,0.048490799963474274,0.04727029986679554,0.10156219988130033,0.09943880001083016,0.7518740999512374
RSVPLG03,cs,20251106-140211,1.0.2,20251105-084826,739,Experiment,Both,1,Automatic,main,62,20251106-140834,global,global,300,S,S,E,E,S-E.png,S-E.png,sS,sS,mask-1.png,mask-1.png,s,1,0.9252663000952452,s,1,0.5089819000568241,0.047696399968117476,0.047669699881225824,0.09993829997256398,0.09988889982923865,0.29951600008644164
RSVPLG03,cs,20251106-140211,1.0.2,20251105-084826,739,Experiment,Both,1,Automatic,main,63,20251106-140839,local,global,750,S,H,A,A,A-S.png,H-A.png,sS,hH,mask-4.png,mask-1.png,s,1,0.8743263999931514,h,1,0.9705151000525802,0.04857590002939105,0.04891679994761944,0.10157510009594262,0.10086519992910326,0.7513618001248688
RSVPLG03,cs,20251106-140211,1.0.2,20251105-084826,739,Experiment,Both,1,Automatic,main,64,20251106-140844,local,local,750,S,H,A,E,A-S.png,E-H.png,sS,hH,mask-4.png,mask-3.png,s,1,0.6160248001106083,h,1,0.8384179000277072,0.0477124999742955,0.04769110004417598,0.09992920001968741,0.09994009998627007,0.7498151001054794
RSVPLG03,cs,20251106-140211,1.0.2,20251105-084826,739,Experiment,Both,1,Automatic,main,65,20251106-140850,local,local,300,S,H,E,E,E-S.png,E-H.png,sS,hH,mask-4.png,mask-4.png,s,1,1.01303939986974,s,0,0.11999680008739233,0.04672199999913573,0.045874400064349174,0.09893199987709522,0.10009409999474883,0.300659199943766
RSVPLG03,cs,20251106-140211,1.0.2,20251105-084826,739,Experiment,Both,1,Automatic,main,66,20251106-140855,local,local,300,H,H,A,E,A-H.png,E-H.png,hH,hH,mask-1.png,mask-2.png,s,0,0.6584792998619378,h,1,0.021877399878576398,0.047073799883946776,0.04711839999072254,0.0982261998578906,0.09828229993581772,0.2999456999823451
RSVPLG03,cs,20251106-140211,1.0.2,20251105-084826,739,Experiment,Both,1,Automatic,main,67,20251106-140859,global,local,300,H,H,E,A,H-E.png,A-H.png,hH,hH,mask-2.png,mask-3.png,h,1,0.7248152000829577,s,0,0.20841640001162887,0.047724399948492646,0.046725399792194366,0.09994710003957152,0.09895299980416894,0.30063770012930036
RSVPLG03,cs,20251106-140211,1.0.2,20251105-084826,739,Experiment,Both,1,Automatic,main,68,20251106-140904,local,local,300,H,S,A,A,A-H.png,A-S.png,hH,sS,mask-3.png,mask-3.png,s,0,0.8048581001348794,h,0,0.14715189998969436,0.047602999955415726,0.04754139995202422,0.10065959999337792,0.09949810011312366,0.3019828998949379
RSVPLG03,cs,20251106-140211,1.0.2,20251105-084826,739,Experiment,Both,1,Automatic,main,69,20251106-140909,global,local,300,H,H,E,A,H-E.png,A-H.png,hH,hH,mask-4.png,mask-2.png,h,1,0.6300386998336762,s,0,0.17078060004860163,0.047681499971076846,0.046530399937182665,0.09986009984277189,0.09975529997609556,0.30046189995482564
RSVPLG03,cs,20251106-140211,1.0.2,20251105-084826,739,Experiment,Both,1,Automatic,main,70,20251106-140913,global,local,750,H,S,A,E,H-A.png,E-S.png,hH,sS,mask-2.png,mask-3.png,h,1,0.6397854001261294,h,0,0.11688159988261759,0.045317200012505054,0.0468467001337558,0.09935640008188784,0.09930590004660189,0.7502963999286294
RSVPLG03,cs,20251106-140211,1.0.2,20251105-084826,739,Experiment,Both,1,Automatic,main,71,20251106-140918,global,local,750,H,S,E,E,H-E.png,E-S.png,hH,sS,mask-2.png,mask-1.png,h,1,0.4548284001648426,s,1,0.23058669990859926,0.04759670002385974,0.0476181001868099,0.09971889993175864,0.09963200008496642,0.7493834998458624
RSVPLG03,cs,20251106-140211,1.0.2,20251105-084826,739,Experiment,Both,1,Automatic,main,72,20251106-140923,global,local,750,S,S,A,E,S-A.png,E-S.png,sS,sS,mask-1.png,mask-3.png,h,0,1.9045037000905722,s,1,0.18517219997011125,0.04784210002981126,0.04763309983536601,0.09974330011755228,0.09970649983733892,0.7504595001228154
RSVPLG03,cs,20251106-140211,1.0.2,20251105-084826,739,Experiment,Both,1,Automatic,main,73,20251106-140929,global,local,300,H,S,E,E,H-E.png,E-S.png,hH,sS,mask-3.png,mask-4.png,s,0,0.6595687000080943,s,1,0.08443200006149709,0.0475358001422137,0.047341500176116824,0.10155110014602542,0.09835240012034774,0.30184069997631013
RSVPLG03,cs,20251106-140211,1.0.2,20251105-084826,739,Experiment,Both,1,Automatic,main,74,20251106-140934,local,local,750,H,H,A,A,A-H.png,A-H.png,hH,hH,mask-3.png,mask-3.png,h,1,0.7616711999289691,s,0,0.09016679995693266,0.04759990004822612,0.04692699993029237,0.09864039998501539,0.10107040009461343,0.7491037999279797
RSVPLG03,cs,20251106-140211,1.0.2,20251105-084826,739,Experiment,Both,1,Automatic,main,75,20251106-140939,global,global,300,H,S,A,A,H-A.png,S-A.png,hH,sS,mask-2.png,mask-3.png,h,1,1.0438864000607282,h,0,0.1061203998979181,0.046569199999794364,0.04725709999911487,0.09874789998866618,0.099285600008443,0.30012389994226396
RSVPLG03,cs,20251106-140211,1.0.2,20251105-084826,739,Experiment,Both,1,Automatic,main,76,20251106-140954,local,global,300,S,H,E,E,E-S.png,H-E.png,sS,hH,mask-3.png,mask-4.png,s,1,1.0155919999815524,h,1,0.05922090006060898,0.04655380011536181,0.047547100111842155,0.10097280004993081,0.09959540003910661,0.30043649999424815
RSVPLG03,cs,20251106-140211,1.0.2,20251105-084826,739,Experiment,Both,1,Automatic,main,77,20251106-140959,local,global,300,H,H,E,E,E-H.png,H-E.png,hH,hH,mask-3.png,mask-1.png,s,0,0.6257275999523699,h,1,0.05922130006365478,0.0460031998809427,0.04652390000410378,0.10002300003543496,0.09869219991378486,0.30027140001766384
RSVPLG03,cs,20251106-140211,1.0.2,20251105-084826,739,Experiment,Both,1,Automatic,main,78,20251106-141003,global,global,750,S,H,E,E,S-E.png,H-E.png,sS,hH,mask-1.png,mask-2.png,s,1,0.9830453000031412,h,1,0.2797120998147875,0.04751190007664263,0.04755420004948974,0.0995767000131309,0.09963609999977052,0.7497769999317825
RSVPLG03,cs,20251106-140211,1.0.2,20251105-084826,739,Experiment,Both,1,Automatic,main,79,20251106-141009,local,global,300,S,S,A,A,A-S.png,S-A.png,sS,sS,mask-1.png,mask-4.png,s,1,0.6768653001636267,s,1,0.1394441998563707,0.048589800018817186,0.04768670001067221,0.10102740000002086,0.09970259992405772,0.3004173000808805
RSVPLG03,cs,20251106-140211,1.0.2,20251105-084826,739,Experiment,Both,1,Automatic,main,80,20251106-141013,global,local,750,S,H,A,A,S-A.png,A-H.png,sS,hH,mask-4.png,mask-2.png,h,0,0.8633886999450624,s,0,0.3798412000760436,0.04728830000385642,0.04675980005413294,0.0983674000017345,0.09920950001105666,0.7493527999613434
RSVPLG03,cs,20251106-140211,1.0.2,20251105-084826,739,Experiment,Both,1,Automatic,main,81,20251106-141019,global,global,300,H,S,E,A,H-E.png,S-A.png,hH,sS,mask-4.png,mask-2.png,s,0,0.7467968999408185,h,0,0.15344369993545115,0.0475874999538064,0.04778630007058382,0.09967139991931617,0.10005340003408492,0.3003549000713974
RSVPLG03,cs,20251106-140211,1.0.2,20251105-084826,739,Experiment,Both,1,Automatic,main,82,20251106-141024,global,local,750,S,H,A,E,S-A.png,E-H.png,sS,hH,mask-3.png,mask-2.png,s,1,0.8709074000362307,s,0,0.10468209977261722,0.04766479996033013,0.047699299873784184,0.0999041001778096,0.09993020002730191,0.749773200135678
RSVPLG03,cs,20251106-140211,1.0.2,20251105-084826,739,Experiment,Both,1,Automatic,main,83,20251106-141029,global,local,300,H,S,A,A,H-A.png,A-S.png,hH,sS,mask-2.png,mask-2.png,h,1,0.8942307999823242,s,1,0.0737417999189347,0.047136700013652444,0.048637199914082885,0.09935300005599856,0.10073790000751615,0.2984458999708295
RSVPLG03,cs,20251106-140211,1.0.2,20251105-084826,739,Experiment,Both,1,Automatic,main,84,20251106-141033,local,local,750,H,S,E,A,E-H.png,A-S.png,hH,sS,mask-1.png,mask-1.png,s,0,1.9659446000587195,h,0,0.11706599988974631,0.04733669990673661,0.04712220001965761,0.10072039999067783,0.09927190002053976,0.750394499860704
RSVPLG03,cs,20251106-140211,1.0.2,20251105-084826,739,Experiment,Both,1,Automatic,main,85,20251106-141040,local,local,300,S,S,A,A,A-S.png,A-S.png,sS,sS,mask-1.png,mask-1.png,h,0,1.5153425999451429,s,1,0.09200900001451373,0.047346399864181876,0.04651850019581616,0.09837979986332357,0.10056410008110106,0.2996184998191893
RSVPLG03,cs,20251106-140211,1.0.2,20251105-084826,739,Experiment,Both,1,Automatic,main,86,20251106-141045,local,local,300,S,S,A,A,A-S.png,A-S.png,sS,sS,mask-2.png,mask-2.png,h,0,0.5822503999806941,s,1,0.12352920020930469,0.045855100033804774,0.04779929993674159,0.10005200002342463,0.09940850012935698,0.2997997000347823
RSVPLG03,cs,20251106-140211,1.0.2,20251105-084826,739,Experiment,Both,1,Automatic,main,87,20251106-141049,local,local,300,H,S,E,E,E-H.png,E-S.png,hH,sS,mask-2.png,mask-1.png,s,0,0.5185398000758141,h,0,0.6306412001140416,0.04731029993854463,0.04855379997752607,0.10163370007649064,0.10015930002555251,0.29975449992343783
RSVPLG03,cs,20251106-140211,1.0.2,20251105-084826,739,Experiment,Both,1,Automatic,main,88,20251106-141054,global,global,300,H,H,E,A,H-E.png,H-A.png,hH,hH,mask-2.png,mask-3.png,h,1,0.5458315999712795,s,0,0.19881509989500046,0.0475248999428004,0.04852010007016361,0.10053650010377169,0.09973910008557141,0.2997838999144733
RSVPLG03,cs,20251106-140211,1.0.2,20251105-084826,739,Experiment,Both,1,Automatic,main,89,20251106-141058,local,local,750,S,H,A,A,A-S.png,A-H.png,sS,hH,mask-2.png,mask-4.png,s,1,0.6213652000296861,h,1,0.24084049998782575,0.04768860014155507,0.04874380002729595,0.10090070008300245,0.10098310001194477,0.7498069000430405
RSVPLG03,cs,20251106-140211,1.0.2,20251105-084826,739,Experiment,Both,1,Automatic,main,90,20251106-141103,global,global,750,H,H,E,E,H-E.png,H-E.png,hH,hH,mask-4.png,mask-1.png,h,1,0.5907487000804394,h,1,0.07227770006284118,0.047720300033688545,0.0473065001424402,0.10066330013796687,0.10100200003944337,0.7504026000387967
RSVPLG03,cs,20251106-140211,1.0.2,20251105-084826,739,Experiment,Both,1,Automatic,main,91,20251106-141108,local,local,300,H,H,A,A,A-H.png,A-H.png,hH,hH,mask-4.png,mask-1.png,h,1,0.6658218000084162,h,1,0.12128570000641048,0.047688799910247326,0.048707100097090006,0.09993969998322427,0.10193679993972182,0.298568099969998
RSVPLG03,cs,20251106-140211,1.0.2,20251105-084826,739,Experiment,Both,1,Automatic,main,92,20251106-141112,global,global,750,S,H,E,E,S-E.png,H-E.png,sS,hH,mask-3.png,mask-1.png,h,0,0.58210050011985,h,1,0.10132639994844794,0.04751659999601543,0.04653750010766089,0.10068909986875951,0.0986583000048995,0.7509983999188989
RSVPLG03,cs,20251106-140211,1.0.2,20251105-084826,739,Experiment,Both,1,Automatic,main,93,20251106-141117,global,local,300,S,H,A,A,S-A.png,A-H.png,sS,hH,mask-4.png,mask-2.png,s,1,0.8408178000245243,h,1,0.984989200020209,0.04693880002014339,0.04758920008316636,0.09972680010832846,0.10159040009602904,0.2987337000668049
RSVPLG03,cs,20251106-140211,1.0.2,20251105-084826,739,Experiment,Both,1,Automatic,main,94,20251106-141122,local,global,750,H,H,A,A,A-H.png,H-A.png,hH,hH,mask-1.png,mask-1.png,h,1,0.5017343999352306,h,1,0.10133420000784099,0.04656239994801581,0.04752029990777373,0.09972169995307922,0.10071299993433058,0.7492414000444114
RSVPLG03,cs,20251106-140211,1.0.2,20251105-084826,739,Experiment,Both,1,Automatic,main,95,20251106-141126,local,global,300,S,S,A,A,A-S.png,S-A.png,sS,sS,mask-4.png,mask-1.png,h,0,0.6423713001422584,h,0,0.052295800065621734,0.047694000182673335,0.04667519987560809,0.09990080003626645,0.09992599999532104,0.30053100013174117
RSVPLG03,cs,20251106-140211,1.0.2,20251105-084826,739,Experiment,Both,1,Automatic,main,96,20251106-141131,local,local,300,S,H,E,A,E-S.png,A-H.png,sS,hH,mask-4.png,mask-3.png,s,1,0.6728838998824358,s,0,0.08261929987929761,0.0466835000552237,0.047669699881225824,0.10090509988367558,0.09987300005741417,0.30066559999249876
RSVPLG03,cs,20251106-140211,1.0.2,20251105-084826,739,Experiment,Both,1,Automatic,main,97,20251106-141135,global,global,300,S,S,E,A,S-E.png,S-A.png,sS,sS,mask-3.png,mask-3.png,s,1,0.6373248000163585,h,0,0.05932330014184117,0.04569190018810332,0.04669839981943369,0.09989780001342297,0.09990319982171059,0.29953000019304454
RSVPLG03,cs,20251106-140211,1.0.2,20251105-084826,739,Experiment,Both,1,Automatic,main,98,20251106-141140,global,global,750,S,S,E,E,S-E.png,S-E.png,sS,sS,mask-1.png,mask-3.png,s,1,0.7888507000170648,s,1,0.10378600005060434,0.04652690002694726,0.047533500008285046,0.0985810998827219,0.09892440005205572,0.7501292999368161
RSVPLG03,cs,20251106-140211,1.0.2,20251105-084826,739,Experiment,Both,1,Automatic,main,99,20251106-141145,global,local,750,S,S,A,E,S-A.png,E-S.png,sS,sS,mask-4.png,mask-4.png,s,1,0.41768519999459386,s,1,0.23680970002897084,0.04751449986360967,0.04752380005083978,0.09954770002514124,0.10055579990148544,0.7494123999495059
RSVPLG03,cs,20251106-140211,1.0.2,20251105-084826,739,Experiment,Both,1,Automatic,main,100,20251106-141149,global,global,750,S,S,A,A,S-A.png,S-A.png,sS,sS,mask-1.png,mask-1.png,s,1,0.44716360000893474,s,1,0.285604199860245,0.04755139979533851,0.04758390015922487,0.09963639988563955,0.0996159000787884,0.7503918998409063
RSVPLG03,cs,20251106-141232,1.0.2,20251105-084826,739,Experiment,Both,1,Automatic,warmup,1,20251106-141301,local,global,300,S,S,A,E,A-S.png,S-E.png,sS,sS,mask-3.png,mask-1.png,s,1,0.6073684999719262,s,1,0.27505850000306964,0.04807560006156564,0.04748040018603206,0.10112440004013479,0.10046730004251003,0.30127639998681843
RSVPLG03,cs,20251106-141232,1.0.2,20251105-084826,739,Experiment,Both,1,Automatic,warmup,2,20251106-141305,global,local,300,S,S,E,A,S-E.png,A-S.png,sS,sS,mask-3.png,mask-1.png,s,1,0.8349078998435289,h,0,0.09298730012960732,0.0469841999001801,0.04586740001104772,0.09899399988353252,0.09897920000366867,0.300218999851495
RSVPLG03,cs,20251106-141232,1.0.2,20251105-084826,739,Experiment,Both,1,Automatic,warmup,3,20251106-141310,global,global,300,H,S,E,A,H-E.png,S-A.png,hH,sS,mask-3.png,mask-2.png,h,1,1.2089342998806387,s,1,0.22040009987540543,0.04740489996038377,0.047241799999028444,0.1004337000194937,0.09931520000100136,0.30011329986155033
RSVPLG03,cs,20251106-141232,1.0.2,20251105-084826,739,Experiment,Both,1,Automatic,warmup,4,20251106-141315,local,local,750,H,H,E,E,E-H.png,E-H.png,hH,hH,mask-3.png,mask-1.png,h,1,0.6164557000156492,s,0,0.0073171998374164104,0.04750699992291629,0.046518199844285846,0.09949940000660717,0.09953109989874065,0.7503593000583351
RSVPLG03,cs,20251106-141232,1.0.2,20251105-084826,739,Experiment,Both,1,Automatic,main,5,20251106-141320,global,local,300,H,H,A,E,H-A.png,E-H.png,hH,hH,mask-2.png,mask-4.png,h,1,0.6936143999919295,s,0,0.18126410013064742,0.04748270008713007,0.04951709997840226,0.09951680013909936,0.10154099995270371,0.29875640012323856
RSVPLG03,cs,20251106-141232,1.0.2,20251105-084826,739,Experiment,Both,1,Automatic,main,6,20251106-141325,local,global,750,S,H,E,A,E-S.png,H-A.png,sS,hH,mask-3.png,mask-4.png,s,1,0.6937860001344234,h,1,0.15138119994662702,0.046754200011491776,0.04847220005467534,0.09893260011449456,0.09894799999892712,0.7498761001043022
RSVPLG03,cs,20251106-141232,1.0.2,20251105-084826,739,Experiment,Both,1,Automatic,main,7,20251106-141330,local,local,300,H,H,E,A,E-H.png,A-H.png,hH,hH,mask-2.png,mask-4.png,h,1,0.6118501999881119,h,1,0.13435109984129667,0.04769099992699921,0.04768990003503859,0.0998498999979347,0.10091620008461177,0.29960639984346926
RSVPLG03,cs,20251106-141232,1.0.2,20251105-084826,739,Experiment,Both,1,Automatic,main,8,20251106-141334,global,global,750,H,S,E,E,H-E.png,S-E.png,hH,sS,mask-2.png,mask-2.png,h,1,0.5675917000044137,s,1,0.1329956001136452,0.04597069998271763,0.04772430006414652,0.09924979996867478,0.10001159994862974,0.7499108999036252
RSVPLG03,cs,20251106-141232,1.0.2,20251105-084826,739,Experiment,Both,1,Automatic,main,9,20251106-141339,global,global,750,H,H,E,E,H-E.png,H-E.png,hH,hH,mask-3.png,mask-4.png,h,1,0.44294869992882013,h,1,0.06958509981632233,0.04767180001363158,0.04866439988836646,0.09986729989759624,0.09989759977906942,0.7502778000198305
RSVPLG03,cs,20251106-141232,1.0.2,20251105-084826,739,Experiment,Both,1,Automatic,main,10,20251106-141344,local,local,750,S,S,A,E,A-S.png,E-S.png,sS,sS,mask-2.png,mask-4.png,s,1,0.5481794001534581,s,1,0.1217457999009639,0.04751459998078644,0.048502499936148524,0.1005422999151051,0.10049279988743365,0.7494347998872399
RSVPLG03,cs,20251106-141232,1.0.2,20251105-084826,739,Experiment,Both,1,Automatic,main,11,20251106-141349,local,global,750,H,S,A,A,A-H.png,S-A.png,hH,sS,mask-1.png,mask-2.png,h,1,0.8355038999579847,h,0,0.07635560003109276,0.04750670003704727,0.04751239996403456,0.1003562998957932,0.09951279987581074,0.7500243000686169
RSVPLG03,cs,20251106-141232,1.0.2,20251105-084826,739,Experiment,Both,1,Automatic,main,12,20251106-141354,global,local,300,S,S,E,E,S-E.png,E-S.png,sS,sS,mask-1.png,mask-1.png,s,1,1.1139140999875963,h,0,0.025850099977105856,0.047575199976563454,0.0475407000631094,0.09956650016829371,0.0994136999361217,0.2999585000798106
RSVPLG03,cs,20251106-141232,1.0.2,20251105-084826,739,Experiment,Both,1,Automatic,main,13,20251106-141358,global,local,750,S,H,A,E,S-A.png,E-H.png,sS,hH,mask-4.png,mask-3.png,s,1,0.6929444000124931,s,0,0.10659570014104247,0.04761700006201863,0.04773570015095174,0.09976160014048219,0.09997500013560057,0.7519249999895692
RSVPLG03,cs,20251106-141232,1.0.2,20251105-084826,739,Experiment,Both,1,Automatic,main,14,20251106-141403,global,local,750,S,S,A,A,S-A.png,A-S.png,sS,sS,mask-2.png,mask-1.png,s,1,0.5387055000755936,s,1,1.2408588998951018,0.047697899863123894,0.04771469999104738,0.10005229990929365,0.10089409979991615,0.7498075000476092
RSVPLG03,cs,20251106-141232,1.0.2,20251105-084826,739,Experiment,Both,1,Automatic,main,15,20251106-141409,global,local,750,H,S,E,E,H-E.png,E-S.png,hH,sS,mask-2.png,mask-2.png,h,1,1.2898065000772476,s,1,0.026598399970680475,0.046754200011491776,0.04855929990299046,0.09994200011715293,0.0998309999704361,0.7497688999865204
RSVPLG03,cs,20251106-141232,1.0.2,20251105-084826,739,Experiment,Both,1,Automatic,main,16,20251106-141415,global,local,750,H,H,E,E,H-E.png,E-H.png,hH,hH,mask-1.png,mask-4.png,h,1,1.6863845000043511,h,1,0.14264299999922514,0.0484164000954479,0.047486500116065145,0.10145399998873472,0.10061870003119111,0.7516352999955416
RSVPLG03,cs,20251106-141232,1.0.2,20251105-084826,739,Experiment,Both,1,Automatic,main,17,20251106-141421,global,local,300,S,S,A,E,S-A.png,E-S.png,sS,sS,mask-4.png,mask-1.png,s,1,0.9390562002081424,h,0,1.0673653001431376,0.04751629987731576,0.04750510002486408,0.10157960001379251,0.09954069997183979,0.3018467999063432
RSVPLG03,cs,20251106-141232,1.0.2,20251105-084826,739,Experiment,Both,1,Automatic,main,18,20251106-141426,global,global,300,H,H,A,E,H-A.png,H-E.png,hH,hH,mask-1.png,mask-1.png,h,1,0.7700165000278503,h,1,0.07568809995427728,0.0475208000279963,0.04753009998239577,0.09957349998876452,0.09963639988563955,0.2998216999694705
RSVPLG03,cs,20251106-141232,1.0.2,20251105-084826,739,Experiment,Both,1,Automatic,main,19,20251106-141430,local,local,300,H,H,A,A,A-H.png,A-H.png,hH,hH,mask-1.png,mask-1.png,h,1,0.6488846999127418,h,1,0.1162542998790741,0.04758559982292354,0.04760110005736351,0.09851179993711412,0.10057969996705651,0.299927799962461
RSVPLG03,cs,20251106-141232,1.0.2,20251105-084826,739,Experiment,Both,1,Automatic,main,20,20251106-141434,local,local,750,H,S,A,A,A-H.png,A-S.png,hH,sS,mask-1.png,mask-4.png,h,1,1.0422673001885414,s,1,0.025510599836707115,0.04771380010060966,0.047594500007107854,0.09996569994837046,0.09978100005537271,0.7523246000055224
RSVPLG03,cs,20251106-141232,1.0.2,20251105-084826,739,Experiment,Both,1,Automatic,main,21,20251106-141440,local,global,750,H,S,A,E,A-H.png,S-E.png,hH,sS,mask-3.png,mask-1.png,h,1,1.212814599974081,h,0,0.0551617001183331,0.04669170011766255,0.0486849001608789,0.09996050014160573,0.09993560006842017,0.7499887000303715
RSVPLG03,cs,20251106-141232,1.0.2,20251105-084826,739,Experiment,Both,1,Automatic,main,22,20251106-141445,local,local,300,S,H,A,E,A-S.png,E-H.png,sS,hH,mask-4.png,mask-1.png,s,1,0.8515395000576973,h,1,0.9634738999884576,0.04672349989414215,0.04774049995467067,0.09997149999253452,0.09998889989219606,0.2998412000015378
RSVPLG03,cs,20251106-141232,1.0.2,20251105-084826,739,Experiment,Both,1,Automatic,main,23,20251106-141450,local,global,750,H,H,E,A,E-H.png,H-A.png,hH,hH,mask-4.png,mask-4.png,h,1,0.5066033001057804,h,1,0.053947099950164557,0.04730589990504086,0.04703589994460344,0.10044949990697205,0.0993904999922961,0.7502182999160141
RSVPLG03,cs,20251106-141232,1.0.2,20251105-084826,739,Experiment,Both,1,Automatic,main,24,20251106-141454,local,global,300,S,H,A,A,A-S.png,H-A.png,sS,hH,mask-3.png,mask-3.png,h,0,0.8881928999908268,s,0,2.313495400128886,0.047520400024950504,0.04832020006142557,0.10051800007931888,0.09877020004205406,0.2997709000483155
RSVPLG03,cs,20251106-141232,1.0.2,20251105-084826,739,Experiment,Both,1,Automatic,main,25,20251106-141501,local,local,750,H,S,E,E,E-H.png,E-S.png,hH,sS,mask-4.png,mask-1.png,h,1,0.6028223999310285,s,1,0.17053100001066923,0.0477309999987483,0.04751159995794296,0.09992780000902712,0.09970709984190762,0.7503582001663744
RSVPLG03,cs,20251106-141232,1.0.2,20251105-084826,739,Experiment,Both,1,Automatic,main,26,20251106-141508,global,local,750,H,H,A,E,H-A.png,E-H.png,hH,hH,mask-1.png,mask-1.png,h,1,0.5212997000198811,h,1,0.0242937000002712,0.04570210003294051,0.04776260000653565,0.09983050008304417,0.10088560008443892,0.7500521999318153
RSVPLG03,cs,20251106-141232,1.0.2,20251105-084826,739,Experiment,Both,1,Automatic,main,27,20251106-141513,global,global,300,H,S,A,A,H-A.png,S-A.png,hH,sS,mask-3.png,mask-3.png,h,1,2.064125700155273,h,0,0.1024575000628829,0.047626900020986795,0.04673609999008477,0.0995484001468867,0.09891969989985228,0.2999813000205904
RSVPLG03,cs,20251106-141232,1.0.2,20251105-084826,739,Experiment,Both,1,Automatic,main,28,20251106-141518,local,global,300,H,H,A,A,A-H.png,H-A.png,hH,hH,mask-4.png,mask-1.png,h,1,0.7593299001455307,h,1,0.2825200001243502,0.046496700029820204,0.04755989997647703,0.09966700011864305,0.10072860005311668,0.29882590007036924
RSVPLG03,cs,20251106-141232,1.0.2,20251105-084826,739,Experiment,Both,1,Automatic,main,29,20251106-141523,global,global,300,H,S,A,E,H-A.png,S-E.png,hH,sS,mask-1.png,mask-4.png,h,1,0.8740866999141872,s,1,1.034305299865082,0.04886199999600649,0.047714099986478686,0.10209780000150204,0.09818269987590611,0.3021333001088351
RSVPLG03,cs,20251106-141232,1.0.2,20251105-084826,739,Experiment,Both,1,Automatic,main,30,20251106-141528,local,local,750,S,H,A,A,A-S.png,A-H.png,sS,hH,mask-1.png,mask-1.png,s,1,0.6805721998680383,h,1,0.14800019981339574,0.04766210005618632,0.047874500043690205,0.09984749997965991,0.1000121000688523,0.749676699982956
RSVPLG03,cs,20251106-141232,1.0.2,20251105-084826,739,Experiment,Both,1,Automatic,main,31,20251106-141533,global,global,750,S,H,A,A,S-A.png,H-A.png,sS,hH,mask-2.png,mask-3.png,s,1,0.6183069001417607,h,1,0.18853569985367358,0.047015100019052625,0.04594650003127754,0.0993870000820607,0.10012369998730719,0.7502546000760049
RSVPLG03,cs,20251106-141232,1.0.2,20251105-084826,739,Experiment,Both,1,Automatic,main,32,20251106-141538,global,local,300,S,H,E,A,S-E.png,A-H.png,sS,hH,mask-2.png,mask-1.png,s,1,0.8798682999331504,h,1,0.13122109998948872,0.048630000092089176,0.04690259997732937,0.1008739999961108,0.1000747000798583,0.3005965000484139
RSVPLG03,cs,20251106-141232,1.0.2,20251105-084826,739,Experiment,Both,1,Automatic,main,33,20251106-141542,global,local,300,S,H,E,A,S-E.png,A-H.png,sS,hH,mask-3.png,mask-1.png,s,1,0.7009855001233518,h,1,0.043073599925264716,0.04649799992330372,0.04761880007572472,0.09950500004924834,0.10062210005708039,0.29904059995897114
RSVPLG03,cs,20251106-141232,1.0.2,20251105-084826,739,Experiment,Both,1,Automatic,main,34,20251106-141547,global,global,750,H,H,A,E,H-A.png,H-E.png,hH,hH,mask-4.png,mask-1.png,h,1,0.4929192999843508,h,1,0.11294950009323657,0.04755609994754195,0.04747679992578924,0.09955489984713495,0.09932169993408024,0.7521609999239445
RSVPLG03,cs,20251106-141232,1.0.2,20251105-084826,739,Experiment,Both,1,Automatic,main,35,20251106-141552,local,local,300,S,S,E,E,E-S.png,E-S.png,sS,sS,mask-3.png,mask-2.png,s,1,1.0528597999364138,h,0,0.05795800010673702,0.04856159980408847,0.04750000010244548,0.10059849987737834,0.10050399997271597,0.3008128998335451
RSVPLG03,cs,20251106-141232,1.0.2,20251105-084826,739,Experiment,Both,1,Automatic,main,36,20251106-141556,local,local,750,H,H,E,E,E-H.png,E-H.png,hH,hH,mask-1.png,mask-3.png,h,1,0.9533596998080611,s,0,0.06799070001579821,0.04651070013642311,0.047242100117728114,0.1006168001331389,0.09958459995687008,0.7502528000622988
RSVPLG03,cs,20251106-141232,1.0.2,20251105-084826,739,Experiment,Both,1,Automatic,main,37,20251106-141602,global,local,750,S,S,A,A,S-A.png,A-S.png,sS,sS,mask-4.png,mask-1.png,s,1,1.5552419000305235,h,0,0.1541334001813084,0.04759639990516007,0.048776299925521016,0.10004279995337129,0.10032589989714324,0.7507744999602437
RSVPLG03,cs,20251106-141232,1.0.2,20251105-084826,739,Experiment,Both,1,Automatic,main,38,20251106-141607,global,local,300,H,S,E,E,H-E.png,E-S.png,hH,sS,mask-4.png,mask-3.png,h,1,0.7189668999053538,h,0,0.10384920006617904,0.04766799998469651,0.047150300117209554,0.1015186000149697,0.10107020009309053,0.3005412998609245
RSVPLG03,cs,20251106-141232,1.0.2,20251105-084826,739,Experiment,Both,1,Automatic,main,39,20251106-141612,local,local,750,S,H,A,E,A-S.png,E-H.png,sS,hH,mask-4.png,mask-4.png,s,1,0.5878979999106377,h,1,0.06927249999716878,0.04754180018790066,0.046907899901270866,0.10056839999742806,0.09898460004478693,0.751003900077194
RSVPLG03,cs,20251106-141232,1.0.2,20251105-084826,739,Experiment,Both,1,Automatic,main,40,20251106-141617,local,local,750,S,H,A,E,A-S.png,E-H.png,sS,hH,mask-3.png,mask-3.png,s,1,0.52568419999443,h,1,0.16476790001615882,0.04774049995467067,0.047435499960556626,0.10089530004188418,0.10118729993700981,0.7509401000570506
RSVPLG03,cs,20251106-141232,1.0.2,20251105-084826,739,Experiment,Both,1,Automatic,main,41,20251106-141622,local,local,300,H,S,A,A,A-H.png,A-S.png,hH,sS,mask-3.png,mask-1.png,h,1,0.5922848999034613,s,1,0.037585899932309985,0.047541300067678094,0.04751410009339452,0.09954610001295805,0.10051330015994608,0.2998240999877453
RSVPLG03,cs,20251106-141232,1.0.2,20251105-084826,739,Experiment,Both,1,Automatic,main,42,20251106-141626,global,local,300,S,H,E,E,S-E.png,E-H.png,sS,hH,mask-2.png,mask-3.png,s,1,0.8586748999077827,s,0,0.1256838000845164,0.04847700009122491,0.04752440005540848,0.09983140020631254,0.09995960001833737,0.30104120005853474
RSVPLG03,cs,20251106-141232,1.0.2,20251105-084826,739,Experiment,Both,1,Automatic,main,43,20251106-141631,local,local,750,H,S,A,A,A-H.png,A-S.png,hH,sS,mask-3.png,mask-3.png,h,1,0.5062482999637723,s,1,0.5280670998618007,0.047508099814876914,0.047518800012767315,0.09850719990208745,0.09953709994442761,0.7505039998795837
RSVPLG03,cs,20251106-141232,1.0.2,20251105-084826,739,Experiment,Both,1,Automatic,main,44,20251106-141636,global,global,300,S,H,A,A,S-A.png,H-A.png,sS,hH,mask-1.png,mask-3.png,s,1,0.7953574999701232,h,1,0.08538759988732636,0.048527499893680215,0.04751550010405481,0.10152920009568334,0.10053160018287599,0.3017871999181807
RSVPLG03,cs,20251106-141232,1.0.2,20251105-084826,739,Experiment,Both,1,Automatic,main,45,20251106-141640,global,global,300,H,H,A,E,H-A.png,H-E.png,hH,hH,mask-3.png,mask-4.png,h,1,0.9238368000369519,h,1,0.10636719991452992,0.04657580005005002,0.047576399985700846,0.09960950003005564,0.100609399843961,0.2999658000189811
RSVPLG03,cs,20251106-141232,1.0.2,20251105-084826,739,Experiment,Both,1,Automatic,main,46,20251106-141645,global,global,750,S,S,A,E,S-A.png,S-E.png,sS,sS,mask-1.png,mask-1.png,s,1,0.5202905999030918,s,1,0.09130250010639429,0.049538400024175644,0.047497799852862954,0.1015586000867188,0.09944000001996756,0.7521799001842737
RSVPLG03,cs,20251106-141232,1.0.2,20251105-084826,739,Experiment,Both,1,Automatic,main,47,20251106-141650,local,global,300,S,S,E,A,E-S.png,S-A.png,sS,sS,mask-3.png,mask-4.png,s,1,0.688323900103569,s,1,0.1080313001293689,0.04739939980208874,0.04760530008934438,0.10043419990688562,0.09962070011533797,0.3006640998646617
RSVPLG03,cs,20251106-141232,1.0.2,20251105-084826,739,Experiment,Both,1,Automatic,main,48,20251106-141654,local,local,750,H,S,E,E,E-H.png,E-S.png,hH,sS,mask-1.png,mask-1.png,h,1,0.5668302997946739,s,1,0.027361300075426698,0.04756109998561442,0.04874740005470812,0.09957540011964738,0.10186249995604157,0.7499035000801086
RSVPLG03,cs,20251106-141232,1.0.2,20251105-084826,739,Experiment,Both,1,Automatic,main,49,20251106-141659,local,local,300,H,H,A,E,A-H.png,E-H.png,hH,hH,mask-2.png,mask-4.png,h,1,0.6082894001156092,s,0,0.736178700113669,0.046828600112348795,0.04747939994558692,0.099444700172171,0.10048729996196926,0.2996418001130223
RSVPLG03,cs,20251106-141232,1.0.2,20251105-084826,739,Experiment,Both,1,Automatic,main,50,20251106-141703,local,global,300,H,H,A,E,A-H.png,H-E.png,hH,hH,mask-1.png,mask-1.png,h,1,0.6161705001723021,h,1,0.1891843001358211,0.047545199980959296,0.04750430001877248,0.10060820006765425,0.0993437001015991,0.3009478999301791
RSVPLG03,cs,20251106-141232,1.0.2,20251105-084826,739,Experiment,Both,1,Automatic,main,51,20251106-141709,local,local,750,H,S,E,A,E-H.png,A-S.png,hH,sS,mask-2.png,mask-2.png,h,1,0.3457783998455852,s,1,0.05651769996620715,0.04868540004827082,0.04668140015564859,0.10088120005093515,0.09939410001970828,0.7515467999037355
RSVPLG03,cs,20251106-141232,1.0.2,20251105-084826,739,Experiment,Both,1,Automatic,main,52,20251106-141714,global,global,300,S,H,A,A,S-A.png,H-A.png,sS,hH,mask-1.png,mask-1.png,h,0,1.549216300016269,h,1,0.09247060003690422,0.04746649996377528,0.048792299814522266,0.09968889993615448,0.10184489982202649,0.29859580006450415
RSVPLG03,cs,20251106-141232,1.0.2,20251105-084826,739,Experiment,Both,1,Automatic,main,53,20251106-141719,local,local,300,S,H,A,A,A-S.png,A-H.png,sS,hH,mask-4.png,mask-3.png,s,1,1.0015781000256538,h,1,0.12266529980115592,0.04780339985154569,0.0475919998716563,0.10135859996080399,0.10122549999505281,0.3000940999481827
RSVPLG03,cs,20251106-141232,1.0.2,20251105-084826,739,Experiment,Both,1,Automatic,main,54,20251106-141724,global,local,300,H,S,E,A,H-E.png,A-S.png,hH,sS,mask-4.png,mask-1.png,h,1,1.131620000116527,h,0,0.10355269978754222,0.04765760013833642,0.046684299828484654,0.10168110020458698,0.09988489979878068,0.30222100019454956
RSVPLG03,cs,20251106-141232,1.0.2,20251105-084826,739,Experiment,Both,1,Automatic,main,55,20251106-141729,local,global,750,S,H,A,E,A-S.png,H-E.png,sS,hH,mask-2.png,mask-3.png,s,1,0.6690588998608291,h,1,0.03823180007748306,0.04658600012771785,0.04764249990694225,0.0986745001282543,0.10007639997638762,0.7495017000474036
RSVPLG03,cs,20251106-141232,1.0.2,20251105-084826,739,Experiment,Both,1,Automatic,main,56,20251106-141733,global,global,300,S,H,E,E,S-E.png,H-E.png,sS,hH,mask-3.png,mask-1.png,s,1,1.2431548000313342,h,1,0.027601199923083186,0.04673030017875135,0.047750100027769804,0.09987969999201596,0.10005579981952906,0.2995417001657188
RSVPLG03,cs,20251106-141232,1.0.2,20251105-084826,739,Experiment,Both,1,Automatic,main,57,20251106-141738,local,local,300,S,H,E,E,E-S.png,E-H.png,sS,hH,mask-2.png,mask-4.png,s,1,0.6030103000812232,s,0,0.09164949995465577,0.04638960002921522,0.04768319986760616,0.09900309983640909,0.10093869990669191,0.29964530002325773
RSVPLG03,cs,20251106-141232,1.0.2,20251105-084826,739,Experiment,Both,1,Automatic,main,58,20251106-141743,global,global,750,H,S,E,E,H-E.png,S-E.png,hH,sS,mask-2.png,mask-3.png,h,1,0.7727767999749631,h,0,0.08854099991731346,0.047743599861860275,0.04770749993622303,0.09982729982584715,0.09976810007356107,0.7499162999447435
RSVPLG03,cs,20251106-141232,1.0.2,20251105-084826,739,Experiment,Both,1,Automatic,main,59,20251106-141748,local,local,300,H,H,E,E,E-H.png,E-H.png,hH,hH,mask-3.png,mask-1.png,s,0,0.5281910002231598,h,1,0.67228680010885,0.04768980015069246,0.04767480003647506,0.09977230010554194,0.09856540011242032,0.30143540003336966
RSVPLG03,cs,20251106-141232,1.0.2,20251105-084826,739,Experiment,Both,1,Automatic,main,60,20251106-141752,local,global,750,H,S,A,A,A-H.png,S-A.png,hH,sS,mask-3.png,mask-4.png,h,1,0.9362623998895288,s,1,0.03185210004448891,0.047230899799615145,0.04730409989133477,0.10024329996667802,0.10030959988944232,0.7499265999067575
RSVPLG03,cs,20251106-141232,1.0.2,20251105-084826,739,Experiment,Both,1,Automatic,main,61,20251106-141757,global,global,750,S,S,A,E,S-A.png,S-E.png,sS,sS,mask-1.png,mask-3.png,s,1,0.8139181998558342,s,1,0.10337440017610788,0.04767100000753999,0.04776560002937913,0.09962749993428588,0.0999938000459224,0.7495426000095904
RSVPLG03,cs,20251106-141232,1.0.2,20251105-084826,739,Experiment,Both,1,Automatic,main,62,20251106-141802,global,local,750,H,S,E,A,H-E.png,A-S.png,hH,sS,mask-2.png,mask-1.png,h,1,1.4471076999325305,h,0,0.052225799998268485,0.047723800176754594,0.046801800141111016,0.10089780017733574,0.09899890003725886,0.7519197000656277
RSVPLG03,cs,20251106-141232,1.0.2,20251105-084826,739,Experiment,Both,1,Automatic,main,63,20251106-141808,global,local,300,H,H,E,A,H-E.png,A-H.png,hH,hH,mask-2.png,mask-3.png,h,1,0.8354362999089062,s,0,0.9796043999958783,0.0484400000423193,0.04749089991673827,0.09948150021955371,0.09921650006435812,0.30122050014324486
RSVPLG03,cs,20251106-141232,1.0.2,20251105-084826,739,Experiment,Both,1,Automatic,main,64,20251106-141812,local,global,750,H,H,A,E,A-H.png,H-E.png,hH,hH,mask-2.png,mask-2.png,h,1,0.5547557000536472,h,1,0.2527468998450786,0.04767659981735051,0.048812200082466006,0.10191769991070032,0.10107590002007782,0.751258899923414
RSVPLG03,cs,20251106-141232,1.0.2,20251105-084826,739,Experiment,Both,1,Automatic,main,65,20251106-141817,global,local,300,H,H,E,A,H-E.png,A-H.png,hH,hH,mask-2.png,mask-3.png,h,1,0.6368533000349998,s,0,0.03820360009558499,0.047499800100922585,0.047478900058194995,0.09947320003993809,0.10045209992676973,0.29968250007368624
RSVPLG03,cs,20251106-141232,1.0.2,20251105-084826,739,Experiment,Both,1,Automatic,main,66,20251106-141822,global,global,300,H,H,A,A,H-A.png,H-A.png,hH,hH,mask-3.png,mask-1.png,h,1,0.39662050013430417,h,1,0.03388240002095699,0.048714099917560816,0.04670009994879365,0.09981929999776185,0.09998800000175834,0.30160599993541837
RSVPLG03,cs,20251106-141232,1.0.2,20251105-084826,739,Experiment,Both,1,Automatic,main,67,20251106-141826,local,global,300,S,H,A,A,A-S.png,H-A.png,sS,hH,mask-4.png,mask-4.png,s,1,0.5881328000687063,h,1,0.7164274998940527,0.04707390000112355,0.046834300039336085,0.10039440006949008,0.10008509992621839,0.3003032000269741
RSVPLG03,cs,20251106-141232,1.0.2,20251105-084826,739,Experiment,Both,1,Automatic,main,68,20251106-141830,local,local,750,S,H,E,A,E-S.png,A-H.png,sS,hH,mask-1.png,mask-1.png,s,1,0.4762594001367688,h,1,0.042738899821415544,0.047157400054857135,0.04752069991081953,0.10137329995632172,0.09874629997648299,0.7522410000674427
RSVPLG03,cs,20251106-141232,1.0.2,20251105-084826,739,Experiment,Both,1,Automatic,main,69,20251106-141835,local,global,750,H,H,E,A,E-H.png,H-A.png,hH,hH,mask-1.png,mask-2.png,s,0,0.5304765999317169,h,1,0.01157259987667203,0.047606199979782104,0.04839669982902706,0.0996553001459688,0.10123169980943203,0.7506326001603156
RSVPLG03,cs,20251106-141232,1.0.2,20251105-084826,739,Experiment,Both,1,Automatic,main,70,20251106-141840,global,local,750,S,S,A,A,S-A.png,A-S.png,sS,sS,mask-2.png,mask-3.png,s,1,0.5609075000975281,s,1,0.060623800149187446,0.047521800035610795,0.047522000037133694,0.09953300002962351,0.10053830011747777,0.7503303999546915
RSVPLG03,cs,20251106-141232,1.0.2,20251105-084826,739,Experiment,Both,1,Automatic,main,71,20251106-141844,local,global,300,S,H,E,E,E-S.png,H-E.png,sS,hH,mask-3.png,mask-1.png,s,1,0.60757050011307,h,1,0.7833867999725044,0.04749910021200776,0.04748870013281703,0.09947110014036298,0.10047020018100739,0.29964430001564324
RSVPLG03,cs,20251106-141232,1.0.2,20251105-084826,739,Experiment,Both,1,Automatic,main,72,20251106-141849,global,local,300,H,H,A,E,H-A.png,E-H.png,hH,hH,mask-3.png,mask-1.png,h,1,1.1093983999453485,s,0,0.025551600148901343,0.04603309999220073,0.047459900146350265,0.09897110005840659,0.1000086001586169,0.2993606999516487
RSVPLG03,cs,20251106-141232,1.0.2,20251105-084826,739,Experiment,Both,1,Automatic,main,73,20251106-141854,global,global,300,S,H,A,A,S-A.png,H-A.png,sS,hH,mask-1.png,mask-3.png,s,1,0.5144730000756681,h,1,0.15869099996052682,0.047647499945014715,0.04565099999308586,0.09985599992796779,0.09862369997426867,0.30144759989343584
RSVPLG03,cs,20251106-141232,1.0.2,20251105-084826,739,Experiment,Both,1,Automatic,main,74,20251106-141858,global,global,300,H,H,E,E,H-E.png,H-E.png,hH,hH,mask-4.png,mask-1.png,h,1,1.6905112999957055,s,0,0.04369869991205633,0.047677599824965,0.048838899936527014,0.0987207000143826,0.1010264998767525,0.29861880000680685
RSVPLG03,cs,20251106-141232,1.0.2,20251105-084826,739,Experiment,Both,1,Automatic,main,75,20251106-141904,global,global,300,H,H,A,A,H-A.png,H-A.png,hH,hH,mask-1.png,mask-2.png,h,1,0.5710446001030505,h,1,0.06958370003849268,0.04768399987369776,0.04561330005526543,0.09986239997670054,0.09868329996243119,0.301408699946478
RSVPLG03,cs,20251106-141232,1.0.2,20251105-084826,739,Experiment,Both,1,Automatic,main,76,20251106-141909,local,local,750,S,S,A,A,A-S.png,A-S.png,sS,sS,mask-2.png,mask-1.png,s,1,0.37290719989687204,s,1,0.10569510003551841,0.047768000047653913,0.04751530010253191,0.10090769990347326,0.0980283000972122,0.7517526999581605
RSVPLG03,cs,20251106-141232,1.0.2,20251105-084826,739,Experiment,Both,1,Automatic,main,77,20251106-141914,global,local,750,H,H,A,A,H-A.png,A-H.png,hH,hH,mask-2.png,mask-1.png,h,1,1.0345705999061465,h,1,0.07415230013430119,0.04762149997986853,0.04589569987729192,0.09983370010741055,0.09919540002010763,0.7505598000716418
RSVPLG03,cs,20251106-141232,1.0.2,20251105-084826,739,Experiment,Both,1,Automatic,main,78,20251106-141919,local,global,300,H,H,A,E,A-H.png,H-E.png,hH,hH,mask-3.png,mask-2.png,h,1,0.6536991999018937,h,1,0.09022970008663833,0.04744590003974736,0.0485880000051111,0.10059899999760091,0.10147009999491274,0.29945879988372326
RSVPLG03,cs,20251106-141232,1.0.2,20251105-084826,739,Experiment,Both,1,Automatic,main,79,20251106-141923,global,global,750,S,H,E,E,S-E.png,H-E.png,sS,hH,mask-2.png,mask-1.png,s,1,0.6322233001701534,h,1,0.08842219994403422,0.047693599946796894,0.04772550007328391,0.09990189992822707,0.09995629987679422,0.7502019999083132
RSVPLG03,cs,20251106-141232,1.0.2,20251105-084826,739,Experiment,Both,1,Automatic,main,80,20251106-141928,local,local,300,S,S,E,E,E-S.png,E-S.png,sS,sS,mask-2.png,mask-1.png,s,1,0.6046503998804837,h,0,0.7332049999386072,0.04776420001871884,0.04671659995801747,0.10002569993957877,0.0989302999805659,0.300450999988243
RSVPLG03,cs,20251106-141232,1.0.2,20251105-084826,739,Experiment,Both,1,Automatic,main,81,20251106-141932,local,global,750,S,H,E,E,E-S.png,H-E.png,sS,hH,mask-1.png,mask-4.png,s,1,0.44261790020391345,h,1,0.013046999927610159,0.04840049985796213,0.04749480006285012,0.10142259998247027,0.10055240010842681,0.751693399855867
RSVPLG03,cs,20251106-141232,1.0.2,20251105-084826,739,Experiment,Both,1,Automatic,main,82,20251106-141937,local,global,300,S,H,A,E,A-S.png,H-E.png,sS,hH,mask-3.png,mask-1.png,h,0,0.5094526000320911,s,0,0.7771039002109319,0.047590200090780854,0.04753390001133084,0.10160640021786094,0.10056230006739497,0.30123270000331104
RSVPLG03,cs,20251106-141232,1.0.2,20251105-084826,739,Experiment,Both,1,Automatic,main,83,20251106-141942,global,local,750,S,H,E,E,S-E.png,E-H.png,sS,hH,mask-1.png,mask-2.png,s,1,0.43180510005913675,s,0,0.11850099987350404,0.04754119995050132,0.04757559997960925,0.10155909997411072,0.09966060006991029,0.7522921999916434
RSVPLG03,cs,20251106-141232,1.0.2,20251105-084826,739,Experiment,Both,1,Automatic,main,84,20251106-141947,local,global,300,H,H,A,A,A-H.png,H-A.png,hH,hH,mask-2.png,mask-1.png,s,0,0.5070819999091327,h,1,0.24784970004111528,0.04713399987667799,0.0472441001329571,0.10017560003325343,0.10029980004765093,0.2998724998906255
RSVPLG03,cs,20251106-141232,1.0.2,20251105-084826,739,Experiment,Both,1,Automatic,main,85,20251106-141951,global,global,750,H,H,A,A,H-A.png,H-A.png,hH,hH,mask-3.png,mask-1.png,h,1,0.40490419999696314,h,1,0.10597499995492399,0.04853920009918511,0.04651969997212291,0.09966150019317865,0.09957939991727471,0.751753400079906
RSVPLG03,cs,20251106-141232,1.0.2,20251105-084826,739,Experiment,Both,1,Automatic,main,86,20251106-141956,local,global,750,S,H,A,E,A-S.png,H-E.png,sS,hH,mask-1.png,mask-1.png,s,1,0.7624333999119699,h,1,0.8746605000924319,0.04858849989250302,0.047333099879324436,0.1007298999466002,0.1003044000826776,0.7522865999490023
RSVPLG03,cs,20251106-141232,1.0.2,20251105-084826,739,Experiment,Both,1,Automatic,main,87,20251106-142001,local,global,750,S,S,E,A,E-S.png,S-A.png,sS,sS,mask-2.png,mask-2.png,s,1,0.45467810006812215,s,1,0.10642779991030693,0.048546999925747514,0.047690700041130185,0.0998214001301676,0.09990129992365837,0.7519608000293374
RSVPLG03,cs,20251106-141232,1.0.2,20251105-084826,739,Experiment,Both,1,Automatic,main,88,20251106-142005,local,global,300,H,H,E,A,E-H.png,H-A.png,hH,hH,mask-2.png,mask-4.png,h,1,0.5571665999013931,s,0,0.026902599958702922,0.04653379996307194,0.04752869997173548,0.0996199999935925,0.10066189989447594,0.2990292999893427
RSVPLG03,cs,20251106-141232,1.0.2,20251105-084826,739,Experiment,Both,1,Automatic,main,89,20251106-142010,local,global,750,H,S,A,A,A-H.png,S-A.png,hH,sS,mask-1.png,mask-3.png,h,1,0.4796949999872595,h,0,0.08497800002805889,0.04757050005719066,0.04758200002834201,0.09963140008039773,0.10146949999034405,0.7496619999874383
RSVPLG03,cs,20251106-141232,1.0.2,20251105-084826,739,Experiment,Both,1,Automatic,main,90,20251106-142014,global,local,300,S,S,E,A,S-E.png,A-S.png,sS,sS,mask-3.png,mask-4.png,h,0,0.8598341001197696,s,1,0.07231399999000132,0.04677470005117357,0.04697010014206171,0.09978120005689561,0.0999743000138551,0.29985639988444746
RSVPLG03,cs,20251106-141232,1.0.2,20251105-084826,739,Experiment,Both,1,Automatic,main,91,20251106-142019,global,global,750,S,H,A,A,S-A.png,H-A.png,sS,hH,mask-3.png,mask-3.png,s,1,0.48913990007713437,h,1,0.07441889983601868,0.04726890008896589,0.04757739999331534,0.1002519999165088,0.09964350005611777,0.7513264999724925
RSVPLG03,cs,20251106-141232,1.0.2,20251105-084826,739,Experiment,Both,1,Automatic,main,92,20251106-142024,local,local,300,H,H,A,A,A-H.png,A-H.png,hH,hH,mask-2.png,mask-2.png,h,1,0.7456926999147981,h,1,0.08565939986146986,0.048508499981835485,0.04751199996098876,0.10054580005817115,0.10055309999734163,0.30081359995529056
RSVPLG03,cs,20251106-141232,1.0.2,20251105-084826,739,Experiment,Both,1,Automatic,main,93,20251106-142028,local,global,300,S,S,E,A,E-S.png,S-A.png,sS,sS,mask-3.png,mask-4.png,s,1,0.8486913999076933,s,1,0.09341990016400814,0.04705099994316697,0.04729360016062856,0.10007230006158352,0.09927250002510846,0.29990149987861514
RSVPLG03,cs,20251106-141232,1.0.2,20251105-084826,739,Experiment,Both,1,Automatic,main,94,20251106-142033,global,local,750,S,S,E,E,S-E.png,E-S.png,sS,sS,mask-1.png,mask-3.png,s,1,0.6944109001196921,s,1,0.10646430007182062,0.047594500007107854,0.04774890001863241,0.09858819982036948,0.09974799980409443,0.7504769000224769
RSVPLG03,cs,20251106-141232,1.0.2,20251105-084826,739,Experiment,Both,1,Automatic,main,95,20251106-142038,local,global,300,H,H,E,E,E-H.png,H-E.png,hH,hH,mask-3.png,mask-1.png,h,1,0.42080319998785853,s,0,0.04452509991824627,0.04751270008273423,0.047512599965557456,0.09952439996413887,0.09850480011664331,0.3000501999631524
RSVPLG03,cs,20251106-141232,1.0.2,20251105-084826,739,Experiment,Both,1,Automatic,main,96,20251106-142042,global,global,300,H,H,E,A,H-E.png,H-A.png,hH,hH,mask-3.png,mask-1.png,h,1,0.4258626999799162,h,1,0.09165740013122559,0.04759520012885332,0.04758149990811944,0.10057110013440251,0.10061830002814531,0.2999201000202447
RSVPLG03,cs,20251106-141232,1.0.2,20251105-084826,739,Experiment,Both,1,Automatic,main,97,20251106-142046,global,global,750,S,S,A,A,S-A.png,S-A.png,sS,sS,mask-2.png,mask-4.png,s,1,0.8884286999236792,s,1,0.07733650016598403,0.0475163001101464,0.04749679984524846,0.09949310007505119,0.1004839998204261,0.7499594001565129
RSVPLG03,cs,20251106-141232,1.0.2,20251105-084826,739,Experiment,Both,1,Automatic,main,98,20251106-142051,global,global,750,S,S,E,A,S-E.png,S-A.png,sS,sS,mask-4.png,mask-1.png,s,1,0.38138090004213154,s,1,0.07123219990171492,0.04750670003704727,0.04749689996242523,0.10051759984344244,0.10048609995283186,0.7501523999962956
RSVPLG03,cs,20251106-141232,1.0.2,20251105-084826,739,Experiment,Both,1,Automatic,main,99,20251106-142056,global,local,750,H,H,E,A,H-E.png,A-H.png,hH,hH,mask-1.png,mask-1.png,h,1,1.0303150999825448,h,1,0.002771900035440922,0.0477309999987483,0.04587779985740781,0.0999928000383079,0.09904300002381206,0.752603700151667
RSVPLG03,cs,20251106-141232,1.0.2,20251105-084826,739,Experiment,Both,1,Automatic,main,100,20251106-142101,local,local,300,H,S,A,A,A-H.png,A-S.png,hH,sS,mask-2.png,mask-1.png,s,0,0.7640496001113206,h,0,0.05852970015257597,0.04786999989300966,0.04674639995209873,0.09992920001968741,0.09920489997602999,0.3006227998994291
