exp,exp_initials,runtime,ver,modtime,sub,blocktype,targets,cuetype,mode,trialtype,trial,trialtime,t1_level,t2_level,t2_lag,t1,t2,distractor1,distractor2,stimfile1,stimfile2,t1_corr,t2_corr,maskfile1,maskfile2,t1_resp,t1_acc,t1_rt,t2_resp,t2_acc,t2_rt,t1_dur,t2_dur,t1mask_soa,t2mask_soa,t1t2_soa
RSVPLG03,cs,20260213-101915,1.0.2,20251105-084826,760,Introduction,T1,1,Automatic,main,1,20260213-102001,local,global,750,S,H,A,E,A-S.png,H-E.png,sS,hH,mask-2.png,mask-2.png,s,1,3.122346400283277,none,-5,0,0.09226089995354414,0.09754350036382675,0.19497530069202185,0.20062629971653223,0.7486768001690507
RSVPLG03,cs,20260213-101915,1.0.2,20251105-084826,760,Introduction,T1,1,Automatic,main,2,20260213-102009,global,global,750,H,H,E,A,H-E.png,H-A.png,hH,hH,mask-4.png,mask-3.png,h,1,1.415838100016117,none,-5,0,0.09855240024626255,0.09831270016729832,0.2006361000239849,0.20044780056923628,0.7533582001924515
RSVPLG03,cs,20260213-101915,1.0.2,20251105-084826,760,Introduction,T1,1,Automatic,main,3,20260213-102014,global,local,750,S,H,A,E,S-A.png,E-H.png,sS,hH,mask-2.png,mask-4.png,s,1,0.89677660074085,none,-5,0,0.09814799949526787,0.09732399974018335,0.20179620012640953,0.19975609984248877,0.754801600240171
RSVPLG03,cs,20260213-101915,1.0.2,20251105-084826,760,Introduction,T1,1,Automatic,main,4,20260213-102020,global,global,750,H,S,E,E,H-E.png,S-E.png,hH,sS,mask-2.png,mask-1.png,h,1,1.789898100309074,none,-5,0,0.09745969995856285,0.09840879961848259,0.20029269997030497,0.20153299998492002,0.7540490003302693
RSVPLG03,cs,20260213-101915,1.0.2,20251105-084826,760,Introduction,T1,1,Automatic,main,5,20260213-102026,local,global,750,S,S,A,E,A-S.png,S-E.png,sS,sS,mask-3.png,mask-3.png,none,-6,0,none,-5,0,0.09831460006535053,0.09683059994131327,0.1996249994263053,0.20088679995387793,0.753822099417448
RSVPLG03,cs,20260213-102039,1.0.2,20251105-084826,760,Practice,T1,1,Automatic,main,1,20260213-102101,local,global,300,H,H,A,A,A-H.png,H-A.png,hH,hH,mask-4.png,mask-1.png,s,0,0.60689099971205,none,-5,0,0.04707450047135353,0.04719629976898432,0.1000201003625989,0.09972770046442747,0.30078480020165443
RSVPLG03,cs,20260213-102039,1.0.2,20251105-084826,760,Practice,T1,1,Automatic,main,2,20260213-102105,global,global,750,S,H,A,E,S-A.png,H-E.png,sS,hH,mask-2.png,mask-2.png,s,1,0.6317815994843841,none,-5,0,0.04867069981992245,0.04827709961682558,0.10156080033630133,0.10057550016790628,0.7529202001169324
RSVPLG03,cs,20260213-102039,1.0.2,20251105-084826,760,Practice,T1,1,Automatic,main,3,20260213-102109,global,local,300,H,S,A,A,H-A.png,A-S.png,hH,sS,mask-3.png,mask-2.png,h,1,0.40344819985330105,none,-5,0,0.04801770020276308,0.04882050026208162,0.10030610021203756,0.102203200571239,0.2999313995242119
RSVPLG03,cs,20260213-102039,1.0.2,20251105-084826,760,Practice,T1,1,Automatic,main,4,20260213-102113,global,global,750,S,H,A,E,S-A.png,H-E.png,sS,hH,mask-4.png,mask-2.png,s,1,0.6922869002446532,none,-5,0,0.04674889985471964,0.04794319998472929,0.09985539969056845,0.10118820052593946,0.7507219994440675
RSVPLG03,cs,20260213-102039,1.0.2,20251105-084826,760,Practice,T1,1,Automatic,main,5,20260213-102118,global,global,300,H,S,A,A,H-A.png,S-A.png,hH,sS,mask-4.png,mask-4.png,h,1,0.328158900141716,none,-5,0,0.04879860021173954,0.04757959954440594,0.10110499989241362,0.1005867999047041,0.3020341005176306
RSVPLG03,cs,20260213-102039,1.0.2,20251105-084826,760,Practice,T1,1,Automatic,main,6,20260213-102122,local,local,750,H,S,A,A,A-H.png,A-S.png,hH,sS,mask-4.png,mask-1.png,h,1,0.5975954998284578,none,-5,0,0.04653989989310503,0.04858139995485544,0.10055159963667393,0.10065479949116707,0.7511908998712897
RSVPLG03,cs,20260213-102039,1.0.2,20251105-084826,760,Practice,T1,1,Automatic,main,7,20260213-102127,local,local,300,S,S,A,E,A-S.png,E-S.png,sS,sS,mask-3.png,mask-1.png,s,1,0.3812470007687807,none,-5,0,0.04714380018413067,0.04768749978393316,0.10057430062443018,0.10068720020353794,0.30091730039566755
RSVPLG03,cs,20260213-102039,1.0.2,20251105-084826,760,Practice,T1,1,Automatic,main,8,20260213-102131,global,local,300,S,S,A,A,S-A.png,A-S.png,sS,sS,mask-3.png,mask-1.png,s,1,0.32422619964927435,none,-5,0,0.04754509963095188,0.04748539999127388,0.09940419998019934,0.10021939966827631,0.2999663995578885
RSVPLG03,cs,20260213-102039,1.0.2,20251105-084826,760,Practice,T1,1,Automatic,main,9,20260213-102135,local,global,750,H,H,A,E,A-H.png,H-E.png,hH,hH,mask-1.png,mask-4.png,h,1,0.5340200997889042,none,-5,0,0.047695900313556194,0.04743279982358217,0.10081259999424219,0.1005188999697566,0.7518592001870275
RSVPLG03,cs,20260213-102039,1.0.2,20251105-084826,760,Practice,T1,1,Automatic,main,10,20260213-102139,global,local,750,S,H,E,E,S-E.png,E-H.png,sS,hH,mask-4.png,mask-1.png,s,1,0.19776130001991987,none,-5,0,0.04695519991219044,0.047006700187921524,0.1002591997385025,0.10029730014503002,0.7513285996392369
RSVPLG03,cs,20260213-102039,1.0.2,20251105-084826,760,Practice,T1,1,Automatic,main,11,20260213-102143,global,global,300,S,H,A,A,S-A.png,H-A.png,sS,hH,mask-3.png,mask-2.png,s,1,0.43075979966670275,none,-5,0,0.04767749924212694,0.04906499944627285,0.10004179924726486,0.10085449926555157,0.3001902000978589
RSVPLG03,cs,20260213-102039,1.0.2,20251105-084826,760,Practice,T1,1,Automatic,main,12,20260213-102147,local,local,300,S,H,E,E,E-S.png,E-H.png,sS,hH,mask-3.png,mask-3.png,s,1,0.32054559979587793,none,-5,0,0.04869240056723356,0.046941000036895275,0.10018530022352934,0.10025519970804453,0.3019962003454566
RSVPLG03,cs,20260213-102039,1.0.2,20251105-084826,760,Practice,T1,1,Automatic,main,13,20260213-102151,local,local,750,H,S,A,E,A-H.png,E-S.png,hH,sS,mask-3.png,mask-4.png,h,1,0.1891929004341364,none,-5,0,0.047345200553536415,0.047393099404871464,0.09954790025949478,0.09928399976342916,0.7528800005093217
RSVPLG03,cs,20260213-102039,1.0.2,20251105-084826,760,Practice,T1,1,Automatic,main,14,20260213-102155,global,local,750,H,H,A,A,H-A.png,A-H.png,hH,hH,mask-1.png,mask-1.png,h,1,0.39770689979195595,none,-5,0,0.04637650027871132,0.04753260035067797,0.09910140000283718,0.09903569985181093,0.7522729998454452
RSVPLG03,cs,20260213-102039,1.0.2,20251105-084826,760,Practice,T1,1,Automatic,main,15,20260213-102200,local,global,300,H,S,A,A,A-H.png,S-A.png,hH,sS,mask-1.png,mask-4.png,h,1,0.4397072996944189,none,-5,0,0.047466699965298176,0.047731599770486355,0.09930159989744425,0.09979439992457628,0.30034099984914064
RSVPLG03,cs,20260213-102039,1.0.2,20251105-084826,760,Practice,T1,1,Automatic,main,16,20260213-102204,local,global,750,H,H,A,E,A-H.png,H-E.png,hH,hH,mask-1.png,mask-1.png,h,1,0.3315298007801175,none,-5,0,0.04732189979404211,0.04736930038779974,0.10055680014193058,0.10049779992550611,0.7516443999484181
RSVPLG03,cs,20260213-102323,1.0.2,20251105-084826,760,Practice,Both,1,Automatic,main,1,20260213-102351,local,global,300,S,H,E,A,E-S.png,H-A.png,sS,hH,mask-3.png,mask-2.png,s,1,0.3245867006480694,h,1,3.54251420032233,0.04765320010483265,0.047029600478708744,0.1001761993393302,0.10097000002861023,0.30050519946962595
RSVPLG03,cs,20260213-102323,1.0.2,20251105-084826,760,Practice,Both,1,Automatic,main,2,20260213-102359,local,global,300,H,S,E,E,E-H.png,S-E.png,hH,sS,mask-4.png,mask-4.png,s,0,1.1099719004705548,h,0,0.9200113005936146,0.04683989938348532,0.04823740012943745,0.09923949930816889,0.09969380032271147,0.3008104991167784
RSVPLG03,cs,20260213-102323,1.0.2,20251105-084826,760,Practice,Both,1,Automatic,main,3,20260213-102404,global,local,750,S,H,A,A,S-A.png,A-H.png,sS,hH,mask-4.png,mask-2.png,s,1,1.788562100380659,h,1,0.5962361991405487,0.04714080039411783,0.048633099533617496,0.0991516001522541,0.1016576997935772,0.7528215004131198
RSVPLG03,cs,20260213-102323,1.0.2,20251105-084826,760,Practice,Both,1,Automatic,main,4,20260213-102411,global,global,750,S,S,E,E,S-E.png,S-E.png,sS,sS,mask-1.png,mask-4.png,s,1,1.583415800705552,s,1,0.5193533003330231,0.047536700032651424,0.04640609957277775,0.09983349964022636,0.10040530003607273,0.7541939001530409
RSVPLG03,cs,20260213-102323,1.0.2,20251105-084826,760,Practice,Both,1,Automatic,main,5,20260213-102417,local,local,300,H,H,E,A,E-H.png,A-H.png,hH,hH,mask-4.png,mask-1.png,s,0,1.682039100676775,s,0,2.361974500119686,0.04678600002080202,0.04700800031423569,0.1003543995320797,0.10043040011078119,0.3007653998211026
RSVPLG03,cs,20260213-102323,1.0.2,20251105-084826,760,Practice,Both,1,Automatic,main,6,20260213-102425,global,local,300,S,H,E,A,S-E.png,A-H.png,sS,hH,mask-2.png,mask-2.png,s,1,0.7378232004120946,h,1,0.5527841001749039,0.04652720037847757,0.04754399973899126,0.09921220038086176,0.10084709990769625,0.30048950016498566
RSVPLG03,cs,20260213-102323,1.0.2,20251105-084826,760,Practice,Both,1,Automatic,main,7,20260213-102430,local,global,750,S,S,A,A,A-S.png,S-A.png,sS,sS,mask-2.png,mask-3.png,h,0,0.9399009002372622,s,1,0.4377541998401284,0.04670120030641556,0.04775639995932579,0.09924919996410608,0.10036040004342794,0.753446800634265
RSVPLG03,cs,20260213-102323,1.0.2,20251105-084826,760,Practice,Both,1,Automatic,main,8,20260213-102435,local,local,750,H,S,A,A,A-H.png,A-S.png,hH,sS,mask-3.png,mask-4.png,h,1,1.2756254998967052,s,1,0.36281049996614456,0.047701300121843815,0.04745670035481453,0.10008700005710125,0.10047349985688925,0.7534814001992345
RSVPLG03,cs,20260213-102323,1.0.2,20251105-084826,760,Practice,Both,1,Automatic,main,9,20260213-102441,global,global,300,S,S,A,A,S-A.png,S-A.png,sS,sS,mask-2.png,mask-2.png,s,1,0.9078865004703403,s,1,0.42972390074282885,0.047543699853122234,0.047508600167930126,0.10003700014203787,0.09851410053670406,0.30316879972815514
RSVPLG03,cs,20260213-102323,1.0.2,20251105-084826,760,Practice,Both,1,Automatic,main,10,20260213-102446,local,local,750,H,H,A,E,A-H.png,E-H.png,hH,hH,mask-1.png,mask-3.png,h,1,1.7665915004909039,s,0,0.4366783993318677,0.04844759963452816,0.04688579961657524,0.10139989946037531,0.09997089952230453,0.7539862999692559
RSVPLG03,cs,20260213-102323,1.0.2,20251105-084826,760,Practice,Both,1,Automatic,main,11,20260213-102453,local,global,750,S,H,E,E,E-S.png,H-E.png,sS,hH,mask-2.png,mask-2.png,s,1,0.9728316003456712,h,1,0.4530711993575096,0.04751200042665005,0.047376399859786034,0.10083749983459711,0.0993930995464325,0.7543791001662612
RSVPLG03,cs,20260213-102323,1.0.2,20251105-084826,760,Practice,Both,1,Automatic,main,12,20260213-102458,global,global,300,H,H,A,A,H-A.png,H-A.png,hH,hH,mask-3.png,mask-4.png,h,1,1.4458488998934627,s,0,0.5486532999202609,0.0467186002060771,0.04758969973772764,0.09945829957723618,0.10080599971115589,0.3009978998452425
RSVPLG03,cs,20260213-102323,1.0.2,20251105-084826,760,Practice,Both,1,Automatic,main,13,20260213-102504,global,local,750,S,S,A,E,S-A.png,E-S.png,sS,sS,mask-1.png,mask-3.png,s,1,0.6675223996862769,s,1,0.5390674993395805,0.048566900193691254,0.048777999356389046,0.10073249973356724,0.10197459999471903,0.753872100263834
RSVPLG03,cs,20260213-102323,1.0.2,20251105-084826,760,Practice,Both,1,Automatic,main,14,20260213-102509,local,local,300,H,S,A,E,A-H.png,E-S.png,hH,sS,mask-4.png,mask-3.png,h,1,0.9971575001254678,s,1,0.44132100045681,0.045784699730575085,0.04686719924211502,0.09946729987859726,0.10085160005837679,0.30020750034600496
RSVPLG03,cs,20260213-102323,1.0.2,20251105-084826,760,Practice,Both,1,Automatic,main,15,20260213-102515,global,global,750,S,S,A,A,S-A.png,S-A.png,sS,sS,mask-2.png,mask-3.png,s,1,0.8784488001838326,s,1,0.3939441004768014,0.04652669932693243,0.04856979940086603,0.09879139997065067,0.1015808992087841,0.7528539001941681
RSVPLG03,cs,20260213-102323,1.0.2,20251105-084826,760,Practice,Both,1,Automatic,main,16,20260213-102520,global,local,300,S,H,E,A,S-E.png,A-H.png,sS,hH,mask-3.png,mask-1.png,s,1,0.8396626999601722,h,1,0.5343526005744934,0.048753099516034126,0.04771549999713898,0.10028699971735477,0.0994921000674367,0.3020604997873306
RSVPLG03,cs,20260213-102657,1.0.2,20251105-084826,760,Experiment,Both,1,Automatic,warmup,1,20260213-102734,local,local,300,S,S,A,E,A-S.png,E-S.png,sS,sS,mask-3.png,mask-1.png,s,1,1.0436709998175502,h,0,0.294718099758029,0.0398760000243783,0.04872660059481859,0.09366519935429096,0.09967830032110214,0.29362669959664345
RSVPLG03,cs,20260213-102657,1.0.2,20251105-084826,760,Experiment,Both,1,Automatic,warmup,2,20260213-102739,global,local,300,H,S,E,A,H-E.png,A-S.png,hH,sS,mask-3.png,mask-2.png,s,0,0.5516138998791575,h,0,0.3834306998178363,0.047730700112879276,0.0491006001830101,0.10084099974483252,0.10014230012893677,0.3005587998777628
RSVPLG03,cs,20260213-102657,1.0.2,20251105-084826,760,Experiment,Both,1,Automatic,warmup,3,20260213-102744,global,local,750,H,S,E,E,H-E.png,E-S.png,hH,sS,mask-3.png,mask-3.png,h,1,0.7848865007981658,s,1,0.2823564000427723,0.04900579992681742,0.04817559942603111,0.10190929938107729,0.10032769944518805,0.7512755999341607
RSVPLG03,cs,20260213-102657,1.0.2,20251105-084826,760,Experiment,Both,1,Automatic,warmup,4,20260213-102749,local,global,750,S,S,A,A,A-S.png,S-A.png,sS,sS,mask-1.png,mask-2.png,h,0,2.091555600054562,s,1,0.27807960007339716,0.04774450045078993,0.04776170011609793,0.09995170030742884,0.1009143004193902,0.74966000020504
RSVPLG03,cs,20260213-102657,1.0.2,20251105-084826,760,Experiment,Both,1,Automatic,main,5,20260213-102756,local,global,300,H,S,A,E,A-H.png,S-E.png,hH,sS,mask-4.png,mask-1.png,h,1,1.0604117000475526,s,1,0.28332480043172836,0.047664400190114975,0.04763830080628395,0.09968770015984774,0.09907060023397207,0.30034019984304905
RSVPLG03,cs,20260213-102657,1.0.2,20251105-084826,760,Experiment,Both,1,Automatic,main,6,20260213-102801,global,local,750,H,H,A,E,H-A.png,E-H.png,hH,hH,mask-1.png,mask-1.png,h,1,0.73982710018754,s,0,0.22165660001337528,0.04771769978106022,0.046786900609731674,0.10012520011514425,0.1007240004837513,0.7514140997081995
RSVPLG03,cs,20260213-102657,1.0.2,20251105-084826,760,Experiment,Both,1,Automatic,main,7,20260213-102806,local,global,750,S,H,E,E,E-S.png,H-E.png,sS,hH,mask-4.png,mask-3.png,s,1,0.6916982997208834,h,1,0.147142400033772,0.04761289991438389,0.04642949998378754,0.10061809979379177,0.09931869991123676,0.7510649999603629
RSVPLG03,cs,20260213-102657,1.0.2,20251105-084826,760,Experiment,Both,1,Automatic,main,8,20260213-102811,global,local,300,S,H,E,A,S-E.png,A-H.png,sS,hH,mask-1.png,mask-4.png,s,1,0.8506183000281453,h,1,0.35868219938129187,0.04759280011057854,0.04748489987105131,0.09894059970974922,0.10067650023847818,0.2994176000356674
RSVPLG03,cs,20260213-102657,1.0.2,20251105-084826,760,Experiment,Both,1,Automatic,main,9,20260213-102816,local,local,300,S,H,A,E,A-S.png,E-H.png,sS,hH,mask-3.png,mask-1.png,s,1,1.850153500214219,h,1,0.2649409994482994,0.04655729979276657,0.04751779977232218,0.09956939984112978,0.10083859972655773,0.29920340050011873
RSVPLG03,cs,20260213-102657,1.0.2,20251105-084826,760,Experiment,Both,1,Automatic,main,10,20260213-102822,local,local,300,H,H,E,A,E-H.png,A-H.png,hH,hH,mask-2.png,mask-3.png,h,1,1.054543700069189,s,0,0.2998236007988453,0.045930299907922745,0.0458146994933486,0.09936160035431385,0.10000520013272762,0.30069040041416883
RSVPLG03,cs,20260213-102657,1.0.2,20251105-084826,760,Experiment,Both,1,Automatic,main,11,20260213-102827,global,global,300,H,H,A,A,H-A.png,H-A.png,hH,hH,mask-1.png,mask-2.png,h,1,0.8422235995531082,h,1,0.28656409960240126,0.04948620032519102,0.04677140060812235,0.10151519998908043,0.10016070026904345,0.30199639964848757
RSVPLG03,cs,20260213-102657,1.0.2,20251105-084826,760,Experiment,Both,1,Automatic,main,12,20260213-102831,local,local,300,S,S,E,E,E-S.png,E-S.png,sS,sS,mask-3.png,mask-2.png,s,1,0.48350519966334105,s,1,0.31493769958615303,0.0480839004740119,0.04720459971576929,0.10125130042433739,0.10034339968115091,0.30134200025349855
RSVPLG03,cs,20260213-102657,1.0.2,20251105-084826,760,Experiment,Both,1,Automatic,main,13,20260213-102836,global,global,750,S,H,E,E,S-E.png,H-E.png,sS,hH,mask-1.png,mask-1.png,s,1,0.7210184000432491,h,1,0.22071280051022768,0.04774290043860674,0.04722000006586313,0.10028540063649416,0.10060020070523024,0.7504249997437
RSVPLG03,cs,20260213-102657,1.0.2,20251105-084826,760,Experiment,Both,1,Automatic,main,14,20260213-102841,global,local,750,H,H,A,E,H-A.png,E-H.png,hH,hH,mask-1.png,mask-4.png,h,1,0.551205400377512,s,0,0.12254039943218231,0.04776379931718111,0.0477895000949502,0.0996570996940136,0.10130019951611757,0.7500326996669173
RSVPLG03,cs,20260213-102657,1.0.2,20251105-084826,760,Experiment,Both,1,Automatic,main,15,20260213-102846,local,local,750,H,H,E,E,E-H.png,E-H.png,hH,hH,mask-2.png,mask-1.png,h,1,0.39957650005817413,s,0,0.20676410011947155,0.048593999817967415,0.046102799475193024,0.09958859998732805,0.09838289953768253,0.7517523998394608
RSVPLG03,cs,20260213-102657,1.0.2,20251105-084826,760,Experiment,Both,1,Automatic,main,16,20260213-102851,global,local,300,H,H,E,A,H-E.png,A-H.png,hH,hH,mask-1.png,mask-1.png,h,1,2.1350913997739553,s,0,0.13917810004204512,0.0475145997479558,0.04756459966301918,0.10056249983608723,0.10064310021698475,0.29987240023911
RSVPLG03,cs,20260213-102657,1.0.2,20251105-084826,760,Experiment,Both,1,Automatic,main,17,20260213-102857,global,global,750,S,H,A,A,S-A.png,H-A.png,sS,hH,mask-1.png,mask-3.png,s,1,0.6714545004069805,h,1,0.11804969981312752,0.04863250069320202,0.047598499804735184,0.10125330090522766,0.10158159956336021,0.751642600633204
RSVPLG03,cs,20260213-102657,1.0.2,20251105-084826,760,Experiment,Both,1,Automatic,main,18,20260213-102902,local,global,750,H,S,A,A,A-H.png,S-A.png,hH,sS,mask-4.png,mask-4.png,h,1,1.1009391993284225,s,1,0.19007090013474226,0.046585400588810444,0.048595599830150604,0.09863120038062334,0.10164889972656965,0.7488653007894754
RSVPLG03,cs,20260213-102657,1.0.2,20251105-084826,760,Experiment,Both,1,Automatic,main,19,20260213-102907,local,local,750,H,S,A,A,A-H.png,A-S.png,hH,sS,mask-1.png,mask-4.png,h,1,1.589250199496746,s,1,0.1415031999349594,0.04860150068998337,0.047446100041270256,0.10161790065467358,0.09865199960768223,0.7529067005962133
RSVPLG03,cs,20260213-102657,1.0.2,20251105-084826,760,Experiment,Both,1,Automatic,main,20,20260213-102913,global,local,750,H,H,A,E,H-A.png,E-H.png,hH,hH,mask-1.png,mask-1.png,h,1,0.7544452995061874,s,0,0.10532219987362623,0.04816700052469969,0.04855499975383282,0.09992070030421019,0.09982980042695999,0.7509393002837896
RSVPLG03,cs,20260213-102657,1.0.2,20251105-084826,760,Experiment,Both,1,Automatic,main,21,20260213-102918,global,global,300,H,S,A,E,H-A.png,S-E.png,hH,sS,mask-1.png,mask-3.png,h,1,0.6478142002597451,s,1,0.07061140052974224,0.046898599714040756,0.04752360004931688,0.09977370034903288,0.10055689979344606,0.2999745002016425
RSVPLG03,cs,20260213-102657,1.0.2,20251105-084826,760,Experiment,Both,1,Automatic,main,22,20260213-102922,global,local,750,H,H,A,A,H-A.png,A-H.png,hH,hH,mask-1.png,mask-2.png,h,1,0.5060518002137542,h,1,0.16980190016329288,0.047546399757266045,0.04683959949761629,0.09966120030730963,0.09928550012409687,0.7519805002957582
RSVPLG03,cs,20260213-102657,1.0.2,20251105-084826,760,Experiment,Both,1,Automatic,main,23,20260213-102927,local,global,750,S,S,E,A,E-S.png,S-A.png,sS,sS,mask-2.png,mask-4.png,s,1,1.093525099568069,s,1,0.14393870066851377,0.04763569962233305,0.04703409969806671,0.09975449927151203,0.09985239990055561,0.7503766994923353
RSVPLG03,cs,20260213-102657,1.0.2,20251105-084826,760,Experiment,Both,1,Automatic,main,24,20260213-102932,global,global,750,H,S,E,E,H-E.png,S-E.png,hH,sS,mask-1.png,mask-1.png,h,1,0.6628200998529792,s,1,0.0891739996150136,0.047538500279188156,0.04747479967772961,0.09927180036902428,0.10153060033917427,0.7497332002967596
RSVPLG03,cs,20260213-102657,1.0.2,20251105-084826,760,Experiment,Both,1,Automatic,main,25,20260213-102937,global,global,750,H,S,E,E,H-E.png,S-E.png,hH,sS,mask-3.png,mask-4.png,h,1,0.5276551991701126,s,1,0.05744000058621168,0.04581589996814728,0.04699159972369671,0.09961749985814095,0.10030610021203756,0.7499353000894189
RSVPLG03,cs,20260213-102657,1.0.2,20251105-084826,760,Experiment,Both,1,Automatic,main,26,20260213-103004,global,global,300,H,H,A,E,H-A.png,H-E.png,hH,hH,mask-1.png,mask-2.png,h,1,0.7168111996725202,h,1,0.2357582999393344,0.04768810048699379,0.04743930045515299,0.10008350014686584,0.09900110028684139,0.29966909997165203
RSVPLG03,cs,20260213-102657,1.0.2,20251105-084826,760,Experiment,Both,1,Automatic,main,27,20260213-103009,global,local,300,H,H,A,A,H-A.png,A-H.png,hH,hH,mask-4.png,mask-4.png,h,1,0.5004464006051421,s,0,0.1075627002865076,0.0466881999745965,0.04626009985804558,0.09987809974700212,0.09962820075452328,0.30078529939055443
RSVPLG03,cs,20260213-102657,1.0.2,20251105-084826,760,Experiment,Both,1,Automatic,main,28,20260213-103013,global,local,300,S,H,A,E,S-A.png,E-H.png,sS,hH,mask-3.png,mask-1.png,s,1,2.8291035993024707,h,1,1.7140956996008754,0.0465731006115675,0.04861700069159269,0.09961510077118874,0.10095690004527569,0.2993751000612974
RSVPLG03,cs,20260213-102657,1.0.2,20251105-084826,760,Experiment,Both,1,Automatic,main,29,20260213-103022,global,global,750,H,H,A,A,H-A.png,H-A.png,hH,hH,mask-1.png,mask-3.png,h,1,0.479662399739027,h,1,0.10074750054627657,0.04778829962015152,0.047552600502967834,0.10006269998848438,0.10061740037053823,0.7514601992443204
RSVPLG03,cs,20260213-102657,1.0.2,20251105-084826,760,Experiment,Both,1,Automatic,main,30,20260213-103026,local,local,300,S,S,A,E,A-S.png,E-S.png,sS,sS,mask-4.png,mask-1.png,h,0,0.6773827001452446,s,1,0.043653800152242184,0.047503599897027016,0.047969200648367405,0.09998119994997978,0.10014010034501553,0.2995131993666291
RSVPLG03,cs,20260213-102657,1.0.2,20251105-084826,760,Experiment,Both,1,Automatic,main,31,20260213-103031,local,local,750,S,S,A,A,A-S.png,A-S.png,sS,sS,mask-1.png,mask-2.png,s,1,1.0463130995631218,s,1,0.1274907998740673,0.04753569979220629,0.04755230061709881,0.09899989981204271,0.10058290045708418,0.7496207999065518
RSVPLG03,cs,20260213-102657,1.0.2,20251105-084826,760,Experiment,Both,1,Automatic,main,32,20260213-103036,global,global,300,S,H,A,E,S-A.png,H-E.png,sS,hH,mask-1.png,mask-2.png,s,1,0.8201008997857571,h,1,0.03828230034559965,0.048146200366318226,0.04860540013760328,0.10121260024607182,0.1008129995316267,0.30109470058232546
RSVPLG03,cs,20260213-102657,1.0.2,20251105-084826,760,Experiment,Both,1,Automatic,main,33,20260213-103041,local,global,300,S,S,A,E,A-S.png,S-E.png,sS,sS,mask-3.png,mask-3.png,h,0,0.5876414002850652,s,1,0.040246699936687946,0.04773340001702309,0.048451400361955166,0.09791610017418861,0.10031170025467873,0.29924440011382103
RSVPLG03,cs,20260213-102657,1.0.2,20251105-084826,760,Experiment,Both,1,Automatic,main,34,20260213-103045,global,global,300,S,S,E,E,S-E.png,S-E.png,sS,sS,mask-3.png,mask-1.png,s,1,0.8641795003786683,h,0,0.016313700005412102,0.04882319923490286,0.04653869941830635,0.10108139924705029,0.0994608998298645,0.30118570011109114
RSVPLG03,cs,20260213-102657,1.0.2,20251105-084826,760,Experiment,Both,1,Automatic,main,35,20260213-103050,local,local,300,H,S,E,E,E-H.png,E-S.png,hH,sS,mask-4.png,mask-3.png,h,1,1.2322070999071002,s,1,0.07312100008130074,0.04682059958577156,0.047901200130581856,0.09944729972630739,0.10098520014435053,0.29905409924685955
RSVPLG03,cs,20260213-102657,1.0.2,20251105-084826,760,Experiment,Both,1,Automatic,main,36,20260213-103055,global,local,300,S,S,E,E,S-E.png,E-S.png,sS,sS,mask-4.png,mask-4.png,h,0,1.0753494994714856,s,1,0.07215039990842342,0.04703359957784414,0.04927360080182552,0.09990479983389378,0.10027890000492334,0.2997617991641164
RSVPLG03,cs,20260213-102657,1.0.2,20251105-084826,760,Experiment,Both,1,Automatic,main,37,20260213-103059,local,global,300,S,H,E,A,E-S.png,H-A.png,sS,hH,mask-3.png,mask-2.png,h,0,1.718712200410664,s,0,0.1389960004016757,0.04786159936338663,0.048605299554765224,0.10096929967403412,0.10064559988677502,0.3004491999745369
RSVPLG03,cs,20260213-102657,1.0.2,20251105-084826,760,Experiment,Both,1,Automatic,main,38,20260213-103105,local,local,300,H,H,E,E,E-H.png,E-H.png,hH,hH,mask-1.png,mask-4.png,h,1,1.5455670999363065,s,0,0.0971089992672205,0.04752250015735626,0.047401800751686096,0.09966049995273352,0.09974940028041601,0.29936449974775314
RSVPLG03,cs,20260213-102657,1.0.2,20251105-084826,760,Experiment,Both,1,Automatic,main,39,20260213-103110,global,local,300,H,S,E,A,H-E.png,A-S.png,hH,sS,mask-3.png,mask-2.png,h,1,0.6282810000702739,s,1,0.06310559995472431,0.04862419981509447,0.04863290023058653,0.09973520040512085,0.10073359962552786,0.3007303001359105
RSVPLG03,cs,20260213-102657,1.0.2,20251105-084826,760,Experiment,Both,1,Automatic,main,40,20260213-103115,local,local,750,S,H,A,A,A-S.png,A-H.png,sS,hH,mask-2.png,mask-4.png,h,0,0.6819268995895982,s,0,0.10860390029847622,0.046810599975287914,0.046831900253891945,0.09992210008203983,0.10018550045788288,0.7502931002527475
RSVPLG03,cs,20260213-102657,1.0.2,20251105-084826,760,Experiment,Both,1,Automatic,main,41,20260213-103120,local,global,750,S,S,E,A,E-S.png,S-A.png,sS,sS,mask-3.png,mask-2.png,h,0,1.299315799959004,s,1,0.15556109976023436,0.048597199842333794,0.04782159999012947,0.10049299988895655,0.09982830006629229,0.751469399780035
RSVPLG03,cs,20260213-102657,1.0.2,20251105-084826,760,Experiment,Both,1,Automatic,main,42,20260213-103125,local,local,750,S,H,A,E,A-S.png,E-H.png,sS,hH,mask-3.png,mask-2.png,s,1,1.194837300106883,s,0,0.14177170023322105,0.04572779964655638,0.04738620016723871,0.09851459972560406,0.0997299998998642,0.7500737998634577
RSVPLG03,cs,20260213-102657,1.0.2,20251105-084826,760,Experiment,Both,1,Automatic,main,43,20260213-103131,global,global,300,S,H,A,A,S-A.png,H-A.png,sS,hH,mask-4.png,mask-4.png,s,1,2.0327808000147343,s,0,0.10191420000046492,0.048985399305820465,0.048994299955666065,0.10057630017399788,0.10118769947439432,0.30002779979258776
RSVPLG03,cs,20260213-102657,1.0.2,20251105-084826,760,Experiment,Both,1,Automatic,main,44,20260213-103137,global,local,750,S,S,A,E,S-A.png,E-S.png,sS,sS,mask-3.png,mask-3.png,s,1,0.47343049943447113,s,1,0.0863723000511527,0.04739699978381395,0.046866899356245995,0.10038649942725897,0.0998465996235609,0.7502159001305699
RSVPLG03,cs,20260213-102657,1.0.2,20251105-084826,760,Experiment,Both,1,Automatic,main,45,20260213-103141,local,global,300,H,H,A,A,A-H.png,H-A.png,hH,hH,mask-1.png,mask-3.png,h,1,0.7999298004433513,h,1,0.2564097996801138,0.04760990012437105,0.04763249959796667,0.09944269992411137,0.09969079960137606,0.3000119999051094
RSVPLG03,cs,20260213-102657,1.0.2,20251105-084826,760,Experiment,Both,1,Automatic,main,46,20260213-103146,local,local,750,H,S,A,A,A-H.png,A-S.png,hH,sS,mask-4.png,mask-1.png,h,1,2.726802700199187,s,1,0.09946489986032248,0.04766649939119816,0.0476842001080513,0.09926479961723089,0.09990599937736988,0.7506136000156403
RSVPLG03,cs,20260213-102657,1.0.2,20251105-084826,760,Experiment,Both,1,Automatic,main,47,20260213-103153,local,local,750,S,H,E,E,E-S.png,E-H.png,sS,hH,mask-3.png,mask-3.png,s,1,2.2551798997446895,h,1,0.10806029941886663,0.047509100288152695,0.04778259992599487,0.09881940018385649,0.10098449978977442,0.7495395001024008
RSVPLG03,cs,20260213-102657,1.0.2,20251105-084826,760,Experiment,Both,1,Automatic,main,48,20260213-103200,global,local,750,H,H,E,A,H-E.png,A-H.png,hH,hH,mask-4.png,mask-3.png,h,1,0.7179199000820518,s,0,0.03713750001043081,0.04768409952521324,0.0477122999727726,0.09917879942804575,0.10023100022226572,0.7501066001132131
RSVPLG03,cs,20260213-102657,1.0.2,20251105-084826,760,Experiment,Both,1,Automatic,main,49,20260213-103205,global,global,300,S,H,A,A,S-A.png,H-A.png,sS,hH,mask-3.png,mask-2.png,s,1,1.4357273001223803,h,1,0.0837294002994895,0.047725300304591656,0.04665040038526058,0.09993320051580667,0.09978980012238026,0.2995600998401642
RSVPLG03,cs,20260213-102657,1.0.2,20251105-084826,760,Experiment,Both,1,Automatic,main,50,20260213-103210,local,global,300,S,S,E,A,E-S.png,S-A.png,sS,sS,mask-4.png,mask-2.png,s,1,0.921480999328196,h,0,0.08745440002530813,0.04714929964393377,0.048063100315630436,0.10135549958795309,0.10141289979219437,0.29975519981235266
RSVPLG03,cs,20260213-102657,1.0.2,20251105-084826,760,Experiment,Both,1,Automatic,main,51,20260213-103228,global,global,300,H,H,E,A,H-E.png,H-A.png,hH,hH,mask-4.png,mask-3.png,h,1,1.013853800483048,h,1,0.32140500005334616,0.046750799752771854,0.047758099623024464,0.09991220012307167,0.09923569951206446,0.2997655002400279
RSVPLG03,cs,20260213-102657,1.0.2,20251105-084826,760,Experiment,Both,1,Automatic,main,52,20260213-103233,local,local,300,H,H,E,E,E-H.png,E-H.png,hH,hH,mask-4.png,mask-3.png,h,1,1.2504094997420907,s,0,0.02896420005708933,0.047733900137245655,0.04661490023136139,0.10174670070409775,0.10024079959839582,0.3014954002574086
RSVPLG03,cs,20260213-102657,1.0.2,20251105-084826,760,Experiment,Both,1,Automatic,main,53,20260213-103238,global,global,300,H,S,E,A,H-E.png,S-A.png,hH,sS,mask-3.png,mask-3.png,h,1,0.4631654992699623,s,1,0.0545178996399045,0.048629699274897575,0.04669289942830801,0.1009159991517663,0.0998235996812582,0.3016192000359297
RSVPLG03,cs,20260213-102657,1.0.2,20251105-084826,760,Experiment,Both,1,Automatic,main,54,20260213-103243,global,global,300,H,H,A,E,H-A.png,H-E.png,hH,hH,mask-1.png,mask-3.png,h,1,0.7502386001870036,h,1,0.34712580032646656,0.047575599513947964,0.04812250006943941,0.09878259990364313,0.10140950046479702,0.29878489952534437
RSVPLG03,cs,20260213-102657,1.0.2,20251105-084826,760,Experiment,Both,1,Automatic,main,55,20260213-103247,global,global,750,H,H,A,E,H-A.png,H-E.png,hH,hH,mask-2.png,mask-1.png,h,1,0.37075559981167316,h,1,0.10872210003435612,0.04753070045262575,0.04960370063781738,0.10072990041226149,0.10168490000069141,0.7495258999988437
RSVPLG03,cs,20260213-102657,1.0.2,20251105-084826,760,Experiment,Both,1,Automatic,main,56,20260213-103252,local,global,300,S,S,A,E,A-S.png,S-E.png,sS,sS,mask-4.png,mask-2.png,h,0,1.7136827996000648,s,1,0.06508960016071796,0.046723599545657635,0.048504799604415894,0.09985020011663437,0.10040959995239973,0.2994464999064803
RSVPLG03,cs,20260213-102657,1.0.2,20251105-084826,760,Experiment,Both,1,Automatic,main,57,20260213-103257,local,local,750,S,H,E,A,E-S.png,A-H.png,sS,hH,mask-4.png,mask-2.png,s,1,0.5418274998664856,h,1,0.0367748998105526,0.04721769969910383,0.0475016999989748,0.09917869977653027,0.10084230080246925,0.7499563992023468
RSVPLG03,cs,20260213-102657,1.0.2,20251105-084826,760,Experiment,Both,1,Automatic,main,58,20260213-103302,local,global,300,S,H,E,A,E-S.png,H-A.png,sS,hH,mask-4.png,mask-1.png,s,1,0.6332856006920338,h,1,0.03912479989230633,0.046918099746108055,0.04870339948683977,0.099125100299716,0.1017594002187252,0.29889380000531673
RSVPLG03,cs,20260213-102657,1.0.2,20251105-084826,760,Experiment,Both,1,Automatic,main,59,20260213-103307,global,global,750,H,S,A,E,H-A.png,S-E.png,hH,sS,mask-2.png,mask-3.png,h,1,0.29705539997667074,s,1,0.06843670085072517,0.04689699970185757,0.04763009957969189,0.0982125997543335,0.09829720016568899,0.7505430998280644
RSVPLG03,cs,20260213-102657,1.0.2,20251105-084826,760,Experiment,Both,1,Automatic,main,60,20260213-103311,global,local,300,S,S,E,E,S-E.png,E-S.png,sS,sS,mask-2.png,mask-2.png,s,1,0.9398750998079777,s,1,0.08618270047008991,0.047125499695539474,0.04780790023505688,0.09920969977974892,0.09982500039041042,0.3002506997436285
RSVPLG03,cs,20260213-102657,1.0.2,20251105-084826,760,Experiment,Both,1,Automatic,main,61,20260213-103316,local,local,300,H,H,E,A,E-H.png,A-H.png,hH,hH,mask-2.png,mask-4.png,h,1,1.5807691998779774,h,1,0.1251266999170184,0.04655459988862276,0.04856709949672222,0.1002771994099021,0.10161289945244789,0.2989937998354435
RSVPLG03,cs,20260213-102657,1.0.2,20251105-084826,760,Experiment,Both,1,Automatic,main,62,20260213-103321,local,global,300,S,S,E,A,E-S.png,S-A.png,sS,sS,mask-2.png,mask-2.png,s,1,0.49901350028812885,s,1,0.10037210024893284,0.04862410016357899,0.046223499812185764,0.10169219970703125,0.09996199980378151,0.30138260032981634
RSVPLG03,cs,20260213-102657,1.0.2,20251105-084826,760,Experiment,Both,1,Automatic,main,63,20260213-103325,global,global,750,S,H,E,A,S-E.png,H-A.png,sS,hH,mask-2.png,mask-2.png,s,1,0.6469270000234246,h,1,0.07475839927792549,0.047597600147128105,0.04957509972155094,0.09959879983216524,0.10104099940508604,0.7500785002484918
RSVPLG03,cs,20260213-102657,1.0.2,20251105-084826,760,Experiment,Both,1,Automatic,main,64,20260213-103330,global,local,300,S,H,E,E,S-E.png,E-H.png,sS,hH,mask-2.png,mask-1.png,s,1,1.6649596998468041,h,1,0.08538709953427315,0.04800319951027632,0.04851490072906017,0.10075829923152924,0.10057370085269213,0.3007230991497636
RSVPLG03,cs,20260213-102657,1.0.2,20251105-084826,760,Experiment,Both,1,Automatic,main,65,20260213-103336,global,local,300,H,H,A,E,H-A.png,E-H.png,hH,hH,mask-1.png,mask-3.png,h,1,0.6917700003832579,s,0,0.04985429998487234,0.04767489992082119,0.04772480018436909,0.09994709957391024,0.10095340013504028,0.2996102999895811
RSVPLG03,cs,20260213-102657,1.0.2,20251105-084826,760,Experiment,Both,1,Automatic,main,66,20260213-103340,global,global,300,H,S,E,E,H-E.png,S-E.png,hH,sS,mask-2.png,mask-4.png,h,1,0.5516356006264687,s,1,0.07002730015665293,0.04739669989794493,0.045982399955391884,0.09961660020053387,0.09843889996409416,0.30026489961892366
RSVPLG03,cs,20260213-102657,1.0.2,20251105-084826,760,Experiment,Both,1,Automatic,main,67,20260213-103345,global,local,300,H,H,E,A,H-E.png,A-H.png,hH,hH,mask-4.png,mask-3.png,h,1,0.4653633004054427,s,0,0.043705400079488754,0.04946369957178831,0.04801839962601662,0.10144810006022453,0.09984709974378347,0.3014505999162793
RSVPLG03,cs,20260213-102657,1.0.2,20251105-084826,760,Experiment,Both,1,Automatic,main,68,20260213-103349,global,global,750,S,S,E,E,S-E.png,S-E.png,sS,sS,mask-2.png,mask-3.png,s,1,0.6139624007046223,s,1,0.12349569983780384,0.047524300403892994,0.048741900362074375,0.10054859984666109,0.1016514003276825,0.7503380998969078
RSVPLG03,cs,20260213-102657,1.0.2,20251105-084826,760,Experiment,Both,1,Automatic,main,69,20260213-103354,local,global,300,S,H,E,E,E-S.png,H-E.png,sS,hH,mask-4.png,mask-2.png,s,1,0.5611113999038935,h,1,0.059078000485897064,0.047733000479638577,0.04840470012277365,0.10109640005975962,0.10029499977827072,0.3002077005803585
RSVPLG03,cs,20260213-102657,1.0.2,20251105-084826,760,Experiment,Both,1,Automatic,main,70,20260213-103358,local,global,750,H,S,A,A,A-H.png,S-A.png,hH,sS,mask-3.png,mask-2.png,h,1,0.9108325997367501,s,1,0.03222940023988485,0.04879899974912405,0.04955369979143143,0.10103270038962364,0.10047619976103306,0.7504855999723077
RSVPLG03,cs,20260213-102657,1.0.2,20251105-084826,760,Experiment,Both,1,Automatic,main,71,20260213-103403,global,global,750,H,H,E,A,H-E.png,H-A.png,hH,hH,mask-3.png,mask-3.png,h,1,0.3663073005154729,h,1,0.12286530062556267,0.04589810036122799,0.046823900192976,0.09921860042959452,0.09844410046935081,0.7503372002393007
RSVPLG03,cs,20260213-102657,1.0.2,20251105-084826,760,Experiment,Both,1,Automatic,main,72,20260213-103408,global,local,300,H,S,A,E,H-A.png,E-S.png,hH,sS,mask-3.png,mask-1.png,h,1,0.4768374003469944,s,1,0.032336400821805,0.047517300583422184,0.04755899962037802,0.09958699997514486,0.09815619979053736,0.3004105007275939
RSVPLG03,cs,20260213-102657,1.0.2,20251105-084826,760,Experiment,Both,1,Automatic,main,73,20260213-103412,local,local,750,S,H,A,E,A-S.png,E-H.png,sS,hH,mask-3.png,mask-4.png,h,0,0.7664393996819854,s,0,0.024549500085413456,0.0477060005068779,0.04866250045597553,0.09956530015915632,0.10018470045179129,0.7504465002566576
RSVPLG03,cs,20260213-102657,1.0.2,20251105-084826,760,Experiment,Both,1,Automatic,main,74,20260213-103417,global,local,750,H,S,A,E,H-A.png,E-S.png,hH,sS,mask-2.png,mask-3.png,h,1,0.5823312997817993,s,1,0.09082609973847866,0.048520599491894245,0.04679939989000559,0.10106889996677637,0.09864240046590567,0.7520394995808601
RSVPLG03,cs,20260213-102657,1.0.2,20251105-084826,760,Experiment,Both,1,Automatic,main,75,20260213-103422,global,local,750,H,H,A,A,H-A.png,A-H.png,hH,hH,mask-4.png,mask-3.png,h,1,0.3246490992605686,h,1,0.11828070040792227,0.04669089987874031,0.04767169989645481,0.09988019987940788,0.10184390004724264,0.7496204003691673
RSVPLG03,cs,20260213-102657,1.0.2,20251105-084826,760,Experiment,Both,1,Automatic,main,76,20260213-103440,global,global,300,H,S,A,E,H-A.png,S-E.png,hH,sS,mask-4.png,mask-2.png,h,1,0.4742049006745219,s,1,0.03409670013934374,0.047525799833238125,0.04857380036264658,0.10052100010216236,0.09990230016410351,0.299422400072217
RSVPLG03,cs,20260213-102657,1.0.2,20251105-084826,760,Experiment,Both,1,Automatic,main,77,20260213-103444,local,global,750,H,S,E,E,E-H.png,S-E.png,hH,sS,mask-1.png,mask-2.png,h,1,0.6059510000050068,s,1,0.06516159977763891,0.04769019968807697,0.04769130051136017,0.09956019930541515,0.09973920043557882,0.7516551995649934
RSVPLG03,cs,20260213-102657,1.0.2,20251105-084826,760,Experiment,Both,1,Automatic,main,78,20260213-103449,local,local,300,H,S,E,E,E-H.png,E-S.png,hH,sS,mask-1.png,mask-4.png,h,1,1.151567299850285,s,1,0.07018449995666742,0.04752670042216778,0.04745539929717779,0.09988960064947605,0.09915879927575588,0.29967980086803436
RSVPLG03,cs,20260213-102657,1.0.2,20251105-084826,760,Experiment,Both,1,Automatic,main,79,20260213-103454,local,global,750,S,S,A,E,A-S.png,S-E.png,sS,sS,mask-1.png,mask-4.png,h,0,0.44371460005640984,s,1,0.07664179988205433,0.04762620013207197,0.04648020025342703,0.09963390044867992,0.09903430007398129,0.7514894995838404
RSVPLG03,cs,20260213-102657,1.0.2,20251105-084826,760,Experiment,Both,1,Automatic,main,80,20260213-103458,global,local,750,S,H,E,A,S-E.png,A-H.png,sS,hH,mask-1.png,mask-4.png,s,1,0.6194361001253128,h,1,0.04330480005592108,0.046670000068843365,0.04672360047698021,0.09987519960850477,0.09993540029972792,0.7507411995902658
RSVPLG03,cs,20260213-102657,1.0.2,20251105-084826,760,Experiment,Both,1,Automatic,main,81,20260213-103503,local,global,300,S,H,A,E,A-S.png,H-E.png,sS,hH,mask-2.png,mask-1.png,s,1,0.617268099449575,h,1,0.04444689955562353,0.04880869947373867,0.046910000033676624,0.10099590010941029,0.09905080031603575,0.3015195997431874
RSVPLG03,cs,20260213-102657,1.0.2,20251105-084826,760,Experiment,Both,1,Automatic,main,82,20260213-103508,global,global,750,S,S,E,E,S-E.png,S-E.png,sS,sS,mask-4.png,mask-2.png,h,0,0.34322100039571524,s,1,0.10251619946211576,0.04553680028766394,0.04751580022275448,0.09950509946793318,0.0996227003633976,0.7512916997075081
RSVPLG03,cs,20260213-102657,1.0.2,20251105-084826,760,Experiment,Both,1,Automatic,main,83,20260213-103512,global,local,750,H,H,A,A,H-A.png,A-H.png,hH,hH,mask-1.png,mask-4.png,h,1,0.9979891004040837,s,0,0.02167239971458912,0.04757949989289045,0.047608000226318836,0.09889520052820444,0.10061629954725504,0.7501616002991796
RSVPLG03,cs,20260213-102657,1.0.2,20251105-084826,760,Experiment,Both,1,Automatic,main,84,20260213-103517,local,global,750,H,S,E,E,E-H.png,S-E.png,hH,sS,mask-2.png,mask-1.png,h,1,0.31764329969882965,s,1,0.04454370029270649,0.04853190016001463,0.047621400095522404,0.09961749985814095,0.09958859998732805,0.7507213000208139
RSVPLG03,cs,20260213-102657,1.0.2,20251105-084826,760,Experiment,Both,1,Automatic,main,85,20260213-103522,local,local,300,S,H,E,A,E-S.png,A-H.png,sS,hH,mask-4.png,mask-1.png,s,1,0.685509099625051,h,1,0.04282379988580942,0.04761000070720911,0.04793330002576113,0.0990334004163742,0.09985930006951094,0.3000837005674839
RSVPLG03,cs,20260213-102657,1.0.2,20251105-084826,760,Experiment,Both,1,Automatic,main,86,20260213-103526,local,local,750,S,H,E,A,E-S.png,A-H.png,sS,hH,mask-2.png,mask-2.png,s,1,0.8461639992892742,h,1,0.02397019974887371,0.047690799459815025,0.048691900447010994,0.09993909951299429,0.10179700050503016,0.7501125996932387
RSVPLG03,cs,20260213-102657,1.0.2,20251105-084826,760,Experiment,Both,1,Automatic,main,87,20260213-103531,local,global,750,H,H,A,E,A-H.png,H-E.png,hH,hH,mask-3.png,mask-2.png,h,1,0.4745310004800558,h,1,0.10933250002563,0.04620260000228882,0.046984799206256866,0.0995217002928257,0.10013929940760136,0.7495036004111171
RSVPLG03,cs,20260213-102657,1.0.2,20251105-084826,760,Experiment,Both,1,Automatic,main,88,20260213-103536,local,global,300,S,H,A,E,A-S.png,H-E.png,sS,hH,mask-1.png,mask-3.png,h,0,2.246879399754107,s,0,0.47438659984618425,0.047980399802327156,0.04571299999952316,0.10026509966701269,0.09893279988318682,0.3019140996038914
RSVPLG03,cs,20260213-102657,1.0.2,20251105-084826,760,Experiment,Both,1,Automatic,main,89,20260213-103542,local,local,300,S,S,A,A,A-S.png,A-S.png,sS,sS,mask-4.png,mask-1.png,h,0,0.5644383002072573,s,1,0.0457475995644927,0.0470165004953742,0.047334699891507626,0.09931789990514517,0.10120789986103773,0.29901100043207407
RSVPLG03,cs,20260213-102657,1.0.2,20251105-084826,760,Experiment,Both,1,Automatic,main,90,20260213-103547,local,global,300,S,H,A,E,A-S.png,H-E.png,sS,hH,mask-4.png,mask-2.png,h,0,0.9954614005982876,s,0,0.21835660003125668,0.04776520002633333,0.04768630024045706,0.10002319980412722,0.09996169991791248,0.299779299646616
RSVPLG03,cs,20260213-102657,1.0.2,20251105-084826,760,Experiment,Both,1,Automatic,main,91,20260213-103552,local,local,750,H,H,E,E,E-H.png,E-H.png,hH,hH,mask-1.png,mask-4.png,h,1,0.559320000000298,h,1,0.120630600489676,0.04762960039079189,0.0485304007306695,0.10067810025066137,0.09985290002077818,0.7511579999700189
RSVPLG03,cs,20260213-102657,1.0.2,20251105-084826,760,Experiment,Both,1,Automatic,main,92,20260213-103556,local,global,750,H,S,A,E,A-H.png,S-E.png,hH,sS,mask-2.png,mask-3.png,h,1,0.3418025001883507,s,1,0.09877010062336922,0.047755200415849686,0.04757130052894354,0.10085790045559406,0.0994936004281044,0.7512881001457572
RSVPLG03,cs,20260213-102657,1.0.2,20251105-084826,760,Experiment,Both,1,Automatic,main,93,20260213-103601,global,local,750,S,H,E,A,S-E.png,A-H.png,sS,hH,mask-2.png,mask-3.png,s,1,0.7793201003223658,h,1,0.34464219957590103,0.04759050067514181,0.047714199870824814,0.10053470078855753,0.09993830043822527,0.7504390003159642
RSVPLG03,cs,20260213-102657,1.0.2,20251105-084826,760,Experiment,Both,1,Automatic,main,94,20260213-103606,global,local,300,S,S,E,E,S-E.png,E-S.png,sS,sS,mask-3.png,mask-1.png,s,1,0.7665667999535799,s,1,0.10611829999834299,0.049230000004172325,0.047660100273787975,0.10189179982990026,0.10019120015203953,0.30090179946273565
RSVPLG03,cs,20260213-102657,1.0.2,20251105-084826,760,Experiment,Both,1,Automatic,main,95,20260213-103611,local,global,750,S,H,A,A,A-S.png,H-A.png,sS,hH,mask-3.png,mask-2.png,h,0,0.46442250069230795,h,1,0.12234220001846552,0.047751800157129765,0.046839600428938866,0.09954729955643415,0.09939519967883825,0.7509281998500228
RSVPLG03,cs,20260213-102657,1.0.2,20251105-084826,760,Experiment,Both,1,Automatic,main,96,20260213-103616,local,local,750,H,H,A,A,A-H.png,A-H.png,hH,hH,mask-4.png,mask-1.png,h,1,0.3802049998193979,h,1,0.09611810091882944,0.04769099969416857,0.04844720009714365,0.10007719974964857,0.10042720008641481,0.7503124997019768
RSVPLG03,cs,20260213-102657,1.0.2,20251105-084826,760,Experiment,Both,1,Automatic,main,97,20260213-103620,local,global,750,S,H,A,E,A-S.png,H-E.png,sS,hH,mask-2.png,mask-2.png,h,0,0.351481799967587,s,0,0.05632520001381636,0.04580779932439327,0.046753800474107265,0.10089439991861582,0.10001969989389181,0.7505973996594548
RSVPLG03,cs,20260213-102657,1.0.2,20251105-084826,760,Experiment,Both,1,Automatic,main,98,20260213-103625,local,local,300,H,S,E,E,E-H.png,E-S.png,hH,sS,mask-1.png,mask-1.png,h,1,0.9944659005850554,s,1,0.07490130048245192,0.04706240072846413,0.04721219930797815,0.09943890012800694,0.09929609950631857,0.30183600075542927
RSVPLG03,cs,20260213-102657,1.0.2,20251105-084826,760,Experiment,Both,1,Automatic,main,99,20260213-103630,global,global,750,S,S,E,A,S-E.png,S-A.png,sS,sS,mask-3.png,mask-4.png,s,1,2.4367004996165633,h,0,0.07416469976305962,0.0474669998511672,0.04719259962439537,0.10032849945127964,0.10025389958173037,0.7518557999283075
RSVPLG03,cs,20260213-102657,1.0.2,20251105-084826,760,Experiment,Both,1,Automatic,main,100,20260213-103636,global,local,750,S,H,A,E,S-A.png,E-H.png,sS,hH,mask-2.png,mask-3.png,s,1,0.6241630995646119,h,1,0.09151689987629652,0.047042399644851685,0.04840200021862984,0.10038279928267002,0.09982619993388653,0.7502648998051882
RSVPLG03,cs,20260213-103716,1.0.2,20251105-084826,760,Experiment,Both,1,Automatic,warmup,1,20260213-103750,global,global,300,H,H,A,E,H-A.png,H-E.png,hH,hH,mask-1.png,mask-4.png,h,1,0.3387043001130223,s,0,0.0545178996399045,0.0408630995079875,0.04778609983623028,0.09281700011342764,0.09998299926519394,0.2928555002436042
RSVPLG03,cs,20260213-103716,1.0.2,20251105-084826,760,Experiment,Both,1,Automatic,warmup,2,20260213-103754,local,global,300,H,S,E,E,E-H.png,S-E.png,hH,sS,mask-3.png,mask-2.png,h,1,0.5966956000775099,s,1,0.03993260022252798,0.04716140031814575,0.04708960000425577,0.09919899981468916,0.09931929968297482,0.29849040042608976
RSVPLG03,cs,20260213-103716,1.0.2,20251105-084826,760,Experiment,Both,1,Automatic,warmup,3,20260213-103758,local,global,750,H,H,A,E,A-H.png,H-E.png,hH,hH,mask-1.png,mask-1.png,h,1,0.3248024005442858,h,1,0.08537680003792048,0.047521499916911125,0.04751139972358942,0.098539799451828,0.09950540028512478,0.7485662996768951
RSVPLG03,cs,20260213-103716,1.0.2,20251105-084826,760,Experiment,Both,1,Automatic,warmup,4,20260213-103803,global,local,300,H,S,E,E,H-E.png,E-S.png,hH,sS,mask-2.png,mask-4.png,h,1,0.5294343996793032,s,1,0.055806499905884266,0.04658539965748787,0.04675690084695816,0.10059509985148907,0.09953100048005581,0.29884579963982105
RSVPLG03,cs,20260213-103716,1.0.2,20251105-084826,760,Experiment,Both,1,Automatic,main,5,20260213-103807,global,global,300,S,S,E,E,S-E.png,S-E.png,sS,sS,mask-2.png,mask-4.png,s,1,0.6724691996350884,s,1,0.08617439959198236,0.0475508002564311,0.04729610029608011,0.10062079969793558,0.10008169990032911,0.30005319975316525
RSVPLG03,cs,20260213-103716,1.0.2,20251105-084826,760,Experiment,Both,1,Automatic,main,6,20260213-103812,global,global,300,H,S,E,E,H-E.png,S-E.png,hH,sS,mask-2.png,mask-2.png,h,1,0.445206300355494,s,1,0.027705799788236618,0.04771280009299517,0.047518400475382805,0.10037430003285408,0.10018820036202669,0.30033909995108843
RSVPLG03,cs,20260213-103716,1.0.2,20251105-084826,760,Experiment,Both,1,Automatic,main,7,20260213-103816,local,global,300,S,S,E,A,E-S.png,S-A.png,sS,sS,mask-1.png,mask-4.png,s,1,0.9746195003390312,s,1,0.09591979999095201,0.04566119983792305,0.04557469952851534,0.09919099975377321,0.0988419996574521,0.29988540057092905
RSVPLG03,cs,20260213-103716,1.0.2,20251105-084826,760,Experiment,Both,1,Automatic,main,8,20260213-103821,local,local,300,H,H,A,E,A-H.png,E-H.png,hH,hH,mask-1.png,mask-1.png,h,1,0.5520483991131186,s,0,0.01983010023832321,0.04651209991425276,0.04774110019207001,0.09935939963907003,0.10069980006664991,0.2990780994296074
RSVPLG03,cs,20260213-103716,1.0.2,20251105-084826,760,Experiment,Both,1,Automatic,main,9,20260213-103825,local,local,750,H,H,E,A,E-H.png,A-H.png,hH,hH,mask-4.png,mask-3.png,s,0,1.9299760004505515,h,1,0.07409399934113026,0.047683400101959705,0.0455334996804595,0.0997053999453783,0.09932939987629652,0.7500542001798749
RSVPLG03,cs,20260213-103716,1.0.2,20251105-084826,760,Experiment,Both,1,Automatic,main,10,20260213-103831,local,local,750,H,S,A,A,A-H.png,A-S.png,hH,sS,mask-1.png,mask-3.png,h,1,0.4102762006223202,h,0,0.08591710031032562,0.04749270062893629,0.04769170004874468,0.10132670029997826,0.09912259969860315,0.7500413004308939
RSVPLG03,cs,20260213-103716,1.0.2,20251105-084826,760,Experiment,Both,1,Automatic,main,11,20260213-103836,local,global,750,S,H,A,E,A-S.png,H-E.png,sS,hH,mask-4.png,mask-4.png,h,0,1.0371182998642325,s,0,0.035198500379920006,0.04909500014036894,0.04751940071582794,0.10083270072937012,0.09956160001456738,0.750242399983108
RSVPLG03,cs,20260213-103716,1.0.2,20251105-084826,760,Experiment,Both,1,Automatic,main,12,20260213-103841,global,global,300,S,H,E,A,S-E.png,H-A.png,sS,hH,mask-4.png,mask-2.png,s,1,0.7824737997725606,h,1,0.09007269982248545,0.047728899866342545,0.047820400446653366,0.09918509982526302,0.09999870043247938,0.29877839982509613
RSVPLG03,cs,20260213-103716,1.0.2,20251105-084826,760,Experiment,Both,1,Automatic,main,13,20260213-103846,local,global,300,H,H,A,E,A-H.png,H-E.png,hH,hH,mask-4.png,mask-2.png,h,1,0.45001929998397827,s,0,0.051232799887657166,0.04762379918247461,0.04770640004426241,0.0984898991882801,0.0999210998415947,0.2985880998894572
RSVPLG03,cs,20260213-103716,1.0.2,20251105-084826,760,Experiment,Both,1,Automatic,main,14,20260213-103850,global,local,750,S,S,A,E,S-A.png,E-S.png,sS,sS,mask-4.png,mask-1.png,s,1,0.5742233004420996,s,1,0.11127700004726648,0.0475169001147151,0.04751179926097393,0.10077929962426424,0.10051799938082695,0.7495435001328588
RSVPLG03,cs,20260213-103716,1.0.2,20251105-084826,760,Experiment,Both,1,Automatic,main,15,20260213-103855,global,global,750,H,H,E,E,H-E.png,H-E.png,hH,hH,mask-3.png,mask-3.png,h,1,1.110733900219202,h,1,0.17135389987379313,0.04751909989863634,0.047685000114142895,0.10050280019640923,0.09862849954515696,0.7496127998456359
RSVPLG03,cs,20260213-103716,1.0.2,20251105-084826,760,Experiment,Both,1,Automatic,main,16,20260213-103900,local,local,300,H,H,A,E,A-H.png,E-H.png,hH,hH,mask-2.png,mask-1.png,h,1,1.0086084995418787,h,1,0.4717178996652365,0.045737700536847115,0.04769949987530708,0.10004989989101887,0.09989169985055923,0.29804790019989014
RSVPLG03,cs,20260213-103716,1.0.2,20251105-084826,760,Experiment,Both,1,Automatic,main,17,20260213-103905,global,local,300,H,H,A,E,H-A.png,E-H.png,hH,hH,mask-4.png,mask-1.png,h,1,0.394989300519228,s,0,0.06659010052680969,0.04865800030529499,0.04858679976314306,0.10015730001032352,0.10056709963828325,0.29984830040484667
RSVPLG03,cs,20260213-103716,1.0.2,20251105-084826,760,Experiment,Both,1,Automatic,main,18,20260213-103909,local,global,300,S,H,A,E,A-S.png,H-E.png,sS,hH,mask-1.png,mask-3.png,s,1,1.0328622004017234,h,1,0.12474679946899414,0.046743099577724934,0.04761239979416132,0.09980770014226437,0.10027569998055696,0.29947139974683523
RSVPLG03,cs,20260213-103716,1.0.2,20251105-084826,760,Experiment,Both,1,Automatic,main,19,20260213-103914,global,global,750,H,H,E,A,H-E.png,H-A.png,hH,hH,mask-1.png,mask-2.png,h,1,1.1399240996688604,h,1,0.18397779949009418,0.047664099372923374,0.047144100069999695,0.10072330012917519,0.10124809946864843,0.749086800031364
RSVPLG03,cs,20260213-103716,1.0.2,20251105-084826,760,Experiment,Both,1,Automatic,main,20,20260213-103920,global,local,750,S,H,A,A,S-A.png,A-H.png,sS,hH,mask-3.png,mask-2.png,s,1,0.4845227999612689,h,1,0.03880850039422512,0.04754360020160675,0.04652239941060543,0.10057699959725142,0.0985615998506546,0.7511967001482844
RSVPLG03,cs,20260213-103716,1.0.2,20251105-084826,760,Experiment,Both,1,Automatic,main,21,20260213-103924,global,local,750,H,S,A,E,H-A.png,E-S.png,hH,sS,mask-3.png,mask-4.png,h,1,0.5363045996055007,s,1,0.0403354000300169,0.04696169961243868,0.04766800068318844,0.09890700038522482,0.09985250048339367,0.7487316997721791
RSVPLG03,cs,20260213-103716,1.0.2,20251105-084826,760,Experiment,Both,1,Automatic,main,22,20260213-103929,global,local,300,H,S,E,E,H-E.png,E-S.png,hH,sS,mask-4.png,mask-4.png,h,1,0.6245937999337912,s,1,0.024875899776816368,0.047532799653708935,0.04823440033942461,0.09872959926724434,0.0986852003261447,0.29915619920939207
RSVPLG03,cs,20260213-103716,1.0.2,20251105-084826,760,Experiment,Both,1,Automatic,main,23,20260213-103934,global,global,750,S,H,E,E,S-E.png,H-E.png,sS,hH,mask-2.png,mask-1.png,h,0,1.0115088997408748,s,0,0.056374999694526196,0.04775060061365366,0.04764899984002113,0.09967020060867071,0.09961440041661263,0.7501726001501083
RSVPLG03,cs,20260213-103716,1.0.2,20251105-084826,760,Experiment,Both,1,Automatic,main,24,20260213-103939,global,global,750,H,H,A,A,H-A.png,H-A.png,hH,hH,mask-3.png,mask-2.png,h,1,0.5410287994891405,h,1,0.10523939970880747,0.04751330055296421,0.04775459971278906,0.09879139997065067,0.09999659936875105,0.7481764005497098
RSVPLG03,cs,20260213-103716,1.0.2,20251105-084826,760,Experiment,Both,1,Automatic,main,25,20260213-103944,global,local,750,H,H,A,A,H-A.png,A-H.png,hH,hH,mask-3.png,mask-4.png,h,1,0.32131529971957207,h,1,0.08668509963899851,0.046742700040340424,0.04867730010300875,0.09878630004823208,0.09913659933954477,0.7479713000357151
RSVPLG03,cs,20260213-103716,1.0.2,20251105-084826,760,Experiment,Both,1,Automatic,main,26,20260213-103958,local,local,300,H,H,A,A,A-H.png,A-H.png,hH,hH,mask-1.png,mask-4.png,h,1,0.4220270998775959,h,1,0.08338710013777018,0.04859309922903776,0.04857600014656782,0.10065719950944185,0.10063809994608164,0.29980699997395277
RSVPLG03,cs,20260213-103716,1.0.2,20251105-084826,760,Experiment,Both,1,Automatic,main,27,20260213-104002,local,local,300,S,S,A,A,A-S.png,A-S.png,sS,sS,mask-1.png,mask-3.png,h,0,0.38568300008773804,s,1,0.025433599948883057,0.04769330006092787,0.045680999755859375,0.10093900002539158,0.09987569972872734,0.3007164001464844
RSVPLG03,cs,20260213-103716,1.0.2,20251105-084826,760,Experiment,Both,1,Automatic,main,28,20260213-104006,global,local,750,S,S,E,A,S-E.png,A-S.png,sS,sS,mask-2.png,mask-4.png,s,1,1.136217599734664,s,1,0.10238240007311106,0.04759360011667013,0.04770579934120178,0.09913420025259256,0.09989639930427074,0.7484771003946662
RSVPLG03,cs,20260213-103716,1.0.2,20251105-084826,760,Experiment,Both,1,Automatic,main,29,20260213-104011,global,local,750,S,S,A,E,S-A.png,E-S.png,sS,sS,mask-2.png,mask-4.png,s,1,1.268167500384152,s,1,0.23017850052565336,0.047677699476480484,0.048787400126457214,0.09972239937633276,0.10093600023537874,0.7485700994729996
RSVPLG03,cs,20260213-103716,1.0.2,20251105-084826,760,Experiment,Both,1,Automatic,main,30,20260213-104017,global,global,750,H,H,A,A,H-A.png,H-A.png,hH,hH,mask-1.png,mask-1.png,h,1,0.3904022993519902,h,1,0.15013949945569038,0.04770859982818365,0.046697499230504036,0.10090439952909946,0.09993079956620932,0.751078000292182
RSVPLG03,cs,20260213-103716,1.0.2,20251105-084826,760,Experiment,Both,1,Automatic,main,31,20260213-104022,local,local,750,S,H,A,A,A-S.png,A-H.png,sS,hH,mask-2.png,mask-3.png,h,0,1.3585655996575952,h,1,0.16031780000776052,0.04869650024920702,0.046464099548757076,0.09988939948379993,0.09865459986031055,0.75120609998703
RSVPLG03,cs,20260213-103716,1.0.2,20251105-084826,760,Experiment,Both,1,Automatic,main,32,20260213-104027,local,global,750,S,H,A,E,A-S.png,H-E.png,sS,hH,mask-4.png,mask-3.png,s,1,0.8257750002667308,h,1,0.10151349939405918,0.04778570029884577,0.04770909994840622,0.09998949989676476,0.10086299944669008,0.749307700432837
RSVPLG03,cs,20260213-103716,1.0.2,20251105-084826,760,Experiment,Both,1,Automatic,main,33,20260213-104033,global,global,750,S,H,E,A,S-E.png,H-A.png,sS,hH,mask-3.png,mask-2.png,s,1,0.6482690004631877,h,1,0.09312080033123493,0.045617700554430485,0.04685570020228624,0.09832970052957535,0.09994249977171421,0.7495950004085898
RSVPLG03,cs,20260213-103716,1.0.2,20251105-084826,760,Experiment,Both,1,Automatic,main,34,20260213-104037,local,local,300,H,S,E,E,E-H.png,E-S.png,hH,sS,mask-4.png,mask-4.png,h,1,1.4713003002107143,s,1,0.3973612003028393,0.04805099964141846,0.04765050020068884,0.10035809967666864,0.10118179954588413,0.299978899769485
RSVPLG03,cs,20260213-103716,1.0.2,20251105-084826,760,Experiment,Both,1,Automatic,main,35,20260213-104043,global,local,750,H,H,A,E,H-A.png,E-H.png,hH,hH,mask-2.png,mask-1.png,h,1,0.337716200388968,h,1,0.08839030005037785,0.04648999962955713,0.04822919983416796,0.09949269983917475,0.09990570042282343,0.748238299973309
RSVPLG03,cs,20260213-103716,1.0.2,20251105-084826,760,Experiment,Both,1,Automatic,main,36,20260213-104048,local,global,750,S,S,A,A,A-S.png,S-A.png,sS,sS,mask-2.png,mask-1.png,s,1,1.136807099916041,h,0,0.1778124002739787,0.04859350062906742,0.04826360009610653,0.10175130050629377,0.1013795007020235,0.7496434999629855
RSVPLG03,cs,20260213-103716,1.0.2,20251105-084826,760,Experiment,Both,1,Automatic,main,37,20260213-104053,local,local,300,S,H,A,A,A-S.png,A-H.png,sS,hH,mask-3.png,mask-1.png,h,0,0.562253400683403,s,0,0.03002880048006773,0.045529299415647984,0.04848519992083311,0.09779959917068481,0.1004990004003048,0.2981747994199395
RSVPLG03,cs,20260213-103716,1.0.2,20251105-084826,760,Experiment,Both,1,Automatic,main,38,20260213-104057,local,global,750,H,S,A,A,A-H.png,S-A.png,hH,sS,mask-4.png,mask-2.png,h,1,0.49350650049746037,s,1,0.0967372003942728,0.04609940014779568,0.04571960028260946,0.09877779986709356,0.09926640056073666,0.7493998995050788
RSVPLG03,cs,20260213-103716,1.0.2,20251105-084826,760,Experiment,Both,1,Automatic,main,39,20260213-104102,local,local,750,H,H,A,A,A-H.png,A-H.png,hH,hH,mask-1.png,mask-4.png,h,1,1.524638599716127,h,1,0.17343620024621487,0.04780989978462458,0.04804069921374321,0.10100350063294172,0.10128889977931976,0.7497315006330609
RSVPLG03,cs,20260213-103716,1.0.2,20251105-084826,760,Experiment,Both,1,Automatic,main,40,20260213-104108,local,local,300,H,H,A,E,A-H.png,E-H.png,hH,hH,mask-4.png,mask-3.png,h,1,0.39337609987705946,s,0,0.03725819941610098,0.047603899613022804,0.047665199264883995,0.09967709984630346,0.09974259976297617,0.299575500190258
RSVPLG03,cs,20260213-103716,1.0.2,20251105-084826,760,Experiment,Both,1,Automatic,main,41,20260213-104112,local,global,750,S,S,A,A,A-S.png,S-A.png,sS,sS,mask-1.png,mask-1.png,h,0,0.5952097997069359,s,1,0.11306070070713758,0.0477189002558589,0.04857529979199171,0.09982130024582148,0.10081660002470016,0.7489090003073215
RSVPLG03,cs,20260213-103716,1.0.2,20251105-084826,760,Experiment,Both,1,Automatic,main,42,20260213-104117,global,local,750,S,S,E,E,S-E.png,E-S.png,sS,sS,mask-1.png,mask-4.png,h,0,1.463540599681437,s,1,0.28229810018092394,0.045576099306344986,0.049566700123250484,0.09957529976963997,0.10059120040386915,0.7475582994520664
RSVPLG03,cs,20260213-103716,1.0.2,20251105-084826,760,Experiment,Both,1,Automatic,main,43,20260213-104123,local,global,300,S,S,E,A,E-S.png,S-A.png,sS,sS,mask-1.png,mask-4.png,h,0,0.6481641996651888,s,1,0.08539750054478645,0.04761990066617727,0.04666430037468672,0.10154480021446943,0.09869309980422258,0.3014404000714421
RSVPLG03,cs,20260213-103716,1.0.2,20251105-084826,760,Experiment,Both,1,Automatic,main,44,20260213-104127,local,global,300,H,S,A,A,A-H.png,S-A.png,hH,sS,mask-2.png,mask-3.png,h,1,0.4086861992254853,s,1,0.09315130021423101,0.04762620013207197,0.047655499540269375,0.101587800309062,0.0997834000736475,0.30017790012061596
RSVPLG03,cs,20260213-103716,1.0.2,20251105-084826,760,Experiment,Both,1,Automatic,main,45,20260213-104131,local,local,300,S,S,E,E,E-S.png,E-S.png,sS,sS,mask-2.png,mask-3.png,s,1,0.3920259000733495,h,0,0.5503950994461775,0.04937910009175539,0.04684079997241497,0.10146559961140156,0.09927849937230349,0.3011854002252221
RSVPLG03,cs,20260213-103716,1.0.2,20251105-084826,760,Experiment,Both,1,Automatic,main,46,20260213-104136,local,global,750,H,H,A,E,A-H.png,H-E.png,hH,hH,mask-3.png,mask-3.png,h,1,0.9144713003188372,h,1,0.1657063001766801,0.04843629989773035,0.046974699944257736,0.10032379999756813,0.10029579978436232,0.7503591999411583
RSVPLG03,cs,20260213-103716,1.0.2,20251105-084826,760,Experiment,Both,1,Automatic,main,47,20260213-104141,global,global,300,S,H,A,A,S-A.png,H-A.png,sS,hH,mask-1.png,mask-3.png,s,1,0.7596127996221185,h,1,0.05994400009512901,0.0485663004219532,0.04739089962095022,0.10044640023261309,0.10031929984688759,0.30054290033876896
RSVPLG03,cs,20260213-103716,1.0.2,20251105-084826,760,Experiment,Both,1,Automatic,main,48,20260213-104146,local,local,300,S,S,E,A,E-S.png,A-S.png,sS,sS,mask-4.png,mask-2.png,s,1,0.35485950019210577,h,0,0.053219099529087543,0.047998299822211266,0.04742979910224676,0.09936919994652271,0.09785469993948936,0.3013261007145047
RSVPLG03,cs,20260213-103716,1.0.2,20251105-084826,760,Experiment,Both,1,Automatic,main,49,20260213-104150,global,local,300,H,S,E,A,H-E.png,A-S.png,hH,sS,mask-3.png,mask-4.png,h,1,0.4271424999460578,s,1,0.07588190026581287,0.04742030054330826,0.04635949991643429,0.10039700008928776,0.09894059970974922,0.30102280061692
RSVPLG03,cs,20260213-103716,1.0.2,20251105-084826,760,Experiment,Both,1,Automatic,main,50,20260213-104154,global,local,750,S,H,E,E,S-E.png,E-H.png,sS,hH,mask-3.png,mask-4.png,h,0,0.3997857002541423,s,0,0.10236270073801279,0.04549350030720234,0.04751319997012615,0.099549800157547,0.09949159994721413,0.7482430003583431
RSVPLG03,cs,20260213-103716,1.0.2,20251105-084826,760,Experiment,Both,1,Automatic,main,51,20260213-104206,global,global,300,H,H,A,E,H-A.png,H-E.png,hH,hH,mask-3.png,mask-4.png,h,1,0.7393592996522784,h,1,0.08773160073906183,0.04573560040444136,0.049184100702404976,0.09932490065693855,0.10059380065649748,0.2980979001149535
RSVPLG03,cs,20260213-103716,1.0.2,20251105-084826,760,Experiment,Both,1,Automatic,main,52,20260213-104211,global,local,750,H,H,E,A,H-E.png,A-H.png,hH,hH,mask-2.png,mask-4.png,h,1,0.2723868004977703,h,1,0.08160270005464554,0.046639700420200825,0.04697510041296482,0.09975060075521469,0.10022119991481304,0.7493259999901056
RSVPLG03,cs,20260213-103716,1.0.2,20251105-084826,760,Experiment,Both,1,Automatic,main,53,20260213-104215,local,global,750,S,S,A,E,A-S.png,S-E.png,sS,sS,mask-2.png,mask-2.png,h,0,0.3203141996636987,s,1,0.04131300002336502,0.04645359981805086,0.04853249993175268,0.09957719966769218,0.09980539977550507,0.747910900041461
RSVPLG03,cs,20260213-103716,1.0.2,20251105-084826,760,Experiment,Both,1,Automatic,main,54,20260213-104220,local,local,750,H,H,A,A,A-H.png,A-H.png,hH,hH,mask-2.png,mask-4.png,h,1,0.35694209951907396,h,1,0.11573929991573095,0.04812269937247038,0.046593399718403816,0.10107839945703745,0.09988060034811497,0.7511262996122241
RSVPLG03,cs,20260213-103716,1.0.2,20251105-084826,760,Experiment,Both,1,Automatic,main,55,20260213-104225,local,local,750,S,H,E,A,E-S.png,A-H.png,sS,hH,mask-4.png,mask-3.png,s,1,0.2519985996186733,h,1,0.20064929965883493,0.046919699758291245,0.0467030992731452,0.10104870051145554,0.10015109926462173,0.7505867006257176
RSVPLG03,cs,20260213-103716,1.0.2,20251105-084826,760,Experiment,Both,1,Automatic,main,56,20260213-104229,global,local,300,H,H,E,A,H-E.png,A-H.png,hH,hH,mask-1.png,mask-2.png,h,1,0.4683241005986929,h,1,0.1115546002984047,0.04752629995346069,0.04754509963095188,0.10052260011434555,0.10044270008802414,0.30011940002441406
RSVPLG03,cs,20260213-103716,1.0.2,20251105-084826,760,Experiment,Both,1,Automatic,main,57,20260213-104233,global,global,300,S,S,A,E,S-A.png,S-E.png,sS,sS,mask-3.png,mask-1.png,s,1,0.413939799182117,s,1,0.08701729960739613,0.04743119981139898,0.04854319989681244,0.10049870051443577,0.1015905998647213,0.2992714000865817
RSVPLG03,cs,20260213-103716,1.0.2,20251105-084826,760,Experiment,Both,1,Automatic,main,58,20260213-104238,local,global,750,S,H,E,E,E-S.png,H-E.png,sS,hH,mask-2.png,mask-2.png,s,1,0.47380399983376265,h,1,0.12274380028247833,0.04858919978141785,0.048895200714468956,0.0996172996237874,0.10080180037766695,0.7487609991803765
RSVPLG03,cs,20260213-103716,1.0.2,20251105-084826,760,Experiment,Both,1,Automatic,main,59,20260213-104242,local,global,750,H,H,E,E,E-H.png,H-E.png,hH,hH,mask-4.png,mask-1.png,s,0,0.8444232996553183,h,1,0.23683009948581457,0.04756509978324175,0.047544799745082855,0.09960910025984049,0.09911399986594915,0.7498543001711369
RSVPLG03,cs,20260213-103716,1.0.2,20251105-084826,760,Experiment,Both,1,Automatic,main,60,20260213-104248,global,local,300,S,H,E,A,S-E.png,A-H.png,sS,hH,mask-2.png,mask-3.png,s,1,0.7523957006633282,h,1,0.05048019997775555,0.04766200017184019,0.04799660015851259,0.09895730018615723,0.09915250074118376,0.30042609944939613
RSVPLG03,cs,20260213-103716,1.0.2,20251105-084826,760,Experiment,Both,1,Automatic,main,61,20260213-104252,global,global,300,S,S,E,A,S-E.png,S-A.png,sS,sS,mask-3.png,mask-3.png,s,1,1.5218085004016757,s,1,0.10913400072604418,0.04758930020034313,0.047523499466478825,0.10084110032767057,0.10057089943438768,0.3001172002404928
RSVPLG03,cs,20260213-103716,1.0.2,20251105-084826,760,Experiment,Both,1,Automatic,main,62,20260213-104257,local,local,750,S,H,E,A,E-S.png,A-H.png,sS,hH,mask-2.png,mask-1.png,s,1,0.4360913001000881,h,1,0.14124609995633364,0.0473702996969223,0.04754250030964613,0.10115209966897964,0.10062539950013161,0.749456400051713
RSVPLG03,cs,20260213-103716,1.0.2,20251105-084826,760,Experiment,Both,1,Automatic,main,63,20260213-104302,local,global,300,H,H,E,A,E-H.png,H-A.png,hH,hH,mask-1.png,mask-3.png,h,1,0.9770733993500471,h,1,0.09832399990409613,0.04873939976096153,0.04758839961141348,0.10085160005837679,0.10064629931002855,0.30039680004119873
RSVPLG03,cs,20260213-103716,1.0.2,20251105-084826,760,Experiment,Both,1,Automatic,main,64,20260213-104307,local,global,300,S,S,E,A,E-S.png,S-A.png,sS,sS,mask-4.png,mask-3.png,s,1,0.5866331001743674,h,0,0.15863889921456575,0.04654900077730417,0.04741289932280779,0.10056859999895096,0.098459099419415,0.3006799006834626
RSVPLG03,cs,20260213-103716,1.0.2,20251105-084826,760,Experiment,Both,1,Automatic,main,65,20260213-104311,global,local,300,H,S,A,E,H-A.png,E-S.png,hH,sS,mask-2.png,mask-1.png,h,1,0.4224545005708933,s,1,0.05277390033006668,0.047577000223100185,0.04751660022884607,0.10070720035582781,0.09914570022374392,0.30038820020854473
RSVPLG03,cs,20260213-103716,1.0.2,20251105-084826,760,Experiment,Both,1,Automatic,main,66,20260213-104316,local,global,300,S,H,A,E,A-S.png,H-E.png,sS,hH,mask-4.png,mask-4.png,h,0,0.4250187994912267,h,1,0.6674907002598047,0.04741919972002506,0.046697599813342094,0.09864789992570877,0.09914220031350851,0.29960319958627224
RSVPLG03,cs,20260213-103716,1.0.2,20251105-084826,760,Experiment,Both,1,Automatic,main,67,20260213-104320,global,local,300,S,S,A,E,S-A.png,E-S.png,sS,sS,mask-4.png,mask-4.png,s,1,0.6116524999961257,s,1,0.10226670000702143,0.04862619936466217,0.04752740077674389,0.10072859935462475,0.09967820066958666,0.3011161992326379
RSVPLG03,cs,20260213-103716,1.0.2,20251105-084826,760,Experiment,Both,1,Automatic,main,68,20260213-104325,local,local,750,H,S,E,A,E-H.png,A-S.png,hH,sS,mask-3.png,mask-3.png,h,1,0.6684594992548227,h,0,0.3210436003282666,0.04866660013794899,0.04846790060400963,0.10167330037802458,0.10073790047317743,0.7496154997497797
RSVPLG03,cs,20260213-103716,1.0.2,20251105-084826,760,Experiment,Both,1,Automatic,main,69,20260213-104330,global,local,300,H,S,E,E,H-E.png,E-S.png,hH,sS,mask-1.png,mask-4.png,h,1,0.7408342994749546,s,1,0.3260845998302102,0.047990599647164345,0.04794029984623194,0.09859189949929714,0.10025249980390072,0.2992464993149042
RSVPLG03,cs,20260213-103716,1.0.2,20251105-084826,760,Experiment,Both,1,Automatic,main,70,20260213-104335,global,local,750,S,S,A,E,S-A.png,E-S.png,sS,sS,mask-2.png,mask-2.png,s,1,0.8325128993019462,s,1,0.22085299994796515,0.0468020997941494,0.04678390081971884,0.09903549961745739,0.09987740032374859,0.7488832995295525
RSVPLG03,cs,20260213-103716,1.0.2,20251105-084826,760,Experiment,Both,1,Automatic,main,71,20260213-104340,global,global,300,H,S,E,E,H-E.png,S-E.png,hH,sS,mask-4.png,mask-1.png,h,1,0.8509382996708155,s,1,0.1440669996663928,0.04962499998509884,0.0491840997710824,0.10067950002849102,0.10123839974403381,0.29985109996050596
RSVPLG03,cs,20260213-103716,1.0.2,20251105-084826,760,Experiment,Both,1,Automatic,main,72,20260213-104345,global,global,300,H,H,A,E,H-A.png,H-E.png,hH,hH,mask-2.png,mask-4.png,h,1,1.1985606998205185,h,1,1.4282411998137832,0.04703740030527115,0.04739869944751263,0.10114959999918938,0.10036339983344078,0.30023450031876564
RSVPLG03,cs,20260213-103716,1.0.2,20251105-084826,760,Experiment,Both,1,Automatic,main,73,20260213-104351,global,global,750,S,S,E,A,S-E.png,S-A.png,sS,sS,mask-3.png,mask-4.png,s,1,0.7048581000417471,s,1,0.10812890063971281,0.04550489969551563,0.047515999525785446,0.0992046995088458,0.09954999946057796,0.7484221002086997
RSVPLG03,cs,20260213-103716,1.0.2,20251105-084826,760,Experiment,Both,1,Automatic,main,74,20260213-104356,global,global,750,H,H,A,E,H-A.png,H-E.png,hH,hH,mask-2.png,mask-4.png,h,1,0.5187470000237226,h,1,0.10777700040489435,0.04729799926280975,0.047510999254882336,0.09884329978376627,0.10053109936416149,0.7491081999614835
RSVPLG03,cs,20260213-103716,1.0.2,20251105-084826,760,Experiment,Both,1,Automatic,main,75,20260213-104401,local,global,300,S,S,A,A,A-S.png,S-A.png,sS,sS,mask-2.png,mask-2.png,s,1,0.7923955004662275,h,0,0.08662260044366121,0.04685229994356632,0.04712949972599745,0.09995939955115318,0.1002989998087287,0.29971119947731495
RSVPLG03,cs,20260213-103716,1.0.2,20251105-084826,760,Experiment,Both,1,Automatic,main,76,20260213-104412,local,local,750,H,H,E,A,E-H.png,A-H.png,hH,hH,mask-3.png,mask-3.png,h,1,0.7068790998309851,h,1,0.13660519942641258,0.04568350035697222,0.04755009990185499,0.09855150058865547,0.09986590035259724,0.7481139004230499
RSVPLG03,cs,20260213-103716,1.0.2,20251105-084826,760,Experiment,Both,1,Automatic,main,77,20260213-104417,global,global,750,H,S,A,E,H-A.png,S-E.png,hH,sS,mask-1.png,mask-1.png,h,1,0.400628300383687,s,1,0.09204640053212643,0.04859879985451698,0.0467392997816205,0.10060590039938688,0.1008313000202179,0.7500315001234412
RSVPLG03,cs,20260213-103716,1.0.2,20251105-084826,760,Experiment,Both,1,Automatic,main,78,20260213-104421,global,global,750,H,H,E,E,H-E.png,H-E.png,hH,hH,mask-1.png,mask-4.png,h,1,0.3030417002737522,h,1,0.10047939978539944,0.04861590079963207,0.04683869984000921,0.1016397001221776,0.09896610025316477,0.7510555004701018
RSVPLG03,cs,20260213-103716,1.0.2,20251105-084826,760,Experiment,Both,1,Automatic,main,79,20260213-104426,local,global,300,H,H,A,E,A-H.png,H-E.png,hH,hH,mask-4.png,mask-1.png,h,1,1.0532722994685173,h,1,0.2832260001450777,0.047877900302410126,0.04638350009918213,0.1002061003819108,0.10068710055202246,0.30078089982271194
RSVPLG03,cs,20260213-103716,1.0.2,20251105-084826,760,Experiment,Both,1,Automatic,main,80,20260213-104431,global,global,300,H,H,A,A,H-A.png,H-A.png,hH,hH,mask-1.png,mask-4.png,h,1,0.3650473998859525,h,1,0.3835835000500083,0.04771660082042217,0.046042200177907944,0.09992300067096949,0.09844550024718046,0.2998641999438405
RSVPLG03,cs,20260213-103716,1.0.2,20251105-084826,760,Experiment,Both,1,Automatic,main,81,20260213-104436,local,local,300,H,H,A,E,A-H.png,E-H.png,hH,hH,mask-1.png,mask-4.png,h,1,0.4117931993678212,s,0,0.07242299988865852,0.047489799559116364,0.04825610015541315,0.10136040020734072,0.10142880026251078,0.29985269997268915
RSVPLG03,cs,20260213-103716,1.0.2,20251105-084826,760,Experiment,Both,1,Automatic,main,82,20260213-104440,global,local,750,S,S,E,A,S-E.png,A-S.png,sS,sS,mask-1.png,mask-1.png,s,1,0.5177258998155594,h,0,0.1259995996952057,0.04559099953621626,0.0475551001727581,0.09886599984019995,0.09943949989974499,0.7483367994427681
RSVPLG03,cs,20260213-103716,1.0.2,20251105-084826,760,Experiment,Both,1,Automatic,main,83,20260213-104445,local,global,750,H,S,A,A,A-H.png,S-A.png,hH,sS,mask-1.png,mask-2.png,h,1,0.7257989998906851,s,1,0.08698430005460978,0.04656569939106703,0.04662710055708885,0.09895869996398687,0.1006249999627471,0.7492953995242715
RSVPLG03,cs,20260213-103716,1.0.2,20251105-084826,760,Experiment,Both,1,Automatic,main,84,20260213-104450,global,global,300,S,H,E,E,S-E.png,H-E.png,sS,hH,mask-1.png,mask-4.png,s,1,0.7560239005833864,h,1,0.12523229978978634,0.04545480012893677,0.04759919922798872,0.09852830041199923,0.09953629970550537,0.29828960075974464
RSVPLG03,cs,20260213-103716,1.0.2,20251105-084826,760,Experiment,Both,1,Automatic,main,85,20260213-104454,local,local,300,H,H,A,E,A-H.png,E-H.png,hH,hH,mask-4.png,mask-2.png,h,1,0.6253242995589972,s,0,0.34591920021921396,0.04770810063928366,0.048863799311220646,0.10060020070523024,0.10145589988678694,0.298551800660789
RSVPLG03,cs,20260213-103716,1.0.2,20251105-084826,760,Experiment,Both,1,Automatic,main,86,20260213-104459,global,local,300,H,H,A,E,H-A.png,E-H.png,hH,hH,mask-3.png,mask-2.png,h,1,0.8762472001835704,h,1,0.3914548996835947,0.04880290012806654,0.04762229975312948,0.10003119986504316,0.09857849963009357,0.3007193002849817
RSVPLG03,cs,20260213-103716,1.0.2,20251105-084826,760,Experiment,Both,1,Automatic,main,87,20260213-104504,global,local,300,H,S,E,E,H-E.png,E-S.png,hH,sS,mask-4.png,mask-3.png,h,1,0.44980650022625923,s,1,0.09366789925843477,0.045030499808490276,0.047214300371706486,0.09959809947758913,0.10050630010664463,0.2982013998553157
RSVPLG03,cs,20260213-103716,1.0.2,20251105-084826,760,Experiment,Both,1,Automatic,main,88,20260213-104508,local,local,750,H,S,A,E,A-H.png,E-S.png,hH,sS,mask-2.png,mask-1.png,h,1,0.7525963000953197,s,1,0.16865240037441254,0.048510199412703514,0.04750730004161596,0.1001905994489789,0.09939949959516525,0.750955699943006
RSVPLG03,cs,20260213-103716,1.0.2,20251105-084826,760,Experiment,Both,1,Automatic,main,89,20260213-104513,global,global,300,S,H,E,A,S-E.png,H-A.png,sS,hH,mask-4.png,mask-2.png,s,1,0.8628410995006561,h,1,0.17142250016331673,0.046618299558758736,0.047151499427855015,0.09868900012224913,0.1000119000673294,0.298454400151968
RSVPLG03,cs,20260213-103716,1.0.2,20251105-084826,760,Experiment,Both,1,Automatic,main,90,20260213-104518,local,global,300,S,H,E,E,E-S.png,H-E.png,sS,hH,mask-3.png,mask-3.png,s,1,0.7451932998374104,h,1,0.08397250063717365,0.047660800628364086,0.04760379996150732,0.1008270001038909,0.09863260015845299,0.301485700532794
RSVPLG03,cs,20260213-103716,1.0.2,20251105-084826,760,Experiment,Both,1,Automatic,main,91,20260213-104523,local,local,750,H,S,E,A,E-H.png,A-S.png,hH,sS,mask-4.png,mask-1.png,s,0,0.7720141997560859,h,0,0.10456559993326664,0.04696340020745993,0.04636630043387413,0.10009379964321852,0.09938280005007982,0.750004599802196
RSVPLG03,cs,20260213-103716,1.0.2,20251105-084826,760,Experiment,Both,1,Automatic,main,92,20260213-104528,local,local,300,H,H,E,E,E-H.png,E-H.png,hH,hH,mask-1.png,mask-2.png,h,1,0.8024046998471022,s,0,0.49975519999861717,0.04669210035353899,0.04682460054755211,0.09978170040994883,0.09988280013203621,0.2998997997492552
RSVPLG03,cs,20260213-103716,1.0.2,20251105-084826,760,Experiment,Both,1,Automatic,main,93,20260213-104533,global,global,750,S,S,A,E,S-A.png,S-E.png,sS,sS,mask-3.png,mask-1.png,s,1,0.7845858000218868,s,1,0.10462860018014908,0.047448200173676014,0.04753849934786558,0.10032759979367256,0.0985759999603033,0.7500450005754828
RSVPLG03,cs,20260213-103716,1.0.2,20251105-084826,760,Experiment,Both,1,Automatic,main,94,20260213-104538,local,local,750,H,H,A,A,A-H.png,A-H.png,hH,hH,mask-1.png,mask-2.png,h,1,0.4622673997655511,h,1,0.1073911003768444,0.04670759942382574,0.04759240057319403,0.09982379991561174,0.09991149976849556,0.7500284994021058
RSVPLG03,cs,20260213-103716,1.0.2,20251105-084826,760,Experiment,Both,1,Automatic,main,95,20260213-104542,global,local,300,H,H,E,A,H-E.png,A-H.png,hH,hH,mask-3.png,mask-2.png,h,1,0.771895500831306,h,1,0.11911459919065237,0.045115900225937366,0.0471858000382781,0.09822880011051893,0.09887620061635971,0.2985936999320984
RSVPLG03,cs,20260213-103716,1.0.2,20251105-084826,760,Experiment,Both,1,Automatic,main,96,20260213-104547,local,global,750,S,H,E,A,E-S.png,H-A.png,sS,hH,mask-1.png,mask-4.png,s,1,0.766461200080812,h,1,0.12062459997832775,0.046609499491751194,0.047026799991726875,0.0996195999905467,0.10105489939451218,0.7489769998937845
RSVPLG03,cs,20260213-103716,1.0.2,20251105-084826,760,Experiment,Both,1,Automatic,main,97,20260213-104552,local,global,750,H,H,E,E,E-H.png,H-E.png,hH,hH,mask-2.png,mask-1.png,h,1,0.4810749003663659,h,1,0.09689259994775057,0.04716240055859089,0.04589209984987974,0.10027540009468794,0.09999240003526211,0.7498232005164027
RSVPLG03,cs,20260213-103716,1.0.2,20251105-084826,760,Experiment,Both,1,Automatic,main,98,20260213-104557,global,local,300,H,H,E,A,H-E.png,A-H.png,hH,hH,mask-1.png,mask-3.png,h,1,0.6163250999525189,h,1,0.11290290020406246,0.046650299802422523,0.04648889973759651,0.10067289974540472,0.0995575999841094,0.3000931004062295
RSVPLG03,cs,20260213-103716,1.0.2,20251105-084826,760,Experiment,Both,1,Automatic,main,99,20260213-104601,local,global,300,H,S,A,E,A-H.png,S-E.png,hH,sS,mask-2.png,mask-2.png,h,1,0.37068859953433275,s,1,0.10564509965479374,0.047867399640381336,0.04659199994057417,0.10012630000710487,0.10063140001147985,0.30055040027946234
RSVPLG03,cs,20260213-103716,1.0.2,20251105-084826,760,Experiment,Both,1,Automatic,main,100,20260213-104605,global,global,750,S,H,E,E,S-E.png,H-E.png,sS,hH,mask-1.png,mask-4.png,s,1,0.7780806999653578,h,1,0.34626160003244877,0.049538400024175644,0.04579479992389679,0.10062339995056391,0.09890769980847836,0.7513023000210524
