exp,exp_initials,runtime,ver,modtime,sub,blocktype,targets,cuetype,mode,trialtype,trial,trialtime,t1_level,t2_level,t2_lag,t1,t2,distractor1,distractor2,stimfile1,stimfile2,t1_corr,t2_corr,maskfile1,maskfile2,t1_resp,t1_acc,t1_rt,t2_resp,t2_acc,t2_rt,t1_dur,t2_dur,t1mask_soa,t2mask_soa,t1t2_soa
RSVPLG03,km,20260219-161344,1.0.2,20260219-161301,772,Introduction,T1,1,Automatic,main,1,20260219-161417,local,local,750,S,H,E,A,E-S.png,A-H.png,sS,hH,mask-3.png,mask-3.png,s,1,0.3355922996997833,none,-5,0,0.09104579966515303,0.09936749935150146,0.1907875994220376,0.1998768001794815,0.7421332998201251
RSVPLG03,km,20260219-161344,1.0.2,20260219-161301,772,Introduction,T1,1,Automatic,main,2,20260219-161421,local,local,750,S,H,A,E,A-S.png,E-H.png,sS,hH,mask-4.png,mask-2.png,h,0,3.2276437003165483,none,-5,0,0.1008511995896697,0.09822440054267645,0.2015517996624112,0.1987688997760415,0.7530381996184587
RSVPLG03,km,20260219-161344,1.0.2,20260219-161301,772,Introduction,T1,1,Automatic,main,3,20260219-161429,local,local,750,S,H,E,E,E-S.png,E-H.png,sS,hH,mask-1.png,mask-3.png,s,1,0.8278455007821321,none,-5,0,0.09955010004341602,0.10028199944645166,0.2000343995168805,0.2004762999713421,0.7494494002312422
RSVPLG03,km,20260219-161344,1.0.2,20260219-161301,772,Introduction,T1,1,Automatic,main,4,20260219-161434,global,local,750,S,S,E,E,S-E.png,E-S.png,sS,sS,mask-1.png,mask-3.png,s,1,0.9425435001030564,none,-5,0,0.09939800016582012,0.0995139991864562,0.19966129958629608,0.1994069991633296,0.7501712003722787
RSVPLG03,km,20260219-161344,1.0.2,20260219-161301,772,Introduction,T1,1,Automatic,main,5,20260219-161439,global,local,750,S,S,E,A,S-E.png,A-S.png,sS,sS,mask-3.png,mask-2.png,s,1,0.6350812995806336,none,-5,0,0.09867439977824688,0.10025119967758656,0.1993831992149353,0.19952720031142235,0.750203799456358
RSVPLG03,km,20260219-161344,1.0.2,20260219-161301,772,Introduction,T1,1,Automatic,main,6,20260219-161444,global,local,750,H,H,E,A,H-E.png,A-H.png,hH,hH,mask-2.png,mask-3.png,h,1,2.011422399431467,none,-5,0,0.09923349972814322,0.10011199954897165,0.1991245998069644,0.2004068996757269,0.7503746002912521
RSVPLG03,km,20260219-161344,1.0.2,20260219-161301,772,Introduction,T1,1,Automatic,main,7,20260219-161451,global,global,750,S,H,E,E,S-E.png,H-E.png,sS,hH,mask-4.png,mask-4.png,s,1,1.1096235997974873,none,-5,0,0.0997436000034213,0.09893189929425716,0.19960639998316765,0.19870079960674047,0.7513963002711535
RSVPLG03,km,20260219-161344,1.0.2,20260219-161301,772,Introduction,T1,1,Automatic,main,8,20260219-161456,global,global,750,H,S,E,A,H-E.png,S-A.png,hH,sS,mask-4.png,mask-4.png,h,1,0.6091382997110486,none,-5,0,0.0994858993217349,0.10033230017870665,0.2007663995027542,0.20149140059947968,0.7493327995762229
RSVPLG03,km,20260219-161344,1.0.2,20260219-161301,772,Introduction,T1,1,Automatic,main,9,20260219-161501,local,global,750,H,S,E,A,E-H.png,S-A.png,hH,sS,mask-3.png,mask-2.png,none,-6,0,none,-5,0,0.10051400028169155,0.10073150042444468,0.2010393999516964,0.199095300398767,0.7514923000708222
RSVPLG03,km,20260219-161513,1.0.2,20260219-161301,772,Practice,T1,1,Automatic,main,1,20260219-161547,global,local,750,S,S,A,E,S-A.png,E-S.png,sS,sS,mask-3.png,mask-2.png,s,1,1.624376400373876,none,-5,0,0.03907549940049648,0.04879419971257448,0.08918089978396893,0.09907570015639067,0.740328399464488
RSVPLG03,km,20260219-161513,1.0.2,20260219-161301,772,Practice,T1,1,Automatic,main,2,20260219-161552,local,local,300,H,S,A,E,A-H.png,E-S.png,hH,sS,mask-3.png,mask-3.png,h,1,1.7424243995919824,none,-5,0,0.049959699623286724,0.04966850019991398,0.0986820999532938,0.10145630035549402,0.2998019000515342
RSVPLG03,km,20260219-161513,1.0.2,20260219-161301,772,Practice,T1,1,Automatic,main,3,20260219-161558,global,global,750,H,S,E,A,H-E.png,S-A.png,hH,sS,mask-3.png,mask-1.png,s,0,1.1291923001408577,none,-5,0,0.04812860023230314,0.04828390013426542,0.09942180011421442,0.09937760047614574,0.750484699383378
RSVPLG03,km,20260219-161513,1.0.2,20260219-161301,772,Practice,T1,1,Automatic,main,4,20260219-161603,global,local,750,S,S,A,E,S-A.png,E-S.png,sS,sS,mask-2.png,mask-4.png,s,1,1.6147853005677462,none,-5,0,0.049848999828100204,0.04995170049369335,0.10093669965863228,0.1009287005290389,0.7505935998633504
RSVPLG03,km,20260219-161513,1.0.2,20260219-161301,772,Practice,T1,1,Automatic,main,5,20260219-161609,global,global,300,H,S,A,E,H-A.png,S-E.png,hH,sS,mask-2.png,mask-3.png,h,1,0.9297463996335864,none,-5,0,0.05073169991374016,0.04852280020713806,0.09963659942150116,0.09878090023994446,0.3011218998581171
RSVPLG03,km,20260219-161513,1.0.2,20260219-161301,772,Practice,T1,1,Automatic,main,6,20260219-161613,global,global,750,H,H,A,E,H-A.png,H-E.png,hH,hH,mask-1.png,mask-4.png,s,0,1.0461111003533006,none,-5,0,0.05000949930399656,0.050483099184930325,0.09988889936357737,0.09985419921576977,0.7510804999619722
RSVPLG03,km,20260219-161513,1.0.2,20260219-161301,772,Practice,T1,1,Automatic,main,7,20260219-161618,local,global,750,H,S,A,A,A-H.png,S-A.png,hH,sS,mask-2.png,mask-3.png,h,1,1.4158781999722123,none,-5,0,0.04881860036402941,0.05120120011270046,0.09875770006328821,0.10149210039526224,0.7492281999439001
RSVPLG03,km,20260219-161513,1.0.2,20260219-161301,772,Practice,T1,1,Automatic,main,8,20260219-161624,global,global,300,S,S,A,E,S-A.png,S-E.png,sS,sS,mask-1.png,mask-2.png,s,1,0.9932213993743062,none,-5,0,0.050015900284051895,0.05016180034726858,0.09911040030419827,0.09925740025937557,0.2995585994794965
RSVPLG03,km,20260219-161513,1.0.2,20260219-161301,772,Practice,T1,1,Automatic,main,9,20260219-161628,global,local,300,H,H,E,A,H-E.png,A-H.png,hH,hH,mask-3.png,mask-1.png,h,1,1.6914006005972624,none,-5,0,0.05082570016384125,0.049194700084626675,0.10116199962794781,0.09900220017880201,0.3026658995077014
RSVPLG03,km,20260219-161513,1.0.2,20260219-161301,772,Practice,T1,1,Automatic,main,10,20260219-161634,global,local,300,H,H,E,A,H-E.png,A-H.png,hH,hH,mask-4.png,mask-4.png,s,0,0.7060610000044107,none,-5,0,0.04915440082550049,0.04910949990153313,0.09934830013662577,0.10020930040627718,0.3004293004050851
RSVPLG03,km,20260219-161513,1.0.2,20260219-161301,772,Practice,T1,1,Automatic,main,11,20260219-161638,local,global,300,S,S,E,A,E-S.png,S-A.png,sS,sS,mask-4.png,mask-4.png,s,1,1.5007111001759768,none,-5,0,0.05026809964329004,0.050416599959135056,0.09999499935656786,0.10063540004193783,0.30019349977374077
RSVPLG03,km,20260219-161513,1.0.2,20260219-161301,772,Practice,T1,1,Automatic,main,12,20260219-161643,local,global,750,H,H,E,A,E-H.png,H-A.png,hH,hH,mask-4.png,mask-1.png,s,0,1.7392191998660564,none,-5,0,0.04990390036255121,0.05163450073450804,0.10027030017226934,0.10011500027030706,0.750930099748075
RSVPLG03,km,20260219-161513,1.0.2,20260219-161301,772,Practice,T1,1,Automatic,main,13,20260219-161649,local,global,300,H,S,A,A,A-H.png,S-A.png,hH,sS,mask-3.png,mask-4.png,h,1,0.38522129971534014,none,-5,0,0.04949350003153086,0.0484310993924737,0.0996203999966383,0.09869339969009161,0.29974810034036636
RSVPLG03,km,20260219-161513,1.0.2,20260219-161301,772,Practice,T1,1,Automatic,main,14,20260219-161653,local,local,750,H,S,E,E,E-H.png,E-S.png,hH,sS,mask-1.png,mask-2.png,s,0,1.0565958004444838,none,-5,0,0.05120429955422878,0.05030759982764721,0.10107149928808212,0.09927169978618622,0.752089399844408
RSVPLG03,km,20260219-161513,1.0.2,20260219-161301,772,Practice,T1,1,Automatic,main,15,20260219-161658,local,local,300,H,H,E,A,E-H.png,A-H.png,hH,hH,mask-2.png,mask-1.png,h,1,0.4175294004380703,none,-5,0,0.04929319955408573,0.04954189993441105,0.10011389944702387,0.0995275005698204,0.30113379936665297
RSVPLG03,km,20260219-161513,1.0.2,20260219-161301,772,Practice,T1,1,Automatic,main,16,20260219-161702,local,local,750,H,S,E,E,E-H.png,E-S.png,hH,sS,mask-1.png,mask-3.png,s,0,0.6290114000439644,none,-5,0,0.05048689991235733,0.05128190014511347,0.10072549991309643,0.1014638002961874,0.7498613996431231
RSVPLG03,km,20260219-161720,1.0.2,20260219-161301,772,Practice,T1,1,Automatic,main,1,20260219-161823,global,global,750,S,S,A,E,S-A.png,S-E.png,sS,sS,mask-4.png,mask-4.png,s,1,0.9443936003372073,none,-5,0,0.048561000265181065,0.04974659997969866,0.09925599955022335,0.1006713006645441,0.7523355996236205
RSVPLG03,km,20260219-161720,1.0.2,20260219-161301,772,Practice,T1,1,Automatic,main,2,20260219-161829,global,global,300,H,H,E,E,H-E.png,H-E.png,hH,hH,mask-2.png,mask-4.png,h,1,0.9218514999374747,none,-5,0,0.04989300016313791,0.04947349987924099,0.10000979993492365,0.09966729953885078,0.3002373008057475
RSVPLG03,km,20260219-161720,1.0.2,20260219-161301,772,Practice,T1,1,Automatic,main,3,20260219-161834,local,local,750,H,S,A,E,A-H.png,E-S.png,hH,sS,mask-2.png,mask-4.png,s,0,0.9972927998751402,none,-5,0,0.05027520004659891,0.05024810042232275,0.10043449979275465,0.10157760046422482,0.752785699442029
RSVPLG03,km,20260219-161720,1.0.2,20260219-161301,772,Practice,T1,1,Automatic,main,4,20260219-161839,global,global,750,H,H,A,A,H-A.png,H-A.png,hH,hH,mask-2.png,mask-2.png,h,1,0.8690876001492143,none,-5,0,0.05089149996638298,0.050000300630927086,0.10059859976172447,0.09882500022649765,0.7535684993490577
RSVPLG03,km,20260219-161720,1.0.2,20260219-161301,772,Practice,T1,1,Automatic,main,5,20260219-161844,local,global,300,H,H,A,A,A-H.png,H-A.png,hH,hH,mask-1.png,mask-1.png,h,1,0.870274999178946,none,-5,0,0.050956000573933125,0.05100010056048632,0.10011040046811104,0.10067369975149632,0.3013121001422405
RSVPLG03,km,20260219-161720,1.0.2,20260219-161301,772,Practice,T1,1,Automatic,main,6,20260219-161848,global,local,750,S,S,A,E,S-A.png,E-S.png,sS,sS,mask-2.png,mask-2.png,s,1,0.3953988002613187,none,-5,0,0.04927000030875206,0.04818210005760193,0.10072069987654686,0.09942169953137636,0.7527577001601458
RSVPLG03,km,20260219-161720,1.0.2,20260219-161301,772,Practice,T1,1,Automatic,main,7,20260219-161853,global,global,300,H,S,E,A,H-E.png,S-A.png,hH,sS,mask-1.png,mask-4.png,h,1,1.2725102007389069,none,-5,0,0.04918349999934435,0.049767300486564636,0.1005387008190155,0.1000926997512579,0.3008040003478527
RSVPLG03,km,20260219-161720,1.0.2,20260219-161301,772,Practice,T1,1,Automatic,main,8,20260219-161858,local,local,300,H,H,A,A,A-H.png,A-H.png,hH,hH,mask-2.png,mask-4.png,s,0,1.4863905999809504,none,-5,0,0.04973029997199774,0.04918750002980232,0.10047249961644411,0.10001649986952543,0.3011980000883341
RSVPLG03,km,20260219-161720,1.0.2,20260219-161301,772,Practice,T1,1,Automatic,main,9,20260219-161903,local,global,300,H,S,E,A,E-H.png,S-A.png,hH,sS,mask-2.png,mask-4.png,h,1,2.5167132997885346,none,-5,0,0.04942839965224266,0.04953689966350794,0.09991380013525486,0.09993109945207834,0.3004253003746271
RSVPLG03,km,20260219-161720,1.0.2,20260219-161301,772,Practice,T1,1,Automatic,main,10,20260219-161909,global,local,750,H,H,A,E,H-A.png,E-H.png,hH,hH,mask-2.png,mask-2.png,h,1,1.232261300086975,none,-5,0,0.0500303003937006,0.05209819972515106,0.09798450022935867,0.1004015002399683,0.7518857000395656
RSVPLG03,km,20260219-161720,1.0.2,20260219-161301,772,Practice,T1,1,Automatic,main,11,20260219-161914,global,local,300,H,H,E,A,H-E.png,A-H.png,hH,hH,mask-3.png,mask-1.png,h,1,0.9913788000121713,none,-5,0,0.04999670013785362,0.04894549958407879,0.10111379995942116,0.09932279959321022,0.3015084005892277
RSVPLG03,km,20260219-161720,1.0.2,20260219-161301,772,Practice,T1,1,Automatic,main,12,20260219-161919,local,global,750,S,S,A,E,A-S.png,S-E.png,sS,sS,mask-4.png,mask-1.png,s,1,0.7601378001272678,none,-5,0,0.05102310050278902,0.05098489951342344,0.10055050067603588,0.10049149952828884,0.7534048007801175
RSVPLG03,km,20260219-161720,1.0.2,20260219-161301,772,Practice,T1,1,Automatic,main,13,20260219-161924,local,global,750,S,H,A,A,A-S.png,H-A.png,sS,hH,mask-3.png,mask-3.png,s,1,0.7196915997192264,none,-5,0,0.049500299617648125,0.04978029988706112,0.10010319948196411,0.09990999940782785,0.7533168001100421
RSVPLG03,km,20260219-161720,1.0.2,20260219-161301,772,Practice,T1,1,Automatic,main,14,20260219-161928,global,local,300,H,H,A,A,H-A.png,A-H.png,hH,hH,mask-1.png,mask-1.png,h,1,1.0054246000945568,none,-5,0,0.04956649988889694,0.05033989995718002,0.0994643997400999,0.09973760042339563,0.30110299959778786
RSVPLG03,km,20260219-161720,1.0.2,20260219-161301,772,Practice,T1,1,Automatic,main,15,20260219-161933,local,local,300,H,S,A,A,A-H.png,A-S.png,hH,sS,mask-2.png,mask-3.png,h,1,1.1618873002007604,none,-5,0,0.05020759999752045,0.04997770022600889,0.09960060007870197,0.10032590012997389,0.30186929926276207
RSVPLG03,km,20260219-161720,1.0.2,20260219-161301,772,Practice,T1,1,Automatic,main,16,20260219-161938,local,local,750,H,H,A,A,A-H.png,A-H.png,hH,hH,mask-2.png,mask-4.png,s,0,3.4788989005610347,none,-5,0,0.0504222996532917,0.04939830023795366,0.1008086996152997,0.10057950019836426,0.7552245995029807
RSVPLG03,km,20260219-162050,1.0.2,20260219-161301,772,Introduction,Both,1,Automatic,main,1,20260219-162131,local,global,750,S,S,A,A,A-S.png,S-A.png,sS,sS,mask-2.png,mask-1.png,s,1,1.7789822006598115,h,0,3.1181228002533317,0.09690200071781874,0.09941160026937723,0.19677780009806156,0.19911929965019226,0.7479247003793716
RSVPLG03,km,20260219-162050,1.0.2,20260219-161301,772,Introduction,Both,1,Automatic,main,2,20260219-162141,local,local,750,H,S,E,A,E-H.png,A-S.png,hH,sS,mask-3.png,mask-1.png,s,0,1.33747429959476,h,0,2.462800799869001,0.09982259944081306,0.10044539999216795,0.20107499975711107,0.20007179956883192,0.7496317997574806
RSVPLG03,km,20260219-162050,1.0.2,20260219-161301,772,Introduction,Both,1,Automatic,main,3,20260219-162149,global,local,750,S,H,E,A,S-E.png,A-H.png,sS,hH,mask-4.png,mask-3.png,s,1,3.1672066003084183,s,0,0.8969358000904322,0.09897170029580593,0.1001987000927329,0.1994010005146265,0.19932599924504757,0.7492751004174352
RSVPLG03,km,20260219-162050,1.0.2,20260219-161301,772,Introduction,Both,1,Automatic,main,4,20260219-162157,global,global,750,S,S,A,A,S-A.png,S-A.png,sS,sS,mask-1.png,mask-3.png,s,1,0.8774659996852279,h,0,0.7988989995792508,0.10011589992791414,0.09889419935643673,0.20120189990848303,0.19932719971984625,0.7496886998414993
RSVPLG03,km,20260219-162050,1.0.2,20260219-161301,772,Introduction,Both,1,Automatic,main,5,20260219-162203,global,local,750,S,S,A,E,S-A.png,E-S.png,sS,sS,mask-1.png,mask-2.png,h,0,1.2391777001321316,s,1,0.9446221003308892,0.09909019991755486,0.1019466994330287,0.19935519993305206,0.20058020018041134,0.7484825998544693
RSVPLG03,km,20260219-162050,1.0.2,20260219-161301,772,Introduction,Both,1,Automatic,main,6,20260219-162210,global,global,750,S,H,A,E,S-A.png,H-E.png,sS,hH,mask-4.png,mask-4.png,s,1,1.973522000014782,h,1,1.9277500994503498,0.1009970000013709,0.1006479999050498,0.1999291991814971,0.20009490009397268,0.750449899584055
RSVPLG03,km,20260219-162050,1.0.2,20260219-161301,772,Introduction,Both,1,Automatic,main,7,20260219-162218,local,global,750,H,H,A,A,A-H.png,H-A.png,hH,hH,mask-4.png,mask-2.png,h,1,0.9503733003512025,s,0,0.6877993000671268,0.09868420008569956,0.09946530032902956,0.1982061993330717,0.19900420028716326,0.7498470991849899
RSVPLG03,km,20260219-162050,1.0.2,20260219-161301,772,Introduction,Both,1,Automatic,main,8,20260219-162224,global,local,750,H,H,E,A,H-E.png,A-H.png,hH,hH,mask-4.png,mask-1.png,h,1,1.209604199975729,s,0,0.5370255997404456,0.09999729972332716,0.09976849984377623,0.1999508999288082,0.19895599968731403,0.7509839003905654
RSVPLG03,km,20260219-162050,1.0.2,20260219-161301,772,Introduction,Both,1,Automatic,main,9,20260219-162231,global,global,750,S,S,A,E,S-A.png,S-E.png,sS,sS,mask-4.png,mask-2.png,s,1,2.755662400275469,s,1,0.5356159992516041,0.09787200018763542,0.0994008993729949,0.1982947001233697,0.20016909949481487,0.7489830004051328
RSVPLG03,km,20260219-162050,1.0.2,20260219-161301,772,Introduction,Both,1,Automatic,main,10,20260219-162238,global,local,750,H,S,E,A,H-E.png,A-S.png,hH,sS,mask-2.png,mask-2.png,s,0,2.5028744991868734,s,1,0.470834500156343,0.09983440022915602,0.0976143991574645,0.20015340019017458,0.19777929969131947,0.7514854008331895
RSVPLG03,km,20260219-162050,1.0.2,20260219-161301,772,Introduction,Both,1,Automatic,main,11,20260219-162246,global,global,750,S,S,E,A,S-E.png,S-A.png,sS,sS,mask-1.png,mask-3.png,s,1,1.124987500719726,s,1,0.4076874004676938,0.1005969000980258,0.09847669955343008,0.2002469003200531,0.19880060013383627,0.7518340004608035
RSVPLG03,km,20260219-162050,1.0.2,20260219-161301,772,Introduction,Both,1,Automatic,main,12,20260219-162252,local,global,750,S,S,A,A,A-S.png,S-A.png,sS,sS,mask-2.png,mask-3.png,s,1,1.9159631002694368,s,1,0.42289299983531237,0.10095290001481771,0.09990300051867962,0.2019086005166173,0.2007598001509905,0.7515479000285268
RSVPLG03,km,20260219-162050,1.0.2,20260219-161301,772,Introduction,Both,1,Automatic,main,13,20260219-162258,local,local,750,H,H,E,A,E-H.png,A-H.png,hH,hH,mask-4.png,mask-2.png,h,1,2.4756364999338984,s,0,0.3886541994288564,0.09993170015513897,0.09992479998618364,0.19950850028544664,0.20037570036947727,0.750310399569571
RSVPLG03,km,20260219-162050,1.0.2,20260219-161301,772,Introduction,Both,1,Automatic,main,14,20260219-162306,local,global,750,H,S,E,E,E-H.png,S-E.png,hH,sS,mask-3.png,mask-1.png,s,0,2.350487700663507,h,0,0.4876691997051239,0.10000390000641346,0.09929759986698627,0.1999154994264245,0.19966969918459654,0.7495828000828624
RSVPLG03,km,20260219-162050,1.0.2,20260219-161301,772,Introduction,Both,1,Automatic,main,15,20260219-162313,local,local,750,S,S,A,A,A-S.png,A-S.png,sS,sS,mask-1.png,mask-2.png,s,1,1.2141123991459608,s,1,0.4872210994362831,0.09947670064866543,0.10049599967896938,0.1996782999485731,0.1994810001924634,0.7489061001688242
RSVPLG03,km,20260219-162050,1.0.2,20260219-161301,772,Introduction,Both,1,Automatic,main,16,20260219-162319,local,local,750,H,S,A,A,A-H.png,A-S.png,hH,sS,mask-3.png,mask-2.png,h,1,1.5988516993820667,s,1,0.5824457993730903,0.10085200052708387,0.10014359932392836,0.20083720050752163,0.1991815995424986,0.7505659004673362
RSVPLG03,km,20260219-162340,1.0.2,20260219-161301,772,Practice,Both,1,Automatic,main,1,20260219-162417,global,global,300,S,H,E,E,S-E.png,H-E.png,sS,hH,mask-3.png,mask-1.png,s,1,2.040223400108516,h,1,0.5250450000166893,0.04353190027177334,0.05007920041680336,0.09374979976564646,0.10034529957920313,0.2932313000783324
RSVPLG03,km,20260219-162340,1.0.2,20260219-161301,772,Practice,Both,1,Automatic,main,2,20260219-162424,local,global,750,H,S,E,A,E-H.png,S-A.png,hH,sS,mask-2.png,mask-2.png,s,0,1.1459878999739885,s,1,0.5512544000521302,0.049658000469207764,0.04941690061241388,0.10097650066018105,0.10011710040271282,0.7505296999588609
RSVPLG03,km,20260219-162340,1.0.2,20260219-161301,772,Practice,Both,1,Automatic,main,3,20260219-162430,global,global,300,S,S,E,A,S-E.png,S-A.png,sS,sS,mask-2.png,mask-4.png,s,1,1.7987878993153572,s,1,0.3520015003159642,0.04957150015980005,0.04986019991338253,0.09934680070728064,0.0998411001637578,0.3004710003733635
RSVPLG03,km,20260219-162340,1.0.2,20260219-161301,772,Practice,Both,1,Automatic,main,4,20260219-162435,local,local,750,S,S,E,A,E-S.png,A-S.png,sS,sS,mask-2.png,mask-3.png,s,1,1.3033659001812339,h,0,0.5876337997615337,0.04961930029094219,0.04907240066677332,0.09980780072510242,0.10016260016709566,0.7497723000124097
RSVPLG03,km,20260219-162340,1.0.2,20260219-161301,772,Practice,Both,1,Automatic,main,5,20260219-162441,local,global,300,S,S,E,A,E-S.png,S-A.png,sS,sS,mask-1.png,mask-4.png,s,1,1.6560021005570889,s,1,0.2663316000252962,0.050755999982357025,0.04908149968832731,0.10043139941990376,0.09934110008180141,0.3009137995541096
RSVPLG03,km,20260219-162340,1.0.2,20260219-161301,772,Practice,Both,1,Automatic,main,6,20260219-162447,global,local,750,H,S,A,A,H-A.png,A-S.png,hH,sS,mask-1.png,mask-2.png,s,0,4.309448600746691,h,0,0.13397749979048967,0.04796219989657402,0.048740499652922153,0.09826300013810396,0.09901329968124628,0.7500056000426412
RSVPLG03,km,20260219-162340,1.0.2,20260219-161301,772,Practice,Both,1,Automatic,main,7,20260219-162456,local,local,750,S,H,E,A,E-S.png,A-H.png,sS,hH,mask-4.png,mask-3.png,s,1,0.7685398999601603,h,1,0.1338969999924302,0.05003269948065281,0.04765109997242689,0.1001842999830842,0.09869719948619604,0.7509655002504587
RSVPLG03,km,20260219-162340,1.0.2,20260219-161301,772,Practice,Both,1,Automatic,main,8,20260219-162501,global,global,750,S,H,A,E,S-A.png,H-E.png,sS,hH,mask-2.png,mask-4.png,h,0,0.7884251996874809,s,0,0.14349440019577742,0.047618599608540535,0.04863680060952902,0.09861129987984896,0.09868769999593496,0.749495099298656
RSVPLG03,km,20260219-162340,1.0.2,20260219-161301,772,Practice,Both,1,Automatic,main,9,20260219-162506,local,local,300,S,H,E,A,E-S.png,A-H.png,sS,hH,mask-2.png,mask-2.png,s,1,1.7334216004237533,h,1,0.4872094001621008,0.049649699591100216,0.049224299378693104,0.10031540039926767,0.098879000172019,0.30084600020200014
RSVPLG03,km,20260219-162340,1.0.2,20260219-161301,772,Practice,Both,1,Automatic,main,10,20260219-162512,local,global,750,H,H,E,E,E-H.png,H-E.png,hH,hH,mask-3.png,mask-4.png,h,1,1.207235399633646,h,1,0.29399210028350353,0.05004290025681257,0.049330499954521656,0.10020279977470636,0.09975029993802309,0.7496739998459816
RSVPLG03,km,20260219-162340,1.0.2,20260219-161301,772,Practice,Both,1,Automatic,main,11,20260219-162518,local,global,300,S,H,E,E,E-S.png,H-E.png,sS,hH,mask-4.png,mask-3.png,s,1,1.4446187000721693,h,1,1.070571799762547,0.05033370014280081,0.04892150033265352,0.099647699855268,0.09938259981572628,0.2997094001621008
RSVPLG03,km,20260219-162340,1.0.2,20260219-161301,772,Practice,Both,1,Automatic,main,12,20260219-162524,global,local,750,H,H,E,A,H-E.png,A-H.png,hH,hH,mask-1.png,mask-3.png,h,1,1.182251699268818,s,0,0.367056000046432,0.05031200032681227,0.0509167006239295,0.09968989994376898,0.1008991003036499,0.7492434000596404
RSVPLG03,km,20260219-162340,1.0.2,20260219-161301,772,Practice,Both,1,Automatic,main,13,20260219-162530,local,local,300,H,H,A,A,A-H.png,A-H.png,hH,hH,mask-3.png,mask-3.png,h,1,1.1822558995336294,h,1,0.13594820071011782,0.0491002993658185,0.05094920005649328,0.09907280001789331,0.10124710015952587,0.2982193995267153
RSVPLG03,km,20260219-162340,1.0.2,20260219-161301,772,Practice,Both,1,Automatic,main,14,20260219-162535,global,local,300,H,H,A,E,H-A.png,E-H.png,hH,hH,mask-3.png,mask-3.png,h,1,1.9803646998479962,h,1,0.85377879999578,0.04994579963386059,0.05116530042141676,0.10012479964643717,0.10152599960565567,0.2978149000555277
RSVPLG03,km,20260219-162340,1.0.2,20260219-161301,772,Practice,Both,1,Automatic,main,15,20260219-162542,global,global,750,S,H,E,A,S-E.png,H-A.png,sS,hH,mask-4.png,mask-2.png,s,1,0.6858614003285766,s,0,0.31852349918335676,0.04999919980764389,0.04886820074170828,0.09877429995685816,0.09886510018259287,0.7505823997780681
RSVPLG03,km,20260219-162340,1.0.2,20260219-161301,772,Practice,Both,1,Automatic,main,16,20260219-162547,global,local,300,S,S,E,A,S-E.png,A-S.png,sS,sS,mask-4.png,mask-4.png,s,1,1.1604816000908613,h,0,0.2621061997488141,0.05135640036314726,0.04856739938259125,0.09890849981456995,0.09980739932507277,0.3008251003921032
RSVPLG03,km,20260219-162627,1.0.2,20260219-161301,772,Practice,Both,1,Automatic,main,1,20260219-162654,local,global,300,S,H,A,A,A-S.png,H-A.png,sS,hH,mask-4.png,mask-1.png,s,1,1.0929621001705527,s,0,0.23053439985960722,0.0406528003513813,0.04954729974269867,0.09001330006867647,0.09975349996238947,0.2911363001912832
RSVPLG03,km,20260219-162627,1.0.2,20260219-161301,772,Practice,Both,1,Automatic,main,2,20260219-162659,global,global,750,S,S,E,E,S-E.png,S-E.png,sS,sS,mask-1.png,mask-3.png,s,1,1.5724629005417228,h,0,0.06956820003688335,0.049949999898672104,0.048957799561321735,0.09994449932128191,0.10003089997917414,0.7506293999031186
RSVPLG03,km,20260219-162627,1.0.2,20260219-161301,772,Practice,Both,1,Automatic,main,3,20260219-162705,local,global,750,S,S,E,E,E-S.png,S-E.png,sS,sS,mask-3.png,mask-2.png,s,1,1.3457940993830562,s,1,0.23897260054945946,0.05095619987696409,0.049721899442374706,0.1012169998139143,0.10159069951623678,0.7498802999034524
RSVPLG03,km,20260219-162627,1.0.2,20260219-161301,772,Practice,Both,1,Automatic,main,4,20260219-162711,local,global,300,S,S,E,A,E-S.png,S-A.png,sS,sS,mask-3.png,mask-2.png,s,1,1.0531657999381423,s,1,0.27078970056027174,0.04981929995119572,0.05045489966869354,0.09982139989733696,0.10057710018008947,0.29929929971694946
RSVPLG03,km,20260219-162627,1.0.2,20260219-161301,772,Practice,Both,1,Automatic,main,5,20260219-162716,local,local,300,H,H,E,E,E-H.png,E-H.png,hH,hH,mask-2.png,mask-2.png,h,1,1.149762799963355,h,1,0.1812364999204874,0.05011029914021492,0.04999039974063635,0.10034839995205402,0.1000875998288393,0.2995982998982072
RSVPLG03,km,20260219-162627,1.0.2,20260219-161301,772,Practice,Both,1,Automatic,main,6,20260219-162721,global,local,750,S,S,E,E,S-E.png,E-S.png,sS,sS,mask-4.png,mask-4.png,s,1,0.9789800997823477,s,1,0.2874566996470094,0.05074220057576895,0.05130189936608076,0.09947510063648224,0.10020019952207804,0.749043800868094
RSVPLG03,km,20260219-162627,1.0.2,20260219-161301,772,Practice,Both,1,Automatic,main,7,20260219-162727,local,local,750,S,S,E,A,E-S.png,A-S.png,sS,sS,mask-1.png,mask-4.png,s,1,1.041413700208068,s,1,0.18314220011234283,0.049591400660574436,0.051020899787545204,0.09846060071140528,0.09970470052212477,0.7493005003780127
RSVPLG03,km,20260219-162627,1.0.2,20260219-161301,772,Practice,Both,1,Automatic,main,8,20260219-162732,local,local,300,S,H,E,A,E-S.png,A-H.png,sS,hH,mask-4.png,mask-4.png,s,1,2.118563899770379,h,1,0.29413820058107376,0.05074980016797781,0.04937389958649874,0.1002876004204154,0.0988103998824954,0.3006234001368284
RSVPLG03,km,20260219-162627,1.0.2,20260219-161301,772,Practice,Both,1,Automatic,main,9,20260219-162738,global,local,750,H,H,E,E,H-E.png,E-H.png,hH,hH,mask-3.png,mask-3.png,h,1,1.6089532002806664,h,1,0.2952771997079253,0.04994919989258051,0.05028009973466396,0.10007029958069324,0.10097629949450493,0.7480920003727078
RSVPLG03,km,20260219-162627,1.0.2,20260219-161301,772,Practice,Both,1,Automatic,main,10,20260219-162744,local,global,750,S,H,E,E,E-S.png,H-E.png,sS,hH,mask-4.png,mask-4.png,s,1,2.3806489994749427,h,1,0.23186729941517115,0.05095039959996939,0.05091509968042374,0.10068369936197996,0.10088299959897995,0.7512643998488784
RSVPLG03,km,20260219-162627,1.0.2,20260219-161301,772,Practice,Both,1,Automatic,main,11,20260219-162751,global,global,300,H,S,A,A,H-A.png,S-A.png,hH,sS,mask-1.png,mask-4.png,s,0,1.2898714002221823,s,1,0.23726090043783188,0.04996789991855621,0.04821640066802502,0.10011439956724644,0.09871950000524521,0.30029779952019453
RSVPLG03,km,20260219-162627,1.0.2,20260219-161301,772,Practice,Both,1,Automatic,main,12,20260219-162757,global,global,750,H,H,E,A,H-E.png,H-A.png,hH,hH,mask-3.png,mask-1.png,h,1,0.9492834005504847,h,1,0.09499040059745312,0.049989999271929264,0.048636999912559986,0.0992884999141097,0.09874629974365234,0.750136399641633
RSVPLG03,km,20260219-162627,1.0.2,20260219-161301,772,Practice,Both,1,Automatic,main,13,20260219-162802,global,local,300,H,S,E,E,H-E.png,E-S.png,hH,sS,mask-4.png,mask-3.png,s,0,2.758037599734962,s,1,0.1429660003632307,0.04939380008727312,0.04936830047518015,0.09952630009502172,0.09981780033558607,0.29974089935421944
RSVPLG03,km,20260219-162627,1.0.2,20260219-161301,772,Practice,Both,1,Automatic,main,14,20260219-162808,global,local,300,S,H,A,A,S-A.png,A-H.png,sS,hH,mask-2.png,mask-2.png,h,0,4.006600099615753,s,0,0.22394930012524128,0.05001999996602535,0.04797220043838024,0.09833199996501207,0.09741870034486055,0.3004561997950077
RSVPLG03,km,20260219-162627,1.0.2,20260219-161301,772,Practice,Both,1,Automatic,main,15,20260219-162817,global,global,300,S,S,A,E,S-A.png,S-E.png,sS,sS,mask-4.png,mask-4.png,s,1,1.4669166998937726,h,0,0.26220929995179176,0.05012410040944815,0.050281500443816185,0.10137279983609915,0.09952879976481199,0.30078750010579824
RSVPLG03,km,20260219-162627,1.0.2,20260219-161301,772,Practice,Both,1,Automatic,main,16,20260219-162822,local,local,750,S,H,E,A,E-S.png,A-H.png,sS,hH,mask-4.png,mask-3.png,s,1,1.1039429996162653,h,1,0.2914908993989229,0.04866149928420782,0.05092779919505119,0.09835449978709221,0.09984579961746931,0.7496579000726342
RSVPLG03,km,20260219-162938,1.0.2,20260219-161301,772,Experiment,Both,1,Automatic,warmup,1,20260219-162957,global,global,300,S,S,E,E,S-E.png,S-E.png,sS,sS,mask-3.png,mask-3.png,s,1,1.4294218998402357,s,1,0.18250260036438704,0.03992130048573017,0.05027789995074272,0.08997219987213612,0.09950010012835264,0.2902651997283101
RSVPLG03,km,20260219-162938,1.0.2,20260219-161301,772,Experiment,Both,1,Automatic,warmup,2,20260219-163002,local,local,300,H,H,E,E,E-H.png,E-H.png,hH,hH,mask-3.png,mask-2.png,h,1,2.407926100306213,h,1,0.2866091001778841,0.05045059975236654,0.04943990055471659,0.10000109951943159,0.10035269986838102,0.3002439998090267
RSVPLG03,km,20260219-162938,1.0.2,20260219-161301,772,Experiment,Both,1,Automatic,warmup,3,20260219-163008,local,global,750,S,S,E,A,E-S.png,S-A.png,sS,sS,mask-4.png,mask-2.png,s,1,1.2048977995291352,s,1,0.32640970032662153,0.04982810001820326,0.04997069947421551,0.10044190008193254,0.09900279995054007,0.7500862004235387
RSVPLG03,km,20260219-162938,1.0.2,20260219-161301,772,Experiment,Both,1,Automatic,warmup,4,20260219-163014,local,global,300,S,H,E,A,E-S.png,H-A.png,sS,hH,mask-4.png,mask-4.png,s,1,1.2509006997570395,h,1,0.32049250043928623,0.04966889973729849,0.04966589994728565,0.09846749994903803,0.10160360019654036,0.2984835999086499
RSVPLG03,km,20260219-162938,1.0.2,20260219-161301,772,Experiment,Both,1,Automatic,main,5,20260219-163019,global,global,750,H,H,E,A,H-E.png,H-A.png,hH,hH,mask-4.png,mask-2.png,h,1,1.275466799736023,h,1,0.18248349986970425,0.04997269995510578,0.05032420065253973,0.10102960001677275,0.10183200053870678,0.7491504997014999
RSVPLG03,km,20260219-162938,1.0.2,20260219-161301,772,Experiment,Both,1,Automatic,main,6,20260219-163025,global,local,750,H,S,A,A,H-A.png,A-S.png,hH,sS,mask-1.png,mask-4.png,h,1,1.3672992996871471,h,0,0.132757100276649,0.04871839936822653,0.04994940012693405,0.09871239960193634,0.09958329983055592,0.7485229996964335
RSVPLG03,km,20260219-162938,1.0.2,20260219-161301,772,Experiment,Both,1,Automatic,main,7,20260219-163031,global,global,300,S,S,E,E,S-E.png,S-E.png,sS,sS,mask-1.png,mask-2.png,s,1,2.7308481000363827,s,1,0.09563380014151335,0.049096399918198586,0.04905739985406399,0.100463199429214,0.10070970002561808,0.2998216999694705
RSVPLG03,km,20260219-162938,1.0.2,20260219-161301,772,Experiment,Both,1,Automatic,main,8,20260219-163037,global,local,300,H,H,A,A,H-A.png,A-H.png,hH,hH,mask-2.png,mask-4.png,h,1,1.4078457998111844,h,1,0.10098330024629831,0.04889839980751276,0.05009180027991533,0.1000092001631856,0.10027100052684546,0.29952319990843534
RSVPLG03,km,20260219-162938,1.0.2,20260219-161301,772,Experiment,Both,1,Automatic,main,9,20260219-163043,global,global,750,S,S,E,E,S-E.png,S-E.png,sS,sS,mask-2.png,mask-4.png,s,1,1.2494906997308135,s,1,0.19944849982857704,0.0499671995639801,0.04893629997968674,0.10086809936910868,0.10038499999791384,0.7497860994189978
RSVPLG03,km,20260219-162938,1.0.2,20260219-161301,772,Experiment,Both,1,Automatic,main,10,20260219-163048,local,global,300,H,S,A,E,A-H.png,S-E.png,hH,sS,mask-1.png,mask-3.png,s,0,2.2024007998406887,h,0,0.3122932994738221,0.04995010048151016,0.04918370023369789,0.10001290030777454,0.09896519966423512,0.3000630000606179
RSVPLG03,km,20260219-162938,1.0.2,20260219-161301,772,Experiment,Both,1,Automatic,main,11,20260219-163055,global,global,750,S,S,E,A,S-E.png,S-A.png,sS,sS,mask-1.png,mask-2.png,h,0,1.8488304996863008,h,0,0.08417949918657541,0.04863400012254715,0.049163199961185455,0.09920419938862324,0.09993159957230091,0.7492789998650551
RSVPLG03,km,20260219-162938,1.0.2,20260219-161301,772,Experiment,Both,1,Automatic,main,12,20260219-163101,global,local,300,H,S,A,E,H-A.png,E-S.png,hH,sS,mask-4.png,mask-4.png,s,0,0.5671764994040132,h,0,0.32543780002743006,0.049572099931538105,0.04953780025243759,0.09890159964561462,0.09905310068279505,0.3002269994467497
RSVPLG03,km,20260219-162938,1.0.2,20260219-161301,772,Experiment,Both,1,Automatic,main,13,20260219-163105,local,global,750,S,S,A,E,A-S.png,S-E.png,sS,sS,mask-4.png,mask-1.png,s,1,0.6549923997372389,h,0,0.758483400568366,0.04761370085179806,0.04866479989141226,0.098700400441885,0.0996726993471384,0.7486058007925749
RSVPLG03,km,20260219-162938,1.0.2,20260219-161301,772,Experiment,Both,1,Automatic,main,14,20260219-163111,local,global,300,S,S,A,A,A-S.png,S-A.png,sS,sS,mask-4.png,mask-1.png,s,1,0.947817400097847,s,1,0.2795326001942158,0.05106860026717186,0.04997390042990446,0.10271990019828081,0.09964079968631268,0.29985889978706837
RSVPLG03,km,20260219-162938,1.0.2,20260219-161301,772,Experiment,Both,1,Automatic,main,15,20260219-163116,local,global,750,H,S,A,E,A-H.png,S-E.png,hH,sS,mask-1.png,mask-4.png,h,1,1.2779344003647566,h,0,0.2069105999544263,0.05035699997097254,0.049229299649596214,0.09979999996721745,0.1002248004078865,0.7496991995722055
RSVPLG03,km,20260219-162938,1.0.2,20260219-161301,772,Experiment,Both,1,Automatic,main,16,20260219-163122,global,global,750,S,S,A,A,S-A.png,S-A.png,sS,sS,mask-3.png,mask-1.png,s,1,1.6328686000779271,h,0,1.0710669001564384,0.049860499799251556,0.04922669939696789,0.10084030032157898,0.09834720008075237,0.7514960002154112
RSVPLG03,km,20260219-162938,1.0.2,20260219-161301,772,Experiment,Both,1,Automatic,main,17,20260219-163129,global,global,750,H,H,E,A,H-E.png,H-A.png,hH,hH,mask-3.png,mask-3.png,h,1,2.210242699831724,s,0,0.07162810023874044,0.04888340085744858,0.05049279984086752,0.10038650035858154,0.10123929940164089,0.7492469009011984
RSVPLG03,km,20260219-162938,1.0.2,20260219-161301,772,Experiment,Both,1,Automatic,main,18,20260219-163135,global,global,300,H,S,A,E,H-A.png,S-E.png,hH,sS,mask-3.png,mask-4.png,h,1,1.9354179995134473,s,1,0.30303889978677034,0.05010970029979944,0.049800699576735497,0.09897770080715418,0.09966129995882511,0.300148400478065
RSVPLG03,km,20260219-162938,1.0.2,20260219-161301,772,Experiment,Both,1,Automatic,main,19,20260219-163141,local,local,750,S,S,E,E,E-S.png,E-S.png,sS,sS,mask-1.png,mask-3.png,s,1,1.136056900024414,s,1,0.1507996004074812,0.04914660006761551,0.04812469985336065,0.09932340029627085,0.09875859972089529,0.7497817007824779
RSVPLG03,km,20260219-162938,1.0.2,20260219-161301,772,Experiment,Both,1,Automatic,main,20,20260219-163147,global,global,750,H,H,E,E,H-E.png,H-E.png,hH,hH,mask-2.png,mask-4.png,h,1,2.5653103003278375,h,1,0.15956739988178015,0.050907800905406475,0.050331300124526024,0.10050210077315569,0.10018649976700544,0.7489365004003048
RSVPLG03,km,20260219-162938,1.0.2,20260219-161301,772,Experiment,Both,1,Automatic,main,21,20260219-163154,global,local,750,S,S,E,E,S-E.png,E-S.png,sS,sS,mask-1.png,mask-2.png,s,1,0.6256847996264696,h,0,0.23122810013592243,0.050187899731099606,0.05106629990041256,0.09932310041040182,0.09988760016858578,0.7494339002296329
RSVPLG03,km,20260219-162938,1.0.2,20260219-161301,772,Experiment,Both,1,Automatic,main,22,20260219-163159,global,global,300,H,H,E,E,H-E.png,H-E.png,hH,hH,mask-2.png,mask-2.png,h,1,1.112971500493586,s,0,0.4057067995890975,0.04981520026922226,0.04876700043678284,0.09976400062441826,0.0984340999275446,0.30110020004212856
RSVPLG03,km,20260219-162938,1.0.2,20260219-161301,772,Experiment,Both,1,Automatic,main,23,20260219-163204,local,global,300,S,H,E,A,E-S.png,H-A.png,sS,hH,mask-2.png,mask-1.png,s,1,0.5186931006610394,s,0,0.11234049964696169,0.04983600042760372,0.04792239982634783,0.09879520069807768,0.09854679927229881,0.3002186007797718
RSVPLG03,km,20260219-162938,1.0.2,20260219-161301,772,Experiment,Both,1,Automatic,main,24,20260219-163209,local,local,750,S,S,A,A,A-S.png,A-S.png,sS,sS,mask-4.png,mask-1.png,s,1,0.6963248001411557,h,0,0.28718770015984774,0.04999720025807619,0.05054649990051985,0.10012109950184822,0.10012879967689514,0.748785000294447
RSVPLG03,km,20260219-162938,1.0.2,20260219-161301,772,Experiment,Both,1,Automatic,main,25,20260219-163214,local,local,300,S,H,A,E,A-S.png,E-H.png,sS,hH,mask-2.png,mask-2.png,h,0,0.41288490034639835,s,0,0.16700960043817759,0.04951809998601675,0.05021109990775585,0.09917949978262186,0.10067539941519499,0.2986403005197644
RSVPLG03,km,20260219-162938,1.0.2,20260219-161301,772,Experiment,Both,1,Automatic,main,26,20260219-163220,local,global,300,H,H,E,E,E-H.png,H-E.png,hH,hH,mask-4.png,mask-2.png,s,0,1.7194876000285149,h,1,0.7971973996609449,0.04948069993406534,0.04988249950110912,0.10123309958726168,0.10063880030065775,0.3001060001552105
RSVPLG03,km,20260219-162938,1.0.2,20260219-161301,772,Experiment,Both,1,Automatic,main,27,20260219-163227,global,global,300,H,H,A,E,H-A.png,H-E.png,hH,hH,mask-1.png,mask-1.png,h,1,0.5229430999606848,h,1,0.261582700535655,0.050126099959015846,0.049768999218940735,0.1000832999125123,0.10077269934117794,0.29902000073343515
RSVPLG03,km,20260219-162938,1.0.2,20260219-161301,772,Experiment,Both,1,Automatic,main,28,20260219-163232,local,global,300,S,S,A,E,A-S.png,S-E.png,sS,sS,mask-3.png,mask-4.png,s,1,0.46823150012642145,s,1,0.17537980061024427,0.050023799762129784,0.050985400564968586,0.10013640020042658,0.1011022999882698,0.30016359966248274
RSVPLG03,km,20260219-162938,1.0.2,20260219-161301,772,Experiment,Both,1,Automatic,main,29,20260219-163236,global,global,750,S,H,A,A,S-A.png,H-A.png,sS,hH,mask-1.png,mask-3.png,s,1,0.4950398998335004,s,0,0.17506329994648695,0.05008240044116974,0.05095580033957958,0.1003769002854824,0.10026500001549721,0.7484063999727368
RSVPLG03,km,20260219-162938,1.0.2,20260219-161301,772,Experiment,Both,1,Automatic,main,30,20260219-163241,local,local,750,S,S,A,A,A-S.png,A-S.png,sS,sS,mask-1.png,mask-4.png,s,1,0.5458394000306726,s,1,0.13474109955132008,0.049970800057053566,0.04727729968726635,0.09995740000158548,0.09721039980649948,0.7514496995136142
RSVPLG03,km,20260219-162938,1.0.2,20260219-161301,772,Experiment,Both,1,Automatic,main,31,20260219-163246,global,global,750,H,H,E,E,H-E.png,H-E.png,hH,hH,mask-3.png,mask-3.png,h,1,1.0736088994890451,h,1,0.10096439998596907,0.05069829989224672,0.04995619971305132,0.1008075000718236,0.10110989958047867,0.7486284002661705
RSVPLG03,km,20260219-162938,1.0.2,20260219-161301,772,Experiment,Both,1,Automatic,main,32,20260219-163251,local,local,750,S,H,E,A,E-S.png,A-H.png,sS,hH,mask-4.png,mask-3.png,s,1,0.8431316008791327,h,1,0.30495449993759394,0.04994319938123226,0.0497444998472929,0.10007369983941317,0.09977240022271872,0.7500291997566819
RSVPLG03,km,20260219-162938,1.0.2,20260219-161301,772,Experiment,Both,1,Automatic,main,33,20260219-163257,global,global,750,S,S,E,E,S-E.png,S-E.png,sS,sS,mask-1.png,mask-3.png,s,1,0.46824580058455467,s,1,0.2782502993941307,0.04999320022761822,0.050434100441634655,0.09874240029603243,0.1019072001799941,0.7473440999165177
RSVPLG03,km,20260219-162938,1.0.2,20260219-161301,772,Experiment,Both,1,Automatic,main,34,20260219-163302,local,global,750,H,S,E,A,E-H.png,S-A.png,hH,sS,mask-2.png,mask-3.png,h,1,0.5373786995187402,h,0,0.0888413991779089,0.04928029980510473,0.04966089967638254,0.09884659945964813,0.10119159985333681,0.7467237003147602
RSVPLG03,km,20260219-162938,1.0.2,20260219-161301,772,Experiment,Both,1,Automatic,main,35,20260219-163307,local,local,300,S,S,E,A,E-S.png,A-S.png,sS,sS,mask-1.png,mask-1.png,s,1,0.63744099996984,s,1,0.18576680030673742,0.04806459974497557,0.05138259939849377,0.09812359977513552,0.09984769951552153,0.2978234998881817
RSVPLG03,km,20260219-162938,1.0.2,20260219-161301,772,Experiment,Both,1,Automatic,main,36,20260219-163311,local,local,300,S,S,E,A,E-S.png,A-S.png,sS,sS,mask-3.png,mask-4.png,s,1,0.5660161003470421,s,1,0.10382729955017567,0.05000889953225851,0.05005779955536127,0.10021229926496744,0.1002981998026371,0.300276099704206
RSVPLG03,km,20260219-162938,1.0.2,20260219-161301,772,Experiment,Both,1,Automatic,main,37,20260219-163316,global,global,300,S,S,E,A,S-E.png,S-A.png,sS,sS,mask-1.png,mask-2.png,s,1,0.7837773999199271,h,0,0.22630599979311228,0.049258800223469734,0.05123519990593195,0.09972789976745844,0.1001145001500845,0.2994082998484373
RSVPLG03,km,20260219-162938,1.0.2,20260219-161301,772,Experiment,Both,1,Automatic,main,38,20260219-163321,global,local,300,S,S,E,A,S-E.png,A-S.png,sS,sS,mask-1.png,mask-1.png,h,0,2.5180094996467233,h,0,0.09420059993863106,0.050728400237858295,0.04793670028448105,0.10035909991711378,0.09836260043084621,0.3008204000070691
RSVPLG03,km,20260219-162938,1.0.2,20260219-161301,772,Experiment,Both,1,Automatic,main,39,20260219-163327,local,global,750,H,S,E,E,E-H.png,S-E.png,hH,sS,mask-1.png,mask-1.png,h,1,0.7694338001310825,h,0,0.09514790028333664,0.04995280038565397,0.04880439955741167,0.10002060048282146,0.09918609913438559,0.7495038006454706
RSVPLG03,km,20260219-162938,1.0.2,20260219-161301,772,Experiment,Both,1,Automatic,main,40,20260219-163332,local,local,300,H,H,A,A,A-H.png,A-H.png,hH,hH,mask-1.png,mask-1.png,s,0,0.6324038999155164,h,1,0.08752389997243881,0.05003170017153025,0.051645499654114246,0.099949199706316,0.10077839996665716,0.300046700052917
RSVPLG03,km,20260219-162938,1.0.2,20260219-161301,772,Experiment,Both,1,Automatic,main,41,20260219-163337,local,global,750,S,S,E,A,E-S.png,S-A.png,sS,sS,mask-1.png,mask-3.png,h,0,0.35249620024114847,s,1,0.18979910016059875,0.04999059997498989,0.05067970044910908,0.10012559965252876,0.10177810024470091,0.7484398996457458
RSVPLG03,km,20260219-162938,1.0.2,20260219-161301,772,Experiment,Both,1,Automatic,main,42,20260219-163341,global,local,750,S,S,A,A,S-A.png,A-S.png,sS,sS,mask-3.png,mask-4.png,s,1,0.6280100997537374,s,1,0.1507586995139718,0.050096199847757816,0.050882200710475445,0.10126050002872944,0.09986850060522556,0.7507062992081046
RSVPLG03,km,20260219-162938,1.0.2,20260219-161301,772,Experiment,Both,1,Automatic,main,43,20260219-163346,global,global,750,S,S,E,A,S-E.png,S-A.png,sS,sS,mask-2.png,mask-1.png,h,0,1.8637063996866345,h,0,0.09554930031299591,0.04928290005773306,0.05001890007406473,0.09962730016559362,0.09878280013799667,0.7501688003540039
RSVPLG03,km,20260219-162938,1.0.2,20260219-161301,772,Experiment,Both,1,Automatic,main,44,20260219-163353,local,local,300,H,H,E,A,E-H.png,A-H.png,hH,hH,mask-1.png,mask-3.png,h,1,0.8159876000136137,s,0,0.07038599997758865,0.050232100300490856,0.05042300000786781,0.09962480049580336,0.0997291998937726,0.30015810020267963
RSVPLG03,km,20260219-162938,1.0.2,20260219-161301,772,Experiment,Both,1,Automatic,main,45,20260219-163357,local,local,750,S,S,E,A,E-S.png,A-S.png,sS,sS,mask-1.png,mask-3.png,s,1,0.7344151996076107,h,0,0.302951299585402,0.04784849938005209,0.04976170044392347,0.09789630025625229,0.09963409975171089,0.7495919996872544
RSVPLG03,km,20260219-162938,1.0.2,20260219-161301,772,Experiment,Both,1,Automatic,main,46,20260219-163403,local,global,750,H,H,A,A,A-H.png,H-A.png,hH,hH,mask-2.png,mask-2.png,h,1,0.5400123000144958,h,1,0.11434440035372972,0.04920860007405281,0.049637400545179844,0.09870580025017262,0.09943039994686842,0.748875199817121
RSVPLG03,km,20260219-162938,1.0.2,20260219-161301,772,Experiment,Both,1,Automatic,main,47,20260219-163407,local,local,300,S,S,E,A,E-S.png,A-S.png,sS,sS,mask-2.png,mask-1.png,s,1,1.4987882003188133,h,0,0.17562109977006912,0.04806479997932911,0.05044310074299574,0.09822279959917068,0.1004775008186698,0.2970013990998268
RSVPLG03,km,20260219-162938,1.0.2,20260219-161301,772,Experiment,Both,1,Automatic,main,48,20260219-163413,local,global,750,S,S,A,A,A-S.png,S-A.png,sS,sS,mask-4.png,mask-1.png,s,1,0.8113826997578144,s,1,0.07959899958223104,0.04853659961372614,0.05008870083838701,0.09919940028339624,0.09898220002651215,0.7491983994841576
RSVPLG03,km,20260219-162938,1.0.2,20260219-161301,772,Experiment,Both,1,Automatic,main,49,20260219-163418,local,local,750,H,H,A,A,A-H.png,A-H.png,hH,hH,mask-2.png,mask-1.png,h,1,0.6100696995854378,h,1,0.0959190996363759,0.05082030035555363,0.049995800480246544,0.10141200013458729,0.0991056002676487,0.7516029998660088
RSVPLG03,km,20260219-162938,1.0.2,20260219-161301,772,Experiment,Both,1,Automatic,main,50,20260219-163423,global,local,750,S,S,A,A,S-A.png,A-S.png,sS,sS,mask-3.png,mask-1.png,s,1,2.9905297001823783,h,0,0.23950760066509247,0.04869560059159994,0.050965700298547745,0.09786600060760975,0.10163019970059395,0.7483091000467539
RSVPLG03,km,20260219-162938,1.0.2,20260219-161301,772,Experiment,Both,1,Automatic,main,51,20260219-163434,local,global,750,H,H,A,E,A-H.png,H-E.png,hH,hH,mask-3.png,mask-1.png,s,0,0.8615803001448512,h,1,1.1042940998449922,0.049961999990046024,0.050125700421631336,0.10017620027065277,0.10015410091727972,0.7500189999118447
RSVPLG03,km,20260219-162938,1.0.2,20260219-161301,772,Experiment,Both,1,Automatic,main,52,20260219-163440,global,global,750,H,H,A,A,H-A.png,H-A.png,hH,hH,mask-2.png,mask-2.png,h,1,1.326351499184966,h,1,0.10366799961775541,0.04976900015026331,0.05071739945560694,0.09988419990986586,0.0989597998559475,0.7498395005241036
RSVPLG03,km,20260219-162938,1.0.2,20260219-161301,772,Experiment,Both,1,Automatic,main,53,20260219-163446,local,global,750,H,H,E,A,E-H.png,H-A.png,hH,hH,mask-4.png,mask-4.png,s,0,0.5054214997217059,h,1,0.31840919982641935,0.05042799934744835,0.05051160044968128,0.1013834998011589,0.10059620067477226,0.7498328993096948
RSVPLG03,km,20260219-162938,1.0.2,20260219-161301,772,Experiment,Both,1,Automatic,main,54,20260219-163451,local,global,300,H,H,A,A,A-H.png,H-A.png,hH,hH,mask-4.png,mask-1.png,h,1,2.606255100108683,h,1,0.10436809994280338,0.048968599177896976,0.048988400027155876,0.09921379946172237,0.09852209966629744,0.30033169966191053
RSVPLG03,km,20260219-162938,1.0.2,20260219-161301,772,Experiment,Both,1,Automatic,main,55,20260219-163457,global,local,750,S,H,E,E,S-E.png,E-H.png,sS,hH,mask-3.png,mask-2.png,s,1,0.8469650996848941,h,1,0.5740163000300527,0.04935989994555712,0.05067730043083429,0.09982859995216131,0.10168770048767328,0.748056199401617
RSVPLG03,km,20260219-162938,1.0.2,20260219-161301,772,Experiment,Both,1,Automatic,main,56,20260219-163503,global,local,300,H,H,A,A,H-A.png,A-H.png,hH,hH,mask-4.png,mask-3.png,h,1,0.5602530995383859,s,0,0.24789380002766848,0.04935870040208101,0.04815470054745674,0.09883810020983219,0.09842650033533573,0.30018389970064163
RSVPLG03,km,20260219-162938,1.0.2,20260219-161301,772,Experiment,Both,1,Automatic,main,57,20260219-163507,global,global,300,S,S,E,A,S-E.png,S-A.png,sS,sS,mask-2.png,mask-3.png,s,1,0.5855696005746722,h,0,0.20656610000878572,0.05017060041427612,0.04932370036840439,0.09927229955792427,0.10023059975355864,0.29902209993451834
RSVPLG03,km,20260219-162938,1.0.2,20260219-161301,772,Experiment,Both,1,Automatic,main,58,20260219-163512,global,local,300,H,H,E,E,H-E.png,E-H.png,hH,hH,mask-4.png,mask-1.png,h,1,2.2137505998834968,h,1,0.09616800025105476,0.050157999619841576,0.049144900403916836,0.10031380038708448,0.09920710045844316,0.300989699549973
RSVPLG03,km,20260219-162938,1.0.2,20260219-161301,772,Experiment,Both,1,Automatic,main,59,20260219-163518,local,global,750,H,H,E,E,E-H.png,H-E.png,hH,hH,mask-3.png,mask-2.png,h,1,1.1876463005319238,h,1,0.06923909951001406,0.050990600138902664,0.051326499320566654,0.09973879996687174,0.10068110004067421,0.7493684003129601
RSVPLG03,km,20260219-162938,1.0.2,20260219-161301,772,Experiment,Both,1,Automatic,main,60,20260219-163523,local,local,300,S,S,E,E,E-S.png,E-S.png,sS,sS,mask-2.png,mask-3.png,s,1,0.560542399995029,s,1,0.06974049936980009,0.05068819969892502,0.0490920003503561,0.10008429922163486,0.10020199976861477,0.30115559976547956
RSVPLG03,km,20260219-162938,1.0.2,20260219-161301,772,Experiment,Both,1,Automatic,main,61,20260219-163528,global,local,750,S,H,A,A,S-A.png,A-H.png,sS,hH,mask-4.png,mask-1.png,s,1,1.3385669998824596,h,1,0.22955999989062548,0.04909470025449991,0.05115070007741451,0.099227299913764,0.10033900011330843,0.7498987996950746
RSVPLG03,km,20260219-162938,1.0.2,20260219-161301,772,Experiment,Both,1,Automatic,main,62,20260219-163533,local,local,750,H,H,A,A,A-H.png,A-H.png,hH,hH,mask-1.png,mask-4.png,h,1,1.737613300792873,s,0,0.08411969989538193,0.049860200844705105,0.04923170059919357,0.09975160006433725,0.10065310075879097,0.7491651000455022
RSVPLG03,km,20260219-162938,1.0.2,20260219-161301,772,Experiment,Both,1,Automatic,main,63,20260219-163539,global,local,300,H,S,A,E,H-A.png,E-S.png,hH,sS,mask-2.png,mask-4.png,h,1,1.62475430034101,s,1,0.039180099964141846,0.05045249965041876,0.04862869996577501,0.10109749995172024,0.09993729926645756,0.3008184004575014
RSVPLG03,km,20260219-162938,1.0.2,20260219-161301,772,Experiment,Both,1,Automatic,main,64,20260219-163545,local,local,300,S,H,A,E,A-S.png,E-H.png,sS,hH,mask-4.png,mask-2.png,s,1,0.5661789998412132,h,1,0.35821960028260946,0.049877800047397614,0.05095630045980215,0.09999260026961565,0.1001086002215743,0.30008819978684187
RSVPLG03,km,20260219-162938,1.0.2,20260219-161301,772,Experiment,Both,1,Automatic,main,65,20260219-163550,global,global,300,H,H,E,E,H-E.png,H-E.png,hH,hH,mask-3.png,mask-1.png,h,1,1.7112118005752563,h,1,0.08700050041079521,0.05010239966213703,0.05118629988282919,0.10047019924968481,0.10113519988954067,0.29866949934512377
RSVPLG03,km,20260219-162938,1.0.2,20260219-161301,772,Experiment,Both,1,Automatic,main,66,20260219-163555,global,local,750,S,H,E,A,S-E.png,A-H.png,sS,hH,mask-3.png,mask-2.png,s,1,0.6754984995350242,h,1,0.4374083997681737,0.049730800092220306,0.048914000391960144,0.09973690006881952,0.09898760076612234,0.7492643995210528
RSVPLG03,km,20260219-162938,1.0.2,20260219-161301,772,Experiment,Both,1,Automatic,main,67,20260219-163600,global,global,300,S,S,E,E,S-E.png,S-E.png,sS,sS,mask-3.png,mask-1.png,s,1,0.5899348994717002,s,1,0.08705030009150505,0.050130500458180904,0.05138409975916147,0.10009230021387339,0.10095420014113188,0.2995183998718858
RSVPLG03,km,20260219-162938,1.0.2,20260219-161301,772,Experiment,Both,1,Automatic,main,68,20260219-163605,local,global,300,S,S,E,A,E-S.png,S-A.png,sS,sS,mask-1.png,mask-4.png,s,1,0.49717279989272356,s,1,0.053897300735116005,0.04880549944937229,0.0498735997825861,0.09902129974216223,0.09904470015317202,0.2988919001072645
RSVPLG03,km,20260219-162938,1.0.2,20260219-161301,772,Experiment,Both,1,Automatic,main,69,20260219-163609,local,local,750,H,H,A,A,A-H.png,A-H.png,hH,hH,mask-4.png,mask-3.png,s,0,0.5519127994775772,h,1,0.12753740046173334,0.050586700439453125,0.04980590008199215,0.09952570032328367,0.10029549989849329,0.7496760003268719
RSVPLG03,km,20260219-162938,1.0.2,20260219-161301,772,Experiment,Both,1,Automatic,main,70,20260219-163614,global,local,300,H,S,A,A,H-A.png,A-S.png,hH,sS,mask-1.png,mask-4.png,h,1,0.6099832002073526,h,0,0.08075490035116673,0.04986630007624626,0.048683700151741505,0.09981049969792366,0.10121560003608465,0.2998190000653267
RSVPLG03,km,20260219-162938,1.0.2,20260219-161301,772,Experiment,Both,1,Automatic,main,71,20260219-163618,local,local,750,S,H,E,A,E-S.png,A-H.png,sS,hH,mask-4.png,mask-1.png,s,1,0.6370032001286745,s,0,0.10333990026265383,0.0500736003741622,0.049739000387489796,0.10048060026019812,0.10180199984461069,0.7504425998777151
RSVPLG03,km,20260219-162938,1.0.2,20260219-161301,772,Experiment,Both,1,Automatic,main,72,20260219-163624,local,local,300,H,S,E,E,E-H.png,E-S.png,hH,sS,mask-2.png,mask-3.png,h,1,0.5244689993560314,s,1,0.09254730027168989,0.04978669993579388,0.04948609974235296,0.10116999968886375,0.10084529966115952,0.2998299999162555
RSVPLG03,km,20260219-162938,1.0.2,20260219-161301,772,Experiment,Both,1,Automatic,main,73,20260219-163628,global,local,750,S,S,E,E,S-E.png,E-S.png,sS,sS,mask-2.png,mask-4.png,s,1,0.5015999004244804,s,1,0.07709320075809956,0.049170500598847866,0.05040550045669079,0.0988443000242114,0.10034599993377924,0.7487653000280261
RSVPLG03,km,20260219-162938,1.0.2,20260219-161301,772,Experiment,Both,1,Automatic,main,74,20260219-163633,local,local,300,S,H,E,A,E-S.png,A-H.png,sS,hH,mask-3.png,mask-4.png,s,1,0.5346494000405073,s,0,0.16013249941170216,0.05085549969226122,0.04891719948500395,0.10083879996091127,0.09918329957872629,0.3007073001936078
RSVPLG03,km,20260219-162938,1.0.2,20260219-161301,772,Experiment,Both,1,Automatic,main,75,20260219-163637,local,local,750,H,H,E,E,E-H.png,E-H.png,hH,hH,mask-1.png,mask-4.png,s,0,0.10454440023750067,s,0,1.1748254001140594,0.048659599386155605,0.04991350043565035,0.09856100007891655,0.09939939994364977,0.7500973995774984
RSVPLG03,km,20260219-162938,1.0.2,20260219-161301,772,Experiment,Both,1,Automatic,main,76,20260219-163645,global,global,300,H,H,E,E,H-E.png,H-E.png,hH,hH,mask-1.png,mask-3.png,h,1,0.48179780039936304,s,0,0.5024062003940344,0.04977450054138899,0.051517500542104244,0.09963410068303347,0.0999148003757,0.2987644001841545
RSVPLG03,km,20260219-162938,1.0.2,20260219-161301,772,Experiment,Both,1,Automatic,main,77,20260219-163649,global,local,750,H,H,A,E,H-A.png,E-H.png,hH,hH,mask-2.png,mask-3.png,s,0,0.3780680000782013,h,1,0.5139543004333973,0.05016759969294071,0.05029760021716356,0.09792449977248907,0.1015675999224186,0.7484721997752786
RSVPLG03,km,20260219-162938,1.0.2,20260219-161301,772,Experiment,Both,1,Automatic,main,78,20260219-163654,local,global,300,S,H,E,A,E-S.png,H-A.png,sS,hH,mask-1.png,mask-1.png,s,1,0.37882359977811575,s,0,0.06377740018069744,0.04992990009486675,0.05173469986766577,0.1000185003504157,0.1003590002655983,0.2979586999863386
RSVPLG03,km,20260219-162938,1.0.2,20260219-161301,772,Experiment,Both,1,Automatic,main,79,20260219-163658,global,global,300,H,H,A,E,H-A.png,H-E.png,hH,hH,mask-4.png,mask-2.png,h,1,0.7443248005583882,h,1,0.09372470062226057,0.050190599635243416,0.050650699995458126,0.100420699454844,0.10092309955507517,0.2998200999572873
RSVPLG03,km,20260219-162938,1.0.2,20260219-161301,772,Experiment,Both,1,Automatic,main,80,20260219-163703,global,local,300,S,S,A,E,S-A.png,E-S.png,sS,sS,mask-2.png,mask-3.png,s,1,2.569684399291873,h,0,0.023735900409519672,0.04875169973820448,0.048797800205647945,0.09884809982031584,0.09826990030705929,0.30094849970191717
RSVPLG03,km,20260219-162938,1.0.2,20260219-161301,772,Experiment,Both,1,Automatic,main,81,20260219-163709,global,global,750,S,S,A,E,S-A.png,S-E.png,sS,sS,mask-3.png,mask-4.png,h,0,0.9471189007163048,h,0,0.0713658994063735,0.05106949992477894,0.05000180006027222,0.1008347999304533,0.10011040046811104,0.7511082999408245
RSVPLG03,km,20260219-162938,1.0.2,20260219-161301,772,Experiment,Both,1,Automatic,main,82,20260219-163714,global,local,750,S,S,A,A,S-A.png,A-S.png,sS,sS,mask-3.png,mask-4.png,h,0,1.496374100446701,h,0,2.3981806999072433,0.048447299748659134,0.04932309966534376,0.09889669995754957,0.09974920004606247,0.7486095000058413
RSVPLG03,km,20260219-162938,1.0.2,20260219-161301,772,Experiment,Both,1,Automatic,main,83,20260219-163722,global,local,750,S,S,E,A,S-E.png,A-S.png,sS,sS,mask-1.png,mask-1.png,s,1,1.078893099911511,s,1,0.05466870032250881,0.04898559954017401,0.050134300254285336,0.09914139937609434,0.100458899512887,0.7473889999091625
RSVPLG03,km,20260219-162938,1.0.2,20260219-161301,772,Experiment,Both,1,Automatic,main,84,20260219-163728,local,global,300,H,S,E,A,E-H.png,S-A.png,hH,sS,mask-4.png,mask-4.png,s,0,0.7880861992016435,h,0,0.3274833997711539,0.04980000015348196,0.049745699390769005,0.10008399933576584,0.10009509976953268,0.3002113001421094
RSVPLG03,km,20260219-162938,1.0.2,20260219-161301,772,Experiment,Both,1,Automatic,main,85,20260219-163733,local,local,750,S,S,A,A,A-S.png,A-S.png,sS,sS,mask-1.png,mask-4.png,h,0,0.42338959965854883,s,1,0.3334900001063943,0.05085210036486387,0.05084500089287758,0.09976870007812977,0.10129540041089058,0.7486097998917103
RSVPLG03,km,20260219-162938,1.0.2,20260219-161301,772,Experiment,Both,1,Automatic,main,86,20260219-163738,global,global,300,S,S,E,E,S-E.png,S-E.png,sS,sS,mask-1.png,mask-1.png,s,1,1.1214938005432487,s,1,0.046642799861729145,0.05080510023981333,0.05002470035105944,0.10142400022596121,0.09910510014742613,0.3012444004416466
RSVPLG03,km,20260219-162938,1.0.2,20260219-161301,772,Experiment,Both,1,Automatic,main,87,20260219-163743,global,local,750,H,S,A,E,H-A.png,E-S.png,hH,sS,mask-4.png,mask-2.png,h,1,0.6863587005063891,s,1,0.30599300004541874,0.04906760063022375,0.048689499497413635,0.09978540055453777,0.09857300017029047,0.7500910004600883
RSVPLG03,km,20260219-162938,1.0.2,20260219-161301,772,Experiment,Both,1,Automatic,main,88,20260219-163748,local,global,300,S,H,A,E,A-S.png,H-E.png,sS,hH,mask-2.png,mask-3.png,s,1,0.6730006001889706,h,1,0.2955351993441582,0.05016680061817169,0.04972799960523844,0.10030970070511103,0.09992419928312302,0.300967700779438
RSVPLG03,km,20260219-162938,1.0.2,20260219-161301,772,Experiment,Both,1,Automatic,main,89,20260219-163753,local,global,300,H,S,A,A,A-H.png,S-A.png,hH,sS,mask-3.png,mask-3.png,h,1,0.4656664002686739,s,1,0.25647270027548075,0.05138819944113493,0.04935560002923012,0.10075659956783056,0.09994960017502308,0.3015304999426007
RSVPLG03,km,20260219-162938,1.0.2,20260219-161301,772,Experiment,Both,1,Automatic,main,90,20260219-163757,local,local,300,H,H,A,E,A-H.png,E-H.png,hH,hH,mask-2.png,mask-4.png,s,0,0.47752439975738525,h,1,0.1979468995705247,0.0489036999642849,0.04851029999554157,0.10003009997308254,0.09984510019421577,0.29914489947259426
RSVPLG03,km,20260219-162938,1.0.2,20260219-161301,772,Experiment,Both,1,Automatic,main,91,20260219-163802,global,local,300,S,S,E,A,S-E.png,A-S.png,sS,sS,mask-2.png,mask-1.png,h,0,0.08204680029302835,s,1,0.14059370011091232,0.049913099966943264,0.04992210026830435,0.09986269939690828,0.09989560022950172,0.3002288993448019
RSVPLG03,km,20260219-162938,1.0.2,20260219-161301,772,Experiment,Both,1,Automatic,main,92,20260219-163806,global,local,300,H,S,E,A,H-E.png,A-S.png,hH,sS,mask-2.png,mask-3.png,s,0,0.5257603991776705,h,0,0.23921590019017458,0.049571399576961994,0.0497187003493309,0.09885969944298267,0.10046050045639277,0.29937069956213236
RSVPLG03,km,20260219-162938,1.0.2,20260219-161301,772,Experiment,Both,1,Automatic,main,93,20260219-163810,global,local,300,H,S,A,A,H-A.png,A-S.png,hH,sS,mask-2.png,mask-1.png,h,1,1.8287973999977112,h,0,0.09820210002362728,0.049948700703680515,0.04907720070332289,0.10002600029110909,0.09898910019546747,0.29907740000635386
RSVPLG03,km,20260219-162938,1.0.2,20260219-161301,772,Experiment,Both,1,Automatic,main,94,20260219-163816,global,global,300,S,S,E,A,S-E.png,S-A.png,sS,sS,mask-2.png,mask-1.png,s,1,0.46772010065615177,h,0,0.2856056001037359,0.04932450037449598,0.049904500134289265,0.10069840028882027,0.1013113996013999,0.29954920057207346
RSVPLG03,km,20260219-162938,1.0.2,20260219-161301,772,Experiment,Both,1,Automatic,main,95,20260219-163820,local,global,300,H,H,A,E,A-H.png,H-E.png,hH,hH,mask-3.png,mask-2.png,h,1,0.3575120996683836,s,0,0.2299623992294073,0.04990740027278662,0.0492449002340436,0.10008710063993931,0.10043510049581528,0.300377800129354
RSVPLG03,km,20260219-162938,1.0.2,20260219-161301,772,Experiment,Both,1,Automatic,main,96,20260219-163825,global,local,300,S,S,A,E,S-A.png,E-S.png,sS,sS,mask-4.png,mask-1.png,s,1,0.40751409996300936,h,0,0.30855430010706186,0.050564699806272984,0.04848970007151365,0.09911249950528145,0.09990559983998537,0.30077689979225397
RSVPLG03,km,20260219-162938,1.0.2,20260219-161301,772,Experiment,Both,1,Automatic,main,97,20260219-163829,local,global,750,S,S,E,A,E-S.png,S-A.png,sS,sS,mask-3.png,mask-2.png,s,1,0.35391429997980595,s,1,0.08015699964016676,0.0499804001301527,0.04997450020164251,0.10006269998848438,0.10007529985159636,0.7497853999957442
RSVPLG03,km,20260219-162938,1.0.2,20260219-161301,772,Experiment,Both,1,Automatic,main,98,20260219-163834,local,global,750,S,H,A,E,A-S.png,H-E.png,sS,hH,mask-3.png,mask-1.png,s,1,1.0140286004170775,s,0,0.05467730015516281,0.05138800013810396,0.050484600476920605,0.10102890059351921,0.10013130027800798,0.7501606000587344
RSVPLG03,km,20260219-162938,1.0.2,20260219-161301,772,Experiment,Both,1,Automatic,main,99,20260219-163839,local,local,750,H,S,E,A,E-H.png,A-S.png,hH,sS,mask-4.png,mask-2.png,s,0,0.4297307999804616,s,1,0.10367549955844879,0.05014150030910969,0.04999320022761822,0.10057380050420761,0.10006139986217022,0.7494858000427485
RSVPLG03,km,20260219-162938,1.0.2,20260219-161301,772,Experiment,Both,1,Automatic,main,100,20260219-163844,local,local,300,S,S,E,E,E-S.png,E-S.png,sS,sS,mask-1.png,mask-1.png,s,1,0.8289854004979134,h,0,0.30428840033710003,0.05091710016131401,0.04988580010831356,0.10091139934957027,0.10006679967045784,0.30060189962387085
RSVPLG03,km,20260219-163913,1.0.2,20260219-161301,772,Experiment,Both,1,Automatic,warmup,1,20260219-163948,global,local,300,H,S,E,A,H-E.png,A-S.png,hH,sS,mask-4.png,mask-1.png,h,1,2.409938800148666,h,0,0.9898238005116582,0.039628599770367146,0.050299299880862236,0.09011369943618774,0.10129670053720474,0.2897496996447444
RSVPLG03,km,20260219-163913,1.0.2,20260219-161301,772,Experiment,Both,1,Automatic,warmup,2,20260219-163956,local,global,300,H,H,E,E,E-H.png,H-E.png,hH,hH,mask-3.png,mask-4.png,h,1,1.1911676004529,h,1,0.07134920079261065,0.049811000004410744,0.04954659938812256,0.10030049923807383,0.10019079968333244,0.3006234997883439
RSVPLG03,km,20260219-163913,1.0.2,20260219-161301,772,Experiment,Both,1,Automatic,warmup,3,20260219-164000,local,global,750,S,H,A,A,A-S.png,H-A.png,sS,hH,mask-4.png,mask-3.png,s,1,1.907214100472629,s,0,0.07122100051492453,0.05047790054231882,0.04901080019772053,0.10044900048524141,0.10003190021961927,0.7508143000304699
RSVPLG03,km,20260219-163913,1.0.2,20260219-161301,772,Experiment,Both,1,Automatic,warmup,4,20260219-164006,local,local,300,S,S,E,A,E-S.png,A-S.png,sS,sS,mask-3.png,mask-3.png,s,1,0.6574566001072526,s,1,0.10144719947129488,0.04953549988567829,0.050516100600361824,0.09947189968079329,0.10025379993021488,0.2994836997240782
RSVPLG03,km,20260219-163913,1.0.2,20260219-161301,772,Experiment,Both,1,Automatic,main,5,20260219-164011,local,local,300,H,H,A,E,A-H.png,E-H.png,hH,hH,mask-3.png,mask-3.png,h,1,0.7228318005800247,s,0,0.3653292004019022,0.04994919989258051,0.05090059991925955,0.09951549954712391,0.10104779992252588,0.2997030997648835
RSVPLG03,km,20260219-163913,1.0.2,20260219-161301,772,Experiment,Both,1,Automatic,main,6,20260219-164016,global,global,750,H,H,E,E,H-E.png,H-E.png,hH,hH,mask-3.png,mask-2.png,h,1,1.752712699584663,h,1,0.08069880027323961,0.0498778996989131,0.049432999454438686,0.10005959961563349,0.10013319924473763,0.7486677998676896
RSVPLG03,km,20260219-163913,1.0.2,20260219-161301,772,Experiment,Both,1,Automatic,main,7,20260219-164022,local,global,750,H,H,A,E,A-H.png,H-E.png,hH,hH,mask-4.png,mask-4.png,s,0,0.7198387999087572,h,1,0.2704753000289202,0.0507057998329401,0.05264339968562126,0.10150799993425608,0.0978073999285698,0.7519549001008272
RSVPLG03,km,20260219-163913,1.0.2,20260219-161301,772,Experiment,Both,1,Automatic,main,8,20260219-164027,global,local,300,S,H,E,E,S-E.png,E-H.png,sS,hH,mask-4.png,mask-3.png,h,0,0.331437099725008,s,0,0.23952220007777214,0.048568799160420895,0.05030780006200075,0.09855119977146387,0.10068370029330254,0.29870899952948093
RSVPLG03,km,20260219-163913,1.0.2,20260219-161301,772,Experiment,Both,1,Automatic,main,9,20260219-164031,global,global,750,H,S,A,A,H-A.png,S-A.png,hH,sS,mask-2.png,mask-1.png,s,0,0.40639830008149147,s,1,0.6624822998419404,0.050077599473297596,0.048116100020706654,0.10014309920370579,0.09899530000984669,0.751359399408102
RSVPLG03,km,20260219-163913,1.0.2,20260219-161301,772,Experiment,Both,1,Automatic,main,10,20260219-164037,global,global,750,H,S,E,A,H-E.png,S-A.png,hH,sS,mask-2.png,mask-2.png,h,1,0.7685651993378997,s,1,0.4075477998703718,0.04988850001245737,0.04848260059952736,0.09984339959919453,0.09805370029062033,0.7496552998200059
RSVPLG03,km,20260219-163913,1.0.2,20260219-161301,772,Experiment,Both,1,Automatic,main,11,20260219-164042,local,local,750,S,S,E,E,E-S.png,E-S.png,sS,sS,mask-1.png,mask-3.png,s,1,0.630371299572289,h,0,0.529093099758029,0.050042799673974514,0.049953299574553967,0.09994389954954386,0.10076489951461554,0.749223199672997
RSVPLG03,km,20260219-163913,1.0.2,20260219-161301,772,Experiment,Both,1,Automatic,main,12,20260219-164048,global,global,750,S,H,A,E,S-A.png,H-E.png,sS,hH,mask-1.png,mask-2.png,s,1,0.6781974006444216,h,1,0.3001090995967388,0.049691000021994114,0.049843800254166126,0.09933450073003769,0.09975550044327974,0.751714900135994
RSVPLG03,km,20260219-163913,1.0.2,20260219-161301,772,Experiment,Both,1,Automatic,main,13,20260219-164053,local,local,300,S,S,A,A,A-S.png,A-S.png,sS,sS,mask-1.png,mask-4.png,h,0,0.57128069922328,s,1,0.29482509940862656,0.04902180004864931,0.04998159967362881,0.10028660017997026,0.10071179922670126,0.2994367005303502
RSVPLG03,km,20260219-163913,1.0.2,20260219-161301,772,Experiment,Both,1,Automatic,main,14,20260219-164057,local,global,750,S,S,A,A,A-S.png,S-A.png,sS,sS,mask-4.png,mask-1.png,s,1,0.37933170050382614,h,0,0.3757504001259804,0.05140300001949072,0.04984910041093826,0.10124929994344711,0.10038140043616295,0.7509113000705838
RSVPLG03,km,20260219-163913,1.0.2,20260219-161301,772,Experiment,Both,1,Automatic,main,15,20260219-164102,global,local,300,H,S,A,A,H-A.png,A-S.png,hH,sS,mask-2.png,mask-3.png,h,1,0.42082419991493225,s,1,0.31959160044789314,0.049871900118887424,0.050982299260795116,0.09980349987745285,0.09965759981423616,0.2989321006461978
RSVPLG03,km,20260219-163913,1.0.2,20260219-161301,772,Experiment,Both,1,Automatic,main,16,20260219-164107,global,global,300,S,S,E,A,S-E.png,S-A.png,sS,sS,mask-1.png,mask-4.png,s,1,0.620108999311924,h,0,0.39093320071697235,0.04983279947191477,0.048836300149559975,0.10121659934520721,0.09874400030821562,0.3015641998499632
RSVPLG03,km,20260219-163913,1.0.2,20260219-161301,772,Experiment,Both,1,Automatic,main,17,20260219-164112,global,local,300,H,S,A,A,H-A.png,A-S.png,hH,sS,mask-3.png,mask-3.png,h,1,0.39569379948079586,s,1,0.518019899725914,0.0495490999892354,0.04987320024520159,0.10048270039260387,0.09990429971367121,0.30021240003407
RSVPLG03,km,20260219-163913,1.0.2,20260219-161301,772,Experiment,Both,1,Automatic,main,18,20260219-164117,global,global,750,H,S,A,E,H-A.png,S-E.png,hH,sS,mask-1.png,mask-3.png,s,0,0.38627720065414906,h,0,0.33321120031178,0.04853839986026287,0.04977310076355934,0.09952370077371597,0.10005130060017109,0.7505042999982834
RSVPLG03,km,20260219-163913,1.0.2,20260219-161301,772,Experiment,Both,1,Automatic,main,19,20260219-164121,global,local,750,H,S,A,A,H-A.png,A-S.png,hH,sS,mask-3.png,mask-4.png,h,1,0.4391246000304818,s,1,0.4287026999518275,0.04975910019129515,0.05023130029439926,0.09955140016973019,0.09954840037971735,0.7491437001153827
RSVPLG03,km,20260219-163913,1.0.2,20260219-161301,772,Experiment,Both,1,Automatic,main,20,20260219-164127,local,global,300,S,H,A,A,A-S.png,H-A.png,sS,hH,mask-2.png,mask-3.png,s,1,1.251998900435865,h,1,0.2712414003908634,0.050829799845814705,0.04988509975373745,0.09978900011628866,0.09987560007721186,0.2997800996527076
RSVPLG03,km,20260219-163913,1.0.2,20260219-161301,772,Experiment,Both,1,Automatic,main,21,20260219-164132,global,local,300,H,S,E,E,H-E.png,E-S.png,hH,sS,mask-4.png,mask-4.png,s,0,0.6847163001075387,s,1,0.1765021998435259,0.05041490029543638,0.04839759971946478,0.10004250053316355,0.09869659971445799,0.30110220052301884
RSVPLG03,km,20260219-163913,1.0.2,20260219-161301,772,Experiment,Both,1,Automatic,main,22,20260219-164136,local,local,300,S,S,E,E,E-S.png,E-S.png,sS,sS,mask-2.png,mask-1.png,s,1,0.8675188003107905,s,1,0.10284059960395098,0.04972490016371012,0.04926090035587549,0.10057289991527796,0.10009140055626631,0.3000139994546771
RSVPLG03,km,20260219-163913,1.0.2,20260219-161301,772,Experiment,Both,1,Automatic,main,23,20260219-164141,local,global,300,H,S,E,E,E-H.png,S-E.png,hH,sS,mask-1.png,mask-1.png,h,1,0.8009411999955773,h,0,0.15917540062218904,0.04971810057759285,0.04816580004990101,0.09997110068798065,0.09876700025051832,0.3004914000630379
RSVPLG03,km,20260219-163913,1.0.2,20260219-161301,772,Experiment,Both,1,Automatic,main,24,20260219-164146,global,global,300,S,S,A,A,S-A.png,S-A.png,sS,sS,mask-3.png,mask-3.png,s,1,0.457013500854373,h,0,0.2301480993628502,0.049595500342547894,0.04902479983866215,0.09865039959549904,0.09909779950976372,0.29975750017911196
RSVPLG03,km,20260219-163913,1.0.2,20260219-161301,772,Experiment,Both,1,Automatic,main,25,20260219-164150,global,global,300,S,S,E,A,S-E.png,S-A.png,sS,sS,mask-4.png,mask-2.png,s,1,0.3998113004490733,h,0,1.1825299998745322,0.04884409997612238,0.048842599615454674,0.09977479930967093,0.09995159972459078,0.3000619998201728
RSVPLG03,km,20260219-163913,1.0.2,20260219-161301,772,Experiment,Both,1,Automatic,main,26,20260219-164157,global,local,750,S,H,E,E,S-E.png,E-H.png,sS,hH,mask-2.png,mask-4.png,h,0,1.608665299601853,s,0,0.23810920026153326,0.049945599399507046,0.050613599829375744,0.09952120017260313,0.09962250012904406,0.7493695998564363
RSVPLG03,km,20260219-163913,1.0.2,20260219-161301,772,Experiment,Both,1,Automatic,main,27,20260219-164203,local,local,300,S,H,A,E,A-S.png,E-H.png,sS,hH,mask-3.png,mask-1.png,s,1,0.4593620002269745,h,1,0.31871540006250143,0.05093180015683174,0.04995239991694689,0.10054499935358763,0.09997290000319481,0.29990020021796227
RSVPLG03,km,20260219-163913,1.0.2,20260219-161301,772,Experiment,Both,1,Automatic,main,28,20260219-164208,local,local,750,H,H,E,E,E-H.png,E-H.png,hH,hH,mask-2.png,mask-2.png,h,1,0.15960210002958775,s,0,0.36907120048999786,0.05016500037163496,0.049602000042796135,0.09965990018099546,0.10015380010008812,0.7510188994929194
RSVPLG03,km,20260219-163913,1.0.2,20260219-161301,772,Experiment,Both,1,Automatic,main,29,20260219-164213,global,global,750,S,H,A,E,S-A.png,H-E.png,sS,hH,mask-4.png,mask-4.png,s,1,0.46399439964443445,s,0,1.1838978994637728,0.048830400221049786,0.050879400223493576,0.0987464003264904,0.1004491001367569,0.74903570022434
RSVPLG03,km,20260219-163913,1.0.2,20260219-161301,772,Experiment,Both,1,Automatic,main,30,20260219-164219,global,local,750,H,S,A,A,H-A.png,A-S.png,hH,sS,mask-4.png,mask-1.png,s,0,0.9831106001511216,s,1,0.16755110025405884,0.049882800318300724,0.04909539967775345,0.09877150040119886,0.10012819990515709,0.7487288005650043
RSVPLG03,km,20260219-163913,1.0.2,20260219-161301,772,Experiment,Both,1,Automatic,main,31,20260219-164224,local,global,750,H,H,E,A,E-H.png,H-A.png,hH,hH,mask-2.png,mask-1.png,h,1,0.9251592000946403,s,0,0.0795636996626854,0.050089200027287006,0.04959960002452135,0.09905039984732866,0.0994281005114317,0.750140399672091
RSVPLG03,km,20260219-163913,1.0.2,20260219-161301,772,Experiment,Both,1,Automatic,main,32,20260219-164229,local,local,750,H,H,E,E,E-H.png,E-H.png,hH,hH,mask-2.png,mask-4.png,h,1,0.8147513996809721,h,1,0.11905590072274208,0.05149869993329048,0.05140579957515001,0.10126119945198298,0.10180510021746159,0.749766199849546
RSVPLG03,km,20260219-163913,1.0.2,20260219-161301,772,Experiment,Both,1,Automatic,main,33,20260219-164234,global,global,300,H,S,E,E,H-E.png,S-E.png,hH,sS,mask-2.png,mask-3.png,s,0,0.5156076997518539,h,0,0.3894797991961241,0.05002070032060146,0.04990189988166094,0.10127400048077106,0.1000388003885746,0.30085960030555725
RSVPLG03,km,20260219-163913,1.0.2,20260219-161301,772,Experiment,Both,1,Automatic,main,34,20260219-164239,local,local,300,S,H,A,E,A-S.png,E-H.png,sS,hH,mask-1.png,mask-3.png,h,0,0.369870999827981,s,0,0.33555500023067,0.04877089988440275,0.05010339990258217,0.09957250021398067,0.10022650007158518,0.29942170064896345
RSVPLG03,km,20260219-163913,1.0.2,20260219-161301,772,Experiment,Both,1,Automatic,main,35,20260219-164243,local,local,300,H,H,A,E,A-H.png,E-H.png,hH,hH,mask-3.png,mask-1.png,s,0,0.32211700081825256,h,1,0.38880820013582706,0.050252899527549744,0.04920420050621033,0.09973279945552349,0.10084620025008917,0.29988359939306974
RSVPLG03,km,20260219-163913,1.0.2,20260219-161301,772,Experiment,Both,1,Automatic,main,36,20260219-164248,global,global,300,S,S,E,E,S-E.png,S-E.png,sS,sS,mask-2.png,mask-4.png,h,0,0.22944539971649647,s,1,0.3396629998460412,0.05087160039693117,0.049878500401973724,0.10078660026192665,0.10092279966920614,0.29966669995337725
RSVPLG03,km,20260219-163913,1.0.2,20260219-161301,772,Experiment,Both,1,Automatic,main,37,20260219-164252,local,global,300,H,S,A,A,A-H.png,S-A.png,hH,sS,mask-2.png,mask-2.png,h,1,0.6595136001706123,s,1,0.41510470025241375,0.04985420033335686,0.05012169945985079,0.09876979980617762,0.100318499840796,0.2989669004455209
RSVPLG03,km,20260219-163913,1.0.2,20260219-161301,772,Experiment,Both,1,Automatic,main,38,20260219-164257,global,local,750,H,H,E,A,H-E.png,A-H.png,hH,hH,mask-2.png,mask-3.png,s,0,0.4428502004593611,h,1,0.35950789973139763,0.05087469983845949,0.05023169983178377,0.09970649983733892,0.09955309983342886,0.7494330005720258
RSVPLG03,km,20260219-163913,1.0.2,20260219-161301,772,Experiment,Both,1,Automatic,main,39,20260219-164302,local,local,750,H,H,E,A,E-H.png,A-H.png,hH,hH,mask-1.png,mask-3.png,h,1,0.7990415999665856,h,1,0.13581600040197372,0.04982919991016388,0.04982119984924793,0.10066560003906488,0.10065999999642372,0.7502568997442722
RSVPLG03,km,20260219-163913,1.0.2,20260219-161301,772,Experiment,Both,1,Automatic,main,40,20260219-164307,global,global,750,S,H,A,A,S-A.png,H-A.png,sS,hH,mask-4.png,mask-2.png,s,1,0.43906239978969097,s,0,0.14947909954935312,0.05048520024865866,0.050526500679552555,0.09998090006411076,0.1003133999183774,0.7504048999398947
RSVPLG03,km,20260219-163913,1.0.2,20260219-161301,772,Experiment,Both,1,Automatic,main,41,20260219-164312,local,global,750,H,S,A,E,A-H.png,S-E.png,hH,sS,mask-1.png,mask-3.png,h,1,0.7138252994045615,s,1,0.30348030012100935,0.04924069996923208,0.0508762001991272,0.0997806005179882,0.100768500007689,0.7495566001161933
RSVPLG03,km,20260219-163913,1.0.2,20260219-161301,772,Experiment,Both,1,Automatic,main,42,20260219-164317,local,global,300,S,S,A,E,A-S.png,S-E.png,sS,sS,mask-2.png,mask-1.png,s,1,2.6034177001565695,h,0,0.4783822000026703,0.04978709947317839,0.04877899959683418,0.09935390017926693,0.09958610031753778,0.3013426000252366
RSVPLG03,km,20260219-163913,1.0.2,20260219-161301,772,Experiment,Both,1,Automatic,main,43,20260219-164324,local,local,750,H,H,E,A,E-H.png,A-H.png,hH,hH,mask-1.png,mask-3.png,h,1,0.302169400267303,h,1,0.5434563998132944,0.049683600664138794,0.05079920031130314,0.09847780037671328,0.10064379964023829,0.7505462002009153
RSVPLG03,km,20260219-163913,1.0.2,20260219-161301,772,Experiment,Both,1,Automatic,main,44,20260219-164329,local,global,750,S,S,A,E,A-S.png,S-E.png,sS,sS,mask-3.png,mask-3.png,s,1,0.7565091997385025,h,0,0.28753519989550114,0.05003800056874752,0.049931700341403484,0.09885140042752028,0.10006990004330873,0.7489173002541065
RSVPLG03,km,20260219-163913,1.0.2,20260219-161301,772,Experiment,Both,1,Automatic,main,45,20260219-164335,local,global,750,H,H,E,E,E-H.png,H-E.png,hH,hH,mask-4.png,mask-4.png,s,0,1.5735959000885487,s,0,0.15093579981476068,0.04947179928421974,0.04974319972097874,0.09958549961447716,0.10043259989470243,0.7498864997178316
RSVPLG03,km,20260219-163913,1.0.2,20260219-161301,772,Experiment,Both,1,Automatic,main,46,20260219-164340,global,local,300,H,H,E,E,H-E.png,E-H.png,hH,hH,mask-2.png,mask-4.png,h,1,0.35604480002075434,s,0,0.17353159934282303,0.0503602996468544,0.050223699770867825,0.09967289958149195,0.10045680031180382,0.30011869966983795
RSVPLG03,km,20260219-163913,1.0.2,20260219-161301,772,Experiment,Both,1,Automatic,main,47,20260219-164345,global,local,300,S,S,A,A,S-A.png,A-S.png,sS,sS,mask-2.png,mask-2.png,s,1,0.4354768004268408,h,0,0.2309923991560936,0.050653000362217426,0.04957779962569475,0.10044150054454803,0.09943350031971931,0.3008946003392339
RSVPLG03,km,20260219-163913,1.0.2,20260219-161301,772,Experiment,Both,1,Automatic,main,48,20260219-164349,global,local,750,H,S,E,A,H-E.png,A-S.png,hH,sS,mask-1.png,mask-2.png,h,1,0.5035801008343697,h,0,0.09451809991151094,0.049009199254214764,0.049032699316740036,0.09930509980767965,0.099278399720788,0.7505238000303507
RSVPLG03,km,20260219-163913,1.0.2,20260219-161301,772,Experiment,Both,1,Automatic,main,49,20260219-164354,global,local,300,H,H,E,E,H-E.png,E-H.png,hH,hH,mask-4.png,mask-3.png,s,0,0.48166519962251186,h,1,0.3240040000528097,0.04985809978097677,0.05084409937262535,0.10193250048905611,0.09860160015523434,0.3001762004569173
RSVPLG03,km,20260219-163913,1.0.2,20260219-161301,772,Experiment,Both,1,Automatic,main,50,20260219-164359,local,local,300,H,S,E,E,E-H.png,E-S.png,hH,sS,mask-1.png,mask-2.png,h,1,1.039923599921167,s,1,0.35979640018194914,0.05039819981902838,0.050378999672830105,0.10104000009596348,0.10078519955277443,0.3001945000141859
RSVPLG03,km,20260219-163913,1.0.2,20260219-161301,772,Experiment,Both,1,Automatic,main,51,20260219-164417,global,global,300,S,S,A,A,S-A.png,S-A.png,sS,sS,mask-1.png,mask-4.png,s,1,0.3908235998824239,s,1,0.11195139959454536,0.05072360020130873,0.050775500014424324,0.09986730013042688,0.09933799970895052,0.3009312003850937
RSVPLG03,km,20260219-163913,1.0.2,20260219-161301,772,Experiment,Both,1,Automatic,main,52,20260219-164421,global,global,750,S,H,E,E,S-E.png,H-E.png,sS,hH,mask-3.png,mask-4.png,s,1,0.6628853995352983,s,0,0.1183028006926179,0.05012420006096363,0.05190220009535551,0.09922469966113567,0.10187149979174137,0.7500018998980522
RSVPLG03,km,20260219-163913,1.0.2,20260219-161301,772,Experiment,Both,1,Automatic,main,53,20260219-164426,global,global,750,S,S,E,A,S-E.png,S-A.png,sS,sS,mask-4.png,mask-1.png,h,0,1.0879046004265547,s,1,0.6701376996934414,0.050697099417448044,0.04990260023623705,0.10045429971069098,0.09855290036648512,0.7511220993474126
RSVPLG03,km,20260219-163913,1.0.2,20260219-161301,772,Experiment,Both,1,Automatic,main,54,20260219-164432,global,global,300,S,H,E,A,S-E.png,H-A.png,sS,hH,mask-4.png,mask-4.png,s,1,0.6144071007147431,h,1,0.3815306993201375,0.049855099990963936,0.04992539994418621,0.098811199888587,0.09898229967802763,0.3001648001372814
RSVPLG03,km,20260219-163913,1.0.2,20260219-161301,772,Experiment,Both,1,Automatic,main,55,20260219-164437,global,local,300,S,H,E,A,S-E.png,A-H.png,sS,hH,mask-3.png,mask-1.png,s,1,0.44765729922801256,h,1,0.23988880030810833,0.050448400899767876,0.05014569964259863,0.09870750084519386,0.09915609937161207,0.30047300085425377
RSVPLG03,km,20260219-163913,1.0.2,20260219-161301,772,Experiment,Both,1,Automatic,main,56,20260219-164441,global,local,750,S,S,E,E,S-E.png,E-S.png,sS,sS,mask-3.png,mask-3.png,s,1,0.6219750000163913,h,0,0.26285270042717457,0.05021420028060675,0.050733599811792374,0.0992807000875473,0.10138159990310669,0.7496032007038593
RSVPLG03,km,20260219-163913,1.0.2,20260219-161301,772,Experiment,Both,1,Automatic,main,57,20260219-164447,local,local,750,H,H,A,A,A-H.png,A-H.png,hH,hH,mask-3.png,mask-4.png,h,1,0.35713860020041466,h,1,0.10393689945340157,0.04902980010956526,0.049973499961197376,0.09898749925196171,0.09998689964413643,0.7488714996725321
RSVPLG03,km,20260219-163913,1.0.2,20260219-161301,772,Experiment,Both,1,Automatic,main,58,20260219-164451,global,global,750,H,H,E,A,H-E.png,H-A.png,hH,hH,mask-4.png,mask-3.png,s,0,1.1548184994608164,h,1,0.3445100001990795,0.049689400009810925,0.05013450048863888,0.09845929965376854,0.10005370061844587,0.7503817994147539
RSVPLG03,km,20260219-163913,1.0.2,20260219-161301,772,Experiment,Both,1,Automatic,main,59,20260219-164457,local,local,300,S,H,A,E,A-S.png,E-H.png,sS,hH,mask-4.png,mask-2.png,h,0,0.8267125003039837,h,1,0.08747540041804314,0.04944339953362942,0.05101059935986996,0.10019759926944971,0.10056489985436201,0.29863560013473034
RSVPLG03,km,20260219-163913,1.0.2,20260219-161301,772,Experiment,Both,1,Automatic,main,60,20260219-164502,local,global,300,S,H,A,A,A-S.png,H-A.png,sS,hH,mask-2.png,mask-1.png,h,0,1.9313698997721076,h,1,0.10151879955083132,0.04991499986499548,0.04985610023140907,0.09984919987618923,0.0987670999020338,0.30069969967007637
RSVPLG03,km,20260219-163913,1.0.2,20260219-161301,772,Experiment,Both,1,Automatic,main,61,20260219-164507,local,global,750,S,S,A,E,A-S.png,S-E.png,sS,sS,mask-1.png,mask-3.png,h,0,0.6372982002794743,s,1,1.514079499989748,0.04873669985681772,0.04850490018725395,0.09943890012800694,0.09897490032017231,0.7499191993847489
RSVPLG03,km,20260219-163913,1.0.2,20260219-161301,772,Experiment,Both,1,Automatic,main,62,20260219-164514,global,global,300,S,S,A,E,S-A.png,S-E.png,sS,sS,mask-2.png,mask-2.png,h,0,0.7758680004626513,h,0,0.5409425003454089,0.050661200657486916,0.049649699591100216,0.10083780065178871,0.10106579959392548,0.30069890059530735
RSVPLG03,km,20260219-163913,1.0.2,20260219-161301,772,Experiment,Both,1,Automatic,main,63,20260219-164519,local,local,750,S,H,A,E,A-S.png,E-H.png,sS,hH,mask-2.png,mask-2.png,s,1,0.5163011001423001,h,1,0.24781470000743866,0.05080430023372173,0.05010810028761625,0.1010165000334382,0.10022460017353296,0.7509460998699069
RSVPLG03,km,20260219-163913,1.0.2,20260219-161301,772,Experiment,Both,1,Automatic,main,64,20260219-164524,global,local,300,H,H,A,E,H-A.png,E-H.png,hH,hH,mask-4.png,mask-1.png,h,1,0.5445371996611357,s,0,0.2725751996040344,0.04969180002808571,0.049699800089001656,0.09912530053406954,0.09911240078508854,0.2999422997236252
RSVPLG03,km,20260219-163913,1.0.2,20260219-161301,772,Experiment,Both,1,Automatic,main,65,20260219-164528,local,global,300,S,H,A,A,A-S.png,H-A.png,sS,hH,mask-4.png,mask-2.png,s,1,0.7497307006269693,s,0,0.1366619998589158,0.05006860010325909,0.05003549996763468,0.10080590005964041,0.10064700059592724,0.2996151000261307
RSVPLG03,km,20260219-163913,1.0.2,20260219-161301,772,Experiment,Both,1,Automatic,main,66,20260219-164533,global,local,750,H,H,E,E,H-E.png,E-H.png,hH,hH,mask-1.png,mask-2.png,s,0,0.09469010028988123,h,1,1.004887199960649,0.04950040020048618,0.04924460034817457,0.09932699985802174,0.09958920069038868,0.750047099776566
RSVPLG03,km,20260219-163913,1.0.2,20260219-161301,772,Experiment,Both,1,Automatic,main,67,20260219-164538,local,global,750,S,S,E,A,E-S.png,S-A.png,sS,sS,mask-2.png,mask-2.png,h,0,0.7898367997258902,h,0,0.5944956000894308,0.04990139976143837,0.05083109997212887,0.10002959985285997,0.10073450021445751,0.7504051998257637
RSVPLG03,km,20260219-163913,1.0.2,20260219-161301,772,Experiment,Both,1,Automatic,main,68,20260219-164544,global,local,750,H,H,E,A,H-E.png,A-H.png,hH,hH,mask-4.png,mask-4.png,s,0,0.5417261999100447,h,1,0.38437330070883036,0.049746000207960606,0.04898149985820055,0.09998629987239838,0.09900410007685423,0.750700599513948
RSVPLG03,km,20260219-163913,1.0.2,20260219-161301,772,Experiment,Both,1,Automatic,main,69,20260219-164549,global,local,750,H,H,A,A,H-A.png,A-H.png,hH,hH,mask-3.png,mask-1.png,h,1,0.12327220011502504,s,0,0.3906773002818227,0.05042610038071871,0.0501777995377779,0.09986700024455786,0.10135719925165176,0.7487489003688097
RSVPLG03,km,20260219-163913,1.0.2,20260219-161301,772,Experiment,Both,1,Automatic,main,70,20260219-164554,local,global,300,H,S,A,A,A-H.png,S-A.png,hH,sS,mask-1.png,mask-2.png,h,1,0.4053264996036887,h,0,1.5346079003065825,0.04857289977371693,0.050211300142109394,0.09908369928598404,0.0992347002029419,0.29881859943270683
RSVPLG03,km,20260219-163913,1.0.2,20260219-161301,772,Experiment,Both,1,Automatic,main,71,20260219-164559,local,local,300,H,H,E,E,E-H.png,E-H.png,hH,hH,mask-3.png,mask-3.png,s,0,0.4521160004660487,h,1,1.0952994003891945,0.0508797001093626,0.0482590002939105,0.09979810006916523,0.09824459999799728,0.30138539988547564
RSVPLG03,km,20260219-163913,1.0.2,20260219-161301,772,Experiment,Both,1,Automatic,main,72,20260219-164605,global,local,750,H,H,A,E,H-A.png,E-H.png,hH,hH,mask-4.png,mask-4.png,h,1,0.3040031995624304,h,1,0.8537461999803782,0.04957230016589165,0.05097740050405264,0.10053900070488453,0.10154510010033846,0.7499136002734303
RSVPLG03,km,20260219-163913,1.0.2,20260219-161301,772,Experiment,Both,1,Automatic,main,73,20260219-164610,local,local,750,S,S,A,A,A-S.png,A-S.png,sS,sS,mask-2.png,mask-1.png,s,1,1.8485361002385616,s,1,0.1115156002342701,0.04982380010187626,0.04980639927089214,0.10034999996423721,0.10078029986470938,0.7496290002018213
RSVPLG03,km,20260219-163913,1.0.2,20260219-161301,772,Experiment,Both,1,Automatic,main,74,20260219-164616,local,global,300,H,H,E,A,E-H.png,H-A.png,hH,hH,mask-1.png,mask-4.png,h,1,0.6639479007571936,h,1,0.10656860005110502,0.049446700140833855,0.048634400591254234,0.10012559965252876,0.09805470053106546,0.30009329970926046
RSVPLG03,km,20260219-163913,1.0.2,20260219-161301,772,Experiment,Both,1,Automatic,main,75,20260219-164621,local,global,750,S,S,A,E,A-S.png,S-E.png,sS,sS,mask-4.png,mask-3.png,s,1,0.2730614999309182,s,1,0.11566520016640425,0.04988160077482462,0.050337400287389755,0.10039480030536652,0.10230750031769276,0.7501558000221848
RSVPLG03,km,20260219-163913,1.0.2,20260219-161301,772,Experiment,Both,1,Automatic,main,76,20260219-164627,local,local,750,S,S,A,A,A-S.png,A-S.png,sS,sS,mask-1.png,mask-1.png,h,0,0.5252451002597809,h,0,0.11123319994658232,0.04992480017244816,0.05011040065437555,0.09992930013686419,0.10191390011459589,0.7488719997927547
RSVPLG03,km,20260219-163913,1.0.2,20260219-161301,772,Experiment,Both,1,Automatic,main,77,20260219-164631,global,local,300,H,H,A,E,H-A.png,E-H.png,hH,hH,mask-3.png,mask-4.png,s,0,0.47716130036860704,h,1,0.42174969986081123,0.05002420023083687,0.04963719937950373,0.10138980019837618,0.10025830008089542,0.3005520002916455
RSVPLG03,km,20260219-163913,1.0.2,20260219-161301,772,Experiment,Both,1,Automatic,main,78,20260219-164636,local,local,750,H,S,A,E,A-H.png,E-S.png,hH,sS,mask-4.png,mask-3.png,h,1,0.4150888007134199,h,0,0.11227899976074696,0.05090409982949495,0.049827899783849716,0.10080239921808243,0.09978219959884882,0.7512403996661305
RSVPLG03,km,20260219-163913,1.0.2,20260219-161301,772,Experiment,Both,1,Automatic,main,79,20260219-164641,local,global,300,S,H,A,E,A-S.png,H-E.png,sS,hH,mask-3.png,mask-4.png,s,1,0.48107040021568537,s,0,0.23942230083048344,0.0498989000916481,0.050434499979019165,0.09996839985251427,0.10058940015733242,0.2999144997447729
RSVPLG03,km,20260219-163913,1.0.2,20260219-161301,772,Experiment,Both,1,Automatic,main,80,20260219-164645,local,local,300,S,H,E,E,E-S.png,E-H.png,sS,hH,mask-2.png,mask-2.png,s,1,0.5182464001700282,h,1,0.3410106999799609,0.05084159970283508,0.05012970045208931,0.10007649939507246,0.10076609998941422,0.30054769944399595
RSVPLG03,km,20260219-163913,1.0.2,20260219-161301,772,Experiment,Both,1,Automatic,main,81,20260219-164650,global,local,750,H,H,E,A,H-E.png,A-H.png,hH,hH,mask-4.png,mask-2.png,h,1,1.6092119999229908,h,1,0.11661150027066469,0.05069199949502945,0.048854099586606026,0.10087089985609055,0.09948759991675615,0.7523149000480771
RSVPLG03,km,20260219-163913,1.0.2,20260219-161301,772,Experiment,Both,1,Automatic,main,82,20260219-164656,global,local,300,S,H,E,E,S-E.png,E-H.png,sS,hH,mask-1.png,mask-4.png,s,1,0.7585238004103303,h,1,0.28788179997354746,0.04837790038436651,0.04952799994498491,0.09836260043084621,0.09963890071958303,0.2993104998022318
RSVPLG03,km,20260219-163913,1.0.2,20260219-161301,772,Experiment,Both,1,Automatic,main,83,20260219-164701,global,local,300,S,H,E,E,S-E.png,E-H.png,sS,hH,mask-3.png,mask-1.png,h,0,0.4725347999483347,h,1,0.15140119940042496,0.04980840068310499,0.0518757002428174,0.10058230068534613,0.09949189983308315,0.3001033002510667
RSVPLG03,km,20260219-163913,1.0.2,20260219-161301,772,Experiment,Both,1,Automatic,main,84,20260219-164705,local,global,300,S,S,A,E,A-S.png,S-E.png,sS,sS,mask-2.png,mask-1.png,s,1,0.4037743993103504,h,0,0.32635619957000017,0.05066729988902807,0.05098020005971193,0.09981529973447323,0.1015800004824996,0.29900529980659485
RSVPLG03,km,20260219-163913,1.0.2,20260219-161301,772,Experiment,Both,1,Automatic,main,85,20260219-164710,global,global,750,H,S,A,E,H-A.png,S-E.png,hH,sS,mask-2.png,mask-1.png,s,0,0.25910629983991385,s,1,0.6394269000738859,0.05091260001063347,0.04926410038024187,0.09835680015385151,0.09952689986675978,0.7505671996623278
RSVPLG03,km,20260219-163913,1.0.2,20260219-161301,772,Experiment,Both,1,Automatic,main,86,20260219-164715,local,global,750,H,H,A,E,A-H.png,H-E.png,hH,hH,mask-2.png,mask-4.png,h,1,1.6100467005744576,s,0,0.2145974999293685,0.04941730014979839,0.049919200129806995,0.09804640058428049,0.09987980034202337,0.7494152002036572
RSVPLG03,km,20260219-163913,1.0.2,20260219-161301,772,Experiment,Both,1,Automatic,main,87,20260219-164721,global,global,300,S,S,A,A,S-A.png,S-A.png,sS,sS,mask-3.png,mask-1.png,h,0,0.3459839001297951,h,0,0.6065489007160068,0.04933250043541193,0.05010669957846403,0.09793519973754883,0.10120829939842224,0.29772260040044785
RSVPLG03,km,20260219-163913,1.0.2,20260219-161301,772,Experiment,Both,1,Automatic,main,88,20260219-164725,global,global,300,S,S,E,E,S-E.png,S-E.png,sS,sS,mask-1.png,mask-2.png,s,1,0.6728391004726291,s,1,0.3600012995302677,0.04894069954752922,0.04986680019646883,0.09889739938080311,0.09986350033432245,0.29964099917560816
RSVPLG03,km,20260219-163913,1.0.2,20260219-161301,772,Experiment,Both,1,Automatic,main,89,20260219-164730,local,global,300,S,S,A,A,A-S.png,S-A.png,sS,sS,mask-4.png,mask-1.png,s,1,0.5027571003884077,s,1,0.19110860023647547,0.04978010058403015,0.04903590027242899,0.10095220059156418,0.1000365000218153,0.3011063998565078
RSVPLG03,km,20260219-163913,1.0.2,20260219-161301,772,Experiment,Both,1,Automatic,main,90,20260219-164735,global,local,750,S,H,E,E,S-E.png,E-H.png,sS,hH,mask-2.png,mask-2.png,h,0,0.3775574006140232,h,1,0.12093659956008196,0.05129329953342676,0.0498279994353652,0.1015472998842597,0.09989569988101721,0.7519992999732494
RSVPLG03,km,20260219-163913,1.0.2,20260219-161301,772,Experiment,Both,1,Automatic,main,91,20260219-164740,local,local,750,H,S,E,A,E-H.png,A-S.png,hH,sS,mask-1.png,mask-2.png,h,1,0.3144581997767091,h,0,0.9033380998298526,0.04962900001555681,0.04934869986027479,0.09937779977917671,0.09942809958010912,0.7504476998001337
RSVPLG03,km,20260219-163913,1.0.2,20260219-161301,772,Experiment,Both,1,Automatic,main,92,20260219-164745,local,local,300,S,H,A,E,A-S.png,E-H.png,sS,hH,mask-2.png,mask-1.png,h,0,0.428337499499321,s,0,0.4240460004657507,0.05052390042692423,0.05003069993108511,0.09976579993963242,0.10017119999974966,0.30060179997235537
RSVPLG03,km,20260219-163913,1.0.2,20260219-161301,772,Experiment,Both,1,Automatic,main,93,20260219-164750,global,global,750,S,S,E,A,S-E.png,S-A.png,sS,sS,mask-1.png,mask-3.png,h,0,0.6619755998253822,h,0,0.63487150054425,0.04991600010544062,0.04917259979993105,0.1015616999939084,0.09885350055992603,0.7515206998214126
RSVPLG03,km,20260219-163913,1.0.2,20260219-161301,772,Experiment,Both,1,Automatic,main,94,20260219-164755,local,global,750,H,H,A,A,A-H.png,H-A.png,hH,hH,mask-3.png,mask-3.png,h,1,0.2989574000239372,h,1,0.42347370088100433,0.05136200040578842,0.04995869938284159,0.09982459992170334,0.10162109974771738,0.7505291001871228
RSVPLG03,km,20260219-163913,1.0.2,20260219-161301,772,Experiment,Both,1,Automatic,main,95,20260219-164800,local,global,300,H,S,A,A,A-H.png,S-A.png,hH,sS,mask-2.png,mask-2.png,h,1,0.4366197008639574,h,0,0.28053729981184006,0.04992640018463135,0.049120799638330936,0.10112829972058535,0.0993021996691823,0.30109240021556616
RSVPLG03,km,20260219-163913,1.0.2,20260219-161301,772,Experiment,Both,1,Automatic,main,96,20260219-164804,local,global,750,H,S,E,A,E-H.png,S-A.png,hH,sS,mask-4.png,mask-2.png,h,1,0.5416096998378634,h,0,0.6502735000103712,0.05084780044853687,0.0496934000402689,0.0981825003400445,0.10011860076338053,0.7498637000098825
RSVPLG03,km,20260219-163913,1.0.2,20260219-161301,772,Experiment,Both,1,Automatic,main,97,20260219-164810,local,local,750,H,S,E,A,E-H.png,A-S.png,hH,sS,mask-2.png,mask-1.png,s,0,0.6054688999429345,h,0,0.8556592995300889,0.04986379947513342,0.05021000001579523,0.09821469988673925,0.10022380016744137,0.7497685998678207
RSVPLG03,km,20260219-163913,1.0.2,20260219-161301,772,Experiment,Both,1,Automatic,main,98,20260219-164815,local,local,300,S,H,A,E,A-S.png,E-H.png,sS,hH,mask-1.png,mask-2.png,s,1,0.44599059969186783,h,1,0.4073346992954612,0.049859399907290936,0.04992100037634373,0.09970229957252741,0.10253619961440563,0.2999269999563694
RSVPLG03,km,20260219-163913,1.0.2,20260219-161301,772,Experiment,Both,1,Automatic,main,99,20260219-164820,global,global,300,H,S,A,A,H-A.png,S-A.png,hH,sS,mask-2.png,mask-4.png,s,0,1.8414378007873893,s,1,0.07906210049986839,0.049790799617767334,0.049394200555980206,0.09914639964699745,0.10056260041892529,0.29962179996073246
RSVPLG03,km,20260219-163913,1.0.2,20260219-161301,772,Experiment,Both,1,Automatic,main,100,20260219-164826,global,global,300,H,H,A,E,H-A.png,H-E.png,hH,hH,mask-1.png,mask-2.png,h,1,1.0277585992589593,h,1,1.245695499703288,0.049534499645233154,0.0504679000005126,0.10008549969643354,0.0994823994114995,0.2999675003811717
