exp,exp_initials,runtime,ver,modtime,sub,blocktype,targets,cuetype,mode,trialtype,trial,trialtime,t1_level,t2_level,t2_lag,t1,t2,distractor1,distractor2,stimfile1,stimfile2,t1_corr,t2_corr,maskfile1,maskfile2,t1_resp,t1_acc,t1_rt,t2_resp,t2_acc,t2_rt,t1_dur,t2_dur,t1mask_soa,t2mask_soa,t1t2_soa
RSVPLG03,km,20260416-161939,1.0.2,20251113-095759,825,Introduction,T1,1,Automatic,main,1,20260416-162035,local,global,750,S,S,A,E,A-S.png,S-E.png,sS,sS,mask-2.png,mask-4.png,s,1,1.2806850001215935,none,-5,0,0.08911069994792342,0.09989680000580847,0.18953830003738403,0.1999715999700129,0.7398572999518365
RSVPLG03,km,20260416-161939,1.0.2,20251113-095759,825,Introduction,T1,1,Automatic,main,2,20260416-162041,local,local,750,S,H,A,E,A-S.png,E-H.png,sS,hH,mask-3.png,mask-4.png,s,1,0.4346950000617653,none,-5,0,0.10041309986263514,0.09817579993978143,0.19996689981780946,0.19966189982369542,0.7482223999686539
RSVPLG03,km,20260416-161939,1.0.2,20251113-095759,825,Introduction,T1,1,Automatic,main,3,20260416-162045,local,local,750,S,S,A,A,A-S.png,A-S.png,sS,sS,mask-2.png,mask-3.png,h,0,0.9309793000575155,none,-5,0,0.10099050006829202,0.09889420005492866,0.2013284000568092,0.19997740001417696,0.7492754000704736
RSVPLG03,km,20260416-161939,1.0.2,20251113-095759,825,Introduction,T1,1,Automatic,main,4,20260416-162050,global,global,750,S,S,A,E,S-A.png,S-E.png,sS,sS,mask-1.png,mask-1.png,s,1,0.3260836999397725,none,-5,0,0.09964610007591546,0.1008890001103282,0.19926710007712245,0.19999850005842745,0.7487759999930859
RSVPLG03,km,20260416-161939,1.0.2,20251113-095759,825,Introduction,T1,1,Automatic,main,5,20260416-162055,global,local,750,H,S,A,A,H-A.png,A-S.png,hH,sS,mask-3.png,mask-1.png,h,1,0.13505679997615516,none,-5,0,0.0977126001380384,0.09997910005040467,0.19843710004352033,0.20087910001166165,0.7460217999760062
RSVPLG03,km,20260416-161939,1.0.2,20251113-095759,825,Introduction,T1,1,Automatic,main,6,20260416-162059,local,local,750,H,H,A,E,A-H.png,E-H.png,hH,hH,mask-2.png,mask-4.png,h,1,0.31765230000019073,none,-5,0,0.10000700014643371,0.09933519992046058,0.19899619999341667,0.19915799982845783,0.7475380001123995
RSVPLG03,km,20260416-161939,1.0.2,20251113-095759,825,Introduction,T1,1,Automatic,main,7,20260416-162104,local,local,750,S,S,A,A,A-S.png,A-S.png,sS,sS,mask-2.png,mask-4.png,s,1,0.21077460004016757,none,-5,0,0.10017660004086792,0.10070779989473522,0.19751389999873936,0.1995143999811262,0.7477764000650495
RSVPLG03,km,20260416-161939,1.0.2,20251113-095759,825,Introduction,T1,1,Automatic,main,8,20260416-162108,global,global,750,S,S,A,E,S-A.png,S-E.png,sS,sS,mask-3.png,mask-4.png,s,1,0.32882319996133447,none,-5,0,0.09870070009492338,0.09814439993351698,0.20045660017058253,0.19959399988874793,0.7494305002037436
RSVPLG03,km,20260416-161939,1.0.2,20251113-095759,825,Introduction,T1,1,Automatic,main,9,20260416-162112,global,global,750,H,H,E,A,H-E.png,H-A.png,hH,hH,mask-3.png,mask-2.png,h,1,0.10830299998633564,none,-5,0,0.09993069991469383,0.0988920999225229,0.19893649988807738,0.19860889995470643,0.7480832999572158
RSVPLG03,km,20260416-161939,1.0.2,20251113-095759,825,Introduction,T1,1,Automatic,main,10,20260416-162117,local,global,750,S,H,E,E,E-S.png,H-E.png,sS,hH,mask-1.png,mask-4.png,s,1,0.274144200142473,none,-5,0,0.099457599921152,0.10089899995364249,0.19920630007982254,0.19999570003710687,0.7481299999635667
RSVPLG03,km,20260416-161939,1.0.2,20251113-095759,825,Introduction,T1,1,Automatic,main,11,20260416-162121,global,local,750,S,H,E,A,S-E.png,A-H.png,sS,hH,mask-4.png,mask-2.png,s,1,0.7404165000189096,none,-5,0,0.10087469988502562,0.09932180005125701,0.200892599998042,0.20083580003120005,0.7486411000136286
RSVPLG03,km,20260416-161939,1.0.2,20251113-095759,825,Introduction,T1,1,Automatic,main,12,20260416-162126,global,local,750,H,S,A,E,H-A.png,E-S.png,hH,sS,mask-1.png,mask-1.png,none,-6,0,none,-5,0,0.09890219988301396,0.09969739988446236,0.19897489994764328,0.20052539999596775,0.7477589999325573
RSVPLG03,km,20260416-162145,1.0.2,20251113-095759,825,Practice,T1,1,Automatic,main,1,20260416-162236,global,global,750,S,H,E,A,S-E.png,H-A.png,sS,hH,mask-2.png,mask-3.png,s,1,0.25987339997664094,none,-5,0,0.049834599951282144,0.05213299999013543,0.10016729985363781,0.10171389998868108,0.7512524998746812
RSVPLG03,km,20260416-162145,1.0.2,20251113-095759,825,Practice,T1,1,Automatic,main,2,20260416-162241,global,global,300,S,S,A,A,S-A.png,S-A.png,sS,sS,mask-3.png,mask-4.png,s,1,0.44554980006068945,none,-5,0,0.050208300119265914,0.048347200034186244,0.10088790021836758,0.09827880002558231,0.30120040010660887
RSVPLG03,km,20260416-162145,1.0.2,20251113-095759,825,Practice,T1,1,Automatic,main,3,20260416-162245,local,global,750,S,H,E,E,E-S.png,H-E.png,sS,hH,mask-4.png,mask-1.png,s,1,0.2651918998453766,none,-5,0,0.04863079986535013,0.05088310013525188,0.0986003999132663,0.09973050002008677,0.7501617998350412
RSVPLG03,km,20260416-162145,1.0.2,20251113-095759,825,Practice,T1,1,Automatic,main,4,20260416-162249,local,local,750,S,S,A,A,A-S.png,A-S.png,sS,sS,mask-1.png,mask-3.png,s,1,0.25728329992853105,none,-5,0,0.04965559998527169,0.0500560998916626,0.10051369993016124,0.10049019986763597,0.7523125000298023
RSVPLG03,km,20260416-162145,1.0.2,20251113-095759,825,Practice,T1,1,Automatic,main,5,20260416-162253,global,local,750,S,H,A,A,S-A.png,A-H.png,sS,hH,mask-1.png,mask-3.png,s,1,0.19939410011284053,none,-5,0,0.05001099989749491,0.050988900009542704,0.10204849997535348,0.1008971999399364,0.7507447998505086
RSVPLG03,km,20260416-162145,1.0.2,20251113-095759,825,Practice,T1,1,Automatic,main,6,20260416-162257,global,global,750,H,H,A,A,H-A.png,H-A.png,hH,hH,mask-3.png,mask-4.png,h,1,0.10357769997790456,none,-5,0,0.04904949991032481,0.051196400076150894,0.09997579990886152,0.10204570018686354,0.7503926998469979
RSVPLG03,km,20260416-162145,1.0.2,20251113-095759,825,Practice,T1,1,Automatic,main,7,20260416-162301,local,local,300,H,H,A,E,A-H.png,E-H.png,hH,hH,mask-1.png,mask-4.png,h,1,1.255381700117141,none,-5,0,0.049200900131836534,0.05099519994109869,0.09811460017226636,0.1010646999347955,0.29970120009966195
RSVPLG03,km,20260416-162145,1.0.2,20251113-095759,825,Practice,T1,1,Automatic,main,8,20260416-162306,local,local,750,H,H,A,A,A-H.png,A-H.png,hH,hH,mask-3.png,mask-1.png,h,1,0.004998300224542618,none,-5,0,0.05072160018607974,0.050227100029587746,0.09986870014108717,0.09947020001709461,0.7520562000572681
RSVPLG03,km,20260416-162145,1.0.2,20251113-095759,825,Practice,T1,1,Automatic,main,9,20260416-162310,global,global,300,S,H,A,E,S-A.png,H-E.png,sS,hH,mask-2.png,mask-4.png,s,1,0.4747872999869287,none,-5,0,0.04966060002334416,0.05130900000222027,0.09966839989647269,0.10152560006827116,0.3000666999723762
RSVPLG03,km,20260416-162145,1.0.2,20251113-095759,825,Practice,T1,1,Automatic,main,10,20260416-162314,local,global,300,H,H,E,E,E-H.png,H-E.png,hH,hH,mask-1.png,mask-2.png,h,1,0.39306179992854595,none,-5,0,0.049984100041911006,0.04972110013477504,0.0999940000474453,0.0999499000608921,0.30083479988388717
RSVPLG03,km,20260416-162145,1.0.2,20251113-095759,825,Practice,T1,1,Automatic,main,11,20260416-162318,local,global,300,H,S,A,A,A-H.png,S-A.png,hH,sS,mask-3.png,mask-4.png,h,1,0.8090460998937488,none,-5,0,0.049967599799856544,0.04990739980712533,0.10102559998631477,0.10071419994346797,0.30095970002003014
RSVPLG03,km,20260416-162145,1.0.2,20251113-095759,825,Practice,T1,1,Automatic,main,12,20260416-162322,local,local,300,S,H,A,A,A-S.png,A-H.png,sS,hH,mask-3.png,mask-3.png,s,1,0.15333030000329018,none,-5,0,0.04998240014538169,0.05022790003567934,0.10083980020135641,0.1002700999379158,0.300733300158754
RSVPLG03,km,20260416-162145,1.0.2,20251113-095759,825,Practice,T1,1,Automatic,main,13,20260416-162326,global,local,300,S,H,A,E,S-A.png,E-H.png,sS,hH,mask-4.png,mask-2.png,s,1,0.21878210012800992,none,-5,0,0.04881449998356402,0.0507173000369221,0.09888990013860166,0.09864809992723167,0.2999227000400424
RSVPLG03,km,20260416-162145,1.0.2,20251113-095759,825,Practice,T1,1,Automatic,main,14,20260416-162330,global,local,300,H,S,E,A,H-E.png,A-S.png,hH,sS,mask-4.png,mask-4.png,h,1,0.21050120005384088,none,-5,0,0.05090599996037781,0.04874349990859628,0.09965220000594854,0.09982539992779493,0.3013671000953764
RSVPLG03,km,20260416-162145,1.0.2,20251113-095759,825,Practice,T1,1,Automatic,main,15,20260416-162334,global,local,750,H,H,E,A,H-E.png,A-H.png,hH,hH,mask-1.png,mask-4.png,h,1,0.23187350016087294,none,-5,0,0.050739800091832876,0.05098620010539889,0.10198600008152425,0.10112770018167794,0.7522666999138892
RSVPLG03,km,20260416-162145,1.0.2,20251113-095759,825,Practice,T1,1,Automatic,main,16,20260416-162338,local,global,750,S,S,E,E,E-S.png,S-E.png,sS,sS,mask-1.png,mask-3.png,s,1,0.17550430004484951,none,-5,0,0.05093279993161559,0.051156500121578574,0.09978989977389574,0.09970360016450286,0.7513821998145431
RSVPLG03,km,20260416-162443,1.0.2,20251113-095759,825,Introduction,Both,1,Automatic,main,1,20260416-162515,local,global,750,S,H,A,E,A-S.png,H-E.png,sS,hH,mask-4.png,mask-4.png,s,1,1.355053000152111,h,1,0.2528979000635445,0.09127410012297332,0.10095509979873896,0.19167329999618232,0.20306069985963404,0.7409239001572132
RSVPLG03,km,20260416-162443,1.0.2,20251113-095759,825,Introduction,Both,1,Automatic,main,2,20260416-162521,local,global,750,S,H,E,A,E-S.png,H-A.png,sS,hH,mask-3.png,mask-3.png,s,1,0.636469200020656,h,1,0.22662870003841817,0.10055759991519153,0.09956000000238419,0.20032029994763434,0.20096409996040165,0.7505564000457525
RSVPLG03,km,20260416-162443,1.0.2,20251113-095759,825,Introduction,Both,1,Automatic,main,3,20260416-162526,local,global,750,S,S,A,A,A-S.png,S-A.png,sS,sS,mask-2.png,mask-1.png,s,1,1.1282639000564814,s,1,0.2230663001537323,0.09945650002919137,0.10176250012591481,0.1999843001831323,0.20155739993788302,0.749383500078693
RSVPLG03,km,20260416-162443,1.0.2,20251113-095759,825,Introduction,Both,1,Automatic,main,4,20260416-162532,global,local,750,S,H,A,A,S-A.png,A-H.png,sS,hH,mask-2.png,mask-1.png,s,1,0.35226140008307993,h,1,0.08120839996263385,0.09864380001090467,0.09834989998489618,0.19864750001579523,0.19841459998860955,0.7504406000953168
RSVPLG03,km,20260416-162443,1.0.2,20251113-095759,825,Introduction,Both,1,Automatic,main,5,20260416-162537,global,local,750,S,S,E,E,S-E.png,E-S.png,sS,sS,mask-1.png,mask-3.png,s,1,0.26336389989592135,s,1,0.12657040008343756,0.1004808999132365,0.10010000015608966,0.20061869989149272,0.20077220001257956,0.7501727999188006
RSVPLG03,km,20260416-162443,1.0.2,20251113-095759,825,Introduction,Both,1,Automatic,main,6,20260416-162541,local,local,750,H,S,E,E,E-H.png,E-S.png,hH,sS,mask-4.png,mask-2.png,h,1,0.3968714999500662,s,1,0.11124100000597537,0.1008496000431478,0.10069229989312589,0.20180419995449483,0.20055690011940897,0.7505338999908417
RSVPLG03,km,20260416-162443,1.0.2,20251113-095759,825,Introduction,Both,1,Automatic,main,7,20260416-162546,local,local,750,H,S,A,A,A-H.png,A-S.png,hH,sS,mask-3.png,mask-2.png,h,1,1.0412441999651492,h,0,0.3825476001948118,0.10045029991306365,0.10058339987881482,0.20011439989320934,0.20082029979676008,0.7500813000369817
RSVPLG03,km,20260416-162443,1.0.2,20251113-095759,825,Introduction,Both,1,Automatic,main,8,20260416-162552,global,local,750,H,H,A,A,H-A.png,A-H.png,hH,hH,mask-1.png,mask-2.png,h,1,0.5677144001238048,h,1,1.9061312000267208,0.10019239992834628,0.09888170007616282,0.200518999947235,0.19964869995601475,0.7519564998801798
RSVPLG03,km,20260416-162443,1.0.2,20251113-095759,825,Introduction,Both,1,Automatic,main,9,20260416-162559,local,global,750,H,S,E,A,E-H.png,S-A.png,hH,sS,mask-2.png,mask-4.png,h,1,0.6663637000601739,h,0,0.30132119986228645,0.1004572999663651,0.09854599996469915,0.20112650003284216,0.19967080000787973,0.7517931000329554
RSVPLG03,km,20260416-162443,1.0.2,20251113-095759,825,Introduction,Both,1,Automatic,main,10,20260416-162604,global,global,750,S,S,E,A,S-E.png,S-A.png,sS,sS,mask-3.png,mask-4.png,s,1,0.3472831000108272,s,1,0.1586502999998629,0.10094080003909767,0.09901820006780326,0.20071619981899858,0.199179399991408,0.7528661999385804
RSVPLG03,km,20260416-162443,1.0.2,20251113-095759,825,Introduction,Both,1,Automatic,main,11,20260416-162609,local,local,750,S,S,A,E,A-S.png,E-S.png,sS,sS,mask-1.png,mask-3.png,s,1,0.33289840002544224,s,1,0.1266326999757439,0.09891599998809397,0.09849320002831519,0.19993670005351305,0.19919940014369786,0.7498620999976993
RSVPLG03,km,20260416-162443,1.0.2,20251113-095759,825,Introduction,Both,1,Automatic,main,12,20260416-162614,global,global,750,S,S,E,A,S-E.png,S-A.png,sS,sS,mask-1.png,mask-4.png,s,1,0.29751789988949895,s,1,0.1108615999110043,0.09966010018251836,0.10104710003361106,0.20024490007199347,0.20099289994686842,0.7500718000810593
RSVPLG03,km,20260416-162443,1.0.2,20251113-095759,825,Introduction,Both,1,Automatic,main,13,20260416-162618,local,local,750,S,H,A,E,A-S.png,E-H.png,sS,hH,mask-3.png,mask-2.png,s,1,0.43331769993528724,h,1,0.07754429988563061,0.09905719989910722,0.09991819993592799,0.19819279992952943,0.20051199989393353,0.7483812000136822
RSVPLG03,km,20260416-162443,1.0.2,20251113-095759,825,Introduction,Both,1,Automatic,main,14,20260416-162623,global,global,750,S,H,A,A,S-A.png,H-A.png,sS,hH,mask-2.png,mask-3.png,s,1,0.377569800009951,h,1,0.09305770020000637,0.09876870014704764,0.10106719983741641,0.19968800013884902,0.2020870998967439,0.7487900000996888
RSVPLG03,km,20260416-162443,1.0.2,20251113-095759,825,Introduction,Both,1,Automatic,main,15,20260416-162628,global,global,750,H,S,A,A,H-A.png,S-A.png,hH,sS,mask-3.png,mask-1.png,h,1,0.29709569993428886,s,1,0.20461360015906394,0.09970350004732609,0.09995920001529157,0.20023499988019466,0.19983930001035333,0.7517482000403106
RSVPLG03,km,20260416-162443,1.0.2,20251113-095759,825,Introduction,Both,1,Automatic,main,16,20260416-162633,global,local,750,S,S,E,E,S-E.png,E-S.png,sS,sS,mask-1.png,mask-3.png,s,1,0.2917820999864489,s,1,0.14107450004667044,0.10037649981677532,0.09878490003757179,0.1988466999027878,0.19982350012287498,0.7505265998188406
RSVPLG03,km,20260416-162725,1.0.2,20251113-095759,825,Practice,Both,1,Automatic,main,1,20260416-162829,local,global,300,S,H,A,E,A-S.png,H-E.png,sS,hH,mask-2.png,mask-2.png,s,1,1.0660612999927253,h,1,0.09450280014425516,0.03803109982982278,0.05036100000143051,0.08816889999434352,0.10183980013243854,0.28895349986851215
RSVPLG03,km,20260416-162725,1.0.2,20251113-095759,825,Practice,Both,1,Automatic,main,2,20260416-162834,global,local,750,S,H,A,E,S-A.png,E-H.png,sS,hH,mask-2.png,mask-2.png,s,1,0.7533050000201911,h,1,0.22571570007130504,0.0508844000287354,0.04870119993574917,0.09989130008034408,0.09852509992197156,0.7525561000220478
RSVPLG03,km,20260416-162725,1.0.2,20251113-095759,825,Practice,Both,1,Automatic,main,3,20260416-162839,local,global,750,S,H,A,A,A-S.png,H-A.png,sS,hH,mask-3.png,mask-2.png,s,1,1.8656864000950009,h,1,0.06339680007658899,0.04871990019455552,0.0507986000739038,0.09954710002057254,0.10073129995726049,0.7500150001142174
RSVPLG03,km,20260416-162725,1.0.2,20251113-095759,825,Practice,Both,1,Automatic,main,4,20260416-162845,global,global,750,S,S,E,A,S-E.png,S-A.png,sS,sS,mask-1.png,mask-2.png,s,1,0.5758972000330687,s,1,0.09327660012058914,0.05086340010166168,0.049518799874931574,0.10185670014470816,0.09940479998476803,0.7519438001327217
RSVPLG03,km,20260416-162725,1.0.2,20251113-095759,825,Practice,Both,1,Automatic,main,5,20260416-162850,local,local,750,S,S,A,A,A-S.png,A-S.png,sS,sS,mask-2.png,mask-2.png,s,1,0.32788749993778765,s,1,1.0042444998398423,0.049922100035473704,0.04888130002655089,0.10061919991858304,0.09956370014697313,0.7523733999114484
RSVPLG03,km,20260416-162725,1.0.2,20251113-095759,825,Practice,Both,1,Automatic,main,6,20260416-162855,global,global,750,H,H,A,A,H-A.png,H-A.png,hH,hH,mask-2.png,mask-2.png,h,1,0.4074901998974383,h,1,0.09649819997139275,0.05071979993954301,0.05087870010174811,0.10107730003073812,0.09881260013207793,0.7516536000184715
RSVPLG03,km,20260416-162725,1.0.2,20251113-095759,825,Practice,Both,1,Automatic,main,7,20260416-162900,global,global,300,S,H,A,E,S-A.png,H-E.png,sS,hH,mask-1.png,mask-4.png,s,1,0.5913525000214577,h,1,0.07879069983027875,0.04970169998705387,0.048775200033560395,0.0995380999520421,0.09860530006699264,0.30115249985828996
RSVPLG03,km,20260416-162725,1.0.2,20251113-095759,825,Practice,Both,1,Automatic,main,8,20260416-162904,local,local,300,S,H,E,E,E-S.png,E-H.png,sS,hH,mask-1.png,mask-1.png,s,1,0.6225930999498814,s,0,0.7993845001328737,0.05121670011430979,0.04869590001180768,0.09980100020766258,0.0995305001270026,0.30157770006917417
RSVPLG03,km,20260416-162725,1.0.2,20251113-095759,825,Practice,Both,1,Automatic,main,9,20260416-162909,global,local,300,S,H,A,A,S-A.png,A-H.png,sS,hH,mask-2.png,mask-3.png,s,1,0.4050711998715997,h,1,0.12355719995684922,0.05019779992289841,0.0501605998724699,0.10011120000854135,0.09929169993847609,0.2997993000317365
RSVPLG03,km,20260416-162725,1.0.2,20251113-095759,825,Practice,Both,1,Automatic,main,10,20260416-162913,local,global,750,S,H,E,A,E-S.png,H-A.png,sS,hH,mask-4.png,mask-2.png,s,1,0.3228723998181522,h,1,0.07723830011673272,0.0477895000949502,0.04899939987808466,0.0980047001503408,0.09899079985916615,0.7508311001583934
RSVPLG03,km,20260416-162725,1.0.2,20251113-095759,825,Practice,Both,1,Automatic,main,11,20260416-162918,global,global,300,S,H,A,A,S-A.png,H-A.png,sS,hH,mask-3.png,mask-2.png,s,1,0.35111929988488555,h,1,0.09048689994961023,0.04990470013581216,0.049771999940276146,0.10121989995241165,0.09969810000620782,0.30080710002221167
RSVPLG03,km,20260416-162725,1.0.2,20251113-095759,825,Practice,Both,1,Automatic,main,12,20260416-162922,local,global,300,S,H,A,A,A-S.png,H-A.png,sS,hH,mask-2.png,mask-2.png,s,1,0.6454157000407577,h,1,0.2059915999416262,0.049865599954500794,0.050111099844798446,0.09987629996612668,0.09891089983284473,0.2997749999631196
RSVPLG03,km,20260416-162725,1.0.2,20251113-095759,825,Practice,Both,1,Automatic,main,13,20260416-162927,global,local,300,H,H,E,A,H-E.png,A-H.png,hH,hH,mask-2.png,mask-2.png,h,1,0.7493640999309719,h,1,0.5116942999884486,0.05029210005886853,0.05129920016042888,0.09980219998396933,0.10178859997540712,0.3002840999979526
RSVPLG03,km,20260416-162725,1.0.2,20251113-095759,825,Practice,Both,1,Automatic,main,14,20260416-162932,global,local,750,H,S,A,A,H-A.png,A-S.png,hH,sS,mask-1.png,mask-1.png,h,1,0.32844810001552105,s,1,0.06651689996942878,0.04889389988966286,0.049594399984925985,0.09881459991447628,0.09960640012286603,0.7502993999514729
RSVPLG03,km,20260416-162725,1.0.2,20251113-095759,825,Practice,Both,1,Automatic,main,15,20260416-162936,local,local,300,H,H,A,A,A-H.png,A-H.png,hH,hH,mask-3.png,mask-1.png,h,1,0.34765700018033385,h,1,0.10928740003146231,0.050016700057312846,0.04882659995928407,0.10001910012215376,0.09936749981716275,0.30011470010504127
RSVPLG03,km,20260416-162725,1.0.2,20251113-095759,825,Practice,Both,1,Automatic,main,16,20260416-162940,local,local,750,S,H,A,E,A-S.png,E-H.png,sS,hH,mask-4.png,mask-1.png,s,1,0.21530400007031858,h,1,0.08014899981208146,0.05168140004388988,0.05104309995658696,0.10093310009688139,0.10025030001997948,0.7517626001499593
RSVPLG03,km,20260416-163047,1.0.2,20251113-095759,825,Experiment,Both,1,Automatic,warmup,1,20260416-163109,local,global,300,S,H,A,A,A-S.png,H-A.png,sS,hH,mask-1.png,mask-2.png,s,1,0.41906010010279715,h,1,0.013437899993732572,0.0422545000910759,0.049190100049600005,0.09263920015655458,0.09813599986955523,0.2937535000964999
RSVPLG03,km,20260416-163047,1.0.2,20251113-095759,825,Experiment,Both,1,Automatic,warmup,2,20260416-163113,local,local,750,H,S,E,E,E-H.png,E-S.png,hH,sS,mask-3.png,mask-1.png,h,1,0.25675559998489916,s,1,0.013369299937039614,0.050703799817711115,0.05130250006914139,0.10061009996570647,0.10065250005573034,0.748751999810338
RSVPLG03,km,20260416-163047,1.0.2,20251113-095759,825,Experiment,Both,1,Automatic,warmup,3,20260416-163118,local,local,300,H,S,E,E,E-H.png,E-S.png,hH,sS,mask-4.png,mask-2.png,s,0,0.5824964998755604,h,0,0.012710999930277467,0.04698770004324615,0.050257699796929955,0.09805830009281635,0.09881819994188845,0.2987304001580924
RSVPLG03,km,20260416-163047,1.0.2,20251113-095759,825,Experiment,Both,1,Automatic,warmup,4,20260416-163122,global,local,300,S,H,A,A,S-A.png,A-H.png,sS,hH,mask-2.png,mask-3.png,s,1,0.6101147001609206,h,1,0.061753000132739544,0.04997820011340082,0.049692400032654405,0.09875250002369285,0.1005855998955667,0.2985235000960529
RSVPLG03,km,20260416-163047,1.0.2,20251113-095759,825,Experiment,Both,1,Automatic,main,5,20260416-163126,global,local,750,S,S,E,E,S-E.png,E-S.png,sS,sS,mask-4.png,mask-2.png,s,1,0.4433098998852074,s,1,0.048207700019702315,0.04994449997320771,0.04991939989849925,0.09899770002812147,0.0995423998683691,0.7483547001611441
RSVPLG03,km,20260416-163047,1.0.2,20251113-095759,825,Experiment,Both,1,Automatic,main,6,20260416-163131,local,global,750,H,H,A,E,A-H.png,H-E.png,hH,hH,mask-2.png,mask-2.png,h,1,0.45315110008232296,s,0,0.22147940006107092,0.04992090002633631,0.05057800002396107,0.09934850013814867,0.09992639999836683,0.7482245999854058
RSVPLG03,km,20260416-163047,1.0.2,20251113-095759,825,Experiment,Both,1,Automatic,main,7,20260416-163136,local,global,300,H,H,E,E,E-H.png,H-E.png,hH,hH,mask-4.png,mask-2.png,s,0,0.7831542000640184,h,1,0.07916239998303354,0.04972829995676875,0.04964710003696382,0.09956240002065897,0.09946210007183254,0.3001365999225527
RSVPLG03,km,20260416-163047,1.0.2,20251113-095759,825,Experiment,Both,1,Automatic,main,8,20260416-163140,global,local,300,H,H,E,A,H-E.png,A-H.png,hH,hH,mask-2.png,mask-3.png,h,1,0.5388161998707801,h,1,0.1251012000720948,0.05001559993252158,0.04897679993882775,0.10180830000899732,0.09855840005911887,0.30168969999067485
RSVPLG03,km,20260416-163047,1.0.2,20251113-095759,825,Experiment,Both,1,Automatic,main,9,20260416-163145,local,global,300,H,S,E,A,E-H.png,S-A.png,hH,sS,mask-4.png,mask-3.png,h,1,0.6065637001302093,s,1,0.42895089997909963,0.04960339982062578,0.04976760013960302,0.09969299985095859,0.10155100002884865,0.2993108998052776
RSVPLG03,km,20260416-163047,1.0.2,20251113-095759,825,Experiment,Both,1,Automatic,main,10,20260416-163149,global,global,300,H,H,A,E,H-A.png,H-E.png,hH,hH,mask-2.png,mask-3.png,h,1,0.37890399992465973,h,1,0.09453450003638864,0.050052099861204624,0.04889150010421872,0.09920159983448684,0.09900439996272326,0.3003026999067515
RSVPLG03,km,20260416-163047,1.0.2,20251113-095759,825,Experiment,Both,1,Automatic,main,11,20260416-163154,global,local,750,S,H,E,E,S-E.png,E-H.png,sS,hH,mask-2.png,mask-1.png,s,1,0.46832999982871115,s,0,0.8934199998620898,0.049884899985045195,0.04978800006210804,0.1006400000769645,0.10069410013966262,0.7499538999982178
RSVPLG03,km,20260416-163047,1.0.2,20251113-095759,825,Experiment,Both,1,Automatic,main,12,20260416-163159,local,global,750,H,S,E,E,E-H.png,S-E.png,hH,sS,mask-1.png,mask-1.png,h,1,0.5373359001241624,s,1,0.06260340008884668,0.049145800061523914,0.04876859998330474,0.09960209997370839,0.09863749984651804,0.7506790000479668
RSVPLG03,km,20260416-163047,1.0.2,20251113-095759,825,Experiment,Both,1,Automatic,main,13,20260416-163204,global,local,300,S,S,E,E,S-E.png,E-S.png,sS,sS,mask-2.png,mask-2.png,s,1,0.36147499992512167,s,1,0.4135691998526454,0.051051000133156776,0.05188459996134043,0.10115560004487634,0.10053030005656183,0.2987500000745058
RSVPLG03,km,20260416-163047,1.0.2,20251113-095759,825,Experiment,Both,1,Automatic,main,14,20260416-163208,local,local,300,S,S,E,E,E-S.png,E-S.png,sS,sS,mask-4.png,mask-4.png,s,1,0.39197090012021363,s,1,0.09639940015040338,0.049458400113508105,0.05043269996531308,0.0986788000445813,0.09987049992196262,0.2985440001357347
RSVPLG03,km,20260416-163047,1.0.2,20251113-095759,825,Experiment,Both,1,Automatic,main,15,20260416-163212,local,local,300,S,H,E,E,E-S.png,E-H.png,sS,hH,mask-1.png,mask-2.png,s,1,0.3437412998173386,h,1,0.4878513999283314,0.05090200016275048,0.05031870002858341,0.10092410002835095,0.10078320000320673,0.29957070015370846
RSVPLG03,km,20260416-163047,1.0.2,20251113-095759,825,Experiment,Both,1,Automatic,main,16,20260416-163217,local,local,750,H,H,E,A,E-H.png,A-H.png,hH,hH,mask-4.png,mask-2.png,h,1,0.16543140006251633,h,1,0.10955920000560582,0.05069970013573766,0.05086950003169477,0.10050110006704926,0.10087059997022152,0.7488190000876784
RSVPLG03,km,20260416-163047,1.0.2,20251113-095759,825,Experiment,Both,1,Automatic,main,17,20260416-163221,local,local,300,H,H,A,E,A-H.png,E-H.png,hH,hH,mask-2.png,mask-4.png,h,1,0.3823650998529047,h,1,0.12849550019018352,0.050603399984538555,0.05068570002913475,0.09929059981368482,0.10078109987080097,0.29951829998753965
RSVPLG03,km,20260416-163047,1.0.2,20251113-095759,825,Experiment,Both,1,Automatic,main,18,20260416-163225,local,local,300,H,H,A,A,A-H.png,A-H.png,hH,hH,mask-2.png,mask-4.png,h,1,0.329386199824512,h,1,0.10930199990980327,0.05036399979144335,0.048747000051662326,0.10050239996053278,0.09834189992398024,0.3000586999114603
RSVPLG03,km,20260416-163047,1.0.2,20251113-095759,825,Experiment,Both,1,Automatic,main,19,20260416-163229,local,global,300,S,H,E,E,E-S.png,H-E.png,sS,hH,mask-3.png,mask-4.png,s,1,0.3152663998771459,h,1,0.013338499935343862,0.048914500046521425,0.04968419997021556,0.09963289997540414,0.09949399996548891,0.2992517000529915
RSVPLG03,km,20260416-163047,1.0.2,20251113-095759,825,Experiment,Both,1,Automatic,main,20,20260416-163233,local,global,750,S,S,A,E,A-S.png,S-E.png,sS,sS,mask-2.png,mask-1.png,h,0,0.6077773000579327,s,1,0.4296915999148041,0.05057889991439879,0.05100089986808598,0.10024349996820092,0.10026440001092851,0.7488794999662787
RSVPLG03,km,20260416-163047,1.0.2,20251113-095759,825,Experiment,Both,1,Automatic,main,21,20260416-163238,global,local,750,S,S,A,E,S-A.png,E-S.png,sS,sS,mask-2.png,mask-4.png,s,1,0.3695178998168558,s,1,0.07747210003435612,0.0499113998375833,0.05042079999111593,0.0999446997884661,0.09817000012844801,0.7484819998499006
RSVPLG03,km,20260416-163047,1.0.2,20251113-095759,825,Experiment,Both,1,Automatic,main,22,20260416-163243,global,local,300,H,S,A,A,H-A.png,A-S.png,hH,sS,mask-1.png,mask-4.png,h,1,0.4464859999716282,h,0,0.11018639989197254,0.05102299991995096,0.05005169985815883,0.10115849995054305,0.09915599995292723,0.30045370012521744
RSVPLG03,km,20260416-163047,1.0.2,20251113-095759,825,Experiment,Both,1,Automatic,main,23,20260416-163247,local,global,300,H,S,E,A,E-H.png,S-A.png,hH,sS,mask-1.png,mask-1.png,h,1,0.6894344999454916,s,1,0.398453600006178,0.05142830009572208,0.04912570002488792,0.10159060009755194,0.0989538999274373,0.30045420001260936
RSVPLG03,km,20260416-163047,1.0.2,20251113-095759,825,Experiment,Both,1,Automatic,main,24,20260416-163252,global,local,300,S,S,E,E,S-E.png,E-S.png,sS,sS,mask-3.png,mask-2.png,s,1,0.34882229985669255,h,0,0.33259169990196824,0.04885589983314276,0.05083519988693297,0.09898449992761016,0.1004806999117136,0.29905360005795956
RSVPLG03,km,20260416-163047,1.0.2,20251113-095759,825,Experiment,Both,1,Automatic,main,25,20260416-163256,global,local,300,S,S,A,A,S-A.png,A-S.png,sS,sS,mask-2.png,mask-3.png,s,1,0.4345190997701138,h,0,0.22213910007849336,0.05011590011417866,0.05042019998654723,0.10027449997141957,0.09953390015289187,0.29928899998776615
RSVPLG03,km,20260416-163047,1.0.2,20251113-095759,825,Experiment,Both,1,Automatic,main,26,20260416-163312,global,local,750,H,H,E,A,H-E.png,A-H.png,hH,hH,mask-4.png,mask-1.png,h,1,0.20816929987631738,h,1,0.11347950017079711,0.05036859982647002,0.04988990002311766,0.10010289982892573,0.09885760000906885,0.749666899908334
RSVPLG03,km,20260416-163047,1.0.2,20251113-095759,825,Experiment,Both,1,Automatic,main,27,20260416-163317,local,global,300,H,S,E,A,E-H.png,S-A.png,hH,sS,mask-4.png,mask-3.png,h,1,0.31821629987098277,s,1,4.688744799932465,0.048778200056403875,0.050747400149703026,0.09932200005277991,0.1006583000998944,0.2982701000291854
RSVPLG03,km,20260416-163047,1.0.2,20251113-095759,825,Experiment,Both,1,Automatic,main,28,20260416-163325,local,global,750,H,S,A,E,A-H.png,S-E.png,hH,sS,mask-4.png,mask-3.png,h,1,0.7223495999351144,s,1,0.06243909988552332,0.049871099879965186,0.04931429983116686,0.09885940002277493,0.10003189998678863,0.7479934000875801
RSVPLG03,km,20260416-163047,1.0.2,20251113-095759,825,Experiment,Both,1,Automatic,main,29,20260416-163330,local,global,300,H,H,A,E,A-H.png,H-E.png,hH,hH,mask-4.png,mask-1.png,h,1,1.9426482000853866,s,0,0.7029438000172377,0.049853800097480416,0.049671299988403916,0.09977279999293387,0.10059409984387457,0.30005610012449324
RSVPLG03,km,20260416-163047,1.0.2,20251113-095759,825,Experiment,Both,1,Automatic,main,30,20260416-163337,global,global,750,S,S,A,E,S-A.png,S-E.png,sS,sS,mask-4.png,mask-2.png,s,1,0.8900173001457006,s,1,0.11360459984280169,0.050603599986061454,0.04805410001426935,0.1013360999058932,0.09904960007406771,0.7521891999058425
RSVPLG03,km,20260416-163047,1.0.2,20251113-095759,825,Experiment,Both,1,Automatic,main,31,20260416-163342,local,local,300,H,H,A,E,A-H.png,E-H.png,hH,hH,mask-4.png,mask-3.png,h,1,0.3071397999301553,h,1,0.11118679982610047,0.05140549992211163,0.051326300017535686,0.0998537999112159,0.10114689986221492,0.2997363000176847
RSVPLG03,km,20260416-163047,1.0.2,20251113-095759,825,Experiment,Both,1,Automatic,main,32,20260416-163346,global,local,750,S,H,E,A,S-E.png,A-H.png,sS,hH,mask-4.png,mask-2.png,s,1,0.32515459996648133,h,1,0.701579200103879,0.051726399920880795,0.04965709988027811,0.10058389999903738,0.09979819995351136,0.7497954000718892
RSVPLG03,km,20260416-163047,1.0.2,20251113-095759,825,Experiment,Both,1,Automatic,main,33,20260416-163351,local,local,300,S,H,A,A,A-S.png,A-H.png,sS,hH,mask-3.png,mask-3.png,s,1,0.37913610017858446,h,1,0.0455789000261575,0.04886800004169345,0.04945340007543564,0.09975719987414777,0.10000760015100241,0.30020989989861846
RSVPLG03,km,20260416-163047,1.0.2,20251113-095759,825,Experiment,Both,1,Automatic,main,34,20260416-163355,local,global,750,S,S,A,E,A-S.png,S-E.png,sS,sS,mask-2.png,mask-2.png,s,1,1.1855864999815822,h,0,0.05931490007787943,0.04987840005196631,0.04953749990090728,0.09991670004092157,0.09920720010995865,0.7486173999495804
RSVPLG03,km,20260416-163047,1.0.2,20251113-095759,825,Experiment,Both,1,Automatic,main,35,20260416-163401,global,global,300,H,S,E,E,H-E.png,S-E.png,hH,sS,mask-4.png,mask-1.png,h,1,0.748230499913916,s,1,0.062252100091427565,0.05004959995858371,0.0513330998364836,0.10052159987390041,0.1007955998647958,0.30042980005964637
RSVPLG03,km,20260416-163047,1.0.2,20251113-095759,825,Experiment,Both,1,Automatic,main,36,20260416-163405,local,local,750,H,S,E,E,E-H.png,E-S.png,hH,sS,mask-2.png,mask-2.png,s,0,0.4872125999536365,h,0,0.06289890012703836,0.04901279998011887,0.05002749990671873,0.10014169989153743,0.09984819986857474,0.747721099993214
RSVPLG03,km,20260416-163047,1.0.2,20251113-095759,825,Experiment,Both,1,Automatic,main,37,20260416-163410,local,local,300,S,S,A,E,A-S.png,E-S.png,sS,sS,mask-1.png,mask-4.png,s,1,0.48785639996640384,h,0,0.30333340005017817,0.05019519990310073,0.049747300101444125,0.10126059991307557,0.10002200002782047,0.30002549989148974
RSVPLG03,km,20260416-163047,1.0.2,20251113-095759,825,Experiment,Both,1,Automatic,main,38,20260416-163415,local,local,750,S,H,A,E,A-S.png,E-H.png,sS,hH,mask-2.png,mask-3.png,s,1,0.30938059999607503,h,1,0.2703211000189185,0.05015120003372431,0.04987380001693964,0.09908000007271767,0.10086799995042384,0.7493923001457006
RSVPLG03,km,20260416-163047,1.0.2,20251113-095759,825,Experiment,Both,1,Automatic,main,39,20260416-163419,local,global,300,S,S,E,E,E-S.png,S-E.png,sS,sS,mask-3.png,mask-4.png,s,1,0.5229207000229508,h,0,0.3003187000285834,0.050012300023809075,0.04901030007749796,0.10115290014073253,0.09998459997586906,0.30130730010569096
RSVPLG03,km,20260416-163047,1.0.2,20251113-095759,825,Experiment,Both,1,Automatic,main,40,20260416-163424,local,local,750,H,H,E,E,E-H.png,E-H.png,hH,hH,mask-1.png,mask-2.png,h,1,0.581670300103724,s,0,0.11008609994314611,0.04951779986731708,0.0495216001290828,0.09988659992814064,0.09887810004875064,0.749254799913615
RSVPLG03,km,20260416-163047,1.0.2,20251113-095759,825,Experiment,Both,1,Automatic,main,41,20260416-163429,local,local,300,S,S,A,A,A-S.png,A-S.png,sS,sS,mask-1.png,mask-4.png,s,1,0.45293949986808,s,1,0.1940475997980684,0.04965729988180101,0.0500709000043571,0.09945399989373982,0.1009085001423955,0.2977127998601645
RSVPLG03,km,20260416-163047,1.0.2,20251113-095759,825,Experiment,Both,1,Automatic,main,42,20260416-163433,global,global,750,H,S,E,A,H-E.png,S-A.png,hH,sS,mask-2.png,mask-3.png,h,1,0.4933951001148671,s,1,0.07830439996905625,0.04827930009923875,0.05058509996160865,0.09981350018642843,0.10150250000879169,0.7478390000760555
RSVPLG03,km,20260416-163047,1.0.2,20251113-095759,825,Experiment,Both,1,Automatic,main,43,20260416-163438,global,global,750,H,H,E,E,H-E.png,H-E.png,hH,hH,mask-2.png,mask-1.png,h,1,0.40774359996430576,h,1,0.11045710020698607,0.050650899996981025,0.049616900039836764,0.10082569997757673,0.09891730011440814,0.7505828998982906
RSVPLG03,km,20260416-163047,1.0.2,20251113-095759,825,Experiment,Both,1,Automatic,main,44,20260416-163442,local,global,750,S,H,A,A,A-S.png,H-A.png,sS,hH,mask-4.png,mask-2.png,s,1,0.5636617999989539,h,1,1.1810181001201272,0.051327900029718876,0.04766030004248023,0.10087720002047718,0.09813020005822182,0.7512562000192702
RSVPLG03,km,20260416-163047,1.0.2,20251113-095759,825,Experiment,Both,1,Automatic,main,45,20260416-163448,local,global,750,H,H,E,E,E-H.png,H-E.png,hH,hH,mask-2.png,mask-3.png,h,1,0.48958919988945127,s,0,1.6139698000624776,0.04990960005670786,0.04764359979890287,0.0990985999815166,0.0979539998807013,0.7496992000378668
RSVPLG03,km,20260416-163047,1.0.2,20251113-095759,825,Experiment,Both,1,Automatic,main,46,20260416-163455,global,local,300,S,H,E,A,S-E.png,A-H.png,sS,hH,mask-2.png,mask-3.png,s,1,0.5948950001038611,h,1,0.07687910017557442,0.04977539996616542,0.05077009997330606,0.10069260001182556,0.10165049997158349,0.2993519001174718
RSVPLG03,km,20260416-163047,1.0.2,20251113-095759,825,Experiment,Both,1,Automatic,main,47,20260416-163459,global,global,300,S,S,E,E,S-E.png,S-E.png,sS,sS,mask-1.png,mask-1.png,s,1,0.5242188000120223,h,0,0.04569539986550808,0.051170899998396635,0.050187700195237994,0.10131460009142756,0.10027320007793605,0.2993224000092596
RSVPLG03,km,20260416-163047,1.0.2,20251113-095759,825,Experiment,Both,1,Automatic,main,48,20260416-163504,local,local,750,H,S,E,E,E-H.png,E-S.png,hH,sS,mask-3.png,mask-4.png,h,1,0.24017230002209544,s,1,0.12868289998732507,0.049502700101584196,0.04995559994131327,0.0979228001087904,0.0996240999083966,0.748338800156489
RSVPLG03,km,20260416-163047,1.0.2,20251113-095759,825,Experiment,Both,1,Automatic,main,49,20260416-163508,local,global,300,H,H,E,A,E-H.png,H-A.png,hH,hH,mask-2.png,mask-1.png,h,1,0.3256466998718679,s,0,0.23859179997816682,0.048299500020220876,0.04769470007158816,0.09903910011053085,0.09841979993507266,0.2994324001483619
RSVPLG03,km,20260416-163047,1.0.2,20251113-095759,825,Experiment,Both,1,Automatic,main,50,20260416-163513,global,global,750,H,S,A,E,H-A.png,S-E.png,hH,sS,mask-1.png,mask-3.png,h,1,0.4253891999833286,s,1,0.19160469993948936,0.04989030002616346,0.05002149986103177,0.1002704999409616,0.1004227998200804,0.7479453000705689
RSVPLG03,km,20260416-163047,1.0.2,20251113-095759,825,Experiment,Both,1,Automatic,main,51,20260416-163533,global,global,300,S,S,A,E,S-A.png,S-E.png,sS,sS,mask-3.png,mask-4.png,s,1,0.3582202000543475,s,1,0.5558184999972582,0.04991959990002215,0.04766630008816719,0.09991029999218881,0.09817859996110201,0.29968519997783005
RSVPLG03,km,20260416-163047,1.0.2,20251113-095759,825,Experiment,Both,1,Automatic,main,52,20260416-163538,local,global,750,H,H,E,E,E-H.png,H-E.png,hH,hH,mask-1.png,mask-2.png,h,1,0.3501458999235183,s,0,0.07567790010944009,0.05091959983110428,0.05007850006222725,0.09967829985544086,0.09989809989929199,0.7484351999592036
RSVPLG03,km,20260416-163047,1.0.2,20251113-095759,825,Experiment,Both,1,Automatic,main,53,20260416-163543,local,local,750,H,S,E,E,E-H.png,E-S.png,hH,sS,mask-4.png,mask-2.png,h,1,0.4659240001346916,s,1,0.12510890001431108,0.049786899937316775,0.05090830009430647,0.09964819997549057,0.10001470008864999,0.7479043998755515
RSVPLG03,km,20260416-163047,1.0.2,20251113-095759,825,Experiment,Both,1,Automatic,main,54,20260416-163547,global,global,300,H,S,A,A,H-A.png,S-A.png,hH,sS,mask-1.png,mask-4.png,h,1,0.38555050012655556,s,1,0.10883720009587705,0.04996920004487038,0.0496460001450032,0.09778599999845028,0.10040400014258921,0.29816309991292655
RSVPLG03,km,20260416-163047,1.0.2,20251113-095759,825,Experiment,Both,1,Automatic,main,55,20260416-163552,global,local,300,S,H,A,A,S-A.png,A-H.png,sS,hH,mask-4.png,mask-2.png,s,1,0.45836550020612776,h,1,0.03285820013843477,0.04985360009595752,0.05174309993162751,0.09984680009074509,0.10155249992385507,0.29948940011672676
RSVPLG03,km,20260416-163047,1.0.2,20251113-095759,825,Experiment,Both,1,Automatic,main,56,20260416-163556,global,global,750,H,H,E,A,H-E.png,H-A.png,hH,hH,mask-1.png,mask-2.png,h,1,0.31917469995096326,h,1,0.11227170005440712,0.05012580007314682,0.048234700225293636,0.09829570003785193,0.09919780003838241,0.7502663999330252
RSVPLG03,km,20260416-163047,1.0.2,20251113-095759,825,Experiment,Both,1,Automatic,main,57,20260416-163600,global,global,300,S,S,A,A,S-A.png,S-A.png,sS,sS,mask-4.png,mask-2.png,s,1,0.37329769995994866,s,1,0.2374332998879254,0.048585399985313416,0.051143000135198236,0.09751070011407137,0.10211999993771315,0.29744670004583895
RSVPLG03,km,20260416-163047,1.0.2,20251113-095759,825,Experiment,Both,1,Automatic,main,58,20260416-163605,global,local,300,H,S,A,E,H-A.png,E-S.png,hH,sS,mask-2.png,mask-3.png,h,1,0.3705293000675738,s,1,0.07576269982382655,0.05000549997203052,0.04967860016040504,0.09909569984301925,0.09997660014778376,0.2998755997978151
RSVPLG03,km,20260416-163047,1.0.2,20251113-095759,825,Experiment,Both,1,Automatic,main,59,20260416-163609,local,global,300,H,S,E,E,E-H.png,S-E.png,hH,sS,mask-1.png,mask-2.png,s,0,0.38307480001822114,h,0,0.6696518000680953,0.04993500001728535,0.04969620006158948,0.09984999988228083,0.10016099992208183,0.2997645998839289
RSVPLG03,km,20260416-163047,1.0.2,20251113-095759,825,Experiment,Both,1,Automatic,main,60,20260416-163613,global,global,750,H,S,A,A,H-A.png,S-A.png,hH,sS,mask-3.png,mask-2.png,h,1,0.2817647000774741,s,1,0.0760822999291122,0.049966500140726566,0.050592300016433,0.09989800001494586,0.10023139999248087,0.7492714000400156
RSVPLG03,km,20260416-163047,1.0.2,20251113-095759,825,Experiment,Both,1,Automatic,main,61,20260416-163618,global,global,300,H,H,A,A,H-A.png,H-A.png,hH,hH,mask-2.png,mask-3.png,h,1,0.8742627999745309,h,1,0.09603750007227063,0.050822800025343895,0.04994199983775616,0.09962629992514849,0.1004538000561297,0.2996378999669105
RSVPLG03,km,20260416-163047,1.0.2,20251113-095759,825,Experiment,Both,1,Automatic,main,62,20260416-163622,local,global,750,H,S,E,A,E-H.png,S-A.png,hH,sS,mask-1.png,mask-2.png,h,1,0.405672499909997,s,1,0.19090369995683432,0.04869480011984706,0.049011100083589554,0.09916220000013709,0.09901969996280968,0.7493133000098169
RSVPLG03,km,20260416-163047,1.0.2,20251113-095759,825,Experiment,Both,1,Automatic,main,63,20260416-163627,local,local,300,S,S,A,E,A-S.png,E-S.png,sS,sS,mask-3.png,mask-1.png,s,1,0.3693497001659125,s,1,0.09258230007253587,0.0488884998485446,0.04994369996711612,0.09886020002886653,0.09932979987934232,0.29980979999527335
RSVPLG03,km,20260416-163047,1.0.2,20251113-095759,825,Experiment,Both,1,Automatic,main,64,20260416-163631,local,local,750,S,H,E,A,E-S.png,A-H.png,sS,hH,mask-4.png,mask-4.png,s,1,0.28952560015022755,h,1,0.09332800004631281,0.05009189993143082,0.05062810005620122,0.09986760001629591,0.09961280017159879,0.7494130998384207
RSVPLG03,km,20260416-163047,1.0.2,20251113-095759,825,Experiment,Both,1,Automatic,main,65,20260416-163636,local,local,750,H,S,A,E,A-H.png,E-S.png,hH,sS,mask-4.png,mask-3.png,h,1,0.23756809998303652,s,1,0.1085812000092119,0.04910179995931685,0.05001810006797314,0.09916660003364086,0.10015219985507429,0.7490316000767052
RSVPLG03,km,20260416-163047,1.0.2,20251113-095759,825,Experiment,Both,1,Automatic,main,66,20260416-163640,global,local,300,S,S,A,E,S-A.png,E-S.png,sS,sS,mask-1.png,mask-2.png,s,1,0.3936038000974804,s,1,0.12553830002434552,0.04971090005710721,0.049835499841719866,0.09983720001764596,0.09966099984012544,0.29934000014327466
RSVPLG03,km,20260416-163047,1.0.2,20251113-095759,825,Experiment,Both,1,Automatic,main,67,20260416-163644,global,local,300,H,S,E,A,H-E.png,A-S.png,hH,sS,mask-2.png,mask-4.png,h,1,0.49675929988734424,s,1,0.7489942999090999,0.048639400163665414,0.04672550014220178,0.0994520999956876,0.0962905001360923,0.30148030002601445
RSVPLG03,km,20260416-163047,1.0.2,20251113-095759,825,Experiment,Both,1,Automatic,main,68,20260416-163649,local,global,750,H,S,E,E,E-H.png,S-E.png,hH,sS,mask-1.png,mask-3.png,h,1,0.8351018000394106,s,1,0.09353609988465905,0.050714500015601516,0.050902399932965636,0.09969429997727275,0.09873480000533164,0.7496722999494523
RSVPLG03,km,20260416-163047,1.0.2,20251113-095759,825,Experiment,Both,1,Automatic,main,69,20260416-163654,global,global,750,S,S,A,A,S-A.png,S-A.png,sS,sS,mask-2.png,mask-1.png,s,1,0.38348910002969205,s,1,0.1101498999632895,0.04971649986691773,0.049844699911773205,0.09958519996143878,0.10020680003799498,0.7484657999593765
RSVPLG03,km,20260416-163047,1.0.2,20251113-095759,825,Experiment,Both,1,Automatic,main,70,20260416-163659,global,local,750,H,H,A,E,H-A.png,E-H.png,hH,hH,mask-4.png,mask-1.png,h,1,0.6236531999893486,s,0,0.3225503999274224,0.05095090018585324,0.05168100004084408,0.10100490017794073,0.100998800015077,0.7475994999986142
RSVPLG03,km,20260416-163047,1.0.2,20251113-095759,825,Experiment,Both,1,Automatic,main,71,20260416-163704,global,local,750,H,H,A,E,H-A.png,E-H.png,hH,hH,mask-4.png,mask-4.png,h,1,1.919392499839887,s,0,0.029628300108015537,0.049472999991849065,0.050818399991840124,0.10122019983828068,0.10062950011342764,0.748861099826172
RSVPLG03,km,20260416-163047,1.0.2,20251113-095759,825,Experiment,Both,1,Automatic,main,72,20260416-163710,global,global,300,H,S,E,A,H-E.png,S-A.png,hH,sS,mask-3.png,mask-1.png,h,1,1.6255410998128355,s,1,0.09425690001808107,0.04762490000575781,0.05054760002531111,0.0986853998620063,0.10019179992377758,0.29826269997283816
RSVPLG03,km,20260416-163047,1.0.2,20251113-095759,825,Experiment,Both,1,Automatic,main,73,20260416-163716,local,local,300,H,S,A,E,A-H.png,E-S.png,hH,sS,mask-4.png,mask-1.png,h,1,0.4577810999471694,s,1,0.7379600000567734,0.04899800010025501,0.04793310002423823,0.09798289998434484,0.09836110007017851,0.29978130012750626
RSVPLG03,km,20260416-163047,1.0.2,20251113-095759,825,Experiment,Both,1,Automatic,main,74,20260416-163720,global,global,750,H,H,E,E,H-E.png,H-E.png,hH,hH,mask-2.png,mask-2.png,h,1,0.24225509981624782,h,1,0.06270279991440475,0.049976699985563755,0.04989470005966723,0.10005599982105196,0.09994360012933612,0.7504063998349011
RSVPLG03,km,20260416-163047,1.0.2,20251113-095759,825,Experiment,Both,1,Automatic,main,75,20260416-163725,local,local,750,S,H,E,A,E-S.png,A-H.png,sS,hH,mask-1.png,mask-3.png,s,1,0.17956959991715848,h,1,0.02958309999667108,0.0506786999758333,0.048569600097835064,0.09956089989282191,0.09925379999913275,0.7495325999334455
RSVPLG03,km,20260416-163047,1.0.2,20251113-095759,825,Experiment,Both,1,Automatic,main,76,20260416-163738,global,local,750,S,S,E,E,S-E.png,E-S.png,sS,sS,mask-2.png,mask-4.png,s,1,0.1804717001505196,s,1,0.07847180007956922,0.04764209990389645,0.049056199844926596,0.09835490002296865,0.09908750001341105,0.7491862999740988
RSVPLG03,km,20260416-163047,1.0.2,20251113-095759,825,Experiment,Both,1,Automatic,main,77,20260416-163742,global,global,300,S,S,A,A,S-A.png,S-A.png,sS,sS,mask-1.png,mask-4.png,s,1,0.3973530000075698,s,1,1.7910394000355154,0.04989220015704632,0.049102900084108114,0.09989360021427274,0.0993902999907732,0.2989016000647098
RSVPLG03,km,20260416-163047,1.0.2,20251113-095759,825,Experiment,Both,1,Automatic,main,78,20260416-163748,global,local,750,S,H,A,E,S-A.png,E-H.png,sS,hH,mask-3.png,mask-1.png,s,1,0.45358430012129247,s,0,0.17132219998165965,0.04985650000162423,0.04872429999522865,0.0998881000559777,0.09923489997163415,0.7487530999351293
RSVPLG03,km,20260416-163047,1.0.2,20251113-095759,825,Experiment,Both,1,Automatic,main,79,20260416-163753,local,local,750,H,H,E,E,E-H.png,E-H.png,hH,hH,mask-2.png,mask-4.png,h,1,2.4708271000999957,h,1,0.26877249986864626,0.051055199932307005,0.0499548998195678,0.10075929993763566,0.10095179989002645,0.7504779000300914
RSVPLG03,km,20260416-163047,1.0.2,20251113-095759,825,Experiment,Both,1,Automatic,main,80,20260416-163800,global,local,300,S,H,A,A,S-A.png,A-H.png,sS,hH,mask-4.png,mask-2.png,s,1,0.3759468998759985,h,1,0.06290520005859435,0.04861730011180043,0.05043209996074438,0.099046700168401,0.09898559981957078,0.2986400001682341
RSVPLG03,km,20260416-163047,1.0.2,20251113-095759,825,Experiment,Both,1,Automatic,main,81,20260416-163804,local,global,750,H,S,E,E,E-H.png,S-E.png,hH,sS,mask-2.png,mask-2.png,h,1,0.32339400006458163,s,1,0.1904718999285251,0.04961679992265999,0.04979499988257885,0.09980550012551248,0.09989559999667108,0.7497606000397354
RSVPLG03,km,20260416-163047,1.0.2,20251113-095759,825,Experiment,Both,1,Automatic,main,82,20260416-163809,local,global,750,S,H,E,A,E-S.png,H-A.png,sS,hH,mask-2.png,mask-2.png,s,1,0.35807739989832044,h,1,0.2357822998892516,0.05113140004687011,0.04870030004531145,0.09991819993592799,0.0993856000714004,0.7505375000182539
RSVPLG03,km,20260416-163047,1.0.2,20251113-095759,825,Experiment,Both,1,Automatic,main,83,20260416-163813,local,local,750,S,S,E,A,E-S.png,A-S.png,sS,sS,mask-1.png,mask-4.png,s,1,1.6357523000333458,h,0,4.574452999979258,0.048926400020718575,0.04988609999418259,0.09897020016796887,0.09988259989768267,0.7475382001139224
RSVPLG03,km,20260416-163047,1.0.2,20251113-095759,825,Experiment,Both,1,Automatic,main,84,20260416-163824,global,global,300,S,S,E,E,S-E.png,S-E.png,sS,sS,mask-3.png,mask-1.png,s,1,0.4235631001647562,s,1,0.36449190019629896,0.05067079979926348,0.04904249985702336,0.10081389988772571,0.09919700003229082,0.30120899993926287
RSVPLG03,km,20260416-163047,1.0.2,20251113-095759,825,Experiment,Both,1,Automatic,main,85,20260416-163828,global,global,750,S,S,A,E,S-A.png,S-E.png,sS,sS,mask-1.png,mask-3.png,s,1,0.24174010008573532,s,1,0.09703080006875098,0.050970199983567,0.047911399975419044,0.10096229985356331,0.0979311999399215,0.7507676999084651
RSVPLG03,km,20260416-163047,1.0.2,20251113-095759,825,Experiment,Both,1,Automatic,main,86,20260416-163833,global,local,300,H,H,A,A,H-A.png,A-H.png,hH,hH,mask-1.png,mask-3.png,h,1,0.4979079000186175,h,1,0.1461250998545438,0.04981460003182292,0.0489610000513494,0.09950699983164668,0.098639199975878,0.2999476999975741
RSVPLG03,km,20260416-163047,1.0.2,20251113-095759,825,Experiment,Both,1,Automatic,main,87,20260416-163837,global,local,750,H,H,E,A,H-E.png,A-H.png,hH,hH,mask-4.png,mask-1.png,h,1,0.3751751999370754,h,1,0.14122130000032485,0.050873100059106946,0.0498684998601675,0.09987509995698929,0.10033919988200068,0.7498210000339895
RSVPLG03,km,20260416-163047,1.0.2,20251113-095759,825,Experiment,Both,1,Automatic,main,88,20260416-163842,local,local,300,S,H,A,E,A-S.png,E-H.png,sS,hH,mask-2.png,mask-4.png,s,1,0.3184541999362409,h,1,0.15751249995082617,0.049987400183454156,0.048781999852508307,0.10012630000710487,0.09838019986636937,0.3003737002145499
RSVPLG03,km,20260416-163047,1.0.2,20251113-095759,825,Experiment,Both,1,Automatic,main,89,20260416-163846,global,global,750,H,H,E,E,H-E.png,H-E.png,hH,hH,mask-3.png,mask-1.png,h,1,0.25013649999164045,h,1,0.09208510001190007,0.049845999805256724,0.04969109990634024,0.09983189986087382,0.09805490006692708,0.7498844999354333
RSVPLG03,km,20260416-163047,1.0.2,20251113-095759,825,Experiment,Both,1,Automatic,main,90,20260416-163851,global,global,750,S,S,A,E,S-A.png,S-E.png,sS,sS,mask-4.png,mask-4.png,s,1,0.2631525998003781,h,0,1.5175158998463303,0.048369500087574124,0.04792589996941388,0.09828150016255677,0.09900219994597137,0.7502956001553684
RSVPLG03,km,20260416-163047,1.0.2,20251113-095759,825,Experiment,Both,1,Automatic,main,91,20260416-163857,global,global,300,S,H,E,E,S-E.png,H-E.png,sS,hH,mask-1.png,mask-2.png,s,1,0.2979832999408245,h,1,0.14066439983434975,0.049863499822095037,0.0510708000510931,0.09979010000824928,0.10055470000952482,0.29904409986920655
RSVPLG03,km,20260416-163047,1.0.2,20251113-095759,825,Experiment,Both,1,Automatic,main,92,20260416-163901,global,local,750,S,H,A,E,S-A.png,E-H.png,sS,hH,mask-1.png,mask-2.png,s,1,0.23016869998537004,h,1,0.20648319995962083,0.0487591999117285,0.04970560013316572,0.09866639995016158,0.10068970010615885,0.7477944998536259
RSVPLG03,km,20260416-163047,1.0.2,20251113-095759,825,Experiment,Both,1,Automatic,main,93,20260416-163905,local,global,300,H,H,A,E,A-H.png,H-E.png,hH,hH,mask-2.png,mask-3.png,h,1,0.43843539990484715,s,0,3.4074677999597043,0.051042000064626336,0.05017430009320378,0.10117750009521842,0.09931770013645291,0.29907980002462864
RSVPLG03,km,20260416-163047,1.0.2,20251113-095759,825,Experiment,Both,1,Automatic,main,94,20260416-163913,local,global,300,H,S,E,A,E-H.png,S-A.png,hH,sS,mask-1.png,mask-3.png,h,1,0.37187000014819205,s,1,0.07730510015971959,0.04989879997447133,0.04989319993183017,0.09887370001524687,0.09995429986156523,0.29972200002521276
RSVPLG03,km,20260416-163047,1.0.2,20251113-095759,825,Experiment,Both,1,Automatic,main,95,20260416-163917,global,global,300,S,S,E,A,S-E.png,S-A.png,sS,sS,mask-3.png,mask-3.png,s,1,0.40235270000994205,s,1,0.1416417001746595,0.04904899979010224,0.04955300013534725,0.09990599984303117,0.09912400017492473,0.29877659981139004
RSVPLG03,km,20260416-163047,1.0.2,20251113-095759,825,Experiment,Both,1,Automatic,main,96,20260416-163921,local,local,750,H,H,E,A,E-H.png,A-H.png,hH,hH,mask-2.png,mask-4.png,h,1,0.8274590000510216,h,1,0.1585248000919819,0.050010700011625886,0.049980999901890755,0.10023969993926585,0.10014780005440116,0.7499571000225842
RSVPLG03,km,20260416-163047,1.0.2,20251113-095759,825,Experiment,Both,1,Automatic,main,97,20260416-163927,local,global,300,H,H,E,E,E-H.png,H-E.png,hH,hH,mask-2.png,mask-1.png,h,1,0.46000800002366304,s,0,0.07600689982064068,0.04990520002320409,0.04852010007016361,0.09936049999669194,0.10033400007523596,0.30018889997154474
RSVPLG03,km,20260416-163047,1.0.2,20251113-095759,825,Experiment,Both,1,Automatic,main,98,20260416-163931,global,global,750,S,S,A,E,S-A.png,S-E.png,sS,sS,mask-4.png,mask-1.png,s,1,0.3156016001012176,s,1,0.12749370001256466,0.04969150014221668,0.04987909994088113,0.0995155000127852,0.10012859990820289,0.7507502001244575
RSVPLG03,km,20260416-163047,1.0.2,20251113-095759,825,Experiment,Both,1,Automatic,main,99,20260416-163935,global,local,750,H,H,E,E,H-E.png,E-H.png,hH,hH,mask-1.png,mask-4.png,h,1,0.6030728998593986,h,1,1.6623064000159502,0.0508886999450624,0.05076760007068515,0.1000023998785764,0.10036209993995726,0.7486300999298692
RSVPLG03,km,20260416-163047,1.0.2,20251113-095759,825,Experiment,Both,1,Automatic,main,100,20260416-163942,local,local,300,H,H,A,E,A-H.png,E-H.png,hH,hH,mask-4.png,mask-2.png,h,1,0.5474231000989676,h,1,0.26956319995224476,0.04976679990068078,0.05047959997318685,0.10036399983800948,0.09936850005760789,0.2996571999974549
RSVPLG03,km,20260416-164035,1.0.2,20251113-095759,825,Experiment,Both,1,Automatic,warmup,1,20260416-164106,local,local,300,S,H,A,A,A-S.png,A-H.png,sS,hH,mask-3.png,mask-4.png,s,1,0.23014899995177984,h,1,0.013683999888598919,0.03944350010715425,0.05171580007299781,0.08947070012800395,0.10054240003228188,0.2892666000407189
RSVPLG03,km,20260416-164035,1.0.2,20251113-095759,825,Experiment,Both,1,Automatic,warmup,2,20260416-164110,local,global,300,S,S,E,A,E-S.png,S-A.png,sS,sS,mask-2.png,mask-2.png,s,1,0.35262209991924465,h,0,0.16123429988510907,0.048509799875319004,0.05038819997571409,0.09994040010496974,0.1008160999044776,0.29830839997157454
RSVPLG03,km,20260416-164035,1.0.2,20251113-095759,825,Experiment,Both,1,Automatic,warmup,3,20260416-164114,global,global,300,S,S,A,E,S-A.png,S-E.png,sS,sS,mask-4.png,mask-2.png,s,1,0.3390559998806566,s,1,0.1255020999815315,0.04892010008916259,0.05058309994637966,0.09933979995548725,0.10061710001900792,0.29838990001007915
RSVPLG03,km,20260416-164035,1.0.2,20251113-095759,825,Experiment,Both,1,Automatic,warmup,4,20260416-164118,global,local,750,S,S,E,A,S-E.png,A-S.png,sS,sS,mask-4.png,mask-1.png,s,1,0.283001400064677,h,0,0.06252679997123778,0.049955799942836165,0.04886609991081059,0.0996157000772655,0.09766159998252988,0.749403900001198
RSVPLG03,km,20260416-164035,1.0.2,20251113-095759,825,Experiment,Both,1,Automatic,main,5,20260416-164123,local,global,750,H,S,E,E,E-H.png,S-E.png,hH,sS,mask-3.png,mask-2.png,h,1,0.32813110016286373,s,1,0.06165260006673634,0.0494976001791656,0.048005100106820464,0.10132320015691221,0.09800060000270605,0.7503762000706047
RSVPLG03,km,20260416-164035,1.0.2,20251113-095759,825,Experiment,Both,1,Automatic,main,6,20260416-164127,local,global,750,S,S,A,E,A-S.png,S-E.png,sS,sS,mask-3.png,mask-2.png,s,1,0.5515013998374343,s,1,0.12742789997719228,0.048859399976208806,0.049772500060498714,0.0988445000257343,0.0996594000607729,0.7473897999152541
RSVPLG03,km,20260416-164035,1.0.2,20251113-095759,825,Experiment,Both,1,Automatic,main,7,20260416-164132,global,global,750,S,S,A,E,S-A.png,S-E.png,sS,sS,mask-2.png,mask-3.png,s,1,0.2536049000918865,s,1,0.0976929001044482,0.049899900099262595,0.049564999993890524,0.10248359991237521,0.09939580014906824,0.7487683999352157
RSVPLG03,km,20260416-164035,1.0.2,20251113-095759,825,Experiment,Both,1,Automatic,main,8,20260416-164137,global,local,300,H,S,A,A,H-A.png,A-S.png,hH,sS,mask-4.png,mask-3.png,h,1,0.40161820012144744,h,0,0.3006774999666959,0.04958719993010163,0.05060010007582605,0.10053479997441173,0.10027420008555055,0.29914169991388917
RSVPLG03,km,20260416-164035,1.0.2,20251113-095759,825,Experiment,Both,1,Automatic,main,9,20260416-164141,local,global,300,H,H,A,E,A-H.png,H-E.png,hH,hH,mask-4.png,mask-3.png,h,1,0.8776344999205321,s,0,0.07752669998444617,0.04926759982481599,0.049683399964123964,0.10078599979169667,0.10051829996518791,0.30037489999085665
RSVPLG03,km,20260416-164035,1.0.2,20251113-095759,825,Experiment,Both,1,Automatic,main,10,20260416-164146,local,global,750,H,S,E,E,E-H.png,S-E.png,hH,sS,mask-2.png,mask-4.png,h,1,0.6216106999199837,s,1,0.1585214000660926,0.04936420009471476,0.04887980013154447,0.09936450002714992,0.09986750013194978,0.7497634999454021
RSVPLG03,km,20260416-164035,1.0.2,20251113-095759,825,Experiment,Both,1,Automatic,main,11,20260416-164151,global,local,750,S,H,E,E,S-E.png,E-H.png,sS,hH,mask-1.png,mask-1.png,s,1,0.41943840007297695,h,1,0.07767099980264902,0.04987240000627935,0.04940819996409118,0.09894870012067258,0.0993315998930484,0.747983300127089
RSVPLG03,km,20260416-164035,1.0.2,20251113-095759,825,Experiment,Both,1,Automatic,main,12,20260416-164155,global,global,300,H,H,E,A,H-E.png,H-A.png,hH,hH,mask-2.png,mask-4.png,h,1,0.26422880007885396,h,1,0.17387179983779788,0.05004020011983812,0.04944429988972843,0.09980430011637509,0.09853009996004403,0.30068460013717413
RSVPLG03,km,20260416-164035,1.0.2,20251113-095759,825,Experiment,Both,1,Automatic,main,13,20260416-164159,global,global,750,H,H,A,A,H-A.png,H-A.png,hH,hH,mask-2.png,mask-2.png,h,1,0.39690669998526573,h,1,0.0941898999735713,0.04868560004979372,0.04890439985319972,0.09951860015280545,0.09893719991669059,0.7480531001929194
RSVPLG03,km,20260416-164035,1.0.2,20251113-095759,825,Experiment,Both,1,Automatic,main,14,20260416-164204,local,local,300,H,S,A,A,A-H.png,A-S.png,hH,sS,mask-1.png,mask-4.png,h,1,0.404641899978742,s,1,0.2366460000630468,0.05056299990974367,0.04974350007250905,0.09922620002180338,0.09932560008019209,0.3002867999020964
RSVPLG03,km,20260416-164035,1.0.2,20251113-095759,825,Experiment,Both,1,Automatic,main,15,20260416-164208,global,global,300,H,H,A,A,H-A.png,H-A.png,hH,hH,mask-3.png,mask-4.png,h,1,0.19666599994525313,h,1,0.09132259991019964,0.049898199969902635,0.04891199991106987,0.0998464000876993,0.09992030006833375,0.2999873000662774
RSVPLG03,km,20260416-164035,1.0.2,20251113-095759,825,Experiment,Both,1,Automatic,main,16,20260416-164212,global,local,300,S,H,E,E,S-E.png,E-H.png,sS,hH,mask-4.png,mask-1.png,s,1,0.2542040999978781,h,1,0.05936209997162223,0.049941600067541,0.05143079999834299,0.09842889988794923,0.09998750011436641,0.29852039995603263
RSVPLG03,km,20260416-164035,1.0.2,20251113-095759,825,Experiment,Both,1,Automatic,main,17,20260416-164216,global,global,750,S,H,A,E,S-A.png,H-E.png,sS,hH,mask-4.png,mask-2.png,s,1,0.2856551001314074,h,1,0.11457270011305809,0.04872049996629357,0.049382600001990795,0.09859900013543665,0.10056559997610748,0.74768660007976
RSVPLG03,km,20260416-164035,1.0.2,20251113-095759,825,Experiment,Both,1,Automatic,main,18,20260416-164221,local,local,750,S,H,E,E,E-S.png,E-H.png,sS,hH,mask-3.png,mask-4.png,s,1,0.12937039998359978,h,1,0.07838679989799857,0.050685200141742826,0.04943999997340143,0.09951240010559559,0.0982421999797225,0.7488687001168728
RSVPLG03,km,20260416-164035,1.0.2,20251113-095759,825,Experiment,Both,1,Automatic,main,19,20260416-164225,global,global,750,S,S,E,E,S-E.png,S-E.png,sS,sS,mask-3.png,mask-1.png,s,1,0.25729489978402853,s,1,0.11150489980354905,0.04991120006889105,0.0509031000547111,0.09992359997704625,0.10089780017733574,0.7471378999762237
RSVPLG03,km,20260416-164035,1.0.2,20251113-095759,825,Experiment,Both,1,Automatic,main,20,20260416-164230,global,global,750,S,S,A,E,S-A.png,S-E.png,sS,sS,mask-2.png,mask-2.png,s,1,0.24861659994348884,s,1,0.1575684999115765,0.04994640010409057,0.04989259992726147,0.1002901999745518,0.09962809993885458,0.7493471000343561
RSVPLG03,km,20260416-164035,1.0.2,20251113-095759,825,Experiment,Both,1,Automatic,main,21,20260416-164234,local,local,750,S,H,E,E,E-S.png,E-H.png,sS,hH,mask-3.png,mask-2.png,s,1,0.9776698998175561,s,0,0.12881530006416142,0.04989259992726147,0.04805610002949834,0.09991029999218881,0.09821560001000762,0.7485684999264777
RSVPLG03,km,20260416-164035,1.0.2,20251113-095759,825,Experiment,Both,1,Automatic,main,22,20260416-164239,local,global,300,S,S,E,A,E-S.png,S-A.png,sS,sS,mask-4.png,mask-2.png,s,1,0.344602599972859,h,0,0.09077750006690621,0.05072020017541945,0.04872020008042455,0.10056539997458458,0.09964239993132651,0.3011102001182735
RSVPLG03,km,20260416-164035,1.0.2,20251113-095759,825,Experiment,Both,1,Automatic,main,23,20260416-164244,global,global,750,H,S,A,E,H-A.png,S-E.png,hH,sS,mask-1.png,mask-3.png,h,1,0.4014843001496047,s,1,0.11033899988979101,0.049885000102221966,0.04989570006728172,0.10090499999932945,0.10000799992121756,0.7495349000673741
RSVPLG03,km,20260416-164035,1.0.2,20251113-095759,825,Experiment,Both,1,Automatic,main,24,20260416-164248,local,local,750,H,S,E,A,E-H.png,A-S.png,hH,sS,mask-1.png,mask-2.png,h,1,0.2679020999930799,s,1,0.15749279991723597,0.049886499997228384,0.05002030008472502,0.09943089983426034,0.10006800014525652,0.7483029998838902
RSVPLG03,km,20260416-164035,1.0.2,20251113-095759,825,Experiment,Both,1,Automatic,main,25,20260416-164253,local,global,750,S,S,E,E,E-S.png,S-E.png,sS,sS,mask-3.png,mask-3.png,s,1,0.2746047000400722,h,0,0.7479346001055092,0.04994319984689355,0.04974970011971891,0.10005149990320206,0.09965150011703372,0.748731599887833
RSVPLG03,km,20260416-164035,1.0.2,20251113-095759,825,Experiment,Both,1,Automatic,main,26,20260416-164333,local,local,300,H,H,E,E,E-H.png,E-H.png,hH,hH,mask-1.png,mask-1.png,h,1,0.162850399967283,h,1,0.5232877000235021,0.04891930008307099,0.04941279999911785,0.10001590009778738,0.1011659000068903,0.2986312999855727
RSVPLG03,km,20260416-164035,1.0.2,20251113-095759,825,Experiment,Both,1,Automatic,main,27,20260416-164337,global,global,300,S,H,E,A,S-E.png,H-A.png,sS,hH,mask-3.png,mask-4.png,s,1,0.2902819998562336,h,1,0.06353610008955002,0.05036140000447631,0.04997849999926984,0.09966040006838739,0.0996431999374181,0.2990015000104904
RSVPLG03,km,20260416-164035,1.0.2,20251113-095759,825,Experiment,Both,1,Automatic,main,28,20260416-164341,local,local,300,S,H,E,A,E-S.png,A-H.png,sS,hH,mask-4.png,mask-3.png,s,1,0.22113629989326,h,1,0.03270959993824363,0.04895430011674762,0.05036529991775751,0.1004763999953866,0.10004399996250868,0.29830200015567243
RSVPLG03,km,20260416-164035,1.0.2,20251113-095759,825,Experiment,Both,1,Automatic,main,29,20260416-164345,local,local,750,S,S,E,E,E-S.png,E-S.png,sS,sS,mask-4.png,mask-1.png,s,1,0.38255669991485775,s,1,0.6674599000252783,0.04982009995728731,0.05147950001992285,0.09978879988193512,0.09947040001861751,0.7484404998831451
RSVPLG03,km,20260416-164035,1.0.2,20251113-095759,825,Experiment,Both,1,Automatic,main,30,20260416-164350,local,global,750,S,S,A,E,A-S.png,S-E.png,sS,sS,mask-4.png,mask-2.png,s,1,0.5022964000236243,h,0,0.14157880004495382,0.048788800137117505,0.05001340014860034,0.09977060020901263,0.10019839997403324,0.7463515000417829
RSVPLG03,km,20260416-164035,1.0.2,20251113-095759,825,Experiment,Both,1,Automatic,main,31,20260416-164355,global,global,300,S,H,A,E,S-A.png,H-E.png,sS,hH,mask-1.png,mask-3.png,s,1,0.25328560010530055,h,1,0.12252070009708405,0.04871149989776313,0.049391499953344464,0.10026159998960793,0.09994610003195703,0.29916239995509386
RSVPLG03,km,20260416-164035,1.0.2,20251113-095759,825,Experiment,Both,1,Automatic,main,32,20260416-164359,global,local,750,S,H,A,A,S-A.png,A-H.png,sS,hH,mask-4.png,mask-3.png,s,1,0.15918530011549592,h,1,0.13959769997745752,0.05080340011045337,0.048917700070887804,0.10082020005211234,0.09992279997095466,0.7492216001264751
RSVPLG03,km,20260416-164035,1.0.2,20251113-095759,825,Experiment,Both,1,Automatic,main,33,20260416-164403,global,global,750,S,H,A,E,S-A.png,H-E.png,sS,hH,mask-2.png,mask-1.png,s,1,0.24353480013087392,h,1,0.113072199979797,0.050803499994799495,0.05022469977848232,0.09896630002185702,0.10080899996683002,0.7479784002061933
RSVPLG03,km,20260416-164035,1.0.2,20251113-095759,825,Experiment,Both,1,Automatic,main,34,20260416-164408,global,local,300,S,H,E,E,S-E.png,E-H.png,sS,hH,mask-1.png,mask-2.png,s,1,0.22983029996976256,h,1,0.09808230004273355,0.04979269998148084,0.04973040008917451,0.09970490005798638,0.10062119993381202,0.2991937999613583
RSVPLG03,km,20260416-164035,1.0.2,20251113-095759,825,Experiment,Both,1,Automatic,main,35,20260416-164412,global,local,750,S,S,A,A,S-A.png,A-S.png,sS,sS,mask-1.png,mask-3.png,s,1,0.28610579995438457,h,0,0.12398730008862913,0.04793899995274842,0.049905800027772784,0.09886080003343523,0.09876900003291667,0.7471729000099003
RSVPLG03,km,20260416-164035,1.0.2,20251113-095759,825,Experiment,Both,1,Automatic,main,36,20260416-164417,local,local,750,S,S,E,A,E-S.png,A-S.png,sS,sS,mask-1.png,mask-1.png,s,1,0.3342514999676496,s,1,0.639108199859038,0.051185799995437264,0.04926609992980957,0.09917199984192848,0.10007179994136095,0.7493237999733537
RSVPLG03,km,20260416-164035,1.0.2,20251113-095759,825,Experiment,Both,1,Automatic,main,37,20260416-164422,local,local,300,H,S,A,A,A-H.png,A-S.png,hH,sS,mask-2.png,mask-4.png,h,1,0.3388408001046628,s,1,0.15991050004959106,0.04954009992070496,0.050682999892160296,0.09930719994008541,0.10003139986656606,0.29871740005910397
RSVPLG03,km,20260416-164035,1.0.2,20251113-095759,825,Experiment,Both,1,Automatic,main,38,20260416-164426,global,local,300,S,S,A,E,S-A.png,E-S.png,sS,sS,mask-1.png,mask-4.png,s,1,0.29974670009687543,s,1,0.15640310011804104,0.0507789000403136,0.05105030001141131,0.10072789993137121,0.10013250005431473,0.299145600060001
RSVPLG03,km,20260416-164035,1.0.2,20251113-095759,825,Experiment,Both,1,Automatic,main,39,20260416-164430,global,local,300,S,H,A,E,S-A.png,E-H.png,sS,hH,mask-2.png,mask-4.png,s,1,0.29745119996368885,h,1,3.230067600030452,0.04991560010239482,0.04988300008699298,0.09896169998683035,0.09994060010649264,0.2999472999945283
RSVPLG03,km,20260416-164035,1.0.2,20251113-095759,825,Experiment,Both,1,Automatic,main,40,20260416-164437,local,global,300,H,S,E,A,E-H.png,S-A.png,hH,sS,mask-2.png,mask-2.png,h,1,0.36159630003385246,h,0,0.17197559983469546,0.05006779986433685,0.05084990011528134,0.10086019989103079,0.10086650005541742,0.2996019998099655
RSVPLG03,km,20260416-164035,1.0.2,20251113-095759,825,Experiment,Both,1,Automatic,main,41,20260416-164442,global,local,300,H,H,E,E,H-E.png,E-H.png,hH,hH,mask-3.png,mask-4.png,h,1,0.30316369980573654,s,0,0.20802480005659163,0.049656799994409084,0.048706899862736464,0.0996010999660939,0.10067379986867309,0.2995494999922812
RSVPLG03,km,20260416-164035,1.0.2,20251113-095759,825,Experiment,Both,1,Automatic,main,42,20260416-164446,local,local,300,H,H,A,A,A-H.png,A-H.png,hH,hH,mask-4.png,mask-4.png,h,1,0.7505416998174042,h,1,0.11155700008384883,0.04892789991572499,0.050284799886867404,0.09885539999231696,0.09884370001964271,0.29913739999756217
RSVPLG03,km,20260416-164035,1.0.2,20251113-095759,825,Experiment,Both,1,Automatic,main,43,20260416-164451,local,local,300,H,H,A,E,A-H.png,E-H.png,hH,hH,mask-1.png,mask-4.png,h,1,0.3811316001228988,h,1,0.2517921000253409,0.05007490003481507,0.0516198999248445,0.09918039990589023,0.10124540003016591,0.2973362999036908
RSVPLG03,km,20260416-164035,1.0.2,20251113-095759,825,Experiment,Both,1,Automatic,main,44,20260416-164455,local,global,750,H,H,E,E,E-H.png,H-E.png,hH,hH,mask-3.png,mask-3.png,h,1,0.564045500010252,h,1,0.1744886999949813,0.04969929996877909,0.050144500099122524,0.10134829999879003,0.09975280007347465,0.7492998999077827
RSVPLG03,km,20260416-164035,1.0.2,20251113-095759,825,Experiment,Both,1,Automatic,main,45,20260416-164500,global,global,750,H,S,E,A,H-E.png,S-A.png,hH,sS,mask-2.png,mask-3.png,h,1,0.29907499998807907,s,1,0.060805599903687835,0.050435000099241734,0.05016030021943152,0.0999112999998033,0.09988100011833012,0.7500310000032187
RSVPLG03,km,20260416-164035,1.0.2,20251113-095759,825,Experiment,Both,1,Automatic,main,46,20260416-164504,global,global,750,H,S,A,E,H-A.png,S-E.png,hH,sS,mask-2.png,mask-3.png,h,1,0.3187708000186831,s,1,0.04569819988682866,0.05104910000227392,0.050354599952697754,0.10011200001463294,0.10076129995286465,0.7484619000460953
RSVPLG03,km,20260416-164035,1.0.2,20251113-095759,825,Experiment,Both,1,Automatic,main,47,20260416-164509,local,local,300,H,S,E,A,E-H.png,A-S.png,hH,sS,mask-1.png,mask-2.png,h,1,0.3673908000346273,s,1,0.318091600202024,0.048698100028559566,0.04865420004352927,0.09851710009388626,0.09949179994873703,0.2990896000992507
RSVPLG03,km,20260416-164035,1.0.2,20251113-095759,825,Experiment,Both,1,Automatic,main,48,20260416-164513,global,local,750,H,H,A,A,H-A.png,A-H.png,hH,hH,mask-1.png,mask-4.png,h,1,0.38654479989781976,h,1,0.12552549992688,0.04893360007554293,0.050471700029447675,0.09982420015148818,0.10112909995950758,0.7472577001899481
RSVPLG03,km,20260416-164035,1.0.2,20251113-095759,825,Experiment,Both,1,Automatic,main,49,20260416-164518,global,local,750,H,S,E,A,H-E.png,A-S.png,hH,sS,mask-4.png,mask-3.png,h,1,0.3193705999292433,h,0,0.11149209993891418,0.05158339999616146,0.05106530012562871,0.09905750001780689,0.10000080009922385,0.7484873000066727
RSVPLG03,km,20260416-164035,1.0.2,20251113-095759,825,Experiment,Both,1,Automatic,main,50,20260416-164523,local,global,300,H,H,A,E,A-H.png,H-E.png,hH,hH,mask-1.png,mask-1.png,h,1,0.38001370010897517,s,0,0.13945199991576374,0.049422800075262785,0.050780100049450994,0.09992929990403354,0.10033360007219017,0.30013239989057183
RSVPLG03,km,20260416-164035,1.0.2,20251113-095759,825,Experiment,Both,1,Automatic,main,51,20260416-164541,local,local,750,S,H,A,A,A-S.png,A-H.png,sS,hH,mask-2.png,mask-4.png,s,1,0.12111119995824993,h,1,0.027793499873951077,0.048928000032901764,0.051744400057941675,0.09895030013285577,0.10034130001440644,0.7468082001432776
RSVPLG03,km,20260416-164035,1.0.2,20251113-095759,825,Experiment,Both,1,Automatic,main,52,20260416-164545,local,global,300,H,H,E,E,E-H.png,H-E.png,hH,hH,mask-2.png,mask-2.png,s,0,0.39648699993267655,h,1,0.15693439985625446,0.049916200106963515,0.049880400067195296,0.10001240018755198,0.09764820011332631,0.29909790004603565
RSVPLG03,km,20260416-164035,1.0.2,20251113-095759,825,Experiment,Both,1,Automatic,main,53,20260416-164550,local,global,750,S,S,E,A,E-S.png,S-A.png,sS,sS,mask-1.png,mask-2.png,s,1,1.6811327999457717,h,0,0.4943792000412941,0.04924369999207556,0.04888620018027723,0.1002664000261575,0.0998931999783963,0.7491450000088662
RSVPLG03,km,20260416-164035,1.0.2,20251113-095759,825,Experiment,Both,1,Automatic,main,54,20260416-164556,local,global,300,H,H,A,A,A-H.png,H-A.png,hH,hH,mask-1.png,mask-3.png,h,1,0.3532392999622971,h,1,0.2708723000250757,0.04978320002555847,0.0483434998895973,0.10038580000400543,0.09984919987618923,0.2998015999328345
RSVPLG03,km,20260416-164035,1.0.2,20251113-095759,825,Experiment,Both,1,Automatic,main,55,20260416-164601,local,local,300,H,H,A,A,A-H.png,A-H.png,hH,hH,mask-3.png,mask-3.png,h,1,0.4813903998583555,h,1,0.11259200004860759,0.050024199998006225,0.05064100003801286,0.10118940006941557,0.10035730013623834,0.29897570004686713
RSVPLG03,km,20260416-164035,1.0.2,20251113-095759,825,Experiment,Both,1,Automatic,main,56,20260416-164605,local,local,750,S,S,A,A,A-S.png,A-S.png,sS,sS,mask-1.png,mask-3.png,h,0,0.9130140000488609,s,1,5.259993486106396e-05,0.04871830018237233,0.050388900097459555,0.10046280012466013,0.09986210009083152,0.7479894000571221
RSVPLG03,km,20260416-164035,1.0.2,20251113-095759,825,Experiment,Both,1,Automatic,main,57,20260416-164610,local,global,750,S,H,A,E,A-S.png,H-E.png,sS,hH,mask-3.png,mask-4.png,s,1,0.4307128000073135,s,0,0.09159659990109503,0.05095799989067018,0.04864109982736409,0.09997499990276992,0.09872269979678094,0.7496803000103682
RSVPLG03,km,20260416-164035,1.0.2,20251113-095759,825,Experiment,Both,1,Automatic,main,58,20260416-164615,local,global,300,S,H,E,A,E-S.png,H-A.png,sS,hH,mask-4.png,mask-1.png,s,1,0.29661559988744557,h,1,0.12385000009089708,0.04988600010983646,0.04954080004245043,0.09891039994545281,0.0982149001210928,0.2995537999086082
RSVPLG03,km,20260416-164035,1.0.2,20251113-095759,825,Experiment,Both,1,Automatic,main,59,20260416-164619,global,global,300,H,S,A,E,H-A.png,S-E.png,hH,sS,mask-1.png,mask-4.png,h,1,0.39149149996228516,s,1,0.029966000001877546,0.05095760012045503,0.04942950000986457,0.09972660010680556,0.09905599988996983,0.29921600013040006
RSVPLG03,km,20260416-164035,1.0.2,20251113-095759,825,Experiment,Both,1,Automatic,main,60,20260416-164623,global,local,750,S,H,A,A,S-A.png,A-H.png,sS,hH,mask-3.png,mask-1.png,s,1,0.21742160012945533,h,1,0.09537970018573105,0.05152869992889464,0.05003969999961555,0.10223959991708398,0.1002121998462826,0.750450300052762
RSVPLG03,km,20260416-164035,1.0.2,20251113-095759,825,Experiment,Both,1,Automatic,main,61,20260416-164627,global,global,300,S,S,E,E,S-E.png,S-E.png,sS,sS,mask-2.png,mask-4.png,s,1,0.2273272001184523,s,1,0.09453719994053245,0.04934610007330775,0.050341400085017085,0.10084609990008175,0.10000530001707375,0.29941529990173876
RSVPLG03,km,20260416-164035,1.0.2,20251113-095759,825,Experiment,Both,1,Automatic,main,62,20260416-164631,local,global,750,H,H,E,A,E-H.png,H-A.png,hH,hH,mask-3.png,mask-2.png,h,1,0.4218623999040574,h,1,0.10716879996471107,0.04886619979515672,0.04991489998064935,0.09891800000332296,0.0992705998942256,0.7471111000049859
RSVPLG03,km,20260416-164035,1.0.2,20251113-095759,825,Experiment,Both,1,Automatic,main,63,20260416-164636,local,global,300,S,H,A,E,A-S.png,H-E.png,sS,hH,mask-2.png,mask-2.png,s,1,0.3190333000384271,h,1,0.08156670001335442,0.05058660008944571,0.04967599990777671,0.10125449998304248,0.10028479993343353,0.2994631000328809
RSVPLG03,km,20260416-164035,1.0.2,20251113-095759,825,Experiment,Both,1,Automatic,main,64,20260416-164640,global,local,300,H,S,E,E,H-E.png,E-S.png,hH,sS,mask-2.png,mask-2.png,h,1,0.6124966000206769,s,1,0.5255652000196278,0.04976530000567436,0.05068610003218055,0.09961390006355941,0.09951740014366806,0.2982966999989003
RSVPLG03,km,20260416-164035,1.0.2,20251113-095759,825,Experiment,Both,1,Automatic,main,65,20260416-164645,global,local,750,S,S,A,E,S-A.png,E-S.png,sS,sS,mask-2.png,mask-4.png,s,1,0.2664860999211669,s,1,0.10909570008516312,0.04804440005682409,0.0487512000836432,0.09900450007990003,0.09877760009840131,0.7477915999479592
RSVPLG03,km,20260416-164035,1.0.2,20251113-095759,825,Experiment,Both,1,Automatic,main,66,20260416-164649,local,global,300,H,S,A,E,A-H.png,S-E.png,hH,sS,mask-4.png,mask-2.png,h,1,0.37039629998616874,s,1,0.07710800017230213,0.048901500180363655,0.04990540002472699,0.09955060016363859,0.09969469998031855,0.2985243001021445
RSVPLG03,km,20260416-164035,1.0.2,20251113-095759,825,Experiment,Both,1,Automatic,main,67,20260416-164653,global,global,300,S,H,E,E,S-E.png,H-E.png,sS,hH,mask-1.png,mask-4.png,s,1,0.21374549996107817,h,1,0.10670679993927479,0.0498928998131305,0.04939540009945631,0.0996488998644054,0.10047920001670718,0.2985296999104321
RSVPLG03,km,20260416-164035,1.0.2,20251113-095759,825,Experiment,Both,1,Automatic,main,68,20260416-164657,global,local,300,S,S,A,A,S-A.png,A-S.png,sS,sS,mask-2.png,mask-4.png,s,1,0.2863233999814838,h,0,0.15749969985336065,0.04870019992813468,0.048667100025340915,0.0991658999118954,0.09939819993451238,0.29865560005418956
RSVPLG03,km,20260416-164035,1.0.2,20251113-095759,825,Experiment,Both,1,Automatic,main,69,20260416-164702,global,global,300,H,H,E,E,H-E.png,H-E.png,hH,hH,mask-4.png,mask-3.png,h,1,0.250393700087443,h,1,0.1096284999512136,0.05136969988234341,0.05040000006556511,0.10080949985422194,0.09876600001007318,0.30048239999450743
RSVPLG03,km,20260416-164035,1.0.2,20251113-095759,825,Experiment,Both,1,Automatic,main,70,20260416-164706,global,local,750,S,H,E,A,S-E.png,A-H.png,sS,hH,mask-4.png,mask-1.png,s,1,0.23831250006332994,h,1,0.07854960020631552,0.04984779981896281,0.050180899910628796,0.09773779986426234,0.09835599991492927,0.7487043999135494
RSVPLG03,km,20260416-164035,1.0.2,20251113-095759,825,Experiment,Both,1,Automatic,main,71,20260416-164710,global,global,750,S,H,A,E,S-A.png,H-E.png,sS,hH,mask-4.png,mask-1.png,s,1,0.14908790006302297,h,1,0.04533499991521239,0.051051400136202574,0.04834219999611378,0.10105870012193918,0.09767130017280579,0.7496642000041902
RSVPLG03,km,20260416-164035,1.0.2,20251113-095759,825,Experiment,Both,1,Automatic,main,72,20260416-164714,global,local,750,H,H,A,A,H-A.png,A-H.png,hH,hH,mask-2.png,mask-4.png,h,1,0.2564226998947561,h,1,0.11150280013680458,0.04836099990643561,0.04872140008956194,0.09884350001811981,0.0974860000424087,0.7485654999036342
RSVPLG03,km,20260416-164035,1.0.2,20251113-095759,825,Experiment,Both,1,Automatic,main,73,20260416-164719,local,local,750,H,H,E,A,E-H.png,A-H.png,hH,hH,mask-2.png,mask-2.png,h,1,0.48686009994708,h,1,0.10951939993537962,0.05003880010917783,0.05002059997059405,0.09778889990411699,0.10014720004983246,0.74823629995808
RSVPLG03,km,20260416-164035,1.0.2,20251113-095759,825,Experiment,Both,1,Automatic,main,74,20260416-164723,local,local,300,S,S,A,A,A-S.png,A-S.png,sS,sS,mask-4.png,mask-1.png,h,0,0.8739943001419306,h,0,0.15950100007466972,0.04900959995575249,0.05106329987756908,0.09826239990070462,0.10003559989854693,0.29811510001309216
RSVPLG03,km,20260416-164035,1.0.2,20251113-095759,825,Experiment,Both,1,Automatic,main,75,20260416-164728,local,global,750,H,S,A,E,A-H.png,S-E.png,hH,sS,mask-4.png,mask-4.png,h,1,0.5396497999317944,s,1,0.17217360017821193,0.05069450009614229,0.04906620015390217,0.09971640002913773,0.09929969999939203,0.7495558999944478
RSVPLG03,km,20260416-164035,1.0.2,20251113-095759,825,Experiment,Both,1,Automatic,main,76,20260416-164749,local,local,750,H,S,E,A,E-H.png,A-S.png,hH,sS,mask-3.png,mask-3.png,h,1,0.24921919987536967,s,1,0.02842899993993342,0.04989210003986955,0.0498643999453634,0.09991199988871813,0.099873699946329,0.7477061999961734
RSVPLG03,km,20260416-164035,1.0.2,20251113-095759,825,Experiment,Both,1,Automatic,main,77,20260416-164754,global,global,300,H,H,E,E,H-E.png,H-E.png,hH,hH,mask-4.png,mask-1.png,h,1,0.18463070015423,h,1,0.07454539998434484,0.04977849987335503,0.050719100050628185,0.10072689992375672,0.09955570008605719,0.2989721999038011
RSVPLG03,km,20260416-164035,1.0.2,20251113-095759,825,Experiment,Both,1,Automatic,main,78,20260416-164758,local,global,750,H,S,A,A,A-H.png,S-A.png,hH,sS,mask-2.png,mask-1.png,h,1,0.2983605999033898,s,1,0.06184490001760423,0.050031199818477035,0.04881180007942021,0.10011869994923472,0.09972300007939339,0.7498374998103827
RSVPLG03,km,20260416-164035,1.0.2,20251113-095759,825,Experiment,Both,1,Automatic,main,79,20260416-164802,global,local,300,H,H,A,E,H-A.png,E-H.png,hH,hH,mask-1.png,mask-1.png,h,1,0.3884963998571038,s,0,0.049187400145456195,0.047665500082075596,0.05104040005244315,0.09781519998796284,0.10006600013002753,0.2976130999159068
RSVPLG03,km,20260416-164035,1.0.2,20251113-095759,825,Experiment,Both,1,Automatic,main,80,20260416-164806,global,global,300,H,S,A,A,H-A.png,S-A.png,hH,sS,mask-2.png,mask-4.png,h,1,0.5399869000539184,s,1,0.06219139997847378,0.0478905001655221,0.04946879995986819,0.09798020008020103,0.09882840001955628,0.29799270001240075
RSVPLG03,km,20260416-164035,1.0.2,20251113-095759,825,Experiment,Both,1,Automatic,main,81,20260416-164811,global,global,750,S,S,A,A,S-A.png,S-A.png,sS,sS,mask-4.png,mask-4.png,s,1,0.1129725999198854,s,1,0.1565360000822693,0.04898789990693331,0.0510555999353528,0.09990149992518127,0.10009699990041554,0.7470811000093818
RSVPLG03,km,20260416-164035,1.0.2,20251113-095759,825,Experiment,Both,1,Automatic,main,82,20260416-164815,global,local,300,S,S,A,E,S-A.png,E-S.png,sS,sS,mask-1.png,mask-1.png,s,1,0.2591842000838369,h,0,0.19105029990896583,0.04993040021508932,0.049939699936658144,0.10095640015788376,0.09895209991373122,0.29992890008725226
RSVPLG03,km,20260416-164035,1.0.2,20251113-095759,825,Experiment,Both,1,Automatic,main,83,20260416-164819,local,local,750,H,H,A,E,A-H.png,E-H.png,hH,hH,mask-1.png,mask-2.png,h,1,0.14257890009321272,h,1,0.1265601001214236,0.0499694999307394,0.05041619995608926,0.1010315001476556,0.10090179997496307,0.7474305001087487
RSVPLG03,km,20260416-164035,1.0.2,20251113-095759,825,Experiment,Both,1,Automatic,main,84,20260416-164824,local,local,300,S,S,A,A,A-S.png,A-S.png,sS,sS,mask-4.png,mask-3.png,s,1,0.2905698998365551,s,1,0.10951189999468625,0.048917700070887804,0.04927679989486933,0.09892710018903017,0.09869579994119704,0.2984583000652492
RSVPLG03,km,20260416-164035,1.0.2,20251113-095759,825,Experiment,Both,1,Automatic,main,85,20260416-164828,local,global,300,S,S,A,A,A-S.png,S-A.png,sS,sS,mask-2.png,mask-4.png,s,1,0.6206271999981254,s,1,0.15725390007719398,0.04979299986734986,0.05139239993877709,0.099685899913311,0.09994510002434254,0.29866659990511835
RSVPLG03,km,20260416-164035,1.0.2,20251113-095759,825,Experiment,Both,1,Automatic,main,86,20260416-164832,global,global,750,H,H,E,E,H-E.png,H-E.png,hH,hH,mask-3.png,mask-4.png,h,1,0.23688800004310906,h,1,0.17550299991853535,0.04865580005571246,0.04970659990794957,0.09968640003353357,0.10019159992225468,0.7478825999423862
RSVPLG03,km,20260416-164035,1.0.2,20251113-095759,825,Experiment,Both,1,Automatic,main,87,20260416-164837,local,local,300,S,S,A,A,A-S.png,A-S.png,sS,sS,mask-1.png,mask-1.png,s,1,0.27876730007119477,h,0,0.22582100005820394,0.049651699839159846,0.049374999944120646,0.09973150002770126,0.09993049991317093,0.29941889992915094
RSVPLG03,km,20260416-164035,1.0.2,20251113-095759,825,Experiment,Both,1,Automatic,main,88,20260416-164841,global,local,750,S,H,E,E,S-E.png,E-H.png,sS,hH,mask-1.png,mask-2.png,s,1,0.4156738000456244,s,0,0.14211969985626638,0.05096539994701743,0.05065210000611842,0.09968400001525879,0.09844509977847338,0.7500648000277579
RSVPLG03,km,20260416-164035,1.0.2,20251113-095759,825,Experiment,Both,1,Automatic,main,89,20260416-164845,local,local,750,H,S,E,E,E-H.png,E-S.png,hH,sS,mask-4.png,mask-3.png,h,1,0.40032809996046126,s,1,0.19136239984072745,0.04981869994662702,0.05094159999862313,0.09983259998261929,0.09990340005606413,0.7480226999614388
RSVPLG03,km,20260416-164035,1.0.2,20251113-095759,825,Experiment,Both,1,Automatic,main,90,20260416-164850,global,global,300,H,H,A,E,H-A.png,H-E.png,hH,hH,mask-1.png,mask-4.png,h,1,0.30603020009584725,h,1,0.11011920007877052,0.0497747000772506,0.048700799932703376,0.09952839999459684,0.09987829998135567,0.29976650001481175
RSVPLG03,km,20260416-164035,1.0.2,20251113-095759,825,Experiment,Both,1,Automatic,main,91,20260416-164854,global,local,750,S,S,A,A,S-A.png,A-S.png,sS,sS,mask-4.png,mask-1.png,s,1,0.30247840005904436,s,1,2.350057099945843,0.05099160014651716,0.04857770004309714,0.10010160016827285,0.09902240009978414,0.7500475000124425
RSVPLG03,km,20260416-164035,1.0.2,20251113-095759,825,Experiment,Both,1,Automatic,main,92,20260416-164901,local,local,300,H,H,E,A,E-H.png,A-H.png,hH,hH,mask-1.png,mask-1.png,h,1,0.24652819987386465,h,1,0.1079351999796927,0.050019299844279885,0.050682100001722574,0.09926299983635545,0.10049620014615357,0.29888329980894923
RSVPLG03,km,20260416-164035,1.0.2,20251113-095759,825,Experiment,Both,1,Automatic,main,93,20260416-164905,global,local,750,S,S,A,E,S-A.png,E-S.png,sS,sS,mask-4.png,mask-3.png,s,1,0.2541382999625057,s,1,0.11048690020106733,0.05000260006636381,0.04912390001118183,0.09987010015174747,0.09945570002309978,0.7478591999970376
RSVPLG03,km,20260416-164035,1.0.2,20251113-095759,825,Experiment,Both,1,Automatic,main,94,20260416-164909,global,global,300,S,H,E,A,S-E.png,H-A.png,sS,hH,mask-4.png,mask-1.png,s,1,0.29059830005280674,h,1,0.06252590008080006,0.05047690006904304,0.04879050003364682,0.1009207998868078,0.10034519992768764,0.3000702999997884
RSVPLG03,km,20260416-164035,1.0.2,20251113-095759,825,Experiment,Both,1,Automatic,main,95,20260416-164914,global,local,300,S,S,A,E,S-A.png,E-S.png,sS,sS,mask-1.png,mask-4.png,s,1,0.24499329994432628,s,1,0.12291590007953346,0.047697499860078096,0.05098329996690154,0.09906579996459186,0.10172319994308054,0.29769939999096096
RSVPLG03,km,20260416-164035,1.0.2,20251113-095759,825,Experiment,Both,1,Automatic,main,96,20260416-164918,local,global,300,S,H,E,E,E-S.png,H-E.png,sS,hH,mask-3.png,mask-4.png,s,1,0.21747469995170832,h,1,0.12325929990038276,0.04884050018154085,0.04973910003900528,0.09896760014817119,0.09954819991253316,0.29815430007874966
RSVPLG03,km,20260416-164035,1.0.2,20251113-095759,825,Experiment,Both,1,Automatic,main,97,20260416-164922,local,local,750,S,S,A,A,A-S.png,A-S.png,sS,sS,mask-1.png,mask-2.png,s,1,0.23667419981211424,h,0,0.1737987999804318,0.04902660008519888,0.0514722999650985,0.09916630014777184,0.09962209989316761,0.7476827001664788
RSVPLG03,km,20260416-164035,1.0.2,20251113-095759,825,Experiment,Both,1,Automatic,main,98,20260416-164926,local,global,750,S,H,E,E,E-S.png,H-E.png,sS,hH,mask-1.png,mask-3.png,s,1,0.23394770012237132,h,1,0.0935247999150306,0.05085780005902052,0.04849399998784065,0.10028090002015233,0.09836539998650551,0.7492559000384063
RSVPLG03,km,20260416-164035,1.0.2,20251113-095759,825,Experiment,Both,1,Automatic,main,99,20260416-164931,global,local,300,S,S,A,A,S-A.png,A-S.png,sS,sS,mask-3.png,mask-2.png,s,1,0.2972205001860857,h,0,0.058952199993655086,0.04899260005913675,0.04981480003334582,0.09999880008399487,0.09962340001948178,0.2987160000484437
RSVPLG03,km,20260416-164035,1.0.2,20251113-095759,825,Experiment,Both,1,Automatic,main,100,20260416-164935,local,global,300,H,S,E,E,E-H.png,S-E.png,hH,sS,mask-2.png,mask-3.png,h,1,0.3372072000056505,s,1,0.09852969995699823,0.04989170003682375,0.050673000048846006,0.10088709997944534,0.09949239995330572,0.29984310013242066
