exp,exp_initials,runtime,ver,modtime,sub,blocktype,targets,cuetype,mode,trialtype,trial,trialtime,t1_level,t2_level,t2_lag,t1,t2,distractor1,distractor2,stimfile1,stimfile2,t1_corr,t2_corr,maskfile1,maskfile2,t1_resp,t1_acc,t1_rt,t2_resp,t2_acc,t2_rt,t1_dur,t2_dur,t1mask_soa,t2mask_soa,t1t2_soa
RSVPLG03,cs,20251029-105610,1.0.1,20251020-085245,723,Introduction,T1,1,Automatic,main,1,20251029-105647,local,local,750,H,H,A,E,A-H.png,E-H.png,hH,hH,mask-1.png,mask-3.png,h,1,9.54769789997954,none,-5,0,0.09627339988946915,0.09745709993876517,0.19866199989337474,0.2005125000141561,0.7488945999648422
RSVPLG03,cs,20251029-105610,1.0.1,20251020-085245,723,Introduction,T1,1,Automatic,main,2,20251029-105701,global,local,750,H,S,A,A,H-A.png,A-S.png,hH,sS,mask-2.png,mask-1.png,s,0,1.3164284999947995,none,-5,0,0.09845010004937649,0.09754039999097586,0.20191639999393374,0.1995520000346005,0.7516926999669522
RSVPLG03,cs,20251029-105610,1.0.1,20251020-085245,723,Introduction,T1,1,Automatic,main,3,20251029-105707,global,global,750,S,H,A,A,S-A.png,H-A.png,sS,hH,mask-1.png,mask-4.png,h,0,1.5863648999948055,none,-5,0,0.09805919998325408,0.09739020001143217,0.20099199994001538,0.20027470006607473,0.7510796999558806
RSVPLG03,cs,20251029-105610,1.0.1,20251020-085245,723,Introduction,T1,1,Automatic,main,4,20251029-105712,global,global,750,S,H,E,E,S-E.png,H-E.png,sS,hH,mask-1.png,mask-1.png,s,1,6.560362300020643,none,-5,0,0.09843410004395992,0.09755240008234978,0.2003204000648111,0.19939890003297478,0.7516360000008717
RSVPLG03,cs,20251029-105610,1.0.1,20251020-085245,723,Introduction,T1,1,Automatic,main,5,20251029-105723,local,local,750,H,H,A,A,A-H.png,A-H.png,hH,hH,mask-3.png,mask-4.png,h,1,0.8324153000721708,none,-5,0,0.09744110004976392,0.0973863999824971,0.2003203999483958,0.19936680002138019,0.7506534999702126
RSVPLG03,cs,20251029-105610,1.0.1,20251020-085245,723,Introduction,T1,1,Automatic,main,6,20251029-105728,global,local,750,H,H,A,E,H-A.png,E-H.png,hH,hH,mask-1.png,mask-4.png,h,1,1.145591799984686,none,-5,0,0.09923109994269907,0.09731760004069656,0.201491899904795,0.2010213000467047,0.7510500999633223
RSVPLG03,cs,20251029-105610,1.0.1,20251020-085245,723,Introduction,T1,1,Automatic,main,7,20251029-105733,local,global,750,S,S,A,A,A-S.png,S-A.png,sS,sS,mask-3.png,mask-1.png,s,1,0.5704103000462055,none,-5,0,0.0974559000460431,0.09678359993267804,0.20038190006744117,0.199767499929294,0.750284600071609
RSVPLG03,cs,20251029-105610,1.0.1,20251020-085245,723,Introduction,T1,1,Automatic,main,8,20251029-105738,local,local,750,H,H,E,A,E-H.png,A-H.png,hH,hH,mask-2.png,mask-4.png,none,-6,0,none,-5,0,0.09752270008902997,0.0977901000296697,0.19957900000736117,0.19794139999430627,0.7499572000233456
RSVPLG03,cs,20251029-105629,1.0.1,20251020-085245,723,Practice,T1,1,Automatic,main,1,20251029-105805,local,local,750,H,H,A,A,A-H.png,A-H.png,hH,hH,mask-4.png,mask-3.png,h,1,1.0039652000414208,none,-5,0,0.04752090002875775,0.04543589998502284,0.09953350003343076,0.09892369993031025,0.7489818000467494
RSVPLG03,cs,20251029-105629,1.0.1,20251020-085245,723,Practice,T1,1,Automatic,main,2,20251029-105810,global,local,300,H,H,A,A,H-A.png,A-H.png,hH,hH,mask-1.png,mask-1.png,h,1,1.0297587000532076,none,-5,0,0.0463226999854669,0.04582470003515482,0.0985879999352619,0.09982220001984388,0.2987918999278918
RSVPLG03,cs,20251029-105629,1.0.1,20251020-085245,723,Practice,T1,1,Automatic,main,3,20251029-105814,local,local,300,S,S,E,E,E-S.png,E-S.png,sS,sS,mask-3.png,mask-4.png,s,1,0.7514250000240281,none,-5,0,0.04777629999443889,0.04666590003762394,0.10170140000991523,0.10065110004507005,0.30016679991967976
RSVPLG03,cs,20251029-105629,1.0.1,20251020-085245,723,Practice,T1,1,Automatic,main,4,20251029-105819,global,local,750,S,H,E,E,S-E.png,E-H.png,sS,hH,mask-3.png,mask-2.png,h,0,0.9579033999470994,none,-5,0,0.04794279998168349,0.04775410005822778,0.10077060002367944,0.0996901000617072,0.7492168999742717
RSVPLG03,cs,20251029-105629,1.0.1,20251020-085245,723,Practice,T1,1,Automatic,main,5,20251029-105823,local,local,300,H,S,E,A,E-H.png,A-S.png,hH,sS,mask-4.png,mask-4.png,h,1,1.615745900082402,none,-5,0,0.047832799958996475,0.04762309999205172,0.09969229996204376,0.09991560003254563,0.2993575999280438
RSVPLG03,cs,20251029-105629,1.0.1,20251020-085245,723,Practice,T1,1,Automatic,main,6,20251029-105829,global,global,750,S,H,A,A,S-A.png,H-A.png,sS,hH,mask-1.png,mask-3.png,s,1,0.7539792000316083,none,-5,0,0.046681599924340844,0.04681149998214096,0.09728489990811795,0.09998499997891486,0.7468898999504745
RSVPLG03,cs,20251029-105629,1.0.1,20251020-085245,723,Practice,T1,1,Automatic,main,7,20251029-105833,local,global,300,H,S,E,A,E-H.png,S-A.png,hH,sS,mask-4.png,mask-4.png,h,1,0.9963115000864491,none,-5,0,0.046884499955922365,0.04760809999424964,0.09991969994734973,0.09992670000065118,0.29929730005096644
RSVPLG03,cs,20251029-105629,1.0.1,20251020-085245,723,Practice,T1,1,Automatic,main,8,20251029-105838,local,global,750,S,S,A,E,A-S.png,S-E.png,sS,sS,mask-1.png,mask-2.png,s,1,1.7216653999639675,none,-5,0,0.04665119992569089,0.04575850011315197,0.09956340002827346,0.09987300005741417,0.748858799925074
RSVPLG03,cs,20251029-105629,1.0.1,20251020-085245,723,Practice,T1,1,Automatic,main,9,20251029-105844,global,local,750,H,H,E,E,H-E.png,E-H.png,hH,hH,mask-1.png,mask-3.png,h,1,0.8455164999468252,none,-5,0,0.04649280000012368,0.04935400001704693,0.09960870002396405,0.10144340002443641,0.7462526999879628
RSVPLG03,cs,20251029-105629,1.0.1,20251020-085245,723,Practice,T1,1,Automatic,main,10,20251029-105848,local,global,750,H,H,E,A,E-H.png,H-A.png,hH,hH,mask-4.png,mask-1.png,s,0,1.2335666000144556,none,-5,0,0.04760349995922297,0.04666150000412017,0.10095779993571341,0.09983630001079291,0.7489263999741524
RSVPLG03,cs,20251029-105629,1.0.1,20251020-085245,723,Practice,T1,1,Automatic,main,11,20251029-105854,global,global,300,H,H,A,E,H-A.png,H-E.png,hH,hH,mask-4.png,mask-3.png,h,1,0.7985453000292182,none,-5,0,0.045995600055903196,0.04674179991707206,0.09977179998531938,0.0997492999304086,0.2985644000582397
RSVPLG03,cs,20251029-105629,1.0.1,20251020-085245,723,Practice,T1,1,Automatic,main,12,20251029-105858,local,local,750,S,H,A,E,A-S.png,E-H.png,sS,hH,mask-1.png,mask-1.png,h,0,2.4703152999281883,none,-5,0,0.04754590010270476,0.046853199950419366,0.09951960004400462,0.10001850000116974,0.748847300070338
RSVPLG03,cs,20251029-105629,1.0.1,20251020-085245,723,Practice,T1,1,Automatic,main,13,20251029-105904,global,global,750,H,H,A,A,H-A.png,H-A.png,hH,hH,mask-2.png,mask-4.png,h,1,1.1905777999199927,none,-5,0,0.04751239996403456,0.04659350006841123,0.10037099989131093,0.09851440007332712,0.7487948999041691
RSVPLG03,cs,20251029-105629,1.0.1,20251020-085245,723,Practice,T1,1,Automatic,main,14,20251029-105910,global,global,300,S,S,A,E,S-A.png,S-E.png,sS,sS,mask-3.png,mask-4.png,s,1,0.8388575999997556,none,-5,0,0.04578629997558892,0.04671339993365109,0.09890149999409914,0.10079329996369779,0.29829539998900145
RSVPLG03,cs,20251029-105629,1.0.1,20251020-085245,723,Practice,T1,1,Automatic,main,15,20251029-105914,global,local,300,S,H,A,E,S-A.png,E-H.png,sS,hH,mask-4.png,mask-2.png,s,1,1.1596069999504834,none,-5,0,0.04765379999298602,0.046681900043040514,0.09983700001612306,0.09792450000531971,0.2991840000031516
RSVPLG03,cs,20251029-105629,1.0.1,20251020-085245,723,Practice,T1,1,Automatic,main,16,20251029-105919,local,global,300,H,H,A,E,A-H.png,H-E.png,hH,hH,mask-4.png,mask-1.png,h,1,0.552496200078167,none,-5,0,0.04730060009751469,0.04806739999912679,0.1005219001090154,0.09980650001671165,0.3010125000728294
RSVPLG03,cs,20251029-110012,1.0.1,20251020-085245,723,Practice,Both,1,Automatic,main,1,20251029-110033,global,global,750,S,H,E,A,S-E.png,H-A.png,sS,hH,mask-1.png,mask-1.png,s,1,2.28647270007059,h,1,0.052506000036373734,0.04131340002641082,0.04575060005299747,0.09228950005490333,0.09900379995815456,0.7440748000517488
RSVPLG03,cs,20251029-110012,1.0.1,20251020-085245,723,Practice,Both,1,Automatic,main,2,20251029-110039,global,local,750,H,H,E,E,H-E.png,E-H.png,hH,hH,mask-4.png,mask-2.png,h,1,1.529616600018926,s,0,0.267979700001888,0.047701100003905594,0.04771039995830506,0.10090189997572452,0.09990629996173084,0.7497613000450656
RSVPLG03,cs,20251029-110012,1.0.1,20251020-085245,723,Practice,Both,1,Automatic,main,3,20251029-110045,local,local,300,H,H,E,E,E-H.png,E-H.png,hH,hH,mask-1.png,mask-4.png,s,0,2.3383102000225335,h,1,0.48544980003498495,0.047708500060252845,0.04604550008662045,0.09985540003981441,0.09927150001749396,0.3003095999592915
RSVPLG03,cs,20251029-110012,1.0.1,20251020-085245,723,Practice,Both,1,Automatic,main,4,20251029-110052,local,global,750,S,S,E,E,E-S.png,S-E.png,sS,sS,mask-2.png,mask-4.png,s,1,2.203901599976234,h,0,0.3729720999253914,0.04652590001933277,0.04766759998165071,0.09969900001306087,0.09981689997948706,0.749687600065954
RSVPLG03,cs,20251029-110012,1.0.1,20251020-085245,723,Practice,Both,1,Automatic,main,5,20251029-110058,local,global,300,H,H,A,A,A-H.png,H-A.png,hH,hH,mask-3.png,mask-2.png,s,0,1.6241669999435544,h,1,0.2832892999285832,0.04851049999706447,0.04902289994060993,0.09934149996843189,0.10021980002056807,0.2994928000262007
RSVPLG03,cs,20251029-110012,1.0.1,20251020-085245,723,Practice,Both,1,Automatic,main,6,20251029-110104,global,global,750,S,H,A,E,S-A.png,H-E.png,sS,hH,mask-2.png,mask-2.png,s,1,2.313180800061673,h,1,0.1779549999628216,0.04753540002275258,0.047508700052276254,0.10070840001571923,0.10068780009169132,0.7500603999942541
RSVPLG03,cs,20251029-110012,1.0.1,20251020-085245,723,Practice,Both,1,Automatic,main,7,20251029-110111,local,global,750,H,H,E,A,E-H.png,H-A.png,hH,hH,mask-1.png,mask-4.png,h,1,1.5304880000185221,h,1,0.23133229999803007,0.046613399987109005,0.04782579990569502,0.10073960002046078,0.10105439997278154,0.7496435000794008
RSVPLG03,cs,20251029-110012,1.0.1,20251020-085245,723,Practice,Both,1,Automatic,main,8,20251029-110116,global,global,300,S,S,A,E,S-A.png,S-E.png,sS,sS,mask-4.png,mask-4.png,h,0,1.1512592999497429,h,0,0.2554498999379575,0.047738300054334104,0.048432999989017844,0.09926599997561425,0.1008494000416249,0.2981413999805227
RSVPLG03,cs,20251029-110012,1.0.1,20251020-085245,723,Practice,Both,1,Automatic,main,9,20251029-110121,global,global,300,H,H,E,E,H-E.png,H-E.png,hH,hH,mask-2.png,mask-4.png,h,1,2.2225589000154287,h,1,0.2814835999161005,0.047629800043068826,0.046527700033038855,0.09964410006068647,0.0995781000237912,0.30004920007195324
RSVPLG03,cs,20251029-110012,1.0.1,20251020-085245,723,Practice,Both,1,Automatic,main,10,20251029-110128,local,global,300,H,H,E,A,E-H.png,H-A.png,hH,hH,mask-3.png,mask-2.png,h,1,0.9445641000056639,h,1,0.31066980003379285,0.047534899902530015,0.04751780000515282,0.09855199989397079,0.09857480006758124,0.2998420998919755
RSVPLG03,cs,20251029-110012,1.0.1,20251020-085245,723,Practice,Both,1,Automatic,main,11,20251029-110133,global,local,750,S,S,A,E,S-A.png,E-S.png,sS,sS,mask-1.png,mask-4.png,s,1,1.3530640000244603,s,1,0.22094429994467646,0.047549800015985966,0.04759099998045713,0.09960519999731332,0.09972769999876618,0.7492613000795245
RSVPLG03,cs,20251029-110012,1.0.1,20251020-085245,723,Practice,Both,1,Automatic,main,12,20251029-110138,local,local,750,H,S,A,E,A-H.png,E-S.png,hH,sS,mask-1.png,mask-1.png,h,1,1.4610547999618575,s,1,0.14951839996501803,0.04651919996831566,0.04727400001138449,0.09902570000849664,0.10083699994720519,0.7483934999909252
RSVPLG03,cs,20251029-110012,1.0.1,20251020-085245,723,Practice,Both,1,Automatic,main,13,20251029-110144,global,local,300,S,S,A,A,S-A.png,A-S.png,sS,sS,mask-2.png,mask-2.png,s,1,2.3159922000486404,h,0,0.1543932999484241,0.046124499989673495,0.04751840000972152,0.09920260007493198,0.09952010004781187,0.2994738999987021
RSVPLG03,cs,20251029-110012,1.0.1,20251020-085245,723,Practice,Both,1,Automatic,main,14,20251029-110150,local,local,750,S,H,A,E,A-S.png,E-H.png,sS,hH,mask-3.png,mask-4.png,s,1,1.197840700042434,h,1,0.14033399999607354,0.0475206000264734,0.04752300004474819,0.09957560000475496,0.10062659997493029,0.7488507999805734
RSVPLG03,cs,20251029-110012,1.0.1,20251020-085245,723,Practice,Both,1,Automatic,main,15,20251029-110156,global,local,300,S,S,A,A,S-A.png,A-S.png,sS,sS,mask-4.png,mask-2.png,s,1,1.4049277999438345,h,0,0.07819190004374832,0.04650230007246137,0.046600300003774464,0.09951279999222606,0.09947809996083379,0.29980570008046925
RSVPLG03,cs,20251029-110012,1.0.1,20251020-085245,723,Practice,Both,1,Automatic,main,16,20251029-110201,local,local,300,H,S,A,A,A-H.png,A-S.png,hH,sS,mask-1.png,mask-3.png,h,1,1.4301567999646068,h,0,0.2261230000294745,0.04754339996725321,0.04755929997190833,0.0995779000222683,0.09956580004654825,0.2999090999364853
RSVPLG03,cs,20251029-110252,1.0.1,20251020-085245,723,Practice,Both,1,Automatic,main,1,20251029-110333,local,global,750,S,H,E,A,E-S.png,H-A.png,sS,hH,mask-4.png,mask-4.png,s,1,1.2320209000026807,s,0,0.20034149999264628,0.039030799991451204,0.047687900019809604,0.09233839996159077,0.0998993000248447,0.7408699999796227
RSVPLG03,cs,20251029-110252,1.0.1,20251020-085245,723,Practice,Both,1,Automatic,main,2,20251029-110338,global,global,750,H,H,A,E,H-A.png,H-E.png,hH,hH,mask-3.png,mask-4.png,h,1,1.736043900018558,s,0,0.2952532999916002,0.04786140006035566,0.04697889997623861,0.10084860003553331,0.0988449000287801,0.7486731000244617
RSVPLG03,cs,20251029-110252,1.0.1,20251020-085245,723,Practice,Both,1,Automatic,main,3,20251029-110345,global,global,300,S,H,E,E,S-E.png,H-E.png,sS,hH,mask-4.png,mask-4.png,s,1,1.9918296999530867,s,0,0.3745255999965593,0.04817910003475845,0.04636699997354299,0.10037490003742278,0.098429000005126,0.3008162999758497
RSVPLG03,cs,20251029-110252,1.0.1,20251020-085245,723,Practice,Both,1,Automatic,main,4,20251029-110351,global,global,750,S,S,A,A,S-A.png,S-A.png,sS,sS,mask-1.png,mask-1.png,s,1,1.188703399966471,h,0,0.10754980007186532,0.047604599967598915,0.04860059998463839,0.10080240003298968,0.09978970000520349,0.7486368999816477
RSVPLG03,cs,20251029-110252,1.0.1,20251020-085245,723,Practice,Both,1,Automatic,main,5,20251029-110356,global,local,300,H,S,E,E,H-E.png,E-S.png,hH,sS,mask-1.png,mask-4.png,h,1,1.9080667999805883,s,1,0.1059113999363035,0.04770320001989603,0.04787219990976155,0.09989780001342297,0.10009349999018013,0.29904080007690936
RSVPLG03,cs,20251029-110252,1.0.1,20251020-085245,723,Practice,Both,1,Automatic,main,6,20251029-110402,local,global,300,H,H,A,A,A-H.png,H-A.png,hH,hH,mask-1.png,mask-2.png,h,1,1.7317168000154197,s,0,0.23416610003914684,0.048742800019681454,0.0477118999697268,0.10087550000753254,0.09978149994276464,0.2994218000676483
RSVPLG03,cs,20251029-110252,1.0.1,20251020-085245,723,Practice,Both,1,Automatic,main,7,20251029-110408,local,local,300,H,H,A,A,A-H.png,A-H.png,hH,hH,mask-2.png,mask-1.png,h,1,2.040909199975431,s,0,0.473149299970828,0.04763209994416684,0.04656260006595403,0.09970799996517599,0.10047220007982105,0.300048999954015
RSVPLG03,cs,20251029-110252,1.0.1,20251020-085245,723,Practice,Both,1,Automatic,main,8,20251029-110414,global,local,300,S,S,A,A,S-A.png,A-S.png,sS,sS,mask-4.png,mask-4.png,s,1,3.1030204999260604,s,1,0.6446359000401571,0.04855539998970926,0.04754759999923408,0.10058680002111942,0.09861220000311732,0.30091520003043115
RSVPLG03,cs,20251029-110252,1.0.1,20251020-085245,723,Practice,Both,1,Automatic,main,9,20251029-110421,local,local,750,S,H,E,A,E-S.png,A-H.png,sS,hH,mask-4.png,mask-1.png,s,1,2.7326310999924317,s,0,0.3086826999206096,0.04850149992853403,0.04842949996236712,0.10047870001289994,0.09873069997411221,0.7485375000396743
RSVPLG03,cs,20251029-110252,1.0.1,20251020-085245,723,Practice,Both,1,Automatic,main,10,20251029-110429,global,local,750,H,H,A,A,H-A.png,A-H.png,hH,hH,mask-2.png,mask-2.png,h,1,2.845606799935922,h,1,0.3803809001110494,0.047388500068336725,0.04557289998047054,0.09852660004980862,0.09858670004177839,0.7486900000367314
RSVPLG03,cs,20251029-110252,1.0.1,20251020-085245,723,Practice,Both,1,Automatic,main,11,20251029-110436,local,global,300,S,S,E,E,E-S.png,S-E.png,sS,sS,mask-1.png,mask-1.png,h,0,1.249602900003083,h,0,0.2791711000027135,0.047686200006864965,0.047970699961297214,0.09897699998691678,0.10151199996471405,0.298446899978444
RSVPLG03,cs,20251029-110252,1.0.1,20251020-085245,723,Practice,Both,1,Automatic,main,12,20251029-110441,local,global,750,S,H,A,A,A-S.png,H-A.png,sS,hH,mask-1.png,mask-1.png,s,1,1.462327100103721,h,1,0.39125809993129224,0.04853769997134805,0.04756520001683384,0.1011022999882698,0.09958709997590631,0.7495562999974936
RSVPLG03,cs,20251029-110252,1.0.1,20251020-085245,723,Practice,Both,1,Automatic,main,13,20251029-110447,local,local,300,H,S,E,A,E-H.png,A-S.png,hH,sS,mask-3.png,mask-2.png,s,0,1.650442999904044,h,0,0.09908050007652491,0.047607599990442395,0.0475016999989748,0.09971129999030381,0.1004263999639079,0.2980346999829635
RSVPLG03,cs,20251029-110252,1.0.1,20251020-085245,723,Practice,Both,1,Automatic,main,14,20251029-110453,global,global,300,H,H,E,A,H-E.png,H-A.png,hH,hH,mask-1.png,mask-2.png,h,1,1.35784379998222,s,0,0.11781859991606325,0.047588499961420894,0.04674130002968013,0.1016249000094831,0.09986199997365475,0.2999485000036657
RSVPLG03,cs,20251029-110252,1.0.1,20251020-085245,723,Practice,Both,1,Automatic,main,15,20251029-110458,global,local,750,H,S,E,A,H-E.png,A-S.png,hH,sS,mask-4.png,mask-1.png,h,1,1.3030321000842378,h,0,0.8365325999911875,0.046555700013414025,0.04653819999657571,0.09989459998905659,0.09858599992003292,0.7492850000271574
RSVPLG03,cs,20251029-110252,1.0.1,20251020-085245,723,Practice,Both,1,Automatic,main,16,20251029-110504,local,local,750,H,S,E,E,E-H.png,E-S.png,hH,sS,mask-4.png,mask-3.png,s,0,2.5214480999857187,h,0,0.2610055999830365,0.046255600056611,0.04771309997886419,0.09865219995845109,0.09904609993100166,0.7479135000612587
RSVPLG03,cs,20251029-110526,1.0.1,20251020-085245,723,Practice,Both,1,Automatic,main,1,20251029-110546,local,local,300,S,S,A,E,A-S.png,E-S.png,sS,sS,mask-4.png,mask-1.png,s,1,1.8502114000730217,s,1,0.11531469994224608,0.038877899991348386,0.04838809999637306,0.0918731999117881,0.10012730001471937,0.28992529993411154
RSVPLG03,cs,20251029-110526,1.0.1,20251020-085245,723,Practice,Both,1,Automatic,main,2,20251029-110552,global,local,300,H,H,A,A,H-A.png,A-H.png,hH,hH,mask-1.png,mask-4.png,s,0,1.2617016000440344,h,1,0.05442930001299828,0.048530700034461915,0.04717410006560385,0.09940750000532717,0.10020780004560947,0.2987323999404907
RSVPLG03,cs,20251029-110526,1.0.1,20251020-085245,723,Practice,Both,1,Automatic,main,3,20251029-110557,global,local,750,S,S,A,A,S-A.png,A-S.png,sS,sS,mask-1.png,mask-2.png,s,1,1.630758099956438,h,0,0.811655200086534,0.04756069998256862,0.0475059999153018,0.10057560005225241,0.09935419994872063,0.7455593000631779
RSVPLG03,cs,20251029-110526,1.0.1,20251020-085245,723,Practice,Both,1,Automatic,main,4,20251029-110603,global,local,300,S,S,E,A,S-E.png,A-S.png,sS,sS,mask-2.png,mask-4.png,s,1,1.2372039998881519,h,0,0.4194154000142589,0.046412099967710674,0.046575100044719875,0.09936130000278354,0.0981952000875026,0.29877449991181493
RSVPLG03,cs,20251029-110526,1.0.1,20251020-085245,723,Practice,Both,1,Automatic,main,5,20251029-110609,local,global,300,H,H,E,E,E-H.png,H-E.png,hH,hH,mask-2.png,mask-2.png,s,0,1.234346899902448,h,1,0.28053150000050664,0.04727229999843985,0.04570300003979355,0.09857469995040447,0.09792480000760406,0.298219499993138
RSVPLG03,cs,20251029-110526,1.0.1,20251020-085245,723,Practice,Both,1,Automatic,main,6,20251029-110614,local,global,750,H,H,A,A,A-H.png,H-A.png,hH,hH,mask-4.png,mask-2.png,h,1,2.084245100035332,s,0,0.16305620002094656,0.04772549995686859,0.04761889996007085,0.09996219992171973,0.09886449994519353,0.7452991999452934
RSVPLG03,cs,20251029-110526,1.0.1,20251020-085245,723,Practice,Both,1,Automatic,main,7,20251029-110621,global,global,750,S,H,E,E,S-E.png,H-E.png,sS,hH,mask-4.png,mask-4.png,s,1,0.889854299952276,s,0,0.16305400000419468,0.04754639999009669,0.0455902999965474,0.09955449996050447,0.09760420001111925,0.7458179999375716
RSVPLG03,cs,20251029-110526,1.0.1,20251020-085245,723,Practice,Both,1,Automatic,main,8,20251029-110626,global,global,750,S,H,E,E,S-E.png,H-E.png,sS,hH,mask-4.png,mask-1.png,s,1,0.964716500020586,h,1,0.08764979999978095,0.04859030002262443,0.048532199929468334,0.099755399976857,0.09955119993537664,0.7457415000535548
RSVPLG03,cs,20251029-110526,1.0.1,20251020-085245,723,Practice,Both,1,Automatic,main,9,20251029-110631,local,local,750,H,S,A,E,A-H.png,E-S.png,hH,sS,mask-4.png,mask-4.png,s,0,1.2142481999471784,h,0,0.1216721999226138,0.047761800000444055,0.04890299995895475,0.10002619994338602,0.09972019994165748,0.7450578999705613
RSVPLG03,cs,20251029-110526,1.0.1,20251020-085245,723,Practice,Both,1,Automatic,main,10,20251029-110637,local,global,750,H,H,A,E,A-H.png,H-E.png,hH,hH,mask-3.png,mask-2.png,s,0,1.3363153000827879,h,1,0.19981730007566512,0.04758779995609075,0.04567470005713403,0.09979439992457628,0.09785140003077686,0.7459446999710053
RSVPLG03,cs,20251029-110526,1.0.1,20251020-085245,723,Practice,Both,1,Automatic,main,11,20251029-110642,local,local,300,S,H,E,E,E-S.png,E-H.png,sS,hH,mask-3.png,mask-4.png,s,1,1.3191947999875993,s,0,0.40623039996717125,0.04671360005158931,0.045994100044481456,0.09992179996334016,0.1000985000282526,0.29749879997689277
RSVPLG03,cs,20251029-110526,1.0.1,20251020-085245,723,Practice,Both,1,Automatic,main,12,20251029-110648,local,local,750,H,S,A,A,A-H.png,A-S.png,hH,sS,mask-2.png,mask-4.png,s,0,1.2191062000347301,s,1,0.2491938000312075,0.047687800019048154,0.046718699974007905,0.09991529991384596,0.09897119994275272,0.7454561999766156
RSVPLG03,cs,20251029-110526,1.0.1,20251020-085245,723,Practice,Both,1,Automatic,main,13,20251029-110654,global,global,300,H,S,A,E,H-A.png,S-E.png,hH,sS,mask-1.png,mask-1.png,s,0,2.279840600094758,h,0,0.13223930005915463,0.04762430000118911,0.04770629992708564,0.0998425999423489,0.09897259995341301,0.29935770004522055
RSVPLG03,cs,20251029-110526,1.0.1,20251020-085245,723,Practice,Both,1,Automatic,main,14,20251029-110700,global,global,300,S,H,A,A,S-A.png,H-A.png,sS,hH,mask-2.png,mask-3.png,h,0,1.4337863000109792,s,0,0.23851830000057817,0.04768720001447946,0.04776119999587536,0.09990520006977022,0.09992010006681085,0.29716860002372414
RSVPLG03,cs,20251029-110526,1.0.1,20251020-085245,723,Practice,Both,1,Automatic,main,15,20251029-110705,global,local,750,H,H,E,A,H-E.png,A-H.png,hH,hH,mask-3.png,mask-3.png,h,1,2.1353622999740764,h,1,0.21543650003150105,0.04770859994459897,0.045690499944612384,0.09979579993523657,0.0978952000150457,0.7460700999945402
RSVPLG03,cs,20251029-110526,1.0.1,20251020-085245,723,Practice,Both,1,Automatic,main,16,20251029-110712,local,global,300,H,H,E,E,E-H.png,H-E.png,hH,hH,mask-3.png,mask-3.png,s,0,1.7618914999766275,s,0,0.29392840003129095,0.04848850006237626,0.047532099997624755,0.09980690001975745,0.0995972000528127,0.2991086000110954
RSVPLG03,cs,20251029-110922,1.0.1,20251020-085245,723,Experiment,Both,1,Automatic,warmup,1,20251029-111120,local,local,300,S,H,A,A,A-S.png,A-H.png,sS,hH,mask-3.png,mask-3.png,s,1,0.7932392000220716,h,1,0.041740400018170476,0.04719090007711202,0.04766739998012781,0.0994537000078708,0.09985839994624257,0.29906660004053265
RSVPLG03,cs,20251029-110922,1.0.1,20251020-085245,723,Experiment,Both,1,Automatic,warmup,2,20251029-111125,local,global,300,S,S,A,E,A-S.png,S-E.png,sS,sS,mask-1.png,mask-4.png,s,1,2.6035791999893263,s,1,0.3313662000000477,0.047500999993644655,0.04749689996242523,0.0985023999819532,0.09849540004506707,0.29983419994823635
RSVPLG03,cs,20251029-110922,1.0.1,20251020-085245,723,Experiment,Both,1,Automatic,warmup,3,20251029-111131,local,global,750,S,S,A,E,A-S.png,S-E.png,sS,sS,mask-3.png,mask-3.png,s,1,0.701120600104332,h,0,0.038929799920879304,0.04649460001382977,0.04755080002360046,0.10048050002660602,0.09934600000269711,0.7505477999802679
RSVPLG03,cs,20251029-110922,1.0.1,20251020-085245,723,Experiment,Both,1,Automatic,warmup,4,20251029-111136,global,local,300,H,S,E,E,H-E.png,E-S.png,hH,sS,mask-1.png,mask-3.png,s,0,1.7748923000181094,h,0,0.009070399915799499,0.0465129999211058,0.04751629999373108,0.10020629991777241,0.09952489996794611,0.30051209998782724
RSVPLG03,cs,20251029-110922,1.0.1,20251020-085245,723,Experiment,Both,1,Automatic,warmup,5,20251029-111142,local,local,750,H,S,E,A,E-H.png,A-S.png,hH,sS,mask-4.png,mask-3.png,h,1,0.7364984999876469,s,1,0.30972659995313734,0.04716810001991689,0.0471045000012964,0.09956560004502535,0.09918869996909052,0.7509207000257447
RSVPLG03,cs,20251029-110922,1.0.1,20251020-085245,723,Experiment,Both,1,Automatic,main,6,20251029-111147,global,local,300,H,S,A,E,H-A.png,E-S.png,hH,sS,mask-1.png,mask-1.png,h,1,1.243181400001049,s,1,0.11684750008862466,0.048304000054486096,0.04779070010408759,0.10054030001629144,0.10039030003827065,0.2993778999662027
RSVPLG03,cs,20251029-110922,1.0.1,20251020-085245,723,Experiment,Both,1,Automatic,main,7,20251029-111152,global,global,750,H,H,E,A,H-E.png,H-A.png,hH,hH,mask-1.png,mask-1.png,h,1,0.6580326000694185,h,1,0.2056423999601975,0.04758299991954118,0.04769519995898008,0.1017610999988392,0.09881009999662638,0.7514335999730974
RSVPLG03,cs,20251029-110922,1.0.1,20251020-085245,723,Experiment,Both,1,Automatic,main,8,20251029-111157,local,global,300,H,S,E,E,E-H.png,S-E.png,hH,sS,mask-3.png,mask-4.png,h,1,0.7534827999770641,s,1,0.1820136000169441,0.048782299971207976,0.048670000047422945,0.10104730003513396,0.10089510004036129,0.29964189999736845
RSVPLG03,cs,20251029-110922,1.0.1,20251020-085245,723,Experiment,Both,1,Automatic,main,9,20251029-111202,global,global,300,H,H,E,E,H-E.png,H-E.png,hH,hH,mask-1.png,mask-2.png,h,1,0.9792550000129268,s,0,0.8505287999287248,0.04758599994238466,0.0475523000350222,0.10061229998245835,0.10060530004557222,0.3000155999325216
RSVPLG03,cs,20251029-110922,1.0.1,20251020-085245,723,Experiment,Both,1,Automatic,main,10,20251029-111207,local,global,750,S,H,A,E,A-S.png,H-E.png,sS,hH,mask-3.png,mask-1.png,s,1,0.6209415000630543,h,1,0.18716530001256615,0.04743079992476851,0.047493500052951276,0.09844440000597388,0.1005306999431923,0.7497957999585196
RSVPLG03,cs,20251029-110922,1.0.1,20251020-085245,723,Experiment,Both,1,Automatic,main,11,20251029-111212,global,global,750,S,H,E,E,S-E.png,H-E.png,sS,hH,mask-1.png,mask-1.png,h,0,0.778752600075677,s,0,0.09665099997073412,0.04652340000029653,0.04757169994991273,0.09856549999676645,0.09962330001872033,0.7498004999943078
RSVPLG03,cs,20251029-110922,1.0.1,20251020-085245,723,Experiment,Both,1,Automatic,main,12,20251029-111217,local,global,750,S,S,A,E,A-S.png,S-E.png,sS,sS,mask-1.png,mask-4.png,s,1,0.5078180000418797,h,0,0.046449200017377734,0.046509600011631846,0.04749999998603016,0.09959459991659969,0.10100759996566921,0.749031399958767
RSVPLG03,cs,20251029-110922,1.0.1,20251020-085245,723,Experiment,Both,1,Automatic,main,13,20251029-111222,local,local,300,H,S,E,E,E-H.png,E-S.png,hH,sS,mask-4.png,mask-4.png,h,1,0.9793760000029579,s,1,0.08170270000118762,0.04760539997369051,0.0475872999522835,0.09861109999474138,0.09861220000311732,0.2999371000332758
RSVPLG03,cs,20251029-110922,1.0.1,20251020-085245,723,Experiment,Both,1,Automatic,main,14,20251029-111227,global,local,300,H,H,E,A,H-E.png,A-H.png,hH,hH,mask-1.png,mask-3.png,h,1,0.5829787000548095,s,0,0.09213789994828403,0.046718599973246455,0.04816699994262308,0.09992609999608248,0.10088789998553693,0.29863279999699444
RSVPLG03,cs,20251029-110922,1.0.1,20251020-085245,723,Experiment,Both,1,Automatic,main,15,20251029-111231,local,global,750,S,H,E,E,E-S.png,H-E.png,sS,hH,mask-2.png,mask-1.png,s,1,0.5963283999590203,h,1,0.028488900046795607,0.045837100013159215,0.047678599948994815,0.10001840000040829,0.0998814000049606,0.7496985000325367
RSVPLG03,cs,20251029-110922,1.0.1,20251020-085245,723,Experiment,Both,1,Automatic,main,16,20251029-111236,global,global,300,H,S,E,A,H-E.png,S-A.png,hH,sS,mask-4.png,mask-1.png,s,0,1.670887800049968,h,0,0.05349770002067089,0.04770160000771284,0.04774030006956309,0.09930639993399382,0.09992060007061809,0.30007749993819743
RSVPLG03,cs,20251029-110922,1.0.1,20251020-085245,723,Experiment,Both,1,Automatic,main,17,20251029-111242,local,local,300,H,S,E,E,E-H.png,E-S.png,hH,sS,mask-2.png,mask-3.png,h,1,0.7830867999000475,h,0,0.3001255999552086,0.047871300019323826,0.046582199982367456,0.10005939996335655,0.0997944000409916,0.30073999997694045
RSVPLG03,cs,20251029-110922,1.0.1,20251020-085245,723,Experiment,Both,1,Automatic,main,18,20251029-111246,global,global,300,H,S,A,E,H-A.png,S-E.png,hH,sS,mask-2.png,mask-2.png,h,1,3.487493699998595,s,1,0.25812360004056245,0.04869179998058826,0.04695250000804663,0.10189869999885559,0.10021790000610054,0.3016050000442192
RSVPLG03,cs,20251029-110922,1.0.1,20251020-085245,723,Experiment,Both,1,Automatic,main,19,20251029-111254,global,local,750,H,H,A,E,H-A.png,E-H.png,hH,hH,mask-4.png,mask-1.png,h,1,0.7335505000082776,h,1,0.32097060000523925,0.04679920000489801,0.04753390001133084,0.09874300006777048,0.09955169993918389,0.7503129000542685
RSVPLG03,cs,20251029-110922,1.0.1,20251020-085245,723,Experiment,Both,1,Automatic,main,20,20251029-111259,local,local,750,S,S,E,A,E-S.png,A-S.png,sS,sS,mask-2.png,mask-3.png,s,1,1.0147172999568284,s,1,0.3714242000132799,0.045704999938607216,0.046417900011874735,0.10022399993613362,0.10020620003342628,0.7499009999446571
RSVPLG03,cs,20251029-110922,1.0.1,20251020-085245,723,Experiment,Both,1,Automatic,main,21,20251029-111305,global,global,750,S,H,E,E,S-E.png,H-E.png,sS,hH,mask-2.png,mask-4.png,s,1,0.7742391000501812,s,0,0.31661400001030415,0.04750200000125915,0.04749450006056577,0.0994712000247091,0.0996082000201568,0.7499459999380633
RSVPLG03,cs,20251029-110922,1.0.1,20251020-085245,723,Experiment,Both,1,Automatic,main,22,20251029-111310,local,local,750,H,H,A,E,A-H.png,E-H.png,hH,hH,mask-3.png,mask-4.png,h,1,1.536714900052175,h,1,0.19053800008259714,0.04751449998002499,0.04654789995402098,0.10053469997365028,0.09854769997764379,0.7517312000272796
RSVPLG03,cs,20251029-110922,1.0.1,20251020-085245,723,Experiment,Both,1,Automatic,main,23,20251029-111316,global,global,300,S,H,E,E,S-E.png,H-E.png,sS,hH,mask-2.png,mask-3.png,s,1,1.4357650000602007,h,1,0.04106549988500774,0.046594299958087504,0.047507200040854514,0.09896770003251731,0.10052109998650849,0.29930449998937547
RSVPLG03,cs,20251029-110922,1.0.1,20251020-085245,723,Experiment,Both,1,Automatic,main,24,20251029-111321,global,local,750,S,S,E,E,S-E.png,E-S.png,sS,sS,mask-3.png,mask-2.png,s,1,0.6895220000296831,h,0,0.021995000075548887,0.04756529990117997,0.04699950001668185,0.09865269996225834,0.10072960006073117,0.7486732999095693
RSVPLG03,cs,20251029-110922,1.0.1,20251020-085245,723,Experiment,Both,1,Automatic,main,25,20251029-111326,global,global,750,S,H,E,A,S-E.png,H-A.png,sS,hH,mask-3.png,mask-1.png,s,1,0.5795505000278354,s,0,0.5658043000148609,0.04743599996436387,0.046483300044201314,0.09944630006793886,0.09948720003012568,0.750092800008133
RSVPLG03,cs,20251029-110922,1.0.1,20251020-085245,723,Experiment,Both,1,Automatic,main,26,20251029-111404,global,global,300,H,S,E,A,H-E.png,S-A.png,hH,sS,mask-1.png,mask-1.png,s,0,1.043951899977401,s,1,1.3843824000796303,0.045708099962212145,0.047695200075395405,0.09986459999345243,0.0981320000719279,0.2996356999501586
RSVPLG03,cs,20251029-110922,1.0.1,20251020-085245,723,Experiment,Both,1,Automatic,main,27,20251029-111410,local,global,300,S,H,E,E,E-S.png,H-E.png,sS,hH,mask-1.png,mask-3.png,h,0,1.2010727999731898,s,0,0.041756800026632845,0.04666200000792742,0.04766469995956868,0.09987519995775074,0.0988812999567017,0.2994444000069052
RSVPLG03,cs,20251029-110922,1.0.1,20251020-085245,723,Experiment,Both,1,Automatic,main,28,20251029-111415,local,global,300,S,S,E,A,E-S.png,S-A.png,sS,sS,mask-1.png,mask-1.png,s,1,1.0429136999882758,h,0,0.040258800028823316,0.04869750002399087,0.04770170000847429,0.10000199999194592,0.10074179992079735,0.299720500013791
RSVPLG03,cs,20251029-110922,1.0.1,20251020-085245,723,Experiment,Both,1,Automatic,main,29,20251029-111420,local,local,300,S,S,A,E,A-S.png,E-S.png,sS,sS,mask-3.png,mask-3.png,s,1,1.1059609999647364,s,1,0.1487338999286294,0.04767550004180521,0.04847949999384582,0.09983449999708682,0.10070599999744445,0.2992779000196606
RSVPLG03,cs,20251029-110922,1.0.1,20251020-085245,723,Experiment,Both,1,Automatic,main,30,20251029-111425,local,local,750,S,S,A,A,A-S.png,A-S.png,sS,sS,mask-3.png,mask-3.png,s,1,0.7521046999609098,h,0,0.06925589998718351,0.04778500006068498,0.04751619999296963,0.10004980000667274,0.09937759989406914,0.7499362000962719
RSVPLG03,cs,20251029-110922,1.0.1,20251020-085245,723,Experiment,Both,1,Automatic,main,31,20251029-111430,global,global,300,S,S,A,A,S-A.png,S-A.png,sS,sS,mask-2.png,mask-1.png,s,1,0.5951574000064284,s,1,0.13513179996516556,0.04854180000256747,0.04859880008734763,0.0993825999321416,0.10070339997764677,0.29972649994306266
RSVPLG03,cs,20251029-110922,1.0.1,20251020-085245,723,Experiment,Both,1,Automatic,main,32,20251029-111435,local,local,300,S,H,E,E,E-S.png,E-H.png,sS,hH,mask-3.png,mask-3.png,s,1,0.62299790000543,s,0,0.0960163000272587,0.04711599997244775,0.047646199935115874,0.0994524999987334,0.10161519993562251,0.29796039999928325
RSVPLG03,cs,20251029-110922,1.0.1,20251020-085245,723,Experiment,Both,1,Automatic,main,33,20251029-111439,global,local,300,S,H,E,A,S-E.png,A-H.png,sS,hH,mask-3.png,mask-1.png,s,1,0.8192504999460652,s,0,0.1359019000083208,0.048581400071270764,0.04744150000624359,0.10075480001978576,0.09956390003208071,0.3001444999827072
RSVPLG03,cs,20251029-110922,1.0.1,20251020-085245,723,Experiment,Both,1,Automatic,main,34,20251029-111444,global,global,750,H,S,A,E,H-A.png,S-E.png,hH,sS,mask-4.png,mask-4.png,s,0,2.05433890002314,h,0,0.02552659995853901,0.04691070003900677,0.047652199980802834,0.09984669997356832,0.09888160007540137,0.7497219999786466
RSVPLG03,cs,20251029-110922,1.0.1,20251020-085245,723,Experiment,Both,1,Automatic,main,35,20251029-111450,global,global,300,H,S,E,E,H-E.png,S-E.png,hH,sS,mask-2.png,mask-4.png,h,1,0.6324998999480158,s,1,0.04454889998305589,0.046671300078742206,0.04672390001360327,0.09986550000030547,0.09805290005169809,0.2995646999916062
RSVPLG03,cs,20251029-110922,1.0.1,20251020-085245,723,Experiment,Both,1,Automatic,main,36,20251029-111455,global,global,300,H,S,A,A,H-A.png,S-A.png,hH,sS,mask-4.png,mask-1.png,h,1,0.6264902000548318,s,1,0.07412670005578548,0.04605079989414662,0.04663639992941171,0.09978289995342493,0.09998179995454848,0.29983679996803403
RSVPLG03,cs,20251029-110922,1.0.1,20251020-085245,723,Experiment,Both,1,Automatic,main,37,20251029-111459,local,global,300,S,H,E,A,E-S.png,H-A.png,sS,hH,mask-3.png,mask-1.png,s,1,0.6950703000184149,s,0,0.2149150000186637,0.049316000076942146,0.04834790003951639,0.101515700109303,0.10040750005282462,0.30000000004656613
RSVPLG03,cs,20251029-110922,1.0.1,20251020-085245,723,Experiment,Both,1,Automatic,main,38,20251029-111504,global,global,750,S,S,E,A,S-E.png,S-A.png,sS,sS,mask-3.png,mask-2.png,s,1,1.7507357000140473,s,1,0.11596309999004006,0.04773790005128831,0.048668299918062985,0.09993260004557669,0.09985389991197735,0.7499046000884846
RSVPLG03,cs,20251029-110922,1.0.1,20251020-085245,723,Experiment,Both,1,Automatic,main,39,20251029-111510,global,global,750,H,S,A,E,H-A.png,S-E.png,hH,sS,mask-3.png,mask-3.png,h,1,0.5882724000839517,s,1,0.09873049997258931,0.047474300023168325,0.04767550004180521,0.09967559995129704,0.09987220005132258,0.749751599971205
RSVPLG03,cs,20251029-110922,1.0.1,20251020-085245,723,Experiment,Both,1,Automatic,main,40,20251029-111515,global,local,300,H,H,E,A,H-E.png,A-H.png,hH,hH,mask-4.png,mask-1.png,h,1,0.6424870999762788,s,0,0.09244059992488474,0.04757879988756031,0.047700800001621246,0.09980779991019517,0.09993029991164804,0.2993659999920055
RSVPLG03,cs,20251029-110922,1.0.1,20251020-085245,723,Experiment,Both,1,Automatic,main,41,20251029-111519,global,local,750,S,H,A,E,S-A.png,E-H.png,sS,hH,mask-3.png,mask-4.png,s,1,0.5841718999436125,s,0,0.13919830007944256,0.04768670001067221,0.04756960005033761,0.10111379995942116,0.101372400065884,0.7500679999357089
RSVPLG03,cs,20251029-110922,1.0.1,20251020-085245,723,Experiment,Both,1,Automatic,main,42,20251029-111524,global,local,300,H,H,A,E,H-A.png,E-H.png,hH,hH,mask-4.png,mask-2.png,s,0,1.593455099966377,h,1,0.00524940004106611,0.04768650000914931,0.04751910001505166,0.1006949000293389,0.0995898999972269,0.2999464999884367
RSVPLG03,cs,20251029-110922,1.0.1,20251020-085245,723,Experiment,Both,1,Automatic,main,43,20251029-111529,local,local,300,S,S,A,A,A-S.png,A-S.png,sS,sS,mask-3.png,mask-1.png,s,1,0.5432003999594599,s,1,0.10571789997629821,0.04557980003301054,0.04772830009460449,0.09888340008910745,0.10016100003849715,0.29863530001603067
RSVPLG03,cs,20251029-110922,1.0.1,20251020-085245,723,Experiment,Both,1,Automatic,main,44,20251029-111533,local,global,300,H,S,E,A,E-H.png,S-A.png,hH,sS,mask-4.png,mask-2.png,h,1,0.5955731000285596,s,1,0.025413100025616586,0.04654859995935112,0.047476100036874413,0.09858210000675172,0.09949020005296916,0.2990345999132842
RSVPLG03,cs,20251029-110922,1.0.1,20251020-085245,723,Experiment,Both,1,Automatic,main,45,20251029-111538,local,global,300,S,H,A,E,A-S.png,H-E.png,sS,hH,mask-2.png,mask-3.png,h,0,1.4063022000482306,h,1,0.3303506000665948,0.0467071000020951,0.04773780005052686,0.09997889993246645,0.09999140002764761,0.2996819999534637
RSVPLG03,cs,20251029-110922,1.0.1,20251020-085245,723,Experiment,Both,1,Automatic,main,46,20251029-111543,local,global,300,H,H,A,E,A-H.png,H-E.png,hH,hH,mask-3.png,mask-3.png,s,0,0.6763295999262482,h,1,0.07721479993779212,0.047597300028428435,0.04761300003156066,0.098529800074175,0.10107510001398623,0.29832569998688996
RSVPLG03,cs,20251029-110922,1.0.1,20251020-085245,723,Experiment,Both,1,Automatic,main,47,20251029-111548,global,local,300,H,H,A,E,H-A.png,E-H.png,hH,hH,mask-1.png,mask-1.png,s,0,0.6129798999754712,s,0,0.39611920004244894,0.04732870007865131,0.04853019991423935,0.10016810009256005,0.10050910001154989,0.3001123000867665
RSVPLG03,cs,20251029-110922,1.0.1,20251020-085245,723,Experiment,Both,1,Automatic,main,48,20251029-111553,local,global,300,S,H,E,E,E-S.png,H-E.png,sS,hH,mask-1.png,mask-1.png,s,1,0.4980056000640616,h,1,0.06771480001043528,0.04655400000046939,0.048659700085408986,0.09970839996822178,0.10006359999533743,0.29914669995196164
RSVPLG03,cs,20251029-110922,1.0.1,20251020-085245,723,Experiment,Both,1,Automatic,main,49,20251029-111557,local,global,300,H,S,E,A,E-H.png,S-A.png,hH,sS,mask-2.png,mask-2.png,h,1,0.8128191999858245,s,1,0.07627359998878092,0.04658730002120137,0.047285000095143914,0.09959420002996922,0.10030870011541992,0.29925529996398836
RSVPLG03,cs,20251029-110922,1.0.1,20251020-085245,723,Experiment,Both,1,Automatic,main,50,20251029-111601,local,local,300,H,S,E,A,E-H.png,A-S.png,hH,sS,mask-1.png,mask-2.png,s,0,1.9861194000113755,h,0,0.03480729996226728,0.04769270005635917,0.04868249990977347,0.10152649995870888,0.09995659999549389,0.3003843000624329
RSVPLG03,cs,20251029-110922,1.0.1,20251020-085245,723,Experiment,Both,1,Automatic,main,51,20251029-111609,local,global,750,S,S,A,E,A-S.png,S-E.png,sS,sS,mask-2.png,mask-3.png,s,1,1.0562233000528067,s,1,0.0984712999779731,0.04760119994170964,0.047678499948233366,0.09980890003498644,0.09983979992102832,0.7496094000525773
RSVPLG03,cs,20251029-110922,1.0.1,20251020-085245,723,Experiment,Both,1,Automatic,main,52,20251029-111614,global,global,300,S,S,E,E,S-E.png,S-E.png,sS,sS,mask-4.png,mask-2.png,s,1,1.5956375000532717,s,1,0.28176150005310774,0.046238700044341385,0.0472490000538528,0.09852530003990978,0.09952809999231249,0.2988021000055596
RSVPLG03,cs,20251029-110922,1.0.1,20251020-085245,723,Experiment,Both,1,Automatic,main,53,20251029-111620,global,global,750,S,H,A,A,S-A.png,H-A.png,sS,hH,mask-2.png,mask-4.png,s,1,0.6467574000125751,h,1,0.12544530001468956,0.047702399897389114,0.04869900003541261,0.09991969994734973,0.1017920000012964,0.7484321999363601
RSVPLG03,cs,20251029-110922,1.0.1,20251020-085245,723,Experiment,Both,1,Automatic,main,54,20251029-111625,local,global,300,S,S,E,A,E-S.png,S-A.png,sS,sS,mask-4.png,mask-2.png,s,1,0.8615190999116749,s,1,0.09768549993168563,0.045781999942846596,0.04755189991556108,0.09878240001853555,0.10075839993078262,0.2990910999942571
RSVPLG03,cs,20251029-110922,1.0.1,20251020-085245,723,Experiment,Both,1,Automatic,main,55,20251029-111629,global,global,300,H,S,E,A,H-E.png,S-A.png,hH,sS,mask-4.png,mask-2.png,s,0,1.5557091000955552,h,0,0.022770100040361285,0.04725619999226183,0.04716249997727573,0.10035070008598268,0.10030749998986721,0.30030030000489205
RSVPLG03,cs,20251029-110922,1.0.1,20251020-085245,723,Experiment,Both,1,Automatic,main,56,20251029-111635,local,global,300,S,S,E,A,E-S.png,S-A.png,sS,sS,mask-1.png,mask-4.png,s,1,0.5939821999054402,s,1,0.20019739994313568,0.04751639999449253,0.04710930003784597,0.10061069997027516,0.10090019996277988,0.3006507999962196
RSVPLG03,cs,20251029-110922,1.0.1,20251020-085245,723,Experiment,Both,1,Automatic,main,57,20251029-111639,local,global,750,S,S,E,A,E-S.png,S-A.png,sS,sS,mask-2.png,mask-2.png,s,1,0.8488119000103325,s,1,3.34924840007443,0.047658200026489794,0.04770210001152009,0.09987290005665272,0.09993350005242974,0.7499508999753743
RSVPLG03,cs,20251029-110922,1.0.1,20251020-085245,723,Experiment,Both,1,Automatic,main,58,20251029-111648,global,global,750,S,H,E,E,S-E.png,H-E.png,sS,hH,mask-4.png,mask-3.png,s,1,0.7465287999948487,h,1,0.11845010006800294,0.04591029998846352,0.04570929997134954,0.09835740004200488,0.09904429991729558,0.7498589000897482
RSVPLG03,cs,20251029-110922,1.0.1,20251020-085245,723,Experiment,Both,1,Automatic,main,59,20251029-111653,global,local,300,H,S,E,E,H-E.png,E-S.png,hH,sS,mask-3.png,mask-1.png,s,0,1.32480589998886,h,0,0.2933601000113413,0.04748119995929301,0.04882209992501885,0.10037759994156659,0.10074509994592518,0.29969190002884716
RSVPLG03,cs,20251029-110922,1.0.1,20251020-085245,723,Experiment,Both,1,Automatic,main,60,20251029-111658,local,local,300,S,H,E,A,E-S.png,A-H.png,sS,hH,mask-3.png,mask-4.png,s,1,0.7037425999296829,h,1,1.06284340005368,0.04654130002018064,0.04748839989770204,0.09969040006399155,0.09877079993020743,0.29910320008639246
RSVPLG03,cs,20251029-110922,1.0.1,20251020-085245,723,Experiment,Both,1,Automatic,main,61,20251029-111704,local,local,300,H,H,A,A,A-H.png,A-H.png,hH,hH,mask-2.png,mask-3.png,h,1,0.48216169991064817,h,1,0.2612871000310406,0.04866620001848787,0.04753330000676215,0.10085869999602437,0.0996031000977382,0.30028440000023693
RSVPLG03,cs,20251029-110922,1.0.1,20251020-085245,723,Experiment,Both,1,Automatic,main,62,20251029-111708,global,global,300,H,H,A,E,H-A.png,H-E.png,hH,hH,mask-2.png,mask-2.png,h,1,1.9957932999823242,h,1,0.16810820007231086,0.04768590000458062,0.048702299944125116,0.10138590005226433,0.10089859995059669,0.30010760005097836
RSVPLG03,cs,20251029-110922,1.0.1,20251020-085245,723,Experiment,Both,1,Automatic,main,63,20251029-111714,local,global,750,H,S,A,E,A-H.png,S-E.png,hH,sS,mask-4.png,mask-2.png,h,1,0.6206466000294313,h,0,0.1661838999716565,0.04594179999548942,0.04774599999655038,0.09968610003124923,0.09995299996808171,0.7494726000586525
RSVPLG03,cs,20251029-110922,1.0.1,20251020-085245,723,Experiment,Both,1,Automatic,main,64,20251029-111719,local,local,750,H,S,E,A,E-H.png,A-S.png,hH,sS,mask-3.png,mask-3.png,h,1,0.5603824999416247,s,1,0.03420120000373572,0.04765269998461008,0.04592699999921024,0.09984639997128397,0.10004730010405183,0.7503838998964056
RSVPLG03,cs,20251029-110922,1.0.1,20251020-085245,723,Experiment,Both,1,Automatic,main,65,20251029-111724,global,local,750,S,S,E,E,S-E.png,E-S.png,sS,sS,mask-3.png,mask-1.png,s,1,2.045324199949391,s,1,0.2140177000546828,0.047417999943718314,0.04755200003273785,0.10037879995070398,0.10064630000852048,0.7501287999330088
RSVPLG03,cs,20251029-110922,1.0.1,20251020-085245,723,Experiment,Both,1,Automatic,main,66,20251029-111730,local,local,750,S,S,A,A,A-S.png,A-S.png,sS,sS,mask-3.png,mask-4.png,s,1,0.5285498999292031,s,1,0.11514390003867447,0.045923100085929036,0.04763410007581115,0.10020159999839962,0.09885910002049059,0.74981619999744
RSVPLG03,cs,20251029-110922,1.0.1,20251020-085245,723,Experiment,Both,1,Automatic,main,67,20251029-111735,global,local,750,H,S,A,E,H-A.png,E-S.png,hH,sS,mask-4.png,mask-1.png,s,0,0.5921492999186739,h,0,0.20305090001784265,0.046884499955922365,0.047678699949756265,0.09995289996732026,0.09985159989446402,0.7500602999934927
RSVPLG03,cs,20251029-110922,1.0.1,20251020-085245,723,Experiment,Both,1,Automatic,main,68,20251029-111740,local,local,750,S,H,A,A,A-S.png,A-H.png,sS,hH,mask-3.png,mask-4.png,s,1,0.30470410000998527,h,1,0.293582700076513,0.04773600003682077,0.04770129988901317,0.10140020004473627,0.10030559997539967,0.7500257000792772
RSVPLG03,cs,20251029-110922,1.0.1,20251020-085245,723,Experiment,Both,1,Automatic,main,69,20251029-111745,local,local,750,S,H,A,A,A-S.png,A-H.png,sS,hH,mask-2.png,mask-2.png,s,1,0.5345407999120653,h,1,0.025102099985815585,0.04909870005212724,0.046681900043040514,0.10115150001365691,0.09990970010403544,0.7514785999665037
RSVPLG03,cs,20251029-110922,1.0.1,20251020-085245,723,Experiment,Both,1,Automatic,main,70,20251029-111749,global,global,750,S,S,E,A,S-E.png,S-A.png,sS,sS,mask-2.png,mask-4.png,h,0,0.6719510999973863,h,0,0.4246828000759706,0.048416599980555475,0.04765840002801269,0.1012464000377804,0.10156320000533015,0.7498266999609768
RSVPLG03,cs,20251029-110922,1.0.1,20251020-085245,723,Experiment,Both,1,Automatic,main,71,20251029-111755,local,local,750,H,S,E,A,E-H.png,A-S.png,hH,sS,mask-1.png,mask-2.png,h,1,0.593290299992077,s,1,0.12206190009601414,0.04661249998025596,0.04752809996716678,0.09951680002268404,0.09829049999825656,0.7505723000504076
RSVPLG03,cs,20251029-110922,1.0.1,20251020-085245,723,Experiment,Both,1,Automatic,main,72,20251029-111800,local,local,750,S,H,A,E,A-S.png,E-H.png,sS,hH,mask-4.png,mask-4.png,s,1,0.9514018000336364,h,1,0.020516899996437132,0.046506999991834164,0.04754480009432882,0.09969040006399155,0.10072900005616248,0.7490640999749303
RSVPLG03,cs,20251029-110922,1.0.1,20251020-085245,723,Experiment,Both,1,Automatic,main,73,20251029-111805,global,global,750,S,H,E,A,S-E.png,H-A.png,sS,hH,mask-3.png,mask-3.png,h,0,0.7815394999925047,s,0,0.10517150000669062,0.04676130006555468,0.04670609999448061,0.09988130000419915,0.09883939998690039,0.750328200054355
RSVPLG03,cs,20251029-110922,1.0.1,20251020-085245,723,Experiment,Both,1,Automatic,main,74,20251029-111810,global,global,750,S,H,A,E,S-A.png,H-E.png,sS,hH,mask-1.png,mask-4.png,s,1,0.7694854999426752,s,0,0.5876208000117913,0.04805739992298186,0.04574049997609109,0.10023630002979189,0.09991360001731664,0.751850500004366
RSVPLG03,cs,20251029-110922,1.0.1,20251020-085245,723,Experiment,Both,1,Automatic,main,75,20251029-111815,local,local,300,S,S,A,A,A-S.png,A-S.png,sS,sS,mask-3.png,mask-3.png,s,1,1.044140400015749,s,1,0.19877260003704578,0.04593840008601546,0.04751299996860325,0.09906440007034689,0.09955539996735752,0.29964720003772527
RSVPLG03,cs,20251029-110922,1.0.1,20251020-085245,723,Experiment,Both,1,Automatic,main,76,20251029-111823,global,global,300,H,H,E,A,H-E.png,H-A.png,hH,hH,mask-2.png,mask-2.png,h,1,1.5585246999980882,s,0,0.29294519999530166,0.0481245000846684,0.0485132000176236,0.10001980001106858,0.09944000001996756,0.30073140002787113
RSVPLG03,cs,20251029-110922,1.0.1,20251020-085245,723,Experiment,Both,1,Automatic,main,77,20251029-111829,local,global,300,S,H,A,A,A-S.png,H-A.png,sS,hH,mask-2.png,mask-4.png,s,1,0.7886551000410691,s,0,0.3355341999558732,0.046917199972085655,0.04737069993279874,0.09984759998042136,0.10145989991724491,0.29807060002349317
RSVPLG03,cs,20251029-110922,1.0.1,20251020-085245,723,Experiment,Both,1,Automatic,main,78,20251029-111834,global,local,300,H,S,E,E,H-E.png,E-S.png,hH,sS,mask-1.png,mask-4.png,h,1,1.6183219000231475,s,1,0.07397150003816932,0.048434500000439584,0.0473768999800086,0.10131739999633282,0.10011729993857443,0.30138800002168864
RSVPLG03,cs,20251029-110922,1.0.1,20251020-085245,723,Experiment,Both,1,Automatic,main,79,20251029-111839,global,local,750,S,S,E,A,S-E.png,A-S.png,sS,sS,mask-3.png,mask-2.png,s,1,0.6672986999619752,h,0,0.09273220004979521,0.04875990003347397,0.04756520001683384,0.10184470005333424,0.0996630999725312,0.7518408000469208
RSVPLG03,cs,20251029-110922,1.0.1,20251020-085245,723,Experiment,Both,1,Automatic,main,80,20251029-111844,local,local,750,S,S,A,E,A-S.png,E-S.png,sS,sS,mask-4.png,mask-1.png,s,1,0.6534360999939963,s,1,0.39437310001812875,0.0477043999126181,0.046757500036619604,0.09989389998372644,0.09895090002100915,0.750726499943994
RSVPLG03,cs,20251029-110922,1.0.1,20251020-085245,723,Experiment,Both,1,Automatic,main,81,20251029-111849,local,global,750,S,S,E,A,E-S.png,S-A.png,sS,sS,mask-3.png,mask-3.png,s,1,0.6698026000522077,s,1,0.15291289996821433,0.04738439992070198,0.047378300107084215,0.10141729994211346,0.10075820004567504,0.7500054999254644
RSVPLG03,cs,20251029-110922,1.0.1,20251020-085245,723,Experiment,Both,1,Automatic,main,82,20251029-111854,local,global,750,H,H,E,A,E-H.png,H-A.png,hH,hH,mask-3.png,mask-3.png,h,1,1.7593552999896929,h,1,0.16618359996937215,0.04751669999677688,0.047521900036372244,0.09952259995043278,0.10053469997365028,0.7480748000089079
RSVPLG03,cs,20251029-110922,1.0.1,20251020-085245,723,Experiment,Both,1,Automatic,main,83,20251029-111900,global,local,300,S,S,A,E,S-A.png,E-S.png,sS,sS,mask-2.png,mask-3.png,s,1,0.6626983000896871,s,1,0.12451879994478077,0.04767340002581477,0.048692300100810826,0.09994750004261732,0.09988710004836321,0.2985564999980852
RSVPLG03,cs,20251029-110922,1.0.1,20251020-085245,723,Experiment,Both,1,Automatic,main,84,20251029-111905,global,local,300,S,S,A,E,S-A.png,E-S.png,sS,sS,mask-1.png,mask-4.png,s,1,1.1052178000099957,h,0,0.07368819997645915,0.04768730001524091,0.047554500051774085,0.10005579993594438,0.10162800003308803,0.2986288999672979
RSVPLG03,cs,20251029-110922,1.0.1,20251020-085245,723,Experiment,Both,1,Automatic,main,85,20251029-111910,local,local,300,H,H,E,A,E-H.png,A-H.png,hH,hH,mask-3.png,mask-2.png,h,1,0.832224200014025,h,1,0.21165799989830703,0.04653069993946701,0.047527699964120984,0.09859660000074655,0.09953239990863949,0.2998621000442654
RSVPLG03,cs,20251029-110922,1.0.1,20251020-085245,723,Experiment,Both,1,Automatic,main,86,20251029-111915,global,global,750,H,S,A,E,H-A.png,S-E.png,hH,sS,mask-4.png,mask-4.png,h,1,0.9282336999895051,h,0,0.22002459992654622,0.04668789997231215,0.04846699989866465,0.09972960001323372,0.10074489994440228,0.7497181000653654
RSVPLG03,cs,20251029-110922,1.0.1,20251020-085245,723,Experiment,Both,1,Automatic,main,87,20251029-111920,local,global,300,H,H,E,E,E-H.png,H-E.png,hH,hH,mask-3.png,mask-2.png,h,1,0.8436902998946607,h,1,0.17250640003476292,0.04653749999124557,0.04649590002372861,0.0996521000051871,0.09913520002737641,0.3003440999891609
RSVPLG03,cs,20251029-110922,1.0.1,20251020-085245,723,Experiment,Both,1,Automatic,main,88,20251029-111925,global,global,300,S,S,E,E,S-E.png,S-E.png,sS,sS,mask-2.png,mask-1.png,s,1,0.7317372000543401,s,1,0.15203480003401637,0.048505399958230555,0.04755459993612021,0.10061329999007285,0.09964029991533607,0.3008960000006482
RSVPLG03,cs,20251029-110922,1.0.1,20251020-085245,723,Experiment,Both,1,Automatic,main,89,20251029-111929,local,local,750,H,H,A,E,A-H.png,E-H.png,hH,hH,mask-4.png,mask-1.png,h,1,0.5400586000178009,h,1,0.14925849996507168,0.04734809999354184,0.04691379994619638,0.09837440005503595,0.10000670002773404,0.7497438000282273
RSVPLG03,cs,20251029-110922,1.0.1,20251020-085245,723,Experiment,Both,1,Automatic,main,90,20251029-111934,local,global,300,H,H,E,A,E-H.png,H-A.png,hH,hH,mask-1.png,mask-2.png,h,1,0.623831499950029,h,1,0.22389860008843243,0.04732380004134029,0.04642949998378754,0.09835450001992285,0.09964949998538941,0.29964089998975396
RSVPLG03,cs,20251029-110922,1.0.1,20251020-085245,723,Experiment,Both,1,Automatic,main,91,20251029-111939,local,local,300,S,H,E,A,E-S.png,A-H.png,sS,hH,mask-3.png,mask-2.png,s,1,1.996540299966,s,0,0.15221890003886074,0.04649430001154542,0.04750909993890673,0.09953630005475134,0.09852759994100779,0.29984840005636215
RSVPLG03,cs,20251029-110922,1.0.1,20251020-085245,723,Experiment,Both,1,Automatic,main,92,20251029-111944,global,local,750,S,S,A,E,S-A.png,E-S.png,sS,sS,mask-1.png,mask-3.png,h,0,0.6392368000233546,h,0,0.16353569994680583,0.046994099975563586,0.0476374999852851,0.09865669999271631,0.09970989997964352,0.7496027000015602
RSVPLG03,cs,20251029-110922,1.0.1,20251020-085245,723,Experiment,Both,1,Automatic,main,93,20251029-111949,local,global,750,H,H,A,A,A-H.png,H-A.png,hH,hH,mask-2.png,mask-1.png,s,0,0.6184095999924466,h,1,0.4902826000470668,0.047681599971838295,0.047666699974797666,0.09991480002645403,0.0997374999569729,0.7504513000603765
RSVPLG03,cs,20251029-110922,1.0.1,20251020-085245,723,Experiment,Both,1,Automatic,main,94,20251029-111955,global,local,750,H,S,E,E,H-E.png,E-S.png,hH,sS,mask-4.png,mask-1.png,h,1,1.618044599890709,s,1,0.03530360001605004,0.04849109996575862,0.047425500000827014,0.1008977999445051,0.10145199997350574,0.7495391999837011
RSVPLG03,cs,20251029-110922,1.0.1,20251020-085245,723,Experiment,Both,1,Automatic,main,95,20251029-112000,local,local,750,S,S,E,A,E-S.png,A-S.png,sS,sS,mask-1.png,mask-3.png,h,0,1.6444338000146672,s,1,0.040826199925504625,0.04855639999732375,0.04849109996575862,0.10058389999903738,0.1006442999932915,0.749740400002338
RSVPLG03,cs,20251029-110922,1.0.1,20251020-085245,723,Experiment,Both,1,Automatic,main,96,20251029-112006,local,global,750,H,S,A,A,A-H.png,S-A.png,hH,sS,mask-2.png,mask-4.png,h,1,0.4443656000075862,h,0,0.18460239993873984,0.0477785998955369,0.04669839993584901,0.10005019989330322,0.09990349994041026,0.7505194999976084
RSVPLG03,cs,20251029-110922,1.0.1,20251020-085245,723,Experiment,Both,1,Automatic,main,97,20251029-112011,global,local,300,H,S,E,E,H-E.png,E-S.png,hH,sS,mask-4.png,mask-2.png,h,1,1.4515291000716388,s,1,0.2619111000094563,0.04674130002968013,0.046695200027897954,0.09989349998068064,0.09992459998466074,0.2994736999971792
RSVPLG03,cs,20251029-110922,1.0.1,20251020-085245,723,Experiment,Both,1,Automatic,main,98,20251029-112017,global,local,300,H,S,E,A,H-E.png,A-S.png,hH,sS,mask-2.png,mask-2.png,h,1,0.6348261000821367,h,0,0.18604749999940395,0.04679209995083511,0.046656599966809154,0.09896520001348108,0.09984779998194426,0.299639799981378
RSVPLG03,cs,20251029-110922,1.0.1,20251020-085245,723,Experiment,Both,1,Automatic,main,99,20251029-112021,local,global,750,S,S,E,A,E-S.png,S-A.png,sS,sS,mask-4.png,mask-1.png,s,1,0.8344150999328122,s,1,0.12460169999394566,0.047537899925373495,0.04757860000245273,0.09954009996727109,0.10086859995499253,0.7495977999642491
RSVPLG03,cs,20251029-110922,1.0.1,20251020-085245,723,Experiment,Both,1,Automatic,main,100,20251029-112026,local,global,750,H,S,E,A,E-H.png,S-A.png,hH,sS,mask-4.png,mask-4.png,h,1,1.2723225000081584,h,0,0.17205829999875277,0.04750750004313886,0.04851619992405176,0.09851590008474886,0.10052989993710071,0.749170400085859
RSVPLG03,cs,20251029-110922,1.0.1,20251020-085245,723,Experiment,Both,1,Automatic,main,101,20251029-112115,global,global,300,H,H,A,E,H-A.png,H-E.png,hH,hH,mask-1.png,mask-1.png,h,1,1.1232428000075743,s,0,0.11744629999157041,0.0456878999248147,0.04680669994559139,0.09880549996159971,0.09976480004843324,0.29864499997347593
RSVPLG03,cs,20251029-110922,1.0.1,20251020-085245,723,Experiment,Both,1,Automatic,main,102,20251029-112120,global,local,750,S,S,E,E,S-E.png,E-S.png,sS,sS,mask-4.png,mask-3.png,s,1,0.669589800061658,s,1,0.3139998000115156,0.04744049999862909,0.04770589992403984,0.09961769997607917,0.09987869998440146,0.7507232000352815
RSVPLG03,cs,20251029-110922,1.0.1,20251020-085245,723,Experiment,Both,1,Automatic,main,103,20251029-112125,global,local,750,H,H,E,A,H-E.png,A-H.png,hH,hH,mask-1.png,mask-1.png,h,1,0.7289816000266001,h,1,0.15722120006103069,0.04751199996098876,0.047564500011503696,0.10041529999580234,0.0996403000317514,0.7498408999526873
RSVPLG03,cs,20251029-110922,1.0.1,20251020-085245,723,Experiment,Both,1,Automatic,main,104,20251029-112130,global,local,750,S,S,E,A,S-E.png,A-S.png,sS,sS,mask-3.png,mask-1.png,s,1,0.7043242000509053,s,1,0.4500788999721408,0.04752849997021258,0.047603299957700074,0.09860189992468804,0.1012823999626562,0.7482058999594301
RSVPLG03,cs,20251029-110922,1.0.1,20251020-085245,723,Experiment,Both,1,Automatic,main,105,20251029-112136,global,local,750,S,H,A,A,S-A.png,A-H.png,sS,hH,mask-1.png,mask-4.png,s,1,0.6558126999298111,h,1,0.07612410001456738,0.04749849997460842,0.047480300068855286,0.10047810000833124,0.10147790005430579,0.7504675999516621
RSVPLG03,cs,20251029-110922,1.0.1,20251020-085245,723,Experiment,Both,1,Automatic,main,106,20251029-112141,local,local,300,S,H,E,A,E-S.png,A-H.png,sS,hH,mask-3.png,mask-4.png,s,1,0.8022406999953091,s,0,0.1486405999166891,0.0476261000148952,0.04653560009319335,0.09962820005603135,0.098583500017412,0.300894399988465
RSVPLG03,cs,20251029-110922,1.0.1,20251020-085245,723,Experiment,Both,1,Automatic,main,107,20251029-112145,local,local,750,H,S,A,A,A-H.png,A-S.png,hH,sS,mask-3.png,mask-3.png,h,1,1.3025075000477955,s,1,0.06861409998964518,0.04661980003584176,0.04679159994702786,0.09971800004132092,0.09993979998398572,0.7495175000512972
RSVPLG03,cs,20251029-110922,1.0.1,20251020-085245,723,Experiment,Both,1,Automatic,main,108,20251029-112151,local,global,750,H,H,E,E,E-H.png,H-E.png,hH,hH,mask-3.png,mask-4.png,s,0,1.0933686000062153,s,0,0.12338200001977384,0.046603100025095046,0.047607699991203845,0.09868170006666332,0.10146280005574226,0.7486256000120193
RSVPLG03,cs,20251029-110922,1.0.1,20251020-085245,723,Experiment,Both,1,Automatic,main,109,20251029-112156,global,local,300,S,H,A,E,S-A.png,E-H.png,sS,hH,mask-2.png,mask-4.png,h,0,0.919213299988769,s,0,0.31441859994083643,0.04749129991978407,0.0475210000295192,0.10048539994750172,0.09850890003144741,0.30169699992984533
RSVPLG03,cs,20251029-110922,1.0.1,20251020-085245,723,Experiment,Both,1,Automatic,main,110,20251029-112201,local,global,750,S,H,A,E,A-S.png,H-E.png,sS,hH,mask-3.png,mask-3.png,h,0,2.203739700024016,s,0,0.028156300075352192,0.047369100037030876,0.04753690003417432,0.09938040003180504,0.10152969998307526,0.748345399973914
RSVPLG03,cs,20251029-110922,1.0.1,20251020-085245,723,Experiment,Both,1,Automatic,main,111,20251029-112208,local,global,300,H,H,A,E,A-H.png,H-E.png,hH,hH,mask-3.png,mask-3.png,h,1,1.1535561999771744,h,1,0.14073839993216097,0.04730640002526343,0.04854059999343008,0.09828939998988062,0.10163469996768981,0.29853200004436076
RSVPLG03,cs,20251029-110922,1.0.1,20251020-085245,723,Experiment,Both,1,Automatic,main,112,20251029-112213,local,local,750,H,S,E,A,E-H.png,A-S.png,hH,sS,mask-1.png,mask-1.png,h,1,1.2952256000135094,h,0,0.15931060002185404,0.04605160001665354,0.047526199952699244,0.0982263000914827,0.0986477000406012,0.7497781000565737
RSVPLG03,cs,20251029-110922,1.0.1,20251020-085245,723,Experiment,Both,1,Automatic,main,113,20251029-112218,global,local,750,S,S,A,E,S-A.png,E-S.png,sS,sS,mask-1.png,mask-4.png,s,1,0.6414569999324158,s,1,0.104922000085935,0.04751570010557771,0.047650499967858195,0.10072790004778653,0.09986739989835769,0.7509627001127228
RSVPLG03,cs,20251029-110922,1.0.1,20251020-085245,723,Experiment,Both,1,Automatic,main,114,20251029-112223,local,local,300,S,S,A,A,A-S.png,A-S.png,sS,sS,mask-2.png,mask-1.png,h,0,0.9646731000393629,h,0,0.26674519991502166,0.04670599999371916,0.046731699956580997,0.09818839991930872,0.09789239999372512,0.2997941999929026
RSVPLG03,cs,20251029-110922,1.0.1,20251020-085245,723,Experiment,Both,1,Automatic,main,115,20251029-112228,global,global,750,S,H,E,A,S-E.png,H-A.png,sS,hH,mask-4.png,mask-2.png,s,1,0.5003371000057086,s,0,0.29400500003248453,0.04753710003569722,0.04652510001324117,0.09959460003301501,0.09987919998820871,0.7504176000365987
RSVPLG03,cs,20251029-110922,1.0.1,20251020-085245,723,Experiment,Both,1,Automatic,main,116,20251029-112233,local,local,300,S,S,A,E,A-S.png,E-S.png,sS,sS,mask-3.png,mask-4.png,s,1,1.5883563000243157,s,1,0.11716579995118082,0.048695000004954636,0.04688269994221628,0.10017109999898821,0.10093509999569505,0.299905400024727
RSVPLG03,cs,20251029-110922,1.0.1,20251020-085245,723,Experiment,Both,1,Automatic,main,117,20251029-112238,local,local,750,S,H,A,A,A-S.png,A-H.png,sS,hH,mask-1.png,mask-3.png,h,0,1.264125799993053,h,1,0.11913570004981011,0.047594200004823506,0.0488410999532789,0.09967289993073791,0.10004309995565563,0.7487748999847099
RSVPLG03,cs,20251029-110922,1.0.1,20251020-085245,723,Experiment,Both,1,Automatic,main,118,20251029-112244,global,local,750,S,S,E,A,S-E.png,A-S.png,sS,sS,mask-2.png,mask-3.png,s,1,0.6707277999958023,s,1,0.7807141999946907,0.045795700047165155,0.04910329997073859,0.0979659000877291,0.10028119990602136,0.7483295000856742
RSVPLG03,cs,20251029-110922,1.0.1,20251020-085245,723,Experiment,Both,1,Automatic,main,119,20251029-112250,global,local,300,S,H,A,E,S-A.png,E-H.png,sS,hH,mask-4.png,mask-4.png,s,1,2.788282399997115,s,0,0.1537610999075696,0.04746009991504252,0.048539499985054135,0.10146589996293187,0.10056269995402545,0.30082739994395524
RSVPLG03,cs,20251029-110922,1.0.1,20251020-085245,723,Experiment,Both,1,Automatic,main,120,20251029-112256,local,global,750,H,S,A,E,A-H.png,S-E.png,hH,sS,mask-4.png,mask-3.png,s,0,1.0471907999599352,s,1,0.16492770006880164,0.04755090002436191,0.04850939998868853,0.10054420004598796,0.10158320004120469,0.7487598999869078
RSVPLG03,cs,20251029-110922,1.0.1,20251020-085245,723,Experiment,Both,1,Automatic,main,121,20251029-112302,global,global,300,S,S,E,E,S-E.png,S-E.png,sS,sS,mask-1.png,mask-1.png,h,0,0.5462009999901056,h,0,0.1325628999620676,0.047490500030107796,0.047489100019447505,0.09948910004459321,0.10047259996645153,0.2998252999968827
RSVPLG03,cs,20251029-110922,1.0.1,20251020-085245,723,Experiment,Both,1,Automatic,main,122,20251029-112306,global,global,750,S,H,E,A,S-E.png,H-A.png,sS,hH,mask-3.png,mask-3.png,s,1,0.5414228000445291,s,0,0.157285499968566,0.04751070006750524,0.04742720001377165,0.0995964000467211,0.09944909997284412,0.7502981000579894
RSVPLG03,cs,20251029-110922,1.0.1,20251020-085245,723,Experiment,Both,1,Automatic,main,123,20251029-112311,global,local,750,S,S,A,A,S-A.png,A-S.png,sS,sS,mask-3.png,mask-3.png,s,1,0.5794430000241846,s,1,0.3296545000048354,0.04752280004322529,0.048716200049966574,0.09955449996050447,0.10090660001151264,0.7488045999780297
RSVPLG03,cs,20251029-110922,1.0.1,20251020-085245,723,Experiment,Both,1,Automatic,main,124,20251029-112316,global,local,300,S,S,A,E,S-A.png,E-S.png,sS,sS,mask-1.png,mask-2.png,s,1,0.7684416999109089,s,1,0.13750850001815706,0.047679999959655106,0.047637400100938976,0.09901429992169142,0.09983840002678335,0.2996314999181777
RSVPLG03,cs,20251029-110922,1.0.1,20251020-085245,723,Experiment,Both,1,Automatic,main,125,20251029-112321,local,local,300,S,S,E,E,E-S.png,E-S.png,sS,sS,mask-1.png,mask-2.png,s,1,0.5882431999780238,s,1,1.269280899898149,0.04846750001888722,0.04742880002595484,0.09994959994219244,0.09911670000292361,0.3012748999753967
RSVPLG03,cs,20251029-112419,1.0.1,20251020-085245,723,Experiment,Both,1,Automatic,warmup,1,20251029-112448,local,global,300,H,S,A,E,A-H.png,S-E.png,hH,sS,mask-3.png,mask-4.png,s,0,0.6890609000110999,s,1,0.08772940002381802,0.047011999995447695,0.04751499998383224,0.10122910002246499,0.09963650000281632,0.3006724000442773
RSVPLG03,cs,20251029-112419,1.0.1,20251020-085245,723,Experiment,Both,1,Automatic,warmup,2,20251029-112452,global,local,750,S,H,E,A,S-E.png,A-H.png,sS,hH,mask-1.png,mask-2.png,s,1,0.48157760000322014,h,1,0.17298520007170737,0.04890799999702722,0.04770330002065748,0.10020270000677556,0.09895580005832016,0.7500842999434099
RSVPLG03,cs,20251029-112419,1.0.1,20251020-085245,723,Experiment,Both,1,Automatic,warmup,3,20251029-112457,global,local,300,H,S,A,E,H-A.png,E-S.png,hH,sS,mask-2.png,mask-4.png,s,0,0.9923955999547616,h,0,1.1364724999293685,0.04757289995905012,0.04767020000144839,0.09923049993813038,0.099681599996984,0.29997429996728897
RSVPLG03,cs,20251029-112419,1.0.1,20251020-085245,723,Experiment,Both,1,Automatic,warmup,4,20251029-112502,local,global,750,S,H,E,A,E-S.png,H-A.png,sS,hH,mask-3.png,mask-1.png,s,1,0.7420921999728307,h,1,0.02272939996328205,0.04675480001606047,0.04669589991681278,0.09988360002171248,0.09972179995384067,0.7486362000927329
RSVPLG03,cs,20251029-112419,1.0.1,20251020-085245,723,Experiment,Both,1,Automatic,warmup,5,20251029-112507,global,global,750,H,H,E,A,H-E.png,H-A.png,hH,hH,mask-3.png,mask-2.png,h,1,0.6100211999146268,h,1,0.120236000046134,0.048019599984399974,0.04866900003980845,0.10017019999213517,0.09975829999893904,0.7493321999209002
RSVPLG03,cs,20251029-112419,1.0.1,20251020-085245,723,Experiment,Both,1,Automatic,main,6,20251029-112512,global,local,300,H,H,E,E,H-E.png,E-H.png,hH,hH,mask-3.png,mask-1.png,s,0,1.4934145000297576,h,1,0.8375152999069542,0.0475063999183476,0.048536699963733554,0.10152499994728714,0.1015433999709785,0.2997862999327481
RSVPLG03,cs,20251029-112419,1.0.1,20251020-085245,723,Experiment,Both,1,Automatic,main,7,20251029-112518,global,local,300,S,H,A,A,S-A.png,A-H.png,sS,hH,mask-4.png,mask-2.png,s,1,0.5994026999687776,s,0,0.18164399999659508,0.04642190004233271,0.046412200084887445,0.09926809999160469,0.09925910003948957,0.3000066999811679
RSVPLG03,cs,20251029-112419,1.0.1,20251020-085245,723,Experiment,Both,1,Automatic,main,8,20251029-112522,global,global,750,S,H,A,E,S-A.png,H-E.png,sS,hH,mask-1.png,mask-2.png,s,1,2.5239992999704555,h,1,0.04416240006685257,0.047521700034849346,0.04860900004860014,0.09959220001474023,0.10064820002298802,0.7487284999806434
RSVPLG03,cs,20251029-112419,1.0.1,20251020-085245,723,Experiment,Both,1,Automatic,main,9,20251029-112529,global,local,300,S,S,A,A,S-A.png,A-S.png,sS,sS,mask-2.png,mask-3.png,s,1,0.5529827000573277,s,1,0.09904670005198568,0.04556210001464933,0.0483583000022918,0.09961040003690869,0.09956790006253868,0.29789859999436885
RSVPLG03,cs,20251029-112419,1.0.1,20251020-085245,723,Experiment,Both,1,Automatic,main,10,20251029-112533,global,global,300,H,H,E,A,H-E.png,H-A.png,hH,hH,mask-2.png,mask-2.png,h,1,0.5722686999943107,s,0,0.06948349997401237,0.04768289998173714,0.04724500002339482,0.10183709999546409,0.09932090004440397,0.3011911000357941
RSVPLG03,cs,20251029-112419,1.0.1,20251020-085245,723,Experiment,Both,1,Automatic,main,11,20251029-112538,local,local,750,S,H,A,E,A-S.png,E-H.png,sS,hH,mask-3.png,mask-3.png,h,0,1.0232710000127554,h,1,0.33738659997470677,0.04751330008730292,0.04753250000067055,0.0995464000152424,0.0995581999886781,0.750041100080125
RSVPLG03,cs,20251029-112419,1.0.1,20251020-085245,723,Experiment,Both,1,Automatic,main,12,20251029-112543,global,global,750,S,S,A,E,S-A.png,S-E.png,sS,sS,mask-4.png,mask-3.png,s,1,0.6170495999976993,s,1,0.19939509988762438,0.04769889998715371,0.04666599992197007,0.09988829994108528,0.09984079992864281,0.7503491999814287
RSVPLG03,cs,20251029-112419,1.0.1,20251020-085245,723,Experiment,Both,1,Automatic,main,13,20251029-112548,local,local,300,S,S,E,E,E-S.png,E-S.png,sS,sS,mask-2.png,mask-1.png,s,1,0.6485018000239506,s,1,0.10887840006034821,0.047726299962960184,0.04767860006541014,0.09993279993068427,0.09987390006426722,0.2997200998943299
RSVPLG03,cs,20251029-112419,1.0.1,20251020-085245,723,Experiment,Both,1,Automatic,main,14,20251029-112552,local,global,750,H,S,A,A,A-H.png,S-A.png,hH,sS,mask-1.png,mask-1.png,s,0,0.932847399963066,h,0,0.028722999966703355,0.04672250000294298,0.04650289996061474,0.09982230002060533,0.10056419996544719,0.7486558000091463
RSVPLG03,cs,20251029-112419,1.0.1,20251020-085245,723,Experiment,Both,1,Automatic,main,15,20251029-112558,global,global,300,H,H,A,E,H-A.png,H-E.png,hH,hH,mask-3.png,mask-3.png,h,1,0.7998554999940097,h,1,0.1558292000554502,0.04724970005918294,0.0475208000279963,0.0982578000985086,0.10052750003524125,0.2979328000219539
RSVPLG03,cs,20251029-112419,1.0.1,20251020-085245,723,Experiment,Both,1,Automatic,main,16,20251029-112602,local,global,750,S,S,A,A,A-S.png,S-A.png,sS,sS,mask-2.png,mask-2.png,h,0,0.5728059000102803,h,0,0.17276340001262724,0.04554790002293885,0.04755780007690191,0.09854410006664693,0.10056559997610748,0.7477493999758735
RSVPLG03,cs,20251029-112419,1.0.1,20251020-085245,723,Experiment,Both,1,Automatic,main,17,20251029-112607,local,local,750,S,H,A,A,A-S.png,A-H.png,sS,hH,mask-2.png,mask-2.png,s,1,0.5297978000016883,s,0,0.11189039994496852,0.046640099957585335,0.045705299940891564,0.1010087999748066,0.09926789999008179,0.7505251000402495
RSVPLG03,cs,20251029-112419,1.0.1,20251020-085245,723,Experiment,Both,1,Automatic,main,18,20251029-112612,global,global,750,S,S,E,A,S-E.png,S-A.png,sS,sS,mask-2.png,mask-2.png,h,0,0.479803099995479,s,1,0.0177774999756366,0.047758899978362024,0.04673980001825839,0.1000718999421224,0.09992199996486306,0.7500866999616846
RSVPLG03,cs,20251029-112419,1.0.1,20251020-085245,723,Experiment,Both,1,Automatic,main,19,20251029-112616,global,local,300,H,S,E,E,H-E.png,E-S.png,hH,sS,mask-4.png,mask-2.png,s,0,0.7028693999163806,s,1,0.12670939997769892,0.04751399997621775,0.04753579990938306,0.10053309996146709,0.0996309999609366,0.29983070003800094
RSVPLG03,cs,20251029-112419,1.0.1,20251020-085245,723,Experiment,Both,1,Automatic,main,20,20251029-112621,global,local,750,S,H,E,E,S-E.png,E-H.png,sS,hH,mask-3.png,mask-1.png,h,0,0.9850520000327379,h,1,0.5081654000096023,0.04850939998868853,0.04551900003571063,0.10153520002495497,0.09852690005209297,0.7515527999494225
RSVPLG03,cs,20251029-112419,1.0.1,20251020-085245,723,Experiment,Both,1,Automatic,main,21,20251029-112627,local,local,750,H,H,E,E,E-H.png,E-H.png,hH,hH,mask-3.png,mask-4.png,s,0,1.7140655999537557,h,1,0.3799222999950871,0.04668269993271679,0.046724600018933415,0.10089309990871698,0.0997133000055328,0.7494085999205709
RSVPLG03,cs,20251029-112419,1.0.1,20251020-085245,723,Experiment,Both,1,Automatic,main,22,20251029-112633,local,global,300,H,S,E,A,E-H.png,S-A.png,hH,sS,mask-2.png,mask-1.png,s,0,0.6433405999559909,h,0,0.602121299947612,0.04768960003275424,0.04751220007892698,0.09985959995537996,0.10069019999355078,0.2992847999557853
RSVPLG03,cs,20251029-112419,1.0.1,20251020-085245,723,Experiment,Both,1,Automatic,main,23,20251029-112638,local,local,750,H,S,A,A,A-H.png,A-S.png,hH,sS,mask-4.png,mask-4.png,h,1,0.5842648000689223,s,1,0.02129800000693649,0.04569399997126311,0.047696599969640374,0.09993620007298887,0.09988570003770292,0.7476494000293314
RSVPLG03,cs,20251029-112419,1.0.1,20251020-085245,723,Experiment,Both,1,Automatic,main,24,20251029-112643,local,global,750,H,S,A,A,A-H.png,S-A.png,hH,sS,mask-1.png,mask-4.png,h,1,0.991286400007084,s,1,0.1778864999068901,0.04877529991790652,0.04768429999239743,0.10099119995720685,0.09888779988978058,0.7506263999966905
RSVPLG03,cs,20251029-112419,1.0.1,20251020-085245,723,Experiment,Both,1,Automatic,main,25,20251029-112648,local,local,750,H,H,A,E,A-H.png,E-H.png,hH,hH,mask-1.png,mask-3.png,h,1,0.5631714999908581,h,1,0.1531918999971822,0.04768270009662956,0.047692300053313375,0.0998757000779733,0.10056050005368888,0.7500452999956906
RSVPLG03,cs,20251029-112419,1.0.1,20251020-085245,723,Experiment,Both,1,Automatic,main,26,20251029-112738,local,global,300,H,S,E,A,E-H.png,S-A.png,hH,sS,mask-3.png,mask-1.png,h,1,0.8741604000097141,s,1,0.9391683000139892,0.04669250000733882,0.04767770005855709,0.10009120008908212,0.09994830004870892,0.2997013999847695
RSVPLG03,cs,20251029-112419,1.0.1,20251020-085245,723,Experiment,Both,1,Automatic,main,27,20251029-112743,global,global,300,S,S,A,A,S-A.png,S-A.png,sS,sS,mask-2.png,mask-2.png,s,1,0.874442300060764,s,1,0.09140390006359667,0.04772789997514337,0.0474903000285849,0.09881719993427396,0.09938400005921721,0.2991697998950258
RSVPLG03,cs,20251029-112419,1.0.1,20251020-085245,723,Experiment,Both,1,Automatic,main,28,20251029-112748,global,global,300,H,S,A,A,H-A.png,S-A.png,hH,sS,mask-4.png,mask-1.png,h,1,0.5309104999760166,s,1,0.10892869997769594,0.04892590001691133,0.04659949999768287,0.10051820008084178,0.09964779997244477,0.3017938000848517
RSVPLG03,cs,20251029-112419,1.0.1,20251020-085245,723,Experiment,Both,1,Automatic,main,29,20251029-112752,global,local,300,S,H,E,E,S-E.png,E-H.png,sS,hH,mask-1.png,mask-4.png,s,1,0.5938158000353724,s,0,0.36490869999397546,0.04760419996455312,0.048781300080008805,0.09967510006390512,0.10126020002644509,0.2979580999817699
RSVPLG03,cs,20251029-112419,1.0.1,20251020-085245,723,Experiment,Both,1,Automatic,main,30,20251029-112757,local,local,300,S,S,E,E,E-S.png,E-S.png,sS,sS,mask-2.png,mask-1.png,s,1,0.9053718999493867,s,1,0.08678439992945641,0.047552499920129776,0.04655540001112968,0.10106459993403405,0.09998380008619279,0.3014210999244824
RSVPLG03,cs,20251029-112419,1.0.1,20251020-085245,723,Experiment,Both,1,Automatic,main,31,20251029-112802,global,local,750,H,H,E,E,H-E.png,E-H.png,hH,hH,mask-3.png,mask-2.png,h,1,0.5173609999474138,s,0,0.04047440004069358,0.04553290002513677,0.04750820004846901,0.09853620000649244,0.09956190001685172,0.7484719000058249
RSVPLG03,cs,20251029-112419,1.0.1,20251020-085245,723,Experiment,Both,1,Automatic,main,32,20251029-112806,local,local,750,S,H,A,E,A-S.png,E-H.png,sS,hH,mask-3.png,mask-3.png,s,1,1.0823553999653086,s,0,0.42711519997101277,0.04779840004630387,0.047673000022768974,0.10154439997859299,0.09984380006790161,0.7499681999906898
RSVPLG03,cs,20251029-112419,1.0.1,20251020-085245,723,Experiment,Both,1,Automatic,main,33,20251029-112812,global,local,750,S,S,E,E,S-E.png,E-S.png,sS,sS,mask-4.png,mask-2.png,s,1,0.6430060000857338,s,1,0.13725859997794032,0.04653679998591542,0.046580799971707165,0.09955269994679838,0.10013279994018376,0.7491929000243545
RSVPLG03,cs,20251029-112419,1.0.1,20251020-085245,723,Experiment,Both,1,Automatic,main,34,20251029-112817,global,local,300,H,S,E,A,H-E.png,A-S.png,hH,sS,mask-2.png,mask-2.png,h,1,1.181757100042887,h,0,0.14699149993248284,0.04556939995381981,0.047543699969537556,0.09963519999291748,0.1016061999835074,0.2980684000067413
RSVPLG03,cs,20251029-112419,1.0.1,20251020-085245,723,Experiment,Both,1,Automatic,main,35,20251029-112822,local,global,300,S,H,A,E,A-S.png,H-E.png,sS,hH,mask-4.png,mask-2.png,s,1,0.61953129991889,h,1,0.7475470000645146,0.047524599940516055,0.046545600052922964,0.10156370000913739,0.09954450000077486,0.30092249996960163
RSVPLG03,cs,20251029-112419,1.0.1,20251020-085245,723,Experiment,Both,1,Automatic,main,36,20251029-112827,local,global,750,H,H,A,A,A-H.png,H-A.png,hH,hH,mask-4.png,mask-3.png,h,1,1.1662688000360504,h,1,0.13862910005263984,0.04751510010100901,0.04752389993518591,0.10153840004932135,0.10152179992292076,0.7497197000775486
RSVPLG03,cs,20251029-112419,1.0.1,20251020-085245,723,Experiment,Both,1,Automatic,main,37,20251029-112833,local,local,300,H,S,A,A,A-H.png,A-S.png,hH,sS,mask-2.png,mask-1.png,h,1,1.0430268999189138,h,0,0.184677500044927,0.047109800041653216,0.04731970001012087,0.10019190004095435,0.10136380000039935,0.2996385999722406
RSVPLG03,cs,20251029-112419,1.0.1,20251020-085245,723,Experiment,Both,1,Automatic,main,38,20251029-112838,global,global,300,S,S,E,E,S-E.png,S-E.png,sS,sS,mask-2.png,mask-3.png,s,1,0.48662009998224676,s,1,0.08946699998341501,0.04651599994394928,0.0475716000655666,0.09953190002124757,0.10158939997199923,0.29777379997540265
RSVPLG03,cs,20251029-112419,1.0.1,20251020-085245,723,Experiment,Both,1,Automatic,main,39,20251029-112842,local,local,750,S,S,E,A,E-S.png,A-S.png,sS,sS,mask-2.png,mask-2.png,s,1,0.48256759997457266,s,1,0.18533729994669557,0.04651060001924634,0.04851839994080365,0.09970530006103218,0.09964779997244477,0.7490033000940457
RSVPLG03,cs,20251029-112419,1.0.1,20251020-085245,723,Experiment,Both,1,Automatic,main,40,20251029-112847,local,local,750,S,H,E,E,E-S.png,E-H.png,sS,hH,mask-3.png,mask-2.png,s,1,0.560642599943094,h,1,0.09825989999808371,0.04761780006811023,0.04752719996031374,0.10181370005011559,0.09857469995040447,0.7511286000953987
RSVPLG03,cs,20251029-112419,1.0.1,20251020-085245,723,Experiment,Both,1,Automatic,main,41,20251029-112852,local,global,750,H,H,E,E,E-H.png,H-E.png,hH,hH,mask-4.png,mask-2.png,h,1,0.5584864999400452,s,0,0.05680830008350313,0.04871190001722425,0.045677100075408816,0.10091839998494834,0.09890350000932813,0.7509228999260813
RSVPLG03,cs,20251029-112419,1.0.1,20251020-085245,723,Experiment,Both,1,Automatic,main,42,20251029-112857,global,local,300,H,S,A,E,H-A.png,E-S.png,hH,sS,mask-3.png,mask-2.png,h,1,0.9625388999702409,s,1,0.04364639997947961,0.047712699975818396,0.04870149993803352,0.10091460007242858,0.09998019994236529,0.29923630005214363
RSVPLG03,cs,20251029-112419,1.0.1,20251020-085245,723,Experiment,Both,1,Automatic,main,43,20251029-112901,global,local,300,H,S,A,E,H-A.png,E-S.png,hH,sS,mask-1.png,mask-1.png,h,1,0.7182648000307381,s,1,0.007275799987837672,0.04770869994536042,0.047501299995929,0.09970849996898323,0.09935060003772378,0.3009666999569163
RSVPLG03,cs,20251029-112419,1.0.1,20251020-085245,723,Experiment,Both,1,Automatic,main,44,20251029-112906,global,global,300,H,S,E,E,H-E.png,S-E.png,hH,sS,mask-4.png,mask-4.png,h,1,0.4929961001034826,s,1,0.06049399997573346,0.04764379991684109,0.046551299979910254,0.0997751000104472,0.10064459999557585,0.3001484000124037
RSVPLG03,cs,20251029-112419,1.0.1,20251020-085245,723,Experiment,Both,1,Automatic,main,45,20251029-112910,local,local,300,H,H,E,E,E-H.png,E-H.png,hH,hH,mask-4.png,mask-2.png,h,1,0.5767115000635386,h,1,0.18901900004129857,0.04650709999259561,0.048593000043183565,0.09965870005544275,0.1007457000669092,0.2982806999934837
RSVPLG03,cs,20251029-112419,1.0.1,20251020-085245,723,Experiment,Both,1,Automatic,main,46,20251029-112915,local,local,300,H,S,A,A,A-H.png,A-S.png,hH,sS,mask-4.png,mask-1.png,h,1,0.8926699000876397,h,0,0.1480851999949664,0.047532199998386204,0.047518900013528764,0.10054150002542883,0.09853660000953823,0.30011289997491986
RSVPLG03,cs,20251029-112419,1.0.1,20251020-085245,723,Experiment,Both,1,Automatic,main,47,20251029-112919,global,local,750,H,S,E,E,H-E.png,E-S.png,hH,sS,mask-4.png,mask-4.png,h,1,0.8303833999671042,s,1,0.07230750005692244,0.04789190005976707,0.047161699971184134,0.10008989996276796,0.09960720001254231,0.749728100025095
RSVPLG03,cs,20251029-112419,1.0.1,20251020-085245,723,Experiment,Both,1,Automatic,main,48,20251029-112924,global,local,750,H,S,A,E,H-A.png,E-S.png,hH,sS,mask-1.png,mask-1.png,h,1,0.660006600082852,s,1,0.03769350005313754,0.046677300008013844,0.04705549997743219,0.1005396000109613,0.10034430003724992,0.7491467000218108
RSVPLG03,cs,20251029-112419,1.0.1,20251020-085245,723,Experiment,Both,1,Automatic,main,49,20251029-112929,global,global,750,S,S,E,E,S-E.png,S-E.png,sS,sS,mask-2.png,mask-4.png,s,1,1.2817185999592766,s,1,0.12114229996223003,0.04772809997666627,0.04674470005556941,0.09996899997349828,0.09892610006500036,0.7509123999625444
RSVPLG03,cs,20251029-112419,1.0.1,20251020-085245,723,Experiment,Both,1,Automatic,main,50,20251029-112935,local,global,750,S,S,E,A,E-S.png,S-A.png,sS,sS,mask-4.png,mask-4.png,s,1,1.4446574000176042,s,1,0.10087599989492446,0.047684899996966124,0.04682869999669492,0.09988500003237277,0.10002690006513149,0.7506369999609888
RSVPLG03,cs,20251029-112419,1.0.1,20251020-085245,723,Experiment,Both,1,Automatic,main,51,20251029-112941,local,global,300,H,H,A,A,A-H.png,H-A.png,hH,hH,mask-3.png,mask-3.png,h,1,0.8028052999870852,h,1,0.17500839999411255,0.047051799949258566,0.04870669997762889,0.0995145000051707,0.09993010002654046,0.29824479995295405
RSVPLG03,cs,20251029-112419,1.0.1,20251020-085245,723,Experiment,Both,1,Automatic,main,52,20251029-112946,global,local,750,H,H,A,E,H-A.png,E-H.png,hH,hH,mask-4.png,mask-1.png,h,1,1.0286232999060303,s,0,0.07373659999575466,0.04776220000348985,0.04766350006684661,0.09977069997694343,0.09968600003048778,0.7496553999371827
RSVPLG03,cs,20251029-112419,1.0.1,20251020-085245,723,Experiment,Both,1,Automatic,main,53,20251029-112951,global,local,300,H,S,A,E,H-A.png,E-S.png,hH,sS,mask-2.png,mask-1.png,h,1,0.774531599949114,s,1,0.021692499984055758,0.04570140002761036,0.047825400019064546,0.10000380000565201,0.09901940007694066,0.2991059999912977
RSVPLG03,cs,20251029-112419,1.0.1,20251020-085245,723,Experiment,Both,1,Automatic,main,54,20251029-112956,global,local,300,S,S,E,E,S-E.png,E-S.png,sS,sS,mask-1.png,mask-1.png,s,1,0.9546697000041604,s,1,0.10600260004866868,0.047610600013285875,0.04577560001052916,0.1018747000489384,0.09891189995687455,0.30145770008675754
RSVPLG03,cs,20251029-112419,1.0.1,20251020-085245,723,Experiment,Both,1,Automatic,main,55,20251029-113001,local,global,300,H,S,E,A,E-H.png,S-A.png,hH,sS,mask-1.png,mask-1.png,s,0,0.9814523999812081,s,1,0.28138100006617606,0.04839660006109625,0.046875600004568696,0.10143430007155985,0.09897629998158664,0.3008297000778839
RSVPLG03,cs,20251029-112419,1.0.1,20251020-085245,723,Experiment,Both,1,Automatic,main,56,20251029-113006,global,global,750,S,S,A,A,S-A.png,S-A.png,sS,sS,mask-2.png,mask-4.png,s,1,0.45086510002147406,s,1,0.10252330009825528,0.04654140002094209,0.04853010002989322,0.09855949995107949,0.10153869993519038,0.7477537000086159
RSVPLG03,cs,20251029-112419,1.0.1,20251020-085245,723,Experiment,Both,1,Automatic,main,57,20251029-113010,local,global,750,H,S,E,A,E-H.png,S-A.png,hH,sS,mask-2.png,mask-3.png,s,0,1.2648565999697894,s,1,0.21656209998764098,0.04652650002390146,0.047522899927571416,0.10058139998000115,0.09854959999211133,0.7500642000231892
RSVPLG03,cs,20251029-112419,1.0.1,20251020-085245,723,Experiment,Both,1,Automatic,main,58,20251029-113016,global,local,750,H,H,A,E,H-A.png,E-H.png,hH,hH,mask-3.png,mask-2.png,h,1,0.9672131999395788,s,0,0.060542400111444294,0.04585410002619028,0.04779560002498329,0.09981100005097687,0.10190570005215704,0.7478312000166625
RSVPLG03,cs,20251029-112419,1.0.1,20251020-085245,723,Experiment,Both,1,Automatic,main,59,20251029-113021,global,global,300,H,S,E,A,H-E.png,S-A.png,hH,sS,mask-3.png,mask-3.png,h,1,1.4697317000245675,s,1,0.04319590004161,0.04755949997343123,0.04733449988998473,0.09963920002337545,0.10120809997897595,0.2979208000469953
RSVPLG03,cs,20251029-112419,1.0.1,20251020-085245,723,Experiment,Both,1,Automatic,main,60,20251029-113027,local,global,750,S,H,A,A,A-S.png,H-A.png,sS,hH,mask-2.png,mask-1.png,s,1,1.0875209999503568,h,1,0.08217079995665699,0.04671040002722293,0.04574299999512732,0.098456000094302,0.09989399998448789,0.7501886000391096
RSVPLG03,cs,20251029-112419,1.0.1,20251020-085245,723,Experiment,Both,1,Automatic,main,61,20251029-113032,global,global,750,H,H,A,E,H-A.png,H-E.png,hH,hH,mask-2.png,mask-1.png,s,0,0.8028261000290513,h,1,0.0007477999897673726,0.04573419992811978,0.04876270005479455,0.10001199995167553,0.10100020002573729,0.7482812999514863
RSVPLG03,cs,20251029-112419,1.0.1,20251020-085245,723,Experiment,Both,1,Automatic,main,62,20251029-113037,local,local,750,H,S,E,E,E-H.png,E-S.png,hH,sS,mask-1.png,mask-4.png,h,1,0.4902901001041755,s,1,0.16736850002780557,0.0479722999734804,0.047757300082594156,0.10127679992001504,0.09975779999513179,0.7495625999290496
RSVPLG03,cs,20251029-112419,1.0.1,20251020-085245,723,Experiment,Both,1,Automatic,main,63,20251029-113042,local,global,300,S,H,E,E,E-S.png,H-E.png,sS,hH,mask-3.png,mask-2.png,s,1,0.5829800999490544,h,1,0.04443620005622506,0.04655650001950562,0.04753480001818389,0.09957159997429699,0.1005924999481067,0.2998749000253156
RSVPLG03,cs,20251029-112419,1.0.1,20251020-085245,723,Experiment,Both,1,Automatic,main,64,20251029-113046,global,global,300,S,S,E,E,S-E.png,S-E.png,sS,sS,mask-2.png,mask-2.png,s,1,0.9416181999258697,s,1,0.11672330007422715,0.04862309992313385,0.04671669995877892,0.10164719994645566,0.1004458999959752,0.30071209999732673
RSVPLG03,cs,20251029-112419,1.0.1,20251020-085245,723,Experiment,Both,1,Automatic,main,65,20251029-113051,global,global,750,H,S,E,E,H-E.png,S-E.png,hH,sS,mask-3.png,mask-3.png,h,1,0.4631940999533981,h,0,0.1509193000383675,0.04880270001012832,0.04873749997932464,0.09996059990953654,0.09996809996664524,0.7499690999975428
RSVPLG03,cs,20251029-112419,1.0.1,20251020-085245,723,Experiment,Both,1,Automatic,main,66,20251029-113056,global,global,750,S,H,A,A,S-A.png,H-A.png,sS,hH,mask-3.png,mask-1.png,s,1,0.5528290000511333,h,1,0.016429799958132207,0.04769899998791516,0.047645000042393804,0.09994999994523823,0.09934509999584407,0.7497457999270409
RSVPLG03,cs,20251029-112419,1.0.1,20251020-085245,723,Experiment,Both,1,Automatic,main,67,20251029-113101,global,global,750,S,S,A,E,S-A.png,S-E.png,sS,sS,mask-3.png,mask-2.png,s,1,0.4894485999830067,s,1,0.11707189993467182,0.0477234999416396,0.04672340000979602,0.10145099996589124,0.09988430002704263,0.7499037999659777
RSVPLG03,cs,20251029-112419,1.0.1,20251020-085245,723,Experiment,Both,1,Automatic,main,68,20251029-113106,local,global,300,H,S,E,E,E-H.png,S-E.png,hH,sS,mask-2.png,mask-3.png,s,0,0.7807261999696493,s,1,0.12086779996752739,0.047531999996863306,0.04752550006378442,0.10069790005218238,0.0987916000885889,0.30006859998684376
RSVPLG03,cs,20251029-112419,1.0.1,20251020-085245,723,Experiment,Both,1,Automatic,main,69,20251029-113110,global,local,300,S,S,E,E,S-E.png,E-S.png,sS,sS,mask-3.png,mask-3.png,s,1,0.5008782000513747,s,1,0.12375449994578958,0.04869149997830391,0.045699500013142824,0.09994129999540746,0.0998929999768734,0.3015855000121519
RSVPLG03,cs,20251029-112419,1.0.1,20251020-085245,723,Experiment,Both,1,Automatic,main,70,20251029-113115,local,local,300,S,S,E,A,E-S.png,A-S.png,sS,sS,mask-1.png,mask-1.png,s,1,0.48541039996780455,s,1,0.13997379993088543,0.04709410003852099,0.04704390000551939,0.0991103999549523,0.09904510003980249,0.3000342999584973
RSVPLG03,cs,20251029-112419,1.0.1,20251020-085245,723,Experiment,Both,1,Automatic,main,71,20251029-113119,local,global,750,S,H,A,A,A-S.png,H-A.png,sS,hH,mask-2.png,mask-2.png,s,1,0.465129500022158,h,1,0.18724800006020814,0.046560199931263924,0.04655889992136508,0.0996082000201568,0.09876199997961521,0.7486883000237867
RSVPLG03,cs,20251029-112419,1.0.1,20251020-085245,723,Experiment,Both,1,Automatic,main,72,20251029-113124,local,global,300,S,S,E,E,E-S.png,S-E.png,sS,sS,mask-1.png,mask-2.png,s,1,0.49404979997780174,s,1,0.16855110006872565,0.04754659999161959,0.047751400037668645,0.10061780002433807,0.10000219999346882,0.2995624999748543
RSVPLG03,cs,20251029-112419,1.0.1,20251020-085245,723,Experiment,Both,1,Automatic,main,73,20251029-113128,local,global,300,S,H,E,E,E-S.png,H-E.png,sS,hH,mask-3.png,mask-3.png,s,1,0.6500681999605149,s,0,0.12603059993125498,0.04574470000807196,0.04870049993041903,0.09799609996844083,0.10079689999110997,0.29786789999343455
RSVPLG03,cs,20251029-112419,1.0.1,20251020-085245,723,Experiment,Both,1,Automatic,main,74,20251029-113133,local,global,300,H,S,E,A,E-H.png,S-A.png,hH,sS,mask-3.png,mask-3.png,s,0,0.5859890999272466,h,0,0.02876080002170056,0.04658760002348572,0.04769150004722178,0.09879600000567734,0.0999005000339821,0.29857919993810356
RSVPLG03,cs,20251029-112419,1.0.1,20251020-085245,723,Experiment,Both,1,Automatic,main,75,20251029-113137,global,local,750,S,S,E,A,S-E.png,A-S.png,sS,sS,mask-4.png,mask-1.png,s,1,0.6019211000530049,h,0,0.10522489994764328,0.04671679995954037,0.047506499919109046,0.09953130001667887,0.0994522999972105,0.7503230000147596
RSVPLG03,cs,20251029-112419,1.0.1,20251020-085245,723,Experiment,Both,1,Automatic,main,76,20251029-113144,global,local,750,H,S,E,A,H-E.png,A-S.png,hH,sS,mask-2.png,mask-2.png,h,1,0.5580214000074193,s,1,0.05496410001069307,0.04856540006585419,0.04549369995947927,0.10156820004340261,0.09856670000590384,0.751063400064595
RSVPLG03,cs,20251029-112419,1.0.1,20251020-085245,723,Experiment,Both,1,Automatic,main,77,20251029-113149,global,local,750,H,H,E,E,H-E.png,E-H.png,hH,hH,mask-4.png,mask-1.png,h,1,0.6862298999913037,s,0,0.10732129996176809,0.04755689995363355,0.04846849991008639,0.09853889991063625,0.1005814999807626,0.7477376000024378
RSVPLG03,cs,20251029-112419,1.0.1,20251020-085245,723,Experiment,Both,1,Automatic,main,78,20251029-113154,local,local,300,H,S,E,E,E-H.png,E-S.png,hH,sS,mask-2.png,mask-1.png,h,1,1.3113348999759182,s,1,0.1281586999539286,0.04657290002796799,0.04782370000611991,0.09975090005900711,0.10090299998410046,0.2977938000112772
RSVPLG03,cs,20251029-112419,1.0.1,20251020-085245,723,Experiment,Both,1,Automatic,main,79,20251029-113159,local,global,750,S,S,A,A,A-S.png,S-A.png,sS,sS,mask-2.png,mask-1.png,s,1,1.2920990999555215,h,0,0.23411510000005364,0.04653429996687919,0.046991300070658326,0.09973390004597604,0.10107850003987551,0.7485922999912873
RSVPLG03,cs,20251029-112419,1.0.1,20251020-085245,723,Experiment,Both,1,Automatic,main,80,20251029-113205,global,global,300,S,S,E,A,S-E.png,S-A.png,sS,sS,mask-3.png,mask-1.png,s,1,0.41685699997469783,s,1,0.1046218000119552,0.04726210003718734,0.0476956000784412,0.0984357000561431,0.09989050007425249,0.29810000001452863
RSVPLG03,cs,20251029-112419,1.0.1,20251020-085245,723,Experiment,Both,1,Automatic,main,81,20251029-113209,local,local,750,S,S,A,E,A-S.png,E-S.png,sS,sS,mask-2.png,mask-3.png,s,1,0.5220959999132901,s,1,0.10738399997353554,0.04768860002513975,0.04666619992349297,0.09989269997458905,0.09914740000385791,0.7502589999930933
RSVPLG03,cs,20251029-112419,1.0.1,20251020-085245,723,Experiment,Both,1,Automatic,main,82,20251029-113214,global,global,300,H,H,E,A,H-E.png,H-A.png,hH,hH,mask-2.png,mask-3.png,h,1,0.54194559995085,h,1,0.13717799994628876,0.04773690004367381,0.045712799998000264,0.10001600009854883,0.09887349989730865,0.30074160010553896
RSVPLG03,cs,20251029-112419,1.0.1,20251020-085245,723,Experiment,Both,1,Automatic,main,83,20251029-113218,global,global,750,S,S,E,E,S-E.png,S-E.png,sS,sS,mask-4.png,mask-3.png,s,1,0.5829525999724865,s,1,0.12166030006483197,0.04634450003504753,0.04751960001885891,0.0993583999807015,0.10053479997441173,0.7491969000548124
RSVPLG03,cs,20251029-112419,1.0.1,20251020-085245,723,Experiment,Both,1,Automatic,main,84,20251029-113223,local,local,300,H,H,A,A,A-H.png,A-H.png,hH,hH,mask-1.png,mask-4.png,h,1,1.0787914999527857,h,1,0.13369479996617883,0.04751639999449253,0.046537699992768466,0.09930240001995116,0.09856240008957684,0.2995470999740064
RSVPLG03,cs,20251029-112419,1.0.1,20251020-085245,723,Experiment,Both,1,Automatic,main,85,20251029-113228,global,global,300,H,H,A,A,H-A.png,H-A.png,hH,hH,mask-4.png,mask-4.png,h,1,1.2790099999401718,h,1,0.1363852999638766,0.04751800000667572,0.04753009998239577,0.10156540002208203,0.1015559999505058,0.29986610007472336
RSVPLG03,cs,20251029-112419,1.0.1,20251020-085245,723,Experiment,Both,1,Automatic,main,86,20251029-113233,global,local,750,S,H,A,E,S-A.png,E-H.png,sS,hH,mask-1.png,mask-1.png,s,1,1.2135201001074165,s,0,0.10840489994734526,0.04884750000201166,0.04757719999179244,0.1013281000778079,0.09960299998056144,0.7507066000252962
RSVPLG03,cs,20251029-112419,1.0.1,20251020-085245,723,Experiment,Both,1,Automatic,main,87,20251029-113239,local,local,750,H,H,E,E,E-H.png,E-H.png,hH,hH,mask-2.png,mask-3.png,h,1,0.4717827000422403,h,1,0.23602710000704974,0.04752639995422214,0.04851779993623495,0.09853590000420809,0.10055239999201149,0.7479066000087187
RSVPLG03,cs,20251029-112419,1.0.1,20251020-085245,723,Experiment,Both,1,Automatic,main,88,20251029-113244,local,global,750,H,S,A,E,A-H.png,S-E.png,hH,sS,mask-4.png,mask-3.png,h,1,0.8012181000085548,h,0,0.20387249998748302,0.046564600081183016,0.04651809995993972,0.09980359999462962,0.09854409995023161,0.7501759000588208
RSVPLG03,cs,20251029-112419,1.0.1,20251020-085245,723,Experiment,Both,1,Automatic,main,89,20251029-113249,local,local,300,S,H,E,A,E-S.png,A-H.png,sS,hH,mask-3.png,mask-4.png,h,0,1.5628616999601945,s,0,0.09921530005522072,0.04751299996860325,0.047496700077317655,0.09953510004561394,0.09934200008865446,0.2997747999615967
RSVPLG03,cs,20251029-112419,1.0.1,20251020-085245,723,Experiment,Both,1,Automatic,main,90,20251029-113254,global,local,300,H,H,E,E,H-E.png,E-H.png,hH,hH,mask-4.png,mask-1.png,h,1,1.0583428000099957,h,1,0.32757890003267676,0.047586699947714806,0.04747109999880195,0.10082469996996224,0.0994834000011906,0.301473299972713
RSVPLG03,cs,20251029-112419,1.0.1,20251020-085245,723,Experiment,Both,1,Automatic,main,91,20251029-113259,global,global,300,H,S,E,A,H-E.png,S-A.png,hH,sS,mask-3.png,mask-4.png,h,1,1.7991781000746414,s,1,0.1558841000078246,0.04781539994291961,0.04772560007404536,0.09998940001241863,0.09991059999447316,0.30022879992611706
RSVPLG03,cs,20251029-112419,1.0.1,20251020-085245,723,Experiment,Both,1,Automatic,main,92,20251029-113305,local,global,300,S,H,E,E,E-S.png,H-E.png,sS,hH,mask-4.png,mask-1.png,s,1,0.625800900044851,s,0,0.11893909994978458,0.045590000110678375,0.04773909994401038,0.09984470007475466,0.0999854999827221,0.2995602000737563
RSVPLG03,cs,20251029-112419,1.0.1,20251020-085245,723,Experiment,Both,1,Automatic,main,93,20251029-113310,local,global,750,S,H,A,E,A-S.png,H-E.png,sS,hH,mask-2.png,mask-2.png,h,0,0.7786878000479192,h,1,0.511576300021261,0.04665439995005727,0.047278699930757284,0.09878269990440458,0.09801529999822378,0.7494622999802232
RSVPLG03,cs,20251029-112419,1.0.1,20251020-085245,723,Experiment,Both,1,Automatic,main,94,20251029-113315,global,local,300,S,S,E,A,S-E.png,A-S.png,sS,sS,mask-1.png,mask-3.png,s,1,0.6317760000238195,s,1,0.07753780006896704,0.04758530005346984,0.04672260000370443,0.10168930003419518,0.0989695000462234,0.3008748999563977
RSVPLG03,cs,20251029-112419,1.0.1,20251020-085245,723,Experiment,Both,1,Automatic,main,95,20251029-113319,local,local,300,S,S,A,A,A-S.png,A-S.png,sS,sS,mask-3.png,mask-4.png,s,1,0.43352299998514354,s,1,0.09861119999550283,0.04771539999637753,0.04672220000065863,0.10099039995111525,0.0989430999616161,0.30069449997972697
RSVPLG03,cs,20251029-112419,1.0.1,20251020-085245,723,Experiment,Both,1,Automatic,main,96,20251029-113324,local,global,300,S,H,E,E,E-S.png,H-E.png,sS,hH,mask-4.png,mask-4.png,s,1,0.45385649998206645,s,0,0.11532510002143681,0.0468554999679327,0.04770340002141893,0.10007819999009371,0.09941050002817065,0.2999030000064522
RSVPLG03,cs,20251029-112419,1.0.1,20251020-085245,723,Experiment,Both,1,Automatic,main,97,20251029-113328,local,local,300,H,S,A,A,A-H.png,A-S.png,hH,sS,mask-1.png,mask-2.png,h,1,0.3443075999384746,h,0,0.2330557000823319,0.048782499972730875,0.04773749993182719,0.1017840999411419,0.0986515999538824,0.3013588000321761
RSVPLG03,cs,20251029-112419,1.0.1,20251020-085245,723,Experiment,Both,1,Automatic,main,98,20251029-113332,local,local,750,S,H,E,E,E-S.png,E-H.png,sS,hH,mask-1.png,mask-2.png,s,1,0.4794553999090567,h,1,0.08518790011294186,0.046416299999691546,0.0465473000658676,0.10048680007457733,0.0985729000531137,0.7495128000155091
RSVPLG03,cs,20251029-112419,1.0.1,20251020-085245,723,Experiment,Both,1,Automatic,main,99,20251029-113337,local,local,750,H,S,E,E,E-H.png,E-S.png,hH,sS,mask-1.png,mask-3.png,h,1,0.3848598999902606,s,1,0.09041050006635487,0.04757579998113215,0.04855179996229708,0.10028200002852827,0.10058989992830902,0.7487062000436708
RSVPLG03,cs,20251029-112419,1.0.1,20251020-085245,723,Experiment,Both,1,Automatic,main,100,20251029-113342,local,local,300,S,S,E,A,E-S.png,A-S.png,sS,sS,mask-3.png,mask-2.png,s,1,0.4022093000821769,s,1,0.09451810002792627,0.047621400095522404,0.04758179991040379,0.10064509999938309,0.09959110000636429,0.29991160007193685
RSVPLG03,cs,20251029-112419,1.0.1,20251020-085245,723,Experiment,Both,1,Automatic,main,101,20251029-113348,global,global,750,H,S,A,A,H-A.png,S-A.png,hH,sS,mask-4.png,mask-4.png,h,1,0.5013316000113264,s,1,0.044380699982866645,0.048587199999019504,0.04887689999304712,0.09942530002444983,0.1006741999881342,0.7494930999819189
RSVPLG03,cs,20251029-112419,1.0.1,20251020-085245,723,Experiment,Both,1,Automatic,main,102,20251029-113352,global,local,750,H,S,A,A,H-A.png,A-S.png,hH,sS,mask-1.png,mask-2.png,h,1,0.38581600005272776,h,0,0.1354612000286579,0.04751520010177046,0.04689690005034208,0.10042700008489192,0.09996459993999451,0.7495934000471607
RSVPLG03,cs,20251029-112419,1.0.1,20251020-085245,723,Experiment,Both,1,Automatic,main,103,20251029-113357,global,local,750,H,H,E,A,H-E.png,A-H.png,hH,hH,mask-3.png,mask-1.png,s,0,0.7146210999926552,h,1,0.04480670008342713,0.04762889991980046,0.04755059990566224,0.10179969994351268,0.09956759994383901,0.7511051000328735
RSVPLG03,cs,20251029-112419,1.0.1,20251020-085245,723,Experiment,Both,1,Automatic,main,104,20251029-113402,local,local,750,H,H,E,E,E-H.png,E-H.png,hH,hH,mask-3.png,mask-4.png,h,1,0.3826723999809474,h,1,0.22067880001850426,0.04675149999093264,0.04686160001438111,0.09894830000121146,0.09907819994259626,0.7485462999902666
RSVPLG03,cs,20251029-112419,1.0.1,20251020-085245,723,Experiment,Both,1,Automatic,main,105,20251029-113407,global,global,300,S,H,E,E,S-E.png,H-E.png,sS,hH,mask-1.png,mask-3.png,s,1,0.6197558999992907,h,1,0.10274850006680936,0.04768000007607043,0.046659700106829405,0.10168490000069141,0.0998456000816077,0.3005123999901116
RSVPLG03,cs,20251029-112419,1.0.1,20251020-085245,723,Experiment,Both,1,Automatic,main,106,20251029-113412,local,local,750,S,H,E,A,E-S.png,A-H.png,sS,hH,mask-2.png,mask-3.png,s,1,0.5942717000143602,s,0,0.11368559999391437,0.047681900090537965,0.045678900089114904,0.10088600008748472,0.09987959999125451,0.7503359999973327
RSVPLG03,cs,20251029-112419,1.0.1,20251020-085245,723,Experiment,Both,1,Automatic,main,107,20251029-113417,local,global,750,H,H,E,A,E-H.png,H-A.png,hH,hH,mask-2.png,mask-4.png,h,1,0.47014009999111295,h,1,0.12387029989622533,0.04878019995521754,0.04749529995024204,0.09997870004735887,0.09968959994148463,0.7499748000409454
RSVPLG03,cs,20251029-112419,1.0.1,20251020-085245,723,Experiment,Both,1,Automatic,main,108,20251029-113421,local,global,300,H,H,E,E,E-H.png,H-E.png,hH,hH,mask-3.png,mask-3.png,h,1,0.4920469999779016,h,1,0.133765299920924,0.04749400005675852,0.04655550001189113,0.10047180007677525,0.10058450000360608,0.29977200005669147
RSVPLG03,cs,20251029-112419,1.0.1,20251020-085245,723,Experiment,Both,1,Automatic,main,109,20251029-113426,local,global,300,H,S,A,A,A-H.png,S-A.png,hH,sS,mask-1.png,mask-4.png,h,1,0.6516329000005499,h,0,0.23640910000540316,0.046367499977350235,0.046604600036516786,0.09827730001416057,0.09932189993560314,0.2993409000337124
RSVPLG03,cs,20251029-112419,1.0.1,20251020-085245,723,Experiment,Both,1,Automatic,main,110,20251029-113430,local,local,300,S,H,E,E,E-S.png,E-H.png,sS,hH,mask-1.png,mask-3.png,s,1,0.4430579000618309,h,1,0.1570517000509426,0.047724800067953765,0.048868400044739246,0.09994089999236166,0.10116770002059639,0.29908310004975647
RSVPLG03,cs,20251029-112419,1.0.1,20251020-085245,723,Experiment,Both,1,Automatic,main,111,20251029-113435,local,global,300,H,H,A,A,A-H.png,H-A.png,hH,hH,mask-2.png,mask-3.png,h,1,0.5483776000328362,h,1,0.1723661000141874,0.04573100002016872,0.045735100051388144,0.09895789995789528,0.09877919999416918,0.29966789996251464
RSVPLG03,cs,20251029-112419,1.0.1,20251020-085245,723,Experiment,Both,1,Automatic,main,112,20251029-113439,local,local,300,S,S,E,A,E-S.png,A-S.png,sS,sS,mask-2.png,mask-4.png,s,1,0.4856331000337377,s,1,0.09849340002983809,0.04758220002986491,0.04755509993992746,0.09998890000861138,0.09928860003128648,0.3003012000117451
RSVPLG03,cs,20251029-112419,1.0.1,20251020-085245,723,Experiment,Both,1,Automatic,main,113,20251029-113443,global,local,300,H,H,E,E,H-E.png,E-H.png,hH,hH,mask-4.png,mask-1.png,s,0,0.9482875000685453,s,0,0.1602079999865964,0.048719100072048604,0.04757980001159012,0.0999312000349164,0.09867279999889433,0.30149089999031276
RSVPLG03,cs,20251029-112419,1.0.1,20251020-085245,723,Experiment,Both,1,Automatic,main,114,20251029-113448,global,global,750,S,H,A,E,S-A.png,H-E.png,sS,hH,mask-1.png,mask-4.png,s,1,0.9105001999996603,h,1,0.01276690000668168,0.04858930001500994,0.048518799943849444,0.1016177999554202,0.10157239995896816,0.7498987000435591
