exp,exp_initials,runtime,ver,modtime,sub,blocktype,targets,cuetype,mode,trialtype,trial,trialtime,t1_level,t2_level,t2_lag,t1,t2,distractor1,distractor2,stimfile1,stimfile2,t1_corr,t2_corr,maskfile1,maskfile2,t1_resp,t1_acc,t1_rt,t2_resp,t2_acc,t2_rt,t1_dur,t2_dur,t1mask_soa,t2mask_soa,t1t2_soa
RSVPLG03,sg,20251104-141527,1.0.1,20251020-085245,736,Introduction,T1,1,Automatic,main,1,20251104-141558,global,local,750,H,S,E,E,H-E.png,E-S.png,hH,sS,mask-2.png,mask-2.png,h,1,2.0327463999856263,none,-5,0,0.09859000006690621,0.097491699969396,0.20057009998708963,0.1995381999295205,0.7510162000544369
RSVPLG03,sg,20251104-141527,1.0.1,20251020-085245,736,Introduction,T1,1,Automatic,main,2,20251104-141604,local,global,750,H,S,A,E,A-H.png,S-E.png,hH,sS,mask-1.png,mask-1.png,h,1,0.9739027000032365,none,-5,0,0.09754330012947321,0.09666769998148084,0.1995745999738574,0.19961049989797175,0.7504579001106322
RSVPLG03,sg,20251104-141527,1.0.1,20251020-085245,736,Introduction,T1,1,Automatic,main,3,20251104-141610,global,local,750,S,H,A,E,S-A.png,E-H.png,sS,hH,mask-1.png,mask-1.png,s,1,0.7575362999923527,none,-5,0,0.09736789995804429,0.09742679982446134,0.20024270005524158,0.200288699939847,0.7501342000905424
RSVPLG03,sg,20251104-141527,1.0.1,20251020-085245,736,Introduction,T1,1,Automatic,main,4,20251104-141614,global,global,750,H,H,E,A,H-E.png,H-A.png,hH,hH,mask-4.png,mask-4.png,h,1,0.7952858000062406,none,-5,0,0.09699949994683266,0.09761400008574128,0.19914170005358756,0.19958469993434846,0.7504815000575036
RSVPLG03,sg,20251104-141527,1.0.1,20251020-085245,736,Introduction,T1,1,Automatic,main,5,20251104-141619,local,local,750,H,H,A,E,A-H.png,E-H.png,hH,hH,mask-2.png,mask-1.png,s,0,0.7423803999554366,none,-5,0,0.09739420004189014,0.0973772001452744,0.20026579988189042,0.20026300009340048,0.7499330998398364
RSVPLG03,sg,20251104-141527,1.0.1,20251020-085245,736,Introduction,T1,1,Automatic,main,6,20251104-141624,global,local,750,H,S,A,A,H-A.png,A-S.png,hH,sS,mask-4.png,mask-1.png,h,1,0.6089323998894542,none,-5,0,0.09743530000559986,0.09588979999534786,0.19942029984667897,0.1998512998688966,0.7502508999314159
RSVPLG03,sg,20251104-141527,1.0.1,20251020-085245,736,Introduction,T1,1,Automatic,main,7,20251104-141629,local,global,750,S,S,A,A,A-S.png,S-A.png,sS,sS,mask-1.png,mask-4.png,s,1,0.473637199960649,none,-5,0,0.09626630018465221,0.09748969995416701,0.19918220001272857,0.19918660004623234,0.7504008000250906
RSVPLG03,sg,20251104-141527,1.0.1,20251020-085245,736,Introduction,T1,1,Automatic,main,8,20251104-141634,local,local,750,H,H,A,E,A-H.png,E-H.png,hH,hH,mask-1.png,mask-2.png,h,1,0.5797285998705775,none,-5,0,0.09737790003418922,0.09739920007996261,0.20029280008748174,0.1992778000421822,0.749820000026375
RSVPLG03,sg,20251104-141527,1.0.1,20251020-085245,736,Introduction,T1,1,Automatic,main,9,20251104-141638,local,global,750,H,H,E,A,E-H.png,H-A.png,hH,hH,mask-1.png,mask-4.png,h,1,0.5323435999453068,none,-5,0,0.09947929996997118,0.09695629985071719,0.2009703000076115,0.19828019989654422,0.7518164000939578
RSVPLG03,sg,20251104-141527,1.0.1,20251020-085245,736,Introduction,T1,1,Automatic,main,10,20251104-141643,global,global,750,S,S,E,E,S-E.png,S-E.png,sS,sS,mask-1.png,mask-4.png,s,1,0.40666820015758276,none,-5,0,0.0974485999904573,0.09571149991825223,0.19934980012476444,0.19973209989257157,0.7503766000736505
RSVPLG03,sg,20251104-141527,1.0.1,20251020-085245,736,Introduction,T1,1,Automatic,main,11,20251104-141648,global,local,750,H,H,E,E,H-E.png,E-H.png,hH,hH,mask-1.png,mask-1.png,h,1,0.5227723000571132,none,-5,0,0.09753449982963502,0.0957400999031961,0.1994737999048084,0.19990319991484284,0.7497501999605447
RSVPLG03,sg,20251104-141527,1.0.1,20251020-085245,736,Introduction,T1,1,Automatic,main,12,20251104-141652,local,local,750,S,S,A,E,A-S.png,E-S.png,sS,sS,mask-3.png,mask-3.png,s,1,0.37580809998326004,none,-5,0,0.09759859996847808,0.09601840004324913,0.1997154001146555,0.20002089999616146,0.7496718999464065
RSVPLG03,sg,20251104-141527,1.0.1,20251020-085245,736,Introduction,T1,1,Automatic,main,13,20251104-141657,local,global,750,H,H,A,A,A-H.png,H-A.png,hH,hH,mask-4.png,mask-2.png,h,1,0.4018633000086993,none,-5,0,0.09859239985235035,0.09737319988198578,0.20048370002768934,0.20025109988637269,0.7502454000059515
RSVPLG03,sg,20251104-141527,1.0.1,20251020-085245,736,Introduction,T1,1,Automatic,main,14,20251104-141701,global,global,750,H,H,E,A,H-E.png,H-A.png,hH,hH,mask-3.png,mask-3.png,h,1,0.3647410001140088,none,-5,0,0.0983625000808388,0.09833940002135932,0.2012538001872599,0.20122879999689758,0.7500845000613481
RSVPLG03,sg,20251104-141527,1.0.1,20251020-085245,736,Introduction,T1,1,Automatic,main,15,20251104-141706,global,global,750,S,H,A,E,S-A.png,H-E.png,sS,hH,mask-1.png,mask-3.png,s,1,0.6027414000127465,none,-5,0,0.09757929993793368,0.09845570009201765,0.19806590001098812,0.20056410017423332,0.7495452999137342
RSVPLG03,sg,20251104-141527,1.0.1,20251020-085245,736,Introduction,T1,1,Automatic,main,16,20251104-141710,local,local,750,H,S,E,E,E-H.png,E-S.png,hH,sS,mask-4.png,mask-1.png,h,1,0.4053015001118183,none,-5,0,0.09754119999706745,0.09753070003353059,0.20067779999226332,0.199569100048393,0.7519515000749379
RSVPLG03,sg,20251104-141728,1.0.1,20251020-085245,736,Practice,T1,1,Automatic,main,1,20251104-141756,global,local,750,S,H,A,A,S-A.png,A-H.png,sS,hH,mask-4.png,mask-2.png,s,1,0.5347657999955118,none,-5,0,0.04612109996378422,0.04839870007708669,0.10014130012132227,0.10045550018548965,0.7495953999459743
RSVPLG03,sg,20251104-141728,1.0.1,20251020-085245,736,Practice,T1,1,Automatic,main,2,20251104-141800,global,local,300,H,H,E,A,H-E.png,A-H.png,hH,hH,mask-3.png,mask-2.png,h,1,0.3984550000168383,none,-5,0,0.0468601998873055,0.04775250004604459,0.09892269992269576,0.10004379996098578,0.29959680000320077
RSVPLG03,sg,20251104-141728,1.0.1,20251020-085245,736,Practice,T1,1,Automatic,main,3,20251104-141804,global,global,750,H,H,E,E,H-E.png,H-E.png,hH,hH,mask-4.png,mask-3.png,h,1,0.3983736000955105,none,-5,0,0.047561899991706014,0.04670930001884699,0.10077550006099045,0.10004650009796023,0.7520948001183569
RSVPLG03,sg,20251104-141728,1.0.1,20251020-085245,736,Practice,T1,1,Automatic,main,4,20251104-141809,local,local,300,H,S,A,A,A-H.png,A-S.png,hH,sS,mask-4.png,mask-2.png,s,0,0.5156316999346018,none,-5,0,0.04656230006366968,0.04653299995698035,0.09963650000281632,0.09859339985996485,0.2998550001066178
RSVPLG03,sg,20251104-141728,1.0.1,20251020-085245,736,Practice,T1,1,Automatic,main,5,20251104-141813,global,global,750,H,S,A,A,H-A.png,S-A.png,hH,sS,mask-2.png,mask-3.png,h,1,0.5277599999681115,none,-5,0,0.04753959993831813,0.04752709995955229,0.10062199993990362,0.10061839991249144,0.7500360000412911
RSVPLG03,sg,20251104-141728,1.0.1,20251020-085245,736,Practice,T1,1,Automatic,main,6,20251104-141817,local,local,300,S,S,E,A,E-S.png,A-S.png,sS,sS,mask-1.png,mask-2.png,h,0,0.76233180006966,none,-5,0,0.04754739999771118,0.04663639981299639,0.1005615999456495,0.0988930999301374,0.30082860006950796
RSVPLG03,sg,20251104-141728,1.0.1,20251020-085245,736,Practice,T1,1,Automatic,main,7,20251104-141821,global,global,300,H,H,E,A,H-E.png,H-A.png,hH,hH,mask-2.png,mask-3.png,h,1,0.39721770002506673,none,-5,0,0.04755820007994771,0.046755600022152066,0.09962930018082261,0.09986019995994866,0.29999150009825826
RSVPLG03,sg,20251104-141728,1.0.1,20251020-085245,736,Practice,T1,1,Automatic,main,8,20251104-141825,global,global,300,S,H,E,A,S-E.png,H-A.png,sS,hH,mask-2.png,mask-1.png,s,1,0.41747740004211664,none,-5,0,0.04716440010815859,0.0468274001032114,0.09836110007017851,0.09963040007278323,0.2997157999780029
RSVPLG03,sg,20251104-141728,1.0.1,20251020-085245,736,Practice,T1,1,Automatic,main,9,20251104-141829,local,local,750,H,S,A,E,A-H.png,E-S.png,hH,sS,mask-3.png,mask-2.png,h,1,0.5281136000994593,none,-5,0,0.0475407000631094,0.046838900074362755,0.09863379993475974,0.10004890011623502,0.749810199951753
RSVPLG03,sg,20251104-141728,1.0.1,20251020-085245,736,Practice,T1,1,Automatic,main,10,20251104-141834,local,local,750,H,H,A,E,A-H.png,E-H.png,hH,hH,mask-4.png,mask-1.png,s,0,0.3678139001131058,none,-5,0,0.04689999995753169,0.04867499996908009,0.10024100006558001,0.10079890000633895,0.7497122001368552
RSVPLG03,sg,20251104-141728,1.0.1,20251020-085245,736,Practice,T1,1,Automatic,main,11,20251104-141838,local,global,750,S,H,A,A,A-S.png,H-A.png,sS,hH,mask-4.png,mask-4.png,s,1,0.734773299889639,none,-5,0,0.04957180004566908,0.048327399883419275,0.10174230020493269,0.1000832999125123,0.7514870001468807
RSVPLG03,sg,20251104-141728,1.0.1,20251020-085245,736,Practice,T1,1,Automatic,main,12,20251104-141843,global,local,750,H,H,E,E,H-E.png,E-H.png,hH,hH,mask-4.png,mask-4.png,h,1,0.3950631998013705,none,-5,0,0.04865559982135892,0.04751329985447228,0.10064139985479414,0.10049899993464351,0.7508650999516249
RSVPLG03,sg,20251104-141728,1.0.1,20251020-085245,736,Practice,T1,1,Automatic,main,13,20251104-141847,local,global,300,S,H,A,E,A-S.png,H-E.png,sS,hH,mask-1.png,mask-1.png,h,0,0.8352286999579519,none,-5,0,0.04674899997189641,0.04766139993444085,0.10007519996725023,0.09900470008142292,0.2997810000088066
RSVPLG03,sg,20251104-141728,1.0.1,20251020-085245,736,Practice,T1,1,Automatic,main,14,20251104-141852,global,local,300,H,S,A,E,H-A.png,E-S.png,hH,sS,mask-2.png,mask-4.png,s,0,0.8022063001990318,none,-5,0,0.04668890009634197,0.047702400013804436,0.09988690004684031,0.09895640006288886,0.2997147999703884
RSVPLG03,sg,20251104-141728,1.0.1,20251020-085245,736,Practice,T1,1,Automatic,main,15,20251104-141856,local,global,300,S,S,E,E,E-S.png,S-E.png,sS,sS,mask-4.png,mask-4.png,h,0,0.8203171000350267,none,-5,0,0.047298300080001354,0.047634800197556615,0.09956760006025434,0.09918630006723106,0.29923369991593063
RSVPLG03,sg,20251104-141728,1.0.1,20251020-085245,736,Practice,T1,1,Automatic,main,16,20251104-141900,local,global,750,H,S,A,A,A-H.png,S-A.png,hH,sS,mask-2.png,mask-2.png,s,0,1.1401135998312384,none,-5,0,0.046715900069102645,0.046789599815383554,0.10000700014643371,0.09896149998530746,0.7507628002204001
RSVPLG03,sg,20251104-141945,1.0.1,20251020-085245,736,Practice,T1,1,Automatic,main,1,20251104-142008,local,global,750,S,S,A,E,A-S.png,S-E.png,sS,sS,mask-2.png,mask-3.png,s,1,0.5323889998253435,none,-5,0,0.04013410001061857,0.0476494999602437,0.09270440018735826,0.09981699986383319,0.744439700152725
RSVPLG03,sg,20251104-141945,1.0.1,20251020-085245,736,Practice,T1,1,Automatic,main,2,20251104-142012,local,local,300,S,H,E,A,E-S.png,A-H.png,sS,hH,mask-3.png,mask-1.png,h,0,0.6392137000802904,none,-5,0,0.047533500008285046,0.04785650013945997,0.10056579997763038,0.09995040018111467,0.30090749985538423
RSVPLG03,sg,20251104-141945,1.0.1,20251020-085245,736,Practice,T1,1,Automatic,main,3,20251104-142017,local,global,750,S,H,E,A,E-S.png,H-A.png,sS,hH,mask-4.png,mask-2.png,h,0,0.4490241000894457,none,-5,0,0.04723479994572699,0.04659650009125471,0.10044730012305081,0.09867949993349612,0.7528905000071973
RSVPLG03,sg,20251104-141945,1.0.1,20251020-085245,736,Practice,T1,1,Automatic,main,4,20251104-142021,global,global,750,S,H,E,E,S-E.png,H-E.png,sS,hH,mask-3.png,mask-3.png,s,1,0.5297739999368787,none,-5,0,0.047675800044089556,0.04676420008763671,0.09986650012433529,0.09996809996664524,0.7527586000505835
RSVPLG03,sg,20251104-141945,1.0.1,20251020-085245,736,Practice,T1,1,Automatic,main,5,20251104-142025,local,local,750,H,S,E,E,E-H.png,E-S.png,hH,sS,mask-2.png,mask-2.png,s,0,0.8855665000155568,none,-5,0,0.047667300095781684,0.04856709996238351,0.09985520015470684,0.09981120005249977,0.7521884001325816
RSVPLG03,sg,20251104-141945,1.0.1,20251020-085245,736,Practice,T1,1,Automatic,main,6,20251104-142030,local,local,300,H,S,E,A,E-H.png,A-S.png,hH,sS,mask-1.png,mask-1.png,h,1,0.6203211999963969,none,-5,0,0.047372000059112906,0.04671499994583428,0.10060750017873943,0.09877460007555783,0.301151700085029
RSVPLG03,sg,20251104-141945,1.0.1,20251020-085245,736,Practice,T1,1,Automatic,main,7,20251104-142035,global,global,750,H,S,E,E,H-E.png,S-E.png,hH,sS,mask-2.png,mask-3.png,h,1,0.6545967001002282,none,-5,0,0.047785500064492226,0.04856659984216094,0.10005530016496778,0.10085499985143542,0.7523124001454562
RSVPLG03,sg,20251104-141945,1.0.1,20251020-085245,736,Practice,T1,1,Automatic,main,8,20251104-142039,global,local,750,H,H,E,E,H-E.png,E-H.png,hH,hH,mask-1.png,mask-2.png,s,0,1.3832698001060635,none,-5,0,0.04663969995453954,0.047628500033169985,0.09977179998531938,0.09904840006493032,0.75214340002276
RSVPLG03,sg,20251104-141945,1.0.1,20251020-085245,736,Practice,T1,1,Automatic,main,9,20251104-142045,global,global,300,H,H,E,A,H-E.png,H-A.png,hH,hH,mask-4.png,mask-4.png,h,1,0.6110370000824332,none,-5,0,0.046573700150474906,0.04746629996225238,0.09957209997810423,0.09856339986436069,0.3008106001652777
RSVPLG03,sg,20251104-141945,1.0.1,20251020-085245,736,Practice,T1,1,Automatic,main,10,20251104-142049,global,local,300,S,S,E,A,S-E.png,A-S.png,sS,sS,mask-1.png,mask-3.png,h,0,0.6115745999850333,none,-5,0,0.04750450002029538,0.04650180018506944,0.10049310000613332,0.09957120008766651,0.3007797999307513
RSVPLG03,sg,20251104-141945,1.0.1,20251020-085245,736,Practice,T1,1,Automatic,main,11,20251104-142053,global,local,300,S,S,E,E,S-E.png,E-S.png,sS,sS,mask-1.png,mask-2.png,s,1,1.2209038001019508,none,-5,0,0.04789640009403229,0.047407499980181456,0.09937670012004673,0.10028680018149316,0.3014458999969065
RSVPLG03,sg,20251104-141945,1.0.1,20251020-085245,736,Practice,T1,1,Automatic,main,12,20251104-142058,global,global,300,H,S,E,A,H-E.png,S-A.png,hH,sS,mask-2.png,mask-2.png,h,1,0.5271405999083072,none,-5,0,0.04750470002181828,0.047525100177153945,0.10139330010861158,0.10051180003210902,0.30189420003443956
RSVPLG03,sg,20251104-141945,1.0.1,20251020-085245,736,Practice,T1,1,Automatic,main,13,20251104-142102,global,local,750,H,H,E,A,H-E.png,A-H.png,hH,hH,mask-1.png,mask-3.png,h,1,0.3561090000439435,none,-5,0,0.047529500210657716,0.04762960015796125,0.09974240022711456,0.09862269996665418,0.7523447000421584
RSVPLG03,sg,20251104-141945,1.0.1,20251020-085245,736,Practice,T1,1,Automatic,main,14,20251104-142106,local,global,300,S,H,E,E,E-S.png,H-E.png,sS,hH,mask-4.png,mask-1.png,s,1,0.6496713000815362,none,-5,0,0.047710000071674585,0.0491988998837769,0.09992970013990998,0.10234629991464317,0.2987467001657933
RSVPLG03,sg,20251104-141945,1.0.1,20251020-085245,736,Practice,T1,1,Automatic,main,15,20251104-142110,local,local,750,H,H,A,E,A-H.png,E-H.png,hH,hH,mask-4.png,mask-3.png,h,1,0.3822640001308173,none,-5,0,0.05520980013534427,0.04675390012562275,0.10011420003138483,0.09993309993296862,0.752434300025925
RSVPLG03,sg,20251104-141945,1.0.1,20251020-085245,736,Practice,T1,1,Automatic,main,16,20251104-142115,local,global,300,S,S,A,A,A-S.png,S-A.png,sS,sS,mask-4.png,mask-3.png,s,1,0.518103800015524,none,-5,0,0.04847520007751882,0.04752840008586645,0.0997880999930203,0.10037310002371669,0.30130610009655356
RSVPLG03,sg,20251104-142151,1.0.1,20251020-085245,736,Practice,T1,1,Automatic,main,1,20251104-142300,local,global,300,H,H,A,E,A-H.png,H-E.png,hH,hH,mask-4.png,mask-2.png,s,0,0.5453882999718189,none,-5,0,0.04589599999599159,0.04734009993262589,0.09985519992187619,0.09915619995445013,0.2996972999535501
RSVPLG03,sg,20251104-142151,1.0.1,20251020-085245,736,Practice,T1,1,Automatic,main,2,20251104-142304,local,local,750,S,S,A,A,A-S.png,A-S.png,sS,sS,mask-4.png,mask-2.png,s,1,0.8909551000688225,none,-5,0,0.04759479989297688,0.04852890013717115,0.09967670007608831,0.10177840013056993,0.7481237999163568
RSVPLG03,sg,20251104-142151,1.0.1,20251020-085245,736,Practice,T1,1,Automatic,main,3,20251104-142309,global,global,750,S,S,E,E,S-E.png,S-E.png,sS,sS,mask-4.png,mask-2.png,s,1,0.4483759000431746,none,-5,0,0.04756769980303943,0.04751780000515282,0.09964349982328713,0.10048449994064867,0.7494134998414665
RSVPLG03,sg,20251104-142151,1.0.1,20251020-085245,736,Practice,T1,1,Automatic,main,4,20251104-142313,global,global,300,H,S,E,E,H-E.png,S-E.png,hH,sS,mask-1.png,mask-3.png,h,1,0.41990479989908636,none,-5,0,0.04668150003999472,0.0469221998937428,0.09910039999522269,0.10012910002842546,0.2997091000434011
RSVPLG03,sg,20251104-142151,1.0.1,20251020-085245,736,Practice,T1,1,Automatic,main,5,20251104-142317,global,local,750,H,H,A,A,H-A.png,A-H.png,hH,hH,mask-4.png,mask-3.png,s,0,0.4530001999810338,none,-5,0,0.04767029988579452,0.046839000191539526,0.09974989993497729,0.10005470016039908,0.7497850998770446
RSVPLG03,sg,20251104-142151,1.0.1,20251020-085245,736,Practice,T1,1,Automatic,main,6,20251104-142322,global,local,750,H,H,E,A,H-E.png,A-H.png,hH,hH,mask-3.png,mask-3.png,h,1,0.4245111998170614,none,-5,0,0.04736789991147816,0.047501400113105774,0.10034510004334152,0.09969770000316203,0.7501683998852968
RSVPLG03,sg,20251104-142151,1.0.1,20251020-085245,736,Practice,T1,1,Automatic,main,7,20251104-142326,local,global,750,S,S,A,E,A-S.png,S-E.png,sS,sS,mask-2.png,mask-1.png,s,1,1.5093932000454515,none,-5,0,0.047577999997884035,0.045724499970674515,0.10066160000860691,0.09945430001243949,0.7499238001182675
RSVPLG03,sg,20251104-142151,1.0.1,20251020-085245,736,Practice,T1,1,Automatic,main,8,20251104-142331,global,global,750,S,H,E,E,S-E.png,H-E.png,sS,hH,mask-1.png,mask-1.png,s,1,0.9636984001845121,none,-5,0,0.046506599988788366,0.045722599839791656,0.10055869980715215,0.0995394999627024,0.7503138999454677
RSVPLG03,sg,20251104-142151,1.0.1,20251020-085245,736,Practice,T1,1,Automatic,main,9,20251104-142336,global,local,300,H,H,A,A,H-A.png,A-H.png,hH,hH,mask-4.png,mask-2.png,h,1,0.5103694000281394,none,-5,0,0.046832399908453226,0.04879530007019639,0.09924669982865453,0.101021199952811,0.2993272999301553
RSVPLG03,sg,20251104-142151,1.0.1,20251020-085245,736,Practice,T1,1,Automatic,main,10,20251104-142340,local,local,300,H,S,A,A,A-H.png,A-S.png,hH,sS,mask-3.png,mask-2.png,h,1,0.8131979000754654,none,-5,0,0.04763339995406568,0.047677200054749846,0.0995781000237912,0.09989960002712905,0.29999480000697076
RSVPLG03,sg,20251104-142151,1.0.1,20251020-085245,736,Practice,T1,1,Automatic,main,11,20251104-142345,global,local,300,H,S,A,E,H-A.png,E-S.png,hH,sS,mask-2.png,mask-4.png,h,1,0.5385984999593347,none,-5,0,0.04574920004233718,0.04865180002525449,0.09986119996756315,0.09983219997957349,0.29843359999358654
RSVPLG03,sg,20251104-142151,1.0.1,20251020-085245,736,Practice,T1,1,Automatic,main,12,20251104-142349,global,global,300,S,S,E,A,S-E.png,S-A.png,sS,sS,mask-2.png,mask-1.png,s,1,0.4196346001699567,none,-5,0,0.046469599939882755,0.04645120003260672,0.09880029992200434,0.0993514999281615,0.3000634000636637
RSVPLG03,sg,20251104-142151,1.0.1,20251020-085245,736,Practice,T1,1,Automatic,main,13,20251104-142353,local,local,300,H,S,A,A,A-H.png,A-S.png,hH,sS,mask-3.png,mask-1.png,h,1,0.6908789998851717,none,-5,0,0.045539099955931306,0.04737279983237386,0.09851579996757209,0.10026829992420971,0.2985205000732094
RSVPLG03,sg,20251104-142151,1.0.1,20251020-085245,736,Practice,T1,1,Automatic,main,14,20251104-142357,local,local,750,H,H,A,E,A-H.png,E-H.png,hH,hH,mask-1.png,mask-1.png,s,0,0.5928356000222266,none,-5,0,0.0475407000631094,0.0461003000382334,0.10057070013135672,0.09845250006765127,0.7510679000988603
RSVPLG03,sg,20251104-142151,1.0.1,20251020-085245,736,Practice,T1,1,Automatic,main,15,20251104-142402,local,global,750,H,H,E,A,E-H.png,H-A.png,hH,hH,mask-4.png,mask-4.png,h,1,0.535874200053513,none,-5,0,0.04803030006587505,0.04662380018271506,0.10007750010117888,0.10013160016387701,0.7501459999475628
RSVPLG03,sg,20251104-142151,1.0.1,20251020-085245,736,Practice,T1,1,Automatic,main,16,20251104-142406,local,global,300,S,H,E,A,E-S.png,H-A.png,sS,hH,mask-2.png,mask-2.png,s,1,0.6506385002285242,none,-5,0,0.04750790004618466,0.04649910004809499,0.09953820006921887,0.09875719994306564,0.300856800051406
RSVPLG03,sg,20251104-142532,1.0.1,20251020-085245,736,Introduction,Both,1,Automatic,main,1,20251104-142549,global,local,750,S,S,E,E,S-E.png,E-S.png,sS,sS,mask-2.png,mask-4.png,s,1,0.8523018001578748,h,0,3.592477999860421,0.09145720000378788,0.09658010001294315,0.19358800002373755,0.20053429994732141,0.7438984999898821
RSVPLG03,sg,20251104-142532,1.0.1,20251020-085245,736,Introduction,Both,1,Automatic,main,2,20251104-142558,global,global,750,H,H,A,A,H-A.png,H-A.png,hH,hH,mask-3.png,mask-2.png,h,1,0.8537900000810623,h,1,0.4764940000604838,0.09539870009757578,0.09844199987128377,0.19968140008859336,0.20224140002392232,0.7482419000007212
RSVPLG03,sg,20251104-142532,1.0.1,20251020-085245,736,Introduction,Both,1,Automatic,main,3,20251104-142603,local,local,750,S,S,E,E,E-S.png,E-S.png,sS,sS,mask-3.png,mask-2.png,h,0,0.9660689998418093,h,0,0.535107099916786,0.09758209995925426,0.09743249998427927,0.20054270001128316,0.1993755002040416,0.7502007998991758
RSVPLG03,sg,20251104-142532,1.0.1,20251020-085245,736,Introduction,Both,1,Automatic,main,4,20251104-142609,global,local,750,H,H,A,E,H-A.png,E-H.png,hH,hH,mask-2.png,mask-3.png,h,1,0.898895800113678,s,0,0.30799410003237426,0.09742189990356565,0.09738890011794865,0.20032600010745227,0.2000264001544565,0.7486427999101579
RSVPLG03,sg,20251104-142532,1.0.1,20251020-085245,736,Introduction,Both,1,Automatic,main,5,20251104-142615,local,local,750,S,H,E,E,E-S.png,E-H.png,sS,hH,mask-2.png,mask-4.png,h,0,0.6460852001328021,s,0,0.6110856998711824,0.09852749994024634,0.09744579996913671,0.20046429987996817,0.19938150001689792,0.7508928999304771
RSVPLG03,sg,20251104-142532,1.0.1,20251020-085245,736,Introduction,Both,1,Automatic,main,6,20251104-142620,local,local,750,S,S,E,A,E-S.png,A-S.png,sS,sS,mask-4.png,mask-1.png,h,0,63.04005900002085,s,1,63.10403070016764,0.09752830001525581,0.0975443001370877,0.198631800012663,0.19962970004417002,0.7499688998796046
RSVPLG03,sg,20251104-142532,1.0.1,20251020-085245,736,Introduction,Both,1,Automatic,main,7,20251104-142727,local,local,750,H,S,E,A,E-H.png,A-S.png,hH,sS,mask-3.png,mask-2.png,s,0,2.2772260999772698,h,0,0.1600152999162674,0.09817810007371008,0.09752349997870624,0.2006098001729697,0.20058399997651577,0.7500496001448482
RSVPLG03,sg,20251104-142532,1.0.1,20251020-085245,736,Introduction,Both,1,Automatic,main,8,20251104-142734,local,global,750,H,H,A,A,A-H.png,H-A.png,hH,hH,mask-3.png,mask-4.png,s,0,3.591219099937007,s,0,0.5610515000298619,0.0975626998115331,0.09844510001130402,0.20061379997059703,0.20053720008581877,0.7508087998721749
RSVPLG03,sg,20251104-142532,1.0.1,20251020-085245,736,Introduction,Both,1,Automatic,main,9,20251104-142742,global,local,750,H,H,A,A,H-A.png,A-H.png,hH,hH,mask-2.png,mask-3.png,h,1,0.9583538000006229,s,0,6.138730200007558,0.09739390015602112,0.09737539989873767,0.20048000011593103,0.20040199998766184,0.7501503000967205
RSVPLG03,sg,20251104-142532,1.0.1,20251020-085245,736,Introduction,Both,1,Automatic,main,10,20251104-142754,global,global,750,S,H,A,A,S-A.png,H-A.png,sS,hH,mask-1.png,mask-2.png,s,1,0.5002726998645812,h,1,0.29568149987608194,0.09720130008645356,0.09846400003880262,0.19910719990730286,0.20044499984942377,0.749011900043115
RSVPLG03,sg,20251104-142532,1.0.1,20251020-085245,736,Introduction,Both,1,Automatic,main,11,20251104-142759,global,global,750,S,H,A,A,S-A.png,H-A.png,sS,hH,mask-2.png,mask-4.png,s,1,0.5188984000124037,h,1,1.2763441998977214,0.09645329997874796,0.09634350007399917,0.2003750998992473,0.19846420013345778,0.7505935998633504
RSVPLG03,sg,20251104-142532,1.0.1,20251020-085245,736,Introduction,Both,1,Automatic,main,12,20251104-142805,global,local,750,S,S,A,E,S-A.png,E-S.png,sS,sS,mask-4.png,mask-2.png,s,1,0.5035683000460267,h,0,0.5050022001378238,0.09724479983560741,0.09740079985931516,0.19995729997754097,0.20027579995803535,0.7501719000283629
RSVPLG03,sg,20251104-142532,1.0.1,20251020-085245,736,Introduction,Both,1,Automatic,main,13,20251104-142810,local,global,750,S,H,A,A,A-S.png,H-A.png,sS,hH,mask-3.png,mask-4.png,h,0,1.0975333999376744,s,0,1.16548729990609,0.09741430007852614,0.09648890001699328,0.19839240005239844,0.19937990000471473,0.7495011000428349
RSVPLG03,sg,20251104-142532,1.0.1,20251020-085245,736,Introduction,Both,1,Automatic,main,14,20251104-142817,global,global,750,H,H,A,E,H-A.png,H-E.png,hH,hH,mask-2.png,mask-2.png,h,1,1.1005635999608785,s,0,1.5584727998357266,0.09723930014297366,0.0964830000884831,0.20003940002061427,0.19942079996690154,0.75024010008201
RSVPLG03,sg,20251104-142532,1.0.1,20251020-085245,736,Introduction,Both,1,Automatic,main,15,20251104-142824,local,global,750,S,S,E,E,E-S.png,S-E.png,sS,sS,mask-4.png,mask-1.png,h,0,0.677418400067836,s,1,0.25960260001011193,0.0973589001223445,0.0963891998399049,0.19927159999497235,0.19939219998195767,0.7499383001122624
RSVPLG03,sg,20251104-142532,1.0.1,20251020-085245,736,Introduction,Both,1,Automatic,main,16,20251104-142829,local,global,750,S,S,A,A,A-S.png,S-A.png,sS,sS,mask-1.png,mask-3.png,s,1,2.208016699878499,h,0,0.022772699827328324,0.09851199993863702,0.09754609991796315,0.2015660998877138,0.2004933999851346,0.7509047000203282
RSVPLG03,sg,20251104-142907,1.0.1,20251020-085245,736,Practice,Both,1,Automatic,main,1,20251104-142933,global,local,750,S,S,E,A,S-E.png,A-S.png,sS,sS,mask-3.png,mask-3.png,s,1,1.0395735001657158,h,0,1.2032682001590729,0.04001919995062053,0.047632900066673756,0.09309759992174804,0.09980910015292466,0.7433564998209476
RSVPLG03,sg,20251104-142907,1.0.1,20251020-085245,736,Practice,Both,1,Automatic,main,2,20251104-142939,local,local,750,S,S,E,E,E-S.png,E-S.png,sS,sS,mask-4.png,mask-4.png,h,0,0.7013704001437873,s,1,0.017725100042298436,0.0476736999116838,0.04761009989306331,0.10080999997444451,0.09980480000376701,0.7494721999391913
RSVPLG03,sg,20251104-142907,1.0.1,20251020-085245,736,Practice,Both,1,Automatic,main,3,20251104-142944,local,global,750,S,H,A,E,A-S.png,H-E.png,sS,hH,mask-3.png,mask-2.png,s,1,1.439017699798569,h,1,1.5513142999261618,0.047660400159657,0.04665859998203814,0.10084010008722544,0.09983359999023378,0.7502503001596779
RSVPLG03,sg,20251104-142907,1.0.1,20251020-085245,736,Practice,Both,1,Automatic,main,4,20251104-142949,local,local,300,S,H,A,E,A-S.png,E-H.png,sS,hH,mask-1.png,mask-2.png,h,0,1.373490700032562,s,0,0.8077455000020564,0.04669509991072118,0.048831099877133965,0.09815820003859699,0.10104319988749921,0.2981744999997318
RSVPLG03,sg,20251104-142907,1.0.1,20251020-085245,736,Practice,Both,1,Automatic,main,5,20251104-142955,global,local,300,S,H,E,A,S-E.png,A-H.png,sS,hH,mask-4.png,mask-1.png,s,1,0.9176034999545664,h,1,0.23513619997538626,0.047372099943459034,0.047515900107100606,0.09839130006730556,0.10150170000270009,0.2986089999321848
RSVPLG03,sg,20251104-142907,1.0.1,20251020-085245,736,Practice,Both,1,Automatic,main,6,20251104-143000,local,global,300,H,H,E,A,E-H.png,H-A.png,hH,hH,mask-1.png,mask-4.png,multiple,-2,1.0083085000514984,s,0,0.7438610000535846,0.04741030000150204,0.046577899949625134,0.09760130010545254,0.09853690001182258,0.3000891001429409
RSVPLG03,sg,20251104-142907,1.0.1,20251020-085245,736,Practice,Both,1,Automatic,main,7,20251104-143006,global,global,300,H,S,E,A,H-E.png,S-A.png,hH,sS,mask-1.png,mask-2.png,h,1,0.5026593999937177,s,1,0.35363380005583167,0.046419099904596806,0.047351800138130784,0.09947440004907548,0.09943330008536577,0.30071639991365373
RSVPLG03,sg,20251104-142907,1.0.1,20251020-085245,736,Practice,Both,1,Automatic,main,8,20251104-143010,global,local,750,H,H,E,A,H-E.png,A-H.png,hH,hH,mask-3.png,mask-4.png,h,1,0.6416823000181466,s,0,0.3977842000313103,0.04769630008377135,0.04681079997681081,0.09998639998957515,0.09983149985782802,0.7499363000970334
RSVPLG03,sg,20251104-142907,1.0.1,20251020-085245,736,Practice,Both,1,Automatic,main,9,20251104-143016,local,global,750,S,S,E,E,E-S.png,S-E.png,sS,sS,mask-2.png,mask-3.png,s,1,0.7059772000648081,s,1,0.29892980004660785,0.04779540002346039,0.04852980002760887,0.1000938001088798,0.09934589988552034,0.7494914000853896
RSVPLG03,sg,20251104-142907,1.0.1,20251020-085245,736,Practice,Both,1,Automatic,main,10,20251104-143021,local,local,750,H,H,A,E,A-H.png,E-H.png,hH,hH,mask-3.png,mask-4.png,s,0,2.1694380999542773,h,1,0.2609776998870075,0.046748399967327714,0.04673709999769926,0.09881630004383624,0.09994149999693036,0.7494886999484152
RSVPLG03,sg,20251104-142907,1.0.1,20251020-085245,736,Practice,Both,1,Automatic,main,11,20251104-143027,global,local,300,S,H,A,E,S-A.png,E-H.png,sS,hH,mask-2.png,mask-4.png,h,0,1.8688393998891115,s,0,0.05720060016028583,0.047647299943491817,0.04847640008665621,0.09981460007838905,0.09965720004402101,0.30039669992402196
RSVPLG03,sg,20251104-142907,1.0.1,20251020-085245,736,Practice,Both,1,Automatic,main,12,20251104-143033,global,global,300,H,S,E,E,H-E.png,S-E.png,hH,sS,mask-3.png,mask-4.png,h,1,0.8435169998556376,s,1,0.426857499871403,0.047529500210657716,0.04765169997699559,0.10072139999829233,0.09968189988285303,0.30026180017739534
RSVPLG03,sg,20251104-142907,1.0.1,20251020-085245,736,Practice,Both,1,Automatic,main,13,20251104-143038,global,global,750,H,H,A,A,H-A.png,H-A.png,hH,hH,mask-1.png,mask-3.png,h,1,0.6036878998856992,h,1,0.2355832001194358,0.04765770002268255,0.04765259986743331,0.09913159999996424,0.09983920003287494,0.7483844000380486
RSVPLG03,sg,20251104-142907,1.0.1,20251020-085245,736,Practice,Both,1,Automatic,main,14,20251104-143043,local,local,300,H,S,A,E,A-H.png,E-S.png,hH,sS,mask-2.png,mask-3.png,s,0,3.444233799818903,h,0,0.5175826998893172,0.04664349998347461,0.04866730002686381,0.09882720001041889,0.09986190008930862,0.2984162999782711
RSVPLG03,sg,20251104-142907,1.0.1,20251020-085245,736,Practice,Both,1,Automatic,main,15,20251104-143051,local,global,300,H,S,E,A,E-H.png,S-A.png,hH,sS,mask-4.png,mask-1.png,s,0,1.5064442998263985,h,0,1.6026049999054521,0.04850759985856712,0.04752700007520616,0.0995427998714149,0.09859329997561872,0.30077809980139136
RSVPLG03,sg,20251104-142907,1.0.1,20251020-085245,736,Practice,Both,1,Automatic,main,16,20251104-143056,global,global,750,S,H,A,E,S-A.png,H-E.png,sS,hH,mask-3.png,mask-4.png,s,1,0.6792051000520587,s,0,0.45039310003630817,0.048084599897265434,0.0475016999989748,0.10015679989010096,0.10155589994974434,0.7501809000968933
RSVPLG03,sg,20251104-143253,1.0.1,20251020-085245,736,Practice,Both,1,Automatic,main,1,20251104-143351,global,local,750,H,S,A,E,H-A.png,E-S.png,hH,sS,mask-4.png,mask-2.png,h,1,0.643390899989754,h,0,0.4724244000390172,0.03996470011770725,0.0477744999807328,0.09358570002950728,0.09882830013521016,0.7428780000191182
RSVPLG03,sg,20251104-143253,1.0.1,20251020-085245,736,Practice,Both,1,Automatic,main,2,20251104-143356,local,global,300,H,H,A,A,A-H.png,H-A.png,hH,hH,mask-1.png,mask-3.png,s,0,1.029926000162959,h,1,0.3108323998749256,0.04767339979298413,0.04873259994201362,0.10003349999897182,0.0999391998630017,0.2981714999768883
RSVPLG03,sg,20251104-143253,1.0.1,20251020-085245,736,Practice,Both,1,Automatic,main,3,20251104-143401,local,local,300,H,H,A,E,A-H.png,E-H.png,hH,hH,mask-2.png,mask-2.png,s,0,2.0305706998333335,h,1,0.12735970015637577,0.046544999815523624,0.04744859994389117,0.09898399980738759,0.09930659993551672,0.29898429987952113
RSVPLG03,sg,20251104-143253,1.0.1,20251020-085245,736,Practice,Both,1,Automatic,main,4,20251104-143407,global,local,750,S,H,E,A,S-E.png,A-H.png,sS,hH,mask-2.png,mask-4.png,s,1,0.6088977998588234,s,0,0.5571953998878598,0.04654640005901456,0.04772879998199642,0.09970640018582344,0.09996169991791248,0.7477591000497341
RSVPLG03,sg,20251104-143253,1.0.1,20251020-085245,736,Practice,Both,1,Automatic,main,5,20251104-143413,global,global,300,H,S,A,A,H-A.png,S-A.png,hH,sS,mask-1.png,mask-4.png,h,1,1.4376638000831008,s,1,1.1446675998158753,0.047668700106441975,0.048728799913078547,0.09982699993997812,0.10060389991849661,0.2985453000292182
RSVPLG03,sg,20251104-143253,1.0.1,20251020-085245,736,Practice,Both,1,Automatic,main,6,20251104-143419,local,local,750,S,H,A,A,A-S.png,A-H.png,sS,hH,mask-3.png,mask-4.png,s,1,1.1112637999467552,h,1,0.7092238001059741,0.04731619986705482,0.04753519990481436,0.1003274000249803,0.09853529999963939,0.7498880999628454
RSVPLG03,sg,20251104-143253,1.0.1,20251020-085245,736,Practice,Both,1,Automatic,main,7,20251104-143425,local,global,750,H,S,E,A,E-H.png,S-A.png,hH,sS,mask-4.png,mask-2.png,s,0,1.197338700061664,s,1,0.2364632000681013,0.04749589995481074,0.046761600067839026,0.10054040001705289,0.09951439988799393,0.7487254999577999
RSVPLG03,sg,20251104-143253,1.0.1,20251020-085245,736,Practice,Both,1,Automatic,main,8,20251104-143431,local,local,750,S,H,A,E,A-S.png,E-H.png,sS,hH,mask-3.png,mask-4.png,h,0,1.2300949001219124,s,0,0.22068809997290373,0.046493199886754155,0.04752809996716678,0.09957379987463355,0.09889049991033971,0.7470869000535458
RSVPLG03,sg,20251104-143253,1.0.1,20251020-085245,736,Practice,Both,1,Automatic,main,9,20251104-143436,global,global,750,S,S,A,A,S-A.png,S-A.png,sS,sS,mask-4.png,mask-4.png,s,1,0.6309994999319315,h,0,0.6435188998002559,0.04753430001437664,0.04744979995302856,0.09950910019688308,0.10044009983539581,0.749288400169462
RSVPLG03,sg,20251104-143253,1.0.1,20251020-085245,736,Practice,Both,1,Automatic,main,10,20251104-143442,local,global,300,S,H,E,E,E-S.png,H-E.png,sS,hH,mask-1.png,mask-1.png,s,1,2.3030606999527663,s,0,0.1821755999699235,0.04652420012280345,0.047566600143909454,0.09967630007304251,0.10062480019405484,0.29907920002005994
RSVPLG03,sg,20251104-143253,1.0.1,20251020-085245,736,Practice,Both,1,Automatic,main,11,20251104-143448,local,global,750,S,H,A,E,A-S.png,H-E.png,sS,hH,mask-2.png,mask-1.png,h,0,1.1812507999129593,s,0,0.21383589995093644,0.04751980002038181,0.04752269992604852,0.09853289998136461,0.10059459996409714,0.747902899980545
RSVPLG03,sg,20251104-143253,1.0.1,20251020-085245,736,Practice,Both,1,Automatic,main,12,20251104-143454,global,global,300,S,S,A,A,S-A.png,S-A.png,sS,sS,mask-2.png,mask-3.png,s,1,0.8029704999644309,h,0,0.22996609983965755,0.04854350001551211,0.04854479990899563,0.09985969983972609,0.09978950000368059,0.2993469999637455
RSVPLG03,sg,20251104-143253,1.0.1,20251020-085245,736,Practice,Both,1,Automatic,main,13,20251104-143458,global,local,300,S,H,E,E,S-E.png,E-H.png,sS,hH,mask-3.png,mask-1.png,s,1,0.5235951000358909,s,0,0.23673859983682632,0.04867679998278618,0.0466644000262022,0.09989490010775626,0.09888269985094666,0.3004797000903636
RSVPLG03,sg,20251104-143253,1.0.1,20251020-085245,736,Practice,Both,1,Automatic,main,14,20251104-143503,local,local,300,H,S,E,A,E-H.png,A-S.png,hH,sS,mask-2.png,mask-4.png,h,1,0.6676157999318093,s,1,0.29654670017771423,0.046690299874171615,0.047691200161352754,0.09993929998017848,0.09993530018255115,0.298748399829492
RSVPLG03,sg,20251104-143253,1.0.1,20251020-085245,736,Practice,Both,1,Automatic,main,15,20251104-143508,global,local,300,S,H,E,A,S-E.png,A-H.png,sS,hH,mask-1.png,mask-4.png,s,1,0.6265513000544161,s,0,0.7650725999847054,0.04769450007006526,0.04770140000618994,0.1000517001375556,0.09986199997365475,0.29935059999115765
RSVPLG03,sg,20251104-143253,1.0.1,20251020-085245,736,Practice,Both,1,Automatic,main,16,20251104-143513,global,global,750,S,S,E,E,S-E.png,S-E.png,sS,sS,mask-1.png,mask-3.png,s,1,0.5272752000018954,h,0,0.7086116999853402,0.047590999864041805,0.04799870005808771,0.09967179992236197,0.10002620005980134,0.7480229998473078
RSVPLG03,sg,20251104-143603,1.0.1,20251020-085245,736,Practice,Both,1,Automatic,main,1,20251104-143626,local,local,750,S,H,E,A,E-S.png,A-H.png,sS,hH,mask-2.png,mask-2.png,h,0,1.323298999806866,h,1,0.31248140009120107,0.04694289993494749,0.04753299988806248,0.10009000007994473,0.09956899983808398,0.7546028001233935
RSVPLG03,sg,20251104-143603,1.0.1,20251020-085245,736,Practice,Both,1,Automatic,main,2,20251104-143632,global,local,750,S,H,E,E,S-E.png,E-H.png,sS,hH,mask-3.png,mask-3.png,s,1,0.6543598000425845,h,1,0.3133252998813987,0.046593999955803156,0.04773699981160462,0.0994955999776721,0.09999939985573292,0.7527866000309587
RSVPLG03,sg,20251104-143603,1.0.1,20251020-085245,736,Practice,Both,1,Automatic,main,3,20251104-143637,global,global,300,S,S,E,E,S-E.png,S-E.png,sS,sS,mask-1.png,mask-1.png,s,1,0.7246557001490146,h,0,0.2020866998936981,0.04882029979489744,0.04773719981312752,0.10003639990463853,0.1000070997979492,0.30176920001395047
RSVPLG03,sg,20251104-143603,1.0.1,20251020-085245,736,Practice,Both,1,Automatic,main,4,20251104-143642,local,global,750,H,H,E,A,E-H.png,H-A.png,hH,hH,mask-1.png,mask-4.png,s,0,2.2830046000890434,h,1,0.7146130001638085,0.04866919992491603,0.04668090003542602,0.10190039989538491,0.09931119997054338,0.7544630998745561
RSVPLG03,sg,20251104-143603,1.0.1,20251020-085245,736,Practice,Both,1,Automatic,main,5,20251104-143649,global,local,300,H,S,E,E,H-E.png,E-S.png,hH,sS,mask-4.png,mask-4.png,h,1,1.5125402000267059,s,1,0.12229969981126487,0.047663999954238534,0.04707510001026094,0.1017493000254035,0.10019120015203953,0.30209379992447793
RSVPLG03,sg,20251104-143603,1.0.1,20251020-085245,736,Practice,Both,1,Automatic,main,6,20251104-143654,local,local,300,S,S,A,A,A-S.png,A-S.png,sS,sS,mask-2.png,mask-4.png,s,1,1.211727499961853,h,0,0.09178290003910661,0.04700120002962649,0.047537699807435274,0.10113249998539686,0.09957629977725446,0.3014048000331968
RSVPLG03,sg,20251104-143603,1.0.1,20251020-085245,736,Practice,Both,1,Automatic,main,7,20251104-143659,local,global,300,H,H,A,A,A-H.png,H-A.png,hH,hH,mask-4.png,mask-3.png,h,1,0.9605665998533368,s,0,0.1896868001203984,0.04872779990546405,0.04870690009556711,0.10091340006329119,0.10091290017589927,0.30096099991351366
RSVPLG03,sg,20251104-143603,1.0.1,20251020-085245,736,Practice,Both,1,Automatic,main,8,20251104-143704,global,global,750,S,S,A,A,S-A.png,S-A.png,sS,sS,mask-3.png,mask-3.png,s,1,0.5378799000754952,s,1,0.9026280001271516,0.046735200099647045,0.047696900088340044,0.09979930007830262,0.09998390008695424,0.7540579999331385
RSVPLG03,sg,20251104-143603,1.0.1,20251020-085245,736,Practice,Both,1,Automatic,main,9,20251104-143710,local,global,300,H,S,E,E,E-H.png,S-E.png,hH,sS,mask-2.png,mask-3.png,s,0,1.10702189989388,h,0,0.14455570001155138,0.04959829989820719,0.046531999949365854,0.10061319987289608,0.09952849987894297,0.3030157000757754
RSVPLG03,sg,20251104-143603,1.0.1,20251020-085245,736,Practice,Both,1,Automatic,main,10,20251104-143715,global,local,300,S,H,A,E,S-A.png,E-H.png,sS,hH,mask-1.png,mask-3.png,s,1,0.5421891000587493,h,1,0.5203430999536067,0.04874869994819164,0.047565799904987216,0.10095290001481771,0.10056880000047386,0.3025271000806242
RSVPLG03,sg,20251104-143603,1.0.1,20251020-085245,736,Practice,Both,1,Automatic,main,11,20251104-143720,local,local,750,H,S,E,A,E-H.png,A-S.png,hH,sS,mask-2.png,mask-4.png,h,1,1.228215100010857,s,1,0.1574570001102984,0.04651889996603131,0.04752079979516566,0.0994963999837637,0.10147179989144206,0.7529500001110137
RSVPLG03,sg,20251104-143603,1.0.1,20251020-085245,736,Practice,Both,1,Automatic,main,12,20251104-143725,local,local,300,S,H,A,A,A-S.png,A-H.png,sS,hH,mask-4.png,mask-3.png,s,1,1.8091059001162648,h,1,1.9368150001391768,0.04691710020415485,0.0475876999553293,0.10103120002895594,0.10154189984314144,0.30140650016255677
RSVPLG03,sg,20251104-143603,1.0.1,20251020-085245,736,Practice,Both,1,Automatic,main,13,20251104-143731,local,global,750,S,H,E,A,E-S.png,H-A.png,sS,hH,mask-3.png,mask-4.png,h,0,0.6523910001851618,s,0,0.2004283000715077,0.047883300110697746,0.04672949993982911,0.10098060010932386,0.09978609997779131,0.7542195001151413
RSVPLG03,sg,20251104-143603,1.0.1,20251020-085245,736,Practice,Both,1,Automatic,main,14,20251104-143736,global,global,300,S,S,E,A,S-E.png,S-A.png,sS,sS,mask-3.png,mask-1.png,s,1,0.6334778000600636,h,0,1.932445599930361,0.04658300010487437,0.047484799986705184,0.09961410006508231,0.10048829996958375,0.3009823001921177
RSVPLG03,sg,20251104-143603,1.0.1,20251020-085245,736,Practice,Both,1,Automatic,main,15,20251104-143742,global,global,750,S,S,E,E,S-E.png,S-E.png,sS,sS,mask-2.png,mask-4.png,s,1,0.712629800196737,s,1,0.29797010007314384,0.047683099983260036,0.048930900171399117,0.10000140010379255,0.10115560004487634,0.7537213999312371
RSVPLG03,sg,20251104-143603,1.0.1,20251020-085245,736,Practice,Both,1,Automatic,main,16,20251104-143748,global,local,750,H,H,E,E,H-E.png,E-H.png,hH,hH,mask-1.png,mask-1.png,h,1,0.7928784999530762,h,1,0.471259499900043,0.04866499989293516,0.04842310003004968,0.09988429979421198,0.10059829987585545,0.7534086999949068
RSVPLG03,sg,20251104-143918,1.0.1,20251020-085245,736,Experiment,Both,1,Automatic,warmup,1,20251104-144107,global,global,750,S,S,E,A,S-E.png,S-A.png,sS,sS,mask-3.png,mask-2.png,s,1,0.5706191000062972,h,0,0.48157780012115836,0.04008949990384281,0.047901100013405085,0.09409619984216988,0.10000859992578626,0.7419777000322938
RSVPLG03,sg,20251104-143918,1.0.1,20251020-085245,736,Experiment,Both,1,Automatic,warmup,2,20251104-144112,global,local,300,S,H,A,A,S-A.png,A-H.png,sS,hH,mask-4.png,mask-3.png,s,1,0.6964999998454005,s,0,0.2978129000402987,0.045706900069490075,0.04776849993504584,0.09995590010657907,0.10000759991817176,0.2986719000618905
RSVPLG03,sg,20251104-143918,1.0.1,20251020-085245,736,Experiment,Both,1,Automatic,warmup,3,20251104-144117,local,global,300,S,H,E,A,E-S.png,H-A.png,sS,hH,mask-3.png,mask-2.png,h,0,0.8984451000578701,s,0,0.2468049000017345,0.048521799966692924,0.04750039987266064,0.09959840006195009,0.10156899993307889,0.29915830004028976
RSVPLG03,sg,20251104-143918,1.0.1,20251020-085245,736,Experiment,Both,1,Automatic,warmup,4,20251104-144122,local,local,300,H,S,E,A,E-H.png,A-S.png,hH,sS,mask-4.png,mask-4.png,s,0,1.1863520999904722,s,1,0.27944579999893904,0.04747089999727905,0.04765140009112656,0.09966200008057058,0.10174000007100403,0.29821830010041595
RSVPLG03,sg,20251104-143918,1.0.1,20251020-085245,736,Experiment,Both,1,Automatic,warmup,5,20251104-144127,global,local,750,H,S,E,A,H-E.png,A-S.png,hH,sS,mask-2.png,mask-2.png,h,1,0.9040413999464363,h,0,1.4361829000990838,0.048563299933448434,0.047781100030988455,0.10075569991022348,0.09998259996064007,0.7501228998880833
RSVPLG03,sg,20251104-143918,1.0.1,20251020-085245,736,Experiment,Both,1,Automatic,main,6,20251104-144134,local,local,750,H,H,A,E,A-H.png,E-H.png,hH,hH,mask-4.png,mask-1.png,s,0,0.770360599970445,h,1,0.4165771999396384,0.04851110000163317,0.04726559994742274,0.10171790001913905,0.09902630001306534,0.7512663998641074
RSVPLG03,sg,20251104-143918,1.0.1,20251020-085245,736,Experiment,Both,1,Automatic,main,7,20251104-144139,global,local,750,H,S,A,E,H-A.png,E-S.png,hH,sS,mask-3.png,mask-2.png,h,1,0.5223009998444468,s,1,0.19478639983572066,0.047550300136208534,0.04730960004962981,0.09859360009431839,0.10051489993929863,0.7484544001054019
RSVPLG03,sg,20251104-143918,1.0.1,20251020-085245,736,Experiment,Both,1,Automatic,main,8,20251104-144144,local,local,300,H,H,E,A,E-H.png,A-H.png,hH,hH,mask-2.png,mask-1.png,h,1,0.9845944000408053,s,0,1.7242243001237512,0.04790759994648397,0.0485292999073863,0.10151449986733496,0.10171639989130199,0.299671099986881
RSVPLG03,sg,20251104-143918,1.0.1,20251020-085245,736,Experiment,Both,1,Automatic,main,9,20251104-144151,global,local,300,S,S,E,E,S-E.png,E-S.png,sS,sS,mask-1.png,mask-4.png,s,1,0.6167660998180509,h,0,0.7128544000443071,0.046185600105673075,0.04752409993670881,0.10017740004695952,0.09853620012290776,0.30042960005812347
RSVPLG03,sg,20251104-143918,1.0.1,20251020-085245,736,Experiment,Both,1,Automatic,main,10,20251104-144156,local,local,300,S,S,A,A,A-S.png,A-S.png,sS,sS,mask-4.png,mask-2.png,h,0,1.289226499851793,s,1,0.19425049982964993,0.04744949983432889,0.04701200011186302,0.09847119986079633,0.100572100142017,0.29900649981573224
RSVPLG03,sg,20251104-143918,1.0.1,20251020-085245,736,Experiment,Both,1,Automatic,main,11,20251104-144201,local,local,750,H,S,A,A,A-H.png,A-S.png,hH,sS,mask-4.png,mask-1.png,h,1,0.898033200064674,h,0,0.8734114998951554,0.0457421001046896,0.04693949990905821,0.09987360006198287,0.0984753998927772,0.7490454001817852
RSVPLG03,sg,20251104-143918,1.0.1,20251020-085245,736,Experiment,Both,1,Automatic,main,12,20251104-144207,global,local,300,S,S,A,E,S-A.png,E-S.png,sS,sS,mask-2.png,mask-3.png,s,1,0.8266356999520212,h,0,0.4199749999679625,0.04777569998987019,0.04756069998256862,0.09975200006738305,0.09795059985481203,0.30068460013717413
RSVPLG03,sg,20251104-143918,1.0.1,20251020-085245,736,Experiment,Both,1,Automatic,main,13,20251104-144212,global,global,750,H,H,A,A,H-A.png,H-A.png,hH,hH,mask-4.png,mask-2.png,h,1,0.4474112999159843,h,1,0.4067351999692619,0.04766670009121299,0.04770480003207922,0.10177589999511838,0.09856059984304011,0.7513195001520216
RSVPLG03,sg,20251104-143918,1.0.1,20251020-085245,736,Experiment,Both,1,Automatic,main,14,20251104-144217,global,local,300,H,H,E,E,H-E.png,E-H.png,hH,hH,mask-4.png,mask-3.png,h,1,0.8497713000979275,h,1,0.2212563999928534,0.0485174001660198,0.046901899855583906,0.10045820008963346,0.10009329998865724,0.3000001001637429
RSVPLG03,sg,20251104-143918,1.0.1,20251020-085245,736,Experiment,Both,1,Automatic,main,15,20251104-144222,local,global,750,S,H,A,A,A-S.png,H-A.png,sS,hH,mask-1.png,mask-2.png,s,1,0.5919612001162022,h,1,0.16566399997100234,0.048798499861732125,0.04890220006927848,0.10094629996456206,0.10010080016218126,0.7496616998687387
RSVPLG03,sg,20251104-143918,1.0.1,20251020-085245,736,Experiment,Both,1,Automatic,main,16,20251104-144227,global,global,750,S,S,E,E,S-E.png,S-E.png,sS,sS,mask-1.png,mask-3.png,s,1,0.5460206000134349,s,1,0.15628149989061058,0.04581999988295138,0.04891339992173016,0.09996109991334379,0.10079519986175,0.7488438000436872
RSVPLG03,sg,20251104-143918,1.0.1,20251020-085245,736,Experiment,Both,1,Automatic,main,17,20251104-144232,local,local,300,S,H,E,E,E-S.png,E-H.png,sS,hH,mask-1.png,mask-1.png,s,1,0.9818659999873489,h,1,0.3486331000458449,0.047586899949237704,0.04759899992495775,0.10058770002797246,0.09960019984282553,0.2999813000205904
RSVPLG03,sg,20251104-143918,1.0.1,20251020-085245,736,Experiment,Both,1,Automatic,main,18,20251104-144237,local,local,300,H,S,E,A,E-H.png,A-S.png,hH,sS,mask-1.png,mask-1.png,s,0,0.5032059999648482,h,0,0.11949290009215474,0.047370600048452616,0.04692979995161295,0.100352399982512,0.09984209993854165,0.30017710011452436
RSVPLG03,sg,20251104-143918,1.0.1,20251020-085245,736,Experiment,Both,1,Automatic,main,19,20251104-144241,global,local,750,S,H,A,A,S-A.png,A-H.png,sS,hH,mask-4.png,mask-1.png,s,1,0.6657411002088338,s,0,0.2528838999569416,0.047577999997884035,0.048221000004559755,0.09961219993419945,0.09960610000416636,0.7492354998830706
RSVPLG03,sg,20251104-143918,1.0.1,20251020-085245,736,Experiment,Both,1,Automatic,main,20,20251104-144246,global,local,750,H,H,E,E,H-E.png,E-H.png,hH,hH,mask-1.png,mask-4.png,h,1,0.552523700054735,s,0,0.18283629999496043,0.04735059989616275,0.048132000025361776,0.10033849999308586,0.10109180002473295,0.7488702000118792
RSVPLG03,sg,20251104-143918,1.0.1,20251020-085245,736,Experiment,Both,1,Automatic,main,21,20251104-144251,local,global,750,S,H,E,E,E-S.png,H-E.png,sS,hH,mask-1.png,mask-4.png,s,1,0.8330349999014288,h,1,0.2641847999766469,0.04716460010968149,0.04752329993061721,0.10044750012457371,0.10070799989625812,0.7490678001195192
RSVPLG03,sg,20251104-143918,1.0.1,20251020-085245,736,Experiment,Both,1,Automatic,main,22,20251104-144256,local,global,750,H,S,A,A,A-H.png,S-A.png,hH,sS,mask-2.png,mask-2.png,s,0,1.0373442999552935,s,1,0.47472940012812614,0.04666630015708506,0.047496600076556206,0.09985780017450452,0.09951249998994172,0.7499959000851959
RSVPLG03,sg,20251104-143918,1.0.1,20251020-085245,736,Experiment,Both,1,Automatic,main,23,20251104-144302,global,global,300,H,H,A,E,H-A.png,H-E.png,hH,hH,mask-2.png,mask-3.png,h,1,0.4436544000636786,s,0,0.19451739988289773,0.04750610003247857,0.04678119998425245,0.10052089998498559,0.09992579999379814,0.30182650010101497
RSVPLG03,sg,20251104-143918,1.0.1,20251020-085245,736,Experiment,Both,1,Automatic,main,24,20251104-144306,local,global,750,H,H,A,E,A-H.png,H-E.png,hH,hH,mask-2.png,mask-4.png,s,0,0.5102754000108689,h,1,0.14355550007894635,0.04775039991363883,0.045692000072449446,0.09999069990590215,0.0991374000441283,0.7501560999080539
RSVPLG03,sg,20251104-143918,1.0.1,20251020-085245,736,Experiment,Both,1,Automatic,main,25,20251104-144311,global,global,300,H,S,A,A,H-A.png,S-A.png,hH,sS,mask-4.png,mask-2.png,h,1,0.5302230999805033,s,1,0.379594299942255,0.04767609992995858,0.04868429992347956,0.10139109985902905,0.09996520006097853,0.3001371999271214
RSVPLG03,sg,20251104-143918,1.0.1,20251020-085245,736,Experiment,Both,1,Automatic,main,26,20251104-144330,global,local,750,S,S,E,A,S-E.png,A-S.png,sS,sS,mask-2.png,mask-4.png,s,1,1.0738904001191258,h,0,0.9365890000481158,0.046931999968364835,0.048699199920520186,0.09978930000215769,0.10081829992122948,0.7487717000767589
RSVPLG03,sg,20251104-143918,1.0.1,20251020-085245,736,Experiment,Both,1,Automatic,main,27,20251104-144336,local,local,750,S,S,E,A,E-S.png,A-S.png,sS,sS,mask-4.png,mask-2.png,s,1,0.5572271000128239,h,0,0.18170710001140833,0.048547300044447184,0.04745239997282624,0.1005824999883771,0.09849699982441962,0.7507976000197232
RSVPLG03,sg,20251104-143918,1.0.1,20251020-085245,736,Experiment,Both,1,Automatic,main,28,20251104-144341,local,local,750,S,S,A,E,A-S.png,E-S.png,sS,sS,mask-4.png,mask-1.png,s,1,0.8562659998424351,h,0,0.08571460004895926,0.04715780005790293,0.047412200132384896,0.10017860005609691,0.10042000003159046,0.7497363998554647
RSVPLG03,sg,20251104-143918,1.0.1,20251020-085245,736,Experiment,Both,1,Automatic,main,29,20251104-144346,global,global,750,S,H,A,E,S-A.png,H-E.png,sS,hH,mask-1.png,mask-1.png,s,1,0.4197104999329895,h,1,0.19912190013565123,0.04753999994136393,0.04748809989541769,0.09954049997031689,0.09850119985640049,0.7495409999974072
RSVPLG03,sg,20251104-143918,1.0.1,20251020-085245,736,Experiment,Both,1,Automatic,main,30,20251104-144351,local,global,300,S,H,A,E,A-S.png,H-E.png,sS,hH,mask-2.png,mask-3.png,s,1,0.963036400033161,h,1,0.09941269992850721,0.04744990007020533,0.04746929998509586,0.09941169992089272,0.09931720001623034,0.299646700033918
RSVPLG03,sg,20251104-143918,1.0.1,20251020-085245,736,Experiment,Both,1,Automatic,main,31,20251104-144356,global,global,300,S,S,E,A,S-E.png,S-A.png,sS,sS,mask-2.png,mask-3.png,s,1,0.40404519997537136,s,1,0.5197628000751138,0.04577689990401268,0.04650860000401735,0.09989519999362528,0.10059519996866584,0.3002178999595344
RSVPLG03,sg,20251104-143918,1.0.1,20251020-085245,736,Experiment,Both,1,Automatic,main,32,20251104-144400,global,local,300,S,S,A,A,S-A.png,A-S.png,sS,sS,mask-3.png,mask-3.png,s,1,0.6394231000449508,s,1,0.11684640008024871,0.04672029986977577,0.04570930008776486,0.1001414000056684,0.0989036001265049,0.3008456998504698
RSVPLG03,sg,20251104-143918,1.0.1,20251020-085245,736,Experiment,Both,1,Automatic,main,33,20251104-144405,local,local,300,H,H,A,E,A-H.png,E-H.png,hH,hH,mask-4.png,mask-1.png,h,1,1.1235259999521077,s,0,0.05803829990327358,0.04766800021752715,0.04767939983867109,0.09986210009083152,0.09987949999049306,0.29967920016497374
RSVPLG03,sg,20251104-143918,1.0.1,20251020-085245,736,Experiment,Both,1,Automatic,main,34,20251104-144410,global,local,750,H,H,A,E,H-A.png,E-H.png,hH,hH,mask-2.png,mask-3.png,h,1,0.9783791999798268,s,0,0.10640230006538332,0.04673669999465346,0.047591299982741475,0.10076600010506809,0.09992920001968741,0.7507988000288606
RSVPLG03,sg,20251104-143918,1.0.1,20251020-085245,736,Experiment,Both,1,Automatic,main,35,20251104-144415,local,local,300,H,H,A,A,A-H.png,A-H.png,hH,hH,mask-4.png,mask-2.png,s,0,1.6506030999589711,h,1,0.12433380004949868,0.047511700075119734,0.0475019000004977,0.09876989992335439,0.09878840018063784,0.2999773998744786
RSVPLG03,sg,20251104-143918,1.0.1,20251020-085245,736,Experiment,Both,1,Automatic,main,36,20251104-144420,global,global,750,H,H,A,A,H-A.png,H-A.png,hH,hH,mask-2.png,mask-2.png,h,1,0.8296131000388414,h,1,0.25201590009965,0.04736119997687638,0.047659399919211864,0.10026440001092851,0.10056269983761013,0.7488597000483423
RSVPLG03,sg,20251104-143918,1.0.1,20251020-085245,736,Experiment,Both,1,Automatic,main,37,20251104-144426,global,global,750,H,S,E,A,H-E.png,S-A.png,hH,sS,mask-3.png,mask-3.png,h,1,0.8236765000037849,s,1,0.07559979986399412,0.04749020002782345,0.04752240004017949,0.10048729996196926,0.09951539989560843,0.7504581999965012
RSVPLG03,sg,20251104-143918,1.0.1,20251020-085245,736,Experiment,Both,1,Automatic,main,38,20251104-144431,global,global,750,S,H,E,E,S-E.png,H-E.png,sS,hH,mask-2.png,mask-2.png,h,0,0.6732922999653965,s,0,0.17718770005740225,0.04756740015000105,0.04664209997281432,0.0993045000359416,0.0980984999332577,0.7499397001229227
RSVPLG03,sg,20251104-143918,1.0.1,20251020-085245,736,Experiment,Both,1,Automatic,main,39,20251104-144436,local,global,300,H,S,A,A,A-H.png,S-A.png,hH,sS,mask-4.png,mask-1.png,s,0,0.7214800999499857,h,0,0.12348950002342463,0.04750780016183853,0.04659939999692142,0.0985304000787437,0.09888100018724799,0.30022450000979006
RSVPLG03,sg,20251104-143918,1.0.1,20251020-085245,736,Experiment,Both,1,Automatic,main,40,20251104-144441,local,global,750,H,S,A,A,A-H.png,S-A.png,hH,sS,mask-3.png,mask-2.png,h,1,0.6145192999392748,s,1,0.16727699991315603,0.04749309993349016,0.04853420006111264,0.09856950002722442,0.09957959991879761,0.7490862999111414
RSVPLG03,sg,20251104-143918,1.0.1,20251020-085245,736,Experiment,Both,1,Automatic,main,41,20251104-144446,global,local,300,S,S,E,A,S-E.png,A-S.png,sS,sS,mask-2.png,mask-4.png,s,1,0.6620978999417275,h,0,0.23618360003456473,0.04756399989128113,0.047588499961420894,0.09857559995725751,0.09859840013086796,0.29981429991312325
RSVPLG03,sg,20251104-143918,1.0.1,20251020-085245,736,Experiment,Both,1,Automatic,main,42,20251104-144450,local,local,750,S,H,A,E,A-S.png,E-H.png,sS,hH,mask-2.png,mask-4.png,h,0,0.9322719001211226,s,0,0.3133507000748068,0.047528599854558706,0.0472957999445498,0.0995417998638004,0.10001219995319843,0.7492305999621749
RSVPLG03,sg,20251104-143918,1.0.1,20251020-085245,736,Experiment,Both,1,Automatic,main,43,20251104-144456,local,local,750,S,H,E,E,E-S.png,E-H.png,sS,hH,mask-3.png,mask-3.png,h,0,1.0584650000091642,h,1,0.7290751999244094,0.047529299976304173,0.047940999967977405,0.10052490001544356,0.09991510002873838,0.749440300045535
RSVPLG03,sg,20251104-143918,1.0.1,20251020-085245,736,Experiment,Both,1,Automatic,main,44,20251104-144502,global,local,750,H,S,A,E,H-A.png,E-S.png,hH,sS,mask-4.png,mask-3.png,h,1,0.4740752000361681,s,1,0.17342260014265776,0.04651509993709624,0.04660409991629422,0.09953149990178645,0.09887630003504455,0.7494320999830961
RSVPLG03,sg,20251104-143918,1.0.1,20251020-085245,736,Experiment,Both,1,Automatic,main,45,20251104-144507,local,local,300,H,H,E,E,E-H.png,E-H.png,hH,hH,mask-4.png,mask-4.png,s,0,0.6698388000950217,h,1,0.15248599997721612,0.047467999858781695,0.0474974000826478,0.09932929999195039,0.10031699994578958,0.3005576999858022
RSVPLG03,sg,20251104-143918,1.0.1,20251020-085245,736,Experiment,Both,1,Automatic,main,46,20251104-144511,local,global,300,S,H,E,A,E-S.png,H-A.png,sS,hH,mask-2.png,mask-2.png,s,1,1.4618419001344591,h,1,0.2590147000737488,0.0464733000844717,0.046510300133377314,0.09932500007562339,0.09953569993376732,0.3006760999560356
RSVPLG03,sg,20251104-143918,1.0.1,20251020-085245,736,Experiment,Both,1,Automatic,main,47,20251104-144517,local,local,300,S,S,A,E,A-S.png,E-S.png,sS,sS,mask-4.png,mask-1.png,s,1,0.7218824999872595,s,1,0.22988720005378127,0.04761059978045523,0.0467745999339968,0.09968819981440902,0.10080579994246364,0.3000952999573201
RSVPLG03,sg,20251104-143918,1.0.1,20251020-085245,736,Experiment,Both,1,Automatic,main,48,20251104-144521,global,global,300,S,S,E,E,S-E.png,S-E.png,sS,sS,mask-2.png,mask-2.png,s,1,0.7023525000549853,h,0,0.15358919999562204,0.046612400095909834,0.047500599874183536,0.09956760006025434,0.10004430008120835,0.299210200086236
RSVPLG03,sg,20251104-143918,1.0.1,20251020-085245,736,Experiment,Both,1,Automatic,main,49,20251104-144526,global,global,750,H,S,E,A,H-E.png,S-A.png,hH,sS,mask-2.png,mask-3.png,h,1,0.45157269993796945,s,1,0.15343910013325512,0.048355699982494116,0.04751499998383224,0.10041159996762872,0.1005119001492858,0.7504551999736577
RSVPLG03,sg,20251104-143918,1.0.1,20251020-085245,736,Experiment,Both,1,Automatic,main,50,20251104-144531,global,global,300,H,S,E,E,H-E.png,S-E.png,hH,sS,mask-4.png,mask-1.png,h,1,0.508386000059545,h,0,0.26290769991464913,0.047546499874442816,0.048523399978876114,0.09914399986155331,0.1004613998811692,0.2986461999826133
RSVPLG03,sg,20251104-143918,1.0.1,20251020-085245,736,Experiment,Both,1,Automatic,main,51,20251104-144555,global,global,750,S,S,A,A,S-A.png,S-A.png,sS,sS,mask-1.png,mask-4.png,s,1,0.5419580999296159,s,1,0.3294828000944108,0.04874920006841421,0.04663080000318587,0.1009368000086397,0.09981350018642843,0.7512813999783248
RSVPLG03,sg,20251104-143918,1.0.1,20251020-085245,736,Experiment,Both,1,Automatic,main,52,20251104-144600,global,local,750,H,S,A,A,H-A.png,A-S.png,hH,sS,mask-2.png,mask-1.png,h,1,0.47179049998521805,s,1,0.9492184999398887,0.04709000000730157,0.047392999986186624,0.10045589995570481,0.10039440006949008,0.7496944000013173
RSVPLG03,sg,20251104-143918,1.0.1,20251020-085245,736,Experiment,Both,1,Automatic,main,53,20251104-144606,global,global,300,S,H,E,E,S-E.png,H-E.png,sS,hH,mask-2.png,mask-1.png,s,1,0.42687850003130734,s,0,0.21502859983593225,0.047145700082182884,0.04546389984898269,0.10016490006819367,0.099576500011608,0.29988450021483004
RSVPLG03,sg,20251104-143918,1.0.1,20251020-085245,736,Experiment,Both,1,Automatic,main,54,20251104-144610,local,local,300,H,S,A,E,A-H.png,E-S.png,hH,sS,mask-1.png,mask-2.png,s,0,0.7444796999916434,h,0,0.10623899986967444,0.047517099883407354,0.04887549998238683,0.10059739998541772,0.10176249989308417,0.2988020000047982
RSVPLG03,sg,20251104-143918,1.0.1,20251020-085245,736,Experiment,Both,1,Automatic,main,55,20251104-144615,global,local,750,S,H,E,E,S-E.png,E-H.png,sS,hH,mask-3.png,mask-4.png,s,1,0.8202545999083668,s,0,0.30078000016510487,0.04753590002655983,0.047512799967080355,0.10157650010660291,0.10152620007283986,0.7499279000330716
RSVPLG03,sg,20251104-143918,1.0.1,20251020-085245,736,Experiment,Both,1,Automatic,main,56,20251104-144620,global,local,300,S,H,E,E,S-E.png,E-H.png,sS,hH,mask-2.png,mask-2.png,s,1,0.6821180998813361,h,1,0.16986719984561205,0.04673679987899959,0.04665140016004443,0.10001529986038804,0.09989270009100437,0.2998519998509437
RSVPLG03,sg,20251104-143918,1.0.1,20251020-085245,736,Experiment,Both,1,Automatic,main,57,20251104-144625,global,local,750,H,H,A,A,H-A.png,A-H.png,hH,hH,mask-3.png,mask-2.png,h,1,0.5211654999293387,h,1,0.3616557000204921,0.046589399920776486,0.046745500061661005,0.09858230012468994,0.09893460012972355,0.7496229999233037
RSVPLG03,sg,20251104-143918,1.0.1,20251020-085245,736,Experiment,Both,1,Automatic,main,58,20251104-144630,local,local,300,S,H,E,A,E-S.png,A-H.png,sS,hH,mask-1.png,mask-4.png,s,1,1.1199168998282403,h,1,0.6005371999926865,0.04848120012320578,0.04855889989994466,0.10035640001296997,0.10041349986568093,0.2998568001203239
RSVPLG03,sg,20251104-143918,1.0.1,20251020-085245,736,Experiment,Both,1,Automatic,main,59,20251104-144635,global,local,750,S,S,E,E,S-E.png,E-S.png,sS,sS,mask-1.png,mask-1.png,s,1,0.46389080001972616,h,0,0.45510849985294044,0.048741000005975366,0.04750899993814528,0.0997454000171274,0.09951589978300035,0.7501388001255691
RSVPLG03,sg,20251104-143918,1.0.1,20251020-085245,736,Experiment,Both,1,Automatic,main,60,20251104-144640,global,global,750,S,S,A,A,S-A.png,S-A.png,sS,sS,mask-4.png,mask-1.png,s,1,0.5877972000744194,s,1,0.26034909998998046,0.04753899993374944,0.046570600010454655,0.09938109992071986,0.09870110009796917,0.750719599891454
RSVPLG03,sg,20251104-143918,1.0.1,20251020-085245,736,Experiment,Both,1,Automatic,main,61,20251104-144645,global,local,300,S,H,E,E,S-E.png,E-H.png,sS,hH,mask-1.png,mask-4.png,s,1,0.6926500000990927,h,1,0.07251499989069998,0.04758649994619191,0.04874110012315214,0.09900279995054007,0.10184119991026819,0.29831089987419546
RSVPLG03,sg,20251104-143918,1.0.1,20251020-085245,736,Experiment,Both,1,Automatic,main,62,20251104-144650,global,global,750,H,S,E,E,H-E.png,S-E.png,hH,sS,mask-1.png,mask-3.png,h,1,0.6846821000799537,s,1,0.09905360010452569,0.047581000020727515,0.04754770011641085,0.09999589994549751,0.10155190015211701,0.7496332998853177
RSVPLG03,sg,20251104-143918,1.0.1,20251020-085245,736,Experiment,Both,1,Automatic,main,63,20251104-144655,local,global,750,S,H,A,A,A-S.png,H-A.png,sS,hH,mask-1.png,mask-3.png,h,0,1.216499799862504,s,0,0.1337052001617849,0.04749600007198751,0.047398699913173914,0.1005225998815149,0.10025889985263348,0.7493833000771701
RSVPLG03,sg,20251104-143918,1.0.1,20251020-085245,736,Experiment,Both,1,Automatic,main,64,20251104-144700,local,global,300,H,H,E,A,E-H.png,H-A.png,hH,hH,mask-3.png,mask-3.png,s,0,0.8283752999268472,h,1,0.1833055999595672,0.04856109991669655,0.04751329985447228,0.10034019988961518,0.10037310002371669,0.30039480002596974
RSVPLG03,sg,20251104-143918,1.0.1,20251020-085245,736,Experiment,Both,1,Automatic,main,65,20251104-144705,local,local,750,S,S,A,E,A-S.png,E-S.png,sS,sS,mask-4.png,mask-1.png,h,0,0.45832950016483665,s,1,0.11651879991404712,0.048705500084906816,0.045702199917286634,0.09972680010832846,0.0987011999823153,0.7510901000350714
RSVPLG03,sg,20251104-143918,1.0.1,20251020-085245,736,Experiment,Both,1,Automatic,main,66,20251104-144710,global,global,300,S,S,A,E,S-A.png,S-E.png,sS,sS,mask-4.png,mask-3.png,s,1,0.5381680000573397,s,1,0.2877632000017911,0.04566480009816587,0.04678929992951453,0.09986590011976659,0.09988130000419915,0.30012020003050566
RSVPLG03,sg,20251104-143918,1.0.1,20251020-085245,736,Experiment,Both,1,Automatic,main,67,20251104-144715,global,local,300,H,S,E,A,H-E.png,A-S.png,hH,sS,mask-3.png,mask-3.png,h,1,0.617985000135377,s,1,0.15253050019964576,0.04850520007312298,0.04670119984075427,0.09950340003706515,0.09923859988339245,0.3008305002003908
RSVPLG03,sg,20251104-143918,1.0.1,20251020-085245,736,Experiment,Both,1,Automatic,main,68,20251104-144719,local,local,750,H,S,E,E,E-H.png,E-S.png,hH,sS,mask-1.png,mask-2.png,s,0,0.7102387000340968,h,0,0.17120659979991615,0.046644499991089106,0.047520200023427606,0.09962639980949461,0.10042260005138814,0.7492172999773175
RSVPLG03,sg,20251104-143918,1.0.1,20251020-085245,736,Experiment,Both,1,Automatic,main,69,20251104-144724,local,global,750,H,H,A,E,A-H.png,H-E.png,hH,hH,mask-4.png,mask-4.png,s,0,1.2364461000543088,s,0,0.2839564001187682,0.04756489978171885,0.0476728999055922,0.10074769984930754,0.09987969999201596,0.7504129998851568
RSVPLG03,sg,20251104-143918,1.0.1,20251020-085245,736,Experiment,Both,1,Automatic,main,70,20251104-144730,global,local,750,S,S,A,A,S-A.png,A-S.png,sS,sS,mask-3.png,mask-4.png,h,0,0.39740719995461404,s,1,0.10456879995763302,0.047966600162908435,0.04731769999489188,0.1004286000970751,0.09854119992814958,0.7510546001140028
RSVPLG03,sg,20251104-143918,1.0.1,20251020-085245,736,Experiment,Both,1,Automatic,main,71,20251104-144735,local,local,750,H,H,A,E,A-H.png,E-H.png,hH,hH,mask-4.png,mask-2.png,h,1,0.3999644999857992,s,0,0.2664962001144886,0.046751500107347965,0.047811000142246485,0.099883200135082,0.09982640016824007,0.750745499972254
RSVPLG03,sg,20251104-143918,1.0.1,20251020-085245,736,Experiment,Both,1,Automatic,main,72,20251104-144739,local,local,300,S,S,E,A,E-S.png,A-S.png,sS,sS,mask-2.png,mask-2.png,s,1,0.7471137000247836,h,0,0.18718050001189113,0.0476885000243783,0.046689199982210994,0.09991179988719523,0.09992769989185035,0.30018060002475977
RSVPLG03,sg,20251104-143918,1.0.1,20251020-085245,736,Experiment,Both,1,Automatic,main,73,20251104-144744,local,global,750,H,H,E,A,E-H.png,H-A.png,hH,hH,mask-1.png,mask-1.png,h,1,0.5267074001021683,s,0,0.1049637000542134,0.04771500010974705,0.04882919997908175,0.09943690011277795,0.0994132999330759,0.7488971999846399
RSVPLG03,sg,20251104-143918,1.0.1,20251020-085245,736,Experiment,Both,1,Automatic,main,74,20251104-144749,local,global,300,S,S,A,A,A-S.png,S-A.png,sS,sS,mask-3.png,mask-1.png,s,1,0.6305325001012534,h,0,0.05358810001052916,0.04752910020761192,0.04749989998526871,0.09855930018238723,0.09848470008000731,0.300026300130412
RSVPLG03,sg,20251104-143918,1.0.1,20251020-085245,736,Experiment,Both,1,Automatic,main,75,20251104-144754,global,global,300,S,S,E,E,S-E.png,S-E.png,sS,sS,mask-1.png,mask-1.png,s,1,0.49493469996377826,h,0,0.13515030010603368,0.04752590018324554,0.047545599984005094,0.10053699999116361,0.10056839999742806,0.2998168000485748
RSVPLG03,sg,20251104-143918,1.0.1,20251020-085245,736,Experiment,Both,1,Automatic,main,76,20251104-144820,local,local,300,S,H,A,A,A-S.png,A-H.png,sS,hH,mask-1.png,mask-2.png,h,0,0.5422477000392973,s,0,0.12397109996527433,0.04788010008633137,0.04716570000164211,0.10003039985895157,0.09934600000269711,0.30075909988954663
RSVPLG03,sg,20251104-143918,1.0.1,20251020-085245,736,Experiment,Both,1,Automatic,main,77,20251104-144824,global,local,750,S,S,A,E,S-A.png,E-S.png,sS,sS,mask-4.png,mask-3.png,s,1,0.5759556000120938,s,1,0.17004720005206764,0.047671200009062886,0.04571449989452958,0.10090809990651906,0.09880809998139739,0.7510569000151008
RSVPLG03,sg,20251104-143918,1.0.1,20251020-085245,736,Experiment,Both,1,Automatic,main,78,20251104-144829,global,global,750,H,S,E,E,H-E.png,S-E.png,hH,sS,mask-2.png,mask-2.png,h,1,0.6546398000791669,h,0,0.2608484998345375,0.04853569995611906,0.04846740001812577,0.09943539998494089,0.10027509997598827,0.7497332999482751
RSVPLG03,sg,20251104-143918,1.0.1,20251020-085245,736,Experiment,Both,1,Automatic,main,79,20251104-144834,global,global,300,S,S,A,A,S-A.png,S-A.png,sS,sS,mask-1.png,mask-3.png,s,1,0.6638270998373628,s,1,0.07412440003827214,0.04769270005635917,0.04669669992290437,0.0998970998916775,0.10021439986303449,0.29994880012236536
RSVPLG03,sg,20251104-143918,1.0.1,20251020-085245,736,Experiment,Both,1,Automatic,main,80,20251104-144839,local,global,750,H,H,E,A,E-H.png,H-A.png,hH,hH,mask-1.png,mask-3.png,s,0,0.7258627000264823,s,0,0.2763636000454426,0.04568290011957288,0.048649400006979704,0.09811970009468496,0.10171720013022423,0.7479511999990791
RSVPLG03,sg,20251104-143918,1.0.1,20251020-085245,736,Experiment,Both,1,Automatic,main,81,20251104-144844,global,global,300,H,H,A,E,H-A.png,H-E.png,hH,hH,mask-2.png,mask-2.png,h,1,0.4764710001181811,s,0,0.11231639981269836,0.045720400055870414,0.04766119993291795,0.09990470018237829,0.09987569996155798,0.29833540017716587
RSVPLG03,sg,20251104-143918,1.0.1,20251020-085245,736,Experiment,Both,1,Automatic,main,82,20251104-144848,global,global,300,S,S,E,E,S-E.png,S-E.png,sS,sS,mask-1.png,mask-4.png,s,1,0.5083431000821292,h,0,0.1580146001651883,0.04672709992155433,0.04752479982562363,0.09813369996845722,0.09938649996183813,0.2998544001020491
RSVPLG03,sg,20251104-143918,1.0.1,20251020-085245,736,Experiment,Both,1,Automatic,main,83,20251104-144852,global,local,300,H,H,A,E,H-A.png,E-H.png,hH,hH,mask-1.png,mask-3.png,h,1,0.58632169989869,s,0,0.09086159989237785,0.04759530001319945,0.04571969993412495,0.10123620019294322,0.09989090007729828,0.30181770003400743
RSVPLG03,sg,20251104-143918,1.0.1,20251020-085245,736,Experiment,Both,1,Automatic,main,84,20251104-144857,global,local,750,H,S,E,E,H-E.png,E-S.png,hH,sS,mask-2.png,mask-2.png,h,1,0.6238794000819325,h,0,0.15233070007525384,0.04521469981409609,0.04587349994108081,0.09858300001360476,0.09992359997704625,0.7499223998747766
RSVPLG03,sg,20251104-143918,1.0.1,20251020-085245,736,Experiment,Both,1,Automatic,main,85,20251104-144902,global,global,750,H,S,E,E,H-E.png,S-E.png,hH,sS,mask-4.png,mask-4.png,h,1,0.3559093999210745,s,1,0.0736789999064058,0.045651499880477786,0.0485105998814106,0.09984009992331266,0.10073899989947677,0.7480264999903738
RSVPLG03,sg,20251104-143918,1.0.1,20251020-085245,736,Experiment,Both,1,Automatic,main,86,20251104-144907,local,global,300,S,S,A,A,A-S.png,S-A.png,sS,sS,mask-3.png,mask-3.png,s,1,0.6617179999593645,h,0,0.10366369993425906,0.0468754000030458,0.04589539999142289,0.09971340000629425,0.09893660014495254,0.2997619998641312
RSVPLG03,sg,20251104-143918,1.0.1,20251020-085245,736,Experiment,Both,1,Automatic,main,87,20251104-144911,local,local,300,H,H,A,A,A-H.png,A-H.png,hH,hH,mask-2.png,mask-3.png,h,1,0.5065743001177907,s,0,0.13547160010784864,0.047560299979522824,0.04752090014517307,0.09960690001025796,0.10152070014737546,0.29837669990956783
RSVPLG03,sg,20251104-143918,1.0.1,20251020-085245,736,Experiment,Both,1,Automatic,main,88,20251104-144916,local,global,300,H,S,A,A,A-H.png,S-A.png,hH,sS,mask-3.png,mask-1.png,s,0,0.4608840998262167,h,0,0.10422779992222786,0.04712549992837012,0.04752069991081953,0.0981257997918874,0.1005156000610441,0.2983774999156594
RSVPLG03,sg,20251104-143918,1.0.1,20251020-085245,736,Experiment,Both,1,Automatic,main,89,20251104-144920,local,local,750,S,S,A,E,A-S.png,E-S.png,sS,sS,mask-3.png,mask-4.png,s,1,0.35267029982060194,h,0,0.12544460012577474,0.04850769997574389,0.047490499913692474,0.09979779995046556,0.09952960000373423,0.7508394001051784
RSVPLG03,sg,20251104-143918,1.0.1,20251020-085245,736,Experiment,Both,1,Automatic,main,90,20251104-144925,local,global,300,H,H,A,E,A-H.png,H-E.png,hH,hH,mask-3.png,mask-1.png,h,1,0.3947197999805212,s,0,0.13093800004571676,0.04759979993104935,0.04688099981285632,0.09960449999198318,0.0997330998070538,0.2998438000213355
RSVPLG03,sg,20251104-143918,1.0.1,20251020-085245,736,Experiment,Both,1,Automatic,main,91,20251104-144929,global,local,300,S,H,E,A,S-E.png,A-H.png,sS,hH,mask-1.png,mask-4.png,s,1,0.35840789997018874,s,0,0.32810439984314144,0.048533499939367175,0.047579600010067225,0.10058530000969768,0.09962569992057979,0.30005730013363063
RSVPLG03,sg,20251104-143918,1.0.1,20251020-085245,736,Experiment,Both,1,Automatic,main,92,20251104-144933,local,global,300,S,S,A,A,A-S.png,S-A.png,sS,sS,mask-2.png,mask-2.png,h,0,1.1854483000934124,s,1,0.05458720005117357,0.04654729994945228,0.04830650007352233,0.09956709994003177,0.09917060006409883,0.2984050998929888
RSVPLG03,sg,20251104-143918,1.0.1,20251020-085245,736,Experiment,Both,1,Automatic,main,93,20251104-144938,local,global,300,H,H,E,A,E-H.png,H-A.png,hH,hH,mask-4.png,mask-2.png,s,0,1.008375900099054,s,0,0.14988530008122325,0.047478399937972426,0.04654070013202727,0.10048299981281161,0.09854610008187592,0.301043399842456
RSVPLG03,sg,20251104-143918,1.0.1,20251020-085245,736,Experiment,Both,1,Automatic,main,94,20251104-144943,local,local,750,H,H,A,E,A-H.png,E-H.png,hH,hH,mask-3.png,mask-2.png,h,1,0.43075840012170374,s,0,0.07032880000770092,0.047525100177153945,0.045715600019320846,0.09931840002536774,0.09991690004244447,0.7499301000498235
RSVPLG03,sg,20251104-143918,1.0.1,20251020-085245,736,Experiment,Both,1,Automatic,main,95,20251104-144948,local,global,300,H,H,E,E,E-H.png,H-E.png,hH,hH,mask-2.png,mask-1.png,h,1,0.47316400008276105,s,0,0.0875598001293838,0.046649300027638674,0.04878209996968508,0.09983960003592074,0.0999779999256134,0.2986936999950558
RSVPLG03,sg,20251104-143918,1.0.1,20251020-085245,736,Experiment,Both,1,Automatic,main,96,20251104-144952,local,global,750,S,S,A,E,A-S.png,S-E.png,sS,sS,mask-2.png,mask-3.png,s,1,0.35357829998247325,h,0,0.09336100006476045,0.0476456000469625,0.046782399993389845,0.10184590006247163,0.10097160004079342,0.7506635999307036
RSVPLG03,sg,20251104-143918,1.0.1,20251020-085245,736,Experiment,Both,1,Automatic,main,97,20251104-144957,local,local,750,S,S,E,E,E-S.png,E-S.png,sS,sS,mask-1.png,mask-3.png,h,0,0.4079257999546826,s,1,0.1153740999288857,0.04767780005931854,0.047462800052016973,0.09984220005571842,0.10033340007066727,0.7499925000593066
RSVPLG03,sg,20251104-143918,1.0.1,20251020-085245,736,Experiment,Both,1,Automatic,main,98,20251104-145002,global,local,300,H,S,A,E,H-A.png,E-S.png,hH,sS,mask-3.png,mask-4.png,h,1,0.4129296999890357,s,1,0.07105499994941056,0.04651820007711649,0.04751840000972152,0.09833319997414947,0.10053439997136593,0.29870679997839034
RSVPLG03,sg,20251104-143918,1.0.1,20251020-085245,736,Experiment,Both,1,Automatic,main,99,20251104-145006,local,global,300,H,H,A,A,A-H.png,H-A.png,hH,hH,mask-4.png,mask-1.png,h,1,0.8508379000704736,s,0,0.05679469997994602,0.047532099997624755,0.04651809995993972,0.0985350999981165,0.09860890009440482,0.299790000077337
RSVPLG03,sg,20251104-143918,1.0.1,20251020-085245,736,Experiment,Both,1,Automatic,main,100,20251104-145010,global,global,750,H,H,A,A,H-A.png,H-A.png,hH,hH,mask-2.png,mask-4.png,h,1,0.3940886000636965,s,0,0.1086862999945879,0.04751619999296963,0.04595079994760454,0.09851190005429089,0.09895310015417635,0.7489781999029219
RSVPLG03,sg,20251104-143918,1.0.1,20251020-085245,736,Experiment,Both,1,Automatic,main,101,20251104-145030,global,global,750,S,H,A,E,S-A.png,H-E.png,sS,hH,mask-2.png,mask-3.png,s,1,0.42029959987848997,h,1,0.5325680000241846,0.047719899797812104,0.04774670000188053,0.10102009982801974,0.09985250001773238,0.7509080998133868
RSVPLG03,sg,20251104-143918,1.0.1,20251020-085245,736,Experiment,Both,1,Automatic,main,102,20251104-145035,local,global,300,S,H,A,E,A-S.png,H-E.png,sS,hH,mask-2.png,mask-1.png,h,0,0.3302986000198871,s,0,0.11551070003770292,0.045698800124228,0.047671400010585785,0.09989080019295216,0.09972249995917082,0.2997305002063513
RSVPLG03,sg,20251104-143918,1.0.1,20251020-085245,736,Experiment,Both,1,Automatic,main,103,20251104-145039,local,local,750,H,S,E,A,E-H.png,A-S.png,hH,sS,mask-3.png,mask-1.png,s,0,0.40908259991556406,h,0,0.1503606999758631,0.04685129993595183,0.046764399856328964,0.10002100002020597,0.09997209999710321,0.7500247000716627
RSVPLG03,sg,20251104-143918,1.0.1,20251020-085245,736,Experiment,Both,1,Automatic,main,104,20251104-145044,local,local,750,H,S,A,A,A-H.png,A-S.png,hH,sS,mask-1.png,mask-1.png,h,1,0.3857527000363916,s,1,0.16899950010702014,0.04751429986208677,0.04766549984924495,0.10000550001859665,0.09967119991779327,0.7504010000266135
RSVPLG03,sg,20251104-143918,1.0.1,20251020-085245,736,Experiment,Both,1,Automatic,main,105,20251104-145048,global,local,300,H,H,E,E,H-E.png,E-H.png,hH,hH,mask-2.png,mask-1.png,h,1,0.42949209990911186,h,1,0.136583800194785,0.04669440002180636,0.04742159997113049,0.10087609989568591,0.10165539989247918,0.2992936000227928
RSVPLG03,sg,20251104-143918,1.0.1,20251020-085245,736,Experiment,Both,1,Automatic,main,106,20251104-145053,global,global,750,H,S,E,E,H-E.png,S-E.png,hH,sS,mask-2.png,mask-1.png,h,1,0.35575219988822937,s,1,0.10976749984547496,0.04766299994662404,0.04769060015678406,0.09992459998466074,0.10090600000694394,0.749066699994728
RSVPLG03,sg,20251104-143918,1.0.1,20251020-085245,736,Experiment,Both,1,Automatic,main,107,20251104-145057,global,local,750,H,H,A,A,H-A.png,A-H.png,hH,hH,mask-4.png,mask-1.png,h,1,0.6863743998110294,h,1,0.10094879986718297,0.04567729984410107,0.04775999998673797,0.09864560002461076,0.09998650010675192,0.749307399848476
RSVPLG03,sg,20251104-143918,1.0.1,20251020-085245,736,Experiment,Both,1,Automatic,main,108,20251104-145102,local,global,750,S,S,E,A,E-S.png,S-A.png,sS,sS,mask-4.png,mask-4.png,s,1,1.0104324000421911,s,1,0.15955110010690987,0.04766439995728433,0.04655169998295605,0.099811099935323,0.0997027000412345,0.7500907999929041
RSVPLG03,sg,20251104-143918,1.0.1,20251020-085245,736,Experiment,Both,1,Automatic,main,109,20251104-145108,global,local,300,H,S,E,E,H-E.png,E-S.png,hH,sS,mask-4.png,mask-2.png,h,1,0.48699410003609955,s,1,0.12376089999452233,0.046732000075280666,0.04678340000100434,0.0999230002053082,0.09998259996064007,0.2999407001771033
RSVPLG03,sg,20251104-143918,1.0.1,20251020-085245,736,Experiment,Both,1,Automatic,main,110,20251104-145112,local,global,750,S,H,E,E,E-S.png,H-E.png,sS,hH,mask-2.png,mask-1.png,s,1,0.4587914999574423,h,1,0.09320380003191531,0.04795389994978905,0.04670000006444752,0.10043990006670356,0.09989559999667108,0.7500434000976384
RSVPLG03,sg,20251104-143918,1.0.1,20251020-085245,736,Experiment,Both,1,Automatic,main,111,20251104-145117,local,global,750,S,H,A,A,A-S.png,H-A.png,sS,hH,mask-4.png,mask-3.png,h,0,0.7613333000335842,s,0,0.11819950002245605,0.04651769995689392,0.046694699907675385,0.09868649998679757,0.09979449980892241,0.7508256000000983
RSVPLG03,sg,20251104-143918,1.0.1,20251020-085245,736,Experiment,Both,1,Automatic,main,112,20251104-145122,global,local,300,S,S,A,E,S-A.png,E-S.png,sS,sS,mask-3.png,mask-4.png,s,1,0.4175369997974485,h,0,0.13740330003201962,0.048705500084906816,0.04738849983550608,0.10074759996496141,0.10030099982395768,0.30078350007534027
RSVPLG03,sg,20251104-143918,1.0.1,20251020-085245,736,Experiment,Both,1,Automatic,main,113,20251104-145126,global,local,750,H,S,E,E,H-E.png,E-S.png,hH,sS,mask-2.png,mask-3.png,h,1,0.4078552001155913,s,1,0.13942839996889234,0.04666469991207123,0.04668039991520345,0.09906259994022548,0.09990200004540384,0.7490491999778897
RSVPLG03,sg,20251104-143918,1.0.1,20251020-085245,736,Experiment,Both,1,Automatic,main,114,20251104-145131,global,global,300,H,S,A,E,H-A.png,S-E.png,hH,sS,mask-2.png,mask-2.png,h,1,1.1458688999991864,s,1,0.1135700000450015,0.04866630001924932,0.04765480011701584,0.10083390004001558,0.09967699996195734,0.30037999991327524
RSVPLG03,sg,20251104-143918,1.0.1,20251020-085245,736,Experiment,Both,1,Automatic,main,115,20251104-145136,global,global,300,H,S,A,E,H-A.png,S-E.png,hH,sS,mask-2.png,mask-2.png,h,1,0.5430811999831349,s,1,0.09622539998963475,0.047667300095781684,0.04753770004026592,0.1007493999786675,0.0997478999197483,0.30036960006691515
RSVPLG03,sg,20251104-143918,1.0.1,20251020-085245,736,Experiment,Both,1,Automatic,main,116,20251104-145140,global,global,300,H,S,A,A,H-A.png,S-A.png,hH,sS,mask-4.png,mask-3.png,h,1,0.5123124001547694,s,1,0.0763648001011461,0.04767840006388724,0.04656219994649291,0.0998118999414146,0.099911900004372,0.30020779999904335
RSVPLG03,sg,20251104-143918,1.0.1,20251020-085245,736,Experiment,Both,1,Automatic,main,117,20251104-145145,local,global,750,H,H,A,E,A-H.png,H-E.png,hH,hH,mask-2.png,mask-1.png,s,0,0.5086326999589801,h,1,0.13949430012144148,0.045698800124228,0.04867099993862212,0.09808390005491674,0.10085780010558665,0.7486721000168473
RSVPLG03,sg,20251104-143918,1.0.1,20251020-085245,736,Experiment,Both,1,Automatic,main,118,20251104-145150,local,global,750,S,S,E,E,E-S.png,S-E.png,sS,sS,mask-4.png,mask-2.png,h,0,0.579204399837181,s,1,0.10663739987649024,0.04769450007006526,0.04671039991080761,0.09994430001825094,0.09817870007827878,0.7508040000684559
RSVPLG03,sg,20251104-143918,1.0.1,20251020-085245,736,Experiment,Both,1,Automatic,main,119,20251104-145155,local,local,300,S,S,E,A,E-S.png,A-S.png,sS,sS,mask-3.png,mask-4.png,h,0,0.3936511999927461,s,1,0.1116287000477314,0.04654160002246499,0.04739410011097789,0.09817839995957911,0.10057569993659854,0.29872109997086227
RSVPLG03,sg,20251104-143918,1.0.1,20251020-085245,736,Experiment,Both,1,Automatic,main,120,20251104-145159,global,local,300,H,S,A,A,H-A.png,A-S.png,hH,sS,mask-1.png,mask-2.png,h,1,0.4667491998989135,h,0,0.16160470014438033,0.04881449998356402,0.0477118999697268,0.10103709995746613,0.09995619999244809,0.3009746999014169
RSVPLG03,sg,20251104-143918,1.0.1,20251020-085245,736,Experiment,Both,1,Automatic,main,121,20251104-145203,global,global,300,S,S,A,E,S-A.png,S-E.png,sS,sS,mask-3.png,mask-2.png,s,1,0.42955739982426167,h,0,0.0673044000286609,0.04767899983562529,0.04766479996033013,0.09885529987514019,0.09989109984599054,0.30033240001648664
RSVPLG03,sg,20251104-143918,1.0.1,20251020-085245,736,Experiment,Both,1,Automatic,main,122,20251104-145208,local,global,300,S,H,E,A,E-S.png,H-A.png,sS,hH,mask-4.png,mask-3.png,h,0,0.2803529999218881,s,0,0.060254399897530675,0.0476025000680238,0.04748800001107156,0.09948049997910857,0.09939159988425672,0.3001016001217067
RSVPLG03,sg,20251104-143918,1.0.1,20251020-085245,736,Experiment,Both,1,Automatic,main,123,20251104-145212,local,local,300,S,H,A,E,A-S.png,E-H.png,sS,hH,mask-1.png,mask-4.png,s,1,0.643106099916622,h,1,0.08860010001808405,0.04651200002990663,0.04801740008406341,0.09968350012786686,0.10005029989406466,0.298981900094077
RSVPLG03,sg,20251104-143918,1.0.1,20251020-085245,736,Experiment,Both,1,Automatic,main,124,20251104-145216,local,local,750,S,S,A,A,A-S.png,A-S.png,sS,sS,mask-1.png,mask-1.png,h,0,0.3170261001214385,s,1,0.11178440018557012,0.046711599919945,0.04836009978316724,0.09976619994267821,0.10086139990016818,0.7483073000330478
RSVPLG03,sg,20251104-143918,1.0.1,20251020-085245,736,Experiment,Both,1,Automatic,main,125,20251104-145221,local,global,300,H,S,E,A,E-H.png,S-A.png,hH,sS,mask-1.png,mask-1.png,s,0,0.4242437998764217,h,0,0.11987199983559549,0.04689770005643368,0.04724079999141395,0.09992499998770654,0.10022240015678108,0.2997007998637855
RSVPLG03,sg,20251104-145249,1.0.1,20251020-085245,736,Experiment,Both,1,Automatic,warmup,1,20251104-145312,local,local,750,S,H,A,E,A-S.png,E-H.png,sS,hH,mask-2.png,mask-3.png,h,0,0.7356396000832319,s,0,0.13196579995565116,0.04117759992368519,0.04768619989044964,0.09337670006789267,0.09987060003913939,0.7436025000642985
RSVPLG03,sg,20251104-145249,1.0.1,20251020-085245,736,Experiment,Both,1,Automatic,warmup,2,20251104-145317,global,global,300,H,H,E,A,H-E.png,H-A.png,hH,hH,mask-1.png,mask-4.png,h,1,0.44174759997986257,h,1,0.22729049995541573,0.04769250005483627,0.04671819997020066,0.10077919997274876,0.10004819999448955,0.30029619997367263
RSVPLG03,sg,20251104-145249,1.0.1,20251020-085245,736,Experiment,Both,1,Automatic,warmup,3,20251104-145321,local,global,750,H,H,E,A,E-H.png,H-A.png,hH,hH,mask-2.png,mask-4.png,s,0,0.44097730005159974,h,1,0.0970158998388797,0.047690900042653084,0.047498999862000346,0.10082020005211234,0.1016710998956114,0.7492089001461864
RSVPLG03,sg,20251104-145249,1.0.1,20251020-085245,736,Experiment,Both,1,Automatic,warmup,4,20251104-145326,global,global,750,S,S,E,A,S-E.png,S-A.png,sS,sS,mask-3.png,mask-4.png,s,1,0.3937574999872595,s,1,0.2451526999939233,0.04856549995020032,0.048749399837106466,0.1015625,0.10076699987985194,0.7494548000395298
RSVPLG03,sg,20251104-145249,1.0.1,20251020-085245,736,Experiment,Both,1,Automatic,warmup,5,20251104-145331,global,local,750,H,S,A,E,H-A.png,E-S.png,hH,sS,mask-3.png,mask-1.png,h,1,0.3984515001066029,s,1,0.14801470004022121,0.047521600034087896,0.04659370006993413,0.09955439995974302,0.09984209993854165,0.750818399945274
RSVPLG03,sg,20251104-145249,1.0.1,20251020-085245,736,Experiment,Both,1,Automatic,main,6,20251104-145336,local,global,300,S,H,A,A,A-S.png,H-A.png,sS,hH,mask-3.png,mask-2.png,s,1,1.2517967999447137,h,1,0.06942299986258149,0.04596740007400513,0.047665800200775266,0.09913190011866391,0.09877750021405518,0.2991990000009537
RSVPLG03,sg,20251104-145249,1.0.1,20251020-085245,736,Experiment,Both,1,Automatic,main,7,20251104-145341,local,global,750,S,S,E,A,E-S.png,S-A.png,sS,sS,mask-4.png,mask-3.png,h,0,0.8248746998142451,s,1,0.07291980017907917,0.04754029982723296,0.048614999977871776,0.09970839996822178,0.10040870006196201,0.74835169990547
RSVPLG03,sg,20251104-145249,1.0.1,20251020-085245,736,Experiment,Both,1,Automatic,main,8,20251104-145346,global,global,300,S,H,E,A,S-E.png,H-A.png,sS,hH,mask-4.png,mask-4.png,s,1,0.47482740017585456,s,0,0.12545179994776845,0.04643630003556609,0.04748809989541769,0.10043900017626584,0.09937319997698069,0.300082900095731
RSVPLG03,sg,20251104-145249,1.0.1,20251020-085245,736,Experiment,Both,1,Automatic,main,9,20251104-145350,global,global,300,S,S,A,A,S-A.png,S-A.png,sS,sS,mask-2.png,mask-4.png,s,1,0.536508799996227,h,0,0.09338470012880862,0.04751319997012615,0.04747310001403093,0.09858749993145466,0.10064939991571009,0.2999052000232041
RSVPLG03,sg,20251104-145249,1.0.1,20251020-085245,736,Experiment,Both,1,Automatic,main,10,20251104-145354,local,local,750,H,H,A,A,A-H.png,A-H.png,hH,hH,mask-4.png,mask-4.png,s,0,1.1420060000382364,s,0,0.2457856999244541,0.047505300026386976,0.04863240011036396,0.098706099903211,0.10087100020609796,0.7486160998232663
RSVPLG03,sg,20251104-145249,1.0.1,20251020-085245,736,Experiment,Both,1,Automatic,main,11,20251104-145400,global,global,300,H,H,E,E,H-E.png,H-E.png,hH,hH,mask-1.png,mask-3.png,h,1,0.6479305999819189,h,1,0.4437088000122458,0.04753009998239577,0.04752220003865659,0.0984294000081718,0.0985684001352638,0.2997226999141276
RSVPLG03,sg,20251104-145249,1.0.1,20251020-085245,736,Experiment,Both,1,Automatic,main,12,20251104-145405,local,global,300,H,H,E,E,E-H.png,H-E.png,hH,hH,mask-1.png,mask-3.png,h,1,1.2825035999994725,s,0,0.08309580013155937,0.04894319991581142,0.046304100193083286,0.10179340001195669,0.09913019998930395,0.30200599995441735
RSVPLG03,sg,20251104-145249,1.0.1,20251020-085245,736,Experiment,Both,1,Automatic,main,13,20251104-145410,local,global,300,H,S,E,A,E-H.png,S-A.png,hH,sS,mask-4.png,mask-1.png,h,1,1.1199477999471128,s,1,0.13900179998017848,0.04668990010395646,0.04752980009652674,0.10091509995982051,0.10036569996736944,0.30003849999047816
RSVPLG03,sg,20251104-145249,1.0.1,20251020-085245,736,Experiment,Both,1,Automatic,main,14,20251104-145415,local,local,300,S,H,E,E,E-S.png,E-H.png,sS,hH,mask-3.png,mask-1.png,h,0,0.6766768998932093,s,0,0.13242190005257726,0.046905099879950285,0.0455358000472188,0.10089969984255731,0.09966599987819791,0.30159109993837774
RSVPLG03,sg,20251104-145249,1.0.1,20251020-085245,736,Experiment,Both,1,Automatic,main,15,20251104-145420,global,local,750,S,S,A,E,S-A.png,E-S.png,sS,sS,mask-3.png,mask-4.png,s,1,0.529865600168705,s,1,0.09940289985388517,0.04766310006380081,0.047511500073596835,0.099826900055632,0.10067710001021624,0.7494373000226915
RSVPLG03,sg,20251104-145249,1.0.1,20251020-085245,736,Experiment,Both,1,Automatic,main,16,20251104-145424,local,local,750,H,S,A,E,A-H.png,E-S.png,hH,sS,mask-4.png,mask-3.png,h,1,1.0668142000213265,s,1,0.026617499999701977,0.04761280003003776,0.046676200116053224,0.0998155998531729,0.0998919999692589,0.7486838998738676
RSVPLG03,sg,20251104-145249,1.0.1,20251020-085245,736,Experiment,Both,1,Automatic,main,17,20251104-145430,global,local,300,S,H,A,E,S-A.png,E-H.png,sS,hH,mask-1.png,mask-2.png,s,1,1.2658614998217672,h,1,0.08656630013138056,0.046562799951061606,0.047637700103223324,0.09868420008569956,0.09903450007550418,0.2995507000014186
RSVPLG03,sg,20251104-145249,1.0.1,20251020-085245,736,Experiment,Both,1,Automatic,main,18,20251104-145435,global,local,300,H,S,A,A,H-A.png,A-S.png,hH,sS,mask-1.png,mask-2.png,h,1,0.4154777000658214,s,1,0.026453600032255054,0.04646810004487634,0.04754119995050132,0.09964430006220937,0.09877420007251203,0.29934899997897446
RSVPLG03,sg,20251104-145249,1.0.1,20251020-085245,736,Experiment,Both,1,Automatic,main,19,20251104-145439,local,local,750,H,H,A,A,A-H.png,A-H.png,hH,hH,mask-3.png,mask-3.png,s,0,0.3095518001355231,h,1,0.7290521000977606,0.04653509985655546,0.04762090020813048,0.10069979983381927,0.10063190013170242,0.7495749997906387
RSVPLG03,sg,20251104-145249,1.0.1,20251020-085245,736,Experiment,Both,1,Automatic,main,20,20251104-145444,global,global,750,H,H,A,E,H-A.png,H-E.png,hH,hH,mask-1.png,mask-3.png,h,1,0.6464338998775929,s,0,0.23275419999845326,0.04710200009867549,0.048524299869313836,0.10016350005753338,0.09956899983808398,0.7488896001596004
RSVPLG03,sg,20251104-145249,1.0.1,20251020-085245,736,Experiment,Both,1,Automatic,main,21,20251104-145449,local,global,300,S,S,A,A,A-S.png,S-A.png,sS,sS,mask-4.png,mask-2.png,h,0,0.632111300015822,h,0,0.2669913999270648,0.046870100079104304,0.04739690013229847,0.09932520007714629,0.09990849997848272,0.29843399999663234
RSVPLG03,sg,20251104-145249,1.0.1,20251020-085245,736,Experiment,Both,1,Automatic,main,22,20251104-145454,global,local,750,S,H,E,E,S-E.png,E-H.png,sS,hH,mask-1.png,mask-3.png,s,1,0.4192361000459641,h,1,0.36117320018820465,0.047700800001621246,0.04748820001259446,0.10078409989364445,0.10037860018201172,0.7499269999098033
RSVPLG03,sg,20251104-145249,1.0.1,20251020-085245,736,Experiment,Both,1,Automatic,main,23,20251104-145459,global,local,750,S,S,A,A,S-A.png,A-S.png,sS,sS,mask-4.png,mask-4.png,h,0,0.66768250009045,s,1,0.06948269996792078,0.04566459986381233,0.047776600113138556,0.09906699997372925,0.10096499999053776,0.7475707998964936
RSVPLG03,sg,20251104-145249,1.0.1,20251020-085245,736,Experiment,Both,1,Automatic,main,24,20251104-145504,global,global,750,H,S,A,A,H-A.png,S-A.png,hH,sS,mask-3.png,mask-2.png,h,1,0.8944234999362379,h,0,0.29394229990430176,0.04573450004681945,0.046577899949625134,0.10015879990532994,0.1006434999871999,0.7489694999530911
RSVPLG03,sg,20251104-145249,1.0.1,20251020-085245,736,Experiment,Both,1,Automatic,main,25,20251104-145509,local,local,750,H,S,E,A,E-H.png,A-S.png,hH,sS,mask-2.png,mask-1.png,h,1,0.8522729999385774,s,1,0.13721229997463524,0.04748680000193417,0.04770010011270642,0.09867500001564622,0.0998933999799192,0.7485400999430567
RSVPLG03,sg,20251104-145249,1.0.1,20251020-085245,736,Experiment,Both,1,Automatic,main,26,20251104-145531,local,global,300,S,H,E,A,E-S.png,H-A.png,sS,hH,mask-4.png,mask-2.png,h,0,0.3757722000591457,s,0,0.072647700086236,0.04852629988454282,0.0485453000292182,0.09890419989824295,0.10061069997027516,0.3001111999619752
RSVPLG03,sg,20251104-145249,1.0.1,20251020-085245,736,Experiment,Both,1,Automatic,main,27,20251104-145535,global,global,750,S,H,A,A,S-A.png,H-A.png,sS,hH,mask-1.png,mask-3.png,s,1,0.44732520007528365,h,1,0.1248957000207156,0.046087600057944655,0.048506699968129396,0.09939650003798306,0.10056769987568259,0.7484644001815468
RSVPLG03,sg,20251104-145249,1.0.1,20251020-085245,736,Experiment,Both,1,Automatic,main,28,20251104-145540,local,local,750,H,S,E,E,E-H.png,E-S.png,hH,sS,mask-1.png,mask-4.png,s,0,1.2387443000916392,h,0,0.10507240006700158,0.048691999865695834,0.047626900020986795,0.10092350002378225,0.10152920009568334,0.7494744998402894
RSVPLG03,sg,20251104-145249,1.0.1,20251020-085245,736,Experiment,Both,1,Automatic,main,29,20251104-145546,global,local,300,S,H,A,A,S-A.png,A-H.png,sS,hH,mask-2.png,mask-2.png,s,1,0.4395397000480443,h,1,0.13987800013273954,0.04751429986208677,0.04751920001581311,0.1016102998983115,0.10053419996984303,0.299905699910596
RSVPLG03,sg,20251104-145249,1.0.1,20251020-085245,736,Experiment,Both,1,Automatic,main,30,20251104-145550,local,global,750,H,S,A,E,A-H.png,S-E.png,hH,sS,mask-4.png,mask-4.png,s,0,1.3868349001277238,s,1,0.28024819982238114,0.0475637000054121,0.04675330012105405,0.1015781001187861,0.0998686000239104,0.7516493999864906
RSVPLG03,sg,20251104-145249,1.0.1,20251020-085245,736,Experiment,Both,1,Automatic,main,31,20251104-145556,global,local,300,H,S,A,E,H-A.png,E-S.png,hH,sS,mask-2.png,mask-3.png,h,1,0.4453407002147287,h,0,0.14989480003714561,0.04752869997173548,0.0475254999473691,0.0995585999917239,0.10052239987999201,0.2998456999193877
RSVPLG03,sg,20251104-145249,1.0.1,20251020-085245,736,Experiment,Both,1,Automatic,main,32,20251104-145600,local,local,750,S,H,A,A,A-S.png,A-H.png,sS,hH,mask-4.png,mask-2.png,h,0,0.4594212998636067,h,1,0.21140779997222126,0.047677200054749846,0.04667930002324283,0.10189660009928048,0.0991028998978436,0.7514013000763953
RSVPLG03,sg,20251104-145249,1.0.1,20251020-085245,736,Experiment,Both,1,Automatic,main,33,20251104-145605,global,global,300,H,H,E,A,H-E.png,H-A.png,hH,hH,mask-1.png,mask-3.png,h,1,0.4396699999924749,s,0,0.1304260001052171,0.04672540002502501,0.048733399948105216,0.09998130006715655,0.10194780002348125,0.29879339993931353
RSVPLG03,sg,20251104-145249,1.0.1,20251020-085245,736,Experiment,Both,1,Automatic,main,34,20251104-145610,global,global,300,S,S,E,A,S-E.png,S-A.png,sS,sS,mask-2.png,mask-1.png,s,1,0.38547000009566545,s,1,0.2152623999863863,0.04557009995914996,0.04760379996150732,0.09858160000294447,0.10061209998093545,0.2980659001041204
RSVPLG03,sg,20251104-145249,1.0.1,20251020-085245,736,Experiment,Both,1,Automatic,main,35,20251104-145614,global,global,750,H,S,E,A,H-E.png,S-A.png,hH,sS,mask-2.png,mask-2.png,h,1,0.3584500001743436,s,1,0.16733349999412894,0.04759280011057854,0.046525000128895044,0.09959490015171468,0.0996399000287056,0.7495289000216872
RSVPLG03,sg,20251104-145249,1.0.1,20251020-085245,736,Experiment,Both,1,Automatic,main,36,20251104-145619,global,global,300,H,H,E,E,H-E.png,H-E.png,hH,hH,mask-2.png,mask-2.png,h,1,0.4791733000893146,h,1,0.24824399990029633,0.04752029990777373,0.047538100043311715,0.10157599998638034,0.10155449993908405,0.29987369989976287
RSVPLG03,sg,20251104-145249,1.0.1,20251020-085245,736,Experiment,Both,1,Automatic,main,37,20251104-145623,global,global,750,S,S,E,E,S-E.png,S-E.png,sS,sS,mask-1.png,mask-1.png,s,1,0.8216374001931399,h,0,0.13425349979661405,0.046609000070020556,0.04793739994056523,0.09857419994659722,0.10059909988194704,0.748755200067535
RSVPLG03,sg,20251104-145249,1.0.1,20251020-085245,736,Experiment,Both,1,Automatic,main,38,20251104-145628,local,local,300,H,S,A,A,A-H.png,A-S.png,hH,sS,mask-4.png,mask-3.png,s,0,0.6158616000320762,h,0,0.07728959992527962,0.0486504000145942,0.04653299995698035,0.1007571998052299,0.1005202999804169,0.30005660001188517
RSVPLG03,sg,20251104-145249,1.0.1,20251020-085245,736,Experiment,Both,1,Automatic,main,39,20251104-145633,local,local,300,S,H,E,A,E-S.png,A-H.png,sS,hH,mask-1.png,mask-3.png,h,0,1.3285966999828815,s,0,0.07950630015693605,0.048521599965170026,0.047506599919870496,0.1015090998262167,0.10068570007570088,0.30056779994629323
RSVPLG03,sg,20251104-145249,1.0.1,20251020-085245,736,Experiment,Both,1,Automatic,main,40,20251104-145638,global,local,750,S,S,A,A,S-A.png,A-S.png,sS,sS,mask-1.png,mask-4.png,s,1,0.6333484000060707,s,1,0.8256429999601096,0.0478757000528276,0.04770360002294183,0.09982340014539659,0.09992780000902712,0.7504622000269592
RSVPLG03,sg,20251104-145249,1.0.1,20251020-085245,736,Experiment,Both,1,Automatic,main,41,20251104-145644,global,local,300,H,S,E,A,H-E.png,A-S.png,hH,sS,mask-3.png,mask-3.png,h,1,0.49115419993177056,s,1,0.12529520015232265,0.04669630015268922,0.045687499921768904,0.10089640016667545,0.09988190000876784,0.30081110005266964
RSVPLG03,sg,20251104-145249,1.0.1,20251020-085245,736,Experiment,Both,1,Automatic,main,42,20251104-145648,global,local,300,H,H,E,A,H-E.png,A-H.png,hH,hH,mask-3.png,mask-3.png,h,1,0.5278408001177013,s,0,0.10853480012156069,0.04752000002190471,0.046569199999794364,0.10059579997323453,0.0996191999875009,0.3012824999168515
RSVPLG03,sg,20251104-145249,1.0.1,20251020-085245,736,Experiment,Both,1,Automatic,main,43,20251104-145653,global,local,750,S,H,A,E,S-A.png,E-H.png,sS,hH,mask-4.png,mask-1.png,s,1,0.9900675998069346,h,1,0.10371089982800186,0.04846530011855066,0.0456130001693964,0.10083290003240108,0.09870900004170835,0.7514430999290198
RSVPLG03,sg,20251104-145249,1.0.1,20251020-085245,736,Experiment,Both,1,Automatic,main,44,20251104-145658,local,global,750,S,H,A,A,A-S.png,H-A.png,sS,hH,mask-4.png,mask-1.png,h,0,0.4689811000134796,s,0,0.19991780002601445,0.04658159986138344,0.04846910014748573,0.10065369983203709,0.09998490009456873,0.7486021998338401
RSVPLG03,sg,20251104-145249,1.0.1,20251020-085245,736,Experiment,Both,1,Automatic,main,45,20251104-145703,global,local,300,S,H,E,E,S-E.png,E-H.png,sS,hH,mask-4.png,mask-4.png,s,1,0.4547989999409765,s,0,0.1359238000586629,0.04764409991912544,0.047575500095263124,0.10070719989016652,0.09888960001990199,0.3000767999328673
RSVPLG03,sg,20251104-145249,1.0.1,20251020-085245,736,Experiment,Both,1,Automatic,main,46,20251104-145707,local,global,750,H,H,E,E,E-H.png,H-E.png,hH,hH,mask-4.png,mask-1.png,s,0,1.05072750011459,h,1,0.0932523999363184,0.04757539997808635,0.047514700097963214,0.0982653999235481,0.09961600019596517,0.7496377998031676
RSVPLG03,sg,20251104-145249,1.0.1,20251020-085245,736,Experiment,Both,1,Automatic,main,47,20251104-145712,local,local,750,S,H,A,A,A-S.png,A-H.png,sS,hH,mask-3.png,mask-2.png,s,1,0.3251412999816239,h,1,0.5187861998565495,0.047126300167292356,0.0475449999794364,0.10013579996302724,0.09857979998923838,0.7495870001148432
RSVPLG03,sg,20251104-145249,1.0.1,20251020-085245,736,Experiment,Both,1,Automatic,main,48,20251104-145718,local,local,750,S,S,A,A,A-S.png,A-S.png,sS,sS,mask-4.png,mask-4.png,h,0,3.1158590000122786,h,0,0.07605140004307032,0.047007699962705374,0.04864519997499883,0.0999828998465091,0.10187929985113442,0.7480850999709219
RSVPLG03,sg,20251104-145249,1.0.1,20251020-085245,736,Experiment,Both,1,Automatic,main,49,20251104-145725,global,global,300,H,H,A,A,H-A.png,H-A.png,hH,hH,mask-2.png,mask-1.png,h,1,0.6568020000122488,s,0,0.13528709998354316,0.046665099915117025,0.046693400014191866,0.09998550009913743,0.09991749981418252,0.3006510001141578
RSVPLG03,sg,20251104-145249,1.0.1,20251020-085245,736,Experiment,Both,1,Automatic,main,50,20251104-145729,local,global,300,S,S,E,A,E-S.png,S-A.png,sS,sS,mask-1.png,mask-4.png,h,0,0.6812290002126247,s,1,0.04743700008839369,0.048695300007238984,0.048688000068068504,0.09990629996173084,0.09991330001503229,0.2998208999633789
RSVPLG03,sg,20251104-145249,1.0.1,20251020-085245,736,Experiment,Both,1,Automatic,main,51,20251104-145745,global,global,750,H,H,E,E,H-E.png,H-E.png,hH,hH,mask-3.png,mask-4.png,h,1,0.32454379997216165,s,0,0.0572721001226455,0.046696299919858575,0.04571940004825592,0.09994029998779297,0.09892749995924532,0.7494574000593275
RSVPLG03,sg,20251104-145249,1.0.1,20251020-085245,736,Experiment,Both,1,Automatic,main,52,20251104-145749,local,local,300,H,S,A,A,A-H.png,A-S.png,hH,sS,mask-4.png,mask-4.png,s,0,0.3513988999184221,h,0,0.6749757998622954,0.046954300021752715,0.045632499968633056,0.0990904001519084,0.09971910016611218,0.3005768000148237
RSVPLG03,sg,20251104-145249,1.0.1,20251020-085245,736,Experiment,Both,1,Automatic,main,53,20251104-145754,global,global,750,S,S,A,A,S-A.png,S-A.png,sS,sS,mask-2.png,mask-1.png,s,1,0.33289010007865727,h,0,0.11372100003063679,0.04654299980029464,0.04684880003333092,0.09969299985095859,0.09991180012002587,0.7496546998154372
RSVPLG03,sg,20251104-145249,1.0.1,20251020-085245,736,Experiment,Both,1,Automatic,main,54,20251104-145759,local,local,300,S,S,A,E,A-S.png,E-S.png,sS,sS,mask-4.png,mask-3.png,h,0,0.3251815000548959,h,0,0.39180310000665486,0.047551600029692054,0.04754749988205731,0.10058470000512898,0.10120259993709624,0.2989260000176728
RSVPLG03,sg,20251104-145249,1.0.1,20251020-085245,736,Experiment,Both,1,Automatic,main,55,20251104-145803,local,local,300,H,H,E,A,E-H.png,A-H.png,hH,hH,mask-3.png,mask-2.png,s,0,0.3791283001191914,h,1,0.08251629979349673,0.047515299869701266,0.04751270008273423,0.10051269992254674,0.09914770000614226,0.30014459998346865
RSVPLG03,sg,20251104-145249,1.0.1,20251020-085245,736,Experiment,Both,1,Automatic,main,56,20251104-145808,local,local,300,S,S,E,E,E-S.png,E-S.png,sS,sS,mask-2.png,mask-1.png,h,0,0.5300374000798911,s,1,0.17744769994169474,0.04835499986074865,0.04642220004461706,0.10143429995514452,0.09930130001157522,0.301649599801749
RSVPLG03,sg,20251104-145249,1.0.1,20251020-085245,736,Experiment,Both,1,Automatic,main,57,20251104-145812,local,global,750,H,S,E,A,E-H.png,S-A.png,hH,sS,mask-2.png,mask-3.png,s,0,0.33529320009984076,s,1,0.307053399970755,0.047709899954497814,0.048728000139817595,0.09990989998914301,0.10001050005666912,0.7487422998528928
RSVPLG03,sg,20251104-145249,1.0.1,20251020-085245,736,Experiment,Both,1,Automatic,main,58,20251104-145817,global,global,300,S,H,E,A,S-E.png,H-A.png,sS,hH,mask-2.png,mask-4.png,s,1,0.2934223001357168,h,1,0.10282649984583259,0.04914129991084337,0.04933790001086891,0.10016470006667078,0.10036999988369644,0.29980270005762577
RSVPLG03,sg,20251104-145249,1.0.1,20251020-085245,736,Experiment,Both,1,Automatic,main,59,20251104-145821,global,global,750,H,H,E,E,H-E.png,H-E.png,hH,hH,mask-1.png,mask-4.png,h,1,0.3340604000259191,s,0,0.09051960008218884,0.04551040008664131,0.047572300070896745,0.09953560004942119,0.09960670000873506,0.7489481000229716
RSVPLG03,sg,20251104-145249,1.0.1,20251020-085245,736,Experiment,Both,1,Automatic,main,60,20251104-145826,global,local,750,H,H,E,A,H-E.png,A-H.png,hH,hH,mask-4.png,mask-4.png,h,1,0.3176752000581473,s,0,0.19336339994333684,0.04654589993879199,0.047579900128766894,0.09957550000399351,0.09949350007809699,0.7490685998927802
