exp,exp_initials,runtime,ver,modtime,sub,blocktype,targets,cuetype,mode,trialtype,trial,trialtime,t1_level,t2_level,t2_lag,t1,t2,distractor1,distractor2,stimfile1,stimfile2,t1_corr,t2_corr,maskfile1,maskfile2,t1_resp,t1_acc,t1_rt,t2_resp,t2_acc,t2_rt,t1_dur,t2_dur,t1mask_soa,t2mask_soa,t1t2_soa
RSVPLG03,si,20260415-082932,1.0.2,20260219-152011,820,Introduction,T1,1,Automatic,main,1,20260415-083016,local,global,750,S,S,E,E,E-S.png,S-E.png,sS,sS,mask-3.png,mask-4.png,s,1,1.6938387000118382,none,-5,0,0.1002887999638915,0.10042340005747974,0.19984999997541308,0.20166480005718768,0.7495653999503702
RSVPLG03,si,20260415-082932,1.0.2,20260219-152011,820,Introduction,T1,1,Automatic,main,2,20260415-083021,local,global,750,H,H,A,A,A-H.png,H-A.png,hH,hH,mask-3.png,mask-3.png,h,1,3.869965699966997,none,-5,0,0.09925699996529147,0.10072170000057667,0.1993747999658808,0.20165519998408854,0.7481573999975808
RSVPLG03,si,20260415-082932,1.0.2,20260219-152011,820,Introduction,T1,1,Automatic,main,3,20260415-083030,global,local,750,S,S,A,A,S-A.png,A-S.png,sS,sS,mask-3.png,mask-1.png,s,1,0.8212484000250697,none,-5,0,0.0999671999597922,0.10155530000338331,0.19985559995984659,0.19997800001874566,0.7493470999761485
RSVPLG03,si,20260415-082932,1.0.2,20260219-152011,820,Introduction,T1,1,Automatic,main,4,20260415-083035,global,global,750,S,S,A,A,S-A.png,S-A.png,sS,sS,mask-2.png,mask-4.png,s,1,1.2384065000223927,none,-5,0,0.10037979995831847,0.100457499967888,0.1991173999849707,0.2003580000018701,0.7490121999871917
RSVPLG03,si,20260415-082932,1.0.2,20260219-152011,820,Introduction,T1,1,Automatic,main,5,20260415-083040,global,local,750,S,H,E,E,S-E.png,E-H.png,sS,hH,mask-2.png,mask-1.png,s,1,0.7058667999808677,none,-5,0,0.09964480000780895,0.10303959995508194,0.2005996000370942,0.20103699999162927,0.7506313000340015
RSVPLG03,si,20260415-082932,1.0.2,20260219-152011,820,Introduction,T1,1,Automatic,main,6,20260415-083045,local,local,750,H,S,E,E,E-H.png,E-S.png,hH,sS,mask-1.png,mask-3.png,s,0,1.6231603000196628,none,-5,0,0.09967520000645891,0.09984039998380467,0.19988299999386072,0.20092549995752051,0.750277700019069
RSVPLG03,si,20260415-082932,1.0.2,20260219-152011,820,Introduction,T1,1,Automatic,main,7,20260415-083051,global,global,750,S,S,E,A,S-E.png,S-A.png,sS,sS,mask-2.png,mask-1.png,h,0,4.056408500007819,none,-5,0,0.1005503999767825,0.10087820002809167,0.20033079996937886,0.20004520000657067,0.7492644999874756
RSVPLG03,si,20260415-082932,1.0.2,20260219-152011,820,Introduction,T1,1,Automatic,main,8,20260415-083059,global,local,750,H,H,E,E,H-E.png,E-H.png,hH,hH,mask-2.png,mask-1.png,h,1,1.2544310000375845,none,-5,0,0.09938930004136637,0.09993410005699843,0.1987574000377208,0.19989030004944652,0.7494184999959543
RSVPLG03,si,20260415-082932,1.0.2,20260219-152011,820,Introduction,T1,1,Automatic,main,9,20260415-083104,local,local,750,H,S,A,E,A-H.png,E-S.png,hH,sS,mask-1.png,mask-4.png,s,0,4.758879899978638,none,-5,0,0.10116860002744943,0.09962200000882149,0.20046670001465827,0.19857889995910227,0.751395000028424
RSVPLG03,si,20260415-082932,1.0.2,20260219-152011,820,Introduction,T1,1,Automatic,main,10,20260415-083113,global,local,750,H,S,A,E,H-A.png,E-S.png,hH,sS,mask-4.png,mask-1.png,h,1,0.7524790000170469,none,-5,0,0.10078859998611733,0.10049909999361262,0.20035359996836632,0.20146369998110458,0.7504411999834701
RSVPLG03,si,20260415-082932,1.0.2,20260219-152011,820,Introduction,T1,1,Automatic,main,11,20260415-083118,local,global,750,S,H,E,E,E-S.png,H-E.png,sS,hH,mask-2.png,mask-3.png,s,1,0.7452677999972366,none,-5,0,0.09950559999560937,0.09854510001605377,0.2001966999960132,0.198625200020615,0.7507564999978058
RSVPLG03,si,20260415-082932,1.0.2,20260219-152011,820,Introduction,T1,1,Automatic,main,12,20260415-083123,global,global,750,H,S,A,A,H-A.png,S-A.png,hH,sS,mask-4.png,mask-3.png,h,1,1.1466206000186503,none,-5,0,0.10050109995063394,0.09968570002820343,0.1998042999766767,0.20058409997727722,0.7515638999757357
RSVPLG03,si,20260415-082932,1.0.2,20260219-152011,820,Introduction,T1,1,Automatic,main,13,20260415-083128,local,local,750,H,H,E,E,E-H.png,E-H.png,hH,hH,mask-4.png,mask-3.png,s,0,6.3540121000260115,none,-5,0,0.09943579998798668,0.09817369998199865,0.1987572999787517,0.19971909996820614,0.7511887000291608
RSVPLG03,si,20260415-082932,1.0.2,20260219-152011,820,Introduction,T1,1,Automatic,main,14,20260415-083139,local,global,750,H,S,A,E,A-H.png,S-E.png,hH,sS,mask-3.png,mask-4.png,h,1,0.8851565000368282,none,-5,0,0.10332799999741837,0.10147799999685958,0.2006052000215277,0.20138599997153506,0.7510954000172205
RSVPLG03,si,20260415-082932,1.0.2,20260219-152011,820,Introduction,T1,1,Automatic,main,15,20260415-083144,local,local,750,H,S,E,E,E-H.png,E-S.png,hH,sS,mask-3.png,mask-2.png,h,1,4.104898200021125,none,-5,0,0.09940409997943789,0.1016123000299558,0.19816959998570383,0.20118299999739975,0.748714999994263
RSVPLG03,si,20260415-082932,1.0.2,20260219-152011,820,Introduction,T1,1,Automatic,main,16,20260415-083152,global,global,750,H,S,A,A,H-A.png,S-A.png,hH,sS,mask-3.png,mask-2.png,h,1,0.3221635000081733,none,-5,0,0.10212150000734255,0.0997013000305742,0.2012432999908924,0.2018726000096649,0.7518641999922693
RSVPLG03,si,20260415-083217,1.0.2,20260219-152011,820,Practice,T1,1,Automatic,main,1,20260415-083236,global,global,750,S,H,A,A,S-A.png,H-A.png,sS,hH,mask-4.png,mask-1.png,s,1,2.616423500003293,none,-5,0,0.039239400008227676,0.04957020003348589,0.0898845000192523,0.09866480005439371,0.7439663999830373
RSVPLG03,si,20260415-083217,1.0.2,20260219-152011,820,Practice,T1,1,Automatic,main,2,20260415-083243,global,local,300,S,S,A,E,S-A.png,E-S.png,sS,sS,mask-2.png,mask-4.png,s,1,2.079647600010503,none,-5,0,0.04902889998629689,0.05085729999700561,0.09935690002748743,0.10087900003418326,0.3000461999909021
RSVPLG03,si,20260415-083217,1.0.2,20260219-152011,820,Practice,T1,1,Automatic,main,3,20260415-083249,local,global,300,H,H,E,E,E-H.png,H-E.png,hH,hH,mask-1.png,mask-3.png,h,1,1.4521128999767825,none,-5,0,0.049631699977908283,0.051192899991292506,0.09967199998209253,0.10186500003328547,0.30028799996944144
RSVPLG03,si,20260415-083217,1.0.2,20260219-152011,820,Practice,T1,1,Automatic,main,4,20260415-083254,global,global,300,H,S,A,E,H-A.png,S-E.png,hH,sS,mask-1.png,mask-3.png,h,1,1.28301630000351,none,-5,0,0.0500707000028342,0.049093700014054775,0.10079629998654127,0.09920390002662316,0.3004017999628559
RSVPLG03,si,20260415-083217,1.0.2,20260219-152011,820,Practice,T1,1,Automatic,main,5,20260415-083258,global,local,750,H,S,A,A,H-A.png,A-S.png,hH,sS,mask-3.png,mask-1.png,h,1,1.099920500011649,none,-5,0,0.04955679998965934,0.048772099951747805,0.10081109998282045,0.09979009995004162,0.752388900029473
RSVPLG03,si,20260415-083217,1.0.2,20260219-152011,820,Practice,T1,1,Automatic,main,6,20260415-083303,global,global,750,S,S,E,A,S-E.png,S-A.png,sS,sS,mask-2.png,mask-1.png,s,1,0.6180728999897838,none,-5,0,0.05006360000697896,0.04930159996729344,0.10054630000377074,0.09999550000065938,0.7514483000268228
RSVPLG03,si,20260415-083217,1.0.2,20260219-152011,820,Practice,T1,1,Automatic,main,7,20260415-083308,local,local,300,S,S,E,E,E-S.png,E-S.png,sS,sS,mask-1.png,mask-4.png,s,1,1.26728800003184,none,-5,0,0.04978820000542328,0.04964250000193715,0.1011032999958843,0.10165839997353032,0.3012299999827519
RSVPLG03,si,20260415-083217,1.0.2,20260219-152011,820,Practice,T1,1,Automatic,main,8,20260415-083313,local,local,750,S,S,A,E,A-S.png,E-S.png,sS,sS,mask-3.png,mask-2.png,s,1,0.42646630003582686,none,-5,0,0.04851689998758957,0.05015249998541549,0.09852389997104183,0.10024209995754063,0.750963700003922
RSVPLG03,si,20260415-083217,1.0.2,20260219-152011,820,Practice,T1,1,Automatic,main,9,20260415-083317,local,global,750,H,H,A,A,A-H.png,H-A.png,hH,hH,mask-2.png,mask-4.png,h,1,0.4985386999906041,none,-5,0,0.050194500014185905,0.050089600030332804,0.10025640000822023,0.09942460001911968,0.7535241000005044
RSVPLG03,si,20260415-083217,1.0.2,20260219-152011,820,Practice,T1,1,Automatic,main,10,20260415-083322,local,global,750,H,S,E,E,E-H.png,S-E.png,hH,sS,mask-1.png,mask-1.png,s,0,3.048566200013738,none,-5,0,0.05010659998515621,0.04871790000470355,0.10010509996209294,0.09883909998461604,0.7537837999989279
RSVPLG03,si,20260415-083217,1.0.2,20260219-152011,820,Practice,T1,1,Automatic,main,11,20260415-083329,local,local,750,H,H,A,A,A-H.png,A-H.png,hH,hH,mask-2.png,mask-2.png,h,1,1.796592700004112,none,-5,0,0.050077399995643646,0.04951250000158325,0.10114829998929054,0.10001689998898655,0.7544906999683008
RSVPLG03,si,20260415-083217,1.0.2,20260219-152011,820,Practice,T1,1,Automatic,main,12,20260415-083335,local,local,300,S,S,A,E,A-S.png,E-S.png,sS,sS,mask-1.png,mask-4.png,s,1,0.7645282000303268,none,-5,0,0.0496928000357002,0.04973500000778586,0.10080650000600144,0.09884039999451488,0.30086540000047535
RSVPLG03,si,20260415-083217,1.0.2,20260219-152011,820,Practice,T1,1,Automatic,main,13,20260415-083339,global,local,750,H,S,A,E,H-A.png,E-S.png,hH,sS,mask-1.png,mask-1.png,h,1,0.4689212000230327,none,-5,0,0.052037399960681796,0.049394599976949394,0.10176970000611618,0.10091929999180138,0.753306899976451
RSVPLG03,si,20260415-083217,1.0.2,20260219-152011,820,Practice,T1,1,Automatic,main,14,20260415-083343,global,local,300,S,S,E,E,S-E.png,E-S.png,sS,sS,mask-1.png,mask-4.png,s,1,0.6492916999850422,none,-5,0,0.049388599989470094,0.050562100019305944,0.10151270002825186,0.0997753000119701,0.301867600006517
RSVPLG03,si,20260415-083217,1.0.2,20260219-152011,820,Practice,T1,1,Automatic,main,15,20260415-083348,local,global,300,H,S,E,A,E-H.png,S-A.png,hH,sS,mask-3.png,mask-3.png,h,1,1.812996299995575,none,-5,0,0.049064200022257864,0.04923770000459626,0.10004900000058115,0.09939490002579987,0.301538800005801
RSVPLG03,si,20260415-083217,1.0.2,20260219-152011,820,Practice,T1,1,Automatic,main,16,20260415-083353,global,global,300,H,H,A,A,H-A.png,H-A.png,hH,hH,mask-3.png,mask-3.png,h,1,1.1306495000026189,none,-5,0,0.05010609998134896,0.051111800014041364,0.10158539999974892,0.1004203999764286,0.3016148000024259
RSVPLG03,si,20260415-083419,1.0.2,20260219-152011,820,Introduction,Both,1,Automatic,main,1,20260415-083438,local,local,750,S,S,A,A,A-S.png,A-S.png,sS,sS,mask-3.png,mask-1.png,s,1,5.833520399988629,s,1,1.4257060999516398,0.09616150002693757,0.0996136000030674,0.1963298000046052,0.19896289997268468,0.7463798000244424
RSVPLG03,si,20260415-083419,1.0.2,20260219-152011,820,Introduction,Both,1,Automatic,main,2,20260415-083450,local,global,750,S,S,E,E,E-S.png,S-E.png,sS,sS,mask-4.png,mask-1.png,s,1,2.49613019998651,h,0,3.2900129999616183,0.099663499975577,0.1008047999930568,0.2008106999564916,0.200561799982097,0.7486219999846071
RSVPLG03,si,20260415-083419,1.0.2,20260219-152011,820,Introduction,Both,1,Automatic,main,3,20260415-083500,global,global,750,H,H,E,E,H-E.png,H-E.png,hH,hH,mask-2.png,mask-4.png,h,1,1.2395498999976553,h,1,0.26308240002254024,0.09869930002605543,0.09886239998741075,0.1981167999911122,0.20066959998803213,0.7491748000029474
RSVPLG03,si,20260415-083419,1.0.2,20260219-152011,820,Introduction,Both,1,Automatic,main,4,20260415-083506,local,global,750,S,H,E,E,E-S.png,H-E.png,sS,hH,mask-1.png,mask-2.png,s,1,1.139431300049182,h,1,0.27911160001531243,0.09860999998636544,0.09920259995851666,0.19863599998643622,0.1997412999626249,0.7492839000187814
RSVPLG03,si,20260415-083419,1.0.2,20260219-152011,820,Introduction,Both,1,Automatic,main,5,20260415-083511,local,local,750,S,S,A,E,A-S.png,E-S.png,sS,sS,mask-1.png,mask-1.png,s,1,0.8943790000048466,s,1,0.2817005999968387,0.1004761999938637,0.09928930003661662,0.1992226999718696,0.20094370003789663,0.7489657999831252
RSVPLG03,si,20260415-083419,1.0.2,20260219-152011,820,Introduction,Both,1,Automatic,main,6,20260415-083517,global,global,750,H,S,A,A,H-A.png,S-A.png,hH,sS,mask-4.png,mask-3.png,h,1,0.9327173000201583,s,1,0.23071319999871776,0.10100270004477352,0.09787139995023608,0.20093099999940023,0.19900099997175857,0.751327800040599
RSVPLG03,si,20260415-083419,1.0.2,20260219-152011,820,Introduction,Both,1,Automatic,main,7,20260415-083522,global,local,750,H,S,E,A,H-E.png,A-S.png,hH,sS,mask-3.png,mask-2.png,h,1,3.420198099978734,h,0,1.410401999950409,0.1000911999726668,0.09871340001700446,0.1992012999835424,0.1987680000020191,0.7504582999972627
RSVPLG03,si,20260415-083419,1.0.2,20260219-152011,820,Introduction,Both,1,Automatic,main,8,20260415-083531,global,local,750,H,S,E,A,H-E.png,A-S.png,hH,sS,mask-4.png,mask-2.png,h,1,0.9519088000524789,s,1,0.18053879996296018,0.09985729999607429,0.0992538999998942,0.20132739999098703,0.1993432999588549,0.7498773999977857
RSVPLG03,si,20260415-083419,1.0.2,20260219-152011,820,Introduction,Both,1,Automatic,main,9,20260415-083537,local,global,750,H,S,E,A,E-H.png,S-A.png,hH,sS,mask-3.png,mask-4.png,h,1,2.660506699990947,h,0,3.6652022000052966,0.0996813999954611,0.09887230000458658,0.2005077000358142,0.199168200022541,0.7493885000003502
RSVPLG03,si,20260415-083419,1.0.2,20260219-152011,820,Introduction,Both,1,Automatic,main,10,20260415-083547,global,global,750,H,H,E,E,H-E.png,H-E.png,hH,hH,mask-4.png,mask-2.png,h,1,0.5433895000023767,h,1,0.16834629996446893,0.099446700012777,0.09855970001081005,0.1997912999941036,0.19994469999801368,0.7501607000012882
RSVPLG03,si,20260415-083419,1.0.2,20260219-152011,820,Introduction,Both,1,Automatic,main,11,20260415-083552,global,global,750,S,H,A,A,S-A.png,H-A.png,sS,hH,mask-3.png,mask-1.png,s,1,0.9928304000059143,h,1,0.2332936999737285,0.10171020001871511,0.09877340000821277,0.2003575999988243,0.19976849999511614,0.7492520000087097
RSVPLG03,si,20260415-083419,1.0.2,20260219-152011,820,Introduction,Both,1,Automatic,main,12,20260415-083558,local,local,750,S,S,E,E,E-S.png,E-S.png,sS,sS,mask-4.png,mask-3.png,s,1,0.4697893999982625,s,1,0.17971890000626445,0.10061829996993765,0.10026440001092851,0.20104799995897338,0.1989600000088103,0.7505004999693483
RSVPLG03,si,20260415-083419,1.0.2,20260219-152011,820,Introduction,Both,1,Automatic,main,13,20260415-083603,global,local,750,S,H,A,E,S-A.png,E-H.png,sS,hH,mask-2.png,mask-2.png,s,1,1.4112676999648102,h,1,0.209235499962233,0.09863679995760322,0.09906219999538735,0.1989099999773316,0.19858090003253892,0.7502003999543376
RSVPLG03,si,20260415-083419,1.0.2,20260219-152011,820,Introduction,Both,1,Automatic,main,14,20260415-083609,local,local,750,H,S,A,E,A-H.png,E-S.png,hH,sS,mask-3.png,mask-1.png,h,1,3.42359000002034,s,1,0.1743638000334613,0.09875199996167794,0.09941700001945719,0.19913579995045438,0.19804629997815937,0.7489642999717034
RSVPLG03,si,20260415-083419,1.0.2,20260219-152011,820,Introduction,Both,1,Automatic,main,15,20260415-083616,local,global,750,H,H,E,E,E-H.png,H-E.png,hH,hH,mask-3.png,mask-3.png,h,1,2.025613499979954,h,1,4.959611800033599,0.1004088000045158,0.098225400026422,0.1986087000113912,0.1991855999804102,0.7500555000151508
RSVPLG03,si,20260415-083419,1.0.2,20260219-152011,820,Introduction,Both,1,Automatic,main,16,20260415-083628,global,local,750,H,S,A,A,H-A.png,A-S.png,hH,sS,mask-4.png,mask-4.png,h,1,1.9527391999727115,h,0,0.1705035999766551,0.09850530000403523,0.09780899999896064,0.19959669996751472,0.19753110001329333,0.7509302999824286
RSVPLG03,si,20260415-083656,1.0.2,20260219-152011,820,Practice,Both,1,Automatic,main,1,20260415-083714,global,global,750,H,S,E,A,H-E.png,S-A.png,hH,sS,mask-1.png,mask-2.png,h,1,1.1041817999794148,s,1,0.4297317000455223,0.04533270001411438,0.04978320002555847,0.09506970003712922,0.09981129999505356,0.7461263000150211
RSVPLG03,si,20260415-083656,1.0.2,20260219-152011,820,Practice,Both,1,Automatic,main,2,20260415-083720,local,global,300,S,S,E,A,E-S.png,S-A.png,sS,sS,mask-3.png,mask-3.png,s,1,1.840872299973853,h,0,0.4987938000122085,0.049074499984271824,0.049535099999047816,0.09976029995596036,0.10140839999075979,0.298599399975501
RSVPLG03,si,20260415-083656,1.0.2,20260219-152011,820,Practice,Both,1,Automatic,main,3,20260415-083726,local,local,300,H,S,A,E,A-H.png,E-S.png,hH,sS,mask-2.png,mask-1.png,h,1,0.9534927000058815,s,1,0.04757330002030358,0.051028500020038337,0.05120480002369732,0.10081249999348074,0.10017739998875186,0.3003376999986358
RSVPLG03,si,20260415-083656,1.0.2,20260219-152011,820,Practice,Both,1,Automatic,main,4,20260415-083731,local,global,750,H,H,E,A,E-H.png,H-A.png,hH,hH,mask-2.png,mask-2.png,h,1,0.8713451999938115,h,1,0.11331359995529056,0.049890799971763045,0.04884659999515861,0.0990311999921687,0.09997759998077527,0.7497876000124961
RSVPLG03,si,20260415-083656,1.0.2,20260219-152011,820,Practice,Both,1,Automatic,main,5,20260415-083736,global,local,750,S,S,A,A,S-A.png,A-S.png,sS,sS,mask-4.png,mask-2.png,s,1,1.202765800000634,h,0,0.4823331999941729,0.04904750001151115,0.04996410000603646,0.09922189998906106,0.10121839999919757,0.7476916000014171
RSVPLG03,si,20260415-083656,1.0.2,20260219-152011,820,Practice,Both,1,Automatic,main,6,20260415-083742,local,local,300,S,H,E,E,E-S.png,E-H.png,sS,hH,mask-1.png,mask-1.png,s,1,5.7636218999978155,h,1,0.5933082000119612,0.05119050003122538,0.048492199974134564,0.10203469998668879,0.09752489998936653,0.30216740001924336
RSVPLG03,si,20260415-083656,1.0.2,20260219-152011,820,Practice,Both,1,Automatic,main,7,20260415-083752,local,global,750,H,H,E,A,E-H.png,H-A.png,hH,hH,mask-2.png,mask-1.png,h,1,0.8410895999986678,h,1,0.2102405999903567,0.050502600031904876,0.05046160001074895,0.10019660001853481,0.09888679999858141,0.7503867000341415
RSVPLG03,si,20260415-083656,1.0.2,20260219-152011,820,Practice,Both,1,Automatic,main,8,20260415-083757,global,global,300,H,H,E,A,H-E.png,H-A.png,hH,hH,mask-1.png,mask-2.png,h,1,1.5939406999968924,h,1,1.1772161000408232,0.050844800018239766,0.05007930001011118,0.09945969999535009,0.09953609999502078,0.29953800002112985
RSVPLG03,si,20260415-083656,1.0.2,20260219-152011,820,Practice,Both,1,Automatic,main,9,20260415-083804,global,local,750,H,H,E,E,H-E.png,E-H.png,hH,hH,mask-1.png,mask-1.png,h,1,0.896102000027895,s,0,0.1816220000036992,0.049907100037671626,0.04896729998290539,0.10073850001208484,0.09862070000963286,0.7496662000194192
RSVPLG03,si,20260415-083656,1.0.2,20260219-152011,820,Practice,Both,1,Automatic,main,10,20260415-083809,global,local,300,H,S,A,E,H-A.png,E-S.png,hH,sS,mask-1.png,mask-4.png,h,1,1.915233800013084,h,0,0.43429679999826476,0.05000729998573661,0.048938299994915724,0.0998562999884598,0.09968290000688285,0.30131229996914044
RSVPLG03,si,20260415-083656,1.0.2,20260219-152011,820,Practice,Both,1,Automatic,main,11,20260415-083815,global,global,750,H,S,A,E,H-A.png,S-E.png,hH,sS,mask-1.png,mask-2.png,h,1,0.5801178999827243,s,1,0.1975603000028059,0.04895780002698302,0.05113779997918755,0.0994475000188686,0.09993949998170137,0.7479698000242934
RSVPLG03,si,20260415-083656,1.0.2,20260219-152011,820,Practice,Both,1,Automatic,main,12,20260415-083820,local,global,300,H,S,A,A,A-H.png,S-A.png,hH,sS,mask-4.png,mask-2.png,h,1,0.9967653999920003,h,0,0.16187089995946735,0.050053899991326034,0.04767689999425784,0.09903169999597594,0.09781920001842082,0.30124449997674674
RSVPLG03,si,20260415-083656,1.0.2,20260219-152011,820,Practice,Both,1,Automatic,main,13,20260415-083825,local,local,750,H,S,A,E,A-H.png,E-S.png,hH,sS,mask-2.png,mask-1.png,h,1,0.22497079998720437,s,1,0.1153937999624759,0.04976710001938045,0.050097999977879226,0.10086609999416396,0.09968039998784661,0.7512440000427887
RSVPLG03,si,20260415-083656,1.0.2,20260219-152011,820,Practice,Both,1,Automatic,main,14,20260415-083829,global,global,300,H,S,E,E,H-E.png,S-E.png,hH,sS,mask-4.png,mask-1.png,h,1,1.620750100002624,s,1,0.23905410000588745,0.04869150003651157,0.04981430002953857,0.09968949999893084,0.1013278000173159,0.29951290000462905
RSVPLG03,si,20260415-083656,1.0.2,20260219-152011,820,Practice,Both,1,Automatic,main,15,20260415-083835,global,local,300,S,H,E,E,S-E.png,E-H.png,sS,hH,mask-2.png,mask-2.png,s,1,1.1342117000021972,h,1,0.1482626999495551,0.050461099948734045,0.05036910000490025,0.10215249995235354,0.1020966999931261,0.30017529998440295
RSVPLG03,si,20260415-083656,1.0.2,20260219-152011,820,Practice,Both,1,Automatic,main,16,20260415-083840,local,local,750,H,H,A,A,A-H.png,A-H.png,hH,hH,mask-3.png,mask-1.png,h,1,0.7447948000044562,h,1,0.13719290000153705,0.04896129999542609,0.049464199983049184,0.09974150004563853,0.09972880000714213,0.7496604000334628
RSVPLG03,si,20260415-084028,1.0.2,20260219-152011,820,Experiment,Both,1,Automatic,warmup,1,20260415-084049,global,global,750,S,H,A,A,S-A.png,H-A.png,sS,hH,mask-1.png,mask-4.png,s,1,1.3473619000287727,h,1,0.2584840999916196,0.037129699951037765,0.04888219997519627,0.08672409999417141,0.09730179997859523,0.7343889999901876
RSVPLG03,si,20260415-084028,1.0.2,20260219-152011,820,Experiment,Both,1,Automatic,warmup,2,20260415-084055,local,local,300,S,S,E,A,E-S.png,A-S.png,sS,sS,mask-4.png,mask-3.png,s,1,4.279839299968444,h,0,0.09367009997367859,0.05001290002837777,0.05092870001681149,0.09971129999030381,0.1004450999898836,0.29878519999329
RSVPLG03,si,20260415-084028,1.0.2,20260219-152011,820,Experiment,Both,1,Automatic,warmup,3,20260415-084103,local,global,300,H,H,E,A,E-H.png,H-A.png,hH,hH,mask-2.png,mask-3.png,h,1,0.8173995999968611,s,0,1.0488132000318728,0.05058979999739677,0.048895400017499924,0.09856210002908483,0.09896350000053644,0.29918309999629855
RSVPLG03,si,20260415-084028,1.0.2,20260219-152011,820,Experiment,Both,1,Automatic,warmup,4,20260415-084109,global,local,300,H,S,A,A,H-A.png,A-S.png,hH,sS,mask-3.png,mask-4.png,h,1,1.5129305999726057,h,0,0.24183059995993972,0.0505929000210017,0.05012999998871237,0.10058329999446869,0.09902629995485768,0.29907240002648905
RSVPLG03,si,20260415-084028,1.0.2,20260219-152011,820,Experiment,Both,1,Automatic,main,5,20260415-084114,global,local,300,S,S,E,A,S-E.png,A-S.png,sS,sS,mask-1.png,mask-1.png,s,1,0.8454940000083297,h,0,0.13572210003621876,0.049777999985963106,0.05069000000366941,0.09902120003243908,0.09952330001397058,0.29846530000213534
RSVPLG03,si,20260415-084028,1.0.2,20260219-152011,820,Experiment,Both,1,Automatic,main,6,20260415-084119,global,global,300,S,S,E,A,S-E.png,S-A.png,sS,sS,mask-1.png,mask-4.png,h,0,1.7204270000220276,s,1,0.15479170001344755,0.04951700003584847,0.050027300021611154,0.09881809999933466,0.09991650003939867,0.2980147000052966
RSVPLG03,si,20260415-084028,1.0.2,20260219-152011,820,Experiment,Both,1,Automatic,main,7,20260415-084124,local,local,750,H,H,E,A,E-H.png,A-H.png,hH,hH,mask-3.png,mask-3.png,h,1,4.027650600008201,s,0,0.23139569995692,0.049533499986864626,0.04893109999829903,0.09865549998357892,0.09798149997368455,0.7468838000204414
RSVPLG03,si,20260415-084028,1.0.2,20260219-152011,820,Experiment,Both,1,Automatic,main,8,20260415-084133,local,global,750,S,S,A,E,A-S.png,S-E.png,sS,sS,mask-1.png,mask-3.png,s,1,1.09009180002613,h,0,0.20056109997676685,0.04917289997683838,0.049307200009934604,0.0995524000027217,0.09957570000551641,0.7446627999888733
RSVPLG03,si,20260415-084028,1.0.2,20260219-152011,820,Experiment,Both,1,Automatic,main,9,20260415-084138,global,local,750,S,S,A,A,S-A.png,A-S.png,sS,sS,mask-4.png,mask-3.png,s,1,1.1878550999681465,h,0,1.6093186999787576,0.04871619999175891,0.050176699995063245,0.09873899997910485,0.09984940005233511,0.7462024999549612
RSVPLG03,si,20260415-084028,1.0.2,20260219-152011,820,Experiment,Both,1,Automatic,main,10,20260415-084145,local,local,750,H,S,A,E,A-H.png,E-S.png,hH,sS,mask-2.png,mask-2.png,h,1,1.5995042999857105,s,1,0.13794489996507764,0.050132500007748604,0.04877740005031228,0.09942589997081086,0.09817380004096776,0.7469154999707825
RSVPLG03,si,20260415-084028,1.0.2,20260219-152011,820,Experiment,Both,1,Automatic,main,11,20260415-084151,local,local,300,S,S,E,A,E-S.png,A-S.png,sS,sS,mask-3.png,mask-2.png,s,1,0.7258068000082858,s,1,0.1902422999846749,0.04931490001035854,0.05010600003879517,0.09819099999731407,0.09883140004239976,0.2980131999938749
RSVPLG03,si,20260415-084028,1.0.2,20260219-152011,820,Experiment,Both,1,Automatic,main,12,20260415-084155,local,global,300,S,H,A,A,A-S.png,H-A.png,sS,hH,mask-1.png,mask-2.png,s,1,0.5363802000065334,h,1,0.1666263000224717,0.05153960001189262,0.0483391999732703,0.09913729998515919,0.10005810001166537,0.29918370000086725
RSVPLG03,si,20260415-084028,1.0.2,20260219-152011,820,Experiment,Both,1,Automatic,main,13,20260415-084200,global,global,300,H,H,A,A,H-A.png,H-A.png,hH,hH,mask-2.png,mask-2.png,h,1,1.9776064999750815,s,0,0.2126873999950476,0.04963269998552278,0.04881609999574721,0.09805179998511449,0.09784619999118149,0.2982402999768965
RSVPLG03,si,20260415-084028,1.0.2,20260219-152011,820,Experiment,Both,1,Automatic,main,14,20260415-084206,global,global,750,S,S,E,E,S-E.png,S-E.png,sS,sS,mask-2.png,mask-1.png,s,1,0.6534991000080481,h,0,0.12197509995894507,0.04935260000638664,0.048038800014182925,0.09884079999756068,0.09829910000553355,0.7470168999861926
RSVPLG03,si,20260415-084028,1.0.2,20260219-152011,820,Experiment,Both,1,Automatic,main,15,20260415-084210,local,global,300,S,S,E,A,E-S.png,S-A.png,sS,sS,mask-1.png,mask-3.png,s,1,0.9936904000351205,h,0,0.18505519995233044,0.04992590000620112,0.04945869999937713,0.0989928999915719,0.10097400000086054,0.29902019997825846
RSVPLG03,si,20260415-084028,1.0.2,20260219-152011,820,Experiment,Both,1,Automatic,main,16,20260415-084215,local,local,300,H,H,A,E,A-H.png,E-H.png,hH,hH,mask-1.png,mask-3.png,s,0,2.792063099972438,h,1,0.2808579999837093,0.04963360005058348,0.04827640001894906,0.09853720001410693,0.09888430003775284,0.29931410000426695
RSVPLG03,si,20260415-084028,1.0.2,20260219-152011,820,Experiment,Both,1,Automatic,main,17,20260415-084222,global,local,750,S,H,E,A,S-E.png,A-H.png,sS,hH,mask-2.png,mask-3.png,s,1,1.0481223000097089,s,0,0.42831839999416843,0.05072549998294562,0.0504986000014469,0.09845130000030622,0.1006556999636814,0.7455358000006527
RSVPLG03,si,20260415-084028,1.0.2,20260219-152011,820,Experiment,Both,1,Automatic,main,18,20260415-084228,local,global,750,S,S,A,A,A-S.png,S-A.png,sS,sS,mask-2.png,mask-4.png,h,0,1.21101989998715,s,1,0.22273719997610897,0.05027350003365427,0.04980690003139898,0.10021290002623573,0.0997954000486061,0.7448634000029415
RSVPLG03,si,20260415-084028,1.0.2,20260219-152011,820,Experiment,Both,1,Automatic,main,19,20260415-084233,global,global,750,S,S,E,E,S-E.png,S-E.png,sS,sS,mask-1.png,mask-2.png,s,1,0.3774148999946192,s,1,1.1219207999529317,0.04968729999382049,0.05037269997410476,0.09962090000044554,0.1003400000045076,0.7443534000194632
RSVPLG03,si,20260415-084028,1.0.2,20260219-152011,820,Experiment,Both,1,Automatic,main,20,20260415-084239,local,global,750,H,S,A,A,A-H.png,S-A.png,hH,sS,mask-1.png,mask-3.png,h,1,1.033185800013598,h,0,0.2785611000144854,0.051409400010015815,0.05007789999945089,0.09992900001816452,0.10171259997878224,0.7470708000473678
RSVPLG03,si,20260415-084028,1.0.2,20260219-152011,820,Experiment,Both,1,Automatic,main,21,20260415-084244,global,global,300,S,H,E,E,S-E.png,H-E.png,sS,hH,mask-4.png,mask-4.png,h,0,1.2062239000224508,s,0,0.5131235999870114,0.049245000001974404,0.04885109997121617,0.09903440001653507,0.09986879996722564,0.2980723000364378
RSVPLG03,si,20260415-084028,1.0.2,20260219-152011,820,Experiment,Both,1,Automatic,main,22,20260415-084250,global,local,300,S,S,E,E,S-E.png,E-S.png,sS,sS,mask-4.png,mask-3.png,s,1,0.9067729000234976,s,1,0.24082750000525266,0.05131519999122247,0.049175399995874614,0.10018899996066466,0.09959090000484139,0.30043199995998293
RSVPLG03,si,20260415-084028,1.0.2,20260219-152011,820,Experiment,Both,1,Automatic,main,23,20260415-084255,global,local,300,S,S,E,A,S-E.png,A-S.png,sS,sS,mask-3.png,mask-2.png,s,1,0.6182223999639973,h,0,0.15277699998114258,0.05030609999084845,0.049741299997549504,0.09919320000335574,0.09987770003499463,0.2974803999532014
RSVPLG03,si,20260415-084028,1.0.2,20260219-152011,820,Experiment,Both,1,Automatic,main,24,20260415-084259,global,local,750,S,H,E,E,S-E.png,E-H.png,sS,hH,mask-1.png,mask-3.png,s,1,0.6704100000206381,h,1,0.627983000013046,0.04954149998957291,0.050227300031110644,0.10129369999049231,0.10031290003098547,0.7463426999747753
RSVPLG03,si,20260415-084028,1.0.2,20260219-152011,820,Experiment,Both,1,Automatic,main,25,20260415-084305,global,global,300,H,H,E,E,H-E.png,H-E.png,hH,hH,mask-1.png,mask-3.png,s,0,3.785562300006859,h,1,0.08889549999730662,0.05075639998540282,0.04809410002781078,0.1008117999881506,0.09837540000444278,0.3000507999677211
RSVPLG03,si,20260415-084028,1.0.2,20260219-152011,820,Experiment,Both,1,Automatic,main,26,20260415-084314,local,global,300,S,H,E,E,E-S.png,H-E.png,sS,hH,mask-2.png,mask-1.png,s,1,0.8334526999969967,h,1,0.2336432000156492,0.050566299993079156,0.0502320000086911,0.09960439999122173,0.1003152999910526,0.2992153000086546
RSVPLG03,si,20260415-084028,1.0.2,20260219-152011,820,Experiment,Both,1,Automatic,main,27,20260415-084318,global,local,750,S,S,E,E,S-E.png,E-S.png,sS,sS,mask-1.png,mask-1.png,s,1,0.599731599970255,s,1,0.17757739999797195,0.05008139996789396,0.05137489998014644,0.10003939998568967,0.09865499997977167,0.7462853000033647
RSVPLG03,si,20260415-084028,1.0.2,20260219-152011,820,Experiment,Both,1,Automatic,main,28,20260415-084323,global,global,750,S,S,E,A,S-E.png,S-A.png,sS,sS,mask-4.png,mask-2.png,s,1,0.38891249999869615,s,1,0.11313959996914491,0.05140110000502318,0.04954930004896596,0.10009999998146668,0.09930880001047626,0.7479603999527171
RSVPLG03,si,20260415-084028,1.0.2,20260219-152011,820,Experiment,Both,1,Automatic,main,29,20260415-084328,local,local,300,S,S,A,E,A-S.png,E-S.png,sS,sS,mask-4.png,mask-3.png,h,0,0.9177971999743022,s,1,0.047939500014763325,0.050959300016984344,0.0512624999973923,0.09878659999230877,0.09965899999951944,0.29750500002410263
RSVPLG03,si,20260415-084028,1.0.2,20260219-152011,820,Experiment,Both,1,Automatic,main,30,20260415-084332,global,local,750,H,H,E,E,H-E.png,E-H.png,hH,hH,mask-2.png,mask-1.png,h,1,0.611552299989853,s,0,0.09010939998552203,0.04872409999370575,0.04960969998501241,0.09999369998695329,0.09811299998546019,0.7467153000179678
RSVPLG03,si,20260415-084028,1.0.2,20260219-152011,820,Experiment,Both,1,Automatic,main,31,20260415-084337,global,global,300,S,H,A,E,S-A.png,H-E.png,sS,hH,mask-3.png,mask-3.png,s,1,0.867442500020843,h,1,0.28752449998864904,0.049963500001467764,0.04933469998650253,0.09913070005131885,0.10033009998733178,0.2989505000296049
RSVPLG03,si,20260415-084028,1.0.2,20260219-152011,820,Experiment,Both,1,Automatic,main,32,20260415-084342,local,global,750,S,H,A,E,A-S.png,H-E.png,sS,hH,mask-2.png,mask-4.png,s,1,0.5339815999614075,s,0,0.17050790000939742,0.047343899961560965,0.049077300005592406,0.09917289996519685,0.09743170003639534,0.745684799971059
RSVPLG03,si,20260415-084028,1.0.2,20260219-152011,820,Experiment,Both,1,Automatic,main,33,20260415-084347,local,local,750,S,S,A,A,A-S.png,A-S.png,sS,sS,mask-1.png,mask-4.png,h,0,1.2268454000004567,h,0,0.16120360000059009,0.04872449999675155,0.049633199989330024,0.0984296000096947,0.09967199998209253,0.7450926000019535
RSVPLG03,si,20260415-084028,1.0.2,20260219-152011,820,Experiment,Both,1,Automatic,main,34,20260415-084352,local,global,750,S,H,A,E,A-S.png,H-E.png,sS,hH,mask-3.png,mask-1.png,s,1,0.6772710999939591,h,1,1.5702818999998271,0.04815529996994883,0.04859929997473955,0.09805659996345639,0.09802139998646453,0.7474326000083238
RSVPLG03,si,20260415-084028,1.0.2,20260219-152011,820,Experiment,Both,1,Automatic,main,35,20260415-084359,local,global,300,H,S,A,E,A-H.png,S-E.png,hH,sS,mask-1.png,mask-1.png,h,1,0.7381552999722771,h,0,0.19221329997526482,0.04870079999091104,0.050633099977858365,0.09955559996888041,0.10204580001300201,0.29726349998963997
RSVPLG03,si,20260415-084028,1.0.2,20260219-152011,820,Experiment,Both,1,Automatic,main,36,20260415-084403,local,local,300,S,H,A,E,A-S.png,E-H.png,sS,hH,mask-4.png,mask-2.png,h,0,4.069119600055274,s,0,0.2498889999696985,0.04869610001333058,0.0489423000253737,0.09803589998045936,0.09943479998037219,0.29814189998432994
RSVPLG03,si,20260415-084028,1.0.2,20260219-152011,820,Experiment,Both,1,Automatic,main,37,20260415-084411,global,local,300,S,S,E,A,S-E.png,A-S.png,sS,sS,mask-1.png,mask-4.png,h,0,2.773816699977033,s,1,0.13057119998848066,0.04858299996703863,0.050139900005888194,0.09849489998305216,0.10029939998639748,0.2983227999648079
RSVPLG03,si,20260415-084028,1.0.2,20260219-152011,820,Experiment,Both,1,Automatic,main,38,20260415-084418,global,local,750,H,H,A,E,H-A.png,E-H.png,hH,hH,mask-4.png,mask-3.png,h,1,0.5970213999971747,s,0,0.1865832000039518,0.04883810004685074,0.049523099965881556,0.0987205000128597,0.09869549999712035,0.7462047000299208
RSVPLG03,si,20260415-084028,1.0.2,20260219-152011,820,Experiment,Both,1,Automatic,main,39,20260415-084423,local,local,300,H,H,A,E,A-H.png,E-H.png,hH,hH,mask-3.png,mask-4.png,h,1,1.0135663999826647,s,0,0.3221516999765299,0.049216800020076334,0.049930999986827374,0.09839549998287112,0.10132139996858314,0.2964965000282973
RSVPLG03,si,20260415-084028,1.0.2,20260219-152011,820,Experiment,Both,1,Automatic,main,40,20260415-084428,local,global,750,S,H,A,A,A-S.png,H-A.png,sS,hH,mask-2.png,mask-1.png,h,0,1.5556722999899648,h,1,0.23395119997439906,0.048853599990252405,0.04879650002112612,0.09927210002206266,0.10000719997333363,0.7470338999992236
RSVPLG03,si,20260415-084028,1.0.2,20260219-152011,820,Experiment,Both,1,Automatic,main,41,20260415-084434,global,local,750,S,H,E,E,S-E.png,E-H.png,sS,hH,mask-3.png,mask-3.png,s,1,0.9037722999928519,h,1,0.6101709000067785,0.04920529999071732,0.050683899957221,0.10126060002949089,0.10092979995533824,0.7468300000182353
RSVPLG03,si,20260415-084028,1.0.2,20260219-152011,820,Experiment,Both,1,Automatic,main,42,20260415-084439,local,global,300,H,H,A,E,A-H.png,H-E.png,hH,hH,mask-2.png,mask-4.png,h,1,0.8130462999688461,h,1,0.17798879998736084,0.04999339999631047,0.049130700004752725,0.10108860000036657,0.09742270002607256,0.3002965999767184
RSVPLG03,si,20260415-084028,1.0.2,20260219-152011,820,Experiment,Both,1,Automatic,main,43,20260415-084444,global,local,750,S,S,A,A,S-A.png,A-S.png,sS,sS,mask-2.png,mask-1.png,s,1,1.3165114000439644,h,0,0.1871947999461554,0.04968300001928583,0.04947949998313561,0.10006929998053238,0.09876309998799115,0.7472031000070274
RSVPLG03,si,20260415-084028,1.0.2,20260219-152011,820,Experiment,Both,1,Automatic,main,44,20260415-084450,global,local,750,H,S,E,A,H-E.png,A-S.png,hH,sS,mask-4.png,mask-4.png,h,1,0.4780306000029668,h,0,0.6285848999978043,0.048895400017499924,0.048754500050563365,0.0995398000231944,0.09809189999941736,0.7466736999922432
RSVPLG03,si,20260415-084028,1.0.2,20260219-152011,820,Experiment,Both,1,Automatic,main,45,20260415-084455,local,global,300,S,S,E,E,E-S.png,S-E.png,sS,sS,mask-3.png,mask-3.png,s,1,0.5078519000089727,h,0,0.08161639998434111,0.050616799970157444,0.04960700002266094,0.09903569996822625,0.09954979998292401,0.29727609996916726
RSVPLG03,si,20260415-084028,1.0.2,20260219-152011,820,Experiment,Both,1,Automatic,main,46,20260415-084459,local,global,750,H,H,A,E,A-H.png,H-E.png,hH,hH,mask-3.png,mask-2.png,h,1,0.55964990000939,h,1,0.11726410000119358,0.04782640002667904,0.053288299997802824,0.09944319998612627,0.09931709995726123,0.7445681000244804
RSVPLG03,si,20260415-084028,1.0.2,20260219-152011,820,Experiment,Both,1,Automatic,main,47,20260415-084504,local,global,750,S,S,E,A,E-S.png,S-A.png,sS,sS,mask-2.png,mask-2.png,s,1,0.5722010000026785,h,0,0.08269700000528246,0.0478677999926731,0.050086400005966425,0.0968639999628067,0.10020009998697788,0.7447764999815263
RSVPLG03,si,20260415-084028,1.0.2,20260219-152011,820,Experiment,Both,1,Automatic,main,48,20260415-084508,local,local,750,S,H,A,A,A-S.png,A-H.png,sS,hH,mask-2.png,mask-1.png,h,0,0.41015989996958524,h,1,0.3016261999728158,0.049787099997047335,0.052044900017790496,0.09839939995435998,0.10012489999644458,0.7455559999798425
RSVPLG03,si,20260415-084028,1.0.2,20260219-152011,820,Experiment,Both,1,Automatic,main,49,20260415-084513,global,global,300,S,H,E,A,S-E.png,H-A.png,sS,hH,mask-2.png,mask-3.png,s,1,0.6438192999921739,h,1,0.1606739000417292,0.050053899991326034,0.04799549997551367,0.09900759998708963,0.09923280001385137,0.29900489997817203
RSVPLG03,si,20260415-084028,1.0.2,20260219-152011,820,Experiment,Both,1,Automatic,main,50,20260415-084518,local,local,750,S,H,E,E,E-S.png,E-H.png,sS,hH,mask-2.png,mask-2.png,s,1,0.6875240000081249,h,1,0.09358029998838902,0.04928119998658076,0.05106550001073629,0.09900119999656454,0.10171230003470555,0.7449814999708906
RSVPLG03,si,20260415-084028,1.0.2,20260219-152011,820,Experiment,Both,1,Automatic,main,51,20260415-084523,local,local,300,S,H,A,A,A-S.png,A-H.png,sS,hH,mask-3.png,mask-4.png,s,1,0.6855272999964654,h,1,0.1624603999662213,0.04831340000964701,0.049868500034790486,0.09843860002001747,0.09960950003005564,0.2978247000137344
RSVPLG03,si,20260415-084028,1.0.2,20260219-152011,820,Experiment,Both,1,Automatic,main,52,20260415-084528,global,local,750,S,S,E,E,S-E.png,E-S.png,sS,sS,mask-3.png,mask-4.png,s,1,0.7038612000178546,s,1,0.13769760000286624,0.050094000005628914,0.05111560004297644,0.10137940000277013,0.09945170005084947,0.7459643000038341
RSVPLG03,si,20260415-084028,1.0.2,20260219-152011,820,Experiment,Both,1,Automatic,main,53,20260415-084533,local,global,750,S,S,A,E,A-S.png,S-E.png,sS,sS,mask-4.png,mask-3.png,s,1,0.5622977000311948,h,0,0.11210620001656935,0.04760670004179701,0.047668600047472864,0.100178099994082,0.09777500003110617,0.7466359999962151
RSVPLG03,si,20260415-084028,1.0.2,20260219-152011,820,Experiment,Both,1,Automatic,main,54,20260415-084537,global,local,300,H,S,E,A,H-E.png,A-S.png,hH,sS,mask-2.png,mask-1.png,h,1,1.477948900021147,h,0,0.19451030000345781,0.04950050002662465,0.051285199995618314,0.0994660000433214,0.0995894999941811,0.29830170003697276
RSVPLG03,si,20260415-084028,1.0.2,20260219-152011,820,Experiment,Both,1,Automatic,main,55,20260415-084543,global,local,300,H,S,E,A,H-E.png,A-S.png,hH,sS,mask-1.png,mask-4.png,h,1,0.6291649999911897,s,1,0.9524197000428103,0.051228799973614514,0.04955719999270514,0.09901369997533038,0.09772229997906834,0.2993418999831192
RSVPLG03,si,20260415-084028,1.0.2,20260219-152011,820,Experiment,Both,1,Automatic,main,56,20260415-084548,global,global,300,S,H,E,E,S-E.png,H-E.png,sS,hH,mask-1.png,mask-4.png,s,1,0.6107375000137836,s,0,0.6417408999986947,0.050415200006682426,0.05130229995120317,0.10095039999578148,0.09974279999732971,0.2974817000213079
RSVPLG03,si,20260415-084028,1.0.2,20260219-152011,820,Experiment,Both,1,Automatic,main,57,20260415-084553,local,local,750,H,H,E,A,E-H.png,A-H.png,hH,hH,mask-4.png,mask-2.png,h,1,2.0357618000125512,h,1,0.26358470000559464,0.04926460003480315,0.05139949999283999,0.09896490001119673,0.10134719999041408,0.7453195000416599
RSVPLG03,si,20260415-084028,1.0.2,20260219-152011,820,Experiment,Both,1,Automatic,main,58,20260415-084559,local,global,300,S,S,A,E,A-S.png,S-E.png,sS,sS,mask-2.png,mask-4.png,s,1,0.7311297999694943,h,0,0.2896136000053957,0.048160400008782744,0.04925410001305863,0.09727120003663003,0.09897580003598705,0.29685300000710413
RSVPLG03,si,20260415-084028,1.0.2,20260219-152011,820,Experiment,Both,1,Automatic,main,59,20260415-084604,local,global,300,H,S,A,E,A-H.png,S-E.png,hH,sS,mask-2.png,mask-2.png,s,0,1.064512700017076,h,0,1.253845699946396,0.05048219999298453,0.05116600001929328,0.10160150000592694,0.10080339998239651,0.29865150002297014
RSVPLG03,si,20260415-084028,1.0.2,20260219-152011,820,Experiment,Both,1,Automatic,main,60,20260415-084610,global,local,300,S,S,E,E,S-E.png,E-S.png,sS,sS,mask-3.png,mask-4.png,s,1,0.493073399993591,s,1,0.1348736999789253,0.04922480002278462,0.04986799997277558,0.09991560003254563,0.09990859997924417,0.2995756000163965
RSVPLG03,si,20260415-084028,1.0.2,20260219-152011,820,Experiment,Both,1,Automatic,main,61,20260415-084614,global,global,750,S,S,E,A,S-E.png,S-A.png,sS,sS,mask-1.png,mask-1.png,s,1,0.4152373000397347,s,1,0.1271233999868855,0.048198799951933324,0.04991870000958443,0.0980806999723427,0.09878320002462715,0.7449340999592096
RSVPLG03,si,20260415-084028,1.0.2,20260219-152011,820,Experiment,Both,1,Automatic,main,62,20260415-084619,local,local,300,S,H,A,A,A-S.png,A-H.png,sS,hH,mask-1.png,mask-2.png,s,1,0.8594146000104956,s,0,0.17596010002307594,0.04987109999638051,0.04952209995826706,0.09852509998017922,0.09884719998808578,0.2975810000207275
RSVPLG03,si,20260415-084028,1.0.2,20260219-152011,820,Experiment,Both,1,Automatic,main,63,20260415-084624,local,global,750,S,H,A,E,A-S.png,H-E.png,sS,hH,mask-3.png,mask-2.png,s,1,0.5453319000080228,s,0,0.1677730000228621,0.05028969998238608,0.049012500036042184,0.10166360001312569,0.10034280002582818,0.7461829999811016
RSVPLG03,si,20260415-084028,1.0.2,20260219-152011,820,Experiment,Both,1,Automatic,main,64,20260415-084628,global,global,750,S,H,A,E,S-A.png,H-E.png,sS,hH,mask-4.png,mask-1.png,s,1,0.6316016999771819,h,1,0.1229522000066936,0.050049200013745576,0.04847389995120466,0.10018250002758577,0.09861069999169558,0.7479397000279278
RSVPLG03,si,20260415-084028,1.0.2,20260219-152011,820,Experiment,Both,1,Automatic,main,65,20260415-084633,global,global,300,H,H,E,A,H-E.png,H-A.png,hH,hH,mask-1.png,mask-2.png,h,1,0.5885826000012457,h,1,0.09877450001658872,0.04985149996355176,0.04969549999805167,0.09909829997923225,0.1005066999932751,0.29761429998325184
RSVPLG03,si,20260415-084028,1.0.2,20260219-152011,820,Experiment,Both,1,Automatic,main,66,20260415-084637,global,local,750,H,H,A,A,H-A.png,A-H.png,hH,hH,mask-4.png,mask-2.png,h,1,0.6231495999963954,h,1,0.31409909995272756,0.04877310001756996,0.050502600031904876,0.09870989999035373,0.1009800000465475,0.7454349999898113
RSVPLG03,si,20260415-084028,1.0.2,20260219-152011,820,Experiment,Both,1,Automatic,main,67,20260415-084643,global,local,300,H,S,E,E,H-E.png,E-S.png,hH,sS,mask-4.png,mask-4.png,h,1,0.5881300999899395,s,1,0.48939480003900826,0.05138600000645965,0.05125299998326227,0.10055809997720644,0.10009860002901405,0.29958049999549985
RSVPLG03,si,20260415-084028,1.0.2,20260219-152011,820,Experiment,Both,1,Automatic,main,68,20260415-084647,global,global,750,H,H,A,E,H-A.png,H-E.png,hH,hH,mask-3.png,mask-2.png,h,1,0.34716330002993345,h,1,0.11213079997105524,0.049532200035173446,0.04956600000150502,0.1007312000147067,0.09984629997052252,0.7467078000190668
RSVPLG03,si,20260415-084028,1.0.2,20260219-152011,820,Experiment,Both,1,Automatic,main,69,20260415-084652,global,global,300,S,H,E,E,S-E.png,H-E.png,sS,hH,mask-2.png,mask-3.png,s,1,0.5567959999898449,h,1,0.1297428000252694,0.05011500004911795,0.05016969999996945,0.10039440001128241,0.09929230000125244,0.29905030003283173
RSVPLG03,si,20260415-084028,1.0.2,20260219-152011,820,Experiment,Both,1,Automatic,main,70,20260415-084656,global,local,300,H,S,A,A,H-A.png,A-S.png,hH,sS,mask-4.png,mask-2.png,h,1,0.49345830001402646,h,0,0.14625640003941953,0.04979550000280142,0.050324699957855046,0.10030940000433475,0.10012590000405908,0.2990745000424795
RSVPLG03,si,20260415-084028,1.0.2,20260219-152011,820,Experiment,Both,1,Automatic,main,71,20260415-084700,local,global,300,H,H,A,A,A-H.png,H-A.png,hH,hH,mask-2.png,mask-4.png,h,1,0.5755283000180498,h,1,0.08079540001926944,0.04902059998130426,0.04954000003635883,0.09899809997295961,0.09978680004132912,0.29799299995647743
RSVPLG03,si,20260415-084028,1.0.2,20260219-152011,820,Experiment,Both,1,Automatic,main,72,20260415-084705,local,global,300,H,S,A,E,A-H.png,S-E.png,hH,sS,mask-2.png,mask-3.png,h,1,1.4237074999837205,h,0,0.16804880002746359,0.04818449995946139,0.05033999995794147,0.09908099996391684,0.10023380001075566,0.2968739999923855
RSVPLG03,si,20260415-084028,1.0.2,20260219-152011,820,Experiment,Both,1,Automatic,main,73,20260415-084710,global,global,750,S,S,E,E,S-E.png,S-E.png,sS,sS,mask-4.png,mask-1.png,s,1,0.5076599000021815,s,1,0.0910073000122793,0.04762169998139143,0.049646099971141666,0.09753560001263395,0.09868830000050366,0.7455652999924496
RSVPLG03,si,20260415-084028,1.0.2,20260219-152011,820,Experiment,Both,1,Automatic,main,74,20260415-084715,global,local,750,H,S,E,E,H-E.png,E-S.png,hH,sS,mask-3.png,mask-1.png,h,1,0.5447144999634475,s,1,0.0691400000359863,0.050254000001586974,0.051485100004356354,0.09994869999354705,0.10009919997537509,0.7461897000321187
RSVPLG03,si,20260415-084028,1.0.2,20260219-152011,820,Experiment,Both,1,Automatic,main,75,20260415-084719,global,global,300,H,H,A,A,H-A.png,H-A.png,hH,hH,mask-1.png,mask-2.png,h,1,0.3659544000402093,h,1,0.11194390000309795,0.04962609999347478,0.050089499971363693,0.09840100002475083,0.09936549997655675,0.2989015000057407
RSVPLG03,si,20260415-084028,1.0.2,20260219-152011,820,Experiment,Both,1,Automatic,main,76,20260415-084724,local,local,300,H,H,E,E,E-H.png,E-H.png,hH,hH,mask-1.png,mask-1.png,h,1,1.0753684000228532,h,1,0.560972600011155,0.04885570000624284,0.04996420000679791,0.09798840002622455,0.09723790001589805,0.29920000000856817
RSVPLG03,si,20260415-084028,1.0.2,20260219-152011,820,Experiment,Both,1,Automatic,main,77,20260415-084730,local,local,750,S,H,A,A,A-S.png,A-H.png,sS,hH,mask-2.png,mask-3.png,s,1,0.39559949998511,h,1,0.0639318999601528,0.04963190003763884,0.049932099995203316,0.1003025000100024,0.1014951000106521,0.745094700017944
RSVPLG03,si,20260415-084028,1.0.2,20260219-152011,820,Experiment,Both,1,Automatic,main,78,20260415-084734,local,global,300,H,S,A,E,A-H.png,S-E.png,hH,sS,mask-4.png,mask-1.png,h,1,0.500435900001321,h,0,0.08966830000281334,0.05110309994779527,0.05079969996586442,0.10155299998586997,0.09914050000952557,0.2990752999903634
RSVPLG03,si,20260415-084028,1.0.2,20260219-152011,820,Experiment,Both,1,Automatic,main,79,20260415-084738,local,local,750,H,S,E,E,E-H.png,E-S.png,hH,sS,mask-1.png,mask-2.png,h,1,0.4986434999736957,h,0,0.01130469999043271,0.0498894999618642,0.0499153999844566,0.10010129999136552,0.09979189996374771,0.7464844000060111
RSVPLG03,si,20260415-084028,1.0.2,20260219-152011,820,Experiment,Both,1,Automatic,main,80,20260415-084743,local,local,300,S,S,A,E,A-S.png,E-S.png,sS,sS,mask-3.png,mask-3.png,s,1,0.24063310003839433,s,1,0.04835840000305325,0.04977139999391511,0.050904400006402284,0.10040549997938797,0.1015305999899283,0.297649200016167
RSVPLG03,si,20260415-084028,1.0.2,20260219-152011,820,Experiment,Both,1,Automatic,main,81,20260415-084747,local,global,750,H,S,E,A,E-H.png,S-A.png,hH,sS,mask-2.png,mask-2.png,h,1,0.977690799976699,h,0,0.2800314999767579,0.05118010001024231,0.04991050000535324,0.09959280001930892,0.10104979999596253,0.7469416999956593
RSVPLG03,si,20260415-084028,1.0.2,20260219-152011,820,Experiment,Both,1,Automatic,main,82,20260415-084752,local,local,750,H,S,A,A,A-H.png,A-S.png,hH,sS,mask-1.png,mask-4.png,h,1,0.29602589999558404,s,1,0.03768639999907464,0.048447699984535575,0.05015559995081276,0.10040189995197579,0.09919239999726415,0.7456281000049785
RSVPLG03,si,20260415-084028,1.0.2,20260219-152011,820,Experiment,Both,1,Automatic,main,83,20260415-084757,local,global,300,S,S,A,A,A-S.png,S-A.png,sS,sS,mask-4.png,mask-1.png,s,1,0.5644273000070825,h,0,0.05644440004834905,0.049514399957843125,0.051356300013139844,0.10045399999944493,0.09908730001188815,0.298599399975501
RSVPLG03,si,20260415-084028,1.0.2,20260219-152011,820,Experiment,Both,1,Automatic,main,84,20260415-084801,global,global,750,H,H,E,E,H-E.png,H-E.png,hH,hH,mask-2.png,mask-2.png,h,1,0.7735165999620222,h,1,0.037463199987541884,0.04902510001556948,0.05046959995524958,0.0984347999910824,0.09993119997670874,0.744965800025966
RSVPLG03,si,20260415-084028,1.0.2,20260219-152011,820,Experiment,Both,1,Automatic,main,85,20260415-084806,local,local,750,H,H,E,A,E-H.png,A-H.png,hH,hH,mask-2.png,mask-2.png,h,1,0.23947129998123273,h,1,0.08924760000081733,0.04995199997210875,0.048268700018525124,0.09927150001749396,0.09896450000815094,0.7472982999752276
RSVPLG03,si,20260415-084028,1.0.2,20260219-152011,820,Experiment,Both,1,Automatic,main,86,20260415-084810,local,global,750,H,S,A,A,A-H.png,S-A.png,hH,sS,mask-4.png,mask-1.png,h,1,0.9670627999585122,s,1,0.06532210001023486,0.047771899960935116,0.04833860002690926,0.09906969999428838,0.09824090002803132,0.7461579999653623
RSVPLG03,si,20260415-084028,1.0.2,20260219-152011,820,Experiment,Both,1,Automatic,main,87,20260415-084815,local,local,300,S,S,E,E,E-S.png,E-S.png,sS,sS,mask-3.png,mask-3.png,s,1,0.4065847000456415,s,1,0.10741569998208433,0.048768999986350536,0.05149310000706464,0.10060509998584166,0.10157310002250597,0.29747069999575615
RSVPLG03,si,20260415-084028,1.0.2,20260219-152011,820,Experiment,Both,1,Automatic,main,88,20260415-084819,local,local,300,H,H,A,E,A-H.png,E-H.png,hH,hH,mask-2.png,mask-4.png,h,1,0.44536689994856715,h,1,0.08293049997882918,0.05017270002281293,0.048587199999019504,0.09920789999887347,0.09820259996922687,0.2999491000082344
RSVPLG03,si,20260415-084028,1.0.2,20260219-152011,820,Experiment,Both,1,Automatic,main,89,20260415-084823,global,global,750,H,S,A,E,H-A.png,S-E.png,hH,sS,mask-3.png,mask-3.png,h,1,0.28363240003818646,s,1,0.05633379996288568,0.04835540003841743,0.05087959999218583,0.09837020002305508,0.0999557999894023,0.7447986000333913
RSVPLG03,si,20260415-084028,1.0.2,20260219-152011,820,Experiment,Both,1,Automatic,main,90,20260415-084828,global,global,300,H,H,E,E,H-E.png,H-E.png,hH,hH,mask-3.png,mask-1.png,h,1,0.7090955000021495,h,1,0.0793734000180848,0.05063200002769008,0.04828879999695346,0.10102140001254156,0.0991661999723874,0.30034230003366247
RSVPLG03,si,20260415-084028,1.0.2,20260219-152011,820,Experiment,Both,1,Automatic,main,91,20260415-084832,global,local,300,S,S,E,E,S-E.png,E-S.png,sS,sS,mask-4.png,mask-3.png,s,1,0.5293397000059485,s,1,0.12907829997129738,0.04986659996211529,0.04990220000036061,0.09979750000638887,0.10217019997071475,0.2982118999934755
RSVPLG03,si,20260415-084028,1.0.2,20260219-152011,820,Experiment,Both,1,Automatic,main,92,20260415-084836,global,local,300,H,S,A,E,H-A.png,E-S.png,hH,sS,mask-3.png,mask-3.png,h,1,0.45641559996875003,s,1,0.8176150999497622,0.050966400012839586,0.04958220000844449,0.09854470001300797,0.09793150000041351,0.2992415999760851
RSVPLG03,si,20260415-084028,1.0.2,20260219-152011,820,Experiment,Both,1,Automatic,main,93,20260415-084841,global,global,750,H,H,E,A,H-E.png,H-A.png,hH,hH,mask-2.png,mask-2.png,h,1,0.3367968999664299,h,1,0.08271290000993758,0.051289299968630075,0.047387099999468774,0.10044209996704012,0.09790569997858256,0.750510599988047
RSVPLG03,si,20260415-084028,1.0.2,20260219-152011,820,Experiment,Both,1,Automatic,main,94,20260415-084846,global,local,300,H,H,E,E,H-E.png,E-H.png,hH,hH,mask-1.png,mask-1.png,h,1,0.5449356000171974,s,0,0.5449824999668635,0.049486099975183606,0.050877299974672496,0.09818699996685609,0.1001162999891676,0.29688889998942614
RSVPLG03,si,20260415-084028,1.0.2,20260219-152011,820,Experiment,Both,1,Automatic,main,95,20260415-084850,global,global,750,S,H,A,A,S-A.png,H-A.png,sS,hH,mask-2.png,mask-1.png,s,1,0.4147994000231847,h,1,0.07358529994962737,0.04975780000677332,0.050961900036782026,0.0999188999994658,0.10154699999839067,0.7456247999798506
RSVPLG03,si,20260415-084028,1.0.2,20260219-152011,820,Experiment,Both,1,Automatic,main,96,20260415-084855,local,local,750,S,S,A,E,A-S.png,E-S.png,sS,sS,mask-2.png,mask-1.png,h,0,0.5574285000329837,s,1,0.02541109995217994,0.04952860000776127,0.051301500003319234,0.10095370002090931,0.09983819996705279,0.7458280000137165
RSVPLG03,si,20260415-084028,1.0.2,20260219-152011,820,Experiment,Both,1,Automatic,main,97,20260415-084859,local,local,750,S,S,E,E,E-S.png,E-S.png,sS,sS,mask-2.png,mask-3.png,s,1,0.23405730002559721,s,1,0.10309709998546168,0.05057570000644773,0.048000300012063235,0.10028660000534728,0.09873899997910485,0.7476554000168107
RSVPLG03,si,20260415-084028,1.0.2,20260219-152011,820,Experiment,Both,1,Automatic,main,98,20260415-084904,local,local,300,H,H,E,A,E-H.png,A-H.png,hH,hH,mask-1.png,mask-3.png,h,1,1.2604663000092842,s,0,0.35028949996922165,0.050284900004044175,0.05001800000900403,0.10089359997073188,0.09912480000639334,0.29969339998206124
RSVPLG03,si,20260415-084028,1.0.2,20260219-152011,820,Experiment,Both,1,Automatic,main,99,20260415-084909,global,global,300,H,S,E,A,H-E.png,S-A.png,hH,sS,mask-2.png,mask-3.png,h,1,0.4013169999816455,s,1,0.01647859998047352,0.050982900022063404,0.05063440004596487,0.09844319999683648,0.10126409999793395,0.2974753999733366
RSVPLG03,si,20260415-084028,1.0.2,20260219-152011,820,Experiment,Both,1,Automatic,main,100,20260415-084913,global,global,750,S,S,A,A,S-A.png,S-A.png,sS,sS,mask-3.png,mask-2.png,s,1,0.3704980000038631,s,1,0.08916500001214445,0.048584100033622235,0.04907639999873936,0.09933190001174808,0.09945799998240545,0.7445976000162773
RSVPLG03,si,20260415-085003,1.0.2,20260219-152011,820,Experiment,Both,1,Automatic,warmup,1,20260415-085028,global,local,300,H,S,E,A,H-E.png,A-S.png,hH,sS,mask-4.png,mask-2.png,h,1,1.1567430999712087,h,0,0.08886010001879185,0.03852639999240637,0.0503803999745287,0.089858399995137,0.10083409998333082,0.28882409998914227
RSVPLG03,si,20260415-085003,1.0.2,20260219-152011,820,Experiment,Both,1,Automatic,warmup,2,20260415-085033,local,local,750,H,H,E,E,E-H.png,E-H.png,hH,hH,mask-3.png,mask-1.png,h,1,0.3083922999794595,h,1,0.019170999992638826,0.04914509999798611,0.05034750001505017,0.100289799971506,0.10088169999653473,0.748315199976787
RSVPLG03,si,20260415-085003,1.0.2,20260219-152011,820,Experiment,Both,1,Automatic,warmup,3,20260415-085038,global,local,750,S,S,A,E,S-A.png,E-S.png,sS,sS,mask-3.png,mask-3.png,s,1,0.6436411999748088,h,0,1.1042366999899969,0.051237599982414395,0.04874739999650046,0.10015230003045872,0.09819340001558885,0.7511382999946363
RSVPLG03,si,20260415-085003,1.0.2,20260219-152011,820,Experiment,Both,1,Automatic,warmup,4,20260415-085043,global,global,300,H,H,E,E,H-E.png,H-E.png,hH,hH,mask-4.png,mask-3.png,h,1,0.5437008999870159,h,1,0.07155870000133291,0.05003039998700842,0.04777030000695959,0.10083199996734038,0.09949140000389889,0.30082179995952174
RSVPLG03,si,20260415-085003,1.0.2,20260219-152011,820,Experiment,Both,1,Automatic,main,5,20260415-085048,local,local,750,S,H,A,A,A-S.png,A-H.png,sS,hH,mask-3.png,mask-3.png,h,0,1.2266492000198923,h,1,0.09290270000929013,0.05011029995512217,0.05015710002044216,0.10119599994504824,0.10158380004577339,0.7498637999524362
RSVPLG03,si,20260415-085003,1.0.2,20260219-152011,820,Experiment,Both,1,Automatic,main,6,20260415-085053,local,global,300,S,S,E,A,E-S.png,S-A.png,sS,sS,mask-4.png,mask-2.png,s,1,0.6694307000143453,h,0,0.05651259998558089,0.049028699984773993,0.050068599986843765,0.10017409996362403,0.09841819998109713,0.3003233000054024
RSVPLG03,si,20260415-085003,1.0.2,20260219-152011,820,Experiment,Both,1,Automatic,main,7,20260415-085057,global,local,300,S,H,E,A,S-E.png,A-H.png,sS,hH,mask-1.png,mask-3.png,s,1,0.5342053000349551,h,1,0.042434100003447384,0.048158999998122454,0.048960399988573045,0.09888179996050894,0.0990176000050269,0.29844399995636195
RSVPLG03,si,20260415-085003,1.0.2,20260219-152011,820,Experiment,Both,1,Automatic,main,8,20260415-085102,global,global,300,H,H,A,A,H-A.png,H-A.png,hH,hH,mask-1.png,mask-4.png,h,1,0.31678370002191514,h,1,0.07356920000165701,0.05042529996717349,0.04937399999471381,0.09910309995757416,0.09953609999502078,0.29891959996894
RSVPLG03,si,20260415-085003,1.0.2,20260219-152011,820,Experiment,Both,1,Automatic,main,9,20260415-085106,global,global,300,S,S,E,E,S-E.png,S-E.png,sS,sS,mask-2.png,mask-2.png,s,1,0.36102650000248104,s,1,0.11229029996320605,0.050199000048451126,0.05042809998849407,0.10074439999880269,0.09978869999758899,0.29918840003665537
RSVPLG03,si,20260415-085003,1.0.2,20260219-152011,820,Experiment,Both,1,Automatic,main,10,20260415-085110,global,local,750,H,S,A,A,H-A.png,A-S.png,hH,sS,mask-1.png,mask-4.png,h,1,1.214404900034424,h,0,0.07367289997637272,0.04895710002165288,0.050040600006468594,0.09972270001890138,0.10084369999822229,0.7478134999983013
RSVPLG03,si,20260415-085003,1.0.2,20260219-152011,820,Experiment,Both,1,Automatic,main,11,20260415-085115,local,global,300,S,S,E,E,E-S.png,S-E.png,sS,sS,mask-3.png,mask-3.png,s,1,0.3626263999613002,s,1,0.10591500002192333,0.04867240000749007,0.04996450000908226,0.09894319996237755,0.09955869999248534,0.2992567999754101
RSVPLG03,si,20260415-085003,1.0.2,20260219-152011,820,Experiment,Both,1,Automatic,main,12,20260415-085119,local,local,750,H,S,E,E,E-H.png,E-S.png,hH,sS,mask-2.png,mask-3.png,h,1,0.3392605999833904,s,1,0.2165658000158146,0.051102800003718585,0.049491000012494624,0.10147060005692765,0.10139789996901527,0.7503035000409
RSVPLG03,si,20260415-085003,1.0.2,20260219-152011,820,Experiment,Both,1,Automatic,main,13,20260415-085124,global,local,300,H,H,A,A,H-A.png,A-H.png,hH,hH,mask-2.png,mask-1.png,h,1,0.48373100004391745,h,1,0.09797409997554496,0.05013779998989776,0.04757729999255389,0.10013189999153838,0.09755140001652762,0.3012237999937497
RSVPLG03,si,20260415-085003,1.0.2,20260219-152011,820,Experiment,Both,1,Automatic,main,14,20260415-085128,global,local,750,S,S,A,E,S-A.png,E-S.png,sS,sS,mask-2.png,mask-1.png,s,1,0.42770340002607554,s,1,0.10294150002300739,0.049994400003924966,0.05007340002339333,0.0983093999675475,0.10065420001046732,0.7481148999650031
RSVPLG03,si,20260415-085003,1.0.2,20260219-152011,820,Experiment,Both,1,Automatic,main,15,20260415-085132,local,global,300,H,S,A,E,A-H.png,S-E.png,hH,sS,mask-2.png,mask-4.png,s,0,1.9734175000339746,h,0,0.011308800021652132,0.047702400013804436,0.04885850002756342,0.0986716000479646,0.0983301000087522,0.2990334000205621
RSVPLG03,si,20260415-085003,1.0.2,20260219-152011,820,Experiment,Both,1,Automatic,main,16,20260415-085138,local,local,750,H,S,A,E,A-H.png,E-S.png,hH,sS,mask-2.png,mask-2.png,h,1,0.23049470002297312,s,1,0.0011849000002257526,0.050647999974898994,0.049975500034634024,0.10115399997448549,0.10100929997861385,0.7499435999779962
RSVPLG03,si,20260415-085003,1.0.2,20260219-152011,820,Experiment,Both,1,Automatic,main,17,20260415-085142,local,local,300,H,H,A,E,A-H.png,E-H.png,hH,hH,mask-4.png,mask-1.png,h,1,1.4657203000388108,s,0,0.024358300026506186,0.05040670000016689,0.04910030000610277,0.10061999998288229,0.09914230002323166,0.30071689997566864
RSVPLG03,si,20260415-085003,1.0.2,20260219-152011,820,Experiment,Both,1,Automatic,main,18,20260415-085148,local,local,750,H,S,A,E,A-H.png,E-S.png,hH,sS,mask-2.png,mask-2.png,h,1,0.2682720000157133,s,1,0.017243600043002516,0.05053029995178804,0.04890330001944676,0.09984619996976107,0.1000787999946624,0.7488347999751568
RSVPLG03,si,20260415-085003,1.0.2,20260219-152011,820,Experiment,Both,1,Automatic,main,19,20260415-085152,local,local,300,H,H,E,E,E-H.png,E-H.png,hH,hH,mask-4.png,mask-3.png,h,1,1.46638030000031,h,1,0.08178970002336428,0.050313199986703694,0.04895950003992766,0.09905359998811036,0.1000054000178352,0.30148969998117536
RSVPLG03,si,20260415-085003,1.0.2,20260219-152011,820,Experiment,Both,1,Automatic,main,20,20260415-085157,global,global,750,H,S,A,E,H-A.png,S-E.png,hH,sS,mask-4.png,mask-3.png,h,1,0.777445700019598,s,1,0.025893599959090352,0.04914639994967729,0.04937429999699816,0.10040989995468408,0.09963349997997284,0.7499660999746993
RSVPLG03,si,20260415-085003,1.0.2,20260219-152011,820,Experiment,Both,1,Automatic,main,21,20260415-085202,global,local,750,H,S,E,E,H-E.png,E-S.png,hH,sS,mask-3.png,mask-4.png,h,1,0.279673199984245,s,1,0.4084026999771595,0.04885030002333224,0.051150200015399605,0.09899420000147074,0.10018030001083389,0.747414099983871
RSVPLG03,si,20260415-085003,1.0.2,20260219-152011,820,Experiment,Both,1,Automatic,main,22,20260415-085206,local,local,750,H,S,E,E,E-H.png,E-S.png,hH,sS,mask-3.png,mask-1.png,h,1,0.26707250002073124,s,1,0.0012591999839060009,0.0496617000317201,0.0494442000053823,0.10015190002741292,0.10007929999846965,0.7496519000269473
RSVPLG03,si,20260415-085003,1.0.2,20260219-152011,820,Experiment,Both,1,Automatic,main,23,20260415-085211,global,local,750,S,H,A,A,S-A.png,A-H.png,sS,hH,mask-1.png,mask-2.png,s,1,0.4689372999710031,h,1,0.01056089997291565,0.04897629999322817,0.04954300000099465,0.09990829997695982,0.10105429997202009,0.7503673000028357
RSVPLG03,si,20260415-085003,1.0.2,20260219-152011,820,Experiment,Both,1,Automatic,main,24,20260415-085215,global,global,300,H,S,A,E,H-A.png,S-E.png,hH,sS,mask-2.png,mask-3.png,h,1,0.5895043999771588,s,1,0.14719079999485984,0.04711980000138283,0.04985110001871362,0.09832180000375956,0.09890119999181479,0.29903890000423416
RSVPLG03,si,20260415-085003,1.0.2,20260219-152011,820,Experiment,Both,1,Automatic,main,25,20260415-085220,global,global,750,S,H,A,E,S-A.png,H-E.png,sS,hH,mask-3.png,mask-3.png,s,1,0.32182479999028146,h,1,0.010253099957481027,0.050070099998265505,0.04956730001140386,0.0998363999533467,0.10094700002809986,0.7503457999555394
RSVPLG03,si,20260415-085003,1.0.2,20260219-152011,820,Experiment,Both,1,Automatic,main,26,20260415-085225,local,local,300,H,H,E,A,E-H.png,A-H.png,hH,hH,mask-1.png,mask-4.png,h,1,0.9236442999681458,s,0,0.027056499966420233,0.05078020005021244,0.051645200001075864,0.10253550001652911,0.0999123000074178,0.29994530003750697
RSVPLG03,si,20260415-085003,1.0.2,20260219-152011,820,Experiment,Both,1,Automatic,main,27,20260415-085229,global,global,750,S,S,E,A,S-E.png,S-A.png,sS,sS,mask-2.png,mask-1.png,s,1,0.3790617000195198,h,0,0.01829019997967407,0.04971180000575259,0.05166979995556176,0.10386650002328679,0.10081649996573105,0.749299000017345
RSVPLG03,si,20260415-085003,1.0.2,20260219-152011,820,Experiment,Both,1,Automatic,main,28,20260415-085234,global,global,750,H,S,A,A,H-A.png,S-A.png,hH,sS,mask-1.png,mask-4.png,h,1,0.2961586000164971,s,1,0.8462959000025876,0.04853999998886138,0.04997270001331344,0.09967169997980818,0.09969609999097884,0.7486645999597386
RSVPLG03,si,20260415-085003,1.0.2,20260219-152011,820,Experiment,Both,1,Automatic,main,29,20260415-085239,local,global,750,S,H,E,A,E-S.png,H-A.png,sS,hH,mask-1.png,mask-1.png,s,1,0.3046434000134468,h,1,0.1940584999974817,0.050489399989601225,0.051679000025615096,0.10129540000343695,0.10015640000347048,0.7507609999738634
RSVPLG03,si,20260415-085003,1.0.2,20260219-152011,820,Experiment,Both,1,Automatic,main,30,20260415-085244,global,local,300,H,S,A,E,H-A.png,E-S.png,hH,sS,mask-3.png,mask-1.png,h,1,0.5856983000412583,s,1,0.05088840000098571,0.0497967999544926,0.050352999998722225,0.09970969997812063,0.10126209998270497,0.2996798999956809
RSVPLG03,si,20260415-085003,1.0.2,20260219-152011,820,Experiment,Both,1,Automatic,main,31,20260415-085248,local,local,300,H,S,A,A,A-H.png,A-S.png,hH,sS,mask-1.png,mask-1.png,h,1,0.46022259996971115,s,1,0.0994217999977991,0.04945849999785423,0.047883099992759526,0.09935350000159815,0.09984500001883134,0.30093440000200644
RSVPLG03,si,20260415-085003,1.0.2,20260219-152011,820,Experiment,Both,1,Automatic,main,32,20260415-085252,global,local,750,S,H,A,E,S-A.png,E-H.png,sS,hH,mask-4.png,mask-4.png,s,1,0.6663986999774352,s,0,0.6104999000090174,0.04884140001377091,0.04998630000045523,0.09887450002133846,0.09944660001201555,0.7500527999945916
RSVPLG03,si,20260415-085003,1.0.2,20260219-152011,820,Experiment,Both,1,Automatic,main,33,20260415-085258,global,local,750,S,H,A,E,S-A.png,E-H.png,sS,hH,mask-3.png,mask-4.png,s,1,0.43608620000304654,h,1,0.057282299967482686,0.04902899998705834,0.051722300006076694,0.09920299996156245,0.10076010000193492,0.7490862999693491
RSVPLG03,si,20260415-085003,1.0.2,20260219-152011,820,Experiment,Both,1,Automatic,main,34,20260415-085302,global,global,750,H,S,E,A,H-E.png,S-A.png,hH,sS,mask-4.png,mask-3.png,h,1,0.2963717999518849,s,1,0.017778700042981654,0.050877499976195395,0.04852059995755553,0.10039099998539314,0.09979009995004162,0.7514618000132032
RSVPLG03,si,20260415-085003,1.0.2,20260219-152011,820,Experiment,Both,1,Automatic,main,35,20260415-085307,global,local,300,S,S,A,E,S-A.png,E-S.png,sS,sS,mask-3.png,mask-2.png,s,1,0.322540300025139,h,0,0.06103639997309074,0.04878489999100566,0.0490643999655731,0.10035039996728301,0.10069999995175749,0.30011050001485273
RSVPLG03,si,20260415-085003,1.0.2,20260219-152011,820,Experiment,Both,1,Automatic,main,36,20260415-085311,local,local,750,S,H,E,A,E-S.png,A-H.png,sS,hH,mask-3.png,mask-4.png,s,1,0.33336639998015016,h,1,0.08739579998655245,0.050216700008604676,0.04892270005075261,0.10037300002295524,0.0993480000179261,0.7499672999838367
RSVPLG03,si,20260415-085003,1.0.2,20260219-152011,820,Experiment,Both,1,Automatic,main,37,20260415-085315,global,global,750,H,S,A,E,H-A.png,S-E.png,hH,sS,mask-1.png,mask-4.png,h,1,0.13715700001921505,s,1,0.001157800026703626,0.05097549996571615,0.049032999959308654,0.10125439998228103,0.10087369999382645,0.7504125999985263
RSVPLG03,si,20260415-085003,1.0.2,20260219-152011,820,Experiment,Both,1,Automatic,main,38,20260415-085320,local,global,750,H,H,E,E,E-H.png,H-E.png,hH,hH,mask-3.png,mask-3.png,s,0,0.20443700003670529,h,1,0.017632200033403933,0.04858360002981499,0.05037170002469793,0.09728929999982938,0.10008830000879243,0.7476976999896578
RSVPLG03,si,20260415-085003,1.0.2,20260219-152011,820,Experiment,Both,1,Automatic,main,39,20260415-085324,global,local,750,S,H,A,A,S-A.png,A-H.png,sS,hH,mask-4.png,mask-3.png,s,1,0.33737129997462034,h,1,0.0318266999674961,0.051823999965563416,0.048681900021620095,0.10105219995602965,0.09858849999727681,0.7507920999778435
RSVPLG03,si,20260415-085003,1.0.2,20260219-152011,820,Experiment,Both,1,Automatic,main,40,20260415-085328,global,global,300,H,H,E,A,H-E.png,H-A.png,hH,hH,mask-3.png,mask-1.png,h,1,0.4135759000200778,h,1,0.1205684999586083,0.049477300024591386,0.050702600041404366,0.09845900000073016,0.09855090000201017,0.299701499985531
RSVPLG03,si,20260415-085003,1.0.2,20260219-152011,820,Experiment,Both,1,Automatic,main,41,20260415-085333,global,global,750,H,H,E,A,H-E.png,H-A.png,hH,hH,mask-2.png,mask-1.png,h,1,0.25494679994881153,h,1,0.08645369997248054,0.052072999998927116,0.050360500055830926,0.09982840000884607,0.09993570001097396,0.7499915999942459
RSVPLG03,si,20260415-085003,1.0.2,20260219-152011,820,Experiment,Both,1,Automatic,main,42,20260415-085337,local,local,750,H,H,E,A,E-H.png,A-H.png,hH,hH,mask-1.png,mask-4.png,h,1,0.47651310003129765,h,1,0.08239110000431538,0.05222529999446124,0.051170999999158084,0.10155180003494024,0.09985069994581863,0.7500292000477202
RSVPLG03,si,20260415-085003,1.0.2,20260219-152011,820,Experiment,Both,1,Automatic,main,43,20260415-085342,local,global,300,S,H,A,A,A-S.png,H-A.png,sS,hH,mask-3.png,mask-3.png,h,0,0.3641245999606326,h,1,0.07285009999759495,0.047731900005601346,0.050905600015539676,0.09886550001101568,0.10087309998925775,0.2977952000219375
RSVPLG03,si,20260415-085003,1.0.2,20260219-152011,820,Experiment,Both,1,Automatic,main,44,20260415-085346,local,local,300,H,S,A,A,A-H.png,A-S.png,hH,sS,mask-3.png,mask-1.png,h,1,0.45244139997521415,s,1,0.03014759998768568,0.052074800012633204,0.05011340003693476,0.10086249996675178,0.1008239000220783,0.30096149997552857
RSVPLG03,si,20260415-085003,1.0.2,20260219-152011,820,Experiment,Both,1,Automatic,main,45,20260415-085350,global,local,750,S,S,A,A,S-A.png,A-S.png,sS,sS,mask-2.png,mask-2.png,s,1,0.3285827999934554,h,0,0.042884099995717406,0.04805679997662082,0.04969439998967573,0.09762929996941239,0.09989599999971688,0.7489178999676369
RSVPLG03,si,20260415-085003,1.0.2,20260219-152011,820,Experiment,Both,1,Automatic,main,46,20260415-085354,global,global,300,H,H,A,A,H-A.png,H-A.png,hH,hH,mask-2.png,mask-1.png,h,1,0.3529839999973774,h,1,0.07592259999364614,0.0493504999903962,0.050252499990165234,0.1004763999953866,0.09919819998322055,0.3017998000141233
RSVPLG03,si,20260415-085003,1.0.2,20260219-152011,820,Experiment,Both,1,Automatic,main,47,20260415-085358,global,global,300,S,H,E,E,S-E.png,H-E.png,sS,hH,mask-2.png,mask-2.png,h,0,0.5411593999597244,h,1,0.06603560002986342,0.04817919997731224,0.05044840002665296,0.09823870001127943,0.1011276000062935,0.2982878999901004
RSVPLG03,si,20260415-085003,1.0.2,20260219-152011,820,Experiment,Both,1,Automatic,main,48,20260415-085402,local,global,300,S,S,E,E,E-S.png,S-E.png,sS,sS,mask-3.png,mask-3.png,s,1,1.1180035999859683,s,1,0.4575645000441,0.04951939999591559,0.050538099952973425,0.09867300000041723,0.09932679997291416,0.2995233000256121
RSVPLG03,si,20260415-085003,1.0.2,20260219-152011,820,Experiment,Both,1,Automatic,main,49,20260415-085408,global,local,300,S,H,A,A,S-A.png,A-H.png,sS,hH,mask-4.png,mask-3.png,s,1,0.40779660001862794,h,1,0.027715599979273975,0.05118990002665669,0.04962240002350882,0.09968769998522475,0.09972870000638068,0.299932699999772
RSVPLG03,si,20260415-085003,1.0.2,20260219-152011,820,Experiment,Both,1,Automatic,main,50,20260415-085412,local,global,300,H,H,E,E,E-H.png,H-E.png,hH,hH,mask-4.png,mask-4.png,h,1,1.136702999996487,h,1,0.12193639995530248,0.048326599993743,0.05139800003962591,0.09850720001850277,0.0990682999836281,0.2980727999820374
RSVPLG03,si,20260415-085003,1.0.2,20260219-152011,820,Experiment,Both,1,Automatic,main,51,20260415-085417,local,local,300,S,S,A,A,A-S.png,A-S.png,sS,sS,mask-4.png,mask-3.png,h,0,1.352587900008075,h,0,0.12555710005108267,0.048855400003958493,0.04890059999888763,0.0995330999721773,0.09879769996041432,0.3005064000026323
RSVPLG03,si,20260415-085003,1.0.2,20260219-152011,820,Experiment,Both,1,Automatic,main,52,20260415-085422,global,global,300,S,S,E,E,S-E.png,S-E.png,sS,sS,mask-2.png,mask-4.png,s,1,0.48683200002415106,s,1,0.1145012000342831,0.048874299973249435,0.05030250002164394,0.09864779998315498,0.10113179998006672,0.3002917999983765
RSVPLG03,si,20260415-085003,1.0.2,20260219-152011,820,Experiment,Both,1,Automatic,main,53,20260415-085426,local,global,750,H,S,E,E,E-H.png,S-E.png,hH,sS,mask-4.png,mask-3.png,h,1,1.4636667000013404,s,1,0.00882740004453808,0.050514800008386374,0.048618100001476705,0.10101569996913895,0.10142329998780042,0.7496861999970861
RSVPLG03,si,20260415-085003,1.0.2,20260219-152011,820,Experiment,Both,1,Automatic,main,54,20260415-085432,global,global,750,H,S,E,A,H-E.png,S-A.png,hH,sS,mask-1.png,mask-2.png,h,1,0.6008876000414602,s,1,0.006400000012945384,0.04994220001390204,0.04960830003255978,0.1001789000001736,0.10070900002028793,0.7502662999904715
RSVPLG03,si,20260415-085003,1.0.2,20260219-152011,820,Experiment,Both,1,Automatic,main,55,20260415-085437,local,local,300,S,H,E,A,E-S.png,A-H.png,sS,hH,mask-1.png,mask-3.png,s,1,0.6112710000015795,s,0,0.10674690001178533,0.05125289998250082,0.0496364000136964,0.10019209998426959,0.10037309996550903,0.30012560001341626
RSVPLG03,si,20260415-085003,1.0.2,20260219-152011,820,Experiment,Both,1,Automatic,main,56,20260415-085441,global,global,750,S,H,E,E,S-E.png,H-E.png,sS,hH,mask-2.png,mask-1.png,s,1,0.7290946000139229,h,1,0.03402840002672747,0.04863239999394864,0.04762430000118911,0.09847549995174631,0.09780819999286905,0.7503848999622278
RSVPLG03,si,20260415-085003,1.0.2,20260219-152011,820,Experiment,Both,1,Automatic,main,57,20260415-085446,local,global,300,H,H,A,A,A-H.png,H-A.png,hH,hH,mask-2.png,mask-1.png,h,1,0.7382365000084974,h,1,0.3215127000003122,0.05121490004239604,0.05021750001469627,0.0990068000392057,0.1011527000227943,0.2986951000057161
RSVPLG03,si,20260415-085003,1.0.2,20260219-152011,820,Experiment,Both,1,Automatic,main,58,20260415-085451,local,global,750,S,H,E,E,E-S.png,H-E.png,sS,hH,mask-1.png,mask-1.png,s,1,0.5463945000083186,s,0,0.12282899999991059,0.05065859999740496,0.050510000030044466,0.10017089999746531,0.10097020003013313,0.7495328999939375
RSVPLG03,si,20260415-085003,1.0.2,20260219-152011,820,Experiment,Both,1,Automatic,main,59,20260415-085455,local,local,750,H,S,E,E,E-H.png,E-S.png,hH,sS,mask-3.png,mask-1.png,h,1,0.2383706000400707,s,1,0.021125100029166788,0.050655400031246245,0.04913399997167289,0.10118050000164658,0.10037860000738874,0.7506761000258848
RSVPLG03,si,20260415-085003,1.0.2,20260219-152011,820,Experiment,Both,1,Automatic,main,60,20260415-085500,local,global,300,H,H,A,A,A-H.png,H-A.png,hH,hH,mask-1.png,mask-1.png,h,1,0.4906854999717325,h,1,0.09741799999028444,0.050709899980574846,0.04986040003132075,0.09965250000823289,0.10007490002317354,0.29907519998960197
RSVPLG03,si,20260415-085003,1.0.2,20260219-152011,820,Experiment,Both,1,Automatic,main,61,20260415-085504,local,local,750,H,H,E,A,E-H.png,A-H.png,hH,hH,mask-2.png,mask-1.png,h,1,0.1562123000039719,h,1,0.09736710001016036,0.04890210001030937,0.04798219999065623,0.09800470003392547,0.09991089999675751,0.7496919000404887
RSVPLG03,si,20260415-085003,1.0.2,20260219-152011,820,Experiment,Both,1,Automatic,main,62,20260415-085508,global,global,750,S,S,E,A,S-E.png,S-A.png,sS,sS,mask-4.png,mask-4.png,s,1,1.014625400013756,s,1,0.11430359998485073,0.05075559997931123,0.049969099985901266,0.0998933999799192,0.09882850002031773,0.7493776999763213
RSVPLG03,si,20260415-085003,1.0.2,20260219-152011,820,Experiment,Both,1,Automatic,main,63,20260415-085513,global,global,300,H,S,A,A,H-A.png,S-A.png,hH,sS,mask-4.png,mask-1.png,h,1,0.6172051000175998,s,1,0.2888084999867715,0.04924839996965602,0.04996729997219518,0.09923819999676198,0.10034759994596243,0.2991987999994308
RSVPLG03,si,20260415-085003,1.0.2,20260219-152011,820,Experiment,Both,1,Automatic,main,64,20260415-085518,global,global,300,S,H,A,A,S-A.png,H-A.png,sS,hH,mask-1.png,mask-3.png,h,0,1.768895400047768,h,1,0.3293217999744229,0.04932009999174625,0.050221099983900785,0.09984879998955876,0.09974570001941174,0.3006591000012122
RSVPLG03,si,20260415-085003,1.0.2,20260219-152011,820,Experiment,Both,1,Automatic,main,65,20260415-085524,local,global,300,S,S,A,E,A-S.png,S-E.png,sS,sS,mask-4.png,mask-3.png,s,1,0.5208279999787919,h,0,0.07295040000462905,0.05215980001958087,0.05100279999896884,0.10028920002514496,0.09914430003846064,0.30120759998681024
RSVPLG03,si,20260415-085003,1.0.2,20260219-152011,820,Experiment,Both,1,Automatic,main,66,20260415-085528,local,global,300,S,H,E,A,E-S.png,H-A.png,sS,hH,mask-3.png,mask-2.png,s,1,0.35659350000787526,h,1,0.05760759999975562,0.05140160000883043,0.048339399974793196,0.10018080001464114,0.0995763000100851,0.3020912000210956
RSVPLG03,si,20260415-085003,1.0.2,20260219-152011,820,Experiment,Both,1,Automatic,main,67,20260415-085532,local,local,300,H,H,E,A,E-H.png,A-H.png,hH,hH,mask-4.png,mask-1.png,h,1,0.3571728999959305,h,1,0.015207600023131818,0.050013699976261705,0.051172400009818375,0.10003689996665344,0.10027770005399361,0.2977571999654174
RSVPLG03,si,20260415-085003,1.0.2,20260219-152011,820,Experiment,Both,1,Automatic,main,68,20260415-085536,local,global,750,S,H,E,A,E-S.png,H-A.png,sS,hH,mask-1.png,mask-2.png,h,0,1.4516216000192799,h,1,0.11155570001574233,0.04959369997959584,0.04996549995848909,0.09931089996825904,0.0988116999506019,0.7487021000124514
RSVPLG03,si,20260415-085003,1.0.2,20260219-152011,820,Experiment,Both,1,Automatic,main,69,20260415-085542,local,global,750,H,S,A,E,A-H.png,S-E.png,hH,sS,mask-3.png,mask-1.png,h,1,0.4797165999771096,s,1,0.039864599995780736,0.05012699996586889,0.049034499970730394,0.10099849995458499,0.099967599962838,0.7490735999890603
RSVPLG03,si,20260415-085003,1.0.2,20260219-152011,820,Experiment,Both,1,Automatic,main,70,20260415-085546,local,global,300,H,H,E,E,E-H.png,H-E.png,hH,hH,mask-2.png,mask-3.png,h,1,0.4435622000019066,s,0,0.019176900037564337,0.05021479999413714,0.05232399998931214,0.09851069998694584,0.10257920000003651,0.2983020999818109
RSVPLG03,si,20260415-085003,1.0.2,20260219-152011,820,Experiment,Both,1,Automatic,main,71,20260415-085550,global,local,300,H,S,A,A,H-A.png,A-S.png,hH,sS,mask-2.png,mask-2.png,h,1,0.38521350000519305,s,1,0.022351899999193847,0.048680200008675456,0.05067670001881197,0.10056409996468574,0.10015559999737889,0.29849459999240935
RSVPLG03,si,20260415-085003,1.0.2,20260219-152011,820,Experiment,Both,1,Automatic,main,72,20260415-085554,global,local,750,S,S,A,A,S-A.png,A-S.png,sS,sS,mask-1.png,mask-3.png,h,0,0.46418990002712235,s,1,0.0015713999746367335,0.04874289996223524,0.05022649996681139,0.09905520000029355,0.1025865999981761,0.748218699998688
RSVPLG03,si,20260415-085003,1.0.2,20260219-152011,820,Experiment,Both,1,Automatic,main,73,20260415-085559,global,global,750,H,H,E,A,H-E.png,H-A.png,hH,hH,mask-4.png,mask-4.png,h,1,0.6149607999832369,s,0,0.0657461000373587,0.05123129999265075,0.050710299983620644,0.09860109997680411,0.10020280000753701,0.7496037000091746
RSVPLG03,si,20260415-085003,1.0.2,20260219-152011,820,Experiment,Both,1,Automatic,main,74,20260415-085604,global,local,300,S,H,E,A,S-E.png,A-H.png,sS,hH,mask-2.png,mask-4.png,s,1,1.3568259999738075,s,0,0.15293280000332743,0.05137300002388656,0.048480400000698864,0.0996148000122048,0.09958749997895211,0.3016455000033602
RSVPLG03,si,20260415-085003,1.0.2,20260219-152011,820,Experiment,Both,1,Automatic,main,75,20260415-085609,local,global,750,H,H,A,E,A-H.png,H-E.png,hH,hH,mask-3.png,mask-2.png,h,1,0.3075764999957755,h,1,0.6749284000252374,0.049598900019191206,0.05006480001611635,0.1013894000207074,0.098715300031472,0.7483762999763712
RSVPLG03,si,20260415-085003,1.0.2,20260219-152011,820,Experiment,Both,1,Automatic,main,76,20260415-085615,local,local,300,S,H,E,A,E-S.png,A-H.png,sS,hH,mask-3.png,mask-2.png,s,1,0.35567489999812096,h,1,0.05275269999401644,0.049160499998833984,0.05001649999758229,0.09889580000890419,0.10000459995353594,0.2987748000305146
RSVPLG03,si,20260415-085003,1.0.2,20260219-152011,820,Experiment,Both,1,Automatic,main,77,20260415-085619,local,global,750,H,H,E,A,E-H.png,H-A.png,hH,hH,mask-3.png,mask-3.png,h,1,0.7926889000227675,s,0,0.20911659998819232,0.04998890002025291,0.049203500035218894,0.09971360000781715,0.10046109999530017,0.7486449999851175
RSVPLG03,si,20260415-085003,1.0.2,20260219-152011,820,Experiment,Both,1,Automatic,main,78,20260415-085624,global,global,300,S,H,E,A,S-E.png,H-A.png,sS,hH,mask-3.png,mask-1.png,h,0,1.2387104000081308,h,1,0.7363049000268802,0.04900850000558421,0.0509386999765411,0.09898660000180826,0.10145169997122139,0.2989067999878898
RSVPLG03,si,20260415-085003,1.0.2,20260219-152011,820,Experiment,Both,1,Automatic,main,79,20260415-085630,global,local,300,H,S,A,A,H-A.png,A-S.png,hH,sS,mask-1.png,mask-2.png,h,1,0.5577207999886014,h,0,0.08702450001146644,0.04987469996558502,0.05052160000195727,0.10033250000560656,0.09958179999375716,0.30058629997074604
RSVPLG03,si,20260415-085003,1.0.2,20260219-152011,820,Experiment,Both,1,Automatic,main,80,20260415-085634,local,global,300,S,H,A,E,A-S.png,H-E.png,sS,hH,mask-2.png,mask-2.png,h,0,0.6607695000129752,s,0,0.22552690003067255,0.048465400002896786,0.04963510000379756,0.09872790001099929,0.09936890000244603,0.2982819000026211
RSVPLG03,si,20260415-085003,1.0.2,20260219-152011,820,Experiment,Both,1,Automatic,main,81,20260415-085639,local,local,300,S,H,E,A,E-S.png,A-H.png,sS,hH,mask-3.png,mask-4.png,s,1,0.3459740999969654,h,1,0.03925789997447282,0.05047100002411753,0.04983199998969212,0.100222900044173,0.10109780001221225,0.30029630003264174
RSVPLG03,si,20260415-085003,1.0.2,20260219-152011,820,Experiment,Both,1,Automatic,main,82,20260415-085643,local,local,750,S,H,E,E,E-S.png,E-H.png,sS,hH,mask-2.png,mask-2.png,s,1,0.3376431000069715,h,1,0.03335649997461587,0.04961280000861734,0.04932569997617975,0.09997589996783063,0.10022169997682795,0.7483808000106364
RSVPLG03,si,20260415-085003,1.0.2,20260219-152011,820,Experiment,Both,1,Automatic,main,83,20260415-085647,local,local,750,S,H,A,E,A-S.png,E-H.png,sS,hH,mask-3.png,mask-3.png,s,1,0.9338158000027761,h,1,0.07367180002620444,0.0493447000044398,0.049043499981053174,0.09985739999683574,0.09878940001362935,0.7487849000026472
RSVPLG03,si,20260415-085003,1.0.2,20260219-152011,820,Experiment,Both,1,Automatic,main,84,20260415-085652,global,local,300,H,S,E,A,H-E.png,A-S.png,hH,sS,mask-1.png,mask-4.png,h,1,0.5616465999628417,h,0,0.07107250002445653,0.051037299970630556,0.04849040001863614,0.10168709995923564,0.09962090000044554,0.30056469998089597
RSVPLG03,si,20260415-085003,1.0.2,20260219-152011,820,Experiment,Both,1,Automatic,main,85,20260415-085657,global,global,300,H,S,A,A,H-A.png,S-A.png,hH,sS,mask-2.png,mask-3.png,h,1,0.3028770000091754,s,1,1.5600002370774746e-05,0.0493949000374414,0.05015640001511201,0.0990868000080809,0.10062700003618374,0.2984182999935001
RSVPLG03,si,20260415-085003,1.0.2,20260219-152011,820,Experiment,Both,1,Automatic,main,86,20260415-085701,global,global,750,S,S,A,A,S-A.png,S-A.png,sS,sS,mask-3.png,mask-4.png,s,1,0.6969188000075519,s,1,0.10383579996414483,0.050407700007781386,0.05137739999918267,0.10013819998130202,0.10005240002647042,0.7486672999802977
RSVPLG03,si,20260415-085003,1.0.2,20260219-152011,820,Experiment,Both,1,Automatic,main,87,20260415-085705,global,local,300,S,H,A,E,S-A.png,E-H.png,sS,hH,mask-3.png,mask-2.png,s,1,0.6848508000257425,s,0,0.45463290001498535,0.049824299989268184,0.050477500015404075,0.09953219996532425,0.10030789999291301,0.2992475999635644
RSVPLG03,si,20260415-085003,1.0.2,20260219-152011,820,Experiment,Both,1,Automatic,main,88,20260415-085710,global,global,300,H,H,E,A,H-E.png,H-A.png,hH,hH,mask-3.png,mask-3.png,h,1,0.55600639997283,h,1,0.04049699997995049,0.04992829996626824,0.04929840000113472,0.10027469997294247,0.10005290003027767,0.2999355999636464
RSVPLG03,si,20260415-085003,1.0.2,20260219-152011,820,Experiment,Both,1,Automatic,main,89,20260415-085714,local,local,300,H,S,A,E,A-H.png,E-S.png,hH,sS,mask-1.png,mask-3.png,h,1,0.5304558000061661,s,1,0.06625949998851866,0.04962220002198592,0.05050930002471432,0.09836950001772493,0.10036089998902753,0.2982804999919608
RSVPLG03,si,20260415-085003,1.0.2,20260219-152011,820,Experiment,Both,1,Automatic,main,90,20260415-085719,local,global,750,H,H,A,A,A-H.png,H-A.png,hH,hH,mask-4.png,mask-4.png,h,1,0.5582971000112593,h,1,0.29750630003400147,0.05049640004290268,0.051541200024075806,0.1003838000469841,0.10035540000535548,0.7496874000062235
RSVPLG03,si,20260415-085003,1.0.2,20260219-152011,820,Experiment,Both,1,Automatic,main,91,20260415-085724,global,local,300,H,S,A,A,H-A.png,A-S.png,hH,sS,mask-3.png,mask-2.png,h,1,0.5470248999772593,h,0,0.09689770004479215,0.047837399994023144,0.049004799977410585,0.09749309998005629,0.0995779000222683,0.298572100000456
RSVPLG03,si,20260415-085003,1.0.2,20260219-152011,820,Experiment,Both,1,Automatic,main,92,20260415-085728,local,local,300,S,S,A,A,A-S.png,A-S.png,sS,sS,mask-1.png,mask-3.png,s,1,2.413657900004182,h,0,0.1619901000522077,0.05029399995692074,0.05024749995209277,0.10003689996665344,0.09981049998896196,0.2995820000069216
RSVPLG03,si,20260415-085003,1.0.2,20260219-152011,820,Experiment,Both,1,Automatic,main,93,20260415-085734,global,local,750,H,S,A,E,H-A.png,E-S.png,hH,sS,mask-3.png,mask-3.png,h,1,0.40760540001792833,s,1,0.061100699997041374,0.049502900044899434,0.05054379999637604,0.09946930001024157,0.10103120002895594,0.7489390000118874
RSVPLG03,si,20260415-085003,1.0.2,20260219-152011,820,Experiment,Both,1,Automatic,main,94,20260415-085739,global,local,750,H,H,E,A,H-E.png,A-H.png,hH,hH,mask-3.png,mask-4.png,h,1,0.2212697999784723,h,1,0.11207350000040606,0.04982650000602007,0.05139049998251721,0.10096430004341528,0.10030540003208444,0.7492308000219055
RSVPLG03,si,20260415-085003,1.0.2,20260219-152011,820,Experiment,Both,1,Automatic,main,95,20260415-085743,local,global,750,H,S,E,E,E-H.png,S-E.png,hH,sS,mask-4.png,mask-2.png,h,1,0.7225040000048466,s,1,0.11824819998582825,0.050060999987181276,0.051075299968943,0.09995889995479956,0.09957189997658134,0.7490748999989592
RSVPLG03,si,20260415-085003,1.0.2,20260219-152011,820,Experiment,Both,1,Automatic,main,96,20260415-085748,local,local,750,S,H,A,A,A-S.png,A-H.png,sS,hH,mask-2.png,mask-2.png,s,1,0.29741620004642755,h,1,0.14658010000130162,0.049537899962160736,0.04994529997929931,0.09967809997033328,0.10200110002188012,0.7486592999775894
RSVPLG03,si,20260415-085003,1.0.2,20260219-152011,820,Experiment,Both,1,Automatic,main,97,20260415-085753,global,local,300,H,H,A,A,H-A.png,A-H.png,hH,hH,mask-4.png,mask-1.png,h,1,0.4038090000394732,h,1,0.1100583000225015,0.04885169997578487,0.05129750003106892,0.09904419997474179,0.10268990002805367,0.29779769998276606
RSVPLG03,si,20260415-085003,1.0.2,20260219-152011,820,Experiment,Both,1,Automatic,main,98,20260415-085757,local,global,750,S,S,A,A,A-S.png,S-A.png,sS,sS,mask-3.png,mask-2.png,s,1,0.5934692999580875,s,1,0.12198669998906553,0.049267199996393174,0.049740999995265156,0.09963800001423806,0.0984341999865137,0.7508231000392698
RSVPLG03,si,20260415-085003,1.0.2,20260219-152011,820,Experiment,Both,1,Automatic,main,99,20260415-085801,local,global,750,H,S,A,E,A-H.png,S-E.png,hH,sS,mask-1.png,mask-2.png,h,1,0.7088697999715805,s,1,0.20120150002185255,0.04966819996479899,0.0510323999915272,0.09952220000559464,0.10113040002761409,0.7490411999751814
RSVPLG03,si,20260415-085003,1.0.2,20260219-152011,820,Experiment,Both,1,Automatic,main,100,20260415-085807,global,local,750,H,H,A,E,H-A.png,E-H.png,hH,hH,mask-3.png,mask-1.png,h,1,0.5887050000019372,s,0,0.097131900023669,0.04942039999878034,0.04993119998835027,0.09959230001550168,0.10103080002591014,0.7490147000062279
