exp,exp_initials,runtime,ver,modtime,sub,blocktype,targets,cuetype,mode,trialtype,trial,trialtime,t1_level,t2_level,t2_lag,t1,t2,distractor1,distractor2,stimfile1,stimfile2,t1_corr,t2_corr,maskfile1,maskfile2,t1_resp,t1_acc,t1_rt,t2_resp,t2_acc,t2_rt,t1_dur,t2_dur,t1mask_soa,t2mask_soa,t1t2_soa
RSVPLG03,md,20260310-110611,1.0.2,20251105-084826,797,Introduction,T1,1,Automatic,main,1,20260310-110628,global,local,750,H,S,E,A,H-E.png,A-S.png,hH,sS,mask-1.png,mask-2.png,h,1,3.442391100106761,none,-5,0,0.09451680001802742,0.0976583999581635,0.19685439998283982,0.19962410000152886,0.7491542999632657
RSVPLG03,md,20260310-110611,1.0.2,20251105-084826,797,Introduction,T1,1,Automatic,main,2,20260310-110635,local,local,750,S,S,E,A,E-S.png,A-S.png,sS,sS,mask-4.png,mask-3.png,s,1,1.1719264001585543,none,-5,0,0.09751749993301928,0.09739160002209246,0.20137489982880652,0.19851760007441044,0.7528081999626011
RSVPLG03,md,20260310-110611,1.0.2,20251105-084826,797,Introduction,T1,1,Automatic,main,3,20260310-110641,local,local,750,S,H,E,A,E-S.png,A-H.png,sS,hH,mask-1.png,mask-3.png,s,1,5.10404450003989,none,-5,0,0.09857129980809987,0.09745660005137324,0.19984209979884326,0.20020520011894405,0.751941799884662
RSVPLG03,md,20260310-110611,1.0.2,20251105-084826,797,Introduction,T1,1,Automatic,main,4,20260310-110650,global,global,750,H,S,A,A,H-A.png,S-A.png,hH,sS,mask-2.png,mask-4.png,s,0,1.9804024000186473,none,-5,0,0.09946269984357059,0.09918979997746646,0.20228459988720715,0.20064369984902442,0.751739599974826
RSVPLG03,md,20260310-110611,1.0.2,20251105-084826,797,Introduction,T1,1,Automatic,main,5,20260310-110656,global,global,750,H,S,E,A,H-E.png,S-A.png,hH,sS,mask-1.png,mask-2.png,s,0,2.448787200031802,none,-5,0,0.09866380016319454,0.09747729985974729,0.20107730012387037,0.1993271999526769,0.7531545001547784
RSVPLG03,md,20260310-110611,1.0.2,20251105-084826,797,Introduction,T1,1,Automatic,main,6,20260310-110703,global,local,750,S,S,A,A,S-A.png,A-S.png,sS,sS,mask-4.png,mask-1.png,s,1,1.5285145998932421,none,-5,0,0.0967391999438405,0.09865579986944795,0.19969159993343055,0.2015601999592036,0.7503174000885338
RSVPLG03,md,20260310-110611,1.0.2,20251105-084826,797,Introduction,T1,1,Automatic,main,7,20260310-110708,global,local,750,H,S,A,E,H-A.png,E-S.png,hH,sS,mask-4.png,mask-2.png,h,1,1.205107199959457,none,-5,0,0.09654219984076917,0.09942270000465214,0.1993231000378728,0.2002894999459386,0.7505729999393225
RSVPLG03,md,20260310-110611,1.0.2,20251105-084826,797,Introduction,T1,1,Automatic,main,8,20260310-110714,local,global,750,S,S,E,A,E-S.png,S-A.png,sS,sS,mask-1.png,mask-2.png,s,1,0.8480660000350326,none,-5,0,0.09717920003458858,0.09720259997993708,0.1995355999097228,0.2006226999219507,0.7518263999372721
RSVPLG03,md,20260310-110611,1.0.2,20251105-084826,797,Introduction,T1,1,Automatic,main,9,20260310-110719,local,global,750,H,H,E,A,E-H.png,H-A.png,hH,hH,mask-1.png,mask-1.png,h,1,0.8220753001514822,none,-5,0,0.09739329991862178,0.09841759991832078,0.19998569996096194,0.20149610005319118,0.7510522999800742
RSVPLG03,md,20260310-110611,1.0.2,20251105-084826,797,Introduction,T1,1,Automatic,main,10,20260310-110724,global,global,750,H,S,E,E,H-E.png,S-E.png,hH,sS,mask-2.png,mask-4.png,h,1,0.971562199993059,none,-5,0,0.09741729986853898,0.09643260017037392,0.1996142000425607,0.20062180003151298,0.7528007999062538
RSVPLG03,md,20260310-110611,1.0.2,20251105-084826,797,Introduction,T1,1,Automatic,main,11,20260310-110729,local,global,750,S,H,E,A,E-S.png,H-A.png,sS,hH,mask-4.png,mask-1.png,s,1,1.1448705000802875,none,-5,0,0.09740660013630986,0.09702750016003847,0.19931609998457134,0.19961840007454157,0.7523862000089139
RSVPLG03,md,20260310-110611,1.0.2,20251105-084826,797,Introduction,T1,1,Automatic,main,12,20260310-110734,global,global,750,H,H,A,A,H-A.png,H-A.png,hH,hH,mask-3.png,mask-4.png,h,1,0.7176603998523206,none,-5,0,0.09840780007652938,0.0993801997974515,0.19949690019711852,0.20126100000925362,0.7514789002016187
RSVPLG03,md,20260310-110611,1.0.2,20251105-084826,797,Introduction,T1,1,Automatic,main,13,20260310-110739,local,global,750,S,S,E,E,E-S.png,S-E.png,sS,sS,mask-3.png,mask-3.png,s,1,0.9980063999537379,none,-5,0,0.09861780004575849,0.09863949986174703,0.20156770013272762,0.20039710006676614,0.7513822000473738
RSVPLG03,md,20260310-110611,1.0.2,20251105-084826,797,Introduction,T1,1,Automatic,main,14,20260310-110744,local,local,750,S,H,E,A,E-S.png,A-H.png,sS,hH,mask-2.png,mask-4.png,h,0,1.4340749999973923,none,-5,0,0.09845849988050759,0.09740249998867512,0.20034349989145994,0.19941770005971193,0.7531469999812543
RSVPLG03,md,20260310-110611,1.0.2,20251105-084826,797,Introduction,T1,1,Automatic,main,15,20260310-110750,local,local,750,H,S,A,E,A-H.png,E-S.png,hH,sS,mask-2.png,mask-1.png,s,0,2.5768391999881715,none,-5,0,0.09671860001981258,0.09920560009777546,0.2006606999784708,0.20108740008436143,0.7505345998797566
RSVPLG03,md,20260310-110611,1.0.2,20251105-084826,797,Introduction,T1,1,Automatic,main,16,20260310-110757,global,local,750,H,H,E,E,H-E.png,E-H.png,hH,hH,mask-3.png,mask-1.png,h,1,0.9239270000252873,none,-5,0,0.09740799991413951,0.09737590001896024,0.2013503999914974,0.19842560007236898,0.7524391999468207
RSVPLG03,md,20260310-110819,1.0.2,20251105-084826,797,Practice,T1,1,Automatic,main,1,20260310-110842,local,local,300,S,H,A,A,A-S.png,A-H.png,sS,hH,mask-3.png,mask-3.png,s,1,1.26508399983868,none,-5,0,0.0402146999258548,0.047043099999427795,0.0934975000564009,0.09934149985201657,0.2935300001408905
RSVPLG03,md,20260310-110819,1.0.2,20251105-084826,797,Practice,T1,1,Automatic,main,2,20260310-110847,global,local,300,H,H,A,E,H-A.png,E-H.png,hH,hH,mask-2.png,mask-4.png,h,1,1.5995751000009477,none,-5,0,0.047558899968862534,0.04753379989415407,0.09967579995281994,0.09951850003562868,0.2994870999827981
RSVPLG03,md,20260310-110819,1.0.2,20251105-084826,797,Practice,T1,1,Automatic,main,3,20260310-110852,global,local,300,H,H,A,E,H-A.png,E-H.png,hH,hH,mask-1.png,mask-2.png,h,1,0.8266772001516074,none,-5,0,0.0466493999119848,0.047602999955415726,0.0995628999080509,0.09970899997279048,0.2989837001077831
RSVPLG03,md,20260310-110819,1.0.2,20251105-084826,797,Practice,T1,1,Automatic,main,4,20260310-110856,local,global,300,S,H,E,E,E-S.png,H-E.png,sS,hH,mask-4.png,mask-2.png,s,1,0.9899722000118345,none,-5,0,0.04951949999667704,0.04755040002055466,0.10150560014881194,0.10056900000199676,0.300345900002867
RSVPLG03,md,20260310-110819,1.0.2,20251105-084826,797,Practice,T1,1,Automatic,main,5,20260310-110901,local,local,300,H,S,A,A,A-H.png,A-S.png,hH,sS,mask-4.png,mask-2.png,h,1,0.48411129997111857,none,-5,0,0.04835689999163151,0.046707300003618,0.09999249991960824,0.09967950009740889,0.3009711999911815
RSVPLG03,md,20260310-110819,1.0.2,20251105-084826,797,Practice,T1,1,Automatic,main,6,20260310-110905,local,global,300,H,S,A,A,A-H.png,S-A.png,hH,sS,mask-1.png,mask-4.png,h,1,0.37948789983056486,none,-5,0,0.04560000007040799,0.047970299841836095,0.09969850000925362,0.10099920001812279,0.29861860000528395
RSVPLG03,md,20260310-110819,1.0.2,20251105-084826,797,Practice,T1,1,Automatic,main,7,20260310-110909,local,global,750,S,H,E,A,E-S.png,H-A.png,sS,hH,mask-4.png,mask-3.png,s,1,0.9120197999291122,none,-5,0,0.04787439992651343,0.0485688999760896,0.09903279994614422,0.10162850003689528,0.7489316998980939
RSVPLG03,md,20260310-110819,1.0.2,20251105-084826,797,Practice,T1,1,Automatic,main,8,20260310-110914,global,global,300,S,H,E,A,S-E.png,H-A.png,sS,hH,mask-2.png,mask-4.png,s,1,0.47722000000067055,none,-5,0,0.047837299993261695,0.04749670019373298,0.09990689996629953,0.09850740013644099,0.3011824998538941
RSVPLG03,md,20260310-110819,1.0.2,20251105-084826,797,Practice,T1,1,Automatic,main,9,20260310-110918,global,global,300,H,H,A,E,H-A.png,H-E.png,hH,hH,mask-2.png,mask-1.png,h,1,0.3846515999175608,none,-5,0,0.04751370009034872,0.04653710010461509,0.09888700000010431,0.09856069996021688,0.29974410007707775
RSVPLG03,md,20260310-110819,1.0.2,20251105-084826,797,Practice,T1,1,Automatic,main,10,20260310-110922,local,local,750,S,S,A,E,A-S.png,E-S.png,sS,sS,mask-3.png,mask-2.png,s,1,0.6290908001828939,none,-5,0,0.047681499971076846,0.04859829996712506,0.0989662001375109,0.10139960004016757,0.7477957000955939
RSVPLG03,md,20260310-110819,1.0.2,20251105-084826,797,Practice,T1,1,Automatic,main,11,20260310-110927,local,global,750,H,S,A,A,A-H.png,S-A.png,hH,sS,mask-4.png,mask-3.png,h,1,1.520614500157535,none,-5,0,0.04702310007996857,0.0478747000452131,0.10019969986751676,0.09935949998907745,0.7500038999132812
RSVPLG03,md,20260310-110819,1.0.2,20251105-084826,797,Practice,T1,1,Automatic,main,12,20260310-110932,global,global,750,H,S,E,E,H-E.png,S-E.png,hH,sS,mask-4.png,mask-2.png,s,0,1.6988396998494864,none,-5,0,0.0485292999073863,0.047504999907687306,0.10056339995935559,0.09935819986276329,0.7507770000956953
RSVPLG03,md,20260310-110819,1.0.2,20251105-084826,797,Practice,T1,1,Automatic,main,13,20260310-110938,global,global,750,S,S,A,A,S-A.png,S-A.png,sS,sS,mask-3.png,mask-1.png,s,1,0.6548917000181973,none,-5,0,0.048508299980312586,0.046505399979650974,0.0995063001755625,0.09955239994451404,0.7500013001263142
RSVPLG03,md,20260310-110819,1.0.2,20251105-084826,797,Practice,T1,1,Automatic,main,14,20260310-110943,global,local,750,S,S,A,E,S-A.png,E-S.png,sS,sS,mask-4.png,mask-4.png,s,1,0.6009740000590682,none,-5,0,0.04760090005584061,0.046534499851986766,0.10148190008476377,0.09966219984926283,0.7507734000682831
RSVPLG03,md,20260310-110819,1.0.2,20251105-084826,797,Practice,T1,1,Automatic,main,15,20260310-110947,local,local,750,S,H,E,E,E-S.png,E-H.png,sS,hH,mask-1.png,mask-2.png,s,1,0.7994901000056416,none,-5,0,0.047504999907687306,0.04720390005968511,0.10051069990731776,0.1001991000957787,0.7493127998895943
RSVPLG03,md,20260310-110819,1.0.2,20251105-084826,797,Practice,T1,1,Automatic,main,16,20260310-110952,global,local,750,H,H,E,E,H-E.png,E-H.png,hH,hH,mask-3.png,mask-2.png,h,1,0.7462232999969274,none,-5,0,0.047468299977481365,0.04696829989552498,0.09866760019212961,0.1002084999345243,0.7485583000816405
RSVPLG03,md,20260310-111127,1.0.2,20251105-084826,797,Practice,Both,1,Automatic,main,1,20260310-111145,local,global,750,S,S,E,A,E-S.png,S-A.png,sS,sS,mask-2.png,mask-3.png,s,1,1.560362699907273,h,0,1.7676689999643713,0.04202749999240041,0.04880129988305271,0.09470259980298579,0.10082919988781214,0.7452899999916553
RSVPLG03,md,20260310-111127,1.0.2,20251105-084826,797,Practice,Both,1,Automatic,main,2,20260310-111152,local,global,300,H,S,E,A,E-H.png,S-A.png,hH,sS,mask-3.png,mask-3.png,h,1,1.020347700221464,s,1,1.1405891000758857,0.047816399950534105,0.04671789985150099,0.10078069986775517,0.09887610003352165,0.3016786000225693
RSVPLG03,md,20260310-111127,1.0.2,20251105-084826,797,Practice,Both,1,Automatic,main,3,20260310-111158,local,global,300,S,H,A,A,A-S.png,H-A.png,sS,hH,mask-4.png,mask-4.png,s,1,1.481861999956891,s,0,2.0208195000886917,0.04748860001564026,0.04661219986155629,0.10148700000718236,0.0994382998906076,0.30172010022215545
RSVPLG03,md,20260310-111127,1.0.2,20251105-084826,797,Practice,Both,1,Automatic,main,4,20260310-111206,global,global,750,H,S,A,A,H-A.png,S-A.png,hH,sS,mask-3.png,mask-3.png,s,0,1.5813471002038568,h,0,0.5542037000413984,0.04749889997765422,0.047338300151750445,0.09948459989391267,0.10142660001292825,0.7499072998762131
RSVPLG03,md,20260310-111127,1.0.2,20251105-084826,797,Practice,Both,1,Automatic,main,5,20260310-111212,global,local,300,S,S,A,E,S-A.png,E-S.png,sS,sS,mask-4.png,mask-1.png,h,0,1.4523660999257118,s,1,0.27822129987180233,0.04767889995127916,0.04763270006515086,0.10017079999670386,0.0996163000818342,0.30114619992673397
RSVPLG03,md,20260310-111127,1.0.2,20251105-084826,797,Practice,Both,1,Automatic,main,6,20260310-111217,global,local,750,S,H,A,E,S-A.png,E-H.png,sS,hH,mask-2.png,mask-3.png,s,1,1.110164700075984,s,0,0.30873749987222254,0.04683650005608797,0.04750650003552437,0.10094129992648959,0.09935760009102523,0.7507286998443305
RSVPLG03,md,20260310-111127,1.0.2,20251105-084826,797,Practice,Both,1,Automatic,main,7,20260310-111223,local,local,750,S,H,E,A,E-S.png,A-H.png,sS,hH,mask-1.png,mask-2.png,s,1,0.6837198999710381,h,1,0.3256302000954747,0.047448999946936965,0.047699299873784184,0.1001023999415338,0.09986529988236725,0.7503684000112116
RSVPLG03,md,20260310-111127,1.0.2,20251105-084826,797,Practice,Both,1,Automatic,main,8,20260310-111228,global,global,750,S,H,E,E,S-E.png,H-E.png,sS,hH,mask-1.png,mask-4.png,s,1,1.0680130999535322,h,1,0.4840603999327868,0.047353700036183,0.047502700006589293,0.10031420015729964,0.10046610003337264,0.7509493001271039
RSVPLG03,md,20260310-111127,1.0.2,20251105-084826,797,Practice,Both,1,Automatic,main,9,20260310-111234,global,global,300,H,S,A,A,H-A.png,S-A.png,hH,sS,mask-3.png,mask-1.png,h,1,1.303214999847114,s,1,0.3279678001999855,0.047528799856081605,0.04651380004361272,0.10060249990783632,0.0995805999264121,0.3011785999406129
RSVPLG03,md,20260310-111127,1.0.2,20251105-084826,797,Practice,Both,1,Automatic,main,10,20260310-111239,global,global,300,H,H,A,A,H-A.png,H-A.png,hH,hH,mask-3.png,mask-4.png,s,0,2.4482368999160826,h,1,0.27248200005851686,0.047555800061672926,0.047702299896627665,0.10155460005626082,0.10023969993926585,0.3011795000638813
RSVPLG03,md,20260310-111127,1.0.2,20251105-084826,797,Practice,Both,1,Automatic,main,11,20260310-111246,local,global,750,S,S,E,A,E-S.png,S-A.png,sS,sS,mask-4.png,mask-2.png,s,1,1.2341957001481205,h,0,0.2178228001575917,0.04672880005091429,0.0467081000097096,0.09878700016997755,0.09890490001998842,0.7507809000089765
RSVPLG03,md,20260310-111127,1.0.2,20251105-084826,797,Practice,Both,1,Automatic,main,12,20260310-111252,local,local,300,H,S,A,A,A-H.png,A-S.png,hH,sS,mask-2.png,mask-1.png,h,1,3.26085969991982,h,0,1.147081500152126,0.0474862998817116,0.04820109996944666,0.10033879987895489,0.10109609994105995,0.2994472999125719
RSVPLG03,md,20260310-111127,1.0.2,20251105-084826,797,Practice,Both,1,Automatic,main,13,20260310-111300,global,local,300,S,H,E,A,S-E.png,A-H.png,sS,hH,mask-2.png,mask-2.png,s,1,0.904303900199011,s,0,0.2578789999242872,0.04747979994863272,0.04935489990748465,0.10090019996277988,0.10136849991977215,0.3002180000767112
RSVPLG03,md,20260310-111127,1.0.2,20251105-084826,797,Practice,Both,1,Automatic,main,14,20260310-111305,global,local,750,S,H,E,A,S-E.png,A-H.png,sS,hH,mask-4.png,mask-3.png,s,1,1.684794700006023,s,0,1.2123864002060145,0.0475486998911947,0.047077500028535724,0.09863519994542003,0.09809099999256432,0.7508539999835193
RSVPLG03,md,20260310-111127,1.0.2,20251105-084826,797,Practice,Both,1,Automatic,main,15,20260310-111312,local,local,750,H,H,A,A,A-H.png,A-H.png,hH,hH,mask-1.png,mask-1.png,h,1,0.8124290001578629,h,1,0.3591204001568258,0.04671060014516115,0.046589799923822284,0.09986630012281239,0.09956449992023408,0.7507154000923038
RSVPLG03,md,20260310-111127,1.0.2,20251105-084826,797,Practice,Both,1,Automatic,main,16,20260310-111317,local,local,300,S,S,A,A,A-S.png,A-S.png,sS,sS,mask-1.png,mask-2.png,s,1,0.8529564999043941,s,1,0.8166507000569254,0.046897900057956576,0.047585400054231286,0.09897400019690394,0.1004951000213623,0.29930440010502934
RSVPLG03,md,20260310-111335,1.0.2,20251105-084826,797,Practice,Both,1,Automatic,main,1,20260310-111352,local,local,300,S,S,E,E,E-S.png,E-S.png,sS,sS,mask-1.png,mask-4.png,s,1,0.5945270000956953,s,1,0.2398429000750184,0.0400392001029104,0.04678909992799163,0.0927417001221329,0.1010368000715971,0.2940323001239449
RSVPLG03,md,20260310-111335,1.0.2,20251105-084826,797,Practice,Both,1,Automatic,main,2,20260310-111356,local,global,750,S,H,E,A,E-S.png,H-A.png,sS,hH,mask-4.png,mask-4.png,s,1,0.6709235000889748,s,0,0.14976909989491105,0.04872269998304546,0.047724599950015545,0.10076379985548556,0.09976359992288053,0.7510536999907345
RSVPLG03,md,20260310-111335,1.0.2,20251105-084826,797,Practice,Both,1,Automatic,main,3,20260310-111401,local,local,750,S,S,A,A,A-S.png,A-S.png,sS,sS,mask-3.png,mask-2.png,s,1,0.5061570000834763,s,1,0.2523929998278618,0.04772870009765029,0.04777559987269342,0.10102630010806024,0.0998773998580873,0.7499528001062572
RSVPLG03,md,20260310-111335,1.0.2,20251105-084826,797,Practice,Both,1,Automatic,main,4,20260310-111406,global,local,750,H,S,E,A,H-E.png,A-S.png,hH,sS,mask-4.png,mask-3.png,h,1,0.744066699873656,h,0,0.17583690001629293,0.04653750010766089,0.047626500017941,0.09882890013977885,0.0996429999358952,0.749630100093782
RSVPLG03,md,20260310-111335,1.0.2,20251105-084826,797,Practice,Both,1,Automatic,main,5,20260310-111411,global,global,750,H,S,E,A,H-E.png,S-A.png,hH,sS,mask-4.png,mask-3.png,h,1,0.6445356998592615,s,1,0.1839164001867175,0.0457500999327749,0.047505500027909875,0.09984619985334575,0.09956010011956096,0.7499925999436527
RSVPLG03,md,20260310-111335,1.0.2,20251105-084826,797,Practice,Both,1,Automatic,main,6,20260310-111417,global,local,750,S,S,A,E,S-A.png,E-S.png,sS,sS,mask-3.png,mask-1.png,s,1,0.42111549992114305,s,1,0.1820509999524802,0.04582470003515482,0.0485107998829335,0.0989109999500215,0.10050499998033047,0.7488744000438601
RSVPLG03,md,20260310-111335,1.0.2,20251105-084826,797,Practice,Both,1,Automatic,main,7,20260310-111421,global,local,300,H,H,E,E,H-E.png,E-H.png,hH,hH,mask-3.png,mask-1.png,h,1,1.3829488998744637,h,1,0.16371230012737215,0.04835329996421933,0.047507999930530787,0.10061690001748502,0.1004812999162823,0.29995979997329414
RSVPLG03,md,20260310-111335,1.0.2,20251105-084826,797,Practice,Both,1,Automatic,main,8,20260310-111427,local,global,300,S,H,E,A,E-S.png,H-A.png,sS,hH,mask-3.png,mask-2.png,s,1,0.8732859001029283,h,1,0.13056190009228885,0.0471085999161005,0.04974199994467199,0.10016230004839599,0.10088269994594157,0.29839459992945194
RSVPLG03,md,20260310-111335,1.0.2,20251105-084826,797,Practice,Both,1,Automatic,main,9,20260310-111431,local,global,300,H,H,E,A,E-H.png,H-A.png,hH,hH,mask-2.png,mask-4.png,h,1,1.0960335999261588,h,1,0.21807150007225573,0.047657799907028675,0.04655550001189113,0.09984749997965991,0.09989039995707572,0.3003209000453353
RSVPLG03,md,20260310-111335,1.0.2,20251105-084826,797,Practice,Both,1,Automatic,main,10,20260310-111436,local,local,300,H,S,E,E,E-H.png,E-S.png,hH,sS,mask-4.png,mask-2.png,h,1,1.1916507000569254,h,0,0.2892412000801414,0.04592989990487695,0.04765640012919903,0.10021379985846579,0.09908449999056756,0.2998060998506844
RSVPLG03,md,20260310-111335,1.0.2,20251105-084826,797,Practice,Both,1,Automatic,main,11,20260310-111442,global,global,750,S,S,E,A,S-E.png,S-A.png,sS,sS,mask-2.png,mask-2.png,s,1,1.2214339000638574,h,0,0.05986529984511435,0.045893199974671006,0.045667200116440654,0.1001649999525398,0.09983390010893345,0.7502617000136524
RSVPLG03,md,20260310-111335,1.0.2,20251105-084826,797,Practice,Both,1,Automatic,main,12,20260310-111447,local,global,750,S,S,E,E,E-S.png,S-E.png,sS,sS,mask-2.png,mask-1.png,s,1,0.5602241000160575,s,1,0.13868870004080236,0.048431800212711096,0.047821300104260445,0.10143660008907318,0.10080820019356906,0.7505850000306964
RSVPLG03,md,20260310-111335,1.0.2,20251105-084826,797,Practice,Both,1,Automatic,main,13,20260310-111452,local,local,750,H,S,A,E,A-H.png,E-S.png,hH,sS,mask-4.png,mask-4.png,h,1,1.1249923999421299,s,1,0.11483760015107691,0.04780659987591207,0.04562329989857972,0.10100240004248917,0.09914850001223385,0.7509117999579757
RSVPLG03,md,20260310-111335,1.0.2,20251105-084826,797,Practice,Both,1,Automatic,main,14,20260310-111457,global,global,300,H,S,A,A,H-A.png,S-A.png,hH,sS,mask-4.png,mask-4.png,h,1,0.9971276998985559,s,1,0.17241350002586842,0.04880560003221035,0.046994199976325035,0.10094600007869303,0.09938999987207353,0.30093710008077323
RSVPLG03,md,20260310-111335,1.0.2,20251105-084826,797,Practice,Both,1,Automatic,main,15,20260310-111502,global,local,300,S,H,E,A,S-E.png,A-H.png,sS,hH,mask-4.png,mask-3.png,s,1,1.1408333000726998,h,1,0.13516359985806048,0.04850760009139776,0.048500899923965335,0.09974450012668967,0.09969750000163913,0.2999985001515597
RSVPLG03,md,20260310-111335,1.0.2,20251105-084826,797,Practice,Both,1,Automatic,main,16,20260310-111507,global,global,300,S,H,E,E,S-E.png,H-E.png,sS,hH,mask-3.png,mask-2.png,s,1,1.0452446001581848,h,1,0.25964619987644255,0.048506899969652295,0.048583699855953455,0.09950429992750287,0.09958359994925559,0.2999011001084
RSVPLG03,md,20260310-111637,1.0.2,20251105-084826,797,Experiment,Both,1,Automatic,warmup,1,20260310-111705,global,global,750,S,S,A,E,S-A.png,S-E.png,sS,sS,mask-1.png,mask-4.png,s,1,1.4060368998907506,s,1,0.16825899994000793,0.03881180007010698,0.04712600004859269,0.0922896999400109,0.099831199971959,0.7413792000152171
RSVPLG03,md,20260310-111637,1.0.2,20251105-084826,797,Experiment,Both,1,Automatic,warmup,2,20260310-111711,global,local,300,S,S,A,E,S-A.png,E-S.png,sS,sS,mask-2.png,mask-2.png,s,1,1.6142261000350118,h,0,0.23307630000635982,0.048727700021117926,0.047463399823755026,0.10096190008334816,0.10076219984330237,0.3005663000512868
RSVPLG03,md,20260310-111637,1.0.2,20251105-084826,797,Experiment,Both,1,Automatic,warmup,3,20260310-111717,local,global,750,H,S,E,A,E-H.png,S-A.png,hH,sS,mask-1.png,mask-4.png,h,1,0.7681909000966698,h,0,0.1860266998410225,0.045536099933087826,0.04742780001834035,0.09940769989043474,0.10065119992941618,0.7483391999267042
RSVPLG03,md,20260310-111637,1.0.2,20251105-084826,797,Experiment,Both,1,Automatic,warmup,4,20260310-111722,global,local,750,H,S,A,E,H-A.png,E-S.png,hH,sS,mask-3.png,mask-1.png,h,1,0.7095138998702168,s,1,0.1984134998638183,0.046519000083208084,0.047022399958223104,0.09975260007195175,0.10062959999777377,0.7501141000539064
RSVPLG03,md,20260310-111637,1.0.2,20251105-084826,797,Experiment,Both,1,Automatic,main,5,20260310-111727,local,local,750,S,S,E,E,E-S.png,E-S.png,sS,sS,mask-4.png,mask-1.png,s,1,0.43219660012982786,s,1,0.14105090009979904,0.04706309991888702,0.04776829993352294,0.09811170003376901,0.09986790013499558,0.7487949999049306
RSVPLG03,md,20260310-111637,1.0.2,20251105-084826,797,Experiment,Both,1,Automatic,main,6,20260310-111732,local,global,300,S,H,E,A,E-S.png,H-A.png,sS,hH,mask-4.png,mask-2.png,s,1,0.64791200007312,s,0,0.17085970006883144,0.04746869998052716,0.04641470010392368,0.10055679990909994,0.09931690013036132,0.3007878998760134
RSVPLG03,md,20260310-111637,1.0.2,20251105-084826,797,Experiment,Both,1,Automatic,main,7,20260310-111736,local,local,750,H,S,A,A,A-H.png,A-S.png,hH,sS,mask-4.png,mask-4.png,h,1,0.5786737999878824,s,1,0.1812966000288725,0.04749609995633364,0.047562200110405684,0.09873110009357333,0.10054830019362271,0.7483743999619037
RSVPLG03,md,20260310-111637,1.0.2,20251105-084826,797,Experiment,Both,1,Automatic,main,8,20260310-111741,global,global,300,S,H,E,A,S-E.png,H-A.png,sS,hH,mask-3.png,mask-4.png,s,1,1.1992071000859141,h,1,0.13265919988043606,0.04796870006248355,0.047741300193592906,0.09936059988103807,0.09991420013830066,0.29989749984815717
RSVPLG03,md,20260310-111637,1.0.2,20251105-084826,797,Experiment,Both,1,Automatic,main,9,20260310-111747,local,global,300,S,S,A,E,A-S.png,S-E.png,sS,sS,mask-2.png,mask-2.png,s,1,0.894345800159499,h,0,0.17627720022574067,0.04767200001515448,0.048559000017121434,0.09866519994102418,0.10055540013127029,0.2993234999012202
RSVPLG03,md,20260310-111637,1.0.2,20251105-084826,797,Experiment,Both,1,Automatic,main,10,20260310-111751,local,local,300,S,S,A,E,A-S.png,E-S.png,sS,sS,mask-1.png,mask-1.png,s,1,0.4047904000617564,s,1,0.16605320014059544,0.04676760011352599,0.04867859999649227,0.09896680014207959,0.09987010015174747,0.29949779994785786
RSVPLG03,md,20260310-111637,1.0.2,20251105-084826,797,Experiment,Both,1,Automatic,main,11,20260310-111756,global,local,300,S,S,E,E,S-E.png,E-S.png,sS,sS,mask-3.png,mask-3.png,s,1,0.8793294001370668,h,0,0.15013980004005134,0.04766290006227791,0.04704730003140867,0.0998690000269562,0.10010850010439754,0.29909129999578
RSVPLG03,md,20260310-111637,1.0.2,20251105-084826,797,Experiment,Both,1,Automatic,main,12,20260310-111800,global,local,750,S,H,E,A,S-E.png,A-H.png,sS,hH,mask-1.png,mask-2.png,s,1,0.7495844999793917,h,1,0.12133680004626513,0.045683000003919005,0.04848390002734959,0.09974999981932342,0.1003703000023961,0.7486359998583794
RSVPLG03,md,20260310-111637,1.0.2,20251105-084826,797,Experiment,Both,1,Automatic,main,13,20260310-111806,global,local,300,S,S,A,E,S-A.png,E-S.png,sS,sS,mask-3.png,mask-2.png,s,1,3.203341000014916,s,1,0.17533689993433654,0.04635039996355772,0.048531899927183986,0.09951719990931451,0.09945200011134148,0.2985336999408901
RSVPLG03,md,20260310-111637,1.0.2,20251105-084826,797,Experiment,Both,1,Automatic,main,14,20260310-111813,local,local,750,H,S,A,E,A-H.png,E-S.png,hH,sS,mask-2.png,mask-3.png,h,1,1.4554719000589103,s,1,0.16533209988847375,0.04673289996571839,0.04671260016039014,0.1008689000736922,0.09991590003482997,0.7497606999240816
RSVPLG03,md,20260310-111637,1.0.2,20251105-084826,797,Experiment,Both,1,Automatic,main,15,20260310-111818,global,local,750,H,H,A,E,H-A.png,E-H.png,hH,hH,mask-2.png,mask-1.png,h,1,1.4722555000334978,s,0,0.12405809992924333,0.04744620015844703,0.047716200118884444,0.10038050008006394,0.09990650019608438,0.7504594000056386
RSVPLG03,md,20260310-111637,1.0.2,20251105-084826,797,Experiment,Both,1,Automatic,main,16,20260310-111824,local,global,750,S,S,A,E,A-S.png,S-E.png,sS,sS,mask-1.png,mask-2.png,s,1,2.7297079998534173,h,0,0.11774999997578561,0.04750340012833476,0.04750779992900789,0.09953250014223158,0.09956520004197955,0.7498811001423746
RSVPLG03,md,20260310-111637,1.0.2,20251105-084826,797,Experiment,Both,1,Automatic,main,17,20260310-111831,local,global,750,S,S,E,A,E-S.png,S-A.png,sS,sS,mask-1.png,mask-1.png,s,1,1.6135907000862062,s,1,0.12004219996742904,0.04794750013388693,0.04769739997573197,0.09927420015446842,0.09988090000115335,0.7503088000230491
RSVPLG03,md,20260310-111637,1.0.2,20251105-084826,797,Experiment,Both,1,Automatic,main,18,20260310-111837,global,local,750,S,H,E,E,S-E.png,E-H.png,sS,hH,mask-2.png,mask-1.png,s,1,0.8355932000558823,h,1,1.0957913000602275,0.04564449982717633,0.045647199964150786,0.09954409999772906,0.09976299991831183,0.7498004999943078
RSVPLG03,md,20260310-111637,1.0.2,20251105-084826,797,Experiment,Both,1,Automatic,main,19,20260310-111843,local,local,750,H,H,E,A,E-H.png,A-H.png,hH,hH,mask-3.png,mask-1.png,h,1,0.45944639993831515,h,1,0.11582299997098744,0.046793999848887324,0.04664069996215403,0.09844359988346696,0.09983179997652769,0.749682999914512
RSVPLG03,md,20260310-111637,1.0.2,20251105-084826,797,Experiment,Both,1,Automatic,main,20,20260310-111848,global,global,300,S,H,A,E,S-A.png,H-E.png,sS,hH,mask-1.png,mask-4.png,s,1,0.8210140999872237,h,1,0.26265259995125234,0.046423699939623475,0.047459099907428026,0.09785839985124767,0.09968249988742173,0.2983631999231875
RSVPLG03,md,20260310-111637,1.0.2,20251105-084826,797,Experiment,Both,1,Automatic,main,21,20260310-111853,global,global,750,H,H,E,E,H-E.png,H-E.png,hH,hH,mask-3.png,mask-3.png,h,1,0.6324662999249995,h,1,0.14132479997351766,0.047090099891647696,0.04877630015835166,0.09937349986284971,0.10165930003859103,0.7488066998776048
RSVPLG03,md,20260310-111637,1.0.2,20251105-084826,797,Experiment,Both,1,Automatic,main,22,20260310-111858,global,local,750,H,H,E,E,H-E.png,E-H.png,hH,hH,mask-2.png,mask-3.png,h,1,1.3344160998240113,s,0,0.15476429997943342,0.047656199894845486,0.04768249997869134,0.09991629980504513,0.09848379995673895,0.7496120999567211
RSVPLG03,md,20260310-111637,1.0.2,20251105-084826,797,Experiment,Both,1,Automatic,main,23,20260310-111904,local,local,300,S,S,E,A,E-S.png,A-S.png,sS,sS,mask-2.png,mask-1.png,s,1,0.7497097000014037,s,1,0.1296574000734836,0.04750609979964793,0.046893500024452806,0.09952049981802702,0.0999901001341641,0.2999365997966379
RSVPLG03,md,20260310-111637,1.0.2,20251105-084826,797,Experiment,Both,1,Automatic,main,24,20260310-111908,local,global,750,S,H,A,A,A-S.png,H-A.png,sS,hH,mask-1.png,mask-3.png,h,0,0.8967629000544548,h,1,0.1001212999690324,0.04681229987181723,0.04750069999136031,0.09989449987187982,0.09947290015406907,0.7501084997784346
RSVPLG03,md,20260310-111637,1.0.2,20251105-084826,797,Experiment,Both,1,Automatic,main,25,20260310-111913,global,global,750,S,H,A,E,S-A.png,H-E.png,sS,hH,mask-4.png,mask-3.png,s,1,1.439892000053078,h,1,0.45979700004681945,0.04671280016191304,0.04687950015068054,0.09939920017495751,0.09996350016444921,0.7485638000071049
RSVPLG03,md,20260310-111637,1.0.2,20251105-084826,797,Experiment,Both,1,Automatic,main,26,20260310-112003,local,local,750,S,H,A,E,A-S.png,E-H.png,sS,hH,mask-3.png,mask-4.png,s,1,0.5020814999006689,h,1,0.14040779997594655,0.04728420008905232,0.0456642999779433,0.10023480001837015,0.09985550004057586,0.7511881000827998
RSVPLG03,md,20260310-111637,1.0.2,20251105-084826,797,Experiment,Both,1,Automatic,main,27,20260310-112008,global,local,300,S,H,A,E,S-A.png,E-H.png,sS,hH,mask-2.png,mask-1.png,s,1,0.9712791999336332,h,1,0.17172030010260642,0.04798279982060194,0.04702210007235408,0.09938879986293614,0.09862569998949766,0.3009752999059856
RSVPLG03,md,20260310-111637,1.0.2,20251105-084826,797,Experiment,Both,1,Automatic,main,28,20260310-112013,global,global,750,H,H,E,A,H-E.png,H-A.png,hH,hH,mask-1.png,mask-1.png,h,1,0.47265890007838607,h,1,0.10939960018731654,0.046752800000831485,0.048035599989816546,0.09833740000613034,0.09933949983678758,0.7494131000712514
RSVPLG03,md,20260310-111637,1.0.2,20251105-084826,797,Experiment,Both,1,Automatic,main,29,20260310-112018,local,local,750,S,S,A,E,A-S.png,E-S.png,sS,sS,mask-3.png,mask-2.png,h,0,0.6257672000210732,s,1,0.09193280013278127,0.04539909982122481,0.04684010008350015,0.09902009996585548,0.09895349992439151,0.7494663998950273
RSVPLG03,md,20260310-111637,1.0.2,20251105-084826,797,Experiment,Both,1,Automatic,main,30,20260310-112023,local,local,300,S,H,E,A,E-S.png,A-H.png,sS,hH,mask-2.png,mask-4.png,s,1,0.7220389998983592,s,0,0.11935569997876883,0.04606319987215102,0.04669780004769564,0.09911429998464882,0.09874720009975135,0.3003753998782486
RSVPLG03,md,20260310-111637,1.0.2,20251105-084826,797,Experiment,Both,1,Automatic,main,31,20260310-112027,local,global,750,H,S,E,E,E-H.png,S-E.png,hH,sS,mask-3.png,mask-4.png,h,1,1.325504699954763,h,0,0.9341965999919921,0.0475019000004977,0.04748130007646978,0.1004757999908179,0.1005146000534296,0.7507004998624325
RSVPLG03,md,20260310-111637,1.0.2,20251105-084826,797,Experiment,Both,1,Automatic,main,32,20260310-112034,local,local,300,H,H,A,A,A-H.png,A-H.png,hH,hH,mask-3.png,mask-2.png,h,1,0.4518408998847008,h,1,0.10735720000229776,0.046583699993789196,0.048585900105535984,0.09983789990656078,0.09935190016403794,0.29944289987906814
RSVPLG03,md,20260310-111637,1.0.2,20251105-084826,797,Experiment,Both,1,Automatic,main,33,20260310-112038,global,local,300,S,H,A,A,S-A.png,A-H.png,sS,hH,mask-2.png,mask-1.png,s,1,1.3088587000966072,h,1,0.027726899832487106,0.047551299910992384,0.04767969995737076,0.09939599991776049,0.09937669988721609,0.29931519995443523
RSVPLG03,md,20260310-111637,1.0.2,20251105-084826,797,Experiment,Both,1,Automatic,main,34,20260310-112043,global,global,300,S,S,A,A,S-A.png,S-A.png,sS,sS,mask-4.png,mask-2.png,s,1,0.8621721998788416,s,1,0.16294740000739694,0.045660600066185,0.04747959994710982,0.09902140009216964,0.10075709992088377,0.2983044001739472
RSVPLG03,md,20260310-111637,1.0.2,20251105-084826,797,Experiment,Both,1,Automatic,main,35,20260310-112048,local,local,750,S,S,A,E,A-S.png,E-S.png,sS,sS,mask-1.png,mask-4.png,s,1,0.7562725997995585,s,1,0.08599329995922744,0.047372700180858374,0.04754450009204447,0.09827870014123619,0.10062279994599521,0.7481331001035869
RSVPLG03,md,20260310-111637,1.0.2,20251105-084826,797,Experiment,Both,1,Automatic,main,36,20260310-112053,global,local,300,S,S,E,A,S-E.png,A-S.png,sS,sS,mask-3.png,mask-3.png,s,1,1.3524585000704974,h,0,1.0462098000571132,0.04736259998753667,0.04744150000624359,0.09945420012809336,0.09976180014200509,0.2998252999968827
RSVPLG03,md,20260310-111637,1.0.2,20251105-084826,797,Experiment,Both,1,Automatic,main,37,20260310-112059,local,global,300,H,H,A,E,A-H.png,H-E.png,hH,hH,mask-1.png,mask-3.png,h,1,1.4378707001451403,h,1,0.12879540002904832,0.04786169994622469,0.04889600002206862,0.10124229989014566,0.10093459999188781,0.29996309988200665
RSVPLG03,md,20260310-111637,1.0.2,20251105-084826,797,Experiment,Both,1,Automatic,main,38,20260310-112104,local,global,300,H,H,E,A,E-H.png,H-A.png,hH,hH,mask-3.png,mask-3.png,h,1,1.004761900054291,h,1,0.11266060010530055,0.04835860012099147,0.048688999842852354,0.10091560008004308,0.10006319987587631,0.3006932002026588
RSVPLG03,md,20260310-111637,1.0.2,20251105-084826,797,Experiment,Both,1,Automatic,main,39,20260310-112109,local,local,300,S,H,A,A,A-S.png,A-H.png,sS,hH,mask-3.png,mask-1.png,s,1,0.8374849997926503,s,0,0.8884126998018473,0.0482916000764817,0.0481946999207139,0.09994570002891123,0.10019359993748367,0.2998212000820786
RSVPLG03,md,20260310-111637,1.0.2,20251105-084826,797,Experiment,Both,1,Automatic,main,40,20260310-112114,local,local,750,H,H,E,E,E-H.png,E-H.png,hH,hH,mask-2.png,mask-3.png,h,1,1.1757226001936942,s,0,0.39551289984956384,0.046806300058960915,0.046703699976205826,0.09799670008942485,0.09888329985551536,0.749662300106138
RSVPLG03,md,20260310-111637,1.0.2,20251105-084826,797,Experiment,Both,1,Automatic,main,41,20260310-112120,local,local,300,H,H,A,E,A-H.png,E-H.png,hH,hH,mask-2.png,mask-2.png,h,1,0.5565879999194294,h,1,0.12537020002491772,0.047554299933835864,0.048186799976974726,0.10009069996885955,0.10136809991672635,0.2989727999083698
RSVPLG03,md,20260310-111637,1.0.2,20251105-084826,797,Experiment,Both,1,Automatic,main,42,20260310-112125,local,global,300,H,H,A,A,A-H.png,H-A.png,hH,hH,mask-1.png,mask-3.png,h,1,1.0365218999795616,s,0,0.0464505001436919,0.04746520007029176,0.04863139986991882,0.09984220005571842,0.10112169990316033,0.2991889000404626
RSVPLG03,md,20260310-111637,1.0.2,20251105-084826,797,Experiment,Both,1,Automatic,main,43,20260310-112129,global,global,300,S,S,A,A,S-A.png,S-A.png,sS,sS,mask-2.png,mask-2.png,h,0,2.023352599935606,h,0,0.07092950004152954,0.04896289994940162,0.04702309984713793,0.09935000003315508,0.09846100001595914,0.30185350007377565
RSVPLG03,md,20260310-111637,1.0.2,20251105-084826,797,Experiment,Both,1,Automatic,main,44,20260310-112135,global,global,750,S,S,E,E,S-E.png,S-E.png,sS,sS,mask-3.png,mask-2.png,s,1,0.8444845001213253,s,1,0.1245259998831898,0.04772390006110072,0.04772719996981323,0.10080010001547635,0.099845000077039,0.748961600009352
RSVPLG03,md,20260310-111637,1.0.2,20251105-084826,797,Experiment,Both,1,Automatic,main,45,20260310-112140,local,global,300,H,S,E,A,E-H.png,S-A.png,hH,sS,mask-3.png,mask-1.png,h,1,2.318924200022593,s,1,0.36049639992415905,0.04751659999601543,0.04733079997822642,0.09955319995060563,0.09866450005210936,0.29987300001084805
RSVPLG03,md,20260310-111637,1.0.2,20251105-084826,797,Experiment,Both,1,Automatic,main,46,20260310-112147,global,global,300,H,S,A,E,H-A.png,S-E.png,hH,sS,mask-1.png,mask-3.png,h,1,0.9659456999506801,h,0,0.1411699999589473,0.04737760010175407,0.04568890016525984,0.0992459999397397,0.09997209999710321,0.2999527999199927
RSVPLG03,md,20260310-111637,1.0.2,20251105-084826,797,Experiment,Both,1,Automatic,main,47,20260310-112151,local,local,750,H,S,A,E,A-H.png,E-S.png,hH,sS,mask-3.png,mask-4.png,h,1,2.3615107000805438,s,1,0.04076040000654757,0.04646630003117025,0.04870470007881522,0.09793349984101951,0.0998935999814421,0.7479735999368131
RSVPLG03,md,20260310-111637,1.0.2,20251105-084826,797,Experiment,Both,1,Automatic,main,48,20260310-112158,global,local,750,S,S,E,A,S-E.png,A-S.png,sS,sS,mask-3.png,mask-1.png,s,1,0.40661259996704757,s,1,0.12180619989521801,0.046539200004190207,0.04669019998982549,0.10053439997136593,0.09959760005585849,0.7501938999630511
RSVPLG03,md,20260310-111637,1.0.2,20251105-084826,797,Experiment,Both,1,Automatic,main,49,20260310-112203,global,local,750,H,S,E,E,H-E.png,E-S.png,hH,sS,mask-2.png,mask-1.png,h,1,1.153444099938497,s,1,0.06935220002196729,0.047519899904727936,0.047585099935531616,0.10076959989964962,0.09873860003426671,0.7505834999028593
RSVPLG03,md,20260310-111637,1.0.2,20251105-084826,797,Experiment,Both,1,Automatic,main,50,20260310-112208,local,local,300,S,H,E,A,E-S.png,A-H.png,sS,hH,mask-2.png,mask-4.png,s,1,1.3663037999067456,s,0,0.10189170017838478,0.04928470007143915,0.04750930005684495,0.10094769997522235,0.09990629996173084,0.3005474000237882
RSVPLG03,md,20260310-111637,1.0.2,20251105-084826,797,Experiment,Both,1,Automatic,main,51,20260310-112313,global,local,750,S,S,E,E,S-E.png,E-S.png,sS,sS,mask-4.png,mask-3.png,s,1,0.4140176000073552,s,1,0.11178160016424954,0.046268500154837966,0.04650230007246137,0.0997882999945432,0.09955059993080795,0.7505090001504868
RSVPLG03,md,20260310-111637,1.0.2,20251105-084826,797,Experiment,Both,1,Automatic,main,52,20260310-112317,global,global,300,S,S,A,A,S-A.png,S-A.png,sS,sS,mask-1.png,mask-3.png,s,1,0.47523360000923276,s,1,0.11517310002818704,0.04753979993984103,0.04750750004313886,0.09854319994337857,0.09872830007225275,0.2998036998324096
RSVPLG03,md,20260310-111637,1.0.2,20251105-084826,797,Experiment,Both,1,Automatic,main,53,20260310-112322,global,local,750,H,H,E,A,H-E.png,A-H.png,hH,hH,mask-2.png,mask-3.png,h,1,0.4147518998943269,h,1,0.10207200003787875,0.047666799975559115,0.047663900069892406,0.09886439982801676,0.10190130001865327,0.7484121997840703
RSVPLG03,md,20260310-111637,1.0.2,20251105-084826,797,Experiment,Both,1,Automatic,main,54,20260310-112326,local,local,300,S,S,E,E,E-S.png,E-S.png,sS,sS,mask-3.png,mask-1.png,s,1,0.6201017000712454,s,1,0.13405329990200698,0.04613879998214543,0.047923299949616194,0.1003174998331815,0.10023380001075566,0.2990073999390006
RSVPLG03,md,20260310-111637,1.0.2,20251105-084826,797,Experiment,Both,1,Automatic,main,55,20260310-112331,global,global,750,H,H,A,A,H-A.png,H-A.png,hH,hH,mask-4.png,mask-1.png,h,1,0.34977620001882315,h,1,0.10522139980457723,0.047409400111064315,0.048016699962317944,0.10111530008725822,0.10028910008259118,0.7497324000578374
RSVPLG03,md,20260310-111637,1.0.2,20251105-084826,797,Experiment,Both,1,Automatic,main,56,20260310-112336,local,local,300,H,H,E,A,E-H.png,A-H.png,hH,hH,mask-1.png,mask-2.png,h,1,1.9533270001411438,s,0,0.5793641000054777,0.04661690001375973,0.047631399938836694,0.09958299994468689,0.10207759984768927,0.2990081000607461
RSVPLG03,md,20260310-111637,1.0.2,20251105-084826,797,Experiment,Both,1,Automatic,main,57,20260310-112342,local,global,300,S,H,A,E,A-S.png,H-E.png,sS,hH,mask-3.png,mask-1.png,s,1,1.4813089999370277,h,1,0.3114942000247538,0.047530800104141235,0.04642309993505478,0.10059100016951561,0.10045589995570481,0.3011289001442492
RSVPLG03,md,20260310-111637,1.0.2,20251105-084826,797,Experiment,Both,1,Automatic,main,58,20260310-112347,local,global,300,S,S,A,E,A-S.png,S-E.png,sS,sS,mask-1.png,mask-4.png,s,1,2.8019072997849435,h,0,0.4847311000339687,0.046715599950402975,0.04769559996202588,0.0995421998668462,0.10179550014436245,0.2993440998252481
RSVPLG03,md,20260310-111637,1.0.2,20251105-084826,797,Experiment,Both,1,Automatic,main,59,20260310-112354,local,local,300,H,H,A,E,A-H.png,E-H.png,hH,hH,mask-4.png,mask-3.png,h,1,0.9342655998189002,s,0,0.11944800009950995,0.04800259997136891,0.04634859994985163,0.1000562000554055,0.10023019998334348,0.30108130001462996
RSVPLG03,md,20260310-111637,1.0.2,20251105-084826,797,Experiment,Both,1,Automatic,main,60,20260310-112359,local,global,750,H,H,E,E,E-H.png,H-E.png,hH,hH,mask-1.png,mask-1.png,h,1,1.6866589998826385,s,0,0.0694365999661386,0.047660900047048926,0.047915900126099586,0.09987969999201596,0.099075400037691,0.7503694999031723
RSVPLG03,md,20260310-111637,1.0.2,20251105-084826,797,Experiment,Both,1,Automatic,main,61,20260310-112405,global,global,750,S,S,E,E,S-E.png,S-E.png,sS,sS,mask-2.png,mask-3.png,s,1,0.426578399958089,s,1,0.12195179983973503,0.04878200008533895,0.04697300004772842,0.10102020017802715,0.09946230007335544,0.7506762000266463
RSVPLG03,md,20260310-111637,1.0.2,20251105-084826,797,Experiment,Both,1,Automatic,main,62,20260310-112410,global,global,300,H,S,A,E,H-A.png,S-E.png,hH,sS,mask-4.png,mask-2.png,h,1,1.3027933998964727,s,1,0.09103560005314648,0.047499399865046144,0.046277400106191635,0.10053239995613694,0.10010859998874366,0.30050359992310405
RSVPLG03,md,20260310-111637,1.0.2,20251105-084826,797,Experiment,Both,1,Automatic,main,63,20260310-112415,local,global,750,S,S,E,A,E-S.png,S-A.png,sS,sS,mask-1.png,mask-4.png,s,1,0.2967418001499027,s,1,0.13198509998619556,0.047534599900245667,0.04682319983839989,0.10050609987229109,0.09961429983377457,0.749963500071317
RSVPLG03,md,20260310-111637,1.0.2,20251105-084826,797,Experiment,Both,1,Automatic,main,64,20260310-112420,global,global,300,H,H,A,A,H-A.png,H-A.png,hH,hH,mask-3.png,mask-2.png,h,1,1.4780466000083834,h,1,1.8819225998595357,0.047381100011989474,0.04683950007893145,0.10125340009108186,0.10000069998204708,0.30024929996579885
RSVPLG03,md,20260310-111637,1.0.2,20251105-084826,797,Experiment,Both,1,Automatic,main,65,20260310-112427,global,global,750,H,S,E,E,H-E.png,S-E.png,hH,sS,mask-2.png,mask-4.png,h,1,0.5634105000644922,s,1,0.15039459988474846,0.04829750000499189,0.04767820006236434,0.0995141000021249,0.10082960012368858,0.7493360999505967
RSVPLG03,md,20260310-111637,1.0.2,20251105-084826,797,Experiment,Both,1,Automatic,main,66,20260310-112432,local,global,750,S,S,A,E,A-S.png,S-E.png,sS,sS,mask-4.png,mask-3.png,s,1,0.7411505000200123,s,1,0.12272080010734499,0.0475872999522835,0.04696110007353127,0.09989519999362528,0.1002670000307262,0.7490419999230653
RSVPLG03,md,20260310-111637,1.0.2,20251105-084826,797,Experiment,Both,1,Automatic,main,67,20260310-112437,local,local,300,S,H,A,A,A-S.png,A-H.png,sS,hH,mask-1.png,mask-3.png,s,1,1.3582307000178844,h,1,0.15342170000076294,0.04834070010110736,0.04767130012623966,0.10000029997900128,0.09967200015671551,0.2998581000138074
RSVPLG03,md,20260310-111637,1.0.2,20251105-084826,797,Experiment,Both,1,Automatic,main,68,20260310-112442,global,local,750,H,S,E,A,H-E.png,A-S.png,hH,sS,mask-1.png,mask-2.png,h,1,0.6997271999716759,h,0,0.1461185000371188,0.047724399948492646,0.04573630006052554,0.09870520001277328,0.09892060002312064,0.7501057998742908
RSVPLG03,md,20260310-111637,1.0.2,20251105-084826,797,Experiment,Both,1,Automatic,main,69,20260310-112447,local,global,750,H,H,A,E,A-H.png,H-E.png,hH,hH,mask-3.png,mask-2.png,s,0,1.6460432999301702,h,1,0.03755400003865361,0.048701300052925944,0.047664100071415305,0.10071830009110272,0.09984689997509122,0.7499520999845117
RSVPLG03,md,20260310-111637,1.0.2,20251105-084826,797,Experiment,Both,1,Automatic,main,70,20260310-112453,global,global,300,H,H,E,A,H-E.png,H-A.png,hH,hH,mask-4.png,mask-4.png,h,1,0.789444399997592,h,1,0.09297920018434525,0.04880999983288348,0.04569580010138452,0.1000177999958396,0.09888989990577102,0.3015371998772025
RSVPLG03,md,20260310-111637,1.0.2,20251105-084826,797,Experiment,Both,1,Automatic,main,71,20260310-112457,global,local,300,S,S,A,A,S-A.png,A-S.png,sS,sS,mask-1.png,mask-4.png,s,1,0.7920089000836015,h,0,0.5362134000752121,0.047634099842980504,0.048607700038701296,0.09981309995055199,0.09966790000908077,0.29981659981422126
RSVPLG03,md,20260310-111637,1.0.2,20251105-084826,797,Experiment,Both,1,Automatic,main,72,20260310-112502,global,local,300,S,H,E,E,S-E.png,E-H.png,sS,hH,mask-2.png,mask-4.png,s,1,1.003436699975282,s,0,0.11836880003102124,0.04758600005879998,0.047768000047653913,0.09896289999596775,0.10006430000066757,0.29833119991235435
RSVPLG03,md,20260310-111637,1.0.2,20251105-084826,797,Experiment,Both,1,Automatic,main,73,20260310-112507,global,global,750,S,S,E,E,S-E.png,S-E.png,sS,sS,mask-3.png,mask-1.png,s,1,0.31649650004692376,s,1,0.10779959987848997,0.047113200183957815,0.04776669992133975,0.09862689999863505,0.09897669986821711,0.7490589001681656
RSVPLG03,md,20260310-111637,1.0.2,20251105-084826,797,Experiment,Both,1,Automatic,main,74,20260310-112512,global,local,750,H,S,A,E,H-A.png,E-S.png,hH,sS,mask-4.png,mask-1.png,h,1,0.9771092000883073,s,1,0.07474000006914139,0.04751800000667572,0.04654929996468127,0.10052159987390041,0.09862209996208549,0.7511573999654502
RSVPLG03,md,20260310-111637,1.0.2,20251105-084826,797,Experiment,Both,1,Automatic,main,75,20260310-112517,global,local,750,S,S,E,E,S-E.png,E-S.png,sS,sS,mask-2.png,mask-1.png,s,1,0.266244700178504,s,1,0.08412299980409443,0.046073899837210774,0.04656590009108186,0.09871859988197684,0.09941909997723997,0.7501118998043239
RSVPLG03,md,20260310-111637,1.0.2,20251105-084826,797,Experiment,Both,1,Automatic,main,76,20260310-112633,local,global,750,H,H,A,E,A-H.png,H-E.png,hH,hH,mask-2.png,mask-4.png,h,1,0.9744175001978874,s,0,0.14444069983437657,0.04758080001920462,0.04691879986785352,0.10063710017129779,0.09838049998506904,0.7508706001099199
RSVPLG03,md,20260310-111637,1.0.2,20251105-084826,797,Experiment,Both,1,Automatic,main,77,20260310-112638,global,local,300,S,S,E,E,S-E.png,E-S.png,sS,sS,mask-2.png,mask-4.png,s,1,1.1699140998534858,h,0,1.2981040000449866,0.04751330008730292,0.04738010000437498,0.09899260010570288,0.10026609990745783,0.2990165001247078
RSVPLG03,md,20260310-111637,1.0.2,20251105-084826,797,Experiment,Both,1,Automatic,main,78,20260310-112643,global,global,300,S,H,E,A,S-E.png,H-A.png,sS,hH,mask-3.png,mask-4.png,s,1,1.0679166000336409,h,1,0.08955510007217526,0.04937950009480119,0.04889159998856485,0.10054220003075898,0.09976939996704459,0.29976670001633465
RSVPLG03,md,20260310-111637,1.0.2,20251105-084826,797,Experiment,Both,1,Automatic,main,79,20260310-112648,local,global,300,S,H,A,A,A-S.png,H-A.png,sS,hH,mask-2.png,mask-3.png,s,1,0.6710014001000673,s,0,0.10271930019371212,0.04683899995870888,0.04674759996123612,0.09997979993931949,0.09923819988034666,0.3002756000496447
RSVPLG03,md,20260310-111637,1.0.2,20251105-084826,797,Experiment,Both,1,Automatic,main,80,20260310-112652,local,local,300,S,H,E,E,E-S.png,E-H.png,sS,hH,mask-1.png,mask-2.png,s,1,0.4708108000922948,h,1,0.15285299997776747,0.047792800003662705,0.047212300123646855,0.09921560017392039,0.1002265999559313,0.29943370004184544
RSVPLG03,md,20260310-111637,1.0.2,20251105-084826,797,Experiment,Both,1,Automatic,main,81,20260310-112656,global,global,300,H,H,A,A,H-A.png,H-A.png,hH,hH,mask-2.png,mask-3.png,h,1,0.8630277998745441,h,1,0.11068150005303323,0.048224000027403235,0.04712200001813471,0.1014145000372082,0.09852240001782775,0.30150140007026494
RSVPLG03,md,20260310-111637,1.0.2,20251105-084826,797,Experiment,Both,1,Automatic,main,82,20260310-112701,global,global,750,S,S,E,A,S-E.png,S-A.png,sS,sS,mask-4.png,mask-2.png,s,1,0.5555171999149024,s,1,0.12448080000467598,0.048780599841848016,0.048753099981695414,0.10009619989432395,0.10056519997306168,0.7499516999814659
RSVPLG03,md,20260310-111637,1.0.2,20251105-084826,797,Experiment,Both,1,Automatic,main,83,20260310-112706,global,local,300,S,S,A,E,S-A.png,E-S.png,sS,sS,mask-3.png,mask-1.png,s,1,0.4035181999206543,s,1,0.10228200000710785,0.04716830002143979,0.04629279999062419,0.09955949988216162,0.10096290009096265,0.29948109993711114
RSVPLG03,md,20260310-111637,1.0.2,20251105-084826,797,Experiment,Both,1,Automatic,main,84,20260310-112710,local,global,300,H,H,A,E,A-H.png,H-E.png,hH,hH,mask-2.png,mask-4.png,h,1,1.9772771999705583,s,0,0.17219730000942945,0.045973500004038215,0.048459700075909495,0.09933429979719222,0.10147490003146231,0.2982735999394208
RSVPLG03,md,20260310-111637,1.0.2,20251105-084826,797,Experiment,Both,1,Automatic,main,85,20260310-112716,local,local,750,H,H,E,A,E-H.png,A-H.png,hH,hH,mask-2.png,mask-1.png,h,1,0.6430587999057025,h,1,0.1382238999940455,0.04783560009673238,0.04723230004310608,0.1015190000180155,0.09822749998420477,0.7516197999939322
RSVPLG03,md,20260310-111637,1.0.2,20251105-084826,797,Experiment,Both,1,Automatic,main,86,20260310-112721,global,global,750,H,H,A,A,H-A.png,H-A.png,hH,hH,mask-2.png,mask-4.png,h,1,0.30988820013590157,h,1,0.1024156000930816,0.04753819992765784,0.04850320005789399,0.10054580005817115,0.10051960009150207,0.7492573999334127
RSVPLG03,md,20260310-111637,1.0.2,20251105-084826,797,Experiment,Both,1,Automatic,main,87,20260310-112725,global,global,300,S,S,A,E,S-A.png,S-E.png,sS,sS,mask-4.png,mask-4.png,s,1,0.4147347998805344,s,1,0.1082067999523133,0.04817910003475845,0.04762479988858104,0.09953060001134872,0.10091929999180138,0.2993465999606997
RSVPLG03,md,20260310-111637,1.0.2,20251105-084826,797,Experiment,Both,1,Automatic,main,88,20260310-112729,global,local,300,S,H,E,A,S-E.png,A-H.png,sS,hH,mask-3.png,mask-3.png,s,1,1.4157239999622107,h,1,0.025104000000283122,0.04685810022056103,0.047066899947822094,0.1005739001557231,0.10101749980822206,0.2995801002252847
RSVPLG03,md,20260310-111637,1.0.2,20251105-084826,797,Experiment,Both,1,Automatic,main,89,20260310-112735,local,local,750,H,S,E,E,E-H.png,E-S.png,hH,sS,mask-1.png,mask-1.png,h,1,0.8428865000605583,s,1,0.14417900005355477,0.047654599882662296,0.047669999999925494,0.0994287000503391,0.10193210002034903,0.7479664999991655
RSVPLG03,md,20260310-111637,1.0.2,20251105-084826,797,Experiment,Both,1,Automatic,main,90,20260310-112740,local,global,750,H,S,E,E,E-H.png,S-E.png,hH,sS,mask-1.png,mask-2.png,h,1,1.0343061999883503,s,1,0.13740680017508566,0.04859969997778535,0.04659170005470514,0.10162969981320202,0.09888179996050894,0.7512767999432981
RSVPLG03,md,20260310-111637,1.0.2,20251105-084826,797,Experiment,Both,1,Automatic,main,91,20260310-112745,global,local,300,H,H,E,A,H-E.png,A-H.png,hH,hH,mask-4.png,mask-2.png,h,1,0.6665533999912441,h,1,0.10334829986095428,0.04772799997590482,0.0478086001239717,0.10070719989016652,0.10128380008973181,0.29922769987024367
RSVPLG03,md,20260310-111637,1.0.2,20251105-084826,797,Experiment,Both,1,Automatic,main,92,20260310-112750,local,global,750,S,H,A,A,A-S.png,H-A.png,sS,hH,mask-4.png,mask-4.png,s,1,2.681980200111866,s,0,0.16082159988582134,0.047536800149828196,0.046388200018554926,0.10096050007268786,0.09953390015289187,0.7506568999961019
RSVPLG03,md,20260310-111637,1.0.2,20251105-084826,797,Experiment,Both,1,Automatic,main,93,20260310-112757,global,local,750,S,S,E,E,S-E.png,E-S.png,sS,sS,mask-4.png,mask-4.png,s,1,0.34662449988536537,s,1,0.13412569998763502,0.04652189998887479,0.04767690016888082,0.09948919992893934,0.09883210016414523,0.7497508998494595
RSVPLG03,md,20260310-111637,1.0.2,20251105-084826,797,Experiment,Both,1,Automatic,main,94,20260310-112801,global,global,750,H,S,E,E,H-E.png,S-E.png,hH,sS,mask-2.png,mask-3.png,h,1,0.6018555001355708,s,1,0.07012700010091066,0.0485678999684751,0.04768289998173714,0.10108910012058914,0.0999265001155436,0.750888800015673
RSVPLG03,md,20260310-111637,1.0.2,20251105-084826,797,Experiment,Both,1,Automatic,main,95,20260310-112806,local,global,750,H,S,E,A,E-H.png,S-A.png,hH,sS,mask-2.png,mask-4.png,h,1,0.8141050999984145,s,1,0.07542450004257262,0.046431400114670396,0.04674779996275902,0.09946270007640123,0.10050080018118024,0.749361600028351
RSVPLG03,md,20260310-111637,1.0.2,20251105-084826,797,Experiment,Both,1,Automatic,main,96,20260310-112811,local,global,300,S,S,A,E,A-S.png,S-E.png,sS,sS,mask-1.png,mask-2.png,s,1,0.5603823999408633,s,1,0.12169230007566512,0.047523700166493654,0.047525699948892,0.1002241000533104,0.09863370005041361,0.30080850003287196
RSVPLG03,md,20260310-111637,1.0.2,20251105-084826,797,Experiment,Both,1,Automatic,main,97,20260310-112815,local,local,750,H,S,A,E,A-H.png,E-S.png,hH,sS,mask-2.png,mask-4.png,h,1,0.44195470004342496,s,1,0.1143074999563396,0.046617900021374226,0.04878189996816218,0.09981329995207489,0.10083230002783239,0.7485825000330806
RSVPLG03,md,20260310-111637,1.0.2,20251105-084826,797,Experiment,Both,1,Automatic,main,98,20260310-112820,global,global,750,H,S,E,E,H-E.png,S-E.png,hH,sS,mask-1.png,mask-3.png,h,1,0.462872700067237,s,1,0.14548949990421534,0.047933800145983696,0.04654909996315837,0.09987330017611384,0.09890510002151132,0.7511941001284868
RSVPLG03,md,20260310-111637,1.0.2,20251105-084826,797,Experiment,Both,1,Automatic,main,99,20260310-112825,global,local,300,H,H,A,A,H-A.png,A-H.png,hH,hH,mask-3.png,mask-1.png,h,1,0.629289000062272,h,1,0.11318490002304316,0.0475019000004977,0.047504999907687306,0.09894870012067258,0.09976710006594658,0.2993429000489414
RSVPLG03,md,20260310-111637,1.0.2,20251105-084826,797,Experiment,Both,1,Automatic,main,100,20260310-112829,local,global,300,S,S,A,A,A-S.png,S-A.png,sS,sS,mask-4.png,mask-1.png,s,1,1.1221805000677705,h,0,0.04647429985925555,0.04753270000219345,0.0475126001983881,0.10152509994804859,0.10102300019934773,0.2998683999758214
RSVPLG03,md,20260310-113113,1.0.2,20251105-084826,797,Experiment,Both,1,Automatic,warmup,1,20260310-113149,local,local,750,S,S,E,E,E-S.png,E-S.png,sS,sS,mask-1.png,mask-2.png,s,1,0.32241189992055297,s,1,0.12025949987582862,0.0448505999520421,0.04751619999296963,0.09794479981064796,0.09953950019553304,0.7476080998312682
RSVPLG03,md,20260310-113113,1.0.2,20251105-084826,797,Experiment,Both,1,Automatic,warmup,2,20260310-113154,local,global,750,S,S,A,A,A-S.png,S-A.png,sS,sS,mask-3.png,mask-2.png,s,1,0.810188899980858,h,0,0.10708300000987947,0.04765260010026395,0.04751840000972152,0.0989697000477463,0.09953329991549253,0.7486421000212431
RSVPLG03,md,20260310-113113,1.0.2,20251105-084826,797,Experiment,Both,1,Automatic,warmup,3,20260310-113159,global,global,750,H,S,E,E,H-E.png,S-E.png,hH,sS,mask-2.png,mask-2.png,h,1,0.47802860010415316,s,1,0.18987399991601706,0.04650530009530485,0.046290099853649735,0.0997413001023233,0.09943189984187484,0.7498145001009107
RSVPLG03,md,20260310-113113,1.0.2,20251105-084826,797,Experiment,Both,1,Automatic,warmup,4,20260310-113204,global,global,300,S,S,E,E,S-E.png,S-E.png,sS,sS,mask-3.png,mask-3.png,s,1,0.41509809996932745,s,1,0.11199999996460974,0.04689120012335479,0.04650409985333681,0.09897930012084544,0.09852659981697798,0.3002544001210481
RSVPLG03,md,20260310-113113,1.0.2,20251105-084826,797,Experiment,Both,1,Automatic,main,5,20260310-113208,global,local,300,S,S,E,A,S-E.png,A-S.png,sS,sS,mask-1.png,mask-3.png,s,1,0.4377278999891132,h,0,1.222766599850729,0.047499800100922585,0.04668239993043244,0.10027839988470078,0.09878619993105531,0.2999426000751555
RSVPLG03,md,20260310-113113,1.0.2,20251105-084826,797,Experiment,Both,1,Automatic,main,6,20260310-113213,local,local,300,S,S,A,E,A-S.png,E-S.png,sS,sS,mask-3.png,mask-2.png,s,1,0.31683719996362925,s,1,0.10056110005825758,0.04869819991290569,0.04649169999174774,0.09986730013042688,0.09835999994538724,0.3011712001170963
RSVPLG03,md,20260310-113113,1.0.2,20251105-084826,797,Experiment,Both,1,Automatic,main,7,20260310-113217,local,global,750,S,S,E,A,E-S.png,S-A.png,sS,sS,mask-1.png,mask-3.png,s,1,0.6123041999526322,h,0,0.05961400014348328,0.04810149990953505,0.047032800037413836,0.10155299981124699,0.1001643999479711,0.7501655998639762
RSVPLG03,md,20260310-113113,1.0.2,20251105-084826,797,Experiment,Both,1,Automatic,main,8,20260310-113222,global,local,750,S,S,A,A,S-A.png,A-S.png,sS,sS,mask-4.png,mask-2.png,s,1,1.4649362000636756,s,1,0.10888969991356134,0.04667919990606606,0.04652540013194084,0.09833649988286197,0.09837560006417334,0.7497003998141736
RSVPLG03,md,20260310-113113,1.0.2,20251105-084826,797,Experiment,Both,1,Automatic,main,9,20260310-113228,local,local,300,H,S,E,E,E-H.png,E-S.png,hH,sS,mask-1.png,mask-1.png,h,1,1.3421110999770463,h,0,0.3004573998041451,0.04725860012695193,0.04751940001733601,0.10031730006448925,0.10052090021781623,0.29901259997859597
RSVPLG03,md,20260310-113113,1.0.2,20251105-084826,797,Experiment,Both,1,Automatic,main,10,20260310-113233,local,global,300,H,H,A,A,A-H.png,H-A.png,hH,hH,mask-2.png,mask-2.png,h,1,0.7067134999670088,s,0,0.09972740011289716,0.047499499982222915,0.04649000009521842,0.10049660014919937,0.0994911000598222,0.3006794999819249
RSVPLG03,md,20260310-113113,1.0.2,20251105-084826,797,Experiment,Both,1,Automatic,main,11,20260310-113238,global,local,750,H,H,E,A,H-E.png,A-H.png,hH,hH,mask-3.png,mask-1.png,h,1,0.385715699987486,h,1,0.1054672000464052,0.04652280011214316,0.04873079992830753,0.09932510019280016,0.10121749993413687,0.7492103001568466
RSVPLG03,md,20260310-113113,1.0.2,20251105-084826,797,Experiment,Both,1,Automatic,main,12,20260310-113242,local,local,300,S,S,E,A,E-S.png,A-S.png,sS,sS,mask-3.png,mask-4.png,h,0,0.6796500999480486,s,1,0.08953620004467666,0.04749409994110465,0.04832399985753,0.09849280002526939,0.10114879999309778,0.29853829997591674
RSVPLG03,md,20260310-113113,1.0.2,20251105-084826,797,Experiment,Both,1,Automatic,main,13,20260310-113247,global,global,300,H,S,A,A,H-A.png,S-A.png,hH,sS,mask-4.png,mask-2.png,h,1,0.8788624999579042,h,0,0.49633600004017353,0.04791789990849793,0.04792369995266199,0.10057269991375506,0.10038179997354746,0.30006009992212057
RSVPLG03,md,20260310-113113,1.0.2,20251105-084826,797,Experiment,Both,1,Automatic,main,14,20260310-113252,local,local,300,S,S,A,A,A-S.png,A-S.png,sS,sS,mask-1.png,mask-4.png,s,1,0.5270151998847723,s,1,0.11335320002399385,0.04551899991929531,0.048517199931666255,0.09952090005390346,0.10151689988560975,0.29814149998128414
RSVPLG03,md,20260310-113113,1.0.2,20251105-084826,797,Experiment,Both,1,Automatic,main,15,20260310-113256,global,global,300,S,H,E,A,S-E.png,H-A.png,sS,hH,mask-3.png,mask-4.png,s,1,1.8427856999915093,h,1,0.28578219981864095,0.046921700006350875,0.0475643000099808,0.10074770008213818,0.10013590008020401,0.30014760000631213
RSVPLG03,md,20260310-113113,1.0.2,20251105-084826,797,Experiment,Both,1,Automatic,main,16,20260310-113302,local,local,750,S,S,E,A,E-S.png,A-S.png,sS,sS,mask-1.png,mask-2.png,s,1,0.42635710001923144,s,1,0.0922762998379767,0.046933900099247694,0.04872970003634691,0.09850429999642074,0.09956049988977611,0.7485740000847727
RSVPLG03,md,20260310-113113,1.0.2,20251105-084826,797,Experiment,Both,1,Automatic,main,17,20260310-113307,global,local,300,S,S,A,E,S-A.png,E-S.png,sS,sS,mask-2.png,mask-4.png,s,1,0.7561092998366803,s,1,0.10151000018231571,0.04817839991301298,0.04792820010334253,0.09995290008373559,0.10006080009043217,0.300196599913761
RSVPLG03,md,20260310-113113,1.0.2,20251105-084826,797,Experiment,Both,1,Automatic,main,18,20260310-113311,local,local,750,H,H,E,A,E-H.png,A-H.png,hH,hH,mask-1.png,mask-1.png,h,1,0.3685516999103129,h,1,0.09294000011868775,0.04874809994362295,0.0487510000821203,0.0995972000528127,0.09971430012956262,0.7490636999718845
RSVPLG03,md,20260310-113113,1.0.2,20251105-084826,797,Experiment,Both,1,Automatic,main,19,20260310-113316,local,global,750,S,H,A,A,A-S.png,H-A.png,sS,hH,mask-3.png,mask-1.png,s,1,1.031209500040859,s,0,0.12341000000014901,0.0466176001355052,0.04773600003682077,0.09914010018110275,0.1001879998948425,0.7483048001304269
RSVPLG03,md,20260310-113113,1.0.2,20251105-084826,797,Experiment,Both,1,Automatic,main,20,20260310-113321,global,global,750,S,H,E,A,S-E.png,H-A.png,sS,hH,mask-3.png,mask-1.png,s,1,0.4615869999397546,h,1,0.09253649995662272,0.04687769990414381,0.04855379997752607,0.10023119999095798,0.10047359997406602,0.749567799968645
RSVPLG03,md,20260310-113113,1.0.2,20251105-084826,797,Experiment,Both,1,Automatic,main,21,20260310-113326,global,global,750,H,H,E,A,H-E.png,H-A.png,hH,hH,mask-3.png,mask-2.png,h,1,0.3230018001049757,h,1,0.47107740002684295,0.048483600141480565,0.04803039995022118,0.10048549994826317,0.10032190009951591,0.7492766999639571
RSVPLG03,md,20260310-113113,1.0.2,20251105-084826,797,Experiment,Both,1,Automatic,main,22,20260310-113331,local,global,300,H,H,A,E,A-H.png,H-E.png,hH,hH,mask-3.png,mask-1.png,s,0,1.0973811999429017,h,1,1.257448700023815,0.04791039996780455,0.04868330014869571,0.10017929994501173,0.09987980010919273,0.29991589998826385
RSVPLG03,md,20260310-113113,1.0.2,20251105-084826,797,Experiment,Both,1,Automatic,main,23,20260310-113336,local,global,750,H,S,A,A,A-H.png,S-A.png,hH,sS,mask-3.png,mask-3.png,h,1,0.9952680999413133,h,0,0.45597480004653335,0.046993999974802136,0.04810769995674491,0.10055049997754395,0.10003419988788664,0.7494312999770045
RSVPLG03,md,20260310-113113,1.0.2,20251105-084826,797,Experiment,Both,1,Automatic,main,24,20260310-113341,local,global,300,H,H,E,E,E-H.png,H-E.png,hH,hH,mask-4.png,mask-4.png,h,1,0.5127799001056701,s,0,0.06397280003875494,0.04769030003808439,0.048609199933707714,0.09926520008593798,0.10161809995770454,0.2988248001784086
RSVPLG03,md,20260310-113113,1.0.2,20251105-084826,797,Experiment,Both,1,Automatic,main,25,20260310-113345,local,local,750,H,S,A,A,A-H.png,A-S.png,hH,sS,mask-3.png,mask-4.png,h,1,0.731710699852556,s,1,0.155286000110209,0.04871340002864599,0.0471047000028193,0.10093290009535849,0.09846349991858006,0.7510316001717001
RSVPLG03,md,20260310-113113,1.0.2,20251105-084826,797,Experiment,Both,1,Automatic,main,26,20260310-113530,local,local,750,S,S,A,E,A-S.png,E-S.png,sS,sS,mask-3.png,mask-2.png,s,1,0.30225749989040196,s,1,0.10342930001206696,0.04562600003555417,0.04567530006170273,0.09987920010462403,0.09885969990864396,0.74944410007447
RSVPLG03,md,20260310-113113,1.0.2,20251105-084826,797,Experiment,Both,1,Automatic,main,27,20260310-113535,local,global,300,H,H,A,A,A-H.png,H-A.png,hH,hH,mask-4.png,mask-3.png,h,1,0.671887299977243,h,1,0.11776709998957813,0.04668519995175302,0.04681699979119003,0.10068279993720353,0.10100179980508983,0.29953430010937154
RSVPLG03,md,20260310-113113,1.0.2,20251105-084826,797,Experiment,Both,1,Automatic,main,28,20260310-113539,local,global,300,S,H,E,E,E-S.png,H-E.png,sS,hH,mask-3.png,mask-2.png,s,1,0.735910200048238,s,0,0.1125666000880301,0.04855240019969642,0.04747800016775727,0.09974530013278127,0.09955600020475686,0.2995662000030279
RSVPLG03,md,20260310-113113,1.0.2,20251105-084826,797,Experiment,Both,1,Automatic,main,29,20260310-113544,local,global,300,S,H,E,E,E-S.png,H-E.png,sS,hH,mask-2.png,mask-4.png,s,1,0.625159699935466,s,0,0.1407197997905314,0.04776820004917681,0.04766170005314052,0.0989691000431776,0.09994310000911355,0.2985709998756647
RSVPLG03,md,20260310-113113,1.0.2,20251105-084826,797,Experiment,Both,1,Automatic,main,30,20260310-113548,global,global,750,H,H,E,A,H-E.png,H-A.png,hH,hH,mask-1.png,mask-2.png,h,1,0.285591300111264,h,1,0.08806780003942549,0.04752189991995692,0.04560969979502261,0.09946079994551837,0.09917359985411167,0.7491884999908507
RSVPLG03,md,20260310-113113,1.0.2,20251105-084826,797,Experiment,Both,1,Automatic,main,31,20260310-113553,local,local,300,S,H,E,A,E-S.png,A-H.png,sS,hH,mask-3.png,mask-1.png,s,1,0.7656451999209821,h,1,0.141798899974674,0.0474819999653846,0.046336800092831254,0.0993124998640269,0.10004399996250868,0.2992384999524802
RSVPLG03,md,20260310-113113,1.0.2,20251105-084826,797,Experiment,Both,1,Automatic,main,32,20260310-113557,global,local,300,S,S,A,E,S-A.png,E-S.png,sS,sS,mask-3.png,mask-3.png,s,1,0.8375288001261652,h,0,0.16713810013607144,0.04641829989850521,0.04785509989596903,0.09819660009816289,0.10033589997328818,0.29801120003685355
RSVPLG03,md,20260310-113113,1.0.2,20251105-084826,797,Experiment,Both,1,Automatic,main,33,20260310-113602,local,local,300,S,H,E,E,E-S.png,E-H.png,sS,hH,mask-3.png,mask-2.png,s,1,0.4980589000042528,h,1,0.15211959998123348,0.04749320005066693,0.046328699914738536,0.10148640000261366,0.09833219996653497,0.3010204001329839
RSVPLG03,md,20260310-113113,1.0.2,20251105-084826,797,Experiment,Both,1,Automatic,main,34,20260310-113606,local,global,750,S,S,A,A,A-S.png,S-A.png,sS,sS,mask-2.png,mask-1.png,s,1,0.9816380999982357,h,0,0.21383160003460944,0.047163099981844425,0.04767060000449419,0.10148399998433888,0.0998462000861764,0.7495510999578983
RSVPLG03,md,20260310-113113,1.0.2,20251105-084826,797,Experiment,Both,1,Automatic,main,35,20260310-113612,global,local,300,H,S,A,A,H-A.png,A-S.png,hH,sS,mask-3.png,mask-1.png,h,1,0.5493536998983473,h,0,0.09982819994911551,0.04893539985641837,0.047700899885967374,0.10014389990828931,0.09891719999723136,0.3008715999312699
RSVPLG03,md,20260310-113113,1.0.2,20251105-084826,797,Experiment,Both,1,Automatic,main,36,20260310-113616,local,local,750,H,H,E,A,E-H.png,A-H.png,hH,hH,mask-2.png,mask-1.png,h,1,0.9170913000125438,h,1,0.15127779985778034,0.048480099998414516,0.04784450004808605,0.10066429991275072,0.09995780000463128,0.7489642999134958
RSVPLG03,md,20260310-113113,1.0.2,20251105-084826,797,Experiment,Both,1,Automatic,main,37,20260310-113621,local,local,300,S,H,E,A,E-S.png,A-H.png,sS,hH,mask-2.png,mask-4.png,s,1,0.3930836000945419,h,1,0.028416800079867244,0.04693139996379614,0.04781590006314218,0.09987040003761649,0.09933230001479387,0.2984420000575483
RSVPLG03,md,20260310-113113,1.0.2,20251105-084826,797,Experiment,Both,1,Automatic,main,38,20260310-113625,local,global,750,H,H,E,A,E-H.png,H-A.png,hH,hH,mask-4.png,mask-1.png,s,0,3.0358068000059575,h,1,0.011901200050488114,0.04749769996851683,0.04756860015913844,0.10118389991112053,0.09966420009732246,0.7511145998723805
RSVPLG03,md,20260310-113113,1.0.2,20251105-084826,797,Experiment,Both,1,Automatic,main,39,20260310-113633,global,global,300,H,S,A,E,H-A.png,S-E.png,hH,sS,mask-3.png,mask-3.png,s,0,1.8224078000057489,h,0,1.9662233002018183,0.04757010005414486,0.04849760001525283,0.10055100009776652,0.09951399988494813,0.3008165000937879
RSVPLG03,md,20260310-113113,1.0.2,20251105-084826,797,Experiment,Both,1,Automatic,main,40,20260310-113638,global,global,300,H,S,E,E,H-E.png,S-E.png,hH,sS,mask-2.png,mask-2.png,h,1,1.293864700011909,s,1,0.13475239998660982,0.04751270008273423,0.04667910002171993,0.09890370001085103,0.09986710012890399,0.29962599999271333
RSVPLG03,md,20260310-113113,1.0.2,20251105-084826,797,Experiment,Both,1,Automatic,main,41,20260310-113643,local,local,750,S,H,E,A,E-S.png,A-H.png,sS,hH,mask-3.png,mask-2.png,s,1,0.855788900051266,h,1,0.13468359992839396,0.04661550000309944,0.04763210006058216,0.09993340005166829,0.10154310008510947,0.7475101999007165
RSVPLG03,md,20260310-113113,1.0.2,20251105-084826,797,Experiment,Both,1,Automatic,main,42,20260310-113648,local,local,300,H,H,A,A,A-H.png,A-H.png,hH,hH,mask-3.png,mask-2.png,h,1,0.7052940998692065,h,1,0.11375709995627403,0.04767540004104376,0.04770749993622303,0.10057400004006922,0.0999389998614788,0.3006055001169443
RSVPLG03,md,20260310-113113,1.0.2,20251105-084826,797,Experiment,Both,1,Automatic,main,43,20260310-113653,local,global,750,H,H,E,E,E-H.png,H-E.png,hH,hH,mask-4.png,mask-4.png,h,1,1.0453009998891503,h,1,0.5605136000085622,0.04754159995354712,0.04587129992432892,0.09967259992845356,0.09829679992981255,0.750735400011763
RSVPLG03,md,20260310-113113,1.0.2,20251105-084826,797,Experiment,Both,1,Automatic,main,44,20260310-113659,global,global,750,H,S,E,E,H-E.png,S-E.png,hH,sS,mask-4.png,mask-3.png,h,1,0.7695646998472512,s,1,0.13785970001481473,0.047677099937573075,0.04856410017237067,0.09918509982526302,0.10077979997731745,0.7490955998655409
RSVPLG03,md,20260310-113113,1.0.2,20251105-084826,797,Experiment,Both,1,Automatic,main,45,20260310-113704,local,local,300,H,H,A,E,A-H.png,E-H.png,hH,hH,mask-3.png,mask-4.png,h,1,0.4140639998950064,h,1,0.1455818999093026,0.04724619979970157,0.04861749988049269,0.10017569991759956,0.10010039992630482,0.29929389990866184
RSVPLG03,md,20260310-113113,1.0.2,20251105-084826,797,Experiment,Both,1,Automatic,main,46,20260310-113708,global,local,300,H,H,A,A,H-A.png,A-H.png,hH,hH,mask-2.png,mask-3.png,h,1,1.3825062999967486,h,1,0.3404431000817567,0.04908680007793009,0.04751059995032847,0.10217260010540485,0.10155599983409047,0.3003847000654787
RSVPLG03,md,20260310-113113,1.0.2,20251105-084826,797,Experiment,Both,1,Automatic,main,47,20260310-113713,global,local,300,S,S,A,E,S-A.png,E-S.png,sS,sS,mask-2.png,mask-3.png,s,1,1.0328548999968916,s,1,0.10705079999752343,0.04750680015422404,0.04664520011283457,0.09970200015231967,0.09810660011135042,0.30133230006322265
RSVPLG03,md,20260310-113113,1.0.2,20251105-084826,797,Experiment,Both,1,Automatic,main,48,20260310-113718,global,local,750,H,H,A,E,H-A.png,E-H.png,hH,hH,mask-3.png,mask-4.png,h,1,0.8068358998280019,h,1,0.4146694000810385,0.0474398999940604,0.047829699935391545,0.1005231998860836,0.09999880008399487,0.749858999857679
RSVPLG03,md,20260310-113113,1.0.2,20251105-084826,797,Experiment,Both,1,Automatic,main,49,20260310-113723,local,local,750,H,S,E,E,E-H.png,E-S.png,hH,sS,mask-4.png,mask-4.png,s,0,0.5216020001098514,s,1,0.12199819996021688,0.04799029999412596,0.04749579983763397,0.09977720002643764,0.10048929997719824,0.7494999000336975
RSVPLG03,md,20260310-113113,1.0.2,20251105-084826,797,Experiment,Both,1,Automatic,main,50,20260310-113728,global,global,750,S,H,E,E,S-E.png,H-E.png,sS,hH,mask-2.png,mask-1.png,s,1,0.43158249999396503,h,1,0.12551519996486604,0.04578749998472631,0.04672199999913573,0.0997409000992775,0.09909620019607246,0.7496380999218673
RSVPLG03,md,20260310-113113,1.0.2,20251105-084826,797,Experiment,Both,1,Automatic,main,51,20260310-113946,global,global,300,S,S,E,E,S-E.png,S-E.png,sS,sS,mask-1.png,mask-1.png,s,1,0.46941010002046824,s,1,0.07231960003264248,0.0465019999537617,0.04753920016810298,0.0996856999117881,0.10069650015793741,0.29895729990676045
RSVPLG03,md,20260310-113113,1.0.2,20251105-084826,797,Experiment,Both,1,Automatic,main,52,20260310-113950,global,global,750,S,H,E,A,S-E.png,H-A.png,sS,hH,mask-4.png,mask-3.png,s,1,0.320672299945727,h,1,0.1097917000297457,0.047081399941816926,0.04756229999475181,0.09850189997814596,0.10066710016690195,0.7491474999114871
RSVPLG03,md,20260310-113113,1.0.2,20251105-084826,797,Experiment,Both,1,Automatic,main,53,20260310-113955,local,local,300,S,H,E,E,E-S.png,E-H.png,sS,hH,mask-2.png,mask-3.png,s,1,0.577874300070107,h,1,0.07648879988119006,0.048664100002497435,0.047523200046271086,0.09985879994928837,0.10066490015015006,0.2997860999312252
RSVPLG03,md,20260310-113113,1.0.2,20251105-084826,797,Experiment,Both,1,Automatic,main,54,20260310-113959,global,local,300,S,S,A,E,S-A.png,E-S.png,sS,sS,mask-4.png,mask-1.png,s,1,0.8242736998945475,s,1,0.1028622998856008,0.04860229999758303,0.04635840002447367,0.10060960007831454,0.09851740021258593,0.301752399886027
RSVPLG03,md,20260310-113113,1.0.2,20251105-084826,797,Experiment,Both,1,Automatic,main,55,20260310-114004,local,global,300,H,H,E,E,E-H.png,H-E.png,hH,hH,mask-2.png,mask-3.png,h,1,0.8414209999609739,s,0,0.18899760022759438,0.04669809993356466,0.04771630000323057,0.09988959995098412,0.09830450010485947,0.2996745998971164
RSVPLG03,md,20260310-113113,1.0.2,20251105-084826,797,Experiment,Both,1,Automatic,main,56,20260310-114008,local,global,750,S,H,E,A,E-S.png,H-A.png,sS,hH,mask-3.png,mask-4.png,s,1,0.5157689000479877,s,0,0.1853267999831587,0.047677500173449516,0.0476695999968797,0.10087850014679134,0.09988009999506176,0.7505346999969333
RSVPLG03,md,20260310-113113,1.0.2,20251105-084826,797,Experiment,Both,1,Automatic,main,57,20260310-114013,local,local,300,H,S,A,E,A-H.png,E-S.png,hH,sS,mask-3.png,mask-4.png,h,1,0.38722650008276105,h,0,0.10744219995103776,0.046683300053700805,0.04667790001258254,0.10088789998553693,0.09988180012442172,0.2998663999605924
RSVPLG03,md,20260310-113113,1.0.2,20251105-084826,797,Experiment,Both,1,Automatic,main,58,20260310-114017,global,global,750,S,H,E,A,S-E.png,H-A.png,sS,hH,mask-3.png,mask-2.png,s,1,0.32175800018012524,h,1,0.13644639984704554,0.046591300051659346,0.04722080007195473,0.09993519983254373,0.09993640007451177,0.7482888998929411
RSVPLG03,md,20260310-113113,1.0.2,20251105-084826,797,Experiment,Both,1,Automatic,main,59,20260310-114022,local,global,300,H,H,E,A,E-H.png,H-A.png,hH,hH,mask-1.png,mask-1.png,h,1,1.015562599990517,h,1,0.26497889985330403,0.047671700129285455,0.04868949996307492,0.10074870008975267,0.09987500007264316,0.3003567000851035
RSVPLG03,md,20260310-113113,1.0.2,20251105-084826,797,Experiment,Both,1,Automatic,main,60,20260310-114027,local,global,300,H,S,A,E,A-H.png,S-E.png,hH,sS,mask-1.png,mask-4.png,h,1,1.7674202001653612,s,1,0.11980589991435409,0.046954199904575944,0.046630899887531996,0.10015069996006787,0.09892300004139543,0.30058280006051064
RSVPLG03,md,20260310-113113,1.0.2,20251105-084826,797,Experiment,Both,1,Automatic,main,61,20260310-114032,global,local,300,H,S,E,E,H-E.png,E-S.png,hH,sS,mask-1.png,mask-3.png,h,1,0.7222187998704612,h,0,0.09643919998779893,0.048563400050625205,0.04791660001501441,0.10166230006143451,0.10157860000617802,0.2996495000552386
RSVPLG03,md,20260310-113113,1.0.2,20251105-084826,797,Experiment,Both,1,Automatic,main,62,20260310-114037,global,local,750,S,H,E,E,S-E.png,E-H.png,sS,hH,mask-4.png,mask-1.png,s,1,0.7556125998962671,s,0,0.1234108000062406,0.047418300062417984,0.0485018000472337,0.10042209993116558,0.10133190010674298,0.7490085000172257
RSVPLG03,md,20260310-113113,1.0.2,20251105-084826,797,Experiment,Both,1,Automatic,main,63,20260310-114042,global,local,300,H,S,E,E,H-E.png,E-S.png,hH,sS,mask-3.png,mask-2.png,h,1,0.8085014000535011,h,0,2.609339499846101,0.04797889990732074,0.04751459998078644,0.10034050000831485,0.10152280004695058,0.30035849986597896
RSVPLG03,md,20260310-113113,1.0.2,20251105-084826,797,Experiment,Both,1,Automatic,main,64,20260310-114049,global,global,300,S,S,E,A,S-E.png,S-A.png,sS,sS,mask-2.png,mask-4.png,s,1,0.29883179999887943,s,1,0.08996809995733202,0.04928699997253716,0.047268399968743324,0.1006902998778969,0.10017430013976991,0.30140329990535975
RSVPLG03,md,20260310-113113,1.0.2,20251105-084826,797,Experiment,Both,1,Automatic,main,65,20260310-114053,local,global,750,H,S,E,A,E-H.png,S-A.png,hH,sS,mask-1.png,mask-3.png,h,1,0.9118346001487225,h,0,0.12696849997155368,0.04579990007914603,0.04739870014600456,0.09832460014149547,0.10064620012417436,0.7484158999286592
RSVPLG03,md,20260310-113113,1.0.2,20251105-084826,797,Experiment,Both,1,Automatic,main,66,20260310-114058,global,local,750,S,S,A,E,S-A.png,E-S.png,sS,sS,mask-4.png,mask-2.png,s,1,0.29957829997874796,s,1,0.090430699987337,0.04785940004512668,0.04809159995056689,0.09985090000554919,0.1007290999405086,0.7486902000382543
RSVPLG03,md,20260310-113113,1.0.2,20251105-084826,797,Experiment,Both,1,Automatic,main,67,20260310-114103,local,global,750,S,H,A,E,A-S.png,H-E.png,sS,hH,mask-3.png,mask-3.png,s,1,0.7618003999814391,s,0,0.09884520014747977,0.04726130003109574,0.04843219998292625,0.10017840005457401,0.09954639989882708,0.749138800194487
RSVPLG03,md,20260310-113113,1.0.2,20251105-084826,797,Experiment,Both,1,Automatic,main,68,20260310-114108,global,global,750,H,S,A,A,H-A.png,S-A.png,hH,sS,mask-3.png,mask-4.png,h,1,0.7672568999696523,s,1,0.10679299989715219,0.047065299935638905,0.047411799896508455,0.09977219998836517,0.09912579995580018,0.7499162999447435
RSVPLG03,md,20260310-113113,1.0.2,20251105-084826,797,Experiment,Both,1,Automatic,main,69,20260310-114113,local,global,750,S,S,A,A,A-S.png,S-A.png,sS,sS,mask-2.png,mask-4.png,s,1,1.073536799987778,h,0,0.14635180006735027,0.048622600035741925,0.0477590998634696,0.10061220009811223,0.1009551000315696,0.7502894001081586
RSVPLG03,md,20260310-113113,1.0.2,20251105-084826,797,Experiment,Both,1,Automatic,main,70,20260310-114118,local,local,750,S,H,A,A,A-S.png,A-H.png,sS,hH,mask-3.png,mask-2.png,s,1,0.5356465000659227,h,1,0.1264589000493288,0.04729330004192889,0.046274299966171384,0.1008640001527965,0.09812310012057424,0.7515809000469744
RSVPLG03,md,20260310-113113,1.0.2,20251105-084826,797,Experiment,Both,1,Automatic,main,71,20260310-114123,local,local,300,H,S,E,A,E-H.png,A-S.png,hH,sS,mask-3.png,mask-2.png,s,0,0.3795718001201749,s,1,0.08738659997470677,0.046782700112089515,0.04813829995691776,0.09945380012504756,0.10068919998593628,0.29857060010544956
RSVPLG03,md,20260310-113113,1.0.2,20251105-084826,797,Experiment,Both,1,Automatic,main,72,20260310-114127,global,global,300,H,H,E,E,H-E.png,H-E.png,hH,hH,mask-2.png,mask-1.png,h,1,0.5082247001118958,h,1,0.10635979985818267,0.047561399871483445,0.047452199971303344,0.09969999990426004,0.09943079994991422,0.29915119986981153
RSVPLG03,md,20260310-113113,1.0.2,20251105-084826,797,Experiment,Both,1,Automatic,main,73,20260310-114131,local,global,300,S,S,E,A,E-S.png,S-A.png,sS,sS,mask-3.png,mask-1.png,s,1,0.5910658999346197,h,0,0.10807819990441203,0.04749150015413761,0.04843329987488687,0.0993429000955075,0.09961829986423254,0.29902430018410087
RSVPLG03,md,20260310-113113,1.0.2,20251105-084826,797,Experiment,Both,1,Automatic,main,74,20260310-114136,global,local,750,S,S,A,A,S-A.png,A-S.png,sS,sS,mask-2.png,mask-2.png,s,1,0.7510963999666274,h,0,0.12527640000917017,0.046980799874290824,0.046519599854946136,0.10077750007621944,0.09969439986161888,0.7504153000190854
RSVPLG03,md,20260310-113113,1.0.2,20251105-084826,797,Experiment,Both,1,Automatic,main,75,20260310-114141,global,local,750,S,S,A,E,S-A.png,E-S.png,sS,sS,mask-4.png,mask-1.png,s,1,1.8789667999371886,s,1,0.07427270011976361,0.046994099859148264,0.04791829991154373,0.10047439998015761,0.10016269981861115,0.7491192000452429
RSVPLG03,md,20260310-113113,1.0.2,20251105-084826,797,Experiment,Both,1,Automatic,main,76,20260310-114356,global,global,300,H,S,A,A,H-A.png,S-A.png,hH,sS,mask-4.png,mask-3.png,h,1,0.4558657000306994,h,0,0.7192772999405861,0.04779670014977455,0.046908400021493435,0.09993650019168854,0.09929099981673062,0.2990378001704812
RSVPLG03,md,20260310-113113,1.0.2,20251105-084826,797,Experiment,Both,1,Automatic,main,77,20260310-114401,local,global,750,S,S,A,A,A-S.png,S-A.png,sS,sS,mask-1.png,mask-4.png,s,1,0.2823781999759376,s,1,0.09935759985819459,0.04736549989320338,0.04765929980203509,0.09991819993592799,0.100499999942258,0.7492992000188679
RSVPLG03,md,20260310-113113,1.0.2,20251105-084826,797,Experiment,Both,1,Automatic,main,78,20260310-114405,global,local,750,H,S,E,E,H-E.png,E-S.png,hH,sS,mask-2.png,mask-1.png,h,1,0.6365304999053478,h,0,0.08188279997557402,0.04523400007747114,0.04814179986715317,0.09874800010584295,0.09872939996421337,0.7483449000865221
RSVPLG03,md,20260310-113113,1.0.2,20251105-084826,797,Experiment,Both,1,Automatic,main,79,20260310-114410,local,global,300,H,S,E,A,E-H.png,S-A.png,hH,sS,mask-1.png,mask-2.png,h,1,0.5369050998706371,s,1,0.08893789979629219,0.048206400126218796,0.04877860005944967,0.1000355000142008,0.09981729998253286,0.2997910000849515
RSVPLG03,md,20260310-113113,1.0.2,20251105-084826,797,Experiment,Both,1,Automatic,main,80,20260310-114414,local,local,750,S,H,A,A,A-S.png,A-H.png,sS,hH,mask-3.png,mask-2.png,s,1,0.3789655000437051,h,1,0.1580717999022454,0.0464932001195848,0.04777480009943247,0.10051729995757341,0.10003830003552139,0.7492629999760538
RSVPLG03,md,20260310-113113,1.0.2,20251105-084826,797,Experiment,Both,1,Automatic,main,81,20260310-114419,global,global,300,H,H,E,A,H-E.png,H-A.png,hH,hH,mask-1.png,mask-1.png,h,1,0.4296256999950856,h,1,0.10233750008046627,0.047489099903032184,0.046870999969542027,0.09950519981794059,0.09966549999080598,0.29973179986700416
RSVPLG03,md,20260310-113113,1.0.2,20251105-084826,797,Experiment,Both,1,Automatic,main,82,20260310-114423,local,local,750,S,S,E,A,E-S.png,A-S.png,sS,sS,mask-4.png,mask-1.png,s,1,0.7581442000810057,s,1,0.10713179991580546,0.046509600011631846,0.04833320016041398,0.10022859997116029,0.10139570012688637,0.7484354998450726
RSVPLG03,md,20260310-113113,1.0.2,20251105-084826,797,Experiment,Both,1,Automatic,main,83,20260310-114428,global,global,300,H,S,A,A,H-A.png,S-A.png,hH,sS,mask-1.png,mask-3.png,h,1,1.1385528000537306,s,1,1.0962814001832157,0.04661570000462234,0.04668239993043244,0.10024429997429252,0.10003259987570345,0.300679299980402
RSVPLG03,md,20260310-113113,1.0.2,20251105-084826,797,Experiment,Both,1,Automatic,main,84,20260310-114434,global,global,300,H,S,A,E,H-A.png,S-E.png,hH,sS,mask-3.png,mask-4.png,h,1,0.8486899000126868,s,1,0.08634410006925464,0.04725180007517338,0.04772859998047352,0.09926029993221164,0.10092370002530515,0.2988410999532789
RSVPLG03,md,20260310-113113,1.0.2,20251105-084826,797,Experiment,Both,1,Automatic,main,85,20260310-114439,local,local,750,H,S,A,E,A-H.png,E-S.png,hH,sS,mask-1.png,mask-2.png,h,1,1.477017599856481,h,0,0.16108529991470277,0.04778830008581281,0.045884500024840236,0.10096160019747913,0.09897949988953769,0.7507484001107514
RSVPLG03,md,20260310-113113,1.0.2,20251105-084826,797,Experiment,Both,1,Automatic,main,86,20260310-114445,global,global,750,S,H,E,E,S-E.png,H-E.png,sS,hH,mask-3.png,mask-4.png,s,1,0.6679736999794841,h,1,0.1241082998458296,0.04748519998975098,0.04810340004041791,0.0986542000900954,0.10076960013248026,0.7483868999406695
RSVPLG03,md,20260310-113113,1.0.2,20251105-084826,797,Experiment,Both,1,Automatic,main,87,20260310-114449,global,local,300,S,S,E,A,S-E.png,A-S.png,sS,sS,mask-3.png,mask-1.png,s,1,1.0831864001229405,s,1,0.6153439001645893,0.04581199982203543,0.04868979984894395,0.0995191999245435,0.09976510005071759,0.2991579999215901
RSVPLG03,md,20260310-113113,1.0.2,20251105-084826,797,Experiment,Both,1,Automatic,main,88,20260310-114455,global,local,750,H,S,A,E,H-A.png,E-S.png,hH,sS,mask-1.png,mask-4.png,h,1,0.9868304000701755,h,0,0.09934469987638295,0.047589899972081184,0.047059400007128716,0.09973410004749894,0.09826450003311038,0.7503853999078274
RSVPLG03,md,20260310-113113,1.0.2,20251105-084826,797,Experiment,Both,1,Automatic,main,89,20260310-114500,global,local,300,S,S,E,A,S-E.png,A-S.png,sS,sS,mask-3.png,mask-1.png,s,1,0.6289431999903172,s,1,0.11181370005942881,0.045843400061130524,0.04839420015923679,0.09963619988411665,0.10022030002437532,0.2989085998851806
RSVPLG03,md,20260310-113113,1.0.2,20251105-084826,797,Experiment,Both,1,Automatic,main,90,20260310-114504,local,global,750,S,S,E,E,E-S.png,S-E.png,sS,sS,mask-3.png,mask-2.png,s,1,0.6633403000887483,s,1,0.11307110008783638,0.04683310003019869,0.04585230001248419,0.0993896999862045,0.09757489990442991,0.7512006000615656
RSVPLG03,md,20260310-113113,1.0.2,20251105-084826,797,Experiment,Both,1,Automatic,main,91,20260310-114509,global,local,750,H,S,A,A,H-A.png,A-S.png,hH,sS,mask-1.png,mask-4.png,h,1,0.4826162999961525,h,0,0.1011358997784555,0.04751390009187162,0.04705980001017451,0.10002360004000366,0.10055180010385811,0.7491985999513417
RSVPLG03,md,20260310-113113,1.0.2,20251105-084826,797,Experiment,Both,1,Automatic,main,92,20260310-114514,global,local,750,H,H,E,E,H-E.png,E-H.png,hH,hH,mask-4.png,mask-1.png,h,1,0.5236587999388576,h,1,0.12040629982948303,0.04942759987898171,0.04695899994112551,0.1003139999229461,0.09862400009296834,0.7509268999565393
RSVPLG03,md,20260310-113113,1.0.2,20251105-084826,797,Experiment,Both,1,Automatic,main,93,20260310-114519,local,global,300,S,H,E,E,E-S.png,H-E.png,sS,hH,mask-1.png,mask-2.png,s,1,0.36386509984731674,s,0,0.10158519982360303,0.04867619997821748,0.047679300187155604,0.09989070007577538,0.10087290010415018,0.30031659989617765
RSVPLG03,md,20260310-113113,1.0.2,20251105-084826,797,Experiment,Both,1,Automatic,main,94,20260310-114523,global,local,750,H,S,E,A,H-E.png,A-S.png,hH,sS,mask-2.png,mask-3.png,h,1,0.35863439994864166,h,0,0.10907909995876253,0.04821320017799735,0.048825599951669574,0.10049450001679361,0.10011620004661381,0.7496792001184076
RSVPLG03,md,20260310-113113,1.0.2,20251105-084826,797,Experiment,Both,1,Automatic,main,95,20260310-114527,global,global,300,H,S,A,A,H-A.png,S-A.png,hH,sS,mask-2.png,mask-4.png,h,1,0.7670698999427259,s,1,0.1067283998709172,0.04870610008947551,0.04686950007453561,0.09987330017611384,0.099994600052014,0.30043629999272525
RSVPLG03,md,20260310-113113,1.0.2,20251105-084826,797,Experiment,Both,1,Automatic,main,96,20260310-114532,global,local,300,H,S,E,A,H-E.png,A-S.png,hH,sS,mask-2.png,mask-4.png,h,1,0.5054587998893112,h,0,0.10879270010627806,0.04749219981022179,0.047475099796429276,0.10151519998908043,0.10144969983957708,0.300087200012058
RSVPLG03,md,20260310-113113,1.0.2,20251105-084826,797,Experiment,Both,1,Automatic,main,97,20260310-114536,local,local,750,H,H,E,E,E-H.png,E-H.png,hH,hH,mask-1.png,mask-2.png,h,1,0.9659375001210719,h,1,0.09651349997147918,0.04854840016923845,0.04687920003198087,0.10152720008045435,0.09966950002126396,0.7499638001900166
RSVPLG03,md,20260310-113113,1.0.2,20251105-084826,797,Experiment,Both,1,Automatic,main,98,20260310-114541,global,global,750,H,H,A,E,H-A.png,H-E.png,hH,hH,mask-2.png,mask-3.png,h,1,0.3758982999715954,h,1,0.1246255999431014,0.04927359987050295,0.045970600098371506,0.10205909982323647,0.09863150003366172,0.7514745998196304
RSVPLG03,md,20260310-113113,1.0.2,20251105-084826,797,Experiment,Both,1,Automatic,main,99,20260310-114546,global,global,750,H,H,A,E,H-A.png,H-E.png,hH,hH,mask-2.png,mask-3.png,h,1,0.3355851999949664,h,1,0.10460199997760355,0.04706909996457398,0.04681020020507276,0.1009518001228571,0.10000180010683835,0.7501312999520451
RSVPLG03,md,20260310-113113,1.0.2,20251105-084826,797,Experiment,Both,1,Automatic,main,100,20260310-114550,global,global,750,S,S,E,A,S-E.png,S-A.png,sS,sS,mask-4.png,mask-4.png,s,1,0.20344460010528564,s,1,0.07340080011636019,0.047557600075379014,0.04955520015209913,0.09834670019336045,0.10057590017095208,0.7476496000308543
