exp,exp_initials,runtime,ver,modtime,sub,blocktype,targets,cuetype,mode,trialtype,trial,trialtime,t1_level,t2_level,t2_lag,t1,t2,distractor1,distractor2,stimfile1,stimfile2,t1_corr,t2_corr,maskfile1,maskfile2,t1_resp,t1_acc,t1_rt,t2_resp,t2_acc,t2_rt,t1_dur,t2_dur,t1mask_soa,t2mask_soa,t1t2_soa
RSVPLG03,km,20260212-150513,1.0.2,20251113-095759,757,Introduction,T1,1,Automatic,main,1,20260212-150538,local,global,750,H,H,A,A,A-H.png,H-A.png,hH,hH,mask-2.png,mask-2.png,h,1,1.1598899000091478,none,-5,0,0.09935750000295229,0.09890479999012314,0.19965290001709945,0.20037700000102632,0.7494216000195593
RSVPLG03,km,20260212-150513,1.0.2,20251113-095759,757,Introduction,T1,1,Automatic,main,2,20260212-150543,global,local,750,H,H,E,A,H-E.png,A-H.png,hH,hH,mask-3.png,mask-4.png,h,1,0.7566881999955513,none,-5,0,0.10102289999485947,0.10139119997620583,0.20107189999544062,0.20167619999847375,0.7485018000006676
RSVPLG03,km,20260212-150513,1.0.2,20251113-095759,757,Introduction,T1,1,Automatic,main,3,20260212-150548,local,local,750,H,S,A,A,A-H.png,A-S.png,hH,sS,mask-3.png,mask-2.png,h,1,3.385068900010083,none,-5,0,0.10014940000837669,0.09970439999597147,0.19840730002033524,0.20058499998413026,0.7484423000132665
RSVPLG03,km,20260212-150513,1.0.2,20251113-095759,757,Introduction,T1,1,Automatic,main,4,20260212-150556,local,global,750,H,H,A,E,A-H.png,H-E.png,hH,hH,mask-1.png,mask-3.png,h,1,1.8005603999772575,none,-5,0,0.10072289998061024,0.09991960000479594,0.2020429999975022,0.20062370001687668,0.7493980999861378
RSVPLG03,km,20260212-150513,1.0.2,20251113-095759,757,Introduction,T1,1,Automatic,main,5,20260212-150602,global,global,750,S,H,A,A,S-A.png,H-A.png,sS,hH,mask-1.png,mask-1.png,s,1,1.4584166999848094,none,-5,0,0.09974439998040907,0.1008019000000786,0.2004914999997709,0.20036119999713264,0.7470161999808624
RSVPLG03,km,20260212-150513,1.0.2,20251113-095759,757,Introduction,T1,1,Automatic,main,6,20260212-150607,global,global,750,H,S,A,A,H-A.png,S-A.png,hH,sS,mask-1.png,mask-3.png,h,1,1.602170499972999,none,-5,0,0.10151099998620339,0.10104139999020845,0.19839790000696667,0.20078309997916222,0.7480822000070475
RSVPLG03,km,20260212-150513,1.0.2,20251113-095759,757,Introduction,T1,1,Automatic,main,7,20260212-150613,global,local,750,H,S,A,E,H-A.png,E-S.png,hH,sS,mask-4.png,mask-4.png,h,1,1.1322026000125334,none,-5,0,0.09924929999397136,0.10025180000229739,0.20083529999828897,0.2003207000088878,0.7482904999924358
RSVPLG03,km,20260212-150513,1.0.2,20251113-095759,757,Introduction,T1,1,Automatic,main,8,20260212-150618,local,global,750,S,H,A,A,A-S.png,H-A.png,sS,hH,mask-1.png,mask-3.png,s,1,1.1339594000019133,none,-5,0,0.09960469999350607,0.09973229997558519,0.20059849999961443,0.20077049999963492,0.7477466000127606
RSVPLG03,km,20260212-150513,1.0.2,20251113-095759,757,Introduction,T1,1,Automatic,main,9,20260212-150624,global,local,750,H,S,E,E,H-E.png,E-S.png,hH,sS,mask-1.png,mask-3.png,h,1,1.6201966000080574,none,-5,0,0.09940679999999702,0.0999798999982886,0.1993631000223104,0.20008270000107586,0.7481329000147525
RSVPLG03,km,20260212-150513,1.0.2,20251113-095759,757,Introduction,T1,1,Automatic,main,10,20260212-150629,local,local,750,S,H,E,E,E-S.png,E-H.png,sS,hH,mask-4.png,mask-1.png,s,1,1.3840395000006538,none,-5,0,0.09880549999070354,0.1003435000020545,0.20001669999328442,0.19976849999511614,0.7484449000039604
RSVPLG03,km,20260212-150513,1.0.2,20251113-095759,757,Introduction,T1,1,Automatic,main,11,20260212-150635,global,global,750,H,S,A,A,H-A.png,S-A.png,hH,sS,mask-1.png,mask-3.png,h,1,1.631493799999589,none,-5,0,0.09954689998994581,0.09932009998010471,0.20000109999091364,0.20123529998818412,0.7487579000007827
RSVPLG03,km,20260212-150513,1.0.2,20251113-095759,757,Introduction,T1,1,Automatic,main,12,20260212-150641,local,global,750,S,H,A,E,A-S.png,H-E.png,sS,hH,mask-1.png,mask-4.png,s,1,0.8884662999771535,none,-5,0,0.10130480001680553,0.09862639999482781,0.1998936000163667,0.19848279998404905,0.7507067000260577
RSVPLG03,km,20260212-150513,1.0.2,20251113-095759,757,Introduction,T1,1,Automatic,main,13,20260212-150646,global,local,750,H,H,A,A,H-A.png,A-H.png,hH,hH,mask-1.png,mask-2.png,h,1,0.9986142999841832,none,-5,0,0.09878309999476187,0.10029859998030588,0.19749059999594465,0.20010309998178855,0.746316900011152
RSVPLG03,km,20260212-150513,1.0.2,20251113-095759,757,Introduction,T1,1,Automatic,main,14,20260212-150651,global,global,750,S,S,A,A,S-A.png,S-A.png,sS,sS,mask-3.png,mask-4.png,s,1,2.642061599995941,none,-5,0,0.10255660000257194,0.09840180000173859,0.20031569999991916,0.19911080002202652,0.7504888999974355
RSVPLG03,km,20260212-150513,1.0.2,20251113-095759,757,Introduction,T1,1,Automatic,main,15,20260212-150658,local,local,750,H,H,A,A,A-H.png,A-H.png,hH,hH,mask-3.png,mask-1.png,h,1,1.438668900023913,none,-5,0,0.09892720001516864,0.09955610000179149,0.2001960999914445,0.20137889997567981,0.7478959000145551
RSVPLG03,km,20260212-150513,1.0.2,20251113-095759,757,Introduction,T1,1,Automatic,main,16,20260212-150703,local,local,750,S,S,E,E,E-S.png,E-S.png,sS,sS,mask-4.png,mask-3.png,s,1,1.088557299983222,none,-5,0,0.09981159999733791,0.10006369999609888,0.199915700010024,0.1993660999869462,0.7469248000124935
RSVPLG03,km,20260212-150724,1.0.2,20251113-095759,757,Practice,T1,1,Automatic,main,1,20260212-150742,local,global,300,H,S,A,A,A-H.png,S-A.png,hH,sS,mask-2.png,mask-4.png,h,1,1.6884546999935992,none,-5,0,0.048071500001242384,0.04820270001073368,0.09945680000237189,0.09832570000435226,0.2989938999817241
RSVPLG03,km,20260212-150724,1.0.2,20251113-095759,757,Practice,T1,1,Automatic,main,2,20260212-150748,global,local,300,H,S,A,A,H-A.png,A-S.png,hH,sS,mask-4.png,mask-2.png,h,1,0.704346299986355,none,-5,0,0.05014320000191219,0.049487899988889694,0.1016216000134591,0.09907969998312183,0.30016510002315044
RSVPLG03,km,20260212-150724,1.0.2,20251113-095759,757,Practice,T1,1,Automatic,main,3,20260212-150752,local,global,300,S,H,E,A,E-S.png,H-A.png,sS,hH,mask-3.png,mask-4.png,s,1,0.5463685000140686,none,-5,0,0.047370800020871684,0.04623540001921356,0.09932540002046153,0.09647540000150912,0.2992978999973275
RSVPLG03,km,20260212-150724,1.0.2,20251113-095759,757,Practice,T1,1,Automatic,main,4,20260212-150756,global,local,750,S,H,E,A,S-E.png,A-H.png,sS,hH,mask-3.png,mask-1.png,s,1,1.1518769999966025,none,-5,0,0.05090770000242628,0.04851369999232702,0.09897599997930229,0.09941719999187626,0.7474114999931771
RSVPLG03,km,20260212-150724,1.0.2,20251113-095759,757,Practice,T1,1,Automatic,main,5,20260212-150801,local,local,300,S,H,A,E,A-S.png,E-H.png,sS,hH,mask-2.png,mask-1.png,s,1,2.152689000009559,none,-5,0,0.04942500000470318,0.04946929999277927,0.09871270001167431,0.09927440001047216,0.2989407000131905
RSVPLG03,km,20260212-150724,1.0.2,20251113-095759,757,Practice,T1,1,Automatic,main,6,20260212-150807,global,global,300,S,S,A,E,S-A.png,S-E.png,sS,sS,mask-4.png,mask-2.png,h,0,2.9735696999996435,none,-5,0,0.05156010002247058,0.052018500020494685,0.09944160000304691,0.10223910000058822,0.29861820000223815
RSVPLG03,km,20260212-150724,1.0.2,20251113-095759,757,Practice,T1,1,Automatic,main,7,20260212-150813,local,local,300,H,H,A,E,A-H.png,E-H.png,hH,hH,mask-2.png,mask-2.png,h,1,1.9730849000043236,none,-5,0,0.0502723999961745,0.0511535000114236,0.10077430002274923,0.1004434000060428,0.29903910000575706
RSVPLG03,km,20260212-150724,1.0.2,20251113-095759,757,Practice,T1,1,Automatic,main,8,20260212-150819,local,local,750,S,H,E,A,E-S.png,A-H.png,sS,hH,mask-2.png,mask-4.png,s,1,1.3717768999922555,none,-5,0,0.04902069998206571,0.04916890000458807,0.09937320000608452,0.0996891999966465,0.7475946999911685
RSVPLG03,km,20260212-150724,1.0.2,20251113-095759,757,Practice,T1,1,Automatic,main,9,20260212-150824,global,global,750,H,S,A,E,H-A.png,S-E.png,hH,sS,mask-3.png,mask-2.png,h,1,1.0245544000063092,none,-5,0,0.04975259999628179,0.048213700007181615,0.0995499000127893,0.09928790002595633,0.7472282999951858
RSVPLG03,km,20260212-150724,1.0.2,20251113-095759,757,Practice,T1,1,Automatic,main,10,20260212-150829,global,local,750,H,H,A,A,H-A.png,A-H.png,hH,hH,mask-2.png,mask-1.png,h,1,1.4858500999980606,none,-5,0,0.04984809999587014,0.04980449998402037,0.10160980001091957,0.09911129999090917,0.7473444000061136
RSVPLG03,km,20260212-150724,1.0.2,20251113-095759,757,Practice,T1,1,Automatic,main,11,20260212-150834,global,local,300,S,S,A,E,S-A.png,E-S.png,sS,sS,mask-2.png,mask-1.png,s,1,1.6393811000161804,none,-5,0,0.05090620002010837,0.05069589999038726,0.10099659999832511,0.10022149997530505,0.2989884000271559
RSVPLG03,km,20260212-150724,1.0.2,20251113-095759,757,Practice,T1,1,Automatic,main,12,20260212-150839,global,global,300,H,S,E,A,H-E.png,S-A.png,hH,sS,mask-4.png,mask-1.png,s,0,1.5003226999833714,none,-5,0,0.05085289999260567,0.04966759998933412,0.0984937000030186,0.09965829999418929,0.2981941000034567
RSVPLG03,km,20260212-150724,1.0.2,20251113-095759,757,Practice,T1,1,Automatic,main,13,20260212-150845,local,global,750,S,S,A,A,A-S.png,S-A.png,sS,sS,mask-2.png,mask-4.png,h,0,1.4690098999999464,none,-5,0,0.05206809999071993,0.050619699992239475,0.1022845999978017,0.10016989998985082,0.7464993000030518
RSVPLG03,km,20260212-150724,1.0.2,20251113-095759,757,Practice,T1,1,Automatic,main,14,20260212-150850,local,local,750,S,S,E,E,E-S.png,E-S.png,sS,sS,mask-1.png,mask-2.png,s,1,1.2127191000035964,none,-5,0,0.050370999990263954,0.04837279999628663,0.09967079997295514,0.09887980000348762,0.7476446999935433
RSVPLG03,km,20260212-150724,1.0.2,20251113-095759,757,Practice,T1,1,Automatic,main,15,20260212-150855,global,global,750,S,H,E,E,S-E.png,H-E.png,sS,hH,mask-1.png,mask-3.png,s,1,1.3309230999730062,none,-5,0,0.050996100006159395,0.04996709999977611,0.09984710000571795,0.09964709999621846,0.7491218000068329
RSVPLG03,km,20260212-150724,1.0.2,20251113-095759,757,Practice,T1,1,Automatic,main,16,20260212-150900,local,global,750,H,H,E,E,E-H.png,H-E.png,hH,hH,mask-2.png,mask-1.png,h,1,1.1044496000104118,none,-5,0,0.0499374000064563,0.050923199974931777,0.10038460002397187,0.09905529997195117,0.7478096000268124
RSVPLG03,km,20260212-150932,1.0.2,20251113-095759,757,Introduction,Both,1,Automatic,main,1,20260212-151011,global,global,750,S,S,E,A,S-E.png,S-A.png,sS,sS,mask-4.png,mask-3.png,s,1,2.701366000022972,h,0,6.081357500021113,0.09546499999123625,0.09849509998457506,0.19615289999637753,0.20023580000270158,0.7458367999934126
RSVPLG03,km,20260212-150932,1.0.2,20251113-095759,757,Introduction,Both,1,Automatic,main,2,20260212-151024,global,local,750,S,S,A,E,S-A.png,E-S.png,sS,sS,mask-3.png,mask-2.png,s,1,3.761452200007625,s,1,1.4369893000111915,0.10035449999850243,0.1013608000066597,0.1995351999939885,0.20000640000216663,0.7506529999955092
RSVPLG03,km,20260212-150932,1.0.2,20251113-095759,757,Introduction,Both,1,Automatic,main,3,20260212-151034,local,global,750,H,H,E,A,E-H.png,H-A.png,hH,hH,mask-3.png,mask-3.png,h,1,2.0647987999836914,h,1,1.23462980001932,0.10036609999951907,0.09909649999463,0.20004500000504777,0.19924299998092465,0.7501269000058528
RSVPLG03,km,20260212-150932,1.0.2,20251113-095759,757,Introduction,Both,1,Automatic,main,4,20260212-151041,local,local,750,S,S,A,A,A-S.png,A-S.png,sS,sS,mask-3.png,mask-3.png,s,1,3.127731099986704,h,0,0.815734000003431,0.10044880001805723,0.10212809999939054,0.19888060001539998,0.20025690001784824,0.7494270000024699
RSVPLG03,km,20260212-150932,1.0.2,20251113-095759,757,Introduction,Both,1,Automatic,main,5,20260212-151049,local,global,750,S,S,A,A,A-S.png,S-A.png,sS,sS,mask-3.png,mask-1.png,s,1,2.7510960000217892,h,0,0.7833692999847699,0.09951889998046681,0.09928709999076091,0.19902440000441857,0.1994795999780763,0.7499968000047375
RSVPLG03,km,20260212-150932,1.0.2,20251113-095759,757,Introduction,Both,1,Automatic,main,6,20260212-151057,local,local,750,S,H,A,E,A-S.png,E-H.png,sS,hH,mask-1.png,mask-3.png,s,1,1.3564916000177618,h,1,3.101809699990554,0.09948639999493025,0.10065499998745508,0.19980619999114424,0.19964340000296943,0.7505139000131749
RSVPLG03,km,20260212-150932,1.0.2,20251113-095759,757,Introduction,Both,1,Automatic,main,7,20260212-151106,local,global,750,H,H,E,E,E-H.png,H-E.png,hH,hH,mask-2.png,mask-4.png,h,1,1.9959918000095058,h,1,0.7689209999807645,0.10124419999192469,0.10217949998332188,0.1995110999851022,0.2020967999997083,0.7484179000020958
RSVPLG03,km,20260212-150932,1.0.2,20251113-095759,757,Introduction,Both,1,Automatic,main,8,20260212-151113,global,local,750,S,H,A,A,S-A.png,A-H.png,sS,hH,mask-2.png,mask-4.png,s,1,1.6945363999984693,h,1,0.9294941000116523,0.09965059999376535,0.09981980000156909,0.1999945999996271,0.20019270002376288,0.7501112999743782
RSVPLG03,km,20260212-150932,1.0.2,20251113-095759,757,Introduction,Both,1,Automatic,main,9,20260212-151120,global,global,750,S,H,E,A,S-E.png,H-A.png,sS,hH,mask-1.png,mask-2.png,s,1,1.764011199993547,h,1,0.6425715000077616,0.09996600000886247,0.0995215000002645,0.1998050999827683,0.20053870000992902,0.7507240999839269
RSVPLG03,km,20260212-150932,1.0.2,20251113-095759,757,Introduction,Both,1,Automatic,main,10,20260212-151126,global,global,750,H,H,E,E,H-E.png,H-E.png,hH,hH,mask-1.png,mask-4.png,h,1,1.2811166000028607,h,1,0.6883109000045806,0.1011004000029061,0.09985480000614189,0.20009130000835285,0.19989809999242425,0.7502727000101004
RSVPLG03,km,20260212-150932,1.0.2,20251113-095759,757,Introduction,Both,1,Automatic,main,11,20260212-151133,global,local,750,S,H,A,E,S-A.png,E-H.png,sS,hH,mask-1.png,mask-2.png,s,1,1.6431037999864202,h,1,0.8618539999879431,0.10020499999518506,0.10073869998450391,0.19912209999165498,0.19985539998742752,0.7484029000042938
RSVPLG03,km,20260212-150932,1.0.2,20251113-095759,757,Introduction,Both,1,Automatic,main,12,20260212-151139,global,global,750,S,S,E,E,S-E.png,S-E.png,sS,sS,mask-3.png,mask-1.png,s,1,1.003345699980855,s,1,0.8983956000010949,0.09975610001129098,0.1000077000062447,0.19860980001976714,0.19933170001604594,0.7501409999968018
RSVPLG03,km,20260212-150932,1.0.2,20251113-095759,757,Introduction,Both,1,Automatic,main,13,20260212-151146,local,local,750,H,S,A,E,A-H.png,E-S.png,hH,sS,mask-4.png,mask-4.png,none,-6,0,none,-6,0,0.09951909998198971,0.09864160002325661,0.19984909999766387,0.19919490002212115,0.7501077999768313
RSVPLG03,km,20260212-151200,1.0.2,20251113-095759,757,Practice,Both,1,Automatic,main,1,20260212-151218,local,global,300,H,S,A,A,A-H.png,S-A.png,hH,sS,mask-1.png,mask-4.png,h,1,1.3376456999976654,s,1,0.6422362999874167,0.048927700001513585,0.05179120000684634,0.09792619998916052,0.10127250000368804,0.29905129998223856
RSVPLG03,km,20260212-151200,1.0.2,20251113-095759,757,Practice,Both,1,Automatic,main,2,20260212-151223,global,global,300,S,H,E,E,S-E.png,H-E.png,sS,hH,mask-4.png,mask-1.png,s,1,1.4100508999836165,s,0,1.323867800005246,0.04964840001775883,0.050457000004826114,0.09887529999832623,0.10065269999904558,0.2996419999981299
RSVPLG03,km,20260212-151200,1.0.2,20251113-095759,757,Practice,Both,1,Automatic,main,3,20260212-151230,local,local,300,S,S,E,E,E-S.png,E-S.png,sS,sS,mask-3.png,mask-4.png,s,1,1.4898272000136785,h,0,0.8950103999814019,0.04815319998306222,0.051253999990876764,0.09970359998987988,0.10019729999476112,0.2989053000055719
RSVPLG03,km,20260212-151200,1.0.2,20251113-095759,757,Practice,Both,1,Automatic,main,4,20260212-151236,global,global,750,S,H,E,E,S-E.png,H-E.png,sS,hH,mask-2.png,mask-3.png,s,1,1.523860200017225,h,1,0.7998632999951951,0.04824069997994229,0.049872100003995,0.09924009998212568,0.10105399999883957,0.7503145999799017
RSVPLG03,km,20260212-151200,1.0.2,20251113-095759,757,Practice,Both,1,Automatic,main,5,20260212-151242,global,local,750,S,H,E,E,S-E.png,E-H.png,sS,hH,mask-4.png,mask-3.png,s,1,1.0889513999863993,h,1,0.7334727999987081,0.050241800025105476,0.051791900012176484,0.09987040000851266,0.1010565000178758,0.7510789000079967
RSVPLG03,km,20260212-151200,1.0.2,20251113-095759,757,Practice,Both,1,Automatic,main,6,20260212-151248,local,global,750,S,S,E,A,E-S.png,S-A.png,sS,sS,mask-4.png,mask-1.png,s,1,1.3826788000005763,h,0,0.7861128999793436,0.05040959999314509,0.04961429999093525,0.09917599998880178,0.10091209999518469,0.7505569999921136
RSVPLG03,km,20260212-151200,1.0.2,20251113-095759,757,Practice,Both,1,Automatic,main,7,20260212-151254,local,local,750,S,H,E,E,E-S.png,E-H.png,sS,hH,mask-4.png,mask-3.png,s,1,1.423418300022604,h,1,0.4145993999845814,0.049355800001649186,0.051693699992028996,0.09975290001602843,0.10136279999278486,0.7518017000111286
RSVPLG03,km,20260212-151200,1.0.2,20251113-095759,757,Practice,Both,1,Automatic,main,8,20260212-151300,global,local,750,H,S,E,E,H-E.png,E-S.png,hH,sS,mask-3.png,mask-3.png,h,1,1.2941006000037305,s,1,0.57729090002249,0.04784730001119897,0.050457000004826114,0.09931479999795556,0.10109589999774471,0.7502804000105243
RSVPLG03,km,20260212-151200,1.0.2,20251113-095759,757,Practice,Both,1,Automatic,main,9,20260212-151307,local,local,750,S,H,A,E,A-S.png,E-H.png,sS,hH,mask-1.png,mask-4.png,s,1,1.235419800010277,h,1,0.6742509999894537,0.050323300005402416,0.04994160000933334,0.10162289999425411,0.09966950002126396,0.7527511999942362
RSVPLG03,km,20260212-151200,1.0.2,20251113-095759,757,Practice,Both,1,Automatic,main,10,20260212-151313,global,global,300,S,S,A,E,S-A.png,S-E.png,sS,sS,mask-1.png,mask-3.png,h,0,3.1266291000065394,s,1,0.46404469999833964,0.050803399994038045,0.051793299993732944,0.10066809999989346,0.10107100001187064,0.30013139999937266
RSVPLG03,km,20260212-151200,1.0.2,20251113-095759,757,Practice,Both,1,Automatic,main,11,20260212-151320,global,local,300,S,S,A,E,S-A.png,E-S.png,sS,sS,mask-3.png,mask-3.png,s,1,1.386164600000484,h,0,0.6894345000036992,0.050052100006723776,0.04993939999258146,0.09946359999594279,0.0998187999939546,0.3004961000115145
RSVPLG03,km,20260212-151200,1.0.2,20251113-095759,757,Practice,Both,1,Automatic,main,12,20260212-151326,global,local,300,H,H,E,E,H-E.png,E-H.png,hH,hH,mask-3.png,mask-1.png,h,1,1.4372735999932047,s,0,0.9245017000066582,0.05072539998218417,0.050606299977516755,0.10073379997629672,0.10051319998456165,0.3015451999963261
RSVPLG03,km,20260212-151200,1.0.2,20251113-095759,757,Practice,Both,1,Automatic,main,13,20260212-151332,global,global,750,S,H,E,E,S-E.png,H-E.png,sS,hH,mask-1.png,mask-4.png,s,1,1.044464100006735,h,1,0.5994440999929793,0.050827400002162904,0.049402000004192814,0.10139299998991191,0.10033970000222325,0.7533964999893215
RSVPLG03,km,20260212-151200,1.0.2,20251113-095759,757,Practice,Both,1,Automatic,main,14,20260212-151337,local,local,300,H,H,E,A,E-H.png,A-H.png,hH,hH,mask-4.png,mask-1.png,h,1,1.2994876999873668,h,1,0.529580900009023,0.05152410001028329,0.04884269999456592,0.10041390001424588,0.09937700000591576,0.302043900010176
RSVPLG03,km,20260212-151200,1.0.2,20251113-095759,757,Practice,Both,1,Automatic,main,15,20260212-151343,local,global,750,S,S,E,A,E-S.png,S-A.png,sS,sS,mask-1.png,mask-2.png,s,1,1.443874999997206,h,0,0.5610172000015154,0.04989470000145957,0.04899489998933859,0.10000320000108331,0.10091750000719912,0.7520328999962658
RSVPLG03,km,20260212-151200,1.0.2,20251113-095759,757,Practice,Both,1,Automatic,main,16,20260212-151349,local,global,300,S,S,E,E,E-S.png,S-E.png,sS,sS,mask-4.png,mask-4.png,s,1,1.2286336999968626,h,0,1.6807987999927718,0.047721700015245005,0.050432899995939806,0.09972910000942647,0.10112029997981153,0.2992464000126347
RSVPLG03,km,20260212-151413,1.0.2,20251113-095759,757,Practice,Both,1,Automatic,main,1,20260212-151438,global,local,300,S,S,E,E,S-E.png,E-S.png,sS,sS,mask-4.png,mask-3.png,s,1,1.2600256000005174,h,0,0.54353059999994,0.05067860000417568,0.04976009999518283,0.09942939999746159,0.0975291000213474,0.3008918999985326
RSVPLG03,km,20260212-151413,1.0.2,20251113-095759,757,Practice,Both,1,Automatic,main,2,20260212-151443,global,global,300,S,S,E,A,S-E.png,S-A.png,sS,sS,mask-3.png,mask-4.png,s,1,1.9287967999989633,h,0,0.4798523000208661,0.049853899981826544,0.04972809998434968,0.10178840000298806,0.10171290001017042,0.3005667999968864
RSVPLG03,km,20260212-151413,1.0.2,20251113-095759,757,Practice,Both,1,Automatic,main,3,20260212-151449,local,local,300,S,S,E,A,E-S.png,A-S.png,sS,sS,mask-1.png,mask-1.png,s,1,0.9008899000182282,s,1,0.5547422999807168,0.04971680001472123,0.050582700001541525,0.09982719999970868,0.10000240002409555,0.29908689999138005
RSVPLG03,km,20260212-151413,1.0.2,20251113-095759,757,Practice,Both,1,Automatic,main,4,20260212-151454,global,local,300,H,H,A,A,H-A.png,A-H.png,hH,hH,mask-1.png,mask-1.png,h,1,1.0852626000123564,h,1,0.657999099988956,0.04912860001786612,0.048457900003995746,0.09946160000981763,0.1007001000107266,0.3008807000005618
RSVPLG03,km,20260212-151413,1.0.2,20251113-095759,757,Practice,Both,1,Automatic,main,5,20260212-151500,global,global,750,S,S,E,A,S-E.png,S-A.png,sS,sS,mask-2.png,mask-3.png,s,1,1.9200266000116244,s,1,0.6105945000017527,0.05107799998950213,0.050788699998520315,0.10003450000658631,0.1000454000022728,0.7499228999949992
RSVPLG03,km,20260212-151413,1.0.2,20251113-095759,757,Practice,Both,1,Automatic,main,6,20260212-151506,local,global,300,S,H,A,E,A-S.png,H-E.png,sS,hH,mask-3.png,mask-2.png,s,1,1.4813719000085257,h,1,0.6090737999766134,0.04883620000327937,0.05104269998264499,0.09932750000734814,0.09992770000826567,0.29935919999843463
RSVPLG03,km,20260212-151413,1.0.2,20251113-095759,757,Practice,Both,1,Automatic,main,7,20260212-151512,local,local,300,S,S,A,A,A-S.png,A-S.png,sS,sS,mask-3.png,mask-4.png,s,1,0.7328074000251945,s,1,0.622168599977158,0.049996100016869605,0.05155800000648014,0.09851360000902787,0.10081619999255054,0.2999722000095062
RSVPLG03,km,20260212-151413,1.0.2,20251113-095759,757,Practice,Both,1,Automatic,main,8,20260212-151517,local,global,300,S,S,A,A,A-S.png,S-A.png,sS,sS,mask-4.png,mask-2.png,s,1,0.7787217000150122,h,0,0.7356874000106473,0.05025000000023283,0.05000419999123551,0.09841159998904914,0.10108389999368228,0.29993320000357926
RSVPLG03,km,20260212-151413,1.0.2,20251113-095759,757,Practice,Both,1,Automatic,main,9,20260212-151522,local,global,750,S,S,A,A,A-S.png,S-A.png,sS,sS,mask-3.png,mask-4.png,s,1,1.2679348000092432,h,0,0.6845259999972768,0.05051190001540817,0.05096320001757704,0.10185120001551695,0.10049330000765622,0.7502143000019714
RSVPLG03,km,20260212-151413,1.0.2,20251113-095759,757,Practice,Both,1,Automatic,main,10,20260212-151529,global,local,750,H,H,A,E,H-A.png,E-H.png,hH,hH,mask-4.png,mask-4.png,h,1,0.8870373000099789,h,1,0.5209308000048622,0.04949619999388233,0.05107269997824915,0.10019359999569133,0.10175079997861758,0.7488034999987576
RSVPLG03,km,20260212-151413,1.0.2,20251113-095759,757,Practice,Both,1,Automatic,main,11,20260212-151534,global,local,750,S,H,E,E,S-E.png,E-H.png,sS,hH,mask-4.png,mask-1.png,s,1,1.5614692000090145,s,0,0.7048764000064693,0.05031640001107007,0.051415299996733665,0.09797949998755939,0.10064129999955185,0.7489578000095207
RSVPLG03,km,20260212-151413,1.0.2,20251113-095759,757,Practice,Both,1,Automatic,main,12,20260212-151541,global,global,750,H,H,A,A,H-A.png,H-A.png,hH,hH,mask-4.png,mask-2.png,h,1,1.242612600006396,s,0,0.6234429999894928,0.0511570000089705,0.049607799999648705,0.10097090000635944,0.10135620000073686,0.7510318999993615
RSVPLG03,km,20260212-151413,1.0.2,20251113-095759,757,Practice,Both,1,Automatic,main,13,20260212-151547,local,global,750,S,H,E,E,E-S.png,H-E.png,sS,hH,mask-3.png,mask-2.png,s,1,1.1426942000107374,h,1,0.5119275000179186,0.048886300006415695,0.05057059999671765,0.09867770000710152,0.10064760001841933,0.7478704999957699
RSVPLG03,km,20260212-151413,1.0.2,20251113-095759,757,Practice,Both,1,Automatic,main,14,20260212-151553,global,global,300,S,S,A,A,S-A.png,S-A.png,sS,sS,mask-2.png,mask-1.png,s,1,1.4133229000144638,h,0,0.9152153999893926,0.04972730000736192,0.05059940001228824,0.10094269999535754,0.0996203999966383,0.30143319998751394
RSVPLG03,km,20260212-151413,1.0.2,20251113-095759,757,Practice,Both,1,Automatic,main,15,20260212-151559,local,local,750,H,H,E,A,E-H.png,A-H.png,hH,hH,mask-3.png,mask-4.png,h,1,0.9939752999925986,h,1,0.8021138999902178,0.050258200004464015,0.04991219998919405,0.10086910001700744,0.10094410000601783,0.7492948000144679
RSVPLG03,km,20260212-151413,1.0.2,20251113-095759,757,Practice,Both,1,Automatic,main,16,20260212-151605,local,local,750,S,S,E,E,E-S.png,E-S.png,sS,sS,mask-4.png,mask-2.png,s,1,2.248303699976532,s,1,0.5684913999866694,0.05091079999692738,0.04908669998985715,0.09927150001749396,0.1001066000026185,0.750858600018546
RSVPLG03,km,20260212-151653,1.0.2,20251113-095759,757,Practice,Both,1,Automatic,main,1,20260212-151713,global,local,750,H,H,A,A,H-A.png,A-H.png,hH,hH,mask-3.png,mask-4.png,h,1,1.2894077000091784,s,0,0.8966402999940328,0.04916399999638088,0.050062800000887364,0.09970590000739321,0.10036750001017936,0.7525748999905773
RSVPLG03,km,20260212-151653,1.0.2,20251113-095759,757,Practice,Both,1,Automatic,main,2,20260212-151719,global,global,750,H,S,A,E,H-A.png,S-E.png,hH,sS,mask-4.png,mask-1.png,h,1,0.9240657000045758,s,1,0.673417200014228,0.04979220000677742,0.04887999998754822,0.09982160001527518,0.09926059999270365,0.7519769000064116
RSVPLG03,km,20260212-151653,1.0.2,20251113-095759,757,Practice,Both,1,Automatic,main,3,20260212-151725,global,local,750,S,H,A,E,S-A.png,E-H.png,sS,hH,mask-1.png,mask-3.png,s,1,0.8174627999833319,h,1,0.719626000005519,0.04971980000846088,0.05183059998671524,0.09970140000223182,0.10151659999974072,0.7513021000195295
RSVPLG03,km,20260212-151653,1.0.2,20251113-095759,757,Practice,Both,1,Automatic,main,4,20260212-151731,global,local,300,H,H,E,E,H-E.png,E-H.png,hH,hH,mask-2.png,mask-3.png,h,1,1.368877100001555,s,0,0.4878532000002451,0.04903319998993538,0.05077190001611598,0.09836209999048151,0.10070930002257228,0.29868909998913296
RSVPLG03,km,20260212-151653,1.0.2,20251113-095759,757,Practice,Both,1,Automatic,main,5,20260212-151736,local,global,300,S,S,A,A,A-S.png,S-A.png,sS,sS,mask-3.png,mask-4.png,s,1,1.4353612999839243,h,0,0.36651639998308383,0.05194020000635646,0.05012020000140183,0.10053349999361672,0.09856379998382181,0.30260210001142696
RSVPLG03,km,20260212-151653,1.0.2,20251113-095759,757,Practice,Both,1,Automatic,main,6,20260212-151742,local,local,750,H,H,E,A,E-H.png,A-H.png,hH,hH,mask-2.png,mask-1.png,h,1,3.001983800000744,s,0,0.32777779997559264,0.050827300001401454,0.05120109999552369,0.10056590000749566,0.10129400002188049,0.7522341999865603
RSVPLG03,km,20260212-151653,1.0.2,20251113-095759,757,Practice,Both,1,Automatic,main,7,20260212-151749,local,global,300,H,S,A,E,A-H.png,S-E.png,hH,sS,mask-3.png,mask-3.png,h,1,1.1904339999891818,s,1,0.29899700000532903,0.050689499999862164,0.04840090000652708,0.10050960001535714,0.10012270000879653,0.3022249999921769
RSVPLG03,km,20260212-151653,1.0.2,20251113-095759,757,Practice,Both,1,Automatic,main,8,20260212-151755,local,global,750,S,H,A,E,A-S.png,H-E.png,sS,hH,mask-3.png,mask-4.png,s,1,1.2357006999955047,h,1,0.2889642000081949,0.0506011999968905,0.04988020000746474,0.10171759998775087,0.10000229999423027,0.75318219998735
RSVPLG03,km,20260212-151653,1.0.2,20251113-095759,757,Practice,Both,1,Automatic,main,9,20260212-151800,local,local,750,S,S,E,A,E-S.png,A-S.png,sS,sS,mask-4.png,mask-1.png,s,1,0.9730218999902718,s,1,0.3484825999767054,0.049684700003126636,0.0513024999818299,0.09874079999281093,0.10102069997810759,0.7521109000081196
RSVPLG03,km,20260212-151653,1.0.2,20251113-095759,757,Practice,Both,1,Automatic,main,10,20260212-151806,global,global,300,S,S,A,E,S-A.png,S-E.png,sS,sS,mask-3.png,mask-3.png,s,1,1.2860556000086945,s,1,0.4018495000200346,0.05060519999824464,0.0496452999941539,0.10091119998833165,0.09952970000449568,0.3016396999883
RSVPLG03,km,20260212-151653,1.0.2,20251113-095759,757,Practice,Both,1,Automatic,main,11,20260212-151811,local,local,300,S,H,E,A,E-S.png,A-H.png,sS,hH,mask-3.png,mask-1.png,h,0,2.334208899992518,h,1,1.1216019999992568,0.050292200001422316,0.04840800000238232,0.10192329998244531,0.10027059999993071,0.3015923000057228
RSVPLG03,km,20260212-151653,1.0.2,20251113-095759,757,Practice,Both,1,Automatic,main,12,20260212-151818,global,local,300,H,H,E,A,H-E.png,A-H.png,hH,hH,mask-1.png,mask-2.png,h,1,0.8122604999807663,s,0,0.49717600000440143,0.050507300009485334,0.04952070000581443,0.09996829999727197,0.09790540000540204,0.3019732999964617
RSVPLG03,km,20260212-151653,1.0.2,20251113-095759,757,Practice,Both,1,Automatic,main,13,20260212-151823,global,global,300,H,H,E,A,H-E.png,H-A.png,hH,hH,mask-4.png,mask-2.png,h,1,1.313646599999629,s,0,0.48772140001528896,0.049316099990392104,0.049469799996586516,0.10051499999826774,0.09814909999840893,0.3021422000019811
RSVPLG03,km,20260212-151653,1.0.2,20251113-095759,757,Practice,Both,1,Automatic,main,14,20260212-151829,local,global,750,S,S,A,A,A-S.png,S-A.png,sS,sS,mask-2.png,mask-4.png,s,1,1.1181772999989334,h,0,0.43304520001402125,0.05124380000052042,0.05075930000748485,0.10166809998918325,0.09938239998882636,0.7524230999988504
RSVPLG03,km,20260212-151653,1.0.2,20251113-095759,757,Practice,Both,1,Automatic,main,15,20260212-151835,global,global,750,H,S,E,A,H-E.png,S-A.png,hH,sS,mask-4.png,mask-4.png,h,1,1.4887388999923132,s,1,0.40291820000857115,0.05170330000692047,0.048947200004477054,0.10194090000004508,0.10095049999654293,0.7531927000090946
RSVPLG03,km,20260212-151653,1.0.2,20251113-095759,757,Practice,Both,1,Automatic,main,16,20260212-151841,local,local,300,S,S,E,A,E-S.png,A-S.png,sS,sS,mask-3.png,mask-4.png,s,1,1.9168528000009246,h,0,0.6982878999842796,0.05158239998854697,0.048594399995636195,0.10065490001579747,0.09945179999340326,0.3020650999969803
RSVPLG03,km,20260212-151934,1.0.2,20251113-095759,757,Experiment,Both,1,Automatic,warmup,1,20260212-152016,global,local,300,H,H,E,A,H-E.png,A-H.png,hH,hH,mask-4.png,mask-3.png,h,1,0.7315323000075296,h,1,0.12798469999688677,0.04866950001451187,0.048898100008955225,0.09987370000453666,0.09851049998542294,0.29962480001267977
RSVPLG03,km,20260212-151934,1.0.2,20251113-095759,757,Experiment,Both,1,Automatic,warmup,2,20260212-152021,local,local,300,S,S,E,E,E-S.png,E-S.png,sS,sS,mask-2.png,mask-2.png,s,1,0.5646787000005133,h,0,0.37025579999317415,0.049416800000471994,0.04949620002298616,0.09789099998306483,0.09992690000217408,0.2977592999814078
RSVPLG03,km,20260212-151934,1.0.2,20251113-095759,757,Experiment,Both,1,Automatic,warmup,3,20260212-152025,global,local,750,H,H,A,A,H-A.png,A-H.png,hH,hH,mask-2.png,mask-1.png,h,1,0.9798679999948945,s,0,0.7862272999773268,0.05063630000222474,0.0496739000082016,0.09959629998775199,0.09859790001064539,0.7496727999823634
RSVPLG03,km,20260212-151934,1.0.2,20251113-095759,757,Experiment,Both,1,Automatic,warmup,4,20260212-152031,local,global,300,S,S,E,A,E-S.png,S-A.png,sS,sS,mask-2.png,mask-3.png,s,1,1.1475484000111464,s,1,0.5928023000014946,0.05173639999702573,0.04869740002322942,0.09843469999032095,0.0986830000183545,0.2999349999881815
RSVPLG03,km,20260212-151934,1.0.2,20251113-095759,757,Experiment,Both,1,Automatic,main,5,20260212-152037,global,local,750,H,H,E,E,H-E.png,E-H.png,hH,hH,mask-2.png,mask-3.png,h,1,0.8849609999742825,s,0,0.3758877000072971,0.05086059999302961,0.04826750000938773,0.10061950000817887,0.09942919999593869,0.7500855000107549
RSVPLG03,km,20260212-151934,1.0.2,20251113-095759,757,Experiment,Both,1,Automatic,main,6,20260212-152042,global,global,750,S,H,A,E,S-A.png,H-E.png,sS,hH,mask-3.png,mask-2.png,s,1,1.040717100026086,h,1,0.4502682000165805,0.05048219999298453,0.04982190000009723,0.09982569998828694,0.09854929998982698,0.7503143000067212
RSVPLG03,km,20260212-151934,1.0.2,20251113-095759,757,Experiment,Both,1,Automatic,main,7,20260212-152048,local,global,750,S,H,E,E,E-S.png,H-E.png,sS,hH,mask-2.png,mask-4.png,s,1,1.5244338999909814,h,1,0.376144200010458,0.04894589999457821,0.05084989999886602,0.09875279999687336,0.09956639999290928,0.7479506999952719
RSVPLG03,km,20260212-151934,1.0.2,20251113-095759,757,Experiment,Both,1,Automatic,main,8,20260212-152054,local,local,300,H,S,A,A,A-H.png,A-S.png,hH,sS,mask-3.png,mask-4.png,h,1,1.725650799984578,h,0,0.5094181000022218,0.04962779997731559,0.05016250000335276,0.10006519997841679,0.09963089998927899,0.2992519999970682
RSVPLG03,km,20260212-151934,1.0.2,20251113-095759,757,Experiment,Both,1,Automatic,main,9,20260212-152100,global,local,750,S,S,A,A,S-A.png,A-S.png,sS,sS,mask-4.png,mask-3.png,s,1,0.9231151000130922,s,1,0.3064185999974143,0.04908849997445941,0.04700859999866225,0.09882719998131506,0.0977796999795828,0.7506297999934759
RSVPLG03,km,20260212-151934,1.0.2,20251113-095759,757,Experiment,Both,1,Automatic,main,10,20260212-152105,global,global,300,S,H,E,E,S-E.png,H-E.png,sS,hH,mask-3.png,mask-3.png,s,1,1.3323520999983884,h,1,0.42432980000739917,0.04896970000118017,0.04957939998712391,0.09979610002483241,0.09940320000168867,0.2981967000232544
RSVPLG03,km,20260212-151934,1.0.2,20251113-095759,757,Experiment,Both,1,Automatic,main,11,20260212-152110,local,global,750,S,S,E,E,E-S.png,S-E.png,sS,sS,mask-3.png,mask-4.png,s,1,1.2362294000049587,h,0,0.5182429999986198,0.04870579999987967,0.04952870000852272,0.09846399998059496,0.1006626000162214,0.748606999986805
RSVPLG03,km,20260212-151934,1.0.2,20251113-095759,757,Experiment,Both,1,Automatic,main,12,20260212-152116,local,local,750,H,S,A,E,A-H.png,E-S.png,hH,sS,mask-2.png,mask-2.png,s,0,1.5778153999999631,h,0,0.6354699999792501,0.04947630001697689,0.05039379998925142,0.09912890000850894,0.1003406000090763,0.7482612000021618
RSVPLG03,km,20260212-151934,1.0.2,20251113-095759,757,Experiment,Both,1,Automatic,main,13,20260212-152123,global,local,300,H,H,A,E,H-A.png,E-H.png,hH,hH,mask-4.png,mask-3.png,h,1,0.8458269000111613,s,0,0.3642687000101432,0.05124609998892993,0.04835800000000745,0.10057599999709055,0.099583100003656,0.30059739999705926
RSVPLG03,km,20260212-151934,1.0.2,20251113-095759,757,Experiment,Both,1,Automatic,main,14,20260212-152128,global,global,300,S,S,A,E,S-A.png,S-E.png,sS,sS,mask-1.png,mask-4.png,s,1,1.188106500019785,s,1,0.37062989998958074,0.05149859999073669,0.04879669999354519,0.10085769998840988,0.10011890000896528,0.30097559999558143
RSVPLG03,km,20260212-151934,1.0.2,20251113-095759,757,Experiment,Both,1,Automatic,main,15,20260212-152133,local,global,300,S,S,A,E,A-S.png,S-E.png,sS,sS,mask-3.png,mask-4.png,s,1,1.386073799978476,h,0,0.7999994000128936,0.049612100003287196,0.05042630000389181,0.09791260000201873,0.10122599999886006,0.29819359999964945
RSVPLG03,km,20260212-151934,1.0.2,20251113-095759,757,Experiment,Both,1,Automatic,main,16,20260212-152139,global,global,750,S,H,A,A,S-A.png,H-A.png,sS,hH,mask-3.png,mask-4.png,s,1,1.263249600015115,h,1,0.43437709999852814,0.05081939999945462,0.05150380000122823,0.09986359998583794,0.10211830001208,0.748236999992514
RSVPLG03,km,20260212-151934,1.0.2,20251113-095759,757,Experiment,Both,1,Automatic,main,17,20260212-152145,local,global,750,H,S,A,A,A-H.png,S-A.png,hH,sS,mask-2.png,mask-4.png,h,1,4.550551799999084,s,1,0.32159609999507666,0.051182900002459064,0.04898530000355095,0.09818649999215268,0.09884389999206178,0.7494271000032313
RSVPLG03,km,20260212-151934,1.0.2,20251113-095759,757,Experiment,Both,1,Automatic,main,18,20260212-152154,local,local,300,H,S,A,A,A-H.png,A-S.png,hH,sS,mask-1.png,mask-4.png,h,1,0.724314899998717,s,1,0.7287388000113424,0.05060280000907369,0.049653599999146536,0.10066359999473207,0.09975419999682344,0.30038830000557937
RSVPLG03,km,20260212-151934,1.0.2,20251113-095759,757,Experiment,Both,1,Automatic,main,19,20260212-152159,global,global,300,H,S,A,A,H-A.png,S-A.png,hH,sS,mask-4.png,mask-4.png,s,0,1.5038867999974173,s,1,0.4026763000001665,0.04988390000653453,0.0492857999925036,0.09979479998582974,0.09922740000183694,0.2998630999936722
RSVPLG03,km,20260212-151934,1.0.2,20251113-095759,757,Experiment,Both,1,Automatic,main,20,20260212-152205,global,local,300,H,H,E,E,H-E.png,E-H.png,hH,hH,mask-3.png,mask-4.png,h,1,3.108295599988196,s,0,1.0315971999953035,0.05105779998120852,0.05102449998958036,0.09944699998595752,0.10083459998713806,0.2993277999921702
RSVPLG03,km,20260212-151934,1.0.2,20251113-095759,757,Experiment,Both,1,Automatic,main,21,20260212-152212,global,global,750,S,H,A,A,S-A.png,H-A.png,sS,hH,mask-3.png,mask-2.png,s,1,1.2320221999834757,h,1,0.48910749997594394,0.04980119998799637,0.049146999983349815,0.10024259999045171,0.09854159998940304,0.7498545999987982
RSVPLG03,km,20260212-151934,1.0.2,20251113-095759,757,Experiment,Both,1,Automatic,main,22,20260212-152218,local,global,750,H,S,E,E,E-H.png,S-E.png,hH,sS,mask-2.png,mask-4.png,s,0,2.400242800009437,h,0,1.6806001999939326,0.050077299994882196,0.04960680002113804,0.10015400001429953,0.09917520001181401,0.7493568999925628
RSVPLG03,km,20260212-151934,1.0.2,20251113-095759,757,Experiment,Both,1,Automatic,main,23,20260212-152226,local,global,300,H,H,E,A,E-H.png,H-A.png,hH,hH,mask-4.png,mask-4.png,h,1,1.4146017000020947,h,1,0.5762682999775279,0.04849109999486245,0.04915540001820773,0.10126910000690259,0.09914870001375675,0.2994992999883834
RSVPLG03,km,20260212-151934,1.0.2,20251113-095759,757,Experiment,Both,1,Automatic,main,24,20260212-152232,global,local,750,S,H,E,A,S-E.png,A-H.png,sS,hH,mask-1.png,mask-1.png,s,1,1.1718845999857876,h,1,0.3203027999843471,0.04870339998160489,0.04953489999752492,0.10053369999513961,0.10037040000315756,0.7489504999830388
RSVPLG03,km,20260212-151934,1.0.2,20251113-095759,757,Experiment,Both,1,Automatic,main,25,20260212-152238,local,local,750,H,H,E,A,E-H.png,A-H.png,hH,hH,mask-4.png,mask-2.png,h,1,1.5114921999920625,h,1,0.4142730000021402,0.049461400019936264,0.047517500002868474,0.10090879999916069,0.09860690002096817,0.7510204999998678
RSVPLG03,km,20260212-151934,1.0.2,20251113-095759,757,Experiment,Both,1,Automatic,main,26,20260212-152257,global,local,300,S,S,E,E,S-E.png,E-S.png,sS,sS,mask-2.png,mask-2.png,s,1,1.121656500006793,h,0,1.6170301999954972,0.05115489999298006,0.051098099997034296,0.10029370000120252,0.10196689999429509,0.29950429999735206
RSVPLG03,km,20260212-151934,1.0.2,20251113-095759,757,Experiment,Both,1,Automatic,main,27,20260212-152304,global,global,750,S,S,E,A,S-E.png,S-A.png,sS,sS,mask-3.png,mask-3.png,s,1,0.7855615000007674,s,1,0.5463019000017084,0.051462700008414686,0.0485313999815844,0.10061010002391413,0.09989569999743253,0.7497276000212878
RSVPLG03,km,20260212-151934,1.0.2,20251113-095759,757,Experiment,Both,1,Automatic,main,28,20260212-152309,global,local,300,H,S,E,E,H-E.png,E-S.png,hH,sS,mask-2.png,mask-2.png,h,1,0.7163908000220545,h,0,0.9289418999978807,0.04996429997845553,0.049213599995709956,0.09982699999818578,0.09884730001795106,0.3007251999806613
RSVPLG03,km,20260212-151934,1.0.2,20251113-095759,757,Experiment,Both,1,Automatic,main,29,20260212-152314,local,global,750,S,S,A,A,A-S.png,S-A.png,sS,sS,mask-1.png,mask-3.png,s,1,0.8290089000074659,s,1,0.47742949999519624,0.04895229998510331,0.04970900001353584,0.09956279999460094,0.09985600001527928,0.7481901999854017
RSVPLG03,km,20260212-151934,1.0.2,20251113-095759,757,Experiment,Both,1,Automatic,main,30,20260212-152320,local,local,750,H,H,A,A,A-H.png,A-H.png,hH,hH,mask-4.png,mask-2.png,h,1,0.8189281999948435,h,1,0.6166137999971397,0.049093600013293326,0.04837770000449382,0.09896490001119673,0.09931190000497736,0.7482178999925964
RSVPLG03,km,20260212-151934,1.0.2,20251113-095759,757,Experiment,Both,1,Automatic,main,31,20260212-152325,global,global,750,H,H,E,E,H-E.png,H-E.png,hH,hH,mask-3.png,mask-2.png,h,1,0.8788320000167005,h,1,0.7932098000019323,0.049985499994363636,0.04975400000694208,0.09759510000003502,0.09963270000298508,0.7474038999935146
RSVPLG03,km,20260212-151934,1.0.2,20251113-095759,757,Experiment,Both,1,Automatic,main,32,20260212-152331,local,local,300,S,H,A,A,A-S.png,A-H.png,sS,hH,mask-2.png,mask-4.png,s,1,1.4109958999906667,s,0,0.45941189999575727,0.04997299998649396,0.04872430002433248,0.10034420000738464,0.09989340000902303,0.3005348999868147
RSVPLG03,km,20260212-151934,1.0.2,20251113-095759,757,Experiment,Both,1,Automatic,main,33,20260212-152337,local,local,750,S,S,A,E,A-S.png,E-S.png,sS,sS,mask-4.png,mask-1.png,s,1,0.5688220000010915,s,1,0.3602600999874994,0.04929460000130348,0.049561899999389425,0.10089919998426922,0.09975109997321852,0.7499702000059187
RSVPLG03,km,20260212-151934,1.0.2,20251113-095759,757,Experiment,Both,1,Automatic,main,34,20260212-152342,local,global,300,H,H,A,A,A-H.png,H-A.png,hH,hH,mask-4.png,mask-3.png,h,1,1.5575975999818183,s,0,1.567838099988876,0.04893699998501688,0.05105949999415316,0.10039159998996183,0.10207949997857213,0.297846200002823
RSVPLG03,km,20260212-151934,1.0.2,20251113-095759,757,Experiment,Both,1,Automatic,main,35,20260212-152349,local,global,300,S,S,A,E,A-S.png,S-E.png,sS,sS,mask-4.png,mask-2.png,s,1,0.8251085999945644,h,0,0.6191923999867868,0.05158669999218546,0.04949340000166558,0.10037289999308996,0.09932949999347329,0.3010478999931365
RSVPLG03,km,20260212-151934,1.0.2,20251113-095759,757,Experiment,Both,1,Automatic,main,36,20260212-152354,global,global,750,S,H,A,E,S-A.png,H-E.png,sS,hH,mask-3.png,mask-4.png,s,1,1.1316092000051867,h,1,0.30561730000772513,0.049904299987247214,0.049972300010267645,0.09993559998110868,0.10113240001373924,0.7486977999797091
RSVPLG03,km,20260212-151934,1.0.2,20251113-095759,757,Experiment,Both,1,Automatic,main,37,20260212-152400,local,local,300,H,S,A,A,A-H.png,A-S.png,hH,sS,mask-1.png,mask-3.png,h,1,1.1696234999981243,s,1,0.32157689999439754,0.04944209998939186,0.050074400001903996,0.0985956999938935,0.10002820001682267,0.2986662999901455
RSVPLG03,km,20260212-151934,1.0.2,20251113-095759,757,Experiment,Both,1,Automatic,main,38,20260212-152405,local,global,750,H,H,A,E,A-H.png,H-E.png,hH,hH,mask-1.png,mask-2.png,h,1,1.23392940001213,h,1,0.40041949998703785,0.049072900001192465,0.04978230001870543,0.09878780000144616,0.09895590000087395,0.7487108999921475
RSVPLG03,km,20260212-151934,1.0.2,20251113-095759,757,Experiment,Both,1,Automatic,main,39,20260212-152410,local,local,300,H,H,A,A,A-H.png,A-H.png,hH,hH,mask-4.png,mask-2.png,h,1,0.8449627000081819,h,1,0.42378380001173355,0.0482307999918703,0.0511852000199724,0.09830350000993349,0.10122609999962151,0.2976839999901131
RSVPLG03,km,20260212-151934,1.0.2,20251113-095759,757,Experiment,Both,1,Automatic,main,40,20260212-152415,local,local,300,S,H,A,A,A-S.png,A-H.png,sS,hH,mask-2.png,mask-2.png,s,1,1.2515931999951135,h,1,0.3943260000087321,0.04941549999057315,0.048816599999554455,0.0989871000056155,0.0997038000205066,0.30027829998289235
RSVPLG03,km,20260212-151934,1.0.2,20251113-095759,757,Experiment,Both,1,Automatic,main,41,20260212-152421,global,local,300,H,S,E,A,H-E.png,A-S.png,hH,sS,mask-1.png,mask-3.png,h,1,0.8820760000089649,h,0,0.9459224999882281,0.051039200014201924,0.04830470000160858,0.09965620000730269,0.09856569999828935,0.3013955000205897
RSVPLG03,km,20260212-151934,1.0.2,20251113-095759,757,Experiment,Both,1,Automatic,main,42,20260212-152426,global,local,300,S,S,E,E,S-E.png,E-S.png,sS,sS,mask-4.png,mask-1.png,s,1,1.0924179000139702,s,1,0.37758810000377707,0.049143899988848716,0.04740830001537688,0.09903620000113733,0.09765350000816397,0.30131059998529963
RSVPLG03,km,20260212-151934,1.0.2,20251113-095759,757,Experiment,Both,1,Automatic,main,43,20260212-152431,local,local,750,H,S,A,A,A-H.png,A-S.png,hH,sS,mask-1.png,mask-4.png,h,1,1.2408532999979798,s,1,0.31972959998529404,0.04923710000002757,0.04920889998902567,0.0996508999960497,0.09786099998746067,0.7499715000158176
RSVPLG03,km,20260212-151934,1.0.2,20251113-095759,757,Experiment,Both,1,Automatic,main,44,20260212-152437,global,local,300,S,S,A,E,S-A.png,E-S.png,sS,sS,mask-4.png,mask-3.png,s,1,1.0729797999956645,s,1,0.37069189999601804,0.050538500014226884,0.05026809999253601,0.0999186999979429,0.09975829999893904,0.29920430001220666
RSVPLG03,km,20260212-151934,1.0.2,20251113-095759,757,Experiment,Both,1,Automatic,main,45,20260212-152442,local,local,750,H,S,E,A,E-H.png,A-S.png,hH,sS,mask-1.png,mask-3.png,h,1,1.2225557000201661,s,1,0.6319918000081088,0.04815479999524541,0.05088470000191592,0.09888700000010431,0.0999454999982845,0.7471294999995735
RSVPLG03,km,20260212-151934,1.0.2,20251113-095759,757,Experiment,Both,1,Automatic,main,46,20260212-152448,global,local,750,H,H,A,A,H-A.png,A-H.png,hH,hH,mask-1.png,mask-1.png,h,1,0.6516426000162028,h,1,0.5620078000065405,0.049338000011630356,0.05171539998264052,0.10136930001317523,0.10065330000361428,0.7478268000122625
RSVPLG03,km,20260212-151934,1.0.2,20251113-095759,757,Experiment,Both,1,Automatic,main,47,20260212-152454,local,global,300,S,S,E,A,E-S.png,S-A.png,sS,sS,mask-1.png,mask-3.png,s,1,1.3555366999935359,h,0,0.45740610000211746,0.05008970000199042,0.05002220001188107,0.09987180001917295,0.10134329998982139,0.2994180000096094
RSVPLG03,km,20260212-151934,1.0.2,20251113-095759,757,Experiment,Both,1,Automatic,main,48,20260212-152459,global,global,750,H,S,A,A,H-A.png,S-A.png,hH,sS,mask-1.png,mask-3.png,h,1,0.8038032999902498,h,0,1.8723986000113655,0.04976359999272972,0.048807899991516024,0.09859750000759959,0.09849509998457506,0.7493324000097346
RSVPLG03,km,20260212-151934,1.0.2,20251113-095759,757,Experiment,Both,1,Automatic,main,49,20260212-152506,local,local,300,S,S,E,E,E-S.png,E-S.png,sS,sS,mask-4.png,mask-2.png,s,1,1.6768537999887485,h,0,1.2289968999975827,0.051987200014991686,0.05085480000707321,0.1001368000288494,0.10062089998973534,0.29999150001094677
RSVPLG03,km,20260212-151934,1.0.2,20251113-095759,757,Experiment,Both,1,Automatic,main,50,20260212-152513,local,local,750,H,S,E,E,E-H.png,E-S.png,hH,sS,mask-3.png,mask-1.png,h,1,0.9256124000239652,s,1,0.3223646000260487,0.04834470001515001,0.05015340002137236,0.09991590000572614,0.09942910002428107,0.7486418999906164
RSVPLG03,km,20260212-151934,1.0.2,20251113-095759,757,Experiment,Both,1,Automatic,main,51,20260212-152533,local,local,300,S,S,A,E,A-S.png,E-S.png,sS,sS,mask-4.png,mask-1.png,s,1,0.8084861000243109,h,0,0.36970039998413995,0.048462600010680035,0.0510204000165686,0.09815420000813901,0.10020570000051521,0.29737569999997504
RSVPLG03,km,20260212-151934,1.0.2,20251113-095759,757,Experiment,Both,1,Automatic,main,52,20260212-152538,local,global,300,S,H,E,A,E-S.png,H-A.png,sS,hH,mask-3.png,mask-1.png,s,1,0.5043112999992445,h,1,0.3609434000100009,0.051335199997993186,0.051541399996494874,0.10005619999719784,0.09964649999164976,0.3001573999936227
RSVPLG03,km,20260212-151934,1.0.2,20251113-095759,757,Experiment,Both,1,Automatic,main,53,20260212-152543,global,local,750,H,H,A,E,H-A.png,E-H.png,hH,hH,mask-1.png,mask-2.png,h,1,1.297331400011899,s,0,0.29032409997307695,0.04979530000127852,0.04984130000229925,0.09977359999902546,0.1007370000006631,0.7491703999985475
RSVPLG03,km,20260212-151934,1.0.2,20251113-095759,757,Experiment,Both,1,Automatic,main,54,20260212-152548,global,global,750,H,S,E,A,H-E.png,S-A.png,hH,sS,mask-1.png,mask-4.png,h,1,0.5804186000023037,s,1,0.33823240001220256,0.05093589998432435,0.04827209998620674,0.10043160000350326,0.0988632999942638,0.7497052999970037
RSVPLG03,km,20260212-151934,1.0.2,20251113-095759,757,Experiment,Both,1,Automatic,main,55,20260212-152553,global,local,750,S,H,A,A,S-A.png,A-H.png,sS,hH,mask-1.png,mask-3.png,s,1,0.7583082999917679,h,1,0.3503657000255771,0.05055809998884797,0.04890900000464171,0.10034589999122545,0.09827710001263767,0.7507631999906152
RSVPLG03,km,20260212-151934,1.0.2,20251113-095759,757,Experiment,Both,1,Automatic,main,56,20260212-152559,local,global,750,H,H,A,A,A-H.png,H-A.png,hH,hH,mask-3.png,mask-3.png,h,1,0.8984594000212383,h,1,0.3838488000037614,0.04855259999749251,0.05135279998648912,0.09804300000541843,0.09973479999462143,0.7476401000167243
RSVPLG03,km,20260212-151934,1.0.2,20251113-095759,757,Experiment,Both,1,Automatic,main,57,20260212-152604,global,global,300,S,H,A,A,S-A.png,H-A.png,sS,hH,mask-4.png,mask-4.png,s,1,1.8820769999874756,s,0,0.31866719998652115,0.0497046000091359,0.04876730000250973,0.10038089999579825,0.10017240000888705,0.30004259999259375
RSVPLG03,km,20260212-151934,1.0.2,20251113-095759,757,Experiment,Both,1,Automatic,main,58,20260212-152610,global,global,750,H,H,A,A,H-A.png,H-A.png,hH,hH,mask-3.png,mask-4.png,h,1,0.6920408000005409,h,1,0.4820594000048004,0.04904419998638332,0.05004659999394789,0.0990276999946218,0.09903089998988435,0.7503285999991931
RSVPLG03,km,20260212-151934,1.0.2,20251113-095759,757,Experiment,Both,1,Automatic,main,59,20260212-152615,global,local,750,H,S,E,A,H-E.png,A-S.png,hH,sS,mask-1.png,mask-3.png,h,1,1.4950855000060983,s,1,0.5137023999996018,0.0496055000112392,0.04917600000044331,0.09899689999292605,0.0996232999896165,0.7503796000091825
RSVPLG03,km,20260212-151934,1.0.2,20251113-095759,757,Experiment,Both,1,Automatic,main,60,20260212-152621,global,global,300,H,S,A,E,H-A.png,S-E.png,hH,sS,mask-2.png,mask-4.png,h,1,0.7607122999907006,s,1,0.31509589997585863,0.05025440000463277,0.049846500012790784,0.09975880000274628,0.10056459999759682,0.2992695999855641
RSVPLG03,km,20260212-151934,1.0.2,20251113-095759,757,Experiment,Both,1,Automatic,main,61,20260212-152626,local,local,750,S,H,E,A,E-S.png,A-H.png,sS,hH,mask-2.png,mask-3.png,s,1,1.3425846000027377,h,1,0.2788443999888841,0.05151869999826886,0.04895550000946969,0.10014289998798631,0.09953510001651011,0.7500901999883354
RSVPLG03,km,20260212-151934,1.0.2,20251113-095759,757,Experiment,Both,1,Automatic,main,62,20260212-152632,global,local,750,H,H,E,A,H-E.png,A-H.png,hH,hH,mask-4.png,mask-2.png,h,1,0.7636244999885093,h,1,0.4022908000042662,0.05065770001965575,0.05073059999267571,0.09903760001179762,0.100745099975029,0.7486730000237003
RSVPLG03,km,20260212-151934,1.0.2,20251113-095759,757,Experiment,Both,1,Automatic,main,63,20260212-152637,local,global,300,S,H,A,A,A-S.png,H-A.png,sS,hH,mask-3.png,mask-2.png,h,0,1.57184300001245,s,0,0.8107895000139251,0.0521780000126455,0.049416800000471994,0.10163489999831654,0.10046769998734817,0.3019634000083897
RSVPLG03,km,20260212-151934,1.0.2,20251113-095759,757,Experiment,Both,1,Automatic,main,64,20260212-152643,global,global,300,H,S,A,E,H-A.png,S-E.png,hH,sS,mask-1.png,mask-1.png,h,1,0.7879659000027459,s,1,0.3506718999997247,0.048966100002871826,0.0498496999789495,0.09757849999004975,0.10024820000398904,0.2979484999959823
RSVPLG03,km,20260212-151934,1.0.2,20251113-095759,757,Experiment,Both,1,Automatic,main,65,20260212-152648,global,local,750,H,H,A,A,H-A.png,A-H.png,hH,hH,mask-2.png,mask-2.png,h,1,0.6777911999961361,h,1,0.3920780999760609,0.04777740000281483,0.04996819997904822,0.0996791000070516,0.09975029999623075,0.7483658000128344
RSVPLG03,km,20260212-151934,1.0.2,20251113-095759,757,Experiment,Both,1,Automatic,main,66,20260212-152653,local,global,300,S,S,E,E,E-S.png,S-E.png,sS,sS,mask-1.png,mask-1.png,s,1,1.4423149999929592,h,0,0.2974761000077706,0.04884279999532737,0.04948310001054779,0.09911800001282245,0.09840700001223013,0.2991492000001017
RSVPLG03,km,20260212-151934,1.0.2,20251113-095759,757,Experiment,Both,1,Automatic,main,67,20260212-152659,local,global,300,S,H,A,A,A-S.png,H-A.png,sS,hH,mask-2.png,mask-4.png,s,1,0.5819402000051923,s,0,0.9696676000021398,0.05118080001557246,0.0502379999961704,0.10105739999562502,0.10206489998381585,0.30004130001179874
RSVPLG03,km,20260212-151934,1.0.2,20251113-095759,757,Experiment,Both,1,Automatic,main,68,20260212-152704,local,global,300,H,H,A,A,A-H.png,H-A.png,hH,hH,mask-3.png,mask-1.png,h,1,0.9164522000064608,h,1,0.9448933000094257,0.049216700019314885,0.050505799998063594,0.09789220002130605,0.10055030000512488,0.2975942000048235
RSVPLG03,km,20260212-151934,1.0.2,20251113-095759,757,Experiment,Both,1,Automatic,main,69,20260212-152710,global,global,300,H,H,E,E,H-E.png,H-E.png,hH,hH,mask-4.png,mask-4.png,h,1,0.9433632000000216,h,1,0.5333843000116758,0.04935619997559115,0.05046630001743324,0.09897399999317713,0.09950350000872277,0.2990239999780897
RSVPLG03,km,20260212-151934,1.0.2,20251113-095759,757,Experiment,Both,1,Automatic,main,70,20260212-152715,local,global,300,S,S,A,E,A-S.png,S-E.png,sS,sS,mask-4.png,mask-1.png,s,1,0.8954269999812823,h,0,0.5267959000193514,0.04966230000718497,0.04975539998849854,0.09947829999146052,0.09952660000999458,0.30040249999728985
RSVPLG03,km,20260212-151934,1.0.2,20251113-095759,757,Experiment,Both,1,Automatic,main,71,20260212-152720,local,global,750,S,S,E,A,E-S.png,S-A.png,sS,sS,mask-4.png,mask-3.png,s,1,1.14582320000045,h,0,0.29027930001029745,0.05114639998646453,0.05003550002584234,0.10041059998911805,0.09997240002849139,0.7506203999801073
RSVPLG03,km,20260212-151934,1.0.2,20251113-095759,757,Experiment,Both,1,Automatic,main,72,20260212-152725,global,global,750,H,S,A,A,H-A.png,S-A.png,hH,sS,mask-3.png,mask-3.png,h,1,0.48925559999770485,s,1,0.5454214000201318,0.050840399984735996,0.04966219997731969,0.10074189997976646,0.09882419998757541,0.7513765000039712
RSVPLG03,km,20260212-151934,1.0.2,20251113-095759,757,Experiment,Both,1,Automatic,main,73,20260212-152731,global,local,300,H,S,E,A,H-E.png,A-S.png,hH,sS,mask-3.png,mask-4.png,h,1,0.49532600000384264,s,1,0.3213617000146769,0.049496899999212474,0.05104759999085218,0.10157670002081431,0.10047360000316985,0.29947990001528524
RSVPLG03,km,20260212-151934,1.0.2,20251113-095759,757,Experiment,Both,1,Automatic,main,74,20260212-152735,global,global,300,S,H,A,E,S-A.png,H-E.png,sS,hH,mask-3.png,mask-2.png,s,1,0.7367260000028182,h,1,0.3848428000055719,0.050359099986962974,0.050206299987621605,0.10080409998772666,0.09899549998226576,0.3004493000044022
RSVPLG03,km,20260212-151934,1.0.2,20251113-095759,757,Experiment,Both,1,Automatic,main,75,20260212-152740,global,local,300,S,H,E,E,S-E.png,E-H.png,sS,hH,mask-3.png,mask-2.png,s,1,0.9127203999960329,h,1,0.3176993999804836,0.049991499981842935,0.04968309999094345,0.10051859999657609,0.09914839998236857,0.3006859000015538
RSVPLG03,km,20260212-151934,1.0.2,20251113-095759,757,Experiment,Both,1,Automatic,main,76,20260212-152806,global,local,300,S,S,E,E,S-E.png,E-S.png,sS,sS,mask-3.png,mask-4.png,s,1,0.9597418000048492,s,1,0.289629499980947,0.05133140002726577,0.04969260000507347,0.10003190001589246,0.09969900001306087,0.2993189000117127
RSVPLG03,km,20260212-151934,1.0.2,20251113-095759,757,Experiment,Both,1,Automatic,main,77,20260212-152811,local,local,300,H,H,E,E,E-H.png,E-H.png,hH,hH,mask-2.png,mask-3.png,s,0,3.146913000004133,h,1,0.25181240000529215,0.04950039999675937,0.04885009999270551,0.09984560002340004,0.09895489999325946,0.30182230001082644
RSVPLG03,km,20260212-151934,1.0.2,20251113-095759,757,Experiment,Both,1,Automatic,main,78,20260212-152818,local,global,300,S,H,A,A,A-S.png,H-A.png,sS,hH,mask-2.png,mask-3.png,s,1,0.7333043999969959,h,1,0.26768859999720007,0.05214929999783635,0.05155850001028739,0.10226369998417795,0.1003703000023961,0.29938359998050146
RSVPLG03,km,20260212-151934,1.0.2,20251113-095759,757,Experiment,Both,1,Automatic,main,79,20260212-152823,local,local,750,S,H,A,A,A-S.png,A-H.png,sS,hH,mask-2.png,mask-4.png,s,1,0.7636556000215933,h,1,0.2536462999996729,0.04861549998167902,0.05230319997644983,0.0992268999980297,0.09998079997603782,0.747358799999347
RSVPLG03,km,20260212-151934,1.0.2,20251113-095759,757,Experiment,Both,1,Automatic,main,80,20260212-152828,global,local,300,S,S,E,E,S-E.png,E-S.png,sS,sS,mask-1.png,mask-1.png,s,1,2.5992712000152096,h,0,0.2359213999880012,0.05083829999784939,0.05023829999845475,0.09990209998795763,0.1000773000123445,0.2981440000003204
RSVPLG03,km,20260212-151934,1.0.2,20251113-095759,757,Experiment,Both,1,Automatic,main,81,20260212-152835,local,local,300,S,S,E,E,E-S.png,E-S.png,sS,sS,mask-1.png,mask-3.png,h,0,1.089516400010325,s,1,1.4403115000168327,0.050056900014169514,0.05077000000164844,0.10108890000265092,0.10257729998556897,0.2996514000114985
RSVPLG03,km,20260212-151934,1.0.2,20251113-095759,757,Experiment,Both,1,Automatic,main,82,20260212-152841,global,local,750,H,H,A,A,H-A.png,A-H.png,hH,hH,mask-1.png,mask-3.png,h,1,1.408738700003596,h,1,0.8979313999880105,0.04815610000514425,0.04757870000321418,0.09943329999805428,0.09834150000824593,0.7486875999893527
RSVPLG03,km,20260212-151934,1.0.2,20251113-095759,757,Experiment,Both,1,Automatic,main,83,20260212-152847,local,local,300,S,H,A,A,A-S.png,A-H.png,sS,hH,mask-2.png,mask-3.png,s,1,1.3807518999965396,h,1,0.17614280001726002,0.05009269999573007,0.04960559998289682,0.10010129999136552,0.10003059997688979,0.3007258000143338
RSVPLG03,km,20260212-151934,1.0.2,20251113-095759,757,Experiment,Both,1,Automatic,main,84,20260212-152853,local,local,300,S,S,A,A,A-S.png,A-S.png,sS,sS,mask-2.png,mask-1.png,s,1,1.1904432000010274,s,1,0.2885502999997698,0.04896970000118017,0.0520216999866534,0.09931039999355562,0.09943249999196269,0.29816209999262355
RSVPLG03,km,20260212-151934,1.0.2,20251113-095759,757,Experiment,Both,1,Automatic,main,85,20260212-152858,local,local,750,H,H,E,A,E-H.png,A-H.png,hH,hH,mask-1.png,mask-4.png,h,1,1.2559222000127193,h,1,0.28913269998156466,0.05049599998164922,0.04920089998631738,0.10188829997787252,0.09932390000903979,0.751122799993027
RSVPLG03,km,20260212-151934,1.0.2,20251113-095759,757,Experiment,Both,1,Automatic,main,86,20260212-152903,local,local,750,S,H,E,A,E-S.png,A-H.png,sS,hH,mask-1.png,mask-3.png,s,1,0.9691902000049595,h,1,0.23306379999849014,0.049547300004633144,0.04872550000436604,0.09965389998978935,0.0994803000066895,0.7497567999816965
RSVPLG03,km,20260212-151934,1.0.2,20251113-095759,757,Experiment,Both,1,Automatic,main,87,20260212-152909,global,global,300,H,S,A,A,H-A.png,S-A.png,hH,sS,mask-1.png,mask-3.png,h,1,1.2801136999914888,s,1,0.3060926999896765,0.048496599978534505,0.05031120000057854,0.09859039998264052,0.10016689999611117,0.2980198999866843
RSVPLG03,km,20260212-151934,1.0.2,20251113-095759,757,Experiment,Both,1,Automatic,main,88,20260212-152914,global,global,300,H,H,E,A,H-E.png,H-A.png,hH,hH,mask-3.png,mask-1.png,h,1,1.0897810999886133,h,1,0.28808379999827594,0.050828699982957914,0.04863780000596307,0.09977479997905903,0.09960560000035912,0.30092479998711497
RSVPLG03,km,20260212-151934,1.0.2,20251113-095759,757,Experiment,Both,1,Automatic,main,89,20260212-152919,global,local,750,H,S,E,A,H-E.png,A-S.png,hH,sS,mask-1.png,mask-1.png,h,1,0.8292991000053007,h,0,0.6377558999811299,0.050901100010378286,0.0505208000249695,0.10008540001581423,0.09990250002010725,0.7501942999952007
RSVPLG03,km,20260212-151934,1.0.2,20251113-095759,757,Experiment,Both,1,Automatic,main,90,20260212-152925,local,local,750,S,S,A,E,A-S.png,E-S.png,sS,sS,mask-3.png,mask-4.png,h,0,1.0134082000004128,s,1,0.681913699983852,0.05201929999748245,0.05085169998346828,0.10088360001100227,0.09961279999697581,0.7497572000138462
RSVPLG03,km,20260212-151934,1.0.2,20251113-095759,757,Experiment,Both,1,Automatic,main,91,20260212-152930,local,global,750,H,H,E,E,E-H.png,H-E.png,hH,hH,mask-1.png,mask-3.png,h,1,1.2443683000165038,h,1,0.5213090000033844,0.05008710001129657,0.0491267999750562,0.10098570000263862,0.09956479998072609,0.7502706000232138
RSVPLG03,km,20260212-151934,1.0.2,20251113-095759,757,Experiment,Both,1,Automatic,main,92,20260212-152936,global,global,300,H,H,A,E,H-A.png,H-E.png,hH,hH,mask-2.png,mask-4.png,h,1,0.4877015000092797,h,1,0.3612305000133347,0.04820439999457449,0.05079709997517057,0.09957530000247061,0.09985889997915365,0.2985647000023164
RSVPLG03,km,20260212-151934,1.0.2,20251113-095759,757,Experiment,Both,1,Automatic,main,93,20260212-152941,local,global,750,H,S,A,A,A-H.png,S-A.png,hH,sS,mask-2.png,mask-4.png,h,1,1.0304640000103973,s,1,0.26449739999952726,0.05177799999364652,0.04806299999472685,0.10129109999979846,0.09936689998721704,0.7506758999952581
RSVPLG03,km,20260212-151934,1.0.2,20251113-095759,757,Experiment,Both,1,Automatic,main,94,20260212-152946,global,local,300,H,H,A,E,H-A.png,E-H.png,hH,hH,mask-3.png,mask-2.png,h,1,1.5863087000034284,s,0,0.2840305000136141,0.04983200001879595,0.04854970000451431,0.09945030001108535,0.09959030000027269,0.2999513999966439
RSVPLG03,km,20260212-151934,1.0.2,20251113-095759,757,Experiment,Both,1,Automatic,main,95,20260212-152952,global,global,300,S,H,E,A,S-E.png,H-A.png,sS,hH,mask-2.png,mask-1.png,s,1,1.4260756000003312,s,0,0.6100763999857008,0.04869450000114739,0.05072900000959635,0.0984910000115633,0.10147729999152943,0.2977508000039961
RSVPLG03,km,20260212-151934,1.0.2,20251113-095759,757,Experiment,Both,1,Automatic,main,96,20260212-152958,global,local,750,H,H,E,A,H-E.png,A-H.png,hH,hH,mask-2.png,mask-2.png,h,1,0.7046484999882523,h,1,0.5045468999887817,0.04714149999199435,0.05052369998884387,0.0976092999917455,0.1004389000008814,0.7468446000129916
RSVPLG03,km,20260212-151934,1.0.2,20251113-095759,757,Experiment,Both,1,Automatic,main,97,20260212-153003,global,global,750,H,S,A,E,H-A.png,S-E.png,hH,sS,mask-1.png,mask-2.png,h,1,0.5663433999870904,s,1,0.24890209999284707,0.04912089998833835,0.04928250002558343,0.09867599999415688,0.10161579999839887,0.7478505999897607
RSVPLG03,km,20260212-151934,1.0.2,20251113-095759,757,Experiment,Both,1,Automatic,main,98,20260212-153008,local,global,750,H,S,E,A,E-H.png,S-A.png,hH,sS,mask-2.png,mask-3.png,h,1,1.6192153999872971,s,1,0.2978122000058647,0.049305100023048,0.05042809998849407,0.10007270000642166,0.09863530000438914,0.7491375000099652
RSVPLG03,km,20260212-151934,1.0.2,20251113-095759,757,Experiment,Both,1,Automatic,main,99,20260212-153014,global,global,750,S,H,E,E,S-E.png,H-E.png,sS,hH,mask-3.png,mask-3.png,s,1,0.8662985000119079,h,1,0.1935663000040222,0.05035780000616796,0.05064570001559332,0.1003091000020504,0.10073900001589209,0.7490850999893155
RSVPLG03,km,20260212-151934,1.0.2,20251113-095759,757,Experiment,Both,1,Automatic,main,100,20260212-153019,local,global,750,S,S,A,A,A-S.png,S-A.png,sS,sS,mask-1.png,mask-1.png,s,1,1.0740870999870822,h,0,0.30549579998478293,0.050450699985958636,0.051145700010238215,0.10059200000250712,0.10059600000386126,0.7481257999897934
RSVPLG03,km,20260212-153055,1.0.2,20251113-095759,757,Experiment,Both,1,Automatic,warmup,1,20260212-153124,local,global,300,H,H,E,A,E-H.png,H-A.png,hH,hH,mask-2.png,mask-3.png,h,1,0.6767537000123411,s,0,0.3597135000163689,0.048795999988215044,0.05034799998975359,0.1002433999965433,0.10106719998293556,0.30028880000463687
RSVPLG03,km,20260212-153055,1.0.2,20251113-095759,757,Experiment,Both,1,Automatic,warmup,2,20260212-153129,local,local,750,H,H,A,A,A-H.png,A-H.png,hH,hH,mask-1.png,mask-4.png,h,1,0.43465629999991506,h,1,1.1196656999818515,0.05030319999787025,0.04965480000828393,0.10008239999297075,0.10001260001445189,0.7536815999774262
RSVPLG03,km,20260212-153055,1.0.2,20251113-095759,757,Experiment,Both,1,Automatic,warmup,3,20260212-153134,global,local,300,S,H,A,A,S-A.png,A-H.png,sS,hH,mask-3.png,mask-2.png,s,1,1.1304090000048745,s,0,0.6654950999945868,0.051050999987637624,0.049603399995248765,0.09972959998412989,0.09971409998252057,0.3024206999980379
RSVPLG03,km,20260212-153055,1.0.2,20251113-095759,757,Experiment,Both,1,Automatic,warmup,4,20260212-153140,global,local,750,H,H,A,E,H-A.png,E-H.png,hH,hH,mask-4.png,mask-3.png,h,1,1.3970535999978893,s,0,0.32223590000648983,0.051104300015140325,0.0507068999868352,0.10051760001806542,0.10014540000702254,0.7540535000152886
RSVPLG03,km,20260212-153055,1.0.2,20251113-095759,757,Experiment,Both,1,Automatic,main,5,20260212-153146,global,global,750,S,S,E,A,S-E.png,S-A.png,sS,sS,mask-4.png,mask-3.png,s,1,1.0163988000131212,s,1,0.4585518999956548,0.0504681000020355,0.04890780002460815,0.0997835999878589,0.09903370001120493,0.7551035999786109
RSVPLG03,km,20260212-153055,1.0.2,20251113-095759,757,Experiment,Both,1,Automatic,main,6,20260212-153151,local,global,300,H,H,A,A,A-H.png,H-A.png,hH,hH,mask-3.png,mask-2.png,h,1,1.375789200013969,h,1,0.7534636000054888,0.04980710000381805,0.050013600004604086,0.10059070002171211,0.10149830000591464,0.3009715999942273
RSVPLG03,km,20260212-153055,1.0.2,20251113-095759,757,Experiment,Both,1,Automatic,main,7,20260212-153157,local,global,300,H,S,E,E,E-H.png,S-E.png,hH,sS,mask-3.png,mask-1.png,h,1,0.9365960999857634,h,0,0.423240000003716,0.04954750000615604,0.04974599997512996,0.10024549998342991,0.101475199975539,0.3015276000078302
RSVPLG03,km,20260212-153055,1.0.2,20251113-095759,757,Experiment,Both,1,Automatic,main,8,20260212-153202,global,global,750,H,H,E,E,H-E.png,H-E.png,hH,hH,mask-1.png,mask-1.png,h,1,1.2075698999979068,h,1,0.40795570000773296,0.050450899987481534,0.049936600000364706,0.09983569997712038,0.10144840000430122,0.7544088999857195
RSVPLG03,km,20260212-153055,1.0.2,20251113-095759,757,Experiment,Both,1,Automatic,main,9,20260212-153208,global,local,750,S,H,A,A,S-A.png,A-H.png,sS,hH,mask-2.png,mask-2.png,s,1,0.5011824000102933,h,1,0.41355290001956746,0.049483400012832135,0.05122780002420768,0.10110950001399033,0.10216560002299957,0.7523657999990974
RSVPLG03,km,20260212-153055,1.0.2,20251113-095759,757,Experiment,Both,1,Automatic,main,10,20260212-153213,local,global,300,S,S,A,A,A-S.png,S-A.png,sS,sS,mask-3.png,mask-3.png,s,1,0.8352552000142168,h,0,0.33685540000442415,0.049366300023393705,0.05079539999132976,0.09986560000106692,0.09853819999261759,0.30087070001172833
RSVPLG03,km,20260212-153055,1.0.2,20251113-095759,757,Experiment,Both,1,Automatic,main,11,20260212-153218,global,global,300,S,S,E,A,S-E.png,S-A.png,sS,sS,mask-1.png,mask-2.png,s,1,1.3293630999978632,s,1,0.2818314000032842,0.050024099997244775,0.05013729998609051,0.1000392000132706,0.10055899998405948,0.3015614000032656
RSVPLG03,km,20260212-153055,1.0.2,20251113-095759,757,Experiment,Both,1,Automatic,main,12,20260212-153223,global,global,300,H,S,A,A,H-A.png,S-A.png,hH,sS,mask-1.png,mask-2.png,h,1,1.1285897999769077,s,1,0.29009990001213737,0.05059119997895323,0.04865400001290254,0.10056609997991472,0.0993573000014294,0.30086259997915477
RSVPLG03,km,20260212-153055,1.0.2,20251113-095759,757,Experiment,Both,1,Automatic,main,13,20260212-153228,global,global,750,H,S,A,A,H-A.png,S-A.png,hH,sS,mask-1.png,mask-1.png,h,1,0.4439023000013549,s,1,0.29425149998860434,0.050320600013947114,0.05099119999795221,0.10058900000876747,0.10172390000661835,0.7535744000051636
RSVPLG03,km,20260212-153055,1.0.2,20251113-095759,757,Experiment,Both,1,Automatic,main,14,20260212-153233,global,local,300,H,H,A,E,H-A.png,E-H.png,hH,hH,mask-1.png,mask-2.png,h,1,0.7409343999752309,h,1,0.522995399980573,0.05081290000816807,0.05013129999861121,0.10071520000929013,0.10170470000593923,0.30152810001163743
RSVPLG03,km,20260212-153055,1.0.2,20251113-095759,757,Experiment,Both,1,Automatic,main,15,20260212-153238,local,local,300,S,H,A,A,A-S.png,A-H.png,sS,hH,mask-3.png,mask-4.png,s,1,0.485029300005408,h,1,0.36069919998408295,0.05084609999903478,0.048678999999538064,0.10033080002176575,0.09928039999795146,0.30237930000294
RSVPLG03,km,20260212-153055,1.0.2,20251113-095759,757,Experiment,Both,1,Automatic,main,16,20260212-153243,local,global,750,H,H,E,E,E-H.png,H-E.png,hH,hH,mask-1.png,mask-4.png,s,0,1.409616700024344,h,1,0.36231530000804923,0.05105209999601357,0.04888270000810735,0.10058759999810718,0.10117139999056235,0.7554455999925267
RSVPLG03,km,20260212-153055,1.0.2,20251113-095759,757,Experiment,Both,1,Automatic,main,17,20260212-153249,global,local,300,S,S,E,A,S-E.png,A-S.png,sS,sS,mask-3.png,mask-4.png,s,1,1.73766300000716,h,0,0.3489357999933418,0.05211959997541271,0.05042000001412816,0.0995944999740459,0.101031400001375,0.3007556999800727
RSVPLG03,km,20260212-153055,1.0.2,20251113-095759,757,Experiment,Both,1,Automatic,main,18,20260212-153255,local,global,300,H,S,E,A,E-H.png,S-A.png,hH,sS,mask-1.png,mask-2.png,h,1,1.0335155999928247,s,1,0.7314069000130985,0.048843099997611716,0.05108020000625402,0.09903890002169646,0.10087560000829399,0.2994736999971792
RSVPLG03,km,20260212-153055,1.0.2,20251113-095759,757,Experiment,Both,1,Automatic,main,19,20260212-153300,global,global,300,S,H,E,A,S-E.png,H-A.png,sS,hH,mask-3.png,mask-1.png,s,1,1.3211951999983285,h,1,0.34923259998322465,0.04938490001950413,0.04920130001846701,0.09938980001606978,0.09897859999909997,0.30184379999991506
RSVPLG03,km,20260212-153055,1.0.2,20251113-095759,757,Experiment,Both,1,Automatic,main,20,20260212-153306,local,global,750,S,H,A,E,A-S.png,H-E.png,sS,hH,mask-3.png,mask-2.png,s,1,1.5747897000110243,h,1,0.31253690001904033,0.04801099997712299,0.05042660000617616,0.09900769998785108,0.09948459998122416,0.7531986999965739
RSVPLG03,km,20260212-153055,1.0.2,20251113-095759,757,Experiment,Both,1,Automatic,main,21,20260212-153312,local,local,300,S,H,E,A,E-S.png,A-H.png,sS,hH,mask-2.png,mask-3.png,s,1,0.517406500002835,h,1,0.2869617000105791,0.04954079998424277,0.0499749000009615,0.10023789998376742,0.10259890000452287,0.30078530000173487
RSVPLG03,km,20260212-153055,1.0.2,20251113-095759,757,Experiment,Both,1,Automatic,main,22,20260212-153317,global,global,300,H,S,E,E,H-E.png,S-E.png,hH,sS,mask-2.png,mask-1.png,h,1,1.1134980999922846,s,1,0.2575185000023339,0.04980290000094101,0.050873000000137836,0.09945420001167804,0.10236960000474937,0.3009154000028502
RSVPLG03,km,20260212-153055,1.0.2,20251113-095759,757,Experiment,Both,1,Automatic,main,23,20260212-153322,local,local,750,H,H,A,A,A-H.png,A-H.png,hH,hH,mask-1.png,mask-4.png,h,1,1.8107275000074878,s,0,0.5416512000083458,0.0505733999889344,0.0477007000008598,0.10096640000119805,0.09939960000338033,0.7559303999878466
RSVPLG03,km,20260212-153055,1.0.2,20251113-095759,757,Experiment,Both,1,Automatic,main,24,20260212-153328,local,local,300,S,H,E,E,E-S.png,E-H.png,sS,hH,mask-3.png,mask-2.png,h,0,1.0122622000053525,s,0,0.2736651999875903,0.0503566000261344,0.05115579999983311,0.09986960000242107,0.10084450000431389,0.30057099999976344
RSVPLG03,km,20260212-153055,1.0.2,20251113-095759,757,Experiment,Both,1,Automatic,main,25,20260212-153333,local,local,750,H,H,E,E,E-H.png,E-H.png,hH,hH,mask-2.png,mask-3.png,h,1,0.94326099997852,h,1,0.897566800005734,0.04892390000168234,0.048342499998398125,0.09802669999771751,0.10161159999552183,0.7525405999913346
RSVPLG03,km,20260212-153055,1.0.2,20251113-095759,757,Experiment,Both,1,Automatic,main,26,20260212-153410,global,local,750,H,S,E,A,H-E.png,A-S.png,hH,sS,mask-3.png,mask-2.png,h,1,1.0772496999998111,s,1,1.3931640000082552,0.049187099997652695,0.04861110000638291,0.0993319999834057,0.09898509999038652,0.7542034999933094
RSVPLG03,km,20260212-153055,1.0.2,20251113-095759,757,Experiment,Both,1,Automatic,main,27,20260212-153416,global,global,300,H,H,E,A,H-E.png,H-A.png,hH,hH,mask-3.png,mask-3.png,h,1,2.9872200999816414,h,1,0.6266826000064611,0.0511656999879051,0.04995769998640753,0.10087460000067949,0.09939180000219494,0.30225290000089444
RSVPLG03,km,20260212-153055,1.0.2,20251113-095759,757,Experiment,Both,1,Automatic,main,28,20260212-153424,local,global,750,S,H,E,E,E-S.png,H-E.png,sS,hH,mask-4.png,mask-4.png,s,1,1.6646645999862812,h,1,0.3491533999913372,0.053462800016859546,0.050289600010728464,0.10139940000954084,0.10351840002113022,0.753596499998821
RSVPLG03,km,20260212-153055,1.0.2,20251113-095759,757,Experiment,Both,1,Automatic,main,29,20260212-153430,global,local,750,S,S,E,A,S-E.png,A-S.png,sS,sS,mask-1.png,mask-4.png,s,1,1.193087799998466,s,1,0.3705323000031058,0.05162689997814596,0.05087959999218583,0.10089249999145977,0.10202600000775419,0.7543707999866456
RSVPLG03,km,20260212-153055,1.0.2,20251113-095759,757,Experiment,Both,1,Automatic,main,30,20260212-153436,global,global,750,H,H,A,A,H-A.png,H-A.png,hH,hH,mask-2.png,mask-3.png,h,1,1.0361794000200462,h,1,0.25330259997281246,0.050004699995042756,0.04988009997759946,0.10140970000065863,0.10158299998147413,0.7534440000017639
RSVPLG03,km,20260212-153055,1.0.2,20251113-095759,757,Experiment,Both,1,Automatic,main,31,20260212-153441,global,local,300,S,H,A,E,S-A.png,E-H.png,sS,hH,mask-2.png,mask-4.png,s,1,1.3181974999897648,s,0,0.37017919999198057,0.050695199985057116,0.05093510000733659,0.10169959999620914,0.10151449998375028,0.301779000001261
RSVPLG03,km,20260212-153055,1.0.2,20251113-095759,757,Experiment,Both,1,Automatic,main,32,20260212-153446,global,local,750,H,S,A,A,H-A.png,A-S.png,hH,sS,mask-1.png,mask-3.png,h,1,0.9571087000076659,h,0,0.22561039999709465,0.051732399995671585,0.049503899994306266,0.10082580000744201,0.09923669998534024,0.7554215000127442
RSVPLG03,km,20260212-153055,1.0.2,20251113-095759,757,Experiment,Both,1,Automatic,main,33,20260212-153452,global,global,300,S,H,E,A,S-E.png,H-A.png,sS,hH,mask-2.png,mask-4.png,s,1,0.6768772999930661,h,1,0.48075869999593124,0.04941010000766255,0.05200029999832623,0.10191289999056607,0.09914199999184348,0.30189130001235753
RSVPLG03,km,20260212-153055,1.0.2,20251113-095759,757,Experiment,Both,1,Automatic,main,34,20260212-153457,local,global,300,S,H,E,E,E-S.png,H-E.png,sS,hH,mask-4.png,mask-2.png,s,1,0.5802151999960188,h,1,0.2977836999925785,0.047693500004243106,0.05087859998457134,0.09812090001651086,0.10048559997812845,0.3003550000139512
RSVPLG03,km,20260212-153055,1.0.2,20251113-095759,757,Experiment,Both,1,Automatic,main,35,20260212-153501,local,global,300,H,H,A,A,A-H.png,H-A.png,hH,hH,mask-3.png,mask-2.png,h,1,0.6551253000216093,s,0,0.32053490000544116,0.050861099996836856,0.05231519998051226,0.10182770001119934,0.10067359998356551,0.30098550001275726
RSVPLG03,km,20260212-153055,1.0.2,20251113-095759,757,Experiment,Both,1,Automatic,main,36,20260212-153506,local,global,300,H,S,E,E,E-H.png,S-E.png,hH,sS,mask-2.png,mask-1.png,h,1,1.0459932999801822,h,0,0.3316482000227552,0.050191399990580976,0.05022760000429116,0.1008729999884963,0.10035689998767339,0.3006755000096746
RSVPLG03,km,20260212-153055,1.0.2,20251113-095759,757,Experiment,Both,1,Automatic,main,37,20260212-153511,global,global,750,S,H,E,A,S-E.png,H-A.png,sS,hH,mask-1.png,mask-4.png,s,1,0.9008803999749944,h,1,0.3122578999900725,0.04896000001463108,0.05000369998742826,0.09920580001198687,0.10077960000489838,0.7519892000127584
RSVPLG03,km,20260212-153055,1.0.2,20251113-095759,757,Experiment,Both,1,Automatic,main,38,20260212-153517,global,global,750,H,S,E,A,H-E.png,S-A.png,hH,sS,mask-2.png,mask-3.png,h,1,1.0485335999983363,s,1,0.2725610999914352,0.04903829999966547,0.05101610001293011,0.09823999999207444,0.10159080001176335,0.7512867999903392
RSVPLG03,km,20260212-153055,1.0.2,20251113-095759,757,Experiment,Both,1,Automatic,main,39,20260212-153522,global,local,300,H,H,E,A,H-E.png,A-H.png,hH,hH,mask-2.png,mask-1.png,h,1,0.8351711000141222,s,0,0.4615517999918666,0.0492820999934338,0.04856369999470189,0.09886749999714084,0.09985790000064299,0.30208660001517273
RSVPLG03,km,20260212-153055,1.0.2,20251113-095759,757,Experiment,Both,1,Automatic,main,40,20260212-153527,local,local,750,S,S,A,E,A-S.png,E-S.png,sS,sS,mask-3.png,mask-2.png,s,1,1.1876439000188839,s,1,0.3507229999813717,0.048106999980518594,0.04996400000527501,0.09897069999715313,0.09925149998161942,0.7534502999915276
RSVPLG03,km,20260212-153055,1.0.2,20251113-095759,757,Experiment,Both,1,Automatic,main,41,20260212-153533,global,local,750,S,H,E,E,S-E.png,E-H.png,sS,hH,mask-2.png,mask-3.png,s,1,1.1332594999985304,h,1,0.1579992999904789,0.04975810000905767,0.04909149999730289,0.10119240000494756,0.0991541999974288,0.7537666000134777
RSVPLG03,km,20260212-153055,1.0.2,20251113-095759,757,Experiment,Both,1,Automatic,main,42,20260212-153538,global,local,300,S,H,A,A,S-A.png,A-H.png,sS,hH,mask-2.png,mask-2.png,s,1,1.2356428999919444,h,1,0.08130220000748523,0.05069199998979457,0.050249499996425584,0.10234650000347756,0.10031889998936094,0.30233370000496507
RSVPLG03,km,20260212-153055,1.0.2,20251113-095759,757,Experiment,Both,1,Automatic,main,43,20260212-153543,local,global,750,H,H,A,A,A-H.png,H-A.png,hH,hH,mask-1.png,mask-4.png,h,1,1.0095641000079922,s,0,0.09815769997658208,0.048945699993055314,0.05101050002849661,0.0988597999967169,0.10134730002027936,0.7532812999852467
RSVPLG03,km,20260212-153055,1.0.2,20251113-095759,757,Experiment,Both,1,Automatic,main,44,20260212-153549,local,local,300,H,H,A,A,A-H.png,A-H.png,hH,hH,mask-4.png,mask-1.png,h,1,3.4393754999910016,s,0,0.32169969999813475,0.05036890000337735,0.05123240000102669,0.1005357000103686,0.1017920000012964,0.299609200010309
RSVPLG03,km,20260212-153055,1.0.2,20251113-095759,757,Experiment,Both,1,Automatic,main,45,20260212-153556,local,local,300,H,H,E,E,E-H.png,E-H.png,hH,hH,mask-2.png,mask-3.png,h,1,0.9907436000066809,h,1,0.3008912999939639,0.05067929998040199,0.049776700005168095,0.10025899999891408,0.09797420000541024,0.3035350999853108
RSVPLG03,km,20260212-153055,1.0.2,20251113-095759,757,Experiment,Both,1,Automatic,main,46,20260212-153601,local,global,300,S,H,A,A,A-S.png,H-A.png,sS,hH,mask-1.png,mask-1.png,s,1,0.6511993999883998,h,1,0.32127289997879416,0.04896379998535849,0.051455600012559444,0.10003739999956451,0.1015219000109937,0.3007849999994505
RSVPLG03,km,20260212-153055,1.0.2,20251113-095759,757,Experiment,Both,1,Automatic,main,47,20260212-153606,local,local,750,S,S,E,E,E-S.png,E-S.png,sS,sS,mask-1.png,mask-1.png,s,1,0.42523809999693185,s,1,0.9918639000097755,0.051716400019358844,0.0510210000211373,0.10263130001840182,0.10152369999559596,0.7541708000062499
RSVPLG03,km,20260212-153055,1.0.2,20251113-095759,757,Experiment,Both,1,Automatic,main,48,20260212-153611,global,local,750,H,S,E,A,H-E.png,A-S.png,hH,sS,mask-2.png,mask-4.png,h,1,1.4034070000052452,s,1,0.241858699999284,0.04878499999176711,0.04882360002375208,0.10085599997546524,0.10013750000507571,0.7534942999773193
RSVPLG03,km,20260212-153055,1.0.2,20251113-095759,757,Experiment,Both,1,Automatic,main,49,20260212-153617,global,local,750,H,S,A,A,H-A.png,A-S.png,hH,sS,mask-2.png,mask-4.png,h,1,0.9393533000256866,h,0,0.19426970000495203,0.050389899988658726,0.05216829999699257,0.10050390000105835,0.10273870002129115,0.7532992999767885
RSVPLG03,km,20260212-153055,1.0.2,20251113-095759,757,Experiment,Both,1,Automatic,main,50,20260212-153623,local,local,750,H,S,A,E,A-H.png,E-S.png,hH,sS,mask-2.png,mask-3.png,h,1,1.8599238000169862,s,1,0.27443099999800324,0.050547299993922934,0.050849399995058775,0.10068319999845698,0.10091559999273159,0.753615900001023
RSVPLG03,km,20260212-153055,1.0.2,20251113-095759,757,Experiment,Both,1,Automatic,main,51,20260212-153705,local,global,300,S,H,A,E,A-S.png,H-E.png,sS,hH,mask-3.png,mask-2.png,s,1,0.8611509999900591,h,1,0.3191487999865785,0.04915330000221729,0.049801900022430345,0.10017779999179766,0.10137680001207627,0.3009244999848306
RSVPLG03,km,20260212-153055,1.0.2,20251113-095759,757,Experiment,Both,1,Automatic,main,52,20260212-153710,local,global,750,S,S,A,A,A-S.png,S-A.png,sS,sS,mask-4.png,mask-3.png,s,1,0.5447277999774087,s,1,0.8825091000180691,0.05004600001848303,0.05315809999592602,0.10172820001025684,0.10188190001645125,0.752740800002357
RSVPLG03,km,20260212-153055,1.0.2,20251113-095759,757,Experiment,Both,1,Automatic,main,53,20260212-153715,local,global,300,S,S,A,A,A-S.png,S-A.png,sS,sS,mask-3.png,mask-2.png,s,1,0.69585879999795,h,0,0.30515050000394695,0.05070490000071004,0.050354400009382516,0.10048689998802729,0.10147069999948144,0.30108109998400323
RSVPLG03,km,20260212-153055,1.0.2,20251113-095759,757,Experiment,Both,1,Automatic,main,54,20260212-153720,global,local,750,S,S,A,E,S-A.png,E-S.png,sS,sS,mask-2.png,mask-4.png,s,1,0.9462445999961346,s,1,0.22312849998706952,0.0513525000133086,0.05006079998565838,0.10129560000495985,0.10045070000342093,0.7555503000039607
RSVPLG03,km,20260212-153055,1.0.2,20251113-095759,757,Experiment,Both,1,Automatic,main,55,20260212-153725,local,local,750,H,H,A,E,A-H.png,E-H.png,hH,hH,mask-4.png,mask-1.png,h,1,0.9687138000153936,h,1,0.2183880999800749,0.04966140000033192,0.050656700012041256,0.09963040001457557,0.10006920000887476,0.7537444999907166
RSVPLG03,km,20260212-153055,1.0.2,20251113-095759,757,Experiment,Both,1,Automatic,main,56,20260212-153731,local,local,300,H,S,A,A,A-H.png,A-S.png,hH,sS,mask-4.png,mask-1.png,h,1,1.1993768000102136,s,1,0.20874370000092313,0.050135199999203905,0.05108519998611882,0.10077360001741908,0.10014249998494051,0.3017841000109911
RSVPLG03,km,20260212-153055,1.0.2,20251113-095759,757,Experiment,Both,1,Automatic,main,57,20260212-153736,local,local,300,H,S,E,E,E-H.png,E-S.png,hH,sS,mask-4.png,mask-1.png,h,1,1.160046200006036,s,1,0.12375560001237318,0.04963409999618307,0.04782340000383556,0.09985090000554919,0.09987309999996796,0.30248879999271594
RSVPLG03,km,20260212-153055,1.0.2,20251113-095759,757,Experiment,Both,1,Automatic,main,58,20260212-153741,local,local,300,S,H,E,E,E-S.png,E-H.png,sS,hH,mask-2.png,mask-4.png,s,1,0.5214398000098299,h,1,0.269501400005538,0.0499058999994304,0.04888310001115315,0.09952829999383539,0.10002670000540093,0.30065240000840276
RSVPLG03,km,20260212-153055,1.0.2,20251113-095759,757,Experiment,Both,1,Automatic,main,59,20260212-153745,local,local,750,S,H,E,E,E-S.png,E-H.png,sS,hH,mask-4.png,mask-4.png,s,1,1.0709461999940686,h,1,0.16181109999888577,0.05150190001586452,0.04935250000562519,0.10219320000032894,0.10017030002200045,0.7551518999971449
RSVPLG03,km,20260212-153055,1.0.2,20251113-095759,757,Experiment,Both,1,Automatic,main,60,20260212-153751,global,local,300,H,H,A,A,H-A.png,A-H.png,hH,hH,mask-4.png,mask-1.png,h,1,1.39659320001374,s,0,0.08150609998847358,0.05126750000636093,0.048653700010618195,0.10024989998782985,0.09958420001203194,0.3042434999952093
RSVPLG03,km,20260212-153055,1.0.2,20251113-095759,757,Experiment,Both,1,Automatic,main,61,20260212-153756,global,global,300,H,H,A,A,H-A.png,H-A.png,hH,hH,mask-1.png,mask-3.png,h,1,1.6018101000227034,s,0,0.268106200004695,0.04945259998203255,0.05106800000066869,0.10118729999521747,0.10132829999201931,0.3004101999977138
RSVPLG03,km,20260212-153055,1.0.2,20251113-095759,757,Experiment,Both,1,Automatic,main,62,20260212-153802,local,local,300,S,H,A,A,A-S.png,A-H.png,sS,hH,mask-4.png,mask-4.png,s,1,0.7780242000008002,h,1,0.9050258000206668,0.05040600002394058,0.050421400024788454,0.10054310000850819,0.10045590001391247,0.30202319999807514
RSVPLG03,km,20260212-153055,1.0.2,20251113-095759,757,Experiment,Both,1,Automatic,main,63,20260212-153807,local,local,750,S,S,E,E,E-S.png,E-S.png,sS,sS,mask-3.png,mask-2.png,s,1,0.9739955000113696,s,1,0.2216659000259824,0.049316100019495934,0.04898890000185929,0.09973600000375882,0.09994609997374937,0.7535500000230968
RSVPLG03,km,20260212-153055,1.0.2,20251113-095759,757,Experiment,Both,1,Automatic,main,64,20260212-153812,global,local,750,S,H,A,A,S-A.png,A-H.png,sS,hH,mask-4.png,mask-3.png,s,1,1.0667954999953508,h,1,0.4793675999972038,0.049407900020014495,0.05074020000756718,0.10062630000174977,0.10085930000059307,0.752733300003456
RSVPLG03,km,20260212-153055,1.0.2,20251113-095759,757,Experiment,Both,1,Automatic,main,65,20260212-153818,local,global,750,H,H,E,E,E-H.png,H-E.png,hH,hH,mask-2.png,mask-4.png,h,1,1.6692708000191487,h,1,0.20911540000815876,0.050231500004883856,0.05060620000585914,0.09952909999992698,0.10168820002581924,0.7526232999807689
RSVPLG03,km,20260212-153055,1.0.2,20251113-095759,757,Experiment,Both,1,Automatic,main,66,20260212-153824,global,global,300,H,S,A,A,H-A.png,S-A.png,hH,sS,mask-1.png,mask-1.png,h,1,0.8549956000060774,s,1,0.3669162000005599,0.0514297999907285,0.05145480000646785,0.10021149998647161,0.10080179999931715,0.3014105999900494
RSVPLG03,km,20260212-153055,1.0.2,20251113-095759,757,Experiment,Both,1,Automatic,main,67,20260212-153829,local,local,300,S,H,E,E,E-S.png,E-H.png,sS,hH,mask-3.png,mask-1.png,s,1,0.5895710999902803,h,1,0.2737872999859974,0.04894149999017827,0.05098940001334995,0.10114649997558445,0.10122820001561195,0.30038559998502024
RSVPLG03,km,20260212-153055,1.0.2,20251113-095759,757,Experiment,Both,1,Automatic,main,68,20260212-153834,local,local,750,S,S,A,E,A-S.png,E-S.png,sS,sS,mask-3.png,mask-1.png,s,1,0.6377781999763101,s,1,0.2908700999978464,0.04923649999545887,0.048895299987634644,0.10089619999052957,0.09985890000825748,0.7543389000056777
RSVPLG03,km,20260212-153055,1.0.2,20251113-095759,757,Experiment,Both,1,Automatic,main,69,20260212-153839,global,local,300,S,S,A,E,S-A.png,E-S.png,sS,sS,mask-4.png,mask-2.png,s,1,1.1461618000175804,s,1,0.21716830000514165,0.04965329999686219,0.0503067999961786,0.09930559998610988,0.10024159998283722,0.3004304000060074
RSVPLG03,km,20260212-153055,1.0.2,20251113-095759,757,Experiment,Both,1,Automatic,main,70,20260212-153844,local,global,750,S,H,A,E,A-S.png,H-E.png,sS,hH,mask-2.png,mask-1.png,s,1,0.986977399996249,h,1,0.21069430001080036,0.05001320000155829,0.05159819999244064,0.10145889999694191,0.10048559997812845,0.753156000020681
RSVPLG03,km,20260212-153055,1.0.2,20251113-095759,757,Experiment,Both,1,Automatic,main,71,20260212-153849,global,global,750,H,H,A,A,H-A.png,H-A.png,hH,hH,mask-3.png,mask-2.png,h,1,1.0791563999955542,h,1,0.32142570000723936,0.048035699990577996,0.05003280000528321,0.09929149999516085,0.10095039999578148,0.7522447000083048
RSVPLG03,km,20260212-153055,1.0.2,20251113-095759,757,Experiment,Both,1,Automatic,main,72,20260212-153855,global,local,300,H,S,A,A,H-A.png,A-S.png,hH,sS,mask-2.png,mask-1.png,h,1,0.5784112999972422,s,1,0.3627433000074234,0.05174480000277981,0.04906779999146238,0.10253399997600354,0.09817869999096729,0.3034703999874182
RSVPLG03,km,20260212-153055,1.0.2,20251113-095759,757,Experiment,Both,1,Automatic,main,73,20260212-153900,local,global,750,H,H,E,E,E-H.png,H-E.png,hH,hH,mask-2.png,mask-2.png,s,0,1.2706703999720048,h,1,0.33080289998906665,0.051384099991992116,0.049958799994783476,0.10192129999632016,0.10207140000420623,0.7539148000068963
RSVPLG03,km,20260212-153055,1.0.2,20251113-095759,757,Experiment,Both,1,Automatic,main,74,20260212-153905,local,local,300,S,H,E,A,E-S.png,A-H.png,sS,hH,mask-3.png,mask-4.png,s,1,0.8464198000147007,h,1,0.305711799999699,0.05076129999361001,0.050877500005299225,0.09930989998974837,0.10117539999191649,0.3001550000044517
RSVPLG03,km,20260212-153055,1.0.2,20251113-095759,757,Experiment,Both,1,Automatic,main,75,20260212-153910,global,global,300,H,S,E,E,H-E.png,S-E.png,hH,sS,mask-4.png,mask-2.png,h,1,1.7494734000065364,s,1,0.19313010000041686,0.050815099995816126,0.0506638000078965,0.10027349999290891,0.10088380001252517,0.3007144999864977
RSVPLG03,km,20260212-153055,1.0.2,20251113-095759,757,Experiment,Both,1,Automatic,main,76,20260212-153924,local,global,750,H,S,E,A,E-H.png,S-A.png,hH,sS,mask-2.png,mask-1.png,h,1,0.7807124000100885,h,0,0.9780929000116885,0.05101060000015423,0.05068970000138506,0.1022475000063423,0.10025700001278892,0.754820700007258
RSVPLG03,km,20260212-153055,1.0.2,20251113-095759,757,Experiment,Both,1,Automatic,main,77,20260212-153930,local,local,300,S,S,E,E,E-S.png,E-S.png,sS,sS,mask-4.png,mask-3.png,s,1,1.203976100019645,s,1,0.29564720002235845,0.04995529999723658,0.04960259998915717,0.10073850001208484,0.10078779998002574,0.30307670001639053
RSVPLG03,km,20260212-153055,1.0.2,20251113-095759,757,Experiment,Both,1,Automatic,main,78,20260212-153935,local,local,750,H,S,E,A,E-H.png,A-S.png,hH,sS,mask-4.png,mask-2.png,h,1,2.3344973000057507,s,1,0.3699827999807894,0.04972599999746308,0.05018240000936203,0.0996852999960538,0.10185139998793602,0.7524918999988586
RSVPLG03,km,20260212-153055,1.0.2,20251113-095759,757,Experiment,Both,1,Automatic,main,79,20260212-153942,local,global,300,S,S,A,A,A-S.png,S-A.png,sS,sS,mask-1.png,mask-2.png,s,1,1.159992799977772,h,0,0.30451689998153597,0.054240800003753975,0.05134199999156408,0.10054370001307689,0.10274160001426935,0.30060620000585914
RSVPLG03,km,20260212-153055,1.0.2,20251113-095759,757,Experiment,Both,1,Automatic,main,80,20260212-153947,global,global,300,S,S,E,A,S-E.png,S-A.png,sS,sS,mask-3.png,mask-1.png,s,1,0.9182365000015125,s,1,0.3168147999967914,0.051385700004175305,0.05053909998969175,0.10099659999832511,0.1009009999979753,0.30264350000652485
RSVPLG03,km,20260212-153055,1.0.2,20251113-095759,757,Experiment,Both,1,Automatic,main,81,20260212-153952,local,global,750,S,S,E,E,E-S.png,S-E.png,sS,sS,mask-4.png,mask-2.png,s,1,1.3922972999862395,h,0,0.2897441999812145,0.04860990002634935,0.05038810000405647,0.10092740002437495,0.09861690000980161,0.7535707000060938
RSVPLG03,km,20260212-153055,1.0.2,20251113-095759,757,Experiment,Both,1,Automatic,main,82,20260212-153958,local,local,750,S,H,A,E,A-S.png,E-H.png,sS,hH,mask-1.png,mask-1.png,s,1,2.0886197999934666,h,1,0.01784129999577999,0.05083200000808574,0.04974030001903884,0.1009417999885045,0.10089750000042841,0.7548794999893289
RSVPLG03,km,20260212-153055,1.0.2,20251113-095759,757,Experiment,Both,1,Automatic,main,83,20260212-154005,global,local,750,S,H,A,E,S-A.png,E-H.png,sS,hH,mask-1.png,mask-1.png,s,1,1.1517644999839831,s,0,0.3871006999979727,0.05042760001379065,0.050277600006666034,0.10220309998840094,0.101492000016151,0.7534348999906797
RSVPLG03,km,20260212-153055,1.0.2,20251113-095759,757,Experiment,Both,1,Automatic,main,84,20260212-154010,global,local,300,H,H,E,E,H-E.png,E-H.png,hH,hH,mask-1.png,mask-1.png,h,1,1.1840179999999236,h,1,0.286800800007768,0.05209080001804978,0.04996900001424365,0.0994776000152342,0.10200620000250638,0.30086089999531396
RSVPLG03,km,20260212-153055,1.0.2,20251113-095759,757,Experiment,Both,1,Automatic,main,85,20260212-154016,global,global,750,S,H,E,E,S-E.png,H-E.png,sS,hH,mask-3.png,mask-1.png,s,1,0.9901214000128675,h,1,0.3696369999961462,0.049560600018594414,0.050547100021503866,0.09954419999849051,0.10011220001615584,0.753700100001879
RSVPLG03,km,20260212-153055,1.0.2,20251113-095759,757,Experiment,Both,1,Automatic,main,86,20260212-154021,local,global,750,H,S,E,E,E-H.png,S-E.png,hH,sS,mask-3.png,mask-2.png,h,1,2.996523400011938,h,0,0.4164347000187263,0.05048120001447387,0.050246300001163036,0.10027769999578595,0.10001970001030713,0.753057699999772
RSVPLG03,km,20260212-153055,1.0.2,20251113-095759,757,Experiment,Both,1,Automatic,main,87,20260212-154029,local,global,750,H,S,E,E,E-H.png,S-E.png,hH,sS,mask-4.png,mask-2.png,h,1,1.2259757000138052,h,0,0.7699448999774177,0.05071959999622777,0.05057320001651533,0.10021689999848604,0.10136850000708364,0.7535147999878973
RSVPLG03,km,20260212-153055,1.0.2,20251113-095759,757,Experiment,Both,1,Automatic,main,88,20260212-154035,global,local,750,S,H,E,A,S-E.png,A-H.png,sS,hH,mask-1.png,mask-3.png,s,1,1.6059203000040725,h,1,0.6260311999940313,0.04798339999979362,0.04829989999416284,0.09980300001916476,0.09952639997936785,0.7539730000135023
RSVPLG03,km,20260212-153055,1.0.2,20251113-095759,757,Experiment,Both,1,Automatic,main,89,20260212-154041,local,local,750,H,S,A,E,A-H.png,E-S.png,hH,sS,mask-3.png,mask-3.png,h,1,0.6703211999847554,s,1,0.42709079998894595,0.05236169998534024,0.05148409999674186,0.10134719999041408,0.09982889998354949,0.7542883999994956
RSVPLG03,km,20260212-153055,1.0.2,20251113-095759,757,Experiment,Both,1,Automatic,main,90,20260212-154046,global,global,300,H,H,A,A,H-A.png,H-A.png,hH,hH,mask-1.png,mask-3.png,h,1,0.7310208999842871,h,1,0.32267950000823475,0.04882919997908175,0.048092100012581795,0.09861570000066422,0.09815579999121837,0.30246929998975247
RSVPLG03,km,20260212-153055,1.0.2,20251113-095759,757,Experiment,Both,1,Automatic,main,91,20260212-154051,global,global,750,H,S,A,A,H-A.png,S-A.png,hH,sS,mask-2.png,mask-3.png,h,1,0.4963061999878846,s,1,0.26453030001721345,0.048541199997998774,0.04847999999765307,0.09950819998630323,0.09982199998921715,0.7533910000056494
RSVPLG03,km,20260212-153055,1.0.2,20251113-095759,757,Experiment,Both,1,Automatic,main,92,20260212-154056,global,global,750,H,S,E,A,H-E.png,S-A.png,hH,sS,mask-3.png,mask-1.png,h,1,0.4306227999913972,s,1,0.2900939999963157,0.05092169999261387,0.05096600000979379,0.1022577999974601,0.101299600006314,0.7544524999975692
RSVPLG03,km,20260212-153055,1.0.2,20251113-095759,757,Experiment,Both,1,Automatic,main,93,20260212-154101,global,global,300,H,S,A,A,H-A.png,S-A.png,hH,sS,mask-2.png,mask-3.png,h,1,0.5259592999937013,s,1,0.2257462999841664,0.052174200012814254,0.04990369998267852,0.10123770000063814,0.10056279998389073,0.30133300001034513
RSVPLG03,km,20260212-153055,1.0.2,20251113-095759,757,Experiment,Both,1,Automatic,main,94,20260212-154106,global,local,300,S,S,E,A,S-E.png,A-S.png,sS,sS,mask-3.png,mask-3.png,s,1,0.9012890000012703,s,1,0.2648498000053223,0.05021740001393482,0.05009179998887703,0.10146910001640208,0.10159470001235604,0.3016609000042081
RSVPLG03,km,20260212-153055,1.0.2,20251113-095759,757,Experiment,Both,1,Automatic,main,95,20260212-154111,local,global,300,H,S,A,A,A-H.png,S-A.png,hH,sS,mask-2.png,mask-3.png,h,1,1.3412988999916706,s,1,0.3469838000019081,0.05057190000661649,0.04892810000455938,0.09980669998913072,0.10282130000996403,0.3011285999964457
RSVPLG03,km,20260212-153055,1.0.2,20251113-095759,757,Experiment,Both,1,Automatic,main,96,20260212-154116,global,global,750,H,H,E,E,H-E.png,H-E.png,hH,hH,mask-4.png,mask-2.png,h,1,1.1730760000064038,h,1,0.28828050001175143,0.049998799979221076,0.049410899984650314,0.09990010000183247,0.09873629998764955,0.7555222999944817
RSVPLG03,km,20260212-153055,1.0.2,20251113-095759,757,Experiment,Both,1,Automatic,main,97,20260212-154122,global,global,750,H,H,E,A,H-E.png,H-A.png,hH,hH,mask-3.png,mask-3.png,h,1,0.4407037000055425,h,1,0.32063859998015687,0.05071349997888319,0.04929249998531304,0.10188949998700991,0.1006772999826353,0.7543195000034757
RSVPLG03,km,20260212-153055,1.0.2,20251113-095759,757,Experiment,Both,1,Automatic,main,98,20260212-154127,global,local,300,H,H,A,A,H-A.png,A-H.png,hH,hH,mask-4.png,mask-3.png,h,1,1.1873979999800213,s,0,0.27942690000054426,0.05009399997652508,0.05175669997697696,0.10107479998259805,0.10166309998021461,0.3015878000005614
RSVPLG03,km,20260212-153055,1.0.2,20251113-095759,757,Experiment,Both,1,Automatic,main,99,20260212-154132,global,local,750,S,H,A,A,S-A.png,A-H.png,sS,hH,mask-3.png,mask-2.png,h,0,4.006703399994876,s,0,1.0209238000097685,0.050026999990222976,0.050588499987497926,0.10125340000377037,0.0997155999939423,0.7550921000074595
RSVPLG03,km,20260212-153055,1.0.2,20251113-095759,757,Experiment,Both,1,Automatic,main,100,20260212-154141,global,local,300,H,H,A,A,H-A.png,A-H.png,hH,hH,mask-3.png,mask-2.png,h,1,0.9949537999927998,h,1,1.4418012999813072,0.05039099999703467,0.049997399997664616,0.10108739999122918,0.10161109999171458,0.3018669000011869
