exp,exp_initials,runtime,ver,modtime,sub,blocktype,targets,cuetype,mode,trialtype,trial,trialtime,t1_level,t2_level,t2_lag,t1,t2,distractor1,distractor2,stimfile1,stimfile2,t1_corr,t2_corr,maskfile1,maskfile2,t1_resp,t1_acc,t1_rt,t2_resp,t2_acc,t2_rt,t1_dur,t2_dur,t1mask_soa,t2mask_soa,t1t2_soa
RSVPLG03,cs,20260304-133850,1.0.2,20251105-084826,784,Introduction,T1,1,Automatic,main,1,20260304-133911,global,local,750,H,H,E,E,H-E.png,E-H.png,hH,hH,mask-4.png,mask-2.png,h,1,1.9687440999550745,none,-5,0,0.09690719994250685,0.0981602999381721,0.19999869994353503,0.2001185999251902,0.7505837000207976
RSVPLG03,cs,20260304-133850,1.0.2,20251105-084826,784,Introduction,T1,1,Automatic,main,2,20260304-133917,local,global,750,H,S,A,A,A-H.png,S-A.png,hH,sS,mask-4.png,mask-2.png,h,1,2.4933228000300005,none,-5,0,0.09687240002676845,0.09788520005531609,0.20030829997267574,0.2012133999960497,0.7492480999790132
RSVPLG03,cs,20260304-133850,1.0.2,20251105-084826,784,Introduction,T1,1,Automatic,main,3,20260304-133924,global,global,750,S,S,A,A,S-A.png,S-A.png,sS,sS,mask-3.png,mask-4.png,s,1,1.7883838000707328,none,-5,0,0.09761689999140799,0.09788080002181232,0.1999929000157863,0.2002335999859497,0.7499776999466121
RSVPLG03,cs,20260304-133850,1.0.2,20251105-084826,784,Introduction,T1,1,Automatic,main,4,20260304-133930,local,global,750,H,S,A,A,A-H.png,S-A.png,hH,sS,mask-4.png,mask-1.png,s,0,0.826771300053224,none,-5,0,0.09623480006121099,0.09607289999257773,0.19913540000561625,0.19958279991988093,0.7511245000641793
RSVPLG03,cs,20260304-133850,1.0.2,20251105-084826,784,Introduction,T1,1,Automatic,main,5,20260304-133935,global,local,750,H,S,A,A,H-A.png,A-S.png,hH,sS,mask-2.png,mask-4.png,h,1,1.1676942999474704,none,-5,0,0.097894600010477,0.0976964000146836,0.19919800001662225,0.19930290000047535,0.7500298999948427
RSVPLG03,cs,20260304-133850,1.0.2,20251105-084826,784,Introduction,T1,1,Automatic,main,6,20260304-133940,global,global,750,H,H,E,E,H-E.png,H-E.png,hH,hH,mask-2.png,mask-1.png,h,1,1.0188296999549493,none,-5,0,0.09669299994129688,0.09838930005207658,0.2006925999885425,0.20021839998662472,0.7505149999633431
RSVPLG03,cs,20260304-133850,1.0.2,20251105-084826,784,Introduction,T1,1,Automatic,main,7,20260304-133945,local,local,750,H,S,A,A,A-H.png,A-S.png,hH,sS,mask-2.png,mask-3.png,h,1,0.6884780999971554,none,-5,0,0.09720309998374432,0.0981637000804767,0.1995005999924615,0.20012470008805394,0.7498197999084368
RSVPLG03,cs,20260304-133850,1.0.2,20251105-084826,784,Introduction,T1,1,Automatic,main,8,20260304-133950,local,local,750,H,H,E,A,E-H.png,A-H.png,hH,hH,mask-1.png,mask-3.png,none,-6,0,none,-5,0,0.09750679996795952,0.09849510004278272,0.2013942999765277,0.1994782000547275,0.7506267999997362
RSVPLG03,cs,20260304-134002,1.0.2,20251105-084826,784,Practice,T1,1,Automatic,main,1,20260304-134028,global,local,750,H,H,E,A,H-E.png,A-H.png,hH,hH,mask-3.png,mask-4.png,h,1,2.0929919000482187,none,-5,0,0.0397705000359565,0.045694899978116155,0.0919713000766933,0.09864960005506873,0.7428920000093058
RSVPLG03,cs,20260304-134002,1.0.2,20251105-084826,784,Practice,T1,1,Automatic,main,2,20260304-134035,local,local,300,H,H,A,E,A-H.png,E-H.png,hH,hH,mask-1.png,mask-3.png,h,1,0.6925419000908732,none,-5,0,0.04658660001587123,0.04761720006354153,0.0995063999434933,0.09945910004898906,0.3001704999478534
RSVPLG03,cs,20260304-134002,1.0.2,20251105-084826,784,Practice,T1,1,Automatic,main,3,20260304-134039,global,global,750,S,S,E,A,S-E.png,S-A.png,sS,sS,mask-1.png,mask-4.png,s,1,0.707292600069195,none,-5,0,0.04783330007921904,0.04771379998419434,0.10107940004672855,0.10147260001394898,0.7496917999815196
RSVPLG03,cs,20260304-134002,1.0.2,20251105-084826,784,Practice,T1,1,Automatic,main,4,20260304-134044,global,global,300,H,H,A,A,H-A.png,H-A.png,hH,hH,mask-1.png,mask-3.png,h,1,0.4556489000096917,none,-5,0,0.04719550011213869,0.04656079993583262,0.10132400004658848,0.09916869993321598,0.30173500010278076
RSVPLG03,cs,20260304-134002,1.0.2,20251105-084826,784,Practice,T1,1,Automatic,main,5,20260304-134048,global,global,300,S,S,A,E,S-A.png,S-E.png,sS,sS,mask-4.png,mask-3.png,s,1,0.9029219000367448,none,-5,0,0.047824100009165704,0.04854029999114573,0.10091869998723269,0.10069340001791716,0.3007660999428481
RSVPLG03,cs,20260304-134002,1.0.2,20251105-084826,784,Practice,T1,1,Automatic,main,6,20260304-134052,local,global,750,H,S,E,A,E-H.png,S-A.png,hH,sS,mask-2.png,mask-1.png,s,0,1.02149620000273,none,-5,0,0.047640200005844235,0.04742880002595484,0.10151040006894618,0.1004337000194937,0.7516725000459701
RSVPLG03,cs,20260304-134002,1.0.2,20251105-084826,784,Practice,T1,1,Automatic,main,7,20260304-134057,local,local,750,H,H,E,E,E-H.png,E-H.png,hH,hH,mask-2.png,mask-4.png,s,0,1.301281499909237,none,-5,0,0.0485804999480024,0.048772000009194016,0.09933719993568957,0.0999741000123322,0.7498080999357626
RSVPLG03,cs,20260304-134002,1.0.2,20251105-084826,784,Practice,T1,1,Automatic,main,8,20260304-134102,global,global,750,H,S,E,A,H-E.png,S-A.png,hH,sS,mask-1.png,mask-3.png,h,1,0.6367091999854892,none,-5,0,0.0476612999336794,0.04865309991873801,0.09902119997423142,0.10094119992572814,0.7490793999750167
RSVPLG03,cs,20260304-134002,1.0.2,20251105-084826,784,Practice,T1,1,Automatic,main,9,20260304-134107,local,global,300,H,H,A,E,A-H.png,H-E.png,hH,hH,mask-1.png,mask-2.png,h,1,0.9583748000441119,none,-5,0,0.047558900085277855,0.04752699995879084,0.09937599999830127,0.09955449996050447,0.3006433000555262
RSVPLG03,cs,20260304-134002,1.0.2,20251105-084826,784,Practice,T1,1,Automatic,main,10,20260304-134112,local,global,300,S,S,E,E,E-S.png,S-E.png,sS,sS,mask-3.png,mask-2.png,s,1,0.641481600003317,none,-5,0,0.046807600068859756,0.04785880004055798,0.09865470009390265,0.10100050002802163,0.29972220002673566
RSVPLG03,cs,20260304-134002,1.0.2,20251105-084826,784,Practice,T1,1,Automatic,main,11,20260304-134116,global,local,300,S,S,A,A,S-A.png,A-S.png,sS,sS,mask-3.png,mask-1.png,s,1,0.4201111000729725,none,-5,0,0.04752689995802939,0.04839809995610267,0.09964549995493144,0.10169779998250306,0.2989872000180185
RSVPLG03,cs,20260304-134002,1.0.2,20251105-084826,784,Practice,T1,1,Automatic,main,12,20260304-134120,local,local,750,S,H,A,A,A-S.png,A-H.png,sS,hH,mask-1.png,mask-2.png,s,1,0.8974409000948071,none,-5,0,0.04769589996431023,0.04691490007098764,0.10099159996025264,0.10017440002411604,0.7501640999689698
RSVPLG03,cs,20260304-134002,1.0.2,20251105-084826,784,Practice,T1,1,Automatic,main,13,20260304-134125,local,local,300,S,H,A,A,A-S.png,A-H.png,sS,hH,mask-4.png,mask-1.png,s,1,0.6771281000692397,none,-5,0,0.047153000021353364,0.04743499995674938,0.09933019999880344,0.1004249999532476,0.29962319997139275
RSVPLG03,cs,20260304-134002,1.0.2,20251105-084826,784,Practice,T1,1,Automatic,main,14,20260304-134129,global,local,750,H,S,A,A,H-A.png,A-S.png,hH,sS,mask-2.png,mask-1.png,h,1,0.4790617999387905,none,-5,0,0.046509700012393296,0.04769229993689805,0.09809149999637157,0.09990239993203431,0.7496102000586689
RSVPLG03,cs,20260304-134002,1.0.2,20251105-084826,784,Practice,T1,1,Automatic,main,15,20260304-134134,global,local,300,H,S,E,E,H-E.png,E-S.png,hH,sS,mask-1.png,mask-2.png,h,1,0.8504918999969959,none,-5,0,0.04570960009004921,0.04764360003173351,0.09797390003222972,0.09871389996260405,0.2999223000369966
RSVPLG03,cs,20260304-134002,1.0.2,20251105-084826,784,Practice,T1,1,Automatic,main,16,20260304-134138,local,global,750,S,S,A,E,A-S.png,S-E.png,sS,sS,mask-4.png,mask-1.png,s,1,0.6915197999915108,none,-5,0,0.04737000004388392,0.046959999948740005,0.10039800009690225,0.0984954999294132,0.7502387000713497
RSVPLG03,cs,20260304-134238,1.0.2,20251105-084826,784,Practice,Both,1,Automatic,main,1,20260304-134319,global,global,750,S,S,E,A,S-E.png,S-A.png,sS,sS,mask-1.png,mask-3.png,h,0,3.5139263999881223,s,1,3.0151242000283673,0.04788540001027286,0.04750470002181828,0.0999659999506548,0.1005142000503838,0.7492127999430522
RSVPLG03,cs,20260304-134238,1.0.2,20251105-084826,784,Practice,Both,1,Automatic,main,2,20260304-134330,local,local,300,S,H,A,E,A-S.png,E-H.png,sS,hH,mask-4.png,mask-1.png,s,1,1.997069999924861,h,1,0.666971700033173,0.048600399983115494,0.047198600019328296,0.10008949995972216,0.10005310003180057,0.3004633999662474
RSVPLG03,cs,20260304-134238,1.0.2,20251105-084826,784,Practice,Both,1,Automatic,main,3,20260304-134336,local,global,750,S,H,A,A,A-S.png,H-A.png,sS,hH,mask-3.png,mask-2.png,s,1,1.471776399994269,h,1,0.47930340003222227,0.046353799989447,0.047536299913190305,0.09834030002821237,0.09952419996261597,0.748356300056912
RSVPLG03,cs,20260304-134238,1.0.2,20251105-084826,784,Practice,Both,1,Automatic,main,4,20260304-134342,global,local,750,S,S,A,A,S-A.png,A-S.png,sS,sS,mask-3.png,mask-1.png,s,1,0.9325388000579551,h,0,0.5143340000649914,0.04586750001180917,0.047702700016088784,0.10003920004237443,0.09892400004900992,0.7492498999927193
RSVPLG03,cs,20260304-134238,1.0.2,20251105-084826,784,Practice,Both,1,Automatic,main,5,20260304-134348,global,global,750,H,H,A,E,H-A.png,H-E.png,hH,hH,mask-4.png,mask-1.png,s,0,1.2239792000036687,h,1,0.6131755000678822,0.04748079995624721,0.04698119999375194,0.09842309996020049,0.10000159998890013,0.74875659996178
RSVPLG03,cs,20260304-134238,1.0.2,20251105-084826,784,Practice,Both,1,Automatic,main,6,20260304-134354,global,global,300,S,S,E,E,S-E.png,S-E.png,sS,sS,mask-4.png,mask-4.png,h,0,0.8809263999573886,h,0,1.1883608000352979,0.04836060001980513,0.047339600045233965,0.10018980002496392,0.09928000008221716,0.30024969996884465
RSVPLG03,cs,20260304-134238,1.0.2,20251105-084826,784,Practice,Both,1,Automatic,main,7,20260304-134400,local,global,300,H,S,A,A,A-H.png,S-A.png,hH,sS,mask-3.png,mask-3.png,s,0,0.723341100034304,s,1,0.6790354999247938,0.0466530000558123,0.04673619999084622,0.09965099999681115,0.10084490000735968,0.2986793000018224
RSVPLG03,cs,20260304-134238,1.0.2,20251105-084826,784,Practice,Both,1,Automatic,main,8,20260304-134405,local,local,750,H,H,E,A,E-H.png,A-H.png,hH,hH,mask-1.png,mask-2.png,h,1,0.7127621000399813,h,1,0.7286546000977978,0.0461739000165835,0.047263899934478104,0.10026490001473576,0.10026219999417663,0.7487673000432551
RSVPLG03,cs,20260304-134238,1.0.2,20251105-084826,784,Practice,Both,1,Automatic,main,9,20260304-134410,global,global,300,H,H,A,A,H-A.png,H-A.png,hH,hH,mask-3.png,mask-2.png,h,1,1.3464027000591159,h,1,0.3700657000299543,0.04784499993547797,0.046378100058063865,0.1007231998955831,0.10027600009925663,0.30071459989994764
RSVPLG03,cs,20260304-134238,1.0.2,20251105-084826,784,Practice,Both,1,Automatic,main,10,20260304-134416,global,local,750,H,H,A,A,H-A.png,A-H.png,hH,hH,mask-2.png,mask-3.png,s,0,0.5538536999374628,h,1,0.2628458000253886,0.0487193000735715,0.0457189999287948,0.10073060006834567,0.09817040001507849,0.7512192000867799
RSVPLG03,cs,20260304-134238,1.0.2,20251105-084826,784,Practice,Both,1,Automatic,main,11,20260304-134421,global,local,300,H,H,E,E,H-E.png,E-H.png,hH,hH,mask-2.png,mask-2.png,h,1,0.8340086999814957,h,1,0.3282329000066966,0.046517099952325225,0.0484898000722751,0.1005509999813512,0.10054330003913492,0.2993303999537602
RSVPLG03,cs,20260304-134238,1.0.2,20251105-084826,784,Practice,Both,1,Automatic,main,12,20260304-134426,local,local,750,S,H,E,E,E-S.png,E-H.png,sS,hH,mask-4.png,mask-3.png,s,1,0.565690099960193,h,1,0.2996430000057444,0.04760070005431771,0.047721900045871735,0.09968470002058893,0.10071140003856272,0.7494701000396162
RSVPLG03,cs,20260304-134238,1.0.2,20251105-084826,784,Practice,Both,1,Automatic,main,13,20260304-134431,global,local,300,S,H,E,E,S-E.png,E-H.png,sS,hH,mask-3.png,mask-4.png,s,1,0.8600142999785021,h,1,0.2842631000094116,0.048499700031243265,0.04840859991963953,0.0998688000254333,0.09946769999805838,0.3002772000618279
RSVPLG03,cs,20260304-134238,1.0.2,20251105-084826,784,Practice,Both,1,Automatic,main,14,20260304-134435,local,global,300,H,S,E,E,E-H.png,S-E.png,hH,sS,mask-4.png,mask-1.png,h,1,0.9994145999662578,s,1,0.2795288000488654,0.047791399993002415,0.04849439999088645,0.09998820000328124,0.09972190007101744,0.2997628999873996
RSVPLG03,cs,20260304-134238,1.0.2,20251105-084826,784,Practice,Both,1,Automatic,main,15,20260304-134440,local,global,750,S,S,E,E,E-S.png,S-E.png,sS,sS,mask-2.png,mask-3.png,s,1,0.635427700006403,s,1,0.8749401000095531,0.04754810000304133,0.04729309992399067,0.09968860005028546,0.10081520001403987,0.7488568000262603
RSVPLG03,cs,20260304-134238,1.0.2,20251105-084826,784,Practice,Both,1,Automatic,main,16,20260304-134446,local,local,300,S,S,A,E,A-S.png,E-S.png,sS,sS,mask-4.png,mask-3.png,s,1,0.7858412000350654,h,0,0.5512572999577969,0.046407399931922555,0.047246000031009316,0.1003406000090763,0.10011709993705153,0.2987696999916807
RSVPLG03,cs,20260304-134510,1.0.2,20251105-084826,784,Practice,Both,1,Automatic,main,1,20260304-134549,global,global,300,S,S,A,A,S-A.png,S-A.png,sS,sS,mask-2.png,mask-1.png,s,1,1.4201648000162095,h,0,0.9917549999663606,0.03903450001962483,0.047628300031647086,0.09314780007116497,0.10010569996666163,0.2931891999905929
RSVPLG03,cs,20260304-134510,1.0.2,20251105-084826,784,Practice,Both,1,Automatic,main,2,20260304-134555,global,local,300,H,H,E,E,H-E.png,E-H.png,hH,hH,mask-3.png,mask-4.png,h,1,1.3030218000058085,h,1,1.4998677000403404,0.046992899966426194,0.045923100085929036,0.1000678000273183,0.09901490004267544,0.30196049995720387
RSVPLG03,cs,20260304-134510,1.0.2,20251105-084826,784,Practice,Both,1,Automatic,main,3,20260304-134602,local,local,750,H,H,E,A,E-H.png,A-H.png,hH,hH,mask-2.png,mask-3.png,h,1,0.5861611000727862,h,1,0.1002353000221774,0.047957099974155426,0.047546899993903935,0.10061119997408241,0.09959200001321733,0.7508980999700725
RSVPLG03,cs,20260304-134510,1.0.2,20251105-084826,784,Practice,Both,1,Automatic,main,4,20260304-134607,local,global,750,S,S,A,E,A-S.png,S-E.png,sS,sS,mask-3.png,mask-1.png,s,1,0.6191337000345811,s,1,0.28823159995954484,0.04871969996020198,0.04829720000270754,0.10083350003696978,0.10141020000446588,0.750995900016278
RSVPLG03,cs,20260304-134510,1.0.2,20251105-084826,784,Practice,Both,1,Automatic,main,5,20260304-134612,local,global,300,S,S,E,A,E-S.png,S-A.png,sS,sS,mask-1.png,mask-3.png,s,1,1.4013432000065222,s,1,0.9658479999052361,0.04756679991260171,0.04645129991695285,0.09968499990645796,0.09991689992602915,0.3008341999957338
RSVPLG03,cs,20260304-134510,1.0.2,20251105-084826,784,Practice,Both,1,Automatic,main,6,20260304-134618,local,local,300,S,H,A,A,A-S.png,A-H.png,sS,hH,mask-3.png,mask-2.png,s,1,0.6319771999260411,h,1,0.29959330009296536,0.045834099990315735,0.04729839996434748,0.09848299995064735,0.10023370000999421,0.2996474999235943
RSVPLG03,cs,20260304-134510,1.0.2,20251105-084826,784,Practice,Both,1,Automatic,main,7,20260304-134623,global,global,750,S,H,E,E,S-E.png,H-E.png,sS,hH,mask-3.png,mask-2.png,s,1,1.5463752000359818,h,1,0.2665212000720203,0.048158899997361004,0.04756510001607239,0.10017360001802444,0.10065290005877614,0.7501609999453649
RSVPLG03,cs,20260304-134510,1.0.2,20251105-084826,784,Practice,Both,1,Automatic,main,8,20260304-134629,global,local,750,H,H,E,E,H-E.png,E-H.png,hH,hH,mask-1.png,mask-2.png,h,1,0.7110534999519587,h,1,0.5222878999775276,0.045911099994555116,0.046877100015990436,0.0999629000434652,0.10101360001135617,0.7488673999905586
RSVPLG03,cs,20260304-134510,1.0.2,20251105-084826,784,Practice,Both,1,Automatic,main,9,20260304-134634,local,local,300,H,S,A,A,A-H.png,A-S.png,hH,sS,mask-3.png,mask-3.png,h,1,1.0457367999479175,s,1,0.25158379995264113,0.045924499980174005,0.04854299989528954,0.09899840003345162,0.10057969996705651,0.29925240005832165
RSVPLG03,cs,20260304-134510,1.0.2,20251105-084826,784,Practice,Both,1,Automatic,main,10,20260304-134639,global,local,300,H,H,A,E,H-A.png,E-H.png,hH,hH,mask-4.png,mask-4.png,h,1,1.5232252000132576,s,0,0.06543840002268553,0.04751210007816553,0.047431299928575754,0.09959030000027269,0.09957850002683699,0.299956800066866
RSVPLG03,cs,20260304-134510,1.0.2,20251105-084826,784,Practice,Both,1,Automatic,main,11,20260304-134644,local,local,750,H,S,A,A,A-H.png,A-S.png,hH,sS,mask-3.png,mask-2.png,h,1,0.6278264001011848,s,1,0.2654170000459999,0.04796730005182326,0.04770580003969371,0.10068729997146875,0.09997980005573481,0.7507166999857873
RSVPLG03,cs,20260304-134510,1.0.2,20251105-084826,784,Practice,Both,1,Automatic,main,12,20260304-134649,global,local,750,H,H,A,A,H-A.png,A-H.png,hH,hH,mask-1.png,mask-4.png,h,1,2.5968254999024794,h,1,0.08698319992981851,0.04707649990450591,0.046748300082981586,0.09926819999236614,0.09961350006051362,0.7496817999053746
RSVPLG03,cs,20260304-134510,1.0.2,20251105-084826,784,Practice,Both,1,Automatic,main,13,20260304-134656,global,global,300,S,H,A,E,S-A.png,H-E.png,sS,hH,mask-2.png,mask-1.png,s,1,0.7056821000296623,h,1,0.180853100027889,0.04714480007532984,0.04862060002051294,0.0994215999962762,0.10073199996259063,0.2992031000321731
RSVPLG03,cs,20260304-134510,1.0.2,20251105-084826,784,Practice,Both,1,Automatic,main,14,20260304-134701,global,global,750,S,S,A,E,S-A.png,S-E.png,sS,sS,mask-2.png,mask-4.png,s,1,0.8182416999479756,s,1,0.07132609991822392,0.0467461000662297,0.046900899964384735,0.10000089998356998,0.09915929997805506,0.7501293000532314
RSVPLG03,cs,20260304-134510,1.0.2,20251105-084826,784,Practice,Both,1,Automatic,main,15,20260304-134706,local,global,750,S,H,E,A,E-S.png,H-A.png,sS,hH,mask-2.png,mask-3.png,s,1,1.838625599979423,h,1,0.13248430006206036,0.04721959994640201,0.047039999975822866,0.1004767999984324,0.10002870007883757,0.7510640999535099
RSVPLG03,cs,20260304-134510,1.0.2,20251105-084826,784,Practice,Both,1,Automatic,main,16,20260304-134712,local,global,300,S,H,A,E,A-S.png,H-E.png,sS,hH,mask-4.png,mask-4.png,s,1,1.8582347000483423,h,1,0.1377002999652177,0.047166300006210804,0.047650699969381094,0.1001537999836728,0.09864059998653829,0.30050230002962053
RSVPLG03,cs,20260304-134811,1.0.2,20251105-084826,784,Experiment,Both,1,Automatic,warmup,1,20260304-134927,global,local,750,H,H,A,A,H-A.png,A-H.png,hH,hH,mask-1.png,mask-2.png,h,1,1.1770167000358924,h,1,0.3612746000289917,0.040341899963095784,0.04876379994675517,0.09348909999243915,0.10182129999157041,0.7429084000177681
RSVPLG03,cs,20260304-134811,1.0.2,20251105-084826,784,Experiment,Both,1,Automatic,warmup,2,20260304-134933,local,local,300,H,H,A,A,A-H.png,A-H.png,hH,hH,mask-4.png,mask-2.png,h,1,0.570827699964866,h,1,0.06622660008724779,0.04672850004862994,0.04542039998341352,0.09824770002160221,0.09780520002823323,0.30070030002389103
RSVPLG03,cs,20260304-134811,1.0.2,20251105-084826,784,Experiment,Both,1,Automatic,warmup,3,20260304-134937,local,global,750,S,S,E,A,E-S.png,S-A.png,sS,sS,mask-2.png,mask-2.png,s,1,0.4723660999443382,s,1,0.08638659992720932,0.047006199951283634,0.04753139999229461,0.10024980001617223,0.09965730004478246,0.7496027000015602
RSVPLG03,cs,20260304-134811,1.0.2,20251105-084826,784,Experiment,Both,1,Automatic,warmup,4,20260304-134942,local,global,300,H,S,E,A,E-H.png,S-A.png,hH,sS,mask-1.png,mask-3.png,s,0,1.0241693999851122,h,0,0.07118520000949502,0.04585709993261844,0.04730159998871386,0.09996149991638958,0.10044749989174306,0.29985720000695437
RSVPLG03,cs,20260304-134811,1.0.2,20251105-084826,784,Experiment,Both,1,Automatic,main,5,20260304-134947,global,global,750,H,H,A,A,H-A.png,H-A.png,hH,hH,mask-2.png,mask-3.png,h,1,1.6125252000056207,h,1,0.11364230001345277,0.04854129999876022,0.04740639997180551,0.1005810999777168,0.1007406999124214,0.7499726000241935
RSVPLG03,cs,20260304-134811,1.0.2,20251105-084826,784,Experiment,Both,1,Automatic,main,6,20260304-134952,local,local,750,H,H,A,A,A-H.png,A-H.png,hH,hH,mask-3.png,mask-2.png,h,1,0.6853537999559194,h,1,0.10797210002783686,0.047404800076037645,0.04661860002670437,0.09988410002551973,0.09983179997652769,0.7509203000226989
RSVPLG03,cs,20260304-134811,1.0.2,20251105-084826,784,Experiment,Both,1,Automatic,main,7,20260304-134957,local,local,750,H,S,A,A,A-H.png,A-S.png,hH,sS,mask-2.png,mask-4.png,h,1,0.6871080999262631,h,0,0.47369219991378486,0.047022499958984554,0.047443100018426776,0.09969579998869449,0.10031190002337098,0.7500403999583796
RSVPLG03,cs,20260304-134811,1.0.2,20251105-084826,784,Experiment,Both,1,Automatic,main,8,20260304-135003,local,global,300,H,H,A,E,A-H.png,H-E.png,hH,hH,mask-3.png,mask-3.png,h,1,0.8775597000494599,h,1,0.04960979998577386,0.04652689991053194,0.04586339998058975,0.09962579992134124,0.09952909999992698,0.30009359994437546
RSVPLG03,cs,20260304-134811,1.0.2,20251105-084826,784,Experiment,Both,1,Automatic,main,9,20260304-135007,local,global,300,S,S,E,A,E-S.png,S-A.png,sS,sS,mask-2.png,mask-4.png,s,1,0.724689400056377,s,1,0.07681090000551194,0.047732300008647144,0.04786769999191165,0.10081620002165437,0.10209229995962232,0.299080100026913
RSVPLG03,cs,20260304-134811,1.0.2,20251105-084826,784,Experiment,Both,1,Automatic,main,10,20260304-135012,global,local,750,S,S,A,A,S-A.png,A-S.png,sS,sS,mask-3.png,mask-2.png,s,1,0.6499747999478132,h,0,0.15766020002774894,0.04760349995922297,0.047646200051531196,0.09961019991897047,0.09996650007087737,0.7488453999394551
RSVPLG03,cs,20260304-134811,1.0.2,20251105-084826,784,Experiment,Both,1,Automatic,main,11,20260304-135016,local,local,300,S,S,E,E,E-S.png,E-S.png,sS,sS,mask-2.png,mask-4.png,s,1,0.7580483000492677,s,1,0.07241089991293848,0.04764050000812858,0.04852810001466423,0.09970050002448261,0.10058399999979883,0.29933840001467615
RSVPLG03,cs,20260304-134811,1.0.2,20251105-084826,784,Experiment,Both,1,Automatic,main,12,20260304-135021,local,global,750,S,H,E,A,E-S.png,H-A.png,sS,hH,mask-2.png,mask-2.png,s,1,0.45112240000162274,h,1,0.0791997000342235,0.046509600011631846,0.04865330003667623,0.09952539997175336,0.10069540003314614,0.7489539999514818
RSVPLG03,cs,20260304-134811,1.0.2,20251105-084826,784,Experiment,Both,1,Automatic,main,13,20260304-135026,global,local,300,S,S,A,A,S-A.png,A-S.png,sS,sS,mask-1.png,mask-4.png,s,1,1.077445000060834,h,0,0.06251469999551773,0.0475405000615865,0.046557199908420444,0.10053559998050332,0.0994634999660775,0.30174310004804283
RSVPLG03,cs,20260304-134811,1.0.2,20251105-084826,784,Experiment,Both,1,Automatic,main,14,20260304-135030,global,global,750,S,H,E,E,S-E.png,H-E.png,sS,hH,mask-3.png,mask-1.png,s,1,0.4910133999073878,h,1,0.1125587000278756,0.04771359998267144,0.046681800042279065,0.0997448000125587,0.09919830004218966,0.7503130999393761
RSVPLG03,cs,20260304-134811,1.0.2,20251105-084826,784,Experiment,Both,1,Automatic,main,15,20260304-135035,global,global,750,S,S,A,A,S-A.png,S-A.png,sS,sS,mask-2.png,mask-4.png,s,1,0.4491969000082463,s,1,0.058394000050611794,0.048598799970932305,0.04754629998933524,0.10065779997967184,0.09956600004807115,0.7509366000303999
RSVPLG03,cs,20260304-134811,1.0.2,20251105-084826,784,Experiment,Both,1,Automatic,main,16,20260304-135040,global,local,300,S,H,A,E,S-A.png,E-H.png,sS,hH,mask-1.png,mask-3.png,s,1,0.7507145000854507,h,1,0.023291099932976067,0.048505299957469106,0.04870009992737323,0.09975940000731498,0.10087460000067949,0.30013240000698715
RSVPLG03,cs,20260304-134811,1.0.2,20251105-084826,784,Experiment,Both,1,Automatic,main,17,20260304-135044,global,global,750,H,S,A,A,H-A.png,S-A.png,hH,sS,mask-3.png,mask-3.png,h,1,0.6684104999294505,s,1,0.23026199999731034,0.047760199988260865,0.04877750005107373,0.10001300007570535,0.0993053000420332,0.749193900031969
RSVPLG03,cs,20260304-134811,1.0.2,20251105-084826,784,Experiment,Both,1,Automatic,main,18,20260304-135049,local,global,300,H,H,A,E,A-H.png,H-E.png,hH,hH,mask-2.png,mask-2.png,h,1,1.794784100027755,s,0,0.04877740005031228,0.04752849997021258,0.04753169999457896,0.09975689998827875,0.09948899992741644,0.2999426000751555
RSVPLG03,cs,20260304-134811,1.0.2,20251105-084826,784,Experiment,Both,1,Automatic,main,19,20260304-135055,global,local,750,H,H,A,E,H-A.png,E-H.png,hH,hH,mask-1.png,mask-2.png,h,1,0.5609069000929594,h,1,0.2569136000238359,0.047173599945381284,0.04762470000423491,0.09924499993212521,0.09970120002981275,0.750240599969402
RSVPLG03,cs,20260304-134811,1.0.2,20251105-084826,784,Experiment,Both,1,Automatic,main,20,20260304-135100,global,local,300,H,S,A,E,H-A.png,E-S.png,hH,sS,mask-2.png,mask-1.png,h,1,0.7569305999204516,h,0,0.3721117000095546,0.049156200024299324,0.04754339996725321,0.10004539997316897,0.10056569997686893,0.301480200025253
RSVPLG03,cs,20260304-134811,1.0.2,20251105-084826,784,Experiment,Both,1,Automatic,main,21,20260304-135105,global,global,750,S,S,A,A,S-A.png,S-A.png,sS,sS,mask-2.png,mask-1.png,s,1,0.38206169998738915,s,1,0.09754790004808456,0.04563090007286519,0.048547200043685734,0.09806220000609756,0.10160389996599406,0.7483551000477746
RSVPLG03,cs,20260304-134811,1.0.2,20251105-084826,784,Experiment,Both,1,Automatic,main,22,20260304-135109,local,global,750,H,H,E,E,E-H.png,H-E.png,hH,hH,mask-1.png,mask-1.png,h,1,0.5277069000294432,s,0,0.08463800000026822,0.04752879997249693,0.04859329992905259,0.09970839996822178,0.10063919995445758,0.7489369000541046
RSVPLG03,cs,20260304-134811,1.0.2,20251105-084826,784,Experiment,Both,1,Automatic,main,23,20260304-135114,global,local,300,H,S,A,A,H-A.png,A-S.png,hH,sS,mask-2.png,mask-1.png,h,1,0.6239163998980075,s,1,0.06845350004732609,0.04768419999163598,0.04858119995333254,0.10105589998420328,0.10162149998359382,0.3001310999970883
RSVPLG03,cs,20260304-134811,1.0.2,20251105-084826,784,Experiment,Both,1,Automatic,main,24,20260304-135118,global,global,750,H,S,A,A,H-A.png,S-A.png,hH,sS,mask-3.png,mask-1.png,h,1,0.48109460005071014,s,1,0.18448069994337857,0.047210499993525445,0.04752290004398674,0.10009700001683086,0.09953630005475134,0.7510872000129893
RSVPLG03,cs,20260304-134811,1.0.2,20251105-084826,784,Experiment,Both,1,Automatic,main,25,20260304-135123,global,global,300,S,S,E,A,S-E.png,S-A.png,sS,sS,mask-1.png,mask-2.png,s,1,0.5498435999033973,h,0,0.03902809997089207,0.04641670000273734,0.04860290000215173,0.0994710000231862,0.10065789998043329,0.29896699998062104
RSVPLG03,cs,20260304-134811,1.0.2,20251105-084826,784,Experiment,Both,1,Automatic,main,26,20260304-135136,local,local,750,S,S,A,E,A-S.png,E-S.png,sS,sS,mask-2.png,mask-3.png,s,1,0.3197146999882534,h,0,0.03850099991541356,0.0475445999763906,0.04657000000588596,0.1005613999441266,0.09999080002307892,0.7499217999866232
RSVPLG03,cs,20260304-134811,1.0.2,20251105-084826,784,Experiment,Both,1,Automatic,main,27,20260304-135141,local,global,300,H,H,E,A,E-H.png,H-A.png,hH,hH,mask-1.png,mask-3.png,s,0,0.5340765999862924,h,1,0.02567330002784729,0.04841399996075779,0.04737399995792657,0.1013876999495551,0.09940679999999702,0.3015649999724701
RSVPLG03,cs,20260304-134811,1.0.2,20251105-084826,784,Experiment,Both,1,Automatic,main,28,20260304-135145,global,local,300,H,S,E,A,H-E.png,A-S.png,hH,sS,mask-3.png,mask-4.png,h,1,0.491409600013867,s,1,0.497559699928388,0.04762420000042766,0.04842350003309548,0.09884270001202822,0.0997629000339657,0.298668900039047
RSVPLG03,cs,20260304-134811,1.0.2,20251105-084826,784,Experiment,Both,1,Automatic,main,29,20260304-135150,local,global,750,H,H,A,E,A-H.png,H-E.png,hH,hH,mask-2.png,mask-2.png,h,1,0.5142763999756426,h,1,0.1023636000463739,0.04766869999002665,0.047626800020225346,0.10012860002461821,0.09960640000645071,0.7502450000029057
RSVPLG03,cs,20260304-134811,1.0.2,20251105-084826,784,Experiment,Both,1,Automatic,main,30,20260304-135155,global,local,300,H,H,A,A,H-A.png,A-H.png,hH,hH,mask-3.png,mask-2.png,h,1,0.6767814999911934,s,0,0.17553999996744096,0.04761920007877052,0.04722619999665767,0.09982620005030185,0.10042869998142123,0.2990805000299588
RSVPLG03,cs,20260304-134811,1.0.2,20251105-084826,784,Experiment,Both,1,Automatic,main,31,20260304-135159,global,global,300,S,H,E,E,S-E.png,H-E.png,sS,hH,mask-4.png,mask-2.png,h,0,0.6661689999746159,s,0,0.17620629991870373,0.04807349992915988,0.04687039996497333,0.10183519998099655,0.09964130003936589,0.3017438999377191
RSVPLG03,cs,20260304-134811,1.0.2,20251105-084826,784,Experiment,Both,1,Automatic,main,32,20260304-135204,local,local,300,S,S,E,A,E-S.png,A-S.png,sS,sS,mask-1.png,mask-2.png,s,1,0.5332077000057325,s,1,0.8803728999337181,0.04755759995896369,0.04661989992018789,0.09961819997988641,0.0995506999315694,0.3002912000520155
RSVPLG03,cs,20260304-134811,1.0.2,20251105-084826,784,Experiment,Both,1,Automatic,main,33,20260304-135209,local,local,300,S,H,E,E,E-S.png,E-H.png,sS,hH,mask-3.png,mask-2.png,s,1,0.5204328000545502,h,1,0.13121669995598495,0.047277500038035214,0.04866100009530783,0.10041860002093017,0.1007677000015974,0.29925179993733764
RSVPLG03,cs,20260304-134811,1.0.2,20251105-084826,784,Experiment,Both,1,Automatic,main,34,20260304-135213,local,local,750,S,H,A,A,A-S.png,A-H.png,sS,hH,mask-1.png,mask-1.png,h,0,1.3756729000015184,s,0,0.01828139997087419,0.04681829991750419,0.04765580000821501,0.09947659994941205,0.10084279999136925,0.7499231999972835
RSVPLG03,cs,20260304-134811,1.0.2,20251105-084826,784,Experiment,Both,1,Automatic,main,35,20260304-135219,local,global,300,S,S,A,E,A-S.png,S-E.png,sS,sS,mask-1.png,mask-1.png,s,1,0.3906778999371454,h,0,0.028909899992868304,0.047492400044575334,0.04737869999371469,0.10050100006628782,0.10043180000502616,0.29954330006148666
RSVPLG03,cs,20260304-134811,1.0.2,20251105-084826,784,Experiment,Both,1,Automatic,main,36,20260304-135223,local,local,750,S,S,E,A,E-S.png,A-S.png,sS,sS,mask-2.png,mask-2.png,s,1,0.42612680001184344,h,0,0.10119289997965097,0.04751500010024756,0.04512940009590238,0.10064120008610189,0.09829039999749511,0.7512089000083506
RSVPLG03,cs,20260304-134811,1.0.2,20251105-084826,784,Experiment,Both,1,Automatic,main,37,20260304-135227,local,global,300,H,S,A,E,A-H.png,S-E.png,hH,sS,mask-2.png,mask-3.png,h,1,0.6541297999210656,s,1,0.017119200085289776,0.04755020001903176,0.04756279999855906,0.0996076000155881,0.09858500002883375,0.2997833000263199
RSVPLG03,cs,20260304-134811,1.0.2,20251105-084826,784,Experiment,Both,1,Automatic,main,38,20260304-135232,local,local,300,H,H,A,E,A-H.png,E-H.png,hH,hH,mask-4.png,mask-4.png,h,1,0.7110644999193028,s,0,0.08002250001300126,0.04627289995551109,0.04568430001381785,0.09953419992234558,0.09892699995543808,0.30046759999822825
RSVPLG03,cs,20260304-134811,1.0.2,20251105-084826,784,Experiment,Both,1,Automatic,main,39,20260304-135236,local,global,750,H,H,A,A,A-H.png,H-A.png,hH,hH,mask-2.png,mask-3.png,h,1,0.5461553999921307,h,1,0.06500579998828471,0.046980799990706146,0.0468083000741899,0.099401899962686,0.10014790005516261,0.7492065998958424
RSVPLG03,cs,20260304-134811,1.0.2,20251105-084826,784,Experiment,Both,1,Automatic,main,40,20260304-135241,global,global,750,H,S,A,E,H-A.png,S-E.png,hH,sS,mask-2.png,mask-1.png,h,1,0.4458266000729054,s,1,0.007983899908140302,0.04761610005516559,0.048022300004959106,0.10086580005008727,0.10217199998442084,0.7488412000238895
RSVPLG03,cs,20260304-134811,1.0.2,20251105-084826,784,Experiment,Both,1,Automatic,main,41,20260304-135246,global,local,750,H,S,A,E,H-A.png,E-S.png,hH,sS,mask-3.png,mask-4.png,h,1,0.4983725999481976,s,1,0.7319789999164641,0.04578899999614805,0.04735340003389865,0.09748310002032667,0.1000678000273183,0.7488860000157729
RSVPLG03,cs,20260304-134811,1.0.2,20251105-084826,784,Experiment,Both,1,Automatic,main,42,20260304-135251,local,global,750,S,H,A,A,A-S.png,H-A.png,sS,hH,mask-3.png,mask-4.png,s,1,0.5388645000057295,h,1,0.0855026999488473,0.046787000028416514,0.047700800001621246,0.10004659998230636,0.10082169994711876,0.7500636000186205
RSVPLG03,cs,20260304-134811,1.0.2,20251105-084826,784,Experiment,Both,1,Automatic,main,43,20260304-135256,global,local,750,H,H,A,E,H-A.png,E-H.png,hH,hH,mask-1.png,mask-2.png,h,1,0.4439500999869779,s,0,0.8614068001043051,0.04862799996044487,0.04769469995517284,0.10050639999099076,0.09967230004258454,0.7513843999477103
RSVPLG03,cs,20260304-134811,1.0.2,20251105-084826,784,Experiment,Both,1,Automatic,main,44,20260304-135301,local,local,300,H,H,A,E,A-H.png,E-H.png,hH,hH,mask-3.png,mask-1.png,h,1,0.7586457999423146,s,0,0.05592050007544458,0.0467077000066638,0.04671100003179163,0.09985710005275905,0.09884160000365227,0.3006683000130579
RSVPLG03,cs,20260304-134811,1.0.2,20251105-084826,784,Experiment,Both,1,Automatic,main,45,20260304-135306,global,global,750,S,S,A,E,S-A.png,S-E.png,sS,sS,mask-1.png,mask-2.png,s,1,0.5653993999585509,s,1,0.09213389991782606,0.04660090000834316,0.047838700003921986,0.09972119994927198,0.09929789998568594,0.7488465999485925
RSVPLG03,cs,20260304-134811,1.0.2,20251105-084826,784,Experiment,Both,1,Automatic,main,46,20260304-135310,global,local,750,H,H,E,A,H-E.png,A-H.png,hH,hH,mask-2.png,mask-4.png,h,1,0.7583120000781491,s,0,0.07053819997236133,0.04568079998716712,0.04667059995699674,0.09916849993169308,0.09818849992007017,0.7503511999966577
RSVPLG03,cs,20260304-134811,1.0.2,20251105-084826,784,Experiment,Both,1,Automatic,main,47,20260304-135315,local,local,300,H,S,E,E,E-H.png,E-S.png,hH,sS,mask-4.png,mask-4.png,h,1,1.0155899999663234,h,0,0.20184220001101494,0.046702399966306984,0.0465635999571532,0.09968059998936951,0.09959830006118864,0.3008882999420166
RSVPLG03,cs,20260304-134811,1.0.2,20251105-084826,784,Experiment,Both,1,Automatic,main,48,20260304-135320,global,local,750,H,H,A,A,H-A.png,A-H.png,hH,hH,mask-1.png,mask-4.png,h,1,0.46887189999688417,h,1,0.6976014000829309,0.04681730002630502,0.048013399937190115,0.10050000005867332,0.10096179996617138,0.7489668000489473
RSVPLG03,cs,20260304-134811,1.0.2,20251105-084826,784,Experiment,Both,1,Automatic,main,49,20260304-135326,global,local,300,H,H,E,E,H-E.png,E-H.png,hH,hH,mask-3.png,mask-4.png,h,1,0.7171522999415174,s,0,0.09266200009733438,0.047960299998521805,0.04686719994060695,0.10074869997333735,0.09952419996261597,0.30152380000799894
RSVPLG03,cs,20260304-134811,1.0.2,20251105-084826,784,Experiment,Both,1,Automatic,main,50,20260304-135330,local,local,300,H,S,A,A,A-H.png,A-S.png,hH,sS,mask-2.png,mask-1.png,h,1,0.5227735999505967,h,0,0.44729739998001605,0.045891899964772165,0.04752359993290156,0.09848519996739924,0.10111199994571507,0.2987361999694258
RSVPLG03,cs,20260304-134811,1.0.2,20251105-084826,784,Experiment,Both,1,Automatic,main,51,20260304-135342,local,global,300,H,H,A,A,A-H.png,H-A.png,hH,hH,mask-1.png,mask-1.png,h,1,0.5893929000012577,h,1,0.054785799933597445,0.04809439997188747,0.04697429994121194,0.10031819995492697,0.10020179999992251,0.3010359000181779
RSVPLG03,cs,20260304-134811,1.0.2,20251105-084826,784,Experiment,Both,1,Automatic,main,52,20260304-135347,global,global,300,H,H,E,E,H-E.png,H-E.png,hH,hH,mask-4.png,mask-2.png,h,1,0.5015861999709159,s,0,0.12219230004120618,0.04720140004064888,0.047167499898932874,0.10031530004926026,0.10016389994416386,0.3000308000482619
RSVPLG03,cs,20260304-134811,1.0.2,20251105-084826,784,Experiment,Both,1,Automatic,main,53,20260304-135351,local,global,750,S,S,A,E,A-S.png,S-E.png,sS,sS,mask-1.png,mask-2.png,s,1,0.5093040999490768,s,1,0.07446340005844831,0.0464471000013873,0.04870530008338392,0.09935759997460991,0.09907890006434172,0.7495230999775231
RSVPLG03,cs,20260304-134811,1.0.2,20251105-084826,784,Experiment,Both,1,Automatic,main,54,20260304-135356,local,global,750,S,H,E,A,E-S.png,H-A.png,sS,hH,mask-3.png,mask-1.png,s,1,0.5879020999418572,h,1,0.7319434999953955,0.04671779996715486,0.04877570003736764,0.0999318000394851,0.10102209995966405,0.7483665000181645
RSVPLG03,cs,20260304-134811,1.0.2,20251105-084826,784,Experiment,Both,1,Automatic,main,55,20260304-135400,local,global,750,S,H,E,A,E-S.png,H-A.png,sS,hH,mask-1.png,mask-3.png,s,1,0.35108000005129725,h,1,0.10291879996657372,0.04752059991005808,0.047751300036907196,0.10077479993924499,0.09983970003668219,0.7500707999570295
RSVPLG03,cs,20260304-134811,1.0.2,20251105-084826,784,Experiment,Both,1,Automatic,main,56,20260304-135405,local,global,750,H,S,A,E,A-H.png,S-E.png,hH,sS,mask-1.png,mask-4.png,h,1,0.39617310010362417,s,1,0.04327520006336272,0.047207399969920516,0.04723919997923076,0.09812260000035167,0.09840320004150271,0.7500655999174342
RSVPLG03,cs,20260304-134811,1.0.2,20251105-084826,784,Experiment,Both,1,Automatic,main,57,20260304-135410,local,global,300,H,H,A,A,A-H.png,H-A.png,hH,hH,mask-4.png,mask-2.png,h,1,0.5629759000148624,s,0,0.010912899975664914,0.04756730003282428,0.04790200002025813,0.09899089997634292,0.10096229996997863,0.2990807000314817
RSVPLG03,cs,20260304-134811,1.0.2,20251105-084826,784,Experiment,Both,1,Automatic,main,58,20260304-135414,global,local,300,H,S,A,E,H-A.png,E-S.png,hH,sS,mask-2.png,mask-2.png,h,1,0.54449390002992,s,1,0.002865400048904121,0.047637699986808,0.04750580003019422,0.10087600001133978,0.09876190009526908,0.300601499970071
RSVPLG03,cs,20260304-134811,1.0.2,20251105-084826,784,Experiment,Both,1,Automatic,main,59,20260304-135418,local,local,300,H,S,E,E,E-H.png,E-S.png,hH,sS,mask-3.png,mask-4.png,h,1,0.5435297000221908,s,1,0.13462400005664676,0.04646350000984967,0.04673850000835955,0.09961619996465743,0.0993748001055792,0.29960249993018806
RSVPLG03,cs,20260304-134811,1.0.2,20251105-084826,784,Experiment,Both,1,Automatic,main,60,20260304-135423,local,local,300,S,H,E,A,E-S.png,A-H.png,sS,hH,mask-2.png,mask-3.png,h,0,1.428925900021568,s,0,0.17853529995772988,0.04870299994945526,0.04771099996287376,0.09988729993347079,0.09911339997779578,0.2997981000225991
RSVPLG03,cs,20260304-134811,1.0.2,20251105-084826,784,Experiment,Both,1,Automatic,main,61,20260304-135428,global,local,300,S,S,E,A,S-E.png,A-S.png,sS,sS,mask-4.png,mask-1.png,s,1,0.4455661999527365,h,0,0.050627200049348176,0.04751760000362992,0.04575789999216795,0.09961330005899072,0.09961629996541888,0.3006159000797197
RSVPLG03,cs,20260304-134811,1.0.2,20251105-084826,784,Experiment,Both,1,Automatic,main,62,20260304-135432,global,local,750,H,H,A,A,H-A.png,A-H.png,hH,hH,mask-1.png,mask-1.png,h,1,0.5521586999529973,h,1,0.08154330006800592,0.0475758999818936,0.0476257000118494,0.09950220002792776,0.10084219998680055,0.7498164999997243
RSVPLG03,cs,20260304-134811,1.0.2,20251105-084826,784,Experiment,Both,1,Automatic,main,63,20260304-135437,local,local,750,H,H,A,E,A-H.png,E-H.png,hH,hH,mask-3.png,mask-4.png,h,1,0.5254012000514194,s,0,0.653273900039494,0.04755320004187524,0.04704859992489219,0.10155450005549937,0.09828629996627569,0.7521652000723407
RSVPLG03,cs,20260304-134811,1.0.2,20251105-084826,784,Experiment,Both,1,Automatic,main,64,20260304-135442,global,global,300,H,H,A,E,H-A.png,H-E.png,hH,hH,mask-3.png,mask-2.png,h,1,0.5365597999189049,h,1,0.17209910007659346,0.04752409993670881,0.04776139999739826,0.10056249995250255,0.09978739998769015,0.30083369999192655
RSVPLG03,cs,20260304-134811,1.0.2,20251105-084826,784,Experiment,Both,1,Automatic,main,65,20260304-135446,local,global,300,H,H,A,E,A-H.png,H-E.png,hH,hH,mask-1.png,mask-2.png,h,1,0.5521973000140861,h,1,0.10900779999792576,0.046532000065781176,0.04676349996589124,0.09876000008080155,0.09954269998706877,0.29901250009424984
RSVPLG03,cs,20260304-134811,1.0.2,20251105-084826,784,Experiment,Both,1,Automatic,main,66,20260304-135450,global,global,300,S,H,A,A,S-A.png,H-A.png,sS,hH,mask-3.png,mask-1.png,h,0,0.7013179999776185,h,1,0.06073379993904382,0.046613599988631904,0.04876069992315024,0.10059699998237193,0.10080199991352856,0.2996182000497356
RSVPLG03,cs,20260304-134811,1.0.2,20251105-084826,784,Experiment,Both,1,Automatic,main,67,20260304-135455,local,global,750,H,H,A,A,A-H.png,H-A.png,hH,hH,mask-4.png,mask-4.png,h,1,0.45754089998081326,h,1,0.22868310008198023,0.047541000065393746,0.04762640001717955,0.09927790006622672,0.09962700004689395,0.7495437000179663
RSVPLG03,cs,20260304-134811,1.0.2,20251105-084826,784,Experiment,Both,1,Automatic,main,68,20260304-135500,global,global,300,H,H,E,E,H-E.png,H-E.png,hH,hH,mask-1.png,mask-4.png,h,1,0.532709600054659,h,1,0.08315719990059733,0.046777999959886074,0.04759089997969568,0.10099429998081177,0.1002590999705717,0.30038949998561293
RSVPLG03,cs,20260304-134811,1.0.2,20251105-084826,784,Experiment,Both,1,Automatic,main,69,20260304-135504,global,local,750,S,S,E,E,S-E.png,E-S.png,sS,sS,mask-4.png,mask-2.png,s,1,0.3817128000082448,s,1,0.0898340999847278,0.048529100022278726,0.04755810007918626,0.10055869992356747,0.09970760007854551,0.7503609999548644
RSVPLG03,cs,20260304-134811,1.0.2,20251105-084826,784,Experiment,Both,1,Automatic,main,70,20260304-135508,global,global,300,H,S,A,E,H-A.png,S-E.png,hH,sS,mask-1.png,mask-3.png,h,1,0.5331524000503123,s,1,0.029242000076919794,0.046754500013776124,0.04719539999496192,0.1005335000809282,0.09919850004371256,0.30049990001134574
RSVPLG03,cs,20260304-134811,1.0.2,20251105-084826,784,Experiment,Both,1,Automatic,main,71,20260304-135513,local,local,750,H,H,A,E,A-H.png,E-H.png,hH,hH,mask-2.png,mask-1.png,h,1,0.8962313999654725,s,0,0.10064520000014454,0.04752090002875775,0.0475132999708876,0.09955569996964186,0.09872600005473942,0.7498164999997243
RSVPLG03,cs,20260304-134811,1.0.2,20251105-084826,784,Experiment,Both,1,Automatic,main,72,20260304-135518,global,local,300,H,H,E,E,H-E.png,E-H.png,hH,hH,mask-3.png,mask-2.png,h,1,0.40035510004963726,s,0,0.009545900044031441,0.04770650004502386,0.04764510004315525,0.09842399996705353,0.10008829995058477,0.2995544000295922
RSVPLG03,cs,20260304-134811,1.0.2,20251105-084826,784,Experiment,Both,1,Automatic,main,73,20260304-135522,local,local,750,H,H,A,E,A-H.png,E-H.png,hH,hH,mask-3.png,mask-3.png,h,1,0.8779091000324115,s,0,0.09567409998271614,0.047533600009046495,0.0476736999116838,0.09940139995887876,0.09907479991670698,0.7499898000387475
RSVPLG03,cs,20260304-134811,1.0.2,20251105-084826,784,Experiment,Both,1,Automatic,main,74,20260304-135527,local,global,300,S,S,A,E,A-S.png,S-E.png,sS,sS,mask-4.png,mask-4.png,h,0,0.5990592000307515,s,1,0.03535979997832328,0.048317400040104985,0.04975659993942827,0.09971470001619309,0.10136639990378171,0.29896430007647723
RSVPLG03,cs,20260304-134811,1.0.2,20251105-084826,784,Experiment,Both,1,Automatic,main,75,20260304-135531,local,global,300,H,S,E,E,E-H.png,S-E.png,hH,sS,mask-1.png,mask-3.png,h,1,0.6962259999709204,s,1,0.06504360004328191,0.04757830000016838,0.0480352999875322,0.09891589998733252,0.09989949990995228,0.29935630003456026
RSVPLG03,cs,20260304-134811,1.0.2,20251105-084826,784,Experiment,Both,1,Automatic,main,76,20260304-135541,global,global,300,S,S,A,E,S-A.png,S-E.png,sS,sS,mask-1.png,mask-4.png,s,1,0.35987399995792657,s,1,0.24812160001602024,0.04657260002568364,0.04686910007148981,0.09960100008174777,0.09997700003441423,0.30000699998345226
RSVPLG03,cs,20260304-134811,1.0.2,20251105-084826,784,Experiment,Both,1,Automatic,main,77,20260304-135545,global,local,300,S,S,A,A,S-A.png,A-S.png,sS,sS,mask-1.png,mask-1.png,s,1,0.3975198999978602,h,0,0.061446000006981194,0.04557680001016706,0.04758609994314611,0.09999160002917051,0.09873470000457019,0.2996460000285879
RSVPLG03,cs,20260304-134811,1.0.2,20251105-084826,784,Experiment,Both,1,Automatic,main,78,20260304-135549,local,local,750,H,S,A,E,A-H.png,E-S.png,hH,sS,mask-2.png,mask-2.png,h,1,0.525237699970603,s,1,0.13840770011302084,0.04750310000963509,0.04854559991508722,0.09960610000416636,0.10140409995801747,0.7487765999976546
RSVPLG03,cs,20260304-134811,1.0.2,20251105-084826,784,Experiment,Both,1,Automatic,main,79,20260304-135554,global,global,750,S,H,E,E,S-E.png,H-E.png,sS,hH,mask-4.png,mask-1.png,s,1,1.214343799976632,h,1,0.27574700000695884,0.0486615999834612,0.047834099968895316,0.10170559992548078,0.09996149991638958,0.750840499997139
RSVPLG03,cs,20260304-134811,1.0.2,20251105-084826,784,Experiment,Both,1,Automatic,main,80,20260304-135600,global,global,750,H,S,A,A,H-A.png,S-A.png,hH,sS,mask-2.png,mask-2.png,h,1,0.45373899990227073,s,1,0.09322369995061308,0.04583820002153516,0.04754469997715205,0.09817889996338636,0.09956030000466853,0.7495650000637397
RSVPLG03,cs,20260304-134811,1.0.2,20251105-084826,784,Experiment,Both,1,Automatic,main,81,20260304-135604,global,local,750,H,H,A,E,H-A.png,E-H.png,hH,hH,mask-4.png,mask-4.png,h,1,0.6864444999955595,h,1,0.6811547999968752,0.047374899964779615,0.047648899955675006,0.10025250003673136,0.09982280002441257,0.7504335000412539
RSVPLG03,cs,20260304-134811,1.0.2,20251105-084826,784,Experiment,Both,1,Automatic,main,82,20260304-135610,local,local,300,S,S,E,A,E-S.png,A-S.png,sS,sS,mask-1.png,mask-4.png,s,1,0.9118030000245199,h,0,0.1815993000054732,0.048533699940890074,0.046617800020612776,0.09993449994362891,0.0997135000070557,0.30132219998631626
RSVPLG03,cs,20260304-134811,1.0.2,20251105-084826,784,Experiment,Both,1,Automatic,main,83,20260304-135615,global,global,300,H,H,A,E,H-A.png,H-E.png,hH,hH,mask-3.png,mask-4.png,h,1,0.7061051999917254,h,1,0.42736109998077154,0.048627100070007145,0.047537699923850596,0.09964050003327429,0.09958609996829182,0.29989980009850115
RSVPLG03,cs,20260304-134811,1.0.2,20251105-084826,784,Experiment,Both,1,Automatic,main,84,20260304-135620,local,local,750,S,S,E,A,E-S.png,A-S.png,sS,sS,mask-4.png,mask-4.png,s,1,0.5635381999891251,h,0,0.09134639997500926,0.04770580003969371,0.0477194000268355,0.10091409995220602,0.10119280009530485,0.7501465999521315
RSVPLG03,cs,20260304-134811,1.0.2,20251105-084826,784,Experiment,Both,1,Automatic,main,85,20260304-135624,global,global,300,S,S,E,E,S-E.png,S-E.png,sS,sS,mask-3.png,mask-3.png,s,1,0.5763879999285564,h,0,0.031613699975423515,0.04751980002038181,0.04659389995504171,0.09976989997085184,0.0996122999349609,0.30025940004270524
RSVPLG03,cs,20260304-134811,1.0.2,20251105-084826,784,Experiment,Both,1,Automatic,main,86,20260304-135629,local,local,300,S,H,A,E,A-S.png,E-H.png,sS,hH,mask-3.png,mask-1.png,s,1,0.4543822999112308,s,0,0.09136119997128844,0.04741009999997914,0.049117700080387294,0.10000630002468824,0.10104510001838207,0.2996092999819666
RSVPLG03,cs,20260304-134811,1.0.2,20251105-084826,784,Experiment,Both,1,Automatic,main,87,20260304-135633,local,global,750,S,H,E,A,E-S.png,H-A.png,sS,hH,mask-4.png,mask-2.png,s,1,0.5171434000367299,h,1,0.17178999993484467,0.04713870002888143,0.04759189998731017,0.10089480003807694,0.09981579997111112,0.7494870000518858
RSVPLG03,cs,20260304-134811,1.0.2,20251105-084826,784,Experiment,Both,1,Automatic,main,88,20260304-135638,global,local,750,S,H,E,A,S-E.png,A-H.png,sS,hH,mask-3.png,mask-2.png,s,1,0.41738550004083663,h,1,0.5563715000171214,0.04713900003116578,0.046626699971966445,0.10020200000144541,0.09846410003956407,0.7515411999775097
RSVPLG03,cs,20260304-134811,1.0.2,20251105-084826,784,Experiment,Both,1,Automatic,main,89,20260304-135643,local,global,750,S,H,E,A,E-S.png,H-A.png,sS,hH,mask-2.png,mask-3.png,s,1,0.4201066999230534,h,1,0.1576088999863714,0.04670589999295771,0.04774199996609241,0.09891059994697571,0.1008612000150606,0.7488771999487653
RSVPLG03,cs,20260304-134811,1.0.2,20251105-084826,784,Experiment,Both,1,Automatic,main,90,20260304-135648,global,global,300,S,H,E,E,S-E.png,H-E.png,sS,hH,mask-2.png,mask-4.png,s,1,0.7578392999712378,h,1,0.6473157000727952,0.04765129997394979,0.04793160001281649,0.0990674999775365,0.1000680000288412,0.2987779000541195
RSVPLG03,cs,20260304-134811,1.0.2,20251105-084826,784,Experiment,Both,1,Automatic,main,91,20260304-135653,global,local,300,S,S,A,A,S-A.png,A-S.png,sS,sS,mask-3.png,mask-4.png,s,1,0.5647149999858811,h,0,0.018419599975459278,0.046804600046016276,0.04622040002141148,0.09969549998641014,0.0999001000309363,0.30015739996451885
RSVPLG03,cs,20260304-134811,1.0.2,20251105-084826,784,Experiment,Both,1,Automatic,main,92,20260304-135657,local,global,300,H,S,A,A,A-H.png,S-A.png,hH,sS,mask-4.png,mask-2.png,h,1,1.2010850000660866,s,1,0.17477379995398223,0.04752119991462678,0.048549999948590994,0.09958579996600747,0.09963389998301864,0.30011169996578246
RSVPLG03,cs,20260304-134811,1.0.2,20251105-084826,784,Experiment,Both,1,Automatic,main,93,20260304-135702,local,local,750,H,H,E,E,E-H.png,E-H.png,hH,hH,mask-3.png,mask-3.png,h,1,0.5634124999633059,h,1,0.6489029000513256,0.04767410003114492,0.047638699994422495,0.10087480000220239,0.09901090001221746,0.7499031000770628
RSVPLG03,cs,20260304-134811,1.0.2,20251105-084826,784,Experiment,Both,1,Automatic,main,94,20260304-135707,global,global,750,H,H,E,E,H-E.png,H-E.png,hH,hH,mask-4.png,mask-1.png,h,1,0.6178579999832436,s,0,0.048093700082972646,0.047678800066933036,0.04876959999091923,0.10190340003464371,0.10102900001220405,0.7506386000895873
RSVPLG03,cs,20260304-134811,1.0.2,20251105-084826,784,Experiment,Both,1,Automatic,main,95,20260304-135712,local,local,300,H,H,A,E,A-H.png,E-H.png,hH,hH,mask-2.png,mask-4.png,h,1,0.6349214999936521,h,1,0.17708959989249706,0.049235699931159616,0.04898899991530925,0.10127430001739413,0.1017924000043422,0.29976510000415146
RSVPLG03,cs,20260304-134811,1.0.2,20251105-084826,784,Experiment,Both,1,Automatic,main,96,20260304-135717,global,local,750,H,H,E,A,H-E.png,A-H.png,hH,hH,mask-3.png,mask-1.png,h,1,0.5570884000044316,s,0,0.012417799909599125,0.046755800023674965,0.046223899931646883,0.09831380005925894,0.09850929991807789,0.7496429000748321
RSVPLG03,cs,20260304-134811,1.0.2,20251105-084826,784,Experiment,Both,1,Automatic,main,97,20260304-135722,global,global,750,H,S,A,E,H-A.png,S-E.png,hH,sS,mask-3.png,mask-3.png,h,1,0.3982247000094503,s,1,0.18197660008445382,0.04788860003463924,0.047598900040611625,0.0995468000182882,0.09893300000112504,0.751016499940306
RSVPLG03,cs,20260304-134811,1.0.2,20251105-084826,784,Experiment,Both,1,Automatic,main,98,20260304-135726,global,global,300,H,H,A,E,H-A.png,H-E.png,hH,hH,mask-1.png,mask-4.png,h,1,0.5437601000303403,h,1,0.4991647000424564,0.04780810000374913,0.04770490003284067,0.10101850004866719,0.09814070002175868,0.30140160000883043
RSVPLG03,cs,20260304-134811,1.0.2,20251105-084826,784,Experiment,Both,1,Automatic,main,99,20260304-135731,local,local,750,H,H,A,E,A-H.png,E-H.png,hH,hH,mask-4.png,mask-1.png,h,1,0.557042200001888,s,0,0.032581200008280575,0.047638899995945394,0.04759479989297688,0.09866870008409023,0.10184499993920326,0.7486069001024589
RSVPLG03,cs,20260304-134811,1.0.2,20251105-084826,784,Experiment,Both,1,Automatic,main,100,20260304-135736,global,local,750,H,H,A,E,H-A.png,E-H.png,hH,hH,mask-2.png,mask-4.png,h,1,0.46453680004924536,s,0,0.09879889991134405,0.04686370003037155,0.047650499967858195,0.09963790001347661,0.100842299987562,0.7499293000437319
RSVPLG03,cs,20260304-135818,1.0.2,20251105-084826,784,Experiment,Both,1,Automatic,warmup,1,20260304-135850,global,global,750,H,S,E,E,H-E.png,S-E.png,hH,sS,mask-3.png,mask-4.png,h,1,0.3462994999717921,s,1,0.252363899955526,0.04213519999757409,0.04646709992084652,0.09454580000601709,0.10048159991856664,0.7512403000146151
RSVPLG03,cs,20260304-135818,1.0.2,20251105-084826,784,Experiment,Both,1,Automatic,warmup,2,20260304-135855,global,local,750,S,S,A,E,S-A.png,E-S.png,sS,sS,mask-3.png,mask-1.png,s,1,0.3664832999929786,s,1,0.07395630003884435,0.04775379993952811,0.049774100072681904,0.09907610004302114,0.10185950004961342,0.7545359999639913
RSVPLG03,cs,20260304-135818,1.0.2,20251105-084826,784,Experiment,Both,1,Automatic,warmup,3,20260304-135900,local,local,750,S,H,A,E,A-S.png,E-H.png,sS,hH,mask-3.png,mask-2.png,s,1,0.37058129999786615,h,1,0.14377710002008826,0.04922359995543957,0.04746259993407875,0.10118640004657209,0.1003822999773547,0.7571886000223458
RSVPLG03,cs,20260304-135818,1.0.2,20251105-084826,784,Experiment,Both,1,Automatic,warmup,4,20260304-135905,local,local,300,H,S,A,A,A-H.png,A-S.png,hH,sS,mask-2.png,mask-1.png,h,1,1.57942920003552,s,1,0.03851400001440197,0.04848799994215369,0.047684799996204674,0.10256449994631112,0.09987479995470494,0.3036794000072405
RSVPLG03,cs,20260304-135818,1.0.2,20251105-084826,784,Experiment,Both,1,Automatic,main,5,20260304-135910,local,global,300,H,H,A,A,A-H.png,H-A.png,hH,hH,mask-1.png,mask-1.png,h,1,0.3328338999999687,h,1,0.10091519996058196,0.04751629999373108,0.049621099955402315,0.09986660000868142,0.10072170000057667,0.3014020000118762
RSVPLG03,cs,20260304-135818,1.0.2,20251105-084826,784,Experiment,Both,1,Automatic,main,6,20260304-135914,global,local,300,H,H,E,A,H-E.png,A-H.png,hH,hH,mask-2.png,mask-4.png,h,1,1.0953688999870792,h,1,1.020676999934949,0.04751110007055104,0.04590719996485859,0.10034920007456094,0.09971229999791831,0.3031336000422016
RSVPLG03,cs,20260304-135818,1.0.2,20251105-084826,784,Experiment,Both,1,Automatic,main,7,20260304-135920,local,local,300,H,S,A,E,A-H.png,E-S.png,hH,sS,mask-4.png,mask-2.png,s,0,0.5115579999983311,h,0,0.042941000079736114,0.04755020001903176,0.048609300050884485,0.10056559997610748,0.100663400022313,0.3018659999361262
RSVPLG03,cs,20260304-135818,1.0.2,20251105-084826,784,Experiment,Both,1,Automatic,main,8,20260304-135924,local,global,300,S,H,E,E,E-S.png,H-E.png,sS,hH,mask-1.png,mask-2.png,s,1,0.7598911999957636,h,1,0.198200200102292,0.04877280001528561,0.04751100006978959,0.10188670002389699,0.10146709997206926,0.30361189995892346
RSVPLG03,cs,20260304-135818,1.0.2,20251105-084826,784,Experiment,Both,1,Automatic,main,9,20260304-135929,global,local,300,H,S,E,E,H-E.png,E-S.png,hH,sS,mask-2.png,mask-3.png,h,1,0.48682500002905726,s,1,0.32490740006323904,0.048093699966557324,0.047705099917948246,0.10248610004782677,0.10004229994956404,0.30362570006400347
RSVPLG03,cs,20260304-135818,1.0.2,20251105-084826,784,Experiment,Both,1,Automatic,main,10,20260304-135934,local,global,300,S,H,E,A,E-S.png,H-A.png,sS,hH,mask-3.png,mask-1.png,s,1,0.5697227999335155,h,1,0.05790879996493459,0.046881700051017106,0.04752639995422214,0.10041930002626032,0.10052480001468211,0.3017743000527844
RSVPLG03,cs,20260304-135818,1.0.2,20251105-084826,784,Experiment,Both,1,Automatic,main,11,20260304-135938,local,local,300,S,H,E,E,E-S.png,E-H.png,sS,hH,mask-4.png,mask-4.png,s,1,0.4372367999749258,h,1,0.14169909991323948,0.047754500061273575,0.04758440004661679,0.1008390000788495,0.0990991999860853,0.303097500000149
RSVPLG03,cs,20260304-135818,1.0.2,20251105-084826,784,Experiment,Both,1,Automatic,main,12,20260304-135942,local,local,750,S,H,E,E,E-S.png,E-H.png,sS,hH,mask-3.png,mask-3.png,s,1,0.39871530001983047,h,1,0.11759400006849319,0.047528899973258376,0.04761240002699196,0.10053930000867695,0.09963260008953512,0.7556942999362946
RSVPLG03,cs,20260304-135818,1.0.2,20251105-084826,784,Experiment,Both,1,Automatic,main,13,20260304-135947,global,local,300,H,H,E,A,H-E.png,A-H.png,hH,hH,mask-4.png,mask-1.png,h,1,0.48573890002444386,s,0,0.16836860007606447,0.04773450002539903,0.047764900024048984,0.10084670002106577,0.09998020005878061,0.3025474000023678
RSVPLG03,cs,20260304-135818,1.0.2,20251105-084826,784,Experiment,Both,1,Automatic,main,14,20260304-135951,global,global,750,S,H,A,E,S-A.png,H-E.png,sS,hH,mask-4.png,mask-1.png,s,1,0.40683130000252277,h,1,0.12113049998879433,0.048937999992631376,0.04769280005712062,0.10222440003417432,0.10190850007347763,0.7568915999727324
RSVPLG03,cs,20260304-135818,1.0.2,20251105-084826,784,Experiment,Both,1,Automatic,main,15,20260304-135956,global,global,750,H,S,E,A,H-E.png,S-A.png,hH,sS,mask-3.png,mask-2.png,h,1,0.4412226000567898,s,1,0.17159839998930693,0.046700399951078,0.047492300043813884,0.10007759998552501,0.10054839996155351,0.7568443999625742
RSVPLG03,cs,20260304-135818,1.0.2,20251105-084826,784,Experiment,Both,1,Automatic,main,16,20260304-140001,global,global,300,H,S,E,E,H-E.png,S-E.png,hH,sS,mask-4.png,mask-3.png,h,1,0.5650975999888033,s,1,0.18753929995000362,0.04952130001038313,0.04555070004425943,0.10160049994010478,0.09965019999071956,0.30417479993775487
RSVPLG03,cs,20260304-135818,1.0.2,20251105-084826,784,Experiment,Both,1,Automatic,main,17,20260304-140005,local,local,750,H,H,E,A,E-H.png,A-H.png,hH,hH,mask-3.png,mask-3.png,s,0,0.4016396999359131,h,1,0.07600750005804002,0.048202999983914196,0.04751240008044988,0.10121430002618581,0.10093300009611994,0.7561262999661267
RSVPLG03,cs,20260304-135818,1.0.2,20251105-084826,784,Experiment,Both,1,Automatic,main,18,20260304-140010,global,local,300,S,S,A,E,S-A.png,E-S.png,sS,sS,mask-1.png,mask-3.png,s,1,0.8519300000043586,h,0,0.5328771999338642,0.04958350001834333,0.046655000071041286,0.10096910002175719,0.09982850006781518,0.30437559995334595
RSVPLG03,cs,20260304-135818,1.0.2,20251105-084826,784,Experiment,Both,1,Automatic,main,19,20260304-140015,global,global,300,S,S,E,E,S-E.png,S-E.png,sS,sS,mask-4.png,mask-2.png,s,1,0.5199075000127777,s,1,0.37501409999094903,0.04751550010405481,0.04757500009145588,0.10051970009226352,0.10064840002451092,0.30390639998950064
RSVPLG03,cs,20260304-135818,1.0.2,20251105-084826,784,Experiment,Both,1,Automatic,main,20,20260304-140020,global,global,750,S,H,E,A,S-E.png,H-A.png,sS,hH,mask-1.png,mask-2.png,s,1,0.3827670000027865,h,1,0.0656615000916645,0.047417899942956865,0.04673279996495694,0.101325299940072,0.10011819994542748,0.7570667000254616
RSVPLG03,cs,20260304-135818,1.0.2,20251105-084826,784,Experiment,Both,1,Automatic,main,21,20260304-140024,global,local,300,H,S,A,A,H-A.png,A-S.png,hH,sS,mask-2.png,mask-4.png,h,1,0.35523480002302676,s,1,0.02428080001845956,0.047552700038067997,0.04853989998809993,0.10064940003212541,0.10156580002512783,0.3018937000306323
RSVPLG03,cs,20260304-135818,1.0.2,20251105-084826,784,Experiment,Both,1,Automatic,main,22,20260304-140028,local,local,300,S,S,E,E,E-S.png,E-S.png,sS,sS,mask-1.png,mask-2.png,s,1,0.4070531000616029,h,0,0.06509940000250936,0.04754739999771118,0.04954809998162091,0.10059159994125366,0.1025744000216946,0.3018401999725029
RSVPLG03,cs,20260304-135818,1.0.2,20251105-084826,784,Experiment,Both,1,Automatic,main,23,20260304-140033,global,local,750,H,S,E,A,H-E.png,A-S.png,hH,sS,mask-2.png,mask-4.png,h,1,0.4329899000003934,s,1,0.11616049997974187,0.04954759997781366,0.04729410004802048,0.10082880000118166,0.10127490002196282,0.7565998999634758
RSVPLG03,cs,20260304-135818,1.0.2,20251105-084826,784,Experiment,Both,1,Automatic,main,24,20260304-140038,global,local,750,S,H,E,A,S-E.png,A-H.png,sS,hH,mask-2.png,mask-2.png,s,1,0.3840364000061527,h,1,0.10268180002458394,0.049681900069117546,0.04864799999631941,0.10257200000341982,0.10067239997442812,0.7575341000920162
RSVPLG03,cs,20260304-135818,1.0.2,20251105-084826,784,Experiment,Both,1,Automatic,main,25,20260304-140042,global,global,300,S,H,E,E,S-E.png,H-E.png,sS,hH,mask-1.png,mask-3.png,s,1,0.5216231000376865,h,1,0.08903370006009936,0.047440299997106194,0.04740120004862547,0.10070890001952648,0.10038700001314282,0.30172849993687123
RSVPLG03,cs,20260304-135818,1.0.2,20251105-084826,784,Experiment,Both,1,Automatic,main,26,20260304-140054,global,local,750,S,S,E,A,S-E.png,A-S.png,sS,sS,mask-2.png,mask-1.png,s,1,0.29562539991457015,s,1,0.07139229995664209,0.0476261000148952,0.0485249999910593,0.09970100002828985,0.1015348999062553,0.7549603000516072
RSVPLG03,cs,20260304-135818,1.0.2,20251105-084826,784,Experiment,Both,1,Automatic,main,27,20260304-140059,local,local,750,S,H,A,E,A-S.png,E-H.png,sS,hH,mask-1.png,mask-1.png,s,1,0.6863834999967366,h,1,0.22423099994193763,0.046440200065262616,0.04781130002811551,0.09932020003907382,0.10099830001126975,0.7558824999723583
RSVPLG03,cs,20260304-135818,1.0.2,20251105-084826,784,Experiment,Both,1,Automatic,main,28,20260304-140104,local,global,750,S,S,A,A,A-S.png,S-A.png,sS,sS,mask-3.png,mask-4.png,s,1,0.38203970005270094,s,1,0.0800044999923557,0.04973600001540035,0.047884700004942715,0.1010923000285402,0.10049290000461042,0.7568198000080884
RSVPLG03,cs,20260304-135818,1.0.2,20251105-084826,784,Experiment,Both,1,Automatic,main,29,20260304-140108,global,local,300,S,S,A,A,S-A.png,A-S.png,sS,sS,mask-3.png,mask-3.png,s,1,0.6680021000793204,h,0,0.06290490005631,0.04753620002884418,0.04665130004286766,0.10153390001505613,0.09973030001856387,0.30378870002459735
RSVPLG03,cs,20260304-135818,1.0.2,20251105-084826,784,Experiment,Both,1,Automatic,main,30,20260304-140113,local,global,750,S,S,A,E,A-S.png,S-E.png,sS,sS,mask-1.png,mask-3.png,s,1,0.37551399995572865,s,1,0.07000730000436306,0.04958690004423261,0.049981300020590425,0.10269059997517616,0.10166340006981045,0.7566469999728724
RSVPLG03,cs,20260304-135818,1.0.2,20251105-084826,784,Experiment,Both,1,Automatic,main,31,20260304-140117,local,local,750,H,S,A,E,A-H.png,E-S.png,hH,sS,mask-3.png,mask-1.png,h,1,0.3708545999834314,s,1,0.05948900000657886,0.04765259998384863,0.047520400024950504,0.10010420007165521,0.1005501999752596,0.7572989000473171
RSVPLG03,cs,20260304-135818,1.0.2,20251105-084826,784,Experiment,Both,1,Automatic,main,32,20260304-140122,local,global,750,S,S,E,E,E-S.png,S-E.png,sS,sS,mask-1.png,mask-1.png,s,1,0.2763875999953598,s,1,0.10249860002659261,0.047175200073979795,0.04752629995346069,0.1001723000081256,0.10158170002978295,0.756519400049001
RSVPLG03,cs,20260304-135818,1.0.2,20251105-084826,784,Experiment,Both,1,Automatic,main,33,20260304-140127,global,local,300,S,H,A,E,S-A.png,E-H.png,sS,hH,mask-2.png,mask-2.png,s,1,0.5641573000466451,h,1,0.2139864000491798,0.04855339997448027,0.047995800036005676,0.10068809997756034,0.10115480003878474,0.3021995999151841
RSVPLG03,cs,20260304-135818,1.0.2,20251105-084826,784,Experiment,Both,1,Automatic,main,34,20260304-140131,local,global,300,H,S,E,E,E-H.png,S-E.png,hH,sS,mask-2.png,mask-4.png,s,0,0.3431653999723494,h,0,0.1393175000557676,0.04786329995840788,0.048595599946565926,0.10096289997454733,0.10058660001959652,0.30239930003881454
RSVPLG03,cs,20260304-135818,1.0.2,20251105-084826,784,Experiment,Both,1,Automatic,main,35,20260304-140135,local,local,300,S,H,A,A,A-S.png,A-H.png,sS,hH,mask-2.png,mask-4.png,s,1,0.5215692999772727,s,0,0.07425089995376766,0.048741300008259714,0.04763549997005612,0.10111180006060749,0.1008297000080347,0.30320920003578067
RSVPLG03,cs,20260304-135818,1.0.2,20251105-084826,784,Experiment,Both,1,Automatic,main,36,20260304-140140,local,global,750,S,H,E,E,E-S.png,H-E.png,sS,hH,mask-3.png,mask-2.png,s,1,0.46369160001631826,h,1,0.13900680001825094,0.04868140001781285,0.04790910007432103,0.1021768000209704,0.10207870008889586,0.7566501999972388
RSVPLG03,cs,20260304-135818,1.0.2,20251105-084826,784,Experiment,Both,1,Automatic,main,37,20260304-140144,global,local,300,S,H,A,A,S-A.png,A-H.png,sS,hH,mask-1.png,mask-1.png,s,1,0.5898896000580862,h,1,0.2852668999694288,0.04773700004443526,0.0487510000821203,0.09982170001603663,0.10076719999779016,0.3014635000145063
RSVPLG03,cs,20260304-135818,1.0.2,20251105-084826,784,Experiment,Both,1,Automatic,main,38,20260304-140149,local,global,750,S,S,A,E,A-S.png,S-E.png,sS,sS,mask-1.png,mask-4.png,s,1,0.5290848000440747,h,0,0.0047417000168934464,0.047817799961194396,0.04853389994241297,0.10045309993438423,0.10174519999418408,0.7549836999969557
RSVPLG03,cs,20260304-135818,1.0.2,20251105-084826,784,Experiment,Both,1,Automatic,main,39,20260304-140154,local,global,750,H,S,E,A,E-H.png,S-A.png,hH,sS,mask-1.png,mask-3.png,h,1,0.5284689000109211,s,1,0.07044799998402596,0.045906599960289896,0.04956559999845922,0.10089309990871698,0.1016163999447599,0.75462849996984
RSVPLG03,cs,20260304-135818,1.0.2,20251105-084826,784,Experiment,Both,1,Automatic,main,40,20260304-140159,global,global,300,S,H,E,E,S-E.png,H-E.png,sS,hH,mask-2.png,mask-1.png,s,1,0.35944989998824894,h,1,0.11231490003410727,0.046675699995830655,0.048776600044220686,0.09995550010353327,0.10182420001365244,0.30190860002767295
RSVPLG03,cs,20260304-135818,1.0.2,20251105-084826,784,Experiment,Both,1,Automatic,main,41,20260304-140203,global,global,300,H,H,A,A,H-A.png,H-A.png,hH,hH,mask-3.png,mask-3.png,h,1,0.5724446000531316,h,1,0.10127839993219823,0.04740209993906319,0.048031299957074225,0.09978409996256232,0.10110650002025068,0.3021611999720335
RSVPLG03,cs,20260304-135818,1.0.2,20251105-084826,784,Experiment,Both,1,Automatic,main,42,20260304-140207,global,local,300,H,H,E,E,H-E.png,E-H.png,hH,hH,mask-1.png,mask-2.png,h,1,0.614923799992539,h,1,0.07118159998208284,0.0475600000936538,0.04755660006776452,0.09955650009214878,0.10066160000860691,0.3020103999879211
RSVPLG03,cs,20260304-135818,1.0.2,20251105-084826,784,Experiment,Both,1,Automatic,main,43,20260304-140211,local,local,750,H,S,A,A,A-H.png,A-S.png,hH,sS,mask-4.png,mask-3.png,h,1,0.37057310005184263,h,0,0.06111210002563894,0.04873229993972927,0.048514400026760995,0.10073980002198368,0.10054320003837347,0.7562154999468476
RSVPLG03,cs,20260304-135818,1.0.2,20251105-084826,784,Experiment,Both,1,Automatic,main,44,20260304-140216,global,global,300,H,S,A,A,H-A.png,S-A.png,hH,sS,mask-3.png,mask-1.png,h,1,0.647458599996753,s,1,0.05936640000436455,0.04878869990352541,0.04769040003884584,0.09999489993788302,0.10001010005362332,0.30192499991972
RSVPLG03,cs,20260304-135818,1.0.2,20251105-084826,784,Experiment,Both,1,Automatic,main,45,20260304-140220,local,local,750,H,H,E,A,E-H.png,A-H.png,hH,hH,mask-3.png,mask-2.png,h,1,0.518634199979715,s,0,0.3806859999895096,0.04771970002911985,0.04751489998307079,0.10162650002166629,0.1015204000286758,0.7565892999991775
RSVPLG03,cs,20260304-135818,1.0.2,20251105-084826,784,Experiment,Both,1,Automatic,main,46,20260304-140226,local,global,300,H,S,A,A,A-H.png,S-A.png,hH,sS,mask-1.png,mask-1.png,h,1,1.3742247999180108,s,1,0.018018299946561456,0.047369300038553774,0.0467432999284938,0.09934419998899102,0.0998810000019148,0.3026358000934124
RSVPLG03,cs,20260304-135818,1.0.2,20251105-084826,784,Experiment,Both,1,Automatic,main,47,20260304-140231,local,global,750,S,S,A,A,A-S.png,S-A.png,sS,sS,mask-2.png,mask-2.png,s,1,0.7659627000102773,s,1,0.47345409996341914,0.04850290005560964,0.04749699996318668,0.10183350008446723,0.10051400004886091,0.7562564000254497
RSVPLG03,cs,20260304-135818,1.0.2,20251105-084826,784,Experiment,Both,1,Automatic,main,48,20260304-140236,local,local,300,S,S,E,A,E-S.png,A-S.png,sS,sS,mask-3.png,mask-2.png,s,1,0.5003009000793099,s,1,0.6046286999480799,0.049600600032135844,0.049635999952442944,0.10163259995169938,0.10176410002168268,0.3026251000119373
RSVPLG03,cs,20260304-135818,1.0.2,20251105-084826,784,Experiment,Both,1,Automatic,main,49,20260304-140241,global,local,750,S,H,E,A,S-E.png,A-H.png,sS,hH,mask-3.png,mask-2.png,s,1,0.4104421000229195,h,1,0.10826070001348853,0.048875799984671175,0.04896809998899698,0.10099870001431555,0.10202610003761947,0.7569823999656364
RSVPLG03,cs,20260304-135818,1.0.2,20251105-084826,784,Experiment,Both,1,Automatic,main,50,20260304-140246,global,local,300,S,S,A,A,S-A.png,A-S.png,sS,sS,mask-2.png,mask-4.png,s,1,0.8715632000239566,s,1,0.05984800006262958,0.047757099964655936,0.04963479994330555,0.10089949995744973,0.10109919996466488,0.3024870000081137
RSVPLG03,cs,20260304-135818,1.0.2,20251105-084826,784,Experiment,Both,1,Automatic,main,51,20260304-140256,global,global,750,H,S,E,E,H-E.png,S-E.png,hH,sS,mask-3.png,mask-2.png,h,1,0.34394809999503195,s,1,0.10214940004516393,0.04896770010236651,0.04765139997471124,0.10118980007246137,0.10033029993064702,0.7564475000835955
RSVPLG03,cs,20260304-135818,1.0.2,20251105-084826,784,Experiment,Both,1,Automatic,main,52,20260304-140300,local,global,750,S,H,E,A,E-S.png,H-A.png,sS,hH,mask-1.png,mask-4.png,s,1,0.39534539997112006,h,1,0.055297099985182285,0.04852660000324249,0.04758259991649538,0.10064680001232773,0.10159779991954565,0.7560562000144273
RSVPLG03,cs,20260304-135818,1.0.2,20251105-084826,784,Experiment,Both,1,Automatic,main,53,20260304-140305,local,local,300,S,H,A,E,A-S.png,E-H.png,sS,hH,mask-4.png,mask-3.png,h,0,0.6690494000213221,h,1,0.10337739996612072,0.04771770001389086,0.0475366999162361,0.09964040003251284,0.10232259996701032,0.30103740002959967
RSVPLG03,cs,20260304-135818,1.0.2,20251105-084826,784,Experiment,Both,1,Automatic,main,54,20260304-140309,local,local,300,H,S,E,E,E-H.png,E-S.png,hH,sS,mask-4.png,mask-1.png,h,1,0.5905425000237301,s,1,0.07163730007596314,0.04803179996088147,0.04863950004801154,0.09843919996637851,0.10069210000801831,0.30116259993519634
RSVPLG03,cs,20260304-135818,1.0.2,20251105-084826,784,Experiment,Both,1,Automatic,main,55,20260304-140314,local,local,750,S,H,A,A,A-S.png,A-H.png,sS,hH,mask-2.png,mask-4.png,s,1,1.086751400027424,s,0,0.051336699980311096,0.04766610008664429,0.04762739990837872,0.09993620007298887,0.09984129993245006,0.7561873000813648
RSVPLG03,cs,20260304-135818,1.0.2,20251105-084826,784,Experiment,Both,1,Automatic,main,56,20260304-140319,global,local,750,S,H,E,E,S-E.png,E-H.png,sS,hH,mask-4.png,mask-3.png,s,1,0.6913356001023203,h,1,0.36194670002441853,0.047566000022925436,0.048601999995298684,0.10059340007137507,0.10163230006583035,0.7557534000370651
RSVPLG03,cs,20260304-135818,1.0.2,20251105-084826,784,Experiment,Both,1,Automatic,main,57,20260304-140324,global,local,750,H,S,E,A,H-E.png,A-S.png,hH,sS,mask-1.png,mask-2.png,h,1,1.1541254000039771,h,0,0.11862139997538179,0.04753310000523925,0.047330599976703525,0.09887800004798919,0.10066279990132898,0.7557285000802949
RSVPLG03,cs,20260304-135818,1.0.2,20251105-084826,784,Experiment,Both,1,Automatic,main,58,20260304-140330,local,local,300,S,S,A,A,A-S.png,A-S.png,sS,sS,mask-3.png,mask-2.png,h,0,0.43497760000173,s,1,0.5859096000203863,0.04763530008494854,0.046675499994307756,0.09972759999800473,0.1008457998977974,0.30205410008784384
RSVPLG03,cs,20260304-135818,1.0.2,20251105-084826,784,Experiment,Both,1,Automatic,main,59,20260304-140335,local,local,300,S,S,A,E,A-S.png,E-S.png,sS,sS,mask-1.png,mask-4.png,s,1,0.4071555999107659,h,0,0.02727019996382296,0.04914939997252077,0.047570699942298234,0.10225770005490631,0.10061289998702705,0.30372650001663715
RSVPLG03,cs,20260304-135818,1.0.2,20251105-084826,784,Experiment,Both,1,Automatic,main,60,20260304-140339,global,global,300,S,H,A,E,S-A.png,H-E.png,sS,hH,mask-2.png,mask-1.png,s,1,0.5382233000127599,h,1,0.12721910001710057,0.047532199998386204,0.04947099997662008,0.10062329994980246,0.10223019996192306,0.3018309000181034
RSVPLG03,cs,20260304-135818,1.0.2,20251105-084826,784,Experiment,Both,1,Automatic,main,61,20260304-140343,local,global,300,S,H,E,E,E-S.png,H-E.png,sS,hH,mask-3.png,mask-4.png,s,1,0.4541614999761805,h,1,0.05201640003360808,0.0475372999208048,0.046853399951942265,0.1005942999618128,0.10086969996336848,0.3018389999633655
RSVPLG03,cs,20260304-135818,1.0.2,20251105-084826,784,Experiment,Both,1,Automatic,main,62,20260304-140347,global,local,750,H,H,E,A,H-E.png,A-H.png,hH,hH,mask-4.png,mask-1.png,h,1,0.6091350999195129,s,0,0.043748100055381656,0.046445899992249906,0.047498099971562624,0.09946709999348968,0.09896029997617006,0.7561342000262812
RSVPLG03,cs,20260304-135818,1.0.2,20251105-084826,784,Experiment,Both,1,Automatic,main,63,20260304-140352,global,global,750,H,H,E,A,H-E.png,H-A.png,hH,hH,mask-1.png,mask-4.png,h,1,0.5463253000052646,h,1,0.08091380004771054,0.04764869995415211,0.047797200037166476,0.09986329998355359,0.10098410001955926,0.7557513000210747
RSVPLG03,cs,20260304-135818,1.0.2,20251105-084826,784,Experiment,Both,1,Automatic,main,64,20260304-140357,local,global,300,H,H,A,E,A-H.png,H-E.png,hH,hH,mask-3.png,mask-3.png,h,1,0.5661275999154896,s,0,0.1090786000713706,0.049304199987091124,0.047321700025349855,0.10027409996837378,0.10036899999249727,0.30362959997728467
RSVPLG03,cs,20260304-135818,1.0.2,20251105-084826,784,Experiment,Both,1,Automatic,main,65,20260304-140402,global,global,750,H,H,A,E,H-A.png,H-E.png,hH,hH,mask-2.png,mask-4.png,h,1,0.4726673000259325,h,1,0.13299290009308606,0.0477547999471426,0.049609199981205165,0.09998790000099689,0.10171299998182803,0.754908200004138
RSVPLG03,cs,20260304-135818,1.0.2,20251105-084826,784,Experiment,Both,1,Automatic,main,66,20260304-140406,global,global,300,H,H,A,A,H-A.png,H-A.png,hH,hH,mask-4.png,mask-1.png,h,1,0.47958189994096756,s,0,0.058306099963374436,0.04952160001266748,0.046077299979515374,0.1015517000341788,0.09944869996979833,0.3039792999625206
RSVPLG03,cs,20260304-135818,1.0.2,20251105-084826,784,Experiment,Both,1,Automatic,main,67,20260304-140410,global,global,300,S,H,A,A,S-A.png,H-A.png,sS,hH,mask-3.png,mask-4.png,s,1,0.44425539998337626,h,1,0.02792979998048395,0.048292300081811845,0.04739630001131445,0.10179350001271814,0.1003605000441894,0.3030522000044584
RSVPLG03,cs,20260304-135818,1.0.2,20251105-084826,784,Experiment,Both,1,Automatic,main,68,20260304-140415,global,global,750,H,S,A,A,H-A.png,S-A.png,hH,sS,mask-3.png,mask-2.png,h,1,0.39973669999744743,s,1,0.13838799996301532,0.048181100049987435,0.04813689994625747,0.102356499992311,0.1012149000307545,0.7562743000453338
RSVPLG03,cs,20260304-135818,1.0.2,20251105-084826,784,Experiment,Both,1,Automatic,main,69,20260304-140419,local,local,750,H,S,E,E,E-H.png,E-S.png,hH,sS,mask-4.png,mask-3.png,h,1,0.5473867000546306,s,1,0.11979800008703023,0.04755100002512336,0.04952150001190603,0.09937730000820011,0.10155689995735884,0.754534300067462
RSVPLG03,cs,20260304-135818,1.0.2,20251105-084826,784,Experiment,Both,1,Automatic,main,70,20260304-140424,local,local,750,H,S,A,A,A-H.png,A-S.png,hH,sS,mask-1.png,mask-4.png,h,1,0.47506279998924583,s,1,0.054627400008030236,0.045659700059331954,0.04752859997097403,0.09957139997277409,0.09928429999854416,0.7557213000254706
RSVPLG03,cs,20260304-135818,1.0.2,20251105-084826,784,Experiment,Both,1,Automatic,main,71,20260304-140429,global,local,300,S,S,A,E,S-A.png,E-S.png,sS,sS,mask-3.png,mask-2.png,s,1,0.5428079999983311,h,0,0.8262844999553636,0.04775329993572086,0.047469799988903105,0.1010032999329269,0.0991244000615552,0.30290809995494783
RSVPLG03,cs,20260304-135818,1.0.2,20251105-084826,784,Experiment,Both,1,Automatic,main,72,20260304-140434,global,local,750,S,S,A,A,S-A.png,A-S.png,sS,sS,mask-1.png,mask-2.png,s,1,0.7939258000114933,h,0,0.09933810005895793,0.04713469999842346,0.04950769990682602,0.09958309994544834,0.10072370001580566,0.7553945999825373
RSVPLG03,cs,20260304-135818,1.0.2,20251105-084826,784,Experiment,Both,1,Automatic,main,73,20260304-140439,global,global,750,H,S,A,E,H-A.png,S-E.png,hH,sS,mask-3.png,mask-1.png,h,1,0.31615680002141744,s,1,0.10611099994275719,0.045940900105051696,0.04749759996775538,0.10089130001142621,0.10055839992128313,0.7555297000799328
RSVPLG03,cs,20260304-135818,1.0.2,20251105-084826,784,Experiment,Both,1,Automatic,main,74,20260304-140444,global,local,750,S,S,A,A,S-A.png,A-S.png,sS,sS,mask-1.png,mask-3.png,s,1,0.3754360000602901,h,0,0.04443959996569902,0.04702960001304746,0.04758350003976375,0.10002830007579178,0.10144110000692308,0.7558168000541627
RSVPLG03,cs,20260304-135818,1.0.2,20251105-084826,784,Experiment,Both,1,Automatic,main,75,20260304-140448,global,global,750,H,S,E,E,H-E.png,S-E.png,hH,sS,mask-3.png,mask-1.png,h,1,0.30688139994163066,s,1,0.04130659997463226,0.0497283999575302,0.0488248000619933,0.10095190000720322,0.10104570002295077,0.7568219999084249
RSVPLG03,cs,20260304-135818,1.0.2,20251105-084826,784,Experiment,Both,1,Automatic,main,76,20260304-140455,global,global,750,S,S,A,A,S-A.png,S-A.png,sS,sS,mask-4.png,mask-1.png,s,1,0.2570091000525281,s,1,0.0754826000193134,0.04765990003943443,0.04784779995679855,0.10009419999551028,0.10064419999253005,0.7558185000671074
RSVPLG03,cs,20260304-135818,1.0.2,20251105-084826,784,Experiment,Both,1,Automatic,main,77,20260304-140459,global,local,750,S,S,E,E,S-E.png,E-S.png,sS,sS,mask-4.png,mask-2.png,s,1,0.29287809995003045,s,1,0.08909249992575496,0.049764900002628565,0.04797019995748997,0.10567509999964386,0.10191769991070032,0.7567151000257581
RSVPLG03,cs,20260304-135818,1.0.2,20251105-084826,784,Experiment,Both,1,Automatic,main,78,20260304-140504,global,local,750,H,S,A,A,H-A.png,A-S.png,hH,sS,mask-4.png,mask-3.png,h,1,0.37523609993513674,h,0,0.06745380000211298,0.04751249996479601,0.049524699919857085,0.10051689995452762,0.10154679999686778,0.755042799981311
RSVPLG03,cs,20260304-135818,1.0.2,20251105-084826,784,Experiment,Both,1,Automatic,main,79,20260304-140508,local,global,300,S,H,E,E,E-S.png,H-E.png,sS,hH,mask-3.png,mask-3.png,s,1,0.4498184999683872,h,1,0.006672800052911043,0.048090699943713844,0.04711379995569587,0.10140939999837428,0.09931179997511208,0.30408269993495196
RSVPLG03,cs,20260304-135818,1.0.2,20251105-084826,784,Experiment,Both,1,Automatic,main,80,20260304-140513,global,global,750,S,H,A,A,S-A.png,H-A.png,sS,hH,mask-2.png,mask-3.png,s,1,0.29459820000920445,h,1,0.03203539992682636,0.04754890000913292,0.04753389989491552,0.10055560001637787,0.10053119994699955,0.7566059000091627
RSVPLG03,cs,20260304-135818,1.0.2,20251105-084826,784,Experiment,Both,1,Automatic,main,81,20260304-140517,local,local,300,H,H,E,A,E-H.png,A-H.png,hH,hH,mask-3.png,mask-3.png,s,0,0.21532129996921867,h,1,0.04958140000235289,0.04915979993529618,0.04693579999729991,0.1008861999725923,0.10178779996931553,0.30303539999295026
RSVPLG03,cs,20260304-135818,1.0.2,20251105-084826,784,Experiment,Both,1,Automatic,main,82,20260304-140521,local,local,750,H,H,E,E,E-H.png,E-H.png,hH,hH,mask-4.png,mask-1.png,h,1,0.35950459993910044,h,1,0.07692849996965379,0.0475752999773249,0.04667970002628863,0.10067980003077537,0.09997590002603829,0.7561847999459133
RSVPLG03,cs,20260304-135818,1.0.2,20251105-084826,784,Experiment,Both,1,Automatic,main,83,20260304-140526,local,local,300,H,S,E,A,E-H.png,A-S.png,hH,sS,mask-1.png,mask-1.png,h,1,0.4521108999615535,s,1,0.08710260002408177,0.04953479999676347,0.048523500096052885,0.10154780000448227,0.10144290002062917,0.3029421999817714
RSVPLG03,cs,20260304-135818,1.0.2,20251105-084826,784,Experiment,Both,1,Automatic,main,84,20260304-140530,local,local,300,S,S,A,E,A-S.png,E-S.png,sS,sS,mask-1.png,mask-4.png,h,0,0.23239840008318424,s,1,0.771697900025174,0.04650449997279793,0.04683759994804859,0.09963539999444038,0.09931249998044223,0.3020331000443548
RSVPLG03,cs,20260304-135818,1.0.2,20251105-084826,784,Experiment,Both,1,Automatic,main,85,20260304-140535,global,global,750,S,S,A,A,S-A.png,S-A.png,sS,sS,mask-4.png,mask-2.png,s,1,0.2578267001081258,s,1,0.07811680005397648,0.04754739999771118,0.048570899991318583,0.09970339993014932,0.10263520001899451,0.7541485999245197
RSVPLG03,cs,20260304-135818,1.0.2,20251105-084826,784,Experiment,Both,1,Automatic,main,86,20260304-140539,local,local,750,S,H,E,A,E-S.png,A-H.png,sS,hH,mask-2.png,mask-2.png,s,1,0.28905160003341734,h,1,0.027284099953249097,0.04847959999460727,0.048562999931164086,0.10074190003797412,0.10175589995924383,0.7564593000570312
RSVPLG03,cs,20260304-135818,1.0.2,20251105-084826,784,Experiment,Both,1,Automatic,main,87,20260304-140544,local,global,750,S,S,E,A,E-S.png,S-A.png,sS,sS,mask-3.png,mask-1.png,s,1,0.3956487999530509,h,0,2.132196400081739,0.04722760000731796,0.048391700023785233,0.10118160001002252,0.10083200002554804,0.756175999995321
RSVPLG03,cs,20260304-135818,1.0.2,20251105-084826,784,Experiment,Both,1,Automatic,main,88,20260304-140550,global,global,300,S,H,A,A,S-A.png,H-A.png,sS,hH,mask-1.png,mask-1.png,h,0,0.747442299965769,s,0,0.42585449991747737,0.0478322000708431,0.046698200050741434,0.10106140002608299,0.1001972999656573,0.3027777000097558
RSVPLG03,cs,20260304-135818,1.0.2,20251105-084826,784,Experiment,Both,1,Automatic,main,89,20260304-140555,local,global,750,H,H,E,A,E-H.png,H-A.png,hH,hH,mask-1.png,mask-1.png,h,1,0.8031208999454975,s,0,0.09300450002774596,0.04769399994984269,0.04729620006401092,0.0998919999692589,0.10069930006284267,0.7559361999155954
RSVPLG03,cs,20260304-135818,1.0.2,20251105-084826,784,Experiment,Both,1,Automatic,main,90,20260304-140600,local,global,750,H,H,A,A,A-H.png,H-A.png,hH,hH,mask-4.png,mask-2.png,h,1,0.32230730005539954,h,1,0.10472539998590946,0.04666740004904568,0.048756100004538894,0.10086390003561974,0.10079749999567866,0.7553966999985278
RSVPLG03,cs,20260304-135818,1.0.2,20251105-084826,784,Experiment,Both,1,Automatic,main,91,20260304-140605,local,global,300,H,H,A,A,A-H.png,H-A.png,hH,hH,mask-4.png,mask-2.png,h,1,0.5226143000181764,h,1,0.2837318000383675,0.049536800011992455,0.04758129990659654,0.1015547999413684,0.10059739998541772,0.303743900032714
RSVPLG03,cs,20260304-135818,1.0.2,20251105-084826,784,Experiment,Both,1,Automatic,main,92,20260304-140609,global,local,300,S,H,A,A,S-A.png,A-H.png,sS,hH,mask-3.png,mask-1.png,s,1,0.5016554000321776,h,1,0.08935809996910393,0.04769869998563081,0.048594300053082407,0.09988310001790524,0.10166709998156875,0.3019817000022158
RSVPLG03,cs,20260304-135818,1.0.2,20251105-084826,784,Experiment,Both,1,Automatic,main,93,20260304-140614,global,global,300,H,H,A,A,H-A.png,H-A.png,hH,hH,mask-3.png,mask-4.png,h,1,0.4310874999500811,s,0,0.3317224000347778,0.049548699986189604,0.04786729998886585,0.10139100009109825,0.09985889995004982,0.30376150005031377
RSVPLG03,cs,20260304-135818,1.0.2,20251105-084826,784,Experiment,Both,1,Automatic,main,94,20260304-140618,local,global,750,S,H,E,A,E-S.png,H-A.png,sS,hH,mask-3.png,mask-3.png,s,1,0.2307065000059083,h,1,0.14432309998665005,0.047532600001432,0.04747700004372746,0.0994293000549078,0.10047110007144511,0.7551645999774337
RSVPLG03,cs,20260304-135818,1.0.2,20251105-084826,784,Experiment,Both,1,Automatic,main,95,20260304-140623,local,global,300,S,H,E,A,E-S.png,H-A.png,sS,hH,mask-2.png,mask-1.png,s,1,0.4568754999199882,h,1,0.050261099939234555,0.04750159999821335,0.04951339995022863,0.10154509998392314,0.10156529990490526,0.3018121999921277
RSVPLG03,cs,20260304-135818,1.0.2,20251105-084826,784,Experiment,Both,1,Automatic,main,96,20260304-140627,local,local,750,S,S,A,E,A-S.png,E-S.png,sS,sS,mask-3.png,mask-2.png,s,1,0.334092800039798,s,1,0.0756850999314338,0.047711199964396656,0.048659699968993664,0.10168259998317808,0.10085629997774959,0.7554286000085995
RSVPLG03,cs,20260304-135818,1.0.2,20251105-084826,784,Experiment,Both,1,Automatic,main,97,20260304-140632,global,global,300,H,H,E,E,H-E.png,H-E.png,hH,hH,mask-1.png,mask-2.png,h,1,0.2844324999023229,h,1,0.10302459995727986,0.04755759995896369,0.0475254999473691,0.10059839999303222,0.10068339994177222,0.30198650003876537
RSVPLG03,cs,20260304-135818,1.0.2,20251105-084826,784,Experiment,Both,1,Automatic,main,98,20260304-140636,global,local,750,H,S,A,A,H-A.png,A-S.png,hH,sS,mask-3.png,mask-2.png,h,1,0.3464960999554023,s,1,0.3304252000525594,0.04770180000923574,0.04877750005107373,0.10161890008021146,0.1012169000459835,0.7558456000406295
RSVPLG03,cs,20260304-135818,1.0.2,20251105-084826,784,Experiment,Both,1,Automatic,main,99,20260304-140641,local,global,300,H,H,A,E,A-H.png,H-E.png,hH,hH,mask-4.png,mask-3.png,h,1,0.4575064000673592,h,1,0.13588880002498627,0.04706730006728321,0.04672950005624443,0.10038319998420775,0.10002210002858192,0.30316999997012317
RSVPLG03,cs,20260304-135818,1.0.2,20251105-084826,784,Experiment,Both,1,Automatic,main,100,20260304-140645,local,global,300,S,S,E,A,E-S.png,S-A.png,sS,sS,mask-3.png,mask-2.png,s,1,0.3600029000081122,s,1,0.06481640005949885,0.04814900003839284,0.04961260000709444,0.10243700002320111,0.101964799920097,0.30226150003727525
