exp,exp_initials,runtime,ver,modtime,sub,blocktype,targets,cuetype,mode,trialtype,trial,trialtime,t1_level,t2_level,t2_lag,t1,t2,distractor1,distractor2,stimfile1,stimfile2,t1_corr,t2_corr,maskfile1,maskfile2,t1_resp,t1_acc,t1_rt,t2_resp,t2_acc,t2_rt,t1_dur,t2_dur,t1mask_soa,t2mask_soa,t1t2_soa
RSVPLG03,km,20251023-115337,1.0.1,20251023-100704,713,Introduction,T1,1,Automatic,main,1,20251023-115404,local,local,750,S,S,E,E,E-S.png,E-S.png,sS,sS,mask-4.png,mask-2.png,s,1,0.8203634999954375,none,-5,0,0.09000579999701586,0.0994799000036437,0.18934049998642877,0.1995569999999134,0.7388881999941077
RSVPLG03,km,20251023-115337,1.0.1,20251023-100704,713,Introduction,T1,1,Automatic,main,2,20251023-115409,local,global,750,H,H,A,E,A-H.png,H-E.png,hH,hH,mask-1.png,mask-2.png,h,1,1.4344987000076799,none,-5,0,0.09852980000141542,0.09985830000368878,0.2000759999937145,0.19928440000512637,0.7491430999943987
RSVPLG03,km,20251023-115337,1.0.1,20251023-100704,713,Introduction,T1,1,Automatic,main,3,20251023-115415,global,local,750,H,H,E,E,H-E.png,E-H.png,hH,hH,mask-3.png,mask-3.png,s,0,2.3556174999976065,none,-5,0,0.09960519999731332,0.09965449999435805,0.19940440000209492,0.19984159999876283,0.7496262000058778
RSVPLG03,km,20251023-115337,1.0.1,20251023-100704,713,Introduction,T1,1,Automatic,main,4,20251023-115422,global,global,750,H,H,A,A,H-A.png,H-A.png,hH,hH,mask-1.png,mask-2.png,h,1,0.5492667000071378,none,-5,0,0.09981759999936912,0.10063529999752063,0.1995898000022862,0.20090899999195244,0.7490392000036081
RSVPLG03,km,20251023-115337,1.0.1,20251023-100704,713,Introduction,T1,1,Automatic,main,5,20251023-115426,local,global,750,S,H,A,A,A-S.png,H-A.png,sS,hH,mask-1.png,mask-3.png,s,1,0.7542547000048216,none,-5,0,0.10078860000066925,0.09867730000405572,0.20053220000409056,0.20045089999621268,0.750248800002737
RSVPLG03,km,20251023-115337,1.0.1,20251023-100704,713,Introduction,T1,1,Automatic,main,6,20251023-115431,local,local,750,S,H,A,E,A-S.png,E-H.png,sS,hH,mask-4.png,mask-1.png,h,0,2.6218628999922657,none,-5,0,0.10089579998748377,0.10065300000132993,0.19979739999689627,0.20032869999704417,0.749019099996076
RSVPLG03,km,20251023-115337,1.0.1,20251023-100704,713,Introduction,T1,1,Automatic,main,7,20251023-115438,global,local,750,H,S,E,A,H-E.png,A-S.png,hH,sS,mask-1.png,mask-2.png,s,0,1.727947999999742,none,-5,0,0.09950930000923108,0.09984719999192748,0.19989310001255944,0.19978090000222437,0.7499552000081167
RSVPLG03,km,20251023-115337,1.0.1,20251023-100704,713,Introduction,T1,1,Automatic,main,8,20251023-115444,global,local,750,S,S,E,A,S-E.png,A-S.png,sS,sS,mask-2.png,mask-4.png,s,1,0.6634669000050053,none,-5,0,0.09902870000223629,0.09868419999838807,0.19807430000219028,0.1985800999973435,0.7498144999990473
RSVPLG03,km,20251023-115337,1.0.1,20251023-100704,713,Introduction,T1,1,Automatic,main,9,20251023-115449,local,global,750,H,H,E,E,E-H.png,H-E.png,hH,hH,mask-2.png,mask-2.png,h,1,3.2774930000014137,none,-5,0,0.09833730000536889,0.10044750000815839,0.19820189999882132,0.2012727000110317,0.7477803999936441
RSVPLG03,km,20251023-115337,1.0.1,20251023-100704,713,Introduction,T1,1,Automatic,main,10,20251023-115456,local,local,750,H,S,A,E,A-H.png,E-S.png,hH,sS,mask-3.png,mask-2.png,h,1,1.5401209999981802,none,-5,0,0.0998120000003837,0.09992239999701269,0.19940300000598654,0.2007305000006454,0.7498938000062481
RSVPLG03,km,20251023-115337,1.0.1,20251023-100704,713,Introduction,T1,1,Automatic,main,11,20251023-115502,global,global,750,H,S,A,A,H-A.png,S-A.png,hH,sS,mask-1.png,mask-4.png,s,0,2.042533400002867,none,-5,0,0.09981800000241492,0.09992480000073556,0.199536200001603,0.19835779999266379,0.7498652000067523
RSVPLG03,km,20251023-115337,1.0.1,20251023-100704,713,Introduction,T1,1,Automatic,main,12,20251023-115508,global,global,750,H,H,A,E,H-A.png,H-E.png,hH,hH,mask-3.png,mask-2.png,h,1,0.3330521000025328,none,-5,0,0.10123990000283811,0.09984419999818783,0.2007471999968402,0.19979009999951813,0.7512360999971861
RSVPLG03,km,20251023-115337,1.0.1,20251023-100704,713,Introduction,T1,1,Automatic,main,13,20251023-115513,global,local,750,H,H,E,A,H-E.png,A-H.png,hH,hH,mask-3.png,mask-2.png,h,1,0.51358079999045,none,-5,0,0.09941589999652933,0.10024650000559632,0.20094149999204092,0.20020320000185166,0.7497069999953965
RSVPLG03,km,20251023-115337,1.0.1,20251023-100704,713,Introduction,T1,1,Automatic,main,14,20251023-115518,global,global,750,S,H,A,A,S-A.png,H-A.png,sS,hH,mask-2.png,mask-4.png,s,1,0.5933197999984259,none,-5,0,0.1007687000092119,0.09891830000560731,0.20073569999658503,0.19872330001089722,0.7501791999966372
RSVPLG03,km,20251023-115337,1.0.1,20251023-100704,713,Introduction,T1,1,Automatic,main,15,20251023-115522,local,local,750,H,H,A,E,A-H.png,E-H.png,hH,hH,mask-4.png,mask-3.png,s,0,1.9568762999988394,none,-5,0,0.09977169999910984,0.09872150000592228,0.1996242000022903,0.19988179999927524,0.7492454000021098
RSVPLG03,km,20251023-115337,1.0.1,20251023-100704,713,Introduction,T1,1,Automatic,main,16,20251023-115528,local,global,750,H,H,A,A,A-H.png,H-A.png,hH,hH,mask-2.png,mask-3.png,h,1,1.9469428000011249,none,-5,0,0.10082120000151917,0.09882470000593457,0.19991499999014195,0.19754870000178926,0.7505441999965115
RSVPLG03,km,20251023-115551,1.0.1,20251023-100704,713,Practice,T1,1,Automatic,main,1,20251023-115617,global,local,300,H,S,E,E,H-E.png,E-S.png,hH,sS,mask-1.png,mask-1.png,s,0,4.882193399986136,none,-5,0,0.039868200008641,0.050420500003383495,0.09032630000729114,0.1001994999969611,0.29052140000567306
RSVPLG03,km,20251023-115551,1.0.1,20251023-100704,713,Practice,T1,1,Automatic,main,2,20251023-115625,local,local,300,S,S,E,A,E-S.png,A-S.png,sS,sS,mask-1.png,mask-4.png,s,1,0.8467405999981565,none,-5,0,0.0507289000088349,0.04909570000017993,0.10154300001158845,0.09930739999981597,0.3001889000006486
RSVPLG03,km,20251023-115551,1.0.1,20251023-100704,713,Practice,T1,1,Automatic,main,3,20251023-115629,global,local,750,H,S,E,A,H-E.png,A-S.png,hH,sS,mask-3.png,mask-1.png,h,1,0.30337409999629017,none,-5,0,0.04966530000092462,0.049258900005952455,0.09941660000185948,0.09905000000435393,0.7500618000049144
RSVPLG03,km,20251023-115551,1.0.1,20251023-100704,713,Practice,T1,1,Automatic,main,4,20251023-115634,global,global,300,H,H,A,E,H-A.png,H-E.png,hH,hH,mask-1.png,mask-3.png,h,1,0.7401347000122769,none,-5,0,0.05067430000053719,0.05017030000453815,0.10052629999700002,0.09990970000217203,0.3004404999956023
RSVPLG03,km,20251023-115551,1.0.1,20251023-100704,713,Practice,T1,1,Automatic,main,5,20251023-115638,local,local,300,H,H,E,E,E-H.png,E-H.png,hH,hH,mask-1.png,mask-2.png,h,1,0.4204539000056684,none,-5,0,0.050822200006223284,0.0485880000051111,0.10058850000496022,0.09848430000420194,0.3008412000053795
RSVPLG03,km,20251023-115551,1.0.1,20251023-100704,713,Practice,T1,1,Automatic,main,6,20251023-115642,global,global,750,H,H,A,A,H-A.png,H-A.png,hH,hH,mask-3.png,mask-4.png,h,1,0.36062600000877865,none,-5,0,0.04979069999535568,0.049745399999665096,0.09970479999901727,0.09975559999293182,0.7505794000026071
RSVPLG03,km,20251023-115551,1.0.1,20251023-100704,713,Practice,T1,1,Automatic,main,7,20251023-115647,local,global,750,H,H,E,E,E-H.png,H-E.png,hH,hH,mask-2.png,mask-3.png,h,1,0.3217651000013575,none,-5,0,0.050750099995639175,0.050848700004280545,0.09895649999089073,0.09987259999616072,0.7494513999990886
RSVPLG03,km,20251023-115551,1.0.1,20251023-100704,713,Practice,T1,1,Automatic,main,8,20251023-115651,local,global,300,S,S,A,A,A-S.png,S-A.png,sS,sS,mask-1.png,mask-3.png,s,1,0.49629929999355227,none,-5,0,0.050614699997822754,0.05083410000952426,0.10091690000263043,0.10035819999757223,0.2991907999967225
RSVPLG03,km,20251023-115551,1.0.1,20251023-100704,713,Practice,T1,1,Automatic,main,9,20251023-115655,local,global,750,S,S,A,E,A-S.png,S-E.png,sS,sS,mask-3.png,mask-2.png,s,1,0.30960700000287034,none,-5,0,0.05026730000099633,0.05059420000179671,0.1007126999902539,0.09961549998843111,0.7515653000009479
RSVPLG03,km,20251023-115551,1.0.1,20251023-100704,713,Practice,T1,1,Automatic,main,10,20251023-115659,global,local,300,S,H,E,A,S-E.png,A-H.png,sS,hH,mask-1.png,mask-2.png,s,1,3.0406999999977415,none,-5,0,0.049503400005050935,0.04946650000056252,0.09911600001214538,0.10016149999864865,0.3003542000078596
RSVPLG03,km,20251023-115551,1.0.1,20251023-100704,713,Practice,T1,1,Automatic,main,11,20251023-115706,local,local,750,H,S,E,A,E-H.png,A-S.png,hH,sS,mask-1.png,mask-3.png,h,1,0.42726549999497365,none,-5,0,0.050369899996439926,0.048612900005537085,0.10020649999205489,0.09854390000691637,0.7516506999963894
RSVPLG03,km,20251023-115551,1.0.1,20251023-100704,713,Practice,T1,1,Automatic,main,12,20251023-115711,global,global,300,S,H,A,A,S-A.png,H-A.png,sS,hH,mask-1.png,mask-2.png,s,1,0.8855616999935592,none,-5,0,0.04945570000563748,0.049360600009094924,0.1010324000089895,0.10090030000719707,0.3005138000007719
RSVPLG03,km,20251023-115551,1.0.1,20251023-100704,713,Practice,T1,1,Automatic,main,13,20251023-115715,global,local,750,S,S,E,A,S-E.png,A-S.png,sS,sS,mask-1.png,mask-1.png,s,1,0.9171078000072157,none,-5,0,0.049427700010710396,0.04838749999180436,0.09871530000236817,0.09864019999804441,0.7503986000083387
RSVPLG03,km,20251023-115551,1.0.1,20251023-100704,713,Practice,T1,1,Automatic,main,14,20251023-115720,global,global,750,S,S,E,A,S-E.png,S-A.png,sS,sS,mask-2.png,mask-2.png,s,1,1.129198800001177,none,-5,0,0.049869499998749234,0.0487035999976797,0.09985500000766478,0.09971199999563396,0.7501960000081453
RSVPLG03,km,20251023-115551,1.0.1,20251023-100704,713,Practice,T1,1,Automatic,main,15,20251023-115725,local,global,300,S,S,A,E,A-S.png,S-E.png,sS,sS,mask-4.png,mask-1.png,s,1,1.6692187000007834,none,-5,0,0.05125479999696836,0.0486220000020694,0.10079070000210777,0.10009940000600182,0.3013243000023067
RSVPLG03,km,20251023-115551,1.0.1,20251023-100704,713,Practice,T1,1,Automatic,main,16,20251023-115730,local,local,750,H,S,E,A,E-H.png,A-S.png,hH,sS,mask-2.png,mask-1.png,s,0,0.8683162999950582,none,-5,0,0.04970540000067558,0.049750699996366166,0.10055540000030305,0.09993690000555944,0.7497526999941329
RSVPLG03,km,20251023-115759,1.0.1,20251023-100704,713,Introduction,Both,1,Automatic,main,1,20251023-115840,global,local,750,H,S,E,A,H-E.png,A-S.png,hH,sS,mask-3.png,mask-2.png,h,1,2.387344899994787,h,0,4.734116100007668,0.09090880000439938,0.10115859999496024,0.19012970000039786,0.20045039999240544,0.7391558000090299
RSVPLG03,km,20251023-115759,1.0.1,20251023-100704,713,Introduction,Both,1,Automatic,main,2,20251023-115852,local,global,750,S,H,E,E,E-S.png,H-E.png,sS,hH,mask-2.png,mask-2.png,s,1,0.9395260000019334,h,1,0.49362169999221805,0.09679260000120848,0.09872329999052454,0.19580950000090525,0.20039980000001378,0.746413400003803
RSVPLG03,km,20251023-115759,1.0.1,20251023-100704,713,Introduction,Both,1,Automatic,main,3,20251023-115857,global,global,750,H,H,E,E,H-E.png,H-E.png,hH,hH,mask-2.png,mask-1.png,s,0,0.9529098000057274,h,1,0.7658647000062047,0.0997402999928454,0.09967939999478403,0.1998133000015514,0.19842999998945743,0.7478943000023719
RSVPLG03,km,20251023-115759,1.0.1,20251023-100704,713,Introduction,Both,1,Automatic,main,4,20251023-115904,local,local,750,H,H,E,A,E-H.png,A-H.png,hH,hH,mask-1.png,mask-3.png,h,1,1.1664888000086648,h,1,0.23853109999618027,0.10018780000973493,0.09980700000596698,0.19989080000959802,0.19874399999389425,0.749570500003756
RSVPLG03,km,20251023-115759,1.0.1,20251023-100704,713,Introduction,Both,1,Automatic,main,5,20251023-115909,local,local,750,S,H,E,E,E-S.png,E-H.png,sS,hH,mask-3.png,mask-3.png,s,1,1.1464981000026455,h,1,0.39853769999172073,0.09955030000128318,0.10019169999577571,0.19964710000203922,0.19943500000226777,0.747606499993708
RSVPLG03,km,20251023-115759,1.0.1,20251023-100704,713,Introduction,Both,1,Automatic,main,6,20251023-115915,global,global,750,S,H,A,A,S-A.png,H-A.png,sS,hH,mask-1.png,mask-3.png,h,0,0.878328100006911,h,1,0.5745765000028769,0.09998139999515843,0.09920209999836516,0.1983675000083167,0.19848330000240821,0.7494789000047604
RSVPLG03,km,20251023-115759,1.0.1,20251023-100704,713,Introduction,Both,1,Automatic,main,7,20251023-115921,global,global,750,S,S,A,A,S-A.png,S-A.png,sS,sS,mask-4.png,mask-1.png,s,1,1.7807526999968104,s,1,0.382413400002406,0.09894550000899471,0.09902280000096653,0.19935340000665747,0.19968130000052042,0.7483070000016596
RSVPLG03,km,20251023-115759,1.0.1,20251023-100704,713,Introduction,Both,1,Automatic,main,8,20251023-115927,local,local,750,S,S,E,E,E-S.png,E-S.png,sS,sS,mask-3.png,mask-3.png,s,1,0.5762377999926684,s,1,0.20354489999590442,0.09971590001077857,0.09849980000581127,0.1995024000061676,0.19802750000962988,0.7495644000009634
RSVPLG03,km,20251023-115759,1.0.1,20251023-100704,713,Introduction,Both,1,Automatic,main,9,20251023-115932,global,local,750,H,H,A,E,H-A.png,E-H.png,hH,hH,mask-4.png,mask-1.png,h,1,1.4626977000007173,s,0,0.5586845000070753,0.10166100000787992,0.10049900000740308,0.1996147000027122,0.19933879999734927,0.74860350000381
RSVPLG03,km,20251023-115759,1.0.1,20251023-100704,713,Introduction,Both,1,Automatic,main,10,20251023-115939,global,local,750,S,S,E,A,S-E.png,A-S.png,sS,sS,mask-1.png,mask-4.png,s,1,1.2647681000089506,s,1,0.41667259999667294,0.09981699999480043,0.10153949999948964,0.20059149998996872,0.1998061000049347,0.7477402999938931
RSVPLG03,km,20251023-115759,1.0.1,20251023-100704,713,Introduction,Both,1,Automatic,main,11,20251023-115945,local,global,750,H,S,A,E,A-H.png,S-E.png,hH,sS,mask-1.png,mask-4.png,h,1,0.7406111000018427,h,0,0.7989645999914501,0.09919239999726415,0.10018680000212044,0.1991200999909779,0.20042160000593867,0.7477250999945682
RSVPLG03,km,20251023-115759,1.0.1,20251023-100704,713,Introduction,Both,1,Automatic,main,12,20251023-115951,local,local,750,S,S,E,E,E-S.png,E-S.png,sS,sS,mask-4.png,mask-3.png,s,1,0.7428302000043914,s,1,0.36571350001031533,0.09979430001112632,0.09980520000681281,0.1987102999992203,0.20072570000775158,0.748137400005362
RSVPLG03,km,20251023-115759,1.0.1,20251023-100704,713,Introduction,Both,1,Automatic,main,13,20251023-115956,global,global,750,H,H,A,A,H-A.png,H-A.png,hH,hH,mask-1.png,mask-4.png,h,1,1.7870452999923145,s,0,0.3178955999901518,0.10077639999508392,0.1011646999977529,0.20030419999966398,0.2013740999973379,0.7476566999976058
RSVPLG03,km,20251023-115759,1.0.1,20251023-100704,713,Introduction,Both,1,Automatic,main,14,20251023-120003,global,local,750,S,S,A,E,S-A.png,E-S.png,sS,sS,mask-4.png,mask-3.png,s,1,0.7791589999978896,s,1,0.27127689999178983,0.10079110000515357,0.09975420001137536,0.199814100007643,0.19998750000377186,0.7498182999988785
RSVPLG03,km,20251023-115759,1.0.1,20251023-100704,713,Introduction,Both,1,Automatic,main,15,20251023-120008,local,global,750,S,S,E,E,E-S.png,S-E.png,sS,sS,mask-4.png,mask-2.png,s,1,1.358297800004948,h,0,1.1991279000067152,0.09897059999639168,0.09964960000070278,0.19971760000044014,0.1984214999974938,0.749235299997963
RSVPLG03,km,20251023-115759,1.0.1,20251023-100704,713,Introduction,Both,1,Automatic,main,16,20251023-120015,local,global,750,S,S,E,E,E-S.png,S-E.png,sS,sS,mask-4.png,mask-4.png,s,1,0.8883498000068357,s,1,0.8609139000036521,0.09989029999997001,0.09764320000249427,0.1998406999919098,0.1983916000026511,0.7497612999868579
RSVPLG03,km,20251023-120126,1.0.1,20251023-100704,713,Practice,Both,1,Automatic,main,1,20251023-120155,global,local,750,S,S,A,A,S-A.png,A-S.png,sS,sS,mask-2.png,mask-4.png,s,1,1.7204053000023123,h,0,0.3653939999931026,0.047765500014065765,0.048586899996735156,0.10026970000762958,0.09897939999063965,0.7495064000104321
RSVPLG03,km,20251023-120126,1.0.1,20251023-100704,713,Practice,Both,1,Automatic,main,2,20251023-120201,local,global,300,H,S,E,E,E-H.png,S-E.png,hH,sS,mask-1.png,mask-4.png,h,1,1.3020384999981616,s,1,0.5590624999895226,0.048792999994475394,0.05020959999819752,0.09870999999111518,0.10098940000170842,0.29839609999908134
RSVPLG03,km,20251023-120126,1.0.1,20251023-100704,713,Practice,Both,1,Automatic,main,3,20251023-120206,local,local,750,S,S,E,E,E-S.png,E-S.png,sS,sS,mask-3.png,mask-2.png,s,1,0.3922578999918187,s,1,0.1879278999986127,0.049808399999164976,0.049162399998749606,0.09973950000130571,0.09906379999301862,0.7494261999963783
RSVPLG03,km,20251023-120126,1.0.1,20251023-100704,713,Practice,Both,1,Automatic,main,4,20251023-120211,global,global,300,H,H,E,A,H-E.png,H-A.png,hH,hH,mask-2.png,mask-3.png,h,1,0.9054620999959297,h,1,0.19249889999628067,0.05076610000105575,0.05061349998868536,0.10054379999928642,0.10025389998918399,0.29977789999975357
RSVPLG03,km,20251023-120126,1.0.1,20251023-100704,713,Practice,Both,1,Automatic,main,5,20251023-120216,global,local,300,H,H,A,A,H-A.png,A-H.png,hH,hH,mask-3.png,mask-4.png,h,1,1.8813226000056602,s,0,0.15827240000362508,0.050629499994101934,0.051032600007602014,0.1007264999934705,0.09934220000286587,0.2990239999926416
RSVPLG03,km,20251023-120126,1.0.1,20251023-100704,713,Practice,Both,1,Automatic,main,6,20251023-120222,global,global,300,S,S,E,E,S-E.png,S-E.png,sS,sS,mask-4.png,mask-4.png,s,1,0.6908503000013297,s,1,0.22435469999618363,0.04879129999608267,0.04997060001187492,0.09910320000199135,0.09988190000876784,0.2990313999907812
RSVPLG03,km,20251023-120126,1.0.1,20251023-100704,713,Practice,Both,1,Automatic,main,7,20251023-120226,global,local,750,H,S,E,A,H-E.png,A-S.png,hH,sS,mask-4.png,mask-4.png,h,1,0.5241511000058381,s,1,0.44586780000827275,0.04966520000016317,0.050738199992338195,0.10033000000112224,0.10142989999440033,0.7496641000034288
RSVPLG03,km,20251023-120126,1.0.1,20251023-100704,713,Practice,Both,1,Automatic,main,8,20251023-120231,local,global,300,S,H,A,E,A-S.png,H-E.png,sS,hH,mask-2.png,mask-2.png,h,0,0.8643542999925558,s,0,0.15927269999519922,0.050265500001842156,0.051371599998674355,0.10006120000616647,0.10029620000568684,0.2981749000027776
RSVPLG03,km,20251023-120126,1.0.1,20251023-100704,713,Practice,Both,1,Automatic,main,9,20251023-120236,global,global,750,H,H,E,A,H-E.png,H-A.png,hH,hH,mask-1.png,mask-4.png,h,1,0.5520473000069614,h,1,0.25522360000468325,0.048780199998873286,0.0494753000093624,0.09782110000378452,0.0992003000137629,0.7488443999900483
RSVPLG03,km,20251023-120126,1.0.1,20251023-100704,713,Practice,Both,1,Automatic,main,10,20251023-120241,global,local,300,H,H,E,E,H-E.png,E-H.png,hH,hH,mask-2.png,mask-2.png,h,1,0.6625939999939874,s,0,1.9668713999999454,0.04873389999556821,0.051248599993414246,0.09895149999647401,0.10126579999632668,0.2989529000042239
RSVPLG03,km,20251023-120126,1.0.1,20251023-100704,713,Practice,Both,1,Automatic,main,11,20251023-120248,local,local,300,H,H,E,E,E-H.png,E-H.png,hH,hH,mask-2.png,mask-1.png,h,1,0.5467640999995638,h,1,0.49502319999737665,0.05051159999857191,0.05054229999950621,0.10028859999147244,0.0996305000007851,0.2994944999954896
RSVPLG03,km,20251023-120126,1.0.1,20251023-100704,713,Practice,Both,1,Automatic,main,12,20251023-120252,global,global,750,S,S,A,E,S-A.png,S-E.png,sS,sS,mask-3.png,mask-2.png,s,1,1.162617100009811,s,1,0.35068309999769554,0.04969260000507347,0.05053929999121465,0.0991550000035204,0.09978350000164937,0.7493818000075407
RSVPLG03,km,20251023-120126,1.0.1,20251023-100704,713,Practice,Both,1,Automatic,main,13,20251023-120258,local,local,750,S,S,A,A,A-S.png,A-S.png,sS,sS,mask-4.png,mask-1.png,h,0,1.471358799986774,s,1,1.087051499998779,0.04955179999524262,0.04938000001129694,0.10029919999942649,0.10012440000718925,0.75042179999582
RSVPLG03,km,20251023-120126,1.0.1,20251023-100704,713,Practice,Both,1,Automatic,main,14,20251023-120305,local,global,750,H,H,A,A,A-H.png,H-A.png,hH,hH,mask-4.png,mask-2.png,h,1,0.889397499995539,h,1,0.25308329999097623,0.04840809998859186,0.04850819999410305,0.09891819999029394,0.09970829999656416,0.748927199994796
RSVPLG03,km,20251023-120126,1.0.1,20251023-100704,713,Practice,Both,1,Automatic,main,15,20251023-120310,local,local,300,S,H,A,A,A-S.png,A-H.png,sS,hH,mask-3.png,mask-1.png,s,1,1.5163276999955997,h,1,0.38245150000147987,0.050367200004984625,0.049474300001747906,0.10110179999901447,0.0999110999982804,0.30034169999998994
RSVPLG03,km,20251023-120126,1.0.1,20251023-100704,713,Practice,Both,1,Automatic,main,16,20251023-120316,local,global,750,H,S,A,A,A-H.png,S-A.png,hH,sS,mask-2.png,mask-4.png,h,1,0.7607082000031369,s,1,0.44670549999864306,0.04967249999754131,0.050647900003241375,0.09935489999770653,0.10052440001163632,0.7490240999904927
RSVPLG03,km,20251023-120403,1.0.1,20251023-100704,713,Experiment,Both,1,Automatic,warmup,1,20251023-120438,global,local,750,H,S,E,A,H-E.png,A-S.png,hH,sS,mask-3.png,mask-2.png,h,1,0.5786600999999791,s,1,0.15522480000799987,0.039900500007206574,0.049724099997547455,0.0901060000032885,0.10054329999547917,0.741046399998595
RSVPLG03,km,20251023-120403,1.0.1,20251023-100704,713,Experiment,Both,1,Automatic,warmup,2,20251023-120443,global,local,300,H,H,A,A,H-A.png,A-H.png,hH,hH,mask-4.png,mask-3.png,h,1,0.4915286000032211,h,1,0.14130109999678098,0.04939090000698343,0.050464899992221035,0.09926220000488684,0.09967260000121314,0.2989224000048125
RSVPLG03,km,20251023-120403,1.0.1,20251023-100704,713,Experiment,Both,1,Automatic,warmup,3,20251023-120448,global,global,300,S,H,E,E,S-E.png,H-E.png,sS,hH,mask-2.png,mask-1.png,s,1,0.5264156000048388,h,1,0.2681984999944689,0.048929900003713556,0.049528699993970804,0.09852410000166856,0.09911700000520796,0.29931740000029095
RSVPLG03,km,20251023-120403,1.0.1,20251023-100704,713,Experiment,Both,1,Automatic,warmup,4,20251023-120452,local,local,300,S,S,A,A,A-S.png,A-S.png,sS,sS,mask-4.png,mask-2.png,s,1,0.402193999994779,h,0,0.47857500000100117,0.0487925999914296,0.04852589999791235,0.09883099999569822,0.0984147999988636,0.2991924999951152
RSVPLG03,km,20251023-120403,1.0.1,20251023-100704,713,Experiment,Both,1,Automatic,warmup,5,20251023-120457,local,global,750,H,S,E,E,E-H.png,S-E.png,hH,sS,mask-4.png,mask-2.png,h,1,0.45821140000771265,s,1,0.354018800004269,0.04846420000831131,0.052127399991150014,0.09930670000903774,0.09996969999338035,0.7475032000074862
RSVPLG03,km,20251023-120403,1.0.1,20251023-100704,713,Experiment,Both,1,Automatic,main,6,20251023-120502,local,local,300,H,H,E,A,E-H.png,A-H.png,hH,hH,mask-2.png,mask-1.png,h,1,0.37479699999676086,s,0,0.6535809999913909,0.04783560000942089,0.049838099992484786,0.0997514000046067,0.09881379999569617,0.2993354000063846
RSVPLG03,km,20251023-120403,1.0.1,20251023-100704,713,Experiment,Both,1,Automatic,main,7,20251023-120506,global,local,300,S,S,A,E,S-A.png,E-S.png,sS,sS,mask-3.png,mask-1.png,h,0,0.5467009999993024,h,0,0.17541199999686796,0.05043260000820737,0.05063880000670906,0.09994169999845326,0.09967520000645891,0.3003457000013441
RSVPLG03,km,20251023-120403,1.0.1,20251023-100704,713,Experiment,Both,1,Automatic,main,8,20251023-120511,local,local,750,S,H,E,E,E-S.png,E-H.png,sS,hH,mask-3.png,mask-3.png,s,1,0.5624385999981314,h,1,0.33478430000832304,0.04871060000732541,0.04859839999699034,0.0985592000070028,0.09766339999623597,0.7494965000078082
RSVPLG03,km,20251023-120403,1.0.1,20251023-100704,713,Experiment,Both,1,Automatic,main,9,20251023-120516,local,global,750,S,H,E,A,E-S.png,H-A.png,sS,hH,mask-4.png,mask-3.png,s,1,0.6453124999970896,h,1,0.33557049999944866,0.05020620000141207,0.05061259999638423,0.10023910000745673,0.10058179999759886,0.75006150000263
RSVPLG03,km,20251023-120403,1.0.1,20251023-100704,713,Experiment,Both,1,Automatic,main,10,20251023-120521,local,global,300,S,S,A,E,A-S.png,S-E.png,sS,sS,mask-4.png,mask-1.png,s,1,0.5680030999938026,h,0,0.2389368000003742,0.049822700006188825,0.04966249999415595,0.09924680000403896,0.10001109998847824,0.2981696000060765
RSVPLG03,km,20251023-120403,1.0.1,20251023-100704,713,Experiment,Both,1,Automatic,main,11,20251023-120526,global,global,750,H,H,E,A,H-E.png,H-A.png,hH,hH,mask-3.png,mask-2.png,h,1,0.3246768999961205,h,1,0.24070529999153223,0.04868200000782963,0.04968870000448078,0.09935950000362936,0.10117080000054557,0.7503393000079086
RSVPLG03,km,20251023-120403,1.0.1,20251023-100704,713,Experiment,Both,1,Automatic,main,12,20251023-120530,global,global,750,S,H,A,A,S-A.png,H-A.png,sS,hH,mask-3.png,mask-2.png,s,1,0.4546937999984948,h,1,0.5081977000081679,0.04965980000270065,0.05049720000533853,0.09850939999159891,0.09917790000326931,0.7486102999973809
RSVPLG03,km,20251023-120403,1.0.1,20251023-100704,713,Experiment,Both,1,Automatic,main,13,20251023-120535,global,global,750,H,S,E,A,H-E.png,S-A.png,hH,sS,mask-1.png,mask-3.png,h,1,0.3331006000080379,s,1,0.36604980000993237,0.049549999996088445,0.05070510000223294,0.09922429999278393,0.10052550000546034,0.7490304999955697
RSVPLG03,km,20251023-120403,1.0.1,20251023-100704,713,Experiment,Both,1,Automatic,main,14,20251023-120540,local,local,750,S,H,E,A,E-S.png,A-H.png,sS,hH,mask-2.png,mask-1.png,s,1,0.46429689999786206,h,1,0.2539409000019077,0.050522200006525964,0.04999870000756346,0.10077750000345986,0.09782180000911467,0.7509642999939388
RSVPLG03,km,20251023-120403,1.0.1,20251023-100704,713,Experiment,Both,1,Automatic,main,15,20251023-120545,global,local,750,S,H,A,A,S-A.png,A-H.png,sS,hH,mask-2.png,mask-3.png,s,1,0.4880717000050936,h,1,0.2867428000026848,0.04972299998917151,0.04937180000706576,0.10019409999949858,0.0996828000061214,0.7499451999901794
RSVPLG03,km,20251023-120403,1.0.1,20251023-100704,713,Experiment,Both,1,Automatic,main,16,20251023-120550,global,local,300,H,H,A,A,H-A.png,A-H.png,hH,hH,mask-2.png,mask-4.png,s,0,1.2823936000058893,h,1,0.23766759999853093,0.05050689999188762,0.05145640000409912,0.10045649998937733,0.10115740000037476,0.29866729999776
RSVPLG03,km,20251023-120403,1.0.1,20251023-100704,713,Experiment,Both,1,Automatic,main,17,20251023-120556,local,local,300,S,S,A,E,A-S.png,E-S.png,sS,sS,mask-4.png,mask-3.png,s,1,1.0769888000068022,h,0,0.44772789999842644,0.04969790000177454,0.05168099999718834,0.09866120001242962,0.09986440000648145,0.2983511000056751
RSVPLG03,km,20251023-120403,1.0.1,20251023-100704,713,Experiment,Both,1,Automatic,main,18,20251023-120601,local,local,750,S,S,E,E,E-S.png,E-S.png,sS,sS,mask-2.png,mask-2.png,s,1,0.4458082000055583,s,1,0.2700221999984933,0.04984829999739304,0.04983620000712108,0.10039209999376908,0.10182169999461621,0.7488964999938617
RSVPLG03,km,20251023-120403,1.0.1,20251023-100704,713,Experiment,Both,1,Automatic,main,19,20251023-120606,global,local,300,S,S,A,A,S-A.png,A-S.png,sS,sS,mask-2.png,mask-4.png,s,1,0.4515650000103051,h,0,0.31658969999989495,0.04790929998853244,0.04960369999753311,0.09892929998750333,0.09924369999498595,0.29844949999824166
RSVPLG03,km,20251023-120403,1.0.1,20251023-100704,713,Experiment,Both,1,Automatic,main,20,20251023-120610,local,global,300,S,H,E,E,E-S.png,H-E.png,sS,hH,mask-4.png,mask-1.png,s,1,0.5010876000014832,h,1,0.5887469000008423,0.04896869999356568,0.04971320000186097,0.09977440000511706,0.09946640000271145,0.2997947999974713
RSVPLG03,km,20251023-120403,1.0.1,20251023-100704,713,Experiment,Both,1,Automatic,main,21,20251023-120615,local,local,750,S,S,E,E,E-S.png,E-S.png,sS,sS,mask-4.png,mask-4.png,s,1,0.5361784999986412,s,1,0.30208580000908114,0.05072220000147354,0.049680600001011044,0.10054359999776352,0.09957580000627786,0.7507121999951778
RSVPLG03,km,20251023-120403,1.0.1,20251023-100704,713,Experiment,Both,1,Automatic,main,22,20251023-120620,local,global,300,H,S,E,E,E-H.png,S-E.png,hH,sS,mask-1.png,mask-4.png,h,1,0.5156697000056738,s,1,0.3499586999969324,0.04677330001140945,0.050589999998919666,0.09749770000053104,0.10012580000329763,0.29637360000924673
RSVPLG03,km,20251023-120403,1.0.1,20251023-100704,713,Experiment,Both,1,Automatic,main,23,20251023-120625,local,global,750,S,H,E,A,E-S.png,H-A.png,sS,hH,mask-1.png,mask-4.png,s,1,0.4587638999946648,h,1,0.6222056999977212,0.04937330000393558,0.05043139999906998,0.09836980000545736,0.09978219999175053,0.7473369000072125
RSVPLG03,km,20251023-120403,1.0.1,20251023-100704,713,Experiment,Both,1,Automatic,main,24,20251023-120630,global,global,750,H,S,E,A,H-E.png,S-A.png,hH,sS,mask-1.png,mask-1.png,h,1,0.5592548999993596,s,1,0.26977379999880213,0.050698799997917376,0.05071939999470487,0.1005455999984406,0.10055099999590311,0.7497793000075035
RSVPLG03,km,20251023-120403,1.0.1,20251023-100704,713,Experiment,Both,1,Automatic,main,25,20251023-120635,local,global,750,S,H,E,A,E-S.png,H-A.png,sS,hH,mask-3.png,mask-2.png,s,1,0.7018052999919746,s,0,0.3161026000016136,0.049907699998584576,0.048458899997058325,0.0997849999985192,0.09898479998810217,0.7502145000034943
RSVPLG03,km,20251023-120403,1.0.1,20251023-100704,713,Experiment,Both,1,Automatic,main,26,20251023-120651,global,local,750,S,H,A,E,S-A.png,E-H.png,sS,hH,mask-1.png,mask-4.png,s,1,0.34135519999836106,h,1,0.2505628000071738,0.049624799998127855,0.050774000003002584,0.09978930000215769,0.10072129999753088,0.749561899996479
RSVPLG03,km,20251023-120403,1.0.1,20251023-100704,713,Experiment,Both,1,Automatic,main,27,20251023-120656,global,local,300,S,H,E,E,S-E.png,E-H.png,sS,hH,mask-1.png,mask-2.png,s,1,0.4001596000016434,h,1,0.06406679999781772,0.04871160000038799,0.04969320000964217,0.09938980000151787,0.1006696000113152,0.2990575000003446
RSVPLG03,km,20251023-120403,1.0.1,20251023-100704,713,Experiment,Both,1,Automatic,main,28,20251023-120700,local,local,300,H,H,A,A,A-H.png,A-H.png,hH,hH,mask-4.png,mask-1.png,h,1,0.43604380000033416,h,1,0.5714329999900656,0.04970129999855999,0.04956520000996534,0.10153790000185836,0.10134230001131073,0.2998026999994181
RSVPLG03,km,20251023-120403,1.0.1,20251023-100704,713,Experiment,Both,1,Automatic,main,29,20251023-120705,local,global,300,S,S,E,E,E-S.png,S-E.png,sS,sS,mask-3.png,mask-4.png,s,1,0.3753131000121357,h,0,0.38338989998737816,0.051439699993352406,0.05149859999073669,0.09974249999504536,0.10011549999762792,0.2996290000010049
RSVPLG03,km,20251023-120403,1.0.1,20251023-100704,713,Experiment,Both,1,Automatic,main,30,20251023-120709,local,global,300,H,H,E,A,E-H.png,H-A.png,hH,hH,mask-1.png,mask-2.png,s,0,0.43991770000138786,h,1,0.21866680000675842,0.049925100000109524,0.05046009999932721,0.0998307000118075,0.10034879999875557,0.2984078000008594
RSVPLG03,km,20251023-120403,1.0.1,20251023-100704,713,Experiment,Both,1,Automatic,main,31,20251023-120714,global,global,300,S,H,E,A,S-E.png,H-A.png,sS,hH,mask-4.png,mask-3.png,s,1,0.266251299995929,h,1,0.15789210000366438,0.049375999995390885,0.05089399999997113,0.09991839999565855,0.10180060000857338,0.29896529999678023
RSVPLG03,km,20251023-120403,1.0.1,20251023-100704,713,Experiment,Both,1,Automatic,main,32,20251023-120718,global,local,300,H,S,A,E,H-A.png,E-S.png,hH,sS,mask-4.png,mask-4.png,h,1,0.6915237000066554,s,1,0.28482899999653455,0.04991180000070017,0.048693100005039014,0.0987613000033889,0.09951910001109354,0.3003191000025254
RSVPLG03,km,20251023-120403,1.0.1,20251023-100704,713,Experiment,Both,1,Automatic,main,33,20251023-120722,global,local,750,H,H,A,E,H-A.png,E-H.png,hH,hH,mask-4.png,mask-1.png,s,0,0.5852486000076169,h,1,0.28677520000201184,0.048586799995973706,0.04872560000512749,0.09894470000290312,0.09856440000294242,0.7501090000005206
RSVPLG03,km,20251023-120403,1.0.1,20251023-100704,713,Experiment,Both,1,Automatic,main,34,20251023-120727,global,local,300,H,H,A,A,H-A.png,A-H.png,hH,hH,mask-2.png,mask-4.png,h,1,0.3226330000034068,h,1,0.18777869999757968,0.048748400004114956,0.05019160000665579,0.09859700000379235,0.10063220000301953,0.29900899999483954
RSVPLG03,km,20251023-120403,1.0.1,20251023-100704,713,Experiment,Both,1,Automatic,main,35,20251023-120732,local,global,300,H,H,A,E,A-H.png,H-E.png,hH,hH,mask-1.png,mask-4.png,s,0,0.8129535000043688,h,1,0.4303813000005903,0.049764300012611784,0.050599200010765344,0.09960070000670385,0.10135530000843573,0.2985281000001123
RSVPLG03,km,20251023-120403,1.0.1,20251023-100704,713,Experiment,Both,1,Automatic,main,36,20251023-120737,global,global,300,S,H,E,A,S-E.png,H-A.png,sS,hH,mask-1.png,mask-4.png,s,1,0.4540562000038335,h,1,0.18937130000267643,0.04969640000490472,0.048528600003919564,0.09947430000465829,0.10003680000954773,0.30047109999577515
RSVPLG03,km,20251023-120403,1.0.1,20251023-100704,713,Experiment,Both,1,Automatic,main,37,20251023-120741,local,global,750,H,S,A,A,A-H.png,S-A.png,hH,sS,mask-2.png,mask-4.png,h,1,0.4438157999975374,s,1,0.3869456000102218,0.04832070000702515,0.04826599999796599,0.097723800005042,0.10025529999984428,0.7495578000089154
RSVPLG03,km,20251023-120403,1.0.1,20251023-100704,713,Experiment,Both,1,Automatic,main,38,20251023-120746,global,local,300,H,H,E,A,H-E.png,A-H.png,hH,hH,mask-3.png,mask-1.png,h,1,0.46484690000943374,h,1,0.19526049999694806,0.04776619999029208,0.05110660000354983,0.09780219999083783,0.10199470000225119,0.2979759999871021
RSVPLG03,km,20251023-120403,1.0.1,20251023-100704,713,Experiment,Both,1,Automatic,main,39,20251023-120750,global,global,300,S,H,A,A,S-A.png,H-A.png,sS,hH,mask-2.png,mask-3.png,s,1,0.43573329999344423,h,1,0.22716070000024047,0.050749500005622394,0.04994040000019595,0.10024220000195783,0.09997490000387188,0.30001579999225214
RSVPLG03,km,20251023-120403,1.0.1,20251023-100704,713,Experiment,Both,1,Automatic,main,40,20251023-120755,local,local,300,S,H,A,A,A-S.png,A-H.png,sS,hH,mask-2.png,mask-3.png,s,1,0.6121045000036247,h,1,0.17833529999188613,0.04966600000625476,0.05057939999096561,0.09974060000968166,0.10057059999962803,0.2995763000071747
RSVPLG03,km,20251023-120403,1.0.1,20251023-100704,713,Experiment,Both,1,Automatic,main,41,20251023-120759,global,local,750,S,S,A,A,S-A.png,A-S.png,sS,sS,mask-1.png,mask-1.png,s,1,1.1361164999980247,h,0,0.33898049998970237,0.04990209999959916,0.0498723000055179,0.09897740000451449,0.10000720000243746,0.748422999997274
RSVPLG03,km,20251023-120403,1.0.1,20251023-100704,713,Experiment,Both,1,Automatic,main,42,20251023-120805,global,global,300,S,H,A,E,S-A.png,H-E.png,sS,hH,mask-1.png,mask-2.png,s,1,0.34234079999441747,h,1,0.19134249999478925,0.04974159999983385,0.05078950000461191,0.09970769999199547,0.10153640000498854,0.29868759999226313
RSVPLG03,km,20251023-120403,1.0.1,20251023-100704,713,Experiment,Both,1,Automatic,main,43,20251023-120809,global,global,300,S,S,A,A,S-A.png,S-A.png,sS,sS,mask-1.png,mask-2.png,s,1,0.3657150999933947,s,1,0.24156399999628775,0.04918639999232255,0.04940730000089388,0.10035509998851921,0.09994440000446048,0.29960499999288004
RSVPLG03,km,20251023-120403,1.0.1,20251023-100704,713,Experiment,Both,1,Automatic,main,44,20251023-120814,local,local,300,S,S,E,E,E-S.png,E-S.png,sS,sS,mask-3.png,mask-4.png,s,1,0.3370078000007197,h,0,0.46541570000408683,0.04882820000057109,0.04891709999355953,0.098836700009997,0.10017239999433514,0.2984160000050906
RSVPLG03,km,20251023-120403,1.0.1,20251023-100704,713,Experiment,Both,1,Automatic,main,45,20251023-120818,global,local,750,S,S,A,A,S-A.png,A-S.png,sS,sS,mask-2.png,mask-2.png,s,1,0.3913374000112526,s,1,0.3063084000023082,0.05036660000041593,0.05009699999936856,0.10054029998718761,0.10022150000440888,0.7502569999924162
RSVPLG03,km,20251023-120403,1.0.1,20251023-100704,713,Experiment,Both,1,Automatic,main,46,20251023-120823,global,local,300,H,H,A,A,H-A.png,A-H.png,hH,hH,mask-1.png,mask-1.png,s,0,1.3737315000034869,h,1,0.20667580000008456,0.05023520000395365,0.050424800007021986,0.10025050000695046,0.10070950000954326,0.2997227000014391
RSVPLG03,km,20251023-120403,1.0.1,20251023-100704,713,Experiment,Both,1,Automatic,main,47,20251023-120828,global,global,750,H,S,A,A,H-A.png,S-A.png,hH,sS,mask-2.png,mask-3.png,h,1,0.5453433000075165,s,1,0.3670559000020148,0.05072460000519641,0.049724299999070354,0.1004252999991877,0.09959149999485817,0.7507288000051631
RSVPLG03,km,20251023-120403,1.0.1,20251023-100704,713,Experiment,Both,1,Automatic,main,48,20251023-120833,local,local,750,S,S,A,A,A-S.png,A-S.png,sS,sS,mask-3.png,mask-3.png,s,1,0.6126939000096172,s,1,0.22305679999408312,0.04967160000524018,0.05069299999740906,0.09953279999899678,0.10079260000202339,0.7488584000093397
RSVPLG03,km,20251023-120403,1.0.1,20251023-100704,713,Experiment,Both,1,Automatic,main,49,20251023-120838,global,global,300,S,S,E,A,S-E.png,S-A.png,sS,sS,mask-3.png,mask-3.png,s,1,0.4762514000030933,h,0,0.26822420000098646,0.05136990000028163,0.05144540000765119,0.10076680000929628,0.10206060000928119,0.2995792000001529
RSVPLG03,km,20251023-120403,1.0.1,20251023-100704,713,Experiment,Both,1,Automatic,main,50,20251023-120843,global,local,750,S,H,E,A,S-E.png,A-H.png,sS,hH,mask-4.png,mask-2.png,s,1,0.974566999997478,h,1,0.14354550000280142,0.04961420000472572,0.049750799997127615,0.09879690001253039,0.09946139999374282,0.7486655000102473
RSVPLG03,km,20251023-120403,1.0.1,20251023-100704,713,Experiment,Both,1,Automatic,main,51,20251023-120930,global,global,750,S,H,A,E,S-A.png,H-E.png,sS,hH,mask-3.png,mask-4.png,s,1,0.254514600004768,h,1,0.17825329999323003,0.04978280000796076,0.049724199998308904,0.1011341999983415,0.09957999999460299,0.7499603000032948
RSVPLG03,km,20251023-120403,1.0.1,20251023-100704,713,Experiment,Both,1,Automatic,main,52,20251023-120935,local,local,750,H,S,A,E,A-H.png,E-S.png,hH,sS,mask-4.png,mask-4.png,h,1,0.2604443000018364,s,1,0.1433627000078559,0.05074260001129005,0.05073780000384431,0.10154899999906775,0.10057450000022072,0.7495000000053551
RSVPLG03,km,20251023-120403,1.0.1,20251023-100704,713,Experiment,Both,1,Automatic,main,53,20251023-120939,local,global,300,H,S,A,E,A-H.png,S-E.png,hH,sS,mask-2.png,mask-4.png,h,1,0.4021948000008706,s,1,0.1721077999973204,0.049712199994246475,0.04784419998759404,0.0999327000026824,0.09809149999637157,0.30063860000518616
RSVPLG03,km,20251023-120403,1.0.1,20251023-100704,713,Experiment,Both,1,Automatic,main,54,20251023-120943,global,local,750,S,S,E,E,S-E.png,E-S.png,sS,sS,mask-1.png,mask-1.png,s,1,0.2924495999905048,s,1,0.30271150000044145,0.04867569998896215,0.050787900006980635,0.10010899999178946,0.10085610000533052,0.7489938999933656
RSVPLG03,km,20251023-120403,1.0.1,20251023-100704,713,Experiment,Both,1,Automatic,main,55,20251023-120948,local,local,750,H,H,A,E,A-H.png,E-H.png,hH,hH,mask-1.png,mask-3.png,h,1,0.25306249999266583,s,0,0.2594230999966385,0.049694300003466196,0.048670800009858795,0.09955250000348315,0.0990081000054488,0.7496726999961538
RSVPLG03,km,20251023-120403,1.0.1,20251023-100704,713,Experiment,Both,1,Automatic,main,56,20251023-120953,local,local,750,S,H,A,E,A-S.png,E-H.png,sS,hH,mask-4.png,mask-4.png,s,1,0.5059911999996984,s,0,0.20489680000173394,0.048606899988953955,0.04878959999768995,0.09962709998944774,0.09871720000228379,0.7497264999983599
RSVPLG03,km,20251023-120403,1.0.1,20251023-100704,713,Experiment,Both,1,Automatic,main,57,20251023-120958,local,global,750,H,H,A,E,A-H.png,H-E.png,hH,hH,mask-2.png,mask-1.png,h,1,0.47662870000931434,s,0,0.3226084999914747,0.04991640000662301,0.049547599992365576,0.09788810000463855,0.09880529998918064,0.7494145000091521
RSVPLG03,km,20251023-120403,1.0.1,20251023-100704,713,Experiment,Both,1,Automatic,main,58,20251023-121003,global,local,750,H,H,E,E,H-E.png,E-H.png,hH,hH,mask-4.png,mask-3.png,h,1,0.35759620000317227,s,0,0.25340220000362024,0.05057579999265727,0.05019340000580996,0.1006539999943925,0.1003774999990128,0.7490318999916781
RSVPLG03,km,20251023-120403,1.0.1,20251023-100704,713,Experiment,Both,1,Automatic,main,59,20251023-121007,global,local,750,H,H,E,A,H-E.png,A-H.png,hH,hH,mask-4.png,mask-4.png,h,1,0.5089715999929467,h,1,0.30155509999895,0.04919309999968391,0.0505053999950178,0.09953809999569785,0.10041630000341684,0.7499603000032948
RSVPLG03,km,20251023-120403,1.0.1,20251023-100704,713,Experiment,Both,1,Automatic,main,60,20251023-121013,global,local,300,H,S,E,A,H-E.png,A-S.png,hH,sS,mask-3.png,mask-3.png,h,1,0.5334404000022914,h,0,0.46130640000046697,0.04971279999881517,0.049619700002949685,0.09853109999676235,0.0983604000066407,0.3000997999915853
RSVPLG03,km,20251023-120403,1.0.1,20251023-100704,713,Experiment,Both,1,Automatic,main,61,20251023-121017,local,local,750,H,S,E,E,E-H.png,E-S.png,hH,sS,mask-3.png,mask-1.png,s,0,1.6794589999917662,h,0,0.05018610000843182,0.04892130001098849,0.05130620001000352,0.09905420000723097,0.10167689999798313,0.7475562000036007
RSVPLG03,km,20251023-120403,1.0.1,20251023-100704,713,Experiment,Both,1,Automatic,main,62,20251023-121023,global,local,750,H,S,A,A,H-A.png,A-S.png,hH,sS,mask-2.png,mask-1.png,h,1,0.36211239999101963,s,1,0.36737839999841526,0.04969790000177454,0.04966950000380166,0.09955729999637697,0.09819380000408273,0.7498858999897493
RSVPLG03,km,20251023-120403,1.0.1,20251023-100704,713,Experiment,Both,1,Automatic,main,63,20251023-121028,local,global,750,S,S,A,E,A-S.png,S-E.png,sS,sS,mask-1.png,mask-3.png,s,1,0.49163400000543334,s,1,0.1268380999972578,0.05016320000868291,0.04990149999503046,0.10002450000320096,0.09970880000037141,0.7497408000053838
RSVPLG03,km,20251023-120403,1.0.1,20251023-100704,713,Experiment,Both,1,Automatic,main,64,20251023-121033,global,local,750,S,S,A,A,S-A.png,A-S.png,sS,sS,mask-3.png,mask-3.png,h,0,0.5175808000058169,s,1,0.1765150999999605,0.04959339999186341,0.049543300003279,0.0999345999880461,0.09977850000723265,0.7500328999885824
RSVPLG03,km,20251023-120403,1.0.1,20251023-100704,713,Experiment,Both,1,Automatic,main,65,20251023-121038,local,global,750,S,H,A,A,A-S.png,H-A.png,sS,hH,mask-4.png,mask-3.png,s,1,0.7903064999991329,h,1,0.22025260000373237,0.05040079999889713,0.04857859999174252,0.10057969999616034,0.09925990000192542,0.7511012000031769
RSVPLG03,km,20251023-120403,1.0.1,20251023-100704,713,Experiment,Both,1,Automatic,main,66,20251023-121043,local,local,300,S,H,E,E,E-S.png,E-H.png,sS,hH,mask-3.png,mask-3.png,s,1,0.7199313000019174,h,1,0.15760770000633784,0.04963909999059979,0.05022530000132974,0.09976599999936298,0.10084529999585357,0.2996004000015091
RSVPLG03,km,20251023-120403,1.0.1,20251023-100704,713,Experiment,Both,1,Automatic,main,67,20251023-121048,local,global,300,S,H,E,A,E-S.png,H-A.png,sS,hH,mask-1.png,mask-1.png,s,1,0.638883400009945,h,1,0.14693149999948218,0.04992459999630228,0.049145500001031905,0.09998240000277292,0.10112229999504052,0.2988554000039585
RSVPLG03,km,20251023-120403,1.0.1,20251023-100704,713,Experiment,Both,1,Automatic,main,68,20251023-121052,local,local,750,S,H,A,E,A-S.png,E-H.png,sS,hH,mask-2.png,mask-2.png,s,1,0.37321769999107346,s,0,0.33230100000218954,0.049849899995024316,0.04871859999548178,0.09965099999681115,0.09855739999329671,0.7497560000047088
RSVPLG03,km,20251023-120403,1.0.1,20251023-100704,713,Experiment,Both,1,Automatic,main,69,20251023-121057,local,global,750,S,H,E,A,E-S.png,H-A.png,sS,hH,mask-1.png,mask-1.png,s,1,0.3619344999897294,h,1,0.17801850000978447,0.051240600005257875,0.04816779999237042,0.10023850000288803,0.09899159999622498,0.7505188000068301
RSVPLG03,km,20251023-120403,1.0.1,20251023-100704,713,Experiment,Both,1,Automatic,main,70,20251023-121102,local,local,750,H,S,E,E,E-H.png,E-S.png,hH,sS,mask-2.png,mask-3.png,s,0,0.5520898999966448,h,0,0.14335339999524876,0.05002420001255814,0.04841689999739174,0.10012940000160597,0.09875350000220351,0.7506242000090424
RSVPLG03,km,20251023-120403,1.0.1,20251023-100704,713,Experiment,Both,1,Automatic,main,71,20251023-121107,local,global,300,H,H,E,A,E-H.png,H-A.png,hH,hH,mask-3.png,mask-3.png,h,1,0.3764870000013616,s,0,0.12808409999706782,0.04922820000501815,0.0502320000086911,0.09959359999629669,0.09964150001178496,0.2992420999944443
RSVPLG03,km,20251023-120403,1.0.1,20251023-100704,713,Experiment,Both,1,Automatic,main,72,20251023-121111,global,local,750,H,H,A,A,H-A.png,A-H.png,hH,hH,mask-3.png,mask-1.png,h,1,0.25067090000084136,h,1,0.2196084999886807,0.049751399987144396,0.05053059999772813,0.09958379999443423,0.09987819999514613,0.7488109999976587
RSVPLG03,km,20251023-120403,1.0.1,20251023-100704,713,Experiment,Both,1,Automatic,main,73,20251023-121116,local,global,300,S,H,E,E,E-S.png,H-E.png,sS,hH,mask-4.png,mask-1.png,s,1,0.5100117999973008,h,1,0.15693909999390598,0.04964159999508411,0.04995129999588244,0.10352289999718778,0.09879040000669193,0.3016083999973489
RSVPLG03,km,20251023-120403,1.0.1,20251023-100704,713,Experiment,Both,1,Automatic,main,74,20251023-121120,local,local,300,H,H,A,A,A-H.png,A-H.png,hH,hH,mask-2.png,mask-1.png,h,1,0.45935710000048857,h,1,0.17493980001017917,0.04971220000879839,0.048145600012503564,0.10044890000426676,0.09835949999978766,0.30084809999971185
RSVPLG03,km,20251023-120403,1.0.1,20251023-100704,713,Experiment,Both,1,Automatic,main,75,20251023-121124,local,local,300,S,S,E,A,E-S.png,A-S.png,sS,sS,mask-2.png,mask-2.png,s,1,0.4257272999966517,s,1,0.17378319999261294,0.04981949999637436,0.04961550000007264,0.09982060000766069,0.09940269999788143,0.3004973000061
RSVPLG03,km,20251023-120403,1.0.1,20251023-100704,713,Experiment,Both,1,Automatic,main,76,20251023-121135,local,local,750,H,H,E,E,E-H.png,E-H.png,hH,hH,mask-1.png,mask-2.png,h,1,0.2649315999879036,h,1,0.14334690000396222,0.04970669999602251,0.04968959999678191,0.09855229999811854,0.1005180000065593,0.747640000001411
RSVPLG03,km,20251023-120403,1.0.1,20251023-100704,713,Experiment,Both,1,Automatic,main,77,20251023-121139,global,global,300,H,S,A,E,H-A.png,S-E.png,hH,sS,mask-1.png,mask-3.png,h,1,0.3871255999983987,s,1,0.1428243999980623,0.04961310001090169,0.05152379999344703,0.0982788000110304,0.09999839999363758,0.2980464000138454
RSVPLG03,km,20251023-120403,1.0.1,20251023-100704,713,Experiment,Both,1,Automatic,main,78,20251023-121144,local,local,300,S,S,A,A,A-S.png,A-S.png,sS,sS,mask-1.png,mask-4.png,s,1,0.3335791999998037,s,1,0.10828590000164695,0.04873369999404531,0.05115799998748116,0.09983130000182427,0.0996098999894457,0.2982304000033764
RSVPLG03,km,20251023-120403,1.0.1,20251023-100704,713,Experiment,Both,1,Automatic,main,79,20251023-121148,global,global,750,H,S,A,E,H-A.png,S-E.png,hH,sS,mask-1.png,mask-2.png,h,1,0.8394237000029534,s,1,0.09616909999749623,0.04969480000727344,0.04949369998939801,0.10074829999939539,0.09919429999717977,0.7504273000085959
RSVPLG03,km,20251023-120403,1.0.1,20251023-100704,713,Experiment,Both,1,Automatic,main,80,20251023-121153,global,local,750,S,S,A,A,S-A.png,A-S.png,sS,sS,mask-3.png,mask-1.png,s,1,0.4056094999978086,h,0,0.3508581000060076,0.050195200004964136,0.047839299993938766,0.09896970000409056,0.09878159999789204,0.7501726000045892
RSVPLG03,km,20251023-120403,1.0.1,20251023-100704,713,Experiment,Both,1,Automatic,main,81,20251023-121158,global,local,300,S,H,A,A,S-A.png,A-H.png,sS,hH,mask-4.png,mask-4.png,s,1,0.4704331999964779,s,0,0.2553702000004705,0.05043070000829175,0.04956150001089554,0.09909620000689756,0.09930130001157522,0.30014310000115074
RSVPLG03,km,20251023-120403,1.0.1,20251023-100704,713,Experiment,Both,1,Automatic,main,82,20251023-121202,global,global,300,H,H,E,A,H-E.png,H-A.png,hH,hH,mask-3.png,mask-4.png,h,1,0.33775799999420997,h,1,0.20572709999396466,0.051111699998728,0.04922390000137966,0.10042479999538045,0.09937750000972301,0.3014056999963941
RSVPLG03,km,20251023-120403,1.0.1,20251023-100704,713,Experiment,Both,1,Automatic,main,83,20251023-121207,local,global,300,S,H,A,E,A-S.png,H-E.png,sS,hH,mask-1.png,mask-1.png,s,1,0.599278100009542,h,1,0.19065540000156034,0.04865769999742042,0.05082129999937024,0.09954060000018217,0.10082059999695048,0.2986667000077432
RSVPLG03,km,20251023-120403,1.0.1,20251023-100704,713,Experiment,Both,1,Automatic,main,84,20251023-121211,local,global,300,S,S,A,E,A-S.png,S-E.png,sS,sS,mask-1.png,mask-1.png,s,1,0.6704737999971258,h,0,0.15608819999033585,0.05044120000093244,0.0504646000044886,0.09933579999778885,0.1000754999986384,0.29904009999881964
RSVPLG03,km,20251023-120403,1.0.1,20251023-100704,713,Experiment,Both,1,Automatic,main,85,20251023-121216,global,global,300,S,H,A,A,S-A.png,H-A.png,sS,hH,mask-4.png,mask-3.png,s,1,0.556826900006854,h,1,0.14032209999277256,0.05055569999967702,0.05094620000454597,0.09985630000301171,0.09962350000569131,0.3002481000003172
RSVPLG03,km,20251023-120403,1.0.1,20251023-100704,713,Experiment,Both,1,Automatic,main,86,20251023-121220,local,local,300,S,S,E,A,E-S.png,A-S.png,sS,sS,mask-3.png,mask-3.png,h,0,0.715089600009378,h,0,0.10861650000151712,0.049990300001809373,0.04764049999357667,0.10004810000828002,0.09999319999769796,0.30020140000851825
RSVPLG03,km,20251023-120403,1.0.1,20251023-100704,713,Experiment,Both,1,Automatic,main,87,20251023-121225,global,global,750,S,H,A,A,S-A.png,H-A.png,sS,hH,mask-2.png,mask-2.png,h,0,0.7126634000014747,h,1,0.35012849999475293,0.04944819999218453,0.0473883999948157,0.0994557999947574,0.0993233000044711,0.7499950999917928
RSVPLG03,km,20251023-120403,1.0.1,20251023-100704,713,Experiment,Both,1,Automatic,main,88,20251023-121230,local,local,300,H,S,E,A,E-H.png,A-S.png,hH,sS,mask-3.png,mask-4.png,h,1,1.715594900000724,s,1,0.11103429998911452,0.05047750000085216,0.04857579999952577,0.10085290001006797,0.10002419998636469,0.3004806000099052
RSVPLG03,km,20251023-120403,1.0.1,20251023-100704,713,Experiment,Both,1,Automatic,main,89,20251023-121236,global,global,750,S,H,A,A,S-A.png,H-A.png,sS,hH,mask-1.png,mask-3.png,h,0,0.5724036000028718,s,0,0.3821244000137085,0.05018029999337159,0.050837599992519245,0.10045389999868348,0.1012188999884529,0.7491829000064172
RSVPLG03,km,20251023-120403,1.0.1,20251023-100704,713,Experiment,Both,1,Automatic,main,90,20251023-121241,global,global,300,H,H,E,E,H-E.png,H-E.png,hH,hH,mask-2.png,mask-2.png,h,1,1.504374199997983,h,1,0.09587869999813847,0.04942890000529587,0.04831459998968057,0.09946430000127293,0.0996195999905467,0.3006586000119569
RSVPLG03,km,20251023-120403,1.0.1,20251023-100704,713,Experiment,Both,1,Automatic,main,91,20251023-121246,local,global,750,S,S,A,E,A-S.png,S-E.png,sS,sS,mask-3.png,mask-2.png,s,1,1.2933277999982238,h,0,0.09309379999467637,0.04887050000252202,0.04890769999474287,0.10015159999602474,0.09896089999529067,0.7493803999968804
RSVPLG03,km,20251023-120403,1.0.1,20251023-100704,713,Experiment,Both,1,Automatic,main,92,20251023-121252,global,local,750,H,H,A,A,H-A.png,A-H.png,hH,hH,mask-1.png,mask-3.png,h,1,0.37646179999865126,h,1,0.17148889999953099,0.05092059999878984,0.04957309999736026,0.10108920000493526,0.09924619999947026,0.749679999993532
RSVPLG03,km,20251023-120403,1.0.1,20251023-100704,713,Experiment,Both,1,Automatic,main,93,20251023-121256,global,global,750,H,S,A,A,H-A.png,S-A.png,hH,sS,mask-2.png,mask-3.png,h,1,0.5319235000060871,s,1,0.35153290000744164,0.04854730000079144,0.04913299999316223,0.09989640000276268,0.09993630000099074,0.7502112000074703
RSVPLG03,km,20251023-120403,1.0.1,20251023-100704,713,Experiment,Both,1,Automatic,main,94,20251023-121301,local,local,300,H,S,A,E,A-H.png,E-S.png,hH,sS,mask-2.png,mask-3.png,h,1,0.9423142000014195,s,1,0.3327962000039406,0.04985889999079518,0.049634299997705966,0.09856059998855926,0.10041959999944083,0.3001341999915894
RSVPLG03,km,20251023-120403,1.0.1,20251023-100704,713,Experiment,Both,1,Automatic,main,95,20251023-121306,global,local,300,S,H,E,A,S-E.png,A-H.png,sS,hH,mask-2.png,mask-2.png,s,1,0.8473591000074521,h,1,0.12855259999923874,0.049658799995086156,0.05053770000813529,0.09762139999656938,0.10026520000246819,0.2980566999904113
RSVPLG03,km,20251023-120403,1.0.1,20251023-100704,713,Experiment,Both,1,Automatic,main,96,20251023-121311,local,global,750,H,S,A,A,A-H.png,S-A.png,hH,sS,mask-3.png,mask-4.png,h,1,0.46749400001135655,s,1,0.2735309999989113,0.05072519999521319,0.049701700001605786,0.10058389999903738,0.10057189999497496,0.7499778000055812
RSVPLG03,km,20251023-120403,1.0.1,20251023-100704,713,Experiment,Both,1,Automatic,main,97,20251023-121316,global,global,300,H,H,A,A,H-A.png,H-A.png,hH,hH,mask-3.png,mask-3.png,h,1,0.3851878999994369,h,1,0.1575349000049755,0.049242799999774434,0.05021719999786001,0.09960089999367483,0.10055079999438021,0.2994736999971792
RSVPLG03,km,20251023-120403,1.0.1,20251023-100704,713,Experiment,Both,1,Automatic,main,98,20251023-121320,global,local,300,S,H,A,A,S-A.png,A-H.png,sS,hH,mask-3.png,mask-2.png,h,0,0.5750964999897406,s,0,0.4921455000003334,0.049698399991029873,0.05067699999199249,0.09853049999219365,0.10035169999173377,0.29815180000150576
RSVPLG03,km,20251023-120403,1.0.1,20251023-100704,713,Experiment,Both,1,Automatic,main,99,20251023-121325,local,global,300,H,H,E,E,E-H.png,H-E.png,hH,hH,mask-2.png,mask-3.png,h,1,0.5324637000012444,s,0,0.4944664999929955,0.048772000009194016,0.04885229999490548,0.09868740000820253,0.09867659999872558,0.30002770001010504
RSVPLG03,km,20251023-120403,1.0.1,20251023-100704,713,Experiment,Both,1,Automatic,main,100,20251023-121330,local,local,300,S,H,A,A,A-S.png,A-H.png,sS,hH,mask-1.png,mask-2.png,s,1,0.42842250000103377,h,1,0.3039623000076972,0.05010039999615401,0.049905399995623156,0.1009831999981543,0.09980830000131391,0.3002312000025995
RSVPLG03,km,20251023-120403,1.0.1,20251023-100704,713,Experiment,Both,1,Automatic,main,101,20251023-121344,global,global,750,H,S,A,A,H-A.png,S-A.png,hH,sS,mask-1.png,mask-2.png,h,1,0.3517308000009507,s,1,0.22115559999656398,0.050006899997242726,0.04926990000240039,0.09925220000150148,0.09922600000572857,0.7504766999918502
RSVPLG03,km,20251023-120403,1.0.1,20251023-100704,713,Experiment,Both,1,Automatic,main,102,20251023-121348,local,local,750,S,H,A,A,A-S.png,A-H.png,sS,hH,mask-1.png,mask-2.png,h,0,0.6581160999921849,s,0,0.17228030000114813,0.04754629998933524,0.04956970000057481,0.0987572000012733,0.10028639998927247,0.7476765000028536
RSVPLG03,km,20251023-120403,1.0.1,20251023-100704,713,Experiment,Both,1,Automatic,main,103,20251023-121353,global,global,300,H,S,E,A,H-E.png,S-A.png,hH,sS,mask-2.png,mask-1.png,s,0,1.6675252000131877,h,0,0.029644800000824034,0.049547000002348796,0.049672799999825656,0.1002466999925673,0.09888409999257419,0.2997955000028014
RSVPLG03,km,20251023-120403,1.0.1,20251023-100704,713,Experiment,Both,1,Automatic,main,104,20251023-121359,global,global,300,H,H,E,E,H-E.png,H-E.png,hH,hH,mask-3.png,mask-2.png,h,1,0.7676276999991387,s,0,0.2064103000011528,0.049656100003630854,0.04964720000862144,0.09986580000258982,0.09912480000639334,0.3002675000025192
RSVPLG03,km,20251023-120403,1.0.1,20251023-100704,713,Experiment,Both,1,Automatic,main,105,20251023-121404,global,global,750,H,S,E,A,H-E.png,S-A.png,hH,sS,mask-4.png,mask-1.png,h,1,0.3357581000018399,s,1,0.18802630000573117,0.049839700004667975,0.050370799988741055,0.0997884999960661,0.09989279998990241,0.749089200005983
RSVPLG03,km,20251023-120403,1.0.1,20251023-100704,713,Experiment,Both,1,Automatic,main,106,20251023-121408,global,global,300,H,H,E,A,H-E.png,H-A.png,hH,hH,mask-3.png,mask-4.png,h,1,0.30560339998919517,h,1,0.14367829999537207,0.04889020000700839,0.04991959998733364,0.09885270000086166,0.10188209998887032,0.29866140001104213
RSVPLG03,km,20251023-120403,1.0.1,20251023-100704,713,Experiment,Both,1,Automatic,main,107,20251023-121413,global,local,750,S,H,E,E,S-E.png,E-H.png,sS,hH,mask-3.png,mask-2.png,s,1,0.34247279999544844,h,1,0.636763799993787,0.05152789999556262,0.048983400003635325,0.1005142999929376,0.09965720000036526,0.7500931999966269
RSVPLG03,km,20251023-120403,1.0.1,20251023-100704,713,Experiment,Both,1,Automatic,main,108,20251023-121418,global,local,300,S,H,A,E,S-A.png,E-H.png,sS,hH,mask-2.png,mask-1.png,s,1,0.5343837999971583,s,0,0.2878935999906389,0.05071239999961108,0.04969580000033602,0.10060150000208523,0.10054740001214668,0.2995809999993071
RSVPLG03,km,20251023-120403,1.0.1,20251023-100704,713,Experiment,Both,1,Automatic,main,109,20251023-121422,local,global,750,S,H,E,A,E-S.png,H-A.png,sS,hH,mask-2.png,mask-3.png,s,1,0.5144406000035815,h,1,0.269873600002029,0.04941770000732504,0.04992079999647103,0.09835430000384804,0.09977679999428801,0.7479768000048352
RSVPLG03,km,20251023-120403,1.0.1,20251023-100704,713,Experiment,Both,1,Automatic,main,110,20251023-121427,global,local,300,S,S,A,A,S-A.png,A-S.png,sS,sS,mask-3.png,mask-2.png,s,1,0.877410899993265,h,0,0.07777410000562668,0.048753499999293126,0.050658299995120615,0.1003064000105951,0.10145129999727942,0.29857990000164136
RSVPLG03,km,20251023-120403,1.0.1,20251023-100704,713,Experiment,Both,1,Automatic,main,111,20251023-121432,local,local,750,S,H,E,E,E-S.png,E-H.png,sS,hH,mask-2.png,mask-3.png,s,1,0.5724429999972926,h,1,0.3988450000033481,0.05065500001364853,0.049515999999130145,0.10072570000193082,0.10092309999163263,0.749778100012918
RSVPLG03,km,20251023-120403,1.0.1,20251023-100704,713,Experiment,Both,1,Automatic,main,112,20251023-121437,local,global,300,H,H,A,A,A-H.png,H-A.png,hH,hH,mask-3.png,mask-2.png,h,1,0.36541899999429006,s,0,0.25625739998940844,0.04901109999627806,0.05060819999198429,0.09963759999664035,0.1008090999966953,0.29914580000331625
RSVPLG03,km,20251023-120403,1.0.1,20251023-100704,713,Experiment,Both,1,Automatic,main,113,20251023-121442,local,local,750,H,S,E,A,E-H.png,A-S.png,hH,sS,mask-3.png,mask-1.png,h,1,0.332721999991918,h,0,0.46174329999485053,0.050892899991595186,0.04933059999893885,0.09962900000391528,0.09966669999994338,0.7491634000034537
RSVPLG03,km,20251023-120403,1.0.1,20251023-100704,713,Experiment,Both,1,Automatic,main,114,20251023-121447,global,global,750,S,H,E,A,S-E.png,H-A.png,sS,hH,mask-2.png,mask-1.png,s,1,0.4177419999905396,h,1,0.23849760000302922,0.04966760000388604,0.049604800005909055,0.09888459999638144,0.10015949999797158,0.7488250000023982
RSVPLG03,km,20251023-120403,1.0.1,20251023-100704,713,Experiment,Both,1,Automatic,main,115,20251023-121451,local,global,300,S,H,A,A,A-S.png,H-A.png,sS,hH,mask-2.png,mask-1.png,s,1,1.0430433000001358,h,1,0.11052719999861438,0.05060669999511447,0.04986739999731071,0.1001925000018673,0.09906299998692703,0.3001070000027539
RSVPLG03,km,20251023-120403,1.0.1,20251023-100704,713,Experiment,Both,1,Automatic,main,116,20251023-121456,global,global,750,S,H,E,A,S-E.png,H-A.png,sS,hH,mask-1.png,mask-3.png,s,1,0.277164700004505,h,1,0.3051311000017449,0.04971490000025369,0.04892019998806063,0.0986683999944944,0.09980599999835249,0.7487986000051023
RSVPLG03,km,20251023-120403,1.0.1,20251023-100704,713,Experiment,Both,1,Automatic,main,117,20251023-121501,local,global,750,S,H,A,E,A-S.png,H-E.png,sS,hH,mask-1.png,mask-3.png,s,1,0.5467566999868723,h,1,0.220315099999425,0.050801900011720136,0.05040059999737423,0.1007650000101421,0.10035880000214092,0.7485662000108277
RSVPLG03,km,20251023-120403,1.0.1,20251023-100704,713,Experiment,Both,1,Automatic,main,118,20251023-121506,local,global,750,H,H,E,A,E-H.png,H-A.png,hH,hH,mask-1.png,mask-4.png,h,1,0.5130034000030719,s,0,0.33214589999988675,0.04874099999142345,0.04909120000957046,0.09849599999142811,0.0992028000036953,0.7477189999917755
RSVPLG03,km,20251023-120403,1.0.1,20251023-100704,713,Experiment,Both,1,Automatic,main,119,20251023-121511,local,global,750,H,S,E,E,E-H.png,S-E.png,hH,sS,mask-4.png,mask-2.png,s,0,0.8541327999992063,s,1,0.12722649998613633,0.049637499992968515,0.05071340000722557,0.10053850000258535,0.09962819999782369,0.7498958999931347
RSVPLG03,km,20251023-120403,1.0.1,20251023-100704,713,Experiment,Both,1,Automatic,main,120,20251023-121516,global,local,300,S,S,A,E,S-A.png,E-S.png,sS,sS,mask-2.png,mask-2.png,s,1,0.8915526000055252,h,0,0.1437966000084998,0.04937690000224393,0.04875790000369307,0.09941730000718962,0.09954070000094362,0.2994281999999657
RSVPLG03,km,20251023-120403,1.0.1,20251023-100704,713,Experiment,Both,1,Automatic,main,121,20251023-121521,local,global,750,S,H,A,E,A-S.png,H-E.png,sS,hH,mask-4.png,mask-1.png,s,1,0.5086598000052618,h,1,0.3026271999988239,0.047698599999421276,0.050589899998158216,0.09919110000191722,0.10067690000869334,0.7482309000042733
RSVPLG03,km,20251023-120403,1.0.1,20251023-100704,713,Experiment,Both,1,Automatic,main,122,20251023-121526,global,global,300,H,S,A,E,H-A.png,S-E.png,hH,sS,mask-1.png,mask-1.png,h,1,0.5304756999976235,s,1,0.2538349999958882,0.05160540000360925,0.04956310000852682,0.10097730001143645,0.10110220000206027,0.3003898000024492
RSVPLG03,km,20251023-120403,1.0.1,20251023-100704,713,Experiment,Both,1,Automatic,main,123,20251023-121531,local,local,300,H,H,A,A,A-H.png,A-H.png,hH,hH,mask-2.png,mask-4.png,h,1,1.3179009000014048,s,0,0.17307039999286644,0.05166270000336226,0.05034650000743568,0.10179440000501927,0.10125859999970999,0.2999697999912314
RSVPLG03,km,20251023-120403,1.0.1,20251023-100704,713,Experiment,Both,1,Automatic,main,124,20251023-121536,local,local,300,H,H,E,A,E-H.png,A-H.png,hH,hH,mask-2.png,mask-2.png,h,1,0.5274264000036055,s,0,0.22214009999879636,0.04971269999805372,0.04996920000121463,0.10002090000489261,0.10126189999573398,0.2987957000004826
RSVPLG03,km,20251023-120403,1.0.1,20251023-100704,713,Experiment,Both,1,Automatic,main,125,20251023-121541,global,global,750,S,S,A,E,S-A.png,S-E.png,sS,sS,mask-2.png,mask-3.png,s,1,0.3079046999919228,s,1,0.17419809999410063,0.05050840000330936,0.04875760000140872,0.10035029999562539,0.09954239999933634,0.7504277999978513
RSVPLG03,km,20251023-121619,1.0.1,20251023-100704,713,Experiment,Both,1,Automatic,warmup,1,20251023-121651,local,local,300,H,S,E,E,E-H.png,E-S.png,hH,sS,mask-2.png,mask-2.png,s,0,1.454629300002125,h,0,0.0776379999879282,0.04580510000232607,0.05053069999848958,0.09746190000441857,0.0992439999972703,0.2973327000072459
RSVPLG03,km,20251023-121619,1.0.1,20251023-100704,713,Experiment,Both,1,Automatic,warmup,2,20251023-121656,local,global,300,S,S,A,E,A-S.png,S-E.png,sS,sS,mask-4.png,mask-3.png,s,1,0.2637918000109494,h,0,0.14382340000884142,0.04893900000024587,0.04952449999109376,0.10079180001048371,0.10014909999154042,0.3005052000080468
RSVPLG03,km,20251023-121619,1.0.1,20251023-100704,713,Experiment,Both,1,Automatic,warmup,3,20251023-121700,local,local,750,H,S,E,A,E-H.png,A-S.png,hH,sS,mask-4.png,mask-1.png,h,1,0.46238670000457205,s,1,0.15871079999487847,0.049455000000307336,0.05075409999699332,0.10097600000153761,0.09962009999435395,0.7514773000002606
RSVPLG03,km,20251023-121619,1.0.1,20251023-100704,713,Experiment,Both,1,Automatic,warmup,4,20251023-121705,local,global,750,H,H,E,E,E-H.png,H-E.png,hH,hH,mask-1.png,mask-1.png,h,1,0.4615999999950873,h,1,0.12773410000954755,0.051526700000977144,0.04850220000662375,0.10118330000841524,0.09858590000658296,0.7527199000032851
RSVPLG03,km,20251023-121619,1.0.1,20251023-100704,713,Experiment,Both,1,Automatic,warmup,5,20251023-121710,global,global,300,H,S,E,E,H-E.png,S-E.png,hH,sS,mask-3.png,mask-1.png,h,1,1.139086800001678,s,1,0.097881600013352,0.051602199993794784,0.04901700001209974,0.1003299000003608,0.1009119000082137,0.29989099998783786
RSVPLG03,km,20251023-121619,1.0.1,20251023-100704,713,Experiment,Both,1,Automatic,main,6,20251023-121715,local,local,750,H,H,A,E,A-H.png,E-H.png,hH,hH,mask-3.png,mask-2.png,h,1,0.8410847000050126,h,1,0.11134260000835638,0.05002370000875089,0.04993540000577923,0.09986899999785237,0.09982340001442935,0.7501063999952748
RSVPLG03,km,20251023-121619,1.0.1,20251023-100704,713,Experiment,Both,1,Automatic,main,7,20251023-121720,local,global,300,H,H,A,E,A-H.png,H-E.png,hH,hH,mask-2.png,mask-3.png,h,1,0.5905919999931939,s,0,0.15756599999440368,0.05101769999600947,0.049237600003834814,0.10037580000062007,0.10071020000032149,0.30092519999016076
RSVPLG03,km,20251023-121619,1.0.1,20251023-100704,713,Experiment,Both,1,Automatic,main,8,20251023-121724,local,global,750,S,S,A,A,A-S.png,S-A.png,sS,sS,mask-4.png,mask-3.png,s,1,0.5536255000042729,h,0,0.17147879999538418,0.0514571999956388,0.04966760000388604,0.09962749999249354,0.09975290000147652,0.7510130000009667
RSVPLG03,km,20251023-121619,1.0.1,20251023-100704,713,Experiment,Both,1,Automatic,main,9,20251023-121729,local,global,300,H,S,E,A,E-H.png,S-A.png,hH,sS,mask-3.png,mask-4.png,h,1,0.26941950000764336,s,1,0.14350340000237338,0.04862929999944754,0.04979039999307133,0.10038359998725355,0.09958460000052582,0.30082709999987856
RSVPLG03,km,20251023-121619,1.0.1,20251023-100704,713,Experiment,Both,1,Automatic,main,10,20251023-121733,global,global,300,S,H,E,A,S-E.png,H-A.png,sS,hH,mask-4.png,mask-1.png,s,1,0.22704990000056569,h,1,0.1254176000074949,0.049498699998366646,0.05096629999752622,0.09987250000995118,0.09952779999002814,0.30044200000702403
RSVPLG03,km,20251023-121619,1.0.1,20251023-100704,713,Experiment,Both,1,Automatic,main,11,20251023-121737,global,global,750,H,S,E,E,H-E.png,S-E.png,hH,sS,mask-4.png,mask-2.png,h,1,0.4096930999949109,s,1,0.20557299999927636,0.051563599990913644,0.049525800000992604,0.10040239999943879,0.0999288000020897,0.7515461000002688
RSVPLG03,km,20251023-121619,1.0.1,20251023-100704,713,Experiment,Both,1,Automatic,main,12,20251023-121742,local,local,750,H,H,E,E,E-H.png,E-H.png,hH,hH,mask-1.png,mask-4.png,h,1,0.6532542000059038,s,0,0.19126479999977164,0.050490800000261515,0.049714599997969344,0.10003519999736454,0.10038049999275245,0.751534900002298
RSVPLG03,km,20251023-121619,1.0.1,20251023-100704,713,Experiment,Both,1,Automatic,main,13,20251023-121747,local,local,300,S,H,A,E,A-S.png,E-H.png,sS,hH,mask-2.png,mask-1.png,s,1,0.7735021999978926,h,1,0.27071119999163784,0.04953679999744054,0.049401900003431365,0.09997480000311043,0.09994739999820013,0.2996897999983048
RSVPLG03,km,20251023-121619,1.0.1,20251023-100704,713,Experiment,Both,1,Automatic,main,14,20251023-121752,local,global,300,S,S,A,A,A-S.png,S-A.png,sS,sS,mask-1.png,mask-1.png,s,1,0.3912759999948321,h,0,0.26770850000320934,0.0506011999968905,0.049165000003995374,0.1004728999978397,0.09968290000688285,0.29992369998944923
RSVPLG03,km,20251023-121619,1.0.1,20251023-100704,713,Experiment,Both,1,Automatic,main,15,20251023-121756,global,global,300,S,S,A,E,S-A.png,S-E.png,sS,sS,mask-2.png,mask-3.png,s,1,0.43767769999976736,h,0,0.23847569999634288,0.051719000010052696,0.0502837000094587,0.10059830000682268,0.1005081000039354,0.29967310000211
RSVPLG03,km,20251023-121619,1.0.1,20251023-100704,713,Experiment,Both,1,Automatic,main,16,20251023-121801,local,global,750,H,H,E,E,E-H.png,H-E.png,hH,hH,mask-2.png,mask-2.png,h,1,0.170464599999832,s,0,0.23811530000239145,0.04972060000000056,0.04971490000025369,0.1006513000029372,0.10053619999962393,0.7505531999922823
RSVPLG03,km,20251023-121619,1.0.1,20251023-100704,713,Experiment,Both,1,Automatic,main,17,20251023-121805,local,global,750,S,S,E,A,E-S.png,S-A.png,sS,sS,mask-3.png,mask-3.png,h,0,0.6446125999937067,h,0,0.0942885000113165,0.05123789999925066,0.04973410000093281,0.09998169999744277,0.10058569999819156,0.7516922999930102
RSVPLG03,km,20251023-121619,1.0.1,20251023-100704,713,Experiment,Both,1,Automatic,main,18,20251023-121810,local,local,300,H,S,A,A,A-H.png,A-S.png,hH,sS,mask-2.png,mask-3.png,h,1,0.48279989999718964,s,1,0.10767119999218266,0.04940509999869391,0.04967160000524018,0.10021720000077039,0.0996988999977475,0.3005607999948552
RSVPLG03,km,20251023-121619,1.0.1,20251023-100704,713,Experiment,Both,1,Automatic,main,19,20251023-121814,local,global,750,H,H,E,E,E-H.png,H-E.png,hH,hH,mask-2.png,mask-4.png,s,0,1.202695500003756,h,1,0.20684509999409784,0.048777899995911866,0.04986349999671802,0.09805849999247584,0.09994869999354705,0.7494932999979937
RSVPLG03,km,20251023-121619,1.0.1,20251023-100704,713,Experiment,Both,1,Automatic,main,20,20251023-121820,local,local,300,S,S,E,E,E-S.png,E-S.png,sS,sS,mask-2.png,mask-1.png,h,0,0.3846724000031827,s,1,0.2235289000091143,0.04968350000854116,0.04871229999116622,0.10160850000102073,0.10056829999666661,0.30119340000965167
RSVPLG03,km,20251023-121619,1.0.1,20251023-100704,713,Experiment,Both,1,Automatic,main,21,20251023-121824,global,global,750,S,S,E,E,S-E.png,S-E.png,sS,sS,mask-3.png,mask-1.png,s,1,1.2357783999905223,s,1,0.15944420000596438,0.051800000001094304,0.04992980000679381,0.101818999988609,0.0998093000089284,0.7516458999889437
RSVPLG03,km,20251023-121619,1.0.1,20251023-100704,713,Experiment,Both,1,Automatic,main,22,20251023-121830,global,local,750,S,S,A,A,S-A.png,A-S.png,sS,sS,mask-3.png,mask-1.png,s,1,0.7012715000018943,h,0,0.25554949999786913,0.05029939999803901,0.04971829999703914,0.09973209998861421,0.10053839998727199,0.7503802999999607
RSVPLG03,km,20251023-121619,1.0.1,20251023-100704,713,Experiment,Both,1,Automatic,main,23,20251023-121835,global,local,300,S,S,E,E,S-E.png,E-S.png,sS,sS,mask-1.png,mask-1.png,s,1,0.6708313999988604,h,0,0.04783700000552926,0.0487554999999702,0.05061750000459142,0.09887660000822507,0.09992449999845121,0.2983397000061814
RSVPLG03,km,20251023-121619,1.0.1,20251023-100704,713,Experiment,Both,1,Automatic,main,24,20251023-121839,global,global,750,H,H,A,E,H-A.png,H-E.png,hH,hH,mask-3.png,mask-1.png,h,1,0.09456840000348166,h,1,0.1953495999914594,0.04969559999881312,0.04983350000111386,0.09950100000423845,0.09966219999478199,0.7519950999994762
RSVPLG03,km,20251023-121619,1.0.1,20251023-100704,713,Experiment,Both,1,Automatic,main,25,20251023-121844,local,global,300,H,H,A,A,A-H.png,H-A.png,hH,hH,mask-3.png,mask-3.png,h,1,0.16175339999608696,h,1,0.678277099999832,0.04983119999815244,0.04985199999646284,0.09969479999563191,0.09975199999462347,0.29944020000402816
RSVPLG03,km,20251023-121619,1.0.1,20251023-100704,713,Experiment,Both,1,Automatic,main,26,20251023-121941,global,local,750,S,H,E,A,S-E.png,A-H.png,sS,hH,mask-4.png,mask-4.png,s,1,0.23987989999295678,h,1,0.0953317999956198,0.05023930000606924,0.05075059999944642,0.10145820000616368,0.10079810000024736,0.7516062000067905
RSVPLG03,km,20251023-121619,1.0.1,20251023-100704,713,Experiment,Both,1,Automatic,main,27,20251023-121946,global,global,300,S,S,A,E,S-A.png,S-E.png,sS,sS,mask-3.png,mask-1.png,s,1,0.2694766000058735,s,1,0.09494629999971949,0.049876799996127374,0.05043689999729395,0.09955810000246856,0.10011270000541117,0.2995276000001468
RSVPLG03,km,20251023-121619,1.0.1,20251023-100704,713,Experiment,Both,1,Automatic,main,28,20251023-121950,global,global,750,S,H,E,E,S-E.png,H-E.png,sS,hH,mask-3.png,mask-4.png,s,1,0.2765120000112802,h,1,0.060849499990581535,0.05172010000387672,0.04975180000474211,0.10156870000355411,0.09881130000576377,0.7517526000010548
RSVPLG03,km,20251023-121619,1.0.1,20251023-100704,713,Experiment,Both,1,Automatic,main,29,20251023-121955,local,global,750,H,H,E,A,E-H.png,H-A.png,hH,hH,mask-4.png,mask-4.png,s,0,0.23389750000205822,h,1,0.060532599993166514,0.049324699997669086,0.04989509998995345,0.09936629999720026,0.10062839998863637,0.7497638000058942
RSVPLG03,km,20251023-121619,1.0.1,20251023-100704,713,Experiment,Both,1,Automatic,main,30,20251023-121959,local,global,300,H,H,E,A,E-H.png,H-A.png,hH,hH,mask-2.png,mask-2.png,h,1,0.0757551999995485,s,0,0.11064959999930579,0.04965710001124535,0.04867409999133088,0.10051070000918116,0.09946389999822713,0.3010635000100592
RSVPLG03,km,20251023-121619,1.0.1,20251023-100704,713,Experiment,Both,1,Automatic,main,31,20251023-122003,global,local,300,H,H,A,E,H-A.png,E-H.png,hH,hH,mask-1.png,mask-3.png,h,1,0.39763820001098793,s,0,0.17677190000540577,0.048877199995331466,0.05094760000065435,0.09893839999858756,0.10092620000068564,0.2997291999927256
RSVPLG03,km,20251023-121619,1.0.1,20251023-100704,713,Experiment,Both,1,Automatic,main,32,20251023-122008,local,local,750,S,H,A,A,A-S.png,A-H.png,sS,hH,mask-4.png,mask-3.png,s,1,0.2598273000039626,s,0,0.3686299999972107,0.04765090000000782,0.049704899996868335,0.09747160000551958,0.10155829999712296,0.7479405000049155
RSVPLG03,km,20251023-121619,1.0.1,20251023-100704,713,Experiment,Both,1,Automatic,main,33,20251023-122012,local,global,300,S,S,A,E,A-S.png,S-E.png,sS,sS,mask-3.png,mask-1.png,s,1,0.41175320000911597,h,0,0.44462579999526497,0.05072189999918919,0.04869769999640994,0.1005767000024207,0.09934040000371169,0.30111670000769664
RSVPLG03,km,20251023-121619,1.0.1,20251023-100704,713,Experiment,Both,1,Automatic,main,34,20251023-122016,global,global,300,S,H,A,E,S-A.png,H-E.png,sS,hH,mask-4.png,mask-3.png,s,1,0.25064430000202265,h,1,0.032180499998503365,0.05062470000120811,0.05061059999570716,0.10037780000129715,0.10080689999449532,0.29983119999815244
RSVPLG03,km,20251023-121619,1.0.1,20251023-100704,713,Experiment,Both,1,Automatic,main,35,20251023-122021,global,global,300,H,H,E,E,H-E.png,H-E.png,hH,hH,mask-4.png,mask-3.png,h,1,0.02891220001038164,h,1,0.20636609999928623,0.051721700001508,0.05060149999917485,0.100490600001649,0.10033149999799207,0.30096100000082515
RSVPLG03,km,20251023-121619,1.0.1,20251023-100704,713,Experiment,Both,1,Automatic,main,36,20251023-122024,global,global,750,H,S,A,A,H-A.png,S-A.png,hH,sS,mask-1.png,mask-3.png,h,1,0.10943979999865405,s,1,0.126359500005492,0.04863209999166429,0.051151499996194616,0.0993845000048168,0.1004926999885356,0.7505186000053072
RSVPLG03,km,20251023-121619,1.0.1,20251023-100704,713,Experiment,Both,1,Automatic,main,37,20251023-122029,global,local,750,H,S,E,E,H-E.png,E-S.png,hH,sS,mask-3.png,mask-1.png,h,1,0.23174939998716582,s,1,0.17729330000292975,0.0489028000010876,0.04885180000565015,0.09872880000330042,0.09975979999580886,0.7501282000011997
RSVPLG03,km,20251023-121619,1.0.1,20251023-100704,713,Experiment,Both,1,Automatic,main,38,20251023-122034,global,local,300,S,S,E,E,S-E.png,E-S.png,sS,sS,mask-3.png,mask-3.png,s,1,0.5023728000087431,h,0,0.18485529998724815,0.050812999994377606,0.050183300001663156,0.10014419999788515,0.0995526000042446,0.3005453999940073
RSVPLG03,km,20251023-121619,1.0.1,20251023-100704,713,Experiment,Both,1,Automatic,main,39,20251023-122038,global,local,750,S,S,A,E,S-A.png,E-S.png,sS,sS,mask-1.png,mask-2.png,s,1,0.5025884000060614,h,0,0.12537239999801386,0.051122699995175935,0.04904450000321958,0.10001009999541566,0.09890620000078343,0.7519354999967618
RSVPLG03,km,20251023-121619,1.0.1,20251023-100704,713,Experiment,Both,1,Automatic,main,40,20251023-122043,local,local,750,H,S,E,A,E-H.png,A-S.png,hH,sS,mask-3.png,mask-3.png,s,0,0.9665808999998262,h,0,0.15566899999976158,0.050027700010105036,0.04978800000390038,0.09863620001124218,0.1016486000007717,0.7500685999984853
RSVPLG03,km,20251023-121619,1.0.1,20251023-100704,713,Experiment,Both,1,Automatic,main,41,20251023-122048,global,local,750,H,H,E,A,H-E.png,A-H.png,hH,hH,mask-4.png,mask-2.png,h,1,0.2060705999901984,h,1,0.3897409999917727,0.05077099999471102,0.049801899993326515,0.10165250000136439,0.09978489999775775,0.751720700005535
RSVPLG03,km,20251023-121619,1.0.1,20251023-100704,713,Experiment,Both,1,Automatic,main,42,20251023-122053,local,global,300,S,H,E,E,E-S.png,H-E.png,sS,hH,mask-2.png,mask-3.png,s,1,0.42371230000571813,h,1,0.1434986999956891,0.048824899989995174,0.04955809999955818,0.09981729999708477,0.10029319999739528,0.29941089999920223
RSVPLG03,km,20251023-121619,1.0.1,20251023-100704,713,Experiment,Both,1,Automatic,main,43,20251023-122057,local,local,750,H,H,A,A,A-H.png,A-H.png,hH,hH,mask-3.png,mask-4.png,h,1,0.07606189999205526,s,0,0.10908589999598917,0.05083139998896513,0.049287900008494034,0.09963309999147896,0.0996346000029007,0.7509675999899628
RSVPLG03,km,20251023-121619,1.0.1,20251023-100704,713,Experiment,Both,1,Automatic,main,44,20251023-122102,global,local,750,S,S,A,E,S-A.png,E-S.png,sS,sS,mask-3.png,mask-2.png,h,0,0.30928649999259505,s,1,0.4449883999914164,0.050115400008508004,0.04988289999892004,0.10079240000050049,0.09989120000682306,0.751395200000843
RSVPLG03,km,20251023-121619,1.0.1,20251023-100704,713,Experiment,Both,1,Automatic,main,45,20251023-122107,local,global,300,H,S,A,E,A-H.png,S-E.png,hH,sS,mask-2.png,mask-3.png,h,1,0.7834822000004351,s,1,0.07795049999549519,0.04990460000408348,0.048664599991752766,0.10072020000370685,0.10009829999762587,0.30139200000849087
RSVPLG03,km,20251023-121619,1.0.1,20251023-100704,713,Experiment,Both,1,Automatic,main,46,20251023-122115,global,global,750,S,H,A,E,S-A.png,H-E.png,sS,hH,mask-2.png,mask-3.png,s,1,0.9203299999935552,h,1,4.17659360000107,0.05009460001019761,0.04980910000449512,0.10145960000227205,0.0994005999964429,0.7527886000025319
RSVPLG03,km,20251023-121619,1.0.1,20251023-100704,713,Experiment,Both,1,Automatic,main,47,20251023-122120,global,global,300,S,H,E,E,S-E.png,H-E.png,sS,hH,mask-4.png,mask-4.png,s,1,0.3921540000010282,h,1,0.1413959000055911,0.048718700010795146,0.050496199997724034,0.09739860000263434,0.1010719999903813,0.29926360001263674
RSVPLG03,km,20251023-121619,1.0.1,20251023-100704,713,Experiment,Both,1,Automatic,main,48,20251023-122124,local,local,300,H,H,A,A,A-H.png,A-H.png,hH,hH,mask-3.png,mask-1.png,h,1,0.15780390000145417,h,1,0.8261960999952862,0.050326199998380616,0.05027890000201296,0.0993161000078544,0.10034710000036284,0.30010870000114664
RSVPLG03,km,20251023-121619,1.0.1,20251023-100704,713,Experiment,Both,1,Automatic,main,49,20251023-122129,local,global,750,S,S,A,E,A-S.png,S-E.png,sS,sS,mask-1.png,mask-3.png,s,1,0.229628800007049,h,0,0.11170160000619944,0.051023399995756336,0.050674600002821535,0.10102839999308344,0.10135300000547431,0.7511360999924364
RSVPLG03,km,20251023-121619,1.0.1,20251023-100704,713,Experiment,Both,1,Automatic,main,50,20251023-122133,local,local,300,H,H,A,E,A-H.png,E-H.png,hH,hH,mask-1.png,mask-1.png,h,1,0.10751110001001507,h,1,0.2826446999970358,0.04859960000612773,0.050218099990161136,0.0999658999935491,0.09992489998694509,0.2995894000050612
RSVPLG03,km,20251023-121619,1.0.1,20251023-100704,713,Experiment,Both,1,Automatic,main,51,20251023-122201,local,global,300,S,H,E,E,E-S.png,H-E.png,sS,hH,mask-4.png,mask-3.png,s,1,0.15783909999299794,s,0,0.22235159999399912,0.05060319999756757,0.051038099991274066,0.09997349999321159,0.10186629999952856,0.2985130000015488
RSVPLG03,km,20251023-121619,1.0.1,20251023-100704,713,Experiment,Both,1,Automatic,main,52,20251023-122205,local,local,300,H,S,E,E,E-H.png,E-S.png,hH,sS,mask-4.png,mask-2.png,h,1,0.09459470000001602,s,1,0.09504990000277758,0.05083950000698678,0.04986240000289399,0.10080880000896286,0.09987109999929089,0.30160289999912493
RSVPLG03,km,20251023-121619,1.0.1,20251023-100704,713,Experiment,Both,1,Automatic,main,53,20251023-122209,global,global,750,S,S,E,E,S-E.png,S-E.png,sS,sS,mask-3.png,mask-3.png,s,1,0.23469840000325348,s,1,0.07960450000246055,0.04970690001209732,0.050632900005439296,0.10048100000130944,0.1004185000056168,0.750991900000372
RSVPLG03,km,20251023-121619,1.0.1,20251023-100704,713,Experiment,Both,1,Automatic,main,54,20251023-122214,global,local,300,S,H,E,A,S-E.png,A-H.png,sS,hH,mask-1.png,mask-4.png,s,1,0.3788410999986809,h,1,0.4004257999913534,0.049714399996446446,0.04959660000167787,0.09840519999852404,0.10027539999282453,0.29950340000505093
RSVPLG03,km,20251023-121619,1.0.1,20251023-100704,713,Experiment,Both,1,Automatic,main,55,20251023-122218,global,global,300,S,S,A,A,S-A.png,S-A.png,sS,sS,mask-2.png,mask-4.png,s,1,0.1673033000115538,s,1,0.10896829998819157,0.0498271999967983,0.04966669999703299,0.09918429999379441,0.10163370000373106,0.29976919999171514
RSVPLG03,km,20251023-121619,1.0.1,20251023-100704,713,Experiment,Both,1,Automatic,main,56,20251023-122222,local,local,750,H,S,A,A,A-H.png,A-S.png,hH,sS,mask-2.png,mask-1.png,h,1,0.075649100006558,h,0,0.3415822999959346,0.050769399997079745,0.04905980000330601,0.09957930000382476,0.09950539999408647,0.7506856999971205
RSVPLG03,km,20251023-121619,1.0.1,20251023-100704,713,Experiment,Both,1,Automatic,main,57,20251023-122226,local,local,300,S,S,E,E,E-S.png,E-S.png,sS,sS,mask-1.png,mask-1.png,s,1,0.34221160000015516,h,0,0.0938047999952687,0.051593800002592616,0.04952699999557808,0.10226529999636114,0.10023129999171942,0.3015633000031812
RSVPLG03,km,20251023-121619,1.0.1,20251023-100704,713,Experiment,Both,1,Automatic,main,58,20251023-122230,global,local,300,S,H,E,A,S-E.png,A-H.png,sS,hH,mask-3.png,mask-1.png,s,1,0.3525761000055354,h,1,0.12654950001160614,0.051702600001590326,0.050232399997184984,0.10155019999365322,0.09959409998555202,0.30029080000531394
RSVPLG03,km,20251023-121619,1.0.1,20251023-100704,713,Experiment,Both,1,Automatic,main,59,20251023-122235,global,global,300,S,H,A,A,S-A.png,H-A.png,sS,hH,mask-2.png,mask-1.png,s,1,0.35551910000503995,h,1,0.525226500001736,0.04993629999808036,0.04933989999699406,0.09999200000311248,0.0989430000045104,0.30132959999900777
RSVPLG03,km,20251023-121619,1.0.1,20251023-100704,713,Experiment,Both,1,Automatic,main,60,20251023-122239,global,local,300,H,H,E,E,H-E.png,E-H.png,hH,hH,mask-1.png,mask-1.png,h,1,0.12549449999642093,s,0,0.3200543999992078,0.05068639999080915,0.04959910000616219,0.1002788000041619,0.10146990000794176,0.29971939999086317
RSVPLG03,km,20251023-121619,1.0.1,20251023-100704,713,Experiment,Both,1,Automatic,main,61,20251023-122244,local,local,750,H,H,A,E,A-H.png,E-H.png,hH,hH,mask-2.png,mask-1.png,h,1,0.2770668999874033,h,1,0.29462580000108574,0.05081300000892952,0.04929260000062641,0.10076780000235885,0.10075149999465793,0.7506636000034632
RSVPLG03,km,20251023-121619,1.0.1,20251023-100704,713,Experiment,Both,1,Automatic,main,62,20251023-122248,local,global,300,S,S,E,A,E-S.png,S-A.png,sS,sS,mask-1.png,mask-3.png,s,1,0.5506071999989217,h,0,0.27074419999553356,0.049409400002332404,0.050425599998561665,0.10008740000193939,0.10124560000258498,0.2991784000041662
RSVPLG03,km,20251023-121619,1.0.1,20251023-100704,713,Experiment,Both,1,Automatic,main,63,20251023-122253,local,local,300,S,H,E,A,E-S.png,A-H.png,sS,hH,mask-3.png,mask-4.png,h,0,0.14204560000507627,s,0,0.19139829999767244,0.04866499999479856,0.04988819999562111,0.09983680000004824,0.0998834999918472,0.30040680000092834
RSVPLG03,km,20251023-121619,1.0.1,20251023-100704,713,Experiment,Both,1,Automatic,main,64,20251023-122257,local,local,300,H,S,A,E,A-H.png,E-S.png,hH,sS,mask-3.png,mask-4.png,h,1,0.8037492000003112,s,1,0.16011040000012144,0.05159740000090096,0.050577500005601905,0.1008667999994941,0.10104619999765418,0.3009882999904221
RSVPLG03,km,20251023-121619,1.0.1,20251023-100704,713,Experiment,Both,1,Automatic,main,65,20251023-122302,local,global,750,S,H,E,A,E-S.png,H-A.png,sS,hH,mask-1.png,mask-4.png,h,0,1.1098502999957418,s,0,0.158934599996428,0.04780190000019502,0.05084050000004936,0.09929789998568594,0.10071739999693818,0.7494089999963762
RSVPLG03,km,20251023-121619,1.0.1,20251023-100704,713,Experiment,Both,1,Automatic,main,66,20251023-122308,global,global,750,S,H,E,E,S-E.png,H-E.png,sS,hH,mask-1.png,mask-3.png,s,1,0.6599236000038218,h,1,0.8084354000020539,0.04951850000361446,0.05064489999494981,0.0992512000084389,0.1010896999941906,0.74963970000681
RSVPLG03,km,20251023-121619,1.0.1,20251023-100704,713,Experiment,Both,1,Automatic,main,67,20251023-122312,local,local,300,S,H,A,A,A-S.png,A-H.png,sS,hH,mask-1.png,mask-2.png,s,1,2.0117306000029203,h,1,0.0755720999877667,0.050452299998141825,0.048294299995177425,0.10174510000797454,0.09870709999813698,0.30225950000749435
RSVPLG03,km,20251023-121619,1.0.1,20251023-100704,713,Experiment,Both,1,Automatic,main,68,20251023-122318,local,global,750,H,H,A,A,A-H.png,H-A.png,hH,hH,mask-3.png,mask-4.png,h,1,0.045314700008020736,s,0,0.2375090999994427,0.05067589999816846,0.0498607999907108,0.10073960000590887,0.09856410000065807,0.7508164000028046
RSVPLG03,km,20251023-121619,1.0.1,20251023-100704,713,Experiment,Both,1,Automatic,main,69,20251023-122323,global,global,750,S,H,A,E,S-A.png,H-E.png,sS,hH,mask-2.png,mask-3.png,s,1,0.15472479999880306,h,1,0.7720619000028819,0.04981680000491906,0.05155439999361988,0.10168010000779759,0.10131689999252558,0.7507939000061015
RSVPLG03,km,20251023-121619,1.0.1,20251023-100704,713,Experiment,Both,1,Automatic,main,70,20251023-122328,global,global,750,H,S,A,A,H-A.png,S-A.png,hH,sS,mask-2.png,mask-1.png,h,1,0.15795160000561737,s,1,0.20530099999450613,0.049873000010848045,0.05021110000961926,0.10102450000704266,0.09956180000153836,0.7503074999985984
RSVPLG03,km,20251023-121619,1.0.1,20251023-100704,713,Experiment,Both,1,Automatic,main,71,20251023-122333,local,global,750,H,S,A,E,A-H.png,S-E.png,hH,sS,mask-4.png,mask-4.png,h,1,0.3255166000017198,s,1,0.20611620000272524,0.04870970000047237,0.050149500006227754,0.09863969999423716,0.10037290000764187,0.7499343999952544
RSVPLG03,km,20251023-121619,1.0.1,20251023-100704,713,Experiment,Both,1,Automatic,main,72,20251023-122339,global,global,750,H,S,E,A,H-E.png,S-A.png,hH,sS,mask-1.png,mask-4.png,h,1,2.191217700004927,s,1,0.2690093999990495,0.04968919999373611,0.05074379999132361,0.10133099999802653,0.10001809999812394,0.7509347000013804
RSVPLG03,km,20251023-121619,1.0.1,20251023-100704,713,Experiment,Both,1,Automatic,main,73,20251023-122344,local,global,300,S,H,E,A,E-S.png,H-A.png,sS,hH,mask-1.png,mask-4.png,h,0,0.3578135999996448,s,0,0.2384580000070855,0.05041780001192819,0.04938209999818355,0.0996478000015486,0.0995379999949364,0.3000738000118872
RSVPLG03,km,20251023-121619,1.0.1,20251023-100704,713,Experiment,Both,1,Automatic,main,74,20251023-122350,local,global,750,H,H,A,A,A-H.png,H-A.png,hH,hH,mask-3.png,mask-1.png,h,1,1.3947354999982053,s,0,0.1870844999939436,0.049825699999928474,0.049837500002468005,0.09974840001086704,0.09952689999772701,0.7506753000052413
RSVPLG03,km,20251023-121619,1.0.1,20251023-100704,713,Experiment,Both,1,Automatic,main,75,20251023-122355,local,global,750,S,S,A,A,A-S.png,S-A.png,sS,sS,mask-4.png,mask-4.png,s,1,0.6797223999892594,s,1,0.10638759999710601,0.05000390000350308,0.04892149999795947,0.10001090000150725,0.0989460999990115,0.7509426000033272
RSVPLG03,km,20251023-121619,1.0.1,20251023-100704,713,Experiment,Both,1,Automatic,main,76,20251023-122442,local,local,750,S,H,E,E,E-S.png,E-H.png,sS,hH,mask-4.png,mask-4.png,s,1,0.576372800001991,s,0,0.2873602000036044,0.048434399999678135,0.050670099997660145,0.09881589999713469,0.10050529999716673,0.749985900009051
RSVPLG03,km,20251023-121619,1.0.1,20251023-100704,713,Experiment,Both,1,Automatic,main,77,20251023-122447,local,local,750,H,S,A,E,A-H.png,E-S.png,hH,sS,mask-3.png,mask-2.png,h,1,0.7416062999982387,s,1,0.0945713999972213,0.049104799996712245,0.04976160000660457,0.09995299999718554,0.10049189999699593,0.7493572999956086
RSVPLG03,km,20251023-121619,1.0.1,20251023-100704,713,Experiment,Both,1,Automatic,main,78,20251023-122451,global,global,750,H,H,E,A,H-E.png,H-A.png,hH,hH,mask-1.png,mask-3.png,h,1,0.17618530000618193,h,1,0.06567209999775514,0.04781150000053458,0.050047800003085285,0.09892659999604803,0.10016760000144131,0.7498889999988023
RSVPLG03,km,20251023-121619,1.0.1,20251023-100704,713,Experiment,Both,1,Automatic,main,79,20251023-122455,global,local,300,H,S,E,A,H-E.png,A-S.png,hH,sS,mask-3.png,mask-1.png,h,1,0.14151159999892116,h,0,0.4765890999988187,0.048984199995175004,0.05031340000277851,0.09917509999650065,0.09951099999307189,0.2996927000058349
RSVPLG03,km,20251023-121619,1.0.1,20251023-100704,713,Experiment,Both,1,Automatic,main,80,20251023-122459,global,local,750,S,S,A,E,S-A.png,E-S.png,sS,sS,mask-2.png,mask-4.png,s,1,1.6161885999899823,s,1,0.09360070001275744,0.050021300005028024,0.049803300003986806,0.10098180000204593,0.09989060000225436,0.7521915999968769
RSVPLG03,km,20251023-121619,1.0.1,20251023-100704,713,Experiment,Both,1,Automatic,main,81,20251023-122505,global,local,750,H,H,E,A,H-E.png,A-H.png,hH,hH,mask-3.png,mask-1.png,h,1,0.1117618999996921,h,1,0.23966039999504574,0.048828400002093986,0.04982960000052117,0.09912959999928717,0.10032589999900665,0.7503437999985181
RSVPLG03,km,20251023-121619,1.0.1,20251023-100704,713,Experiment,Both,1,Automatic,main,82,20251023-122510,global,global,300,H,S,E,A,H-E.png,S-A.png,hH,sS,mask-2.png,mask-4.png,h,1,0.12120779999531806,s,1,0.10960959999647457,0.049660600008792244,0.05100920000404585,0.09880390000762418,0.10022940000635572,0.299208099997486
RSVPLG03,km,20251023-121619,1.0.1,20251023-100704,713,Experiment,Both,1,Automatic,main,83,20251023-122514,local,global,300,H,H,E,A,E-H.png,H-A.png,hH,hH,mask-3.png,mask-3.png,h,1,0.3369644999911543,h,1,0.3243318000022555,0.04854400000476744,0.048243099998217076,0.10021119999873918,0.10003600000345614,0.3005697000044165
RSVPLG03,km,20251023-121619,1.0.1,20251023-100704,713,Experiment,Both,1,Automatic,main,84,20251023-122518,global,local,300,H,H,A,A,H-A.png,A-H.png,hH,hH,mask-4.png,mask-4.png,h,1,0.09440929999982473,s,0,0.42642329999944195,0.05155370000284165,0.04945060001045931,0.10141330001351889,0.1001449000032153,0.30178069999965373
RSVPLG03,km,20251023-121619,1.0.1,20251023-100704,713,Experiment,Both,1,Automatic,main,85,20251023-122522,local,global,300,S,H,A,A,A-S.png,H-A.png,sS,hH,mask-3.png,mask-4.png,h,0,0.25362139999924693,s,0,0.2680676999880234,0.050442599997040816,0.04904859999078326,0.0996856999990996,0.09846759999345522,0.3012606999982381
RSVPLG03,km,20251023-121619,1.0.1,20251023-100704,713,Experiment,Both,1,Automatic,main,86,20251023-122527,local,global,300,S,H,A,E,A-S.png,H-E.png,sS,hH,mask-1.png,mask-2.png,s,1,0.7794136000011349,s,0,0.11103079999156762,0.05168760000378825,0.04960489999211859,0.10052079999877606,0.10134490000200458,0.3005174999998417
RSVPLG03,km,20251023-121619,1.0.1,20251023-100704,713,Experiment,Both,1,Automatic,main,87,20251023-122531,global,global,300,H,S,E,E,H-E.png,S-E.png,hH,sS,mask-1.png,mask-1.png,s,0,1.1145637999870814,s,1,0.1115016999974614,0.049438799993367866,0.050333100007264875,0.1002740999974776,0.10063740001351107,0.30043979999027215
RSVPLG03,km,20251023-121619,1.0.1,20251023-100704,713,Experiment,Both,1,Automatic,main,88,20251023-122536,global,local,300,S,S,A,A,S-A.png,A-S.png,sS,sS,mask-1.png,mask-1.png,s,1,0.31182519999856595,h,0,0.22522329998901114,0.04969490000803489,0.04945720000250731,0.09947590000228956,0.09920599999895785,0.3003119000059087
RSVPLG03,km,20251023-121619,1.0.1,20251023-100704,713,Experiment,Both,1,Automatic,main,89,20251023-122540,global,local,300,H,S,E,A,H-E.png,A-S.png,hH,sS,mask-1.png,mask-2.png,h,1,0.14135420000820886,s,1,0.18811270000878721,0.050440299994079396,0.049717499990947545,0.10027769999578595,0.09954289998859167,0.30085080000571907
RSVPLG03,km,20251023-121619,1.0.1,20251023-100704,713,Experiment,Both,1,Automatic,main,90,20251023-122544,local,local,750,H,S,E,E,E-H.png,E-S.png,hH,sS,mask-3.png,mask-1.png,s,0,0.4815048000018578,h,0,0.24863550000009127,0.050865900004282594,0.050826999999117106,0.09967510000569746,0.10102339999866672,0.7500381999998353
RSVPLG03,km,20251023-121619,1.0.1,20251023-100704,713,Experiment,Both,1,Automatic,main,91,20251023-122549,global,local,750,H,S,E,E,H-E.png,E-S.png,hH,sS,mask-3.png,mask-4.png,h,1,0.22326759999850765,s,1,1.854952299996512,0.049411600004532374,0.04874289999133907,0.09885170000779908,0.09960139999748208,0.7507544000109192
RSVPLG03,km,20251023-121619,1.0.1,20251023-100704,713,Experiment,Both,1,Automatic,main,92,20251023-122555,global,local,750,S,H,A,E,S-A.png,E-H.png,sS,hH,mask-3.png,mask-1.png,s,1,0.2597817999921972,h,1,1.7267504999908851,0.04836729999806266,0.04867920000106096,0.09941709999111481,0.09851979999803007,0.7515502999885939
RSVPLG03,km,20251023-121619,1.0.1,20251023-100704,713,Experiment,Both,1,Automatic,main,93,20251023-122600,local,global,300,S,H,A,E,A-S.png,H-E.png,sS,hH,mask-4.png,mask-4.png,h,0,0.19022380000387784,s,0,0.07767129999410827,0.049854500000947155,0.049003399995854124,0.09981070000503678,0.10001270000066143,0.30054789999849163
RSVPLG03,km,20251023-121619,1.0.1,20251023-100704,713,Experiment,Both,1,Automatic,main,94,20251023-122605,global,global,750,S,S,E,E,S-E.png,S-E.png,sS,sS,mask-1.png,mask-3.png,s,1,0.2770426000060979,s,1,0.11411029999726452,0.050334699990344234,0.049845699992147274,0.09930409998924006,0.10001999999803957,0.7520392000005813
RSVPLG03,km,20251023-121619,1.0.1,20251023-100704,713,Experiment,Both,1,Automatic,main,95,20251023-122610,global,local,300,H,S,A,A,H-A.png,A-S.png,hH,sS,mask-3.png,mask-4.png,h,1,1.7475570000096923,h,0,1.106773899999098,0.05053949999273755,0.05033859999093693,0.10021340000093915,0.10001280000142287,0.30021580000175163
RSVPLG03,km,20251023-121619,1.0.1,20251023-100704,713,Experiment,Both,1,Automatic,main,96,20251023-122615,global,global,300,H,S,A,E,H-A.png,S-E.png,hH,sS,mask-3.png,mask-4.png,h,1,0.11113800000748597,s,1,0.15749670000514016,0.04975720000220463,0.049680299998726696,0.10159960000601131,0.10052909998921677,0.30108420000760816
RSVPLG03,km,20251023-121619,1.0.1,20251023-100704,713,Experiment,Both,1,Automatic,main,97,20251023-122620,global,local,750,H,H,E,A,H-E.png,A-H.png,hH,hH,mask-2.png,mask-1.png,h,1,0.8244676999893272,h,1,0.32819909999670926,0.049789400000008754,0.04969720001099631,0.09950310000567697,0.10051899999962188,0.7500850999931572
RSVPLG03,km,20251023-121619,1.0.1,20251023-100704,713,Experiment,Both,1,Automatic,main,98,20251023-122624,global,local,300,H,S,A,E,H-A.png,E-S.png,hH,sS,mask-1.png,mask-3.png,h,1,0.11173370000324212,s,1,0.18886180000845343,0.04957010000362061,0.050370599987218156,0.1001172999967821,0.10083289998874534,0.29992370000400115
RSVPLG03,km,20251023-121619,1.0.1,20251023-100704,713,Experiment,Both,1,Automatic,main,99,20251023-122629,local,global,750,S,H,E,A,E-S.png,H-A.png,sS,hH,mask-3.png,mask-4.png,h,0,0.3476669999945443,s,0,0.16002189999562688,0.04977060000237543,0.048153000010643154,0.09987849999743048,0.09887349999917205,0.7520212999952491
RSVPLG03,km,20251023-121619,1.0.1,20251023-100704,713,Experiment,Both,1,Automatic,main,100,20251023-122635,global,global,300,S,S,A,A,S-A.png,S-A.png,sS,sS,mask-4.png,mask-4.png,h,0,2.0918401000089943,s,1,0.5415389999980107,0.049752999999327585,0.050652200006879866,0.10008200000447687,0.10032070000306703,0.2994964999961667
RSVPLG03,km,20251023-121619,1.0.1,20251023-100704,713,Experiment,Both,1,Automatic,main,101,20251023-122725,local,local,750,S,H,A,E,A-S.png,E-H.png,sS,hH,mask-1.png,mask-3.png,h,0,0.5139147000008961,s,0,0.07900759999756701,0.04995479999342933,0.04972980001184624,0.10163859999738634,0.09955460000492167,0.7521543999901041
RSVPLG03,km,20251023-121619,1.0.1,20251023-100704,713,Experiment,Both,1,Automatic,main,102,20251023-122730,global,local,750,H,S,E,A,H-E.png,A-S.png,hH,sS,mask-4.png,mask-3.png,h,1,0.50480460000108,s,1,0.28473959999973886,0.04870610000216402,0.05140440000104718,0.1006894000020111,0.10190999999758787,0.7490228999959072
RSVPLG03,km,20251023-121619,1.0.1,20251023-100704,713,Experiment,Both,1,Automatic,main,103,20251023-122735,global,global,750,S,H,E,E,S-E.png,H-E.png,sS,hH,mask-2.png,mask-3.png,s,1,0.144301300009829,h,1,0.15552680000837427,0.05101989999820944,0.04905000000144355,0.09870289999525994,0.09992889998829924,0.7518200000049546
RSVPLG03,km,20251023-121619,1.0.1,20251023-100704,713,Experiment,Both,1,Automatic,main,104,20251023-122739,local,local,750,H,H,A,E,A-H.png,E-H.png,hH,hH,mask-1.png,mask-1.png,h,1,0.12594720000925008,h,1,0.34312530000170227,0.05142500001238659,0.050110700001823716,0.10010400001192465,0.09966020000865683,0.7520185000030324
RSVPLG03,km,20251023-121619,1.0.1,20251023-100704,713,Experiment,Both,1,Automatic,main,105,20251023-122744,global,local,750,S,S,A,A,S-A.png,A-S.png,sS,sS,mask-4.png,mask-2.png,s,1,0.44670960000075866,s,1,0.1552905999997165,0.05078099999809638,0.05164749998948537,0.09962320000340696,0.10066009999718517,0.7494058000011137
RSVPLG03,km,20251023-121619,1.0.1,20251023-100704,713,Experiment,Both,1,Automatic,main,106,20251023-122749,local,local,300,H,H,E,E,E-H.png,E-H.png,hH,hH,mask-1.png,mask-4.png,h,1,0.09338200000638608,s,0,0.1436699000041699,0.049682600001688115,0.04999149999639485,0.10054820000368636,0.1000037999911001,0.3005866000021342
RSVPLG03,km,20251023-121619,1.0.1,20251023-100704,713,Experiment,Both,1,Automatic,main,107,20251023-122753,global,global,300,S,S,E,E,S-E.png,S-E.png,sS,sS,mask-1.png,mask-4.png,s,1,0.3331585999985691,s,1,0.12447140000585932,0.049809499992989004,0.04941469999903347,0.09885989999747835,0.09943790000397712,0.3005412999918917
RSVPLG03,km,20251023-121619,1.0.1,20251023-100704,713,Experiment,Both,1,Automatic,main,108,20251023-122757,global,local,750,H,H,E,E,H-E.png,E-H.png,hH,hH,mask-2.png,mask-3.png,h,1,0.4879955000069458,s,0,0.2886311000038404,0.04866649999166839,0.05192159999569412,0.10056489999988116,0.10221270000329241,0.7486828999972204
RSVPLG03,km,20251023-121619,1.0.1,20251023-100704,713,Experiment,Both,1,Automatic,main,109,20251023-122802,local,local,750,H,S,E,E,E-H.png,E-S.png,hH,sS,mask-4.png,mask-1.png,s,0,0.6004645000066375,h,0,0.18395509998663329,0.05056960000365507,0.04991780000273138,0.10064760000386741,0.09998240000277292,0.7502780000068014
RSVPLG03,km,20251023-121619,1.0.1,20251023-100704,713,Experiment,Both,1,Automatic,main,110,20251023-122807,local,global,750,H,S,E,A,E-H.png,S-A.png,hH,sS,mask-3.png,mask-2.png,h,1,0.14365000001271255,s,1,0.1733589000068605,0.04975269999704324,0.049118800001451746,0.09963450000213925,0.09895080000569578,0.7506850999925518
RSVPLG03,km,20251023-121619,1.0.1,20251023-100704,713,Experiment,Both,1,Automatic,main,111,20251023-122811,global,local,750,S,S,E,A,S-E.png,A-S.png,sS,sS,mask-2.png,mask-2.png,s,1,0.9973041000048397,h,0,0.2963251000037417,0.04770460000145249,0.04872229999455158,0.09756989999732468,0.09956960000272375,0.7493124000029638
RSVPLG03,km,20251023-121619,1.0.1,20251023-100704,713,Experiment,Both,1,Automatic,main,112,20251023-122816,local,local,300,S,S,E,A,E-S.png,A-S.png,sS,sS,mask-2.png,mask-4.png,s,1,0.6489724999992177,h,0,0.05057590000797063,0.05112350000126753,0.05074770000646822,0.10096159999375232,0.10058040000149049,0.30037739999534097
RSVPLG03,km,20251023-121619,1.0.1,20251023-100704,713,Experiment,Both,1,Automatic,main,113,20251023-122821,local,local,300,H,S,A,E,A-H.png,E-S.png,hH,sS,mask-1.png,mask-4.png,h,1,0.15804409999691416,h,0,0.40272019999974873,0.048690200012060814,0.05129929998656735,0.09956030000466853,0.10066869998991024,0.29876860001240857
RSVPLG03,km,20251023-121619,1.0.1,20251023-100704,713,Experiment,Both,1,Automatic,main,114,20251023-122827,global,global,300,H,S,A,E,H-A.png,S-E.png,hH,sS,mask-3.png,mask-3.png,h,1,1.502456500005792,s,1,0.06254590000025928,0.04904539999552071,0.049726500001270324,0.0999156000034418,0.0995499000127893,0.2992842999956338
RSVPLG03,km,20251023-121619,1.0.1,20251023-100704,713,Experiment,Both,1,Automatic,main,115,20251023-122831,global,local,300,H,H,A,A,H-A.png,A-H.png,hH,hH,mask-3.png,mask-3.png,h,1,0.25282949999382254,h,1,0.401260500002536,0.049699900002451614,0.04975030000787228,0.09889860000112094,0.1006857000029413,0.2997216999938246
RSVPLG03,km,20251023-121619,1.0.1,20251023-100704,713,Experiment,Both,1,Automatic,main,116,20251023-122835,local,global,750,H,S,E,E,E-H.png,S-E.png,hH,sS,mask-4.png,mask-3.png,h,1,0.14296240000112448,s,1,0.11159139999654144,0.05071730000781827,0.049729499995009974,0.10156740000820719,0.09962280000036117,0.7518336000066483
RSVPLG03,km,20251023-121619,1.0.1,20251023-100704,713,Experiment,Both,1,Automatic,main,117,20251023-122840,local,local,300,S,S,A,A,A-S.png,A-S.png,sS,sS,mask-2.png,mask-3.png,h,0,0.687361599993892,s,1,0.17510629999742378,0.049996900008409284,0.0497246000013547,0.09995380000327714,0.09854690000065602,0.30180709999694955
RSVPLG03,km,20251023-121619,1.0.1,20251023-100704,713,Experiment,Both,1,Automatic,main,118,20251023-122845,global,local,300,H,S,E,E,H-E.png,E-S.png,hH,sS,mask-1.png,mask-1.png,h,1,0.9000612999952864,h,0,0.24482910000369884,0.04976870000245981,0.04955889999109786,0.10053899999184068,0.09912260000419337,0.300792599999113
RSVPLG03,km,20251023-121619,1.0.1,20251023-100704,713,Experiment,Both,1,Automatic,main,119,20251023-122849,global,global,300,H,H,E,E,H-E.png,H-E.png,hH,hH,mask-4.png,mask-3.png,h,1,0.588124500005506,s,0,0.14330860000336543,0.04755950000253506,0.04942260000098031,0.0979286000074353,0.0996449000085704,0.2992441999958828
RSVPLG03,km,20251023-121619,1.0.1,20251023-100704,713,Experiment,Both,1,Automatic,main,120,20251023-122853,local,local,300,S,H,E,E,E-S.png,E-H.png,sS,hH,mask-4.png,mask-2.png,s,1,0.2829580000106944,h,1,0.3740576999989571,0.04964470000413712,0.04964889999246225,0.10039839999808464,0.10042289999546483,0.2998208000062732
RSVPLG03,km,20251023-121619,1.0.1,20251023-100704,713,Experiment,Both,1,Automatic,main,121,20251023-122858,global,local,300,H,H,A,A,H-A.png,A-H.png,hH,hH,mask-1.png,mask-1.png,h,1,0.1418141000031028,h,1,0.4236513000068953,0.05042850000609178,0.04927620000671595,0.10086010000668466,0.09989690000656992,0.3012425000051735
RSVPLG03,km,20251023-121619,1.0.1,20251023-100704,713,Experiment,Both,1,Automatic,main,122,20251023-122902,global,global,750,H,H,E,E,H-E.png,H-E.png,hH,hH,mask-4.png,mask-4.png,h,1,0.12780850000854116,h,1,0.335589100010111,0.04956139999558218,0.05052319999958854,0.09925529999600258,0.10013589999289252,0.7495756999996956
