exp,exp_initials,runtime,ver,modtime,sub,blocktype,targets,cuetype,mode,trialtype,trial,trialtime,t1_level,t2_level,t2_lag,t1,t2,distractor1,distractor2,stimfile1,stimfile2,t1_corr,t2_corr,maskfile1,maskfile2,t1_resp,t1_acc,t1_rt,t2_resp,t2_acc,t2_rt,t1_dur,t2_dur,t1mask_soa,t2mask_soa,t1t2_soa
RSVPLG03,TM,20251103-090354,1.0.1,20251020-085245,729,Introduction,T1,1,Automatic,main,1,20251103-091937,local,local,750,H,H,A,A,A-H.png,A-H.png,hH,hH,mask-2.png,mask-3.png,h,1,6.881785799982026,none,-5,0,0.0986863998696208,0.09855129988864064,0.2017886999528855,0.20059489994309843,0.7511122999712825
RSVPLG03,TM,20251103-090354,1.0.1,20251020-085245,729,Introduction,T1,1,Automatic,main,2,20251103-091948,global,local,750,S,H,E,E,S-E.png,E-H.png,sS,hH,mask-2.png,mask-3.png,s,1,3.481660099932924,none,-5,0,0.09652539994567633,0.0973807000555098,0.19851140002720058,0.20115199987776577,0.7491800999268889
RSVPLG03,TM,20251103-090354,1.0.1,20251020-085245,729,Introduction,T1,1,Automatic,main,3,20251103-091955,local,global,750,S,S,E,E,E-S.png,S-E.png,sS,sS,mask-2.png,mask-2.png,s,1,1.5703241999726743,none,-5,0,0.09735880000516772,0.09738759999163449,0.20023049996234477,0.20025779982097447,0.7500146001111716
RSVPLG03,TM,20251103-090354,1.0.1,20251020-085245,729,Introduction,T1,1,Automatic,main,4,20251103-092001,global,global,750,H,H,A,E,H-A.png,H-E.png,hH,hH,mask-1.png,mask-2.png,h,1,1.5645751000847667,none,-5,0,0.09739090013317764,0.09647029987536371,0.19827450020238757,0.2004315999802202,0.7495783001650125
RSVPLG03,TM,20251103-090354,1.0.1,20251020-085245,729,Introduction,T1,1,Automatic,main,5,20251103-092007,global,global,750,S,H,A,E,S-A.png,H-E.png,sS,hH,mask-2.png,mask-4.png,s,1,1.914618100039661,none,-5,0,0.09602169995196164,0.09757949993945658,0.19905120017938316,0.1996313000563532,0.7497100001201034
RSVPLG03,TM,20251103-090354,1.0.1,20251020-085245,729,Introduction,T1,1,Automatic,main,6,20251103-092013,local,global,750,S,S,A,E,A-S.png,S-E.png,sS,sS,mask-4.png,mask-1.png,h,0,1.6009426999371499,none,-5,0,0.09756769984960556,0.0975494000595063,0.19843879994004965,0.2003409001044929,0.7499438999220729
RSVPLG03,TM,20251103-090354,1.0.1,20251020-085245,729,Introduction,T1,1,Automatic,main,7,20251103-092019,global,global,750,H,S,E,E,H-E.png,S-E.png,hH,sS,mask-2.png,mask-4.png,h,1,1.6346751998644322,none,-5,0,0.09575650002807379,0.09739320003427565,0.19962430000305176,0.20013689994812012,0.7499947000760585
RSVPLG03,TM,20251103-090354,1.0.1,20251020-085245,729,Introduction,T1,1,Automatic,main,8,20251103-092025,local,local,750,H,H,A,E,A-H.png,E-H.png,hH,hH,mask-2.png,mask-4.png,s,0,1.7602522000670433,none,-5,0,0.09738790011033416,0.0965442000888288,0.20006450009532273,0.19956330000422895,0.7502862999681383
RSVPLG03,TM,20251103-090354,1.0.1,20251020-085245,729,Introduction,T1,1,Automatic,main,9,20251103-092031,global,local,750,S,H,E,A,S-E.png,A-H.png,sS,hH,mask-4.png,mask-3.png,s,1,0.9253076000604779,none,-5,0,0.09681929997168481,0.09741090005263686,0.2006423999555409,0.2003043000586331,0.7505856999196112
RSVPLG03,TM,20251103-090354,1.0.1,20251020-085245,729,Introduction,T1,1,Automatic,main,10,20251103-092036,local,global,750,H,S,A,A,A-H.png,S-A.png,hH,sS,mask-3.png,mask-4.png,h,1,1.1895739999599755,none,-5,0,0.09888419997878373,0.09906730009242892,0.1999061000533402,0.20109370001591742,0.7498542999383062
RSVPLG03,TM,20251103-090354,1.0.1,20251020-085245,729,Introduction,T1,1,Automatic,main,11,20251103-092041,local,local,750,H,H,E,E,E-H.png,E-H.png,hH,hH,mask-3.png,mask-1.png,s,0,0.8250589999370277,none,-5,0,0.09743429999798536,0.098740000044927,0.19920230004936457,0.20172860007733107,0.7489529999438673
RSVPLG03,TM,20251103-090354,1.0.1,20251020-085245,729,Introduction,T1,1,Automatic,main,12,20251103-092046,local,global,750,H,H,E,A,E-H.png,H-A.png,hH,hH,mask-1.png,mask-2.png,h,1,1.0352960999589413,none,-5,0,0.09845390007831156,0.09657560009509325,0.20051610004156828,0.1994993998669088,0.7510880001354963
RSVPLG03,TM,20251103-090354,1.0.1,20251020-085245,729,Introduction,T1,1,Automatic,main,13,20251103-092051,global,local,750,S,H,A,A,S-A.png,A-H.png,sS,hH,mask-4.png,mask-1.png,s,1,1.2741682999767363,none,-5,0,0.09754440002143383,0.09757360001094639,0.1981742000207305,0.1986285001039505,0.7498983999248594
RSVPLG03,TM,20251103-090354,1.0.1,20251020-085245,729,Introduction,T1,1,Automatic,main,14,20251103-092057,global,global,750,S,H,E,E,S-E.png,H-E.png,sS,hH,mask-2.png,mask-2.png,s,1,0.8622023998759687,none,-5,0,0.09653610014356673,0.09726820001378655,0.1984809001442045,0.20014349999837577,0.750242399983108
RSVPLG03,TM,20251103-090354,1.0.1,20251020-085245,729,Introduction,T1,1,Automatic,main,15,20251103-092102,local,local,750,S,H,E,E,E-S.png,E-H.png,sS,hH,mask-2.png,mask-1.png,s,1,0.522328799823299,none,-5,0,0.09800790017470717,0.09754730015993118,0.20098310010507703,0.19958380004391074,0.7510838999878615
RSVPLG03,TM,20251103-090354,1.0.1,20251020-085245,729,Introduction,T1,1,Automatic,main,16,20251103-092106,global,local,750,S,S,A,A,S-A.png,A-S.png,sS,sS,mask-2.png,mask-2.png,s,1,0.5089177000336349,none,-5,0,0.09718880010768771,0.09750639996491373,0.19907810003496706,0.20036339992657304,0.7493863999843597
RSVPLG03,TM,20251103-092259,1.0.1,20251020-085245,729,Practice,T1,1,Automatic,main,1,20251103-092325,local,local,750,S,S,A,A,A-S.png,A-S.png,sS,sS,mask-1.png,mask-2.png,s,1,1.1478283999022096,none,-5,0,0.043850200017914176,0.04739100020378828,0.09629370016045868,0.0994905000552535,0.7474020000081509
RSVPLG03,TM,20251103-092259,1.0.1,20251020-085245,729,Practice,T1,1,Automatic,main,2,20251103-092330,local,local,300,S,S,E,E,E-S.png,E-S.png,sS,sS,mask-4.png,mask-2.png,s,1,0.42950600013136864,none,-5,0,0.048225400038063526,0.045650700107216835,0.09961130004376173,0.09937810013070703,0.3012647000141442
RSVPLG03,TM,20251103-092259,1.0.1,20251020-085245,729,Practice,T1,1,Automatic,main,3,20251103-092334,local,local,300,H,H,E,E,E-H.png,E-H.png,hH,hH,mask-3.png,mask-4.png,s,0,0.46215969999320805,none,-5,0,0.04751780000515282,0.04749089991673827,0.09985779994167387,0.0998531999066472,0.3004662001039833
RSVPLG03,TM,20251103-092259,1.0.1,20251020-085245,729,Practice,T1,1,Automatic,main,4,20251103-092338,local,global,300,H,H,E,E,E-H.png,H-E.png,hH,hH,mask-2.png,mask-4.png,s,0,0.2935136999003589,none,-5,0,0.04886769992299378,0.047703899908810854,0.10104229999706149,0.09971570014022291,0.30059199989773333
RSVPLG03,TM,20251103-092259,1.0.1,20251020-085245,729,Practice,T1,1,Automatic,main,5,20251103-092341,global,local,300,S,S,A,E,S-A.png,E-S.png,sS,sS,mask-3.png,mask-4.png,s,1,0.35370499989949167,none,-5,0,0.04750980017706752,0.04753169999457896,0.0985107000451535,0.09860619995743036,0.29994880012236536
RSVPLG03,TM,20251103-092259,1.0.1,20251020-085245,729,Practice,T1,1,Automatic,main,6,20251103-092345,global,local,750,H,S,A,A,H-A.png,A-S.png,hH,sS,mask-4.png,mask-2.png,h,1,2.0335164999123663,none,-5,0,0.04749309993349016,0.04849429987370968,0.10050699999555945,0.10137799987569451,0.7502081000711769
RSVPLG03,TM,20251103-092259,1.0.1,20251020-085245,729,Practice,T1,1,Automatic,main,7,20251103-092351,local,global,750,S,H,A,E,A-S.png,H-E.png,sS,hH,mask-3.png,mask-4.png,s,1,0.46173590002581477,none,-5,0,0.045739199966192245,0.04668149980716407,0.0999978999607265,0.09999949997290969,0.7499065001029521
RSVPLG03,TM,20251103-092259,1.0.1,20251020-085245,729,Practice,T1,1,Automatic,main,8,20251103-092356,global,local,300,S,H,E,E,S-E.png,E-H.png,sS,hH,mask-4.png,mask-3.png,h,0,0.7380353999324143,none,-5,0,0.0468947000335902,0.047496900195255876,0.10012520011514425,0.10033960011787713,0.2992173000238836
RSVPLG03,TM,20251103-092259,1.0.1,20251020-085245,729,Practice,T1,1,Automatic,main,9,20251103-092400,global,local,750,S,S,E,A,S-E.png,A-S.png,sS,sS,mask-2.png,mask-1.png,s,1,0.3990383001510054,none,-5,0,0.04780280007980764,0.04845649981871247,0.10005310014821589,0.10046270000748336,0.7501802002079785
RSVPLG03,TM,20251103-092259,1.0.1,20251020-085245,729,Practice,T1,1,Automatic,main,10,20251103-092405,local,global,300,S,S,E,A,E-S.png,S-A.png,sS,sS,mask-3.png,mask-4.png,s,1,1.244428199948743,none,-5,0,0.04646839993074536,0.04859220003709197,0.09860179992392659,0.09947349992580712,0.2994031999260187
RSVPLG03,TM,20251103-092259,1.0.1,20251020-085245,729,Practice,T1,1,Automatic,main,11,20251103-092410,global,global,300,S,H,A,A,S-A.png,H-A.png,sS,hH,mask-4.png,mask-3.png,s,1,0.3674926001112908,none,-5,0,0.04687349987216294,0.04750029998831451,0.09952119993977249,0.09960000007413328,0.300287599908188
RSVPLG03,TM,20251103-092259,1.0.1,20251020-085245,729,Practice,T1,1,Automatic,main,12,20251103-092414,global,global,750,S,H,A,A,S-A.png,H-A.png,sS,hH,mask-3.png,mask-4.png,s,1,0.0017754998989403248,none,-5,0,0.04761120001785457,0.04737400007434189,0.09968780004419386,0.0986625999212265,0.7504050000570714
RSVPLG03,TM,20251103-092259,1.0.1,20251020-085245,729,Practice,T1,1,Automatic,main,13,20251103-092418,global,global,300,H,H,A,E,H-A.png,H-E.png,hH,hH,mask-3.png,mask-2.png,h,1,0.38734340015798807,none,-5,0,0.04732870007865131,0.0483040998224169,0.09914529998786747,0.10034139989875257,0.2990622001234442
RSVPLG03,TM,20251103-092259,1.0.1,20251020-085245,729,Practice,T1,1,Automatic,main,14,20251103-092422,global,global,750,H,S,E,E,H-E.png,S-E.png,hH,sS,mask-3.png,mask-1.png,s,0,0.4187863999977708,none,-5,0,0.048329300014302135,0.04647459997795522,0.1016063999850303,0.09962280001491308,0.7516181999817491
RSVPLG03,TM,20251103-092259,1.0.1,20251020-085245,729,Practice,T1,1,Automatic,main,15,20251103-092426,local,global,750,H,S,A,E,A-H.png,S-E.png,hH,sS,mask-4.png,mask-2.png,s,0,0.3583088999148458,none,-5,0,0.047507999930530787,0.047767199808731675,0.09870969993062317,0.10087329987436533,0.749189400114119
RSVPLG03,TM,20251103-092259,1.0.1,20251020-085245,729,Practice,T1,1,Automatic,main,16,20251103-092431,local,local,750,H,H,A,E,A-H.png,E-H.png,hH,hH,mask-4.png,mask-2.png,s,0,1.6477756998501718,none,-5,0,0.04872140008956194,0.047167800134047866,0.10053119994699955,0.10008250013925135,0.7511070999316871
RSVPLG03,TM,20251103-092453,1.0.1,20251020-085245,729,Practice,T1,1,Automatic,main,1,20251103-092513,global,local,750,S,H,E,E,S-E.png,E-H.png,sS,hH,mask-1.png,mask-4.png,s,1,0.9346606000326574,none,-5,0,0.03892459999769926,0.047668599989265203,0.09137849998660386,0.09846600005403161,0.7441879000980407
RSVPLG03,TM,20251103-092453,1.0.1,20251020-085245,729,Practice,T1,1,Automatic,main,2,20251103-092517,global,local,750,S,H,A,E,S-A.png,E-H.png,sS,hH,mask-3.png,mask-3.png,s,1,0.5371562000364065,none,-5,0,0.04787339991889894,0.04668570007197559,0.09933910006657243,0.09990640007890761,0.7505824000108987
RSVPLG03,TM,20251103-092453,1.0.1,20251020-085245,729,Practice,T1,1,Automatic,main,3,20251103-092522,local,global,300,S,H,E,E,E-S.png,H-E.png,sS,hH,mask-3.png,mask-1.png,h,0,2.4941298000048846,none,-5,0,0.04660750017501414,0.04762450000271201,0.10075590014457703,0.0998074000235647,0.3009020001627505
RSVPLG03,TM,20251103-092453,1.0.1,20251020-085245,729,Practice,T1,1,Automatic,main,4,20251103-092528,local,global,300,H,H,E,E,E-H.png,H-E.png,hH,hH,mask-2.png,mask-1.png,h,1,0.4550309998448938,none,-5,0,0.04833010002039373,0.04661020007915795,0.10132140014320612,0.09962810017168522,0.3018889999948442
RSVPLG03,TM,20251103-092453,1.0.1,20251020-085245,729,Practice,T1,1,Automatic,main,5,20251103-092532,local,local,300,S,S,A,E,A-S.png,E-S.png,sS,sS,mask-4.png,mask-3.png,h,0,0.647368400124833,none,-5,0,0.046285499818623066,0.0465355000924319,0.10030369996093214,0.09856120008043945,0.30058759986422956
RSVPLG03,TM,20251103-092453,1.0.1,20251020-085245,729,Practice,T1,1,Automatic,main,6,20251103-092536,global,local,300,H,S,A,A,H-A.png,A-S.png,hH,sS,mask-2.png,mask-3.png,h,1,0.599714299896732,none,-5,0,0.04841500008478761,0.04841589997522533,0.10013339994475245,0.10057889996096492,0.3008252999279648
RSVPLG03,TM,20251103-092453,1.0.1,20251020-085245,729,Practice,T1,1,Automatic,main,7,20251103-092541,local,global,750,H,H,E,E,E-H.png,H-E.png,hH,hH,mask-2.png,mask-1.png,s,0,0.34673359990119934,none,-5,0,0.04851970006711781,0.0475167001131922,0.10012770001776516,0.10006830003112555,0.7512497999705374
RSVPLG03,TM,20251103-092453,1.0.1,20251020-085245,729,Practice,T1,1,Automatic,main,8,20251103-092545,global,local,300,S,H,E,E,S-E.png,E-H.png,sS,hH,mask-3.png,mask-4.png,h,0,0.6016199998557568,none,-5,0,0.04753430001437664,0.04636809998191893,0.10167569993063807,0.10028589982539415,0.30178970005363226
RSVPLG03,TM,20251103-092453,1.0.1,20251020-085245,729,Practice,T1,1,Automatic,main,9,20251103-092549,global,global,750,H,S,E,E,H-E.png,S-E.png,hH,sS,mask-4.png,mask-2.png,s,0,0.34750740020535886,none,-5,0,0.048553899861872196,0.046712900046259165,0.10042909998446703,0.0997677999548614,0.7511763998772949
RSVPLG03,TM,20251103-092453,1.0.1,20251020-085245,729,Practice,T1,1,Automatic,main,10,20251103-092554,local,local,750,H,H,A,A,A-H.png,A-H.png,hH,hH,mask-2.png,mask-4.png,h,1,0.9033296001143754,none,-5,0,0.048514399910345674,0.047505300026386976,0.09958819998428226,0.1005971000995487,0.7513931998983026
RSVPLG03,TM,20251103-092453,1.0.1,20251020-085245,729,Practice,T1,1,Automatic,main,11,20251103-092559,local,local,750,H,S,A,E,A-H.png,E-S.png,hH,sS,mask-1.png,mask-4.png,h,1,0.7342681000009179,none,-5,0,0.04571889992803335,0.04608929995447397,0.1008315000217408,0.09834200004115701,0.7517570999916643
RSVPLG03,TM,20251103-092453,1.0.1,20251020-085245,729,Practice,T1,1,Automatic,main,12,20251103-092604,global,global,300,S,S,E,E,S-E.png,S-E.png,sS,sS,mask-2.png,mask-3.png,s,1,0.5160616000648588,none,-5,0,0.04781419993378222,0.0474913998041302,0.09989740001037717,0.09938509995117784,0.3001506000291556
RSVPLG03,TM,20251103-092453,1.0.1,20251020-085245,729,Practice,T1,1,Automatic,main,13,20251103-092608,local,local,300,H,S,A,A,A-H.png,A-S.png,hH,sS,mask-4.png,mask-2.png,h,1,0.5333477999083698,none,-5,0,0.04753430001437664,0.046755699906498194,0.09960429999046028,0.0999733000062406,0.3004465999547392
RSVPLG03,TM,20251103-092453,1.0.1,20251020-085245,729,Practice,T1,1,Automatic,main,14,20251103-092612,local,global,750,H,H,A,A,A-H.png,H-A.png,hH,hH,mask-1.png,mask-2.png,h,1,0.7555484999902546,none,-5,0,0.04826639988459647,0.04649719991721213,0.0999710001051426,0.09963249997235835,0.7513266999740154
RSVPLG03,TM,20251103-092453,1.0.1,20251020-085245,729,Practice,T1,1,Automatic,main,15,20251103-092617,global,global,300,S,H,A,A,S-A.png,H-A.png,sS,hH,mask-4.png,mask-3.png,s,1,0.8358038999140263,none,-5,0,0.0476496999617666,0.04842470004223287,0.10047489986754954,0.10126750008203089,0.3004026999697089
RSVPLG03,TM,20251103-092453,1.0.1,20251020-085245,729,Practice,T1,1,Automatic,main,16,20251103-092621,global,global,750,S,S,E,E,S-E.png,S-E.png,sS,sS,mask-1.png,mask-4.png,h,0,0.37394469999708235,none,-5,0,0.04780189995653927,0.047706699930131435,0.10030009993351996,0.10183819988742471,0.7504324000328779
RSVPLG03,TM,20251103-092639,1.0.1,20251020-085245,729,Practice,T1,1,Automatic,main,1,20251103-092657,global,global,300,H,H,E,E,H-E.png,H-E.png,hH,hH,mask-1.png,mask-3.png,h,1,0.7857510999310762,none,-5,0,0.03800900001078844,0.04765900014899671,0.09070870000869036,0.09961459995247424,0.29149809991940856
RSVPLG03,TM,20251103-092639,1.0.1,20251020-085245,729,Practice,T1,1,Automatic,main,2,20251103-092701,local,global,300,S,S,E,E,E-S.png,S-E.png,sS,sS,mask-3.png,mask-2.png,s,1,1.0547189998906106,none,-5,0,0.045676799956709146,0.04865729995071888,0.09885989991016686,0.10181570006534457,0.29824789986014366
RSVPLG03,TM,20251103-092639,1.0.1,20251020-085245,729,Practice,T1,1,Automatic,main,3,20251103-092706,local,local,300,S,H,E,A,E-S.png,A-H.png,sS,hH,mask-2.png,mask-2.png,h,0,1.0136905000545084,none,-5,0,0.04928949987515807,0.04846620000898838,0.10008640005253255,0.09934730012901127,0.3009545998647809
RSVPLG03,TM,20251103-092639,1.0.1,20251020-085245,729,Practice,T1,1,Automatic,main,4,20251103-092710,local,global,750,S,S,A,E,A-S.png,S-E.png,sS,sS,mask-4.png,mask-4.png,s,1,0.8090732998680323,none,-5,0,0.04751870012842119,0.0456882999278605,0.09834180003963411,0.09939910005778074,0.7501997000072151
RSVPLG03,TM,20251103-092639,1.0.1,20251020-085245,729,Practice,T1,1,Automatic,main,5,20251103-092715,global,local,300,H,S,E,A,H-E.png,A-S.png,hH,sS,mask-2.png,mask-1.png,h,1,0.5251406999304891,none,-5,0,0.048652300145477057,0.04749170015566051,0.09968660003505647,0.10005920007824898,0.2994524999521673
RSVPLG03,TM,20251103-092639,1.0.1,20251020-085245,729,Practice,T1,1,Automatic,main,6,20251103-092720,global,local,750,S,S,E,E,S-E.png,E-S.png,sS,sS,mask-3.png,mask-4.png,s,1,0.5214376000221819,none,-5,0,0.04669270012527704,0.04763929988257587,0.09890550002455711,0.09993449994362891,0.7504585001152009
RSVPLG03,TM,20251103-092639,1.0.1,20251020-085245,729,Practice,T1,1,Automatic,main,7,20251103-092724,local,local,300,S,H,E,E,E-S.png,E-H.png,sS,hH,mask-4.png,mask-1.png,s,1,0.7408541000913829,none,-5,0,0.046776800183579326,0.04699800000526011,0.10076800012029707,0.10059179994277656,0.29917170014232397
RSVPLG03,TM,20251103-092639,1.0.1,20251020-085245,729,Practice,T1,1,Automatic,main,8,20251103-092728,global,global,750,H,H,A,E,H-A.png,H-E.png,hH,hH,mask-4.png,mask-3.png,h,1,0.5832255999557674,none,-5,0,0.047654599882662296,0.04763970011845231,0.09972379985265434,0.09920420008711517,0.7495636998210102
RSVPLG03,TM,20251103-092639,1.0.1,20251020-085245,729,Practice,T1,1,Automatic,main,9,20251103-092733,local,global,750,S,S,E,A,E-S.png,S-A.png,sS,sS,mask-2.png,mask-2.png,s,1,0.7805844000540674,none,-5,0,0.0466609001159668,0.04770440002903342,0.09826180012896657,0.09995270008221269,0.7496329999994487
RSVPLG03,TM,20251103-092639,1.0.1,20251020-085245,729,Practice,T1,1,Automatic,main,10,20251103-092738,local,local,750,S,H,E,E,E-S.png,E-H.png,sS,hH,mask-1.png,mask-1.png,s,1,0.6746787000447512,none,-5,0,0.046697699930518866,0.046771900029852986,0.09800029988400638,0.09884699992835522,0.7497064999770373
RSVPLG03,TM,20251103-092639,1.0.1,20251020-085245,729,Practice,T1,1,Automatic,main,11,20251103-092742,global,local,750,H,H,E,A,H-E.png,A-H.png,hH,hH,mask-2.png,mask-2.png,h,1,0.5379721999634057,none,-5,0,0.04849600000306964,0.04602789995260537,0.09952419996261597,0.1001139001455158,0.7513307000044733
RSVPLG03,TM,20251103-092639,1.0.1,20251020-085245,729,Practice,T1,1,Automatic,main,12,20251103-092747,local,local,750,H,S,A,E,A-H.png,E-S.png,hH,sS,mask-2.png,mask-3.png,s,0,0.5092777002137154,none,-5,0,0.0476023000665009,0.047327299835160375,0.09977469989098608,0.09859810001216829,0.7504904000088573
RSVPLG03,TM,20251103-092639,1.0.1,20251020-085245,729,Practice,T1,1,Automatic,main,13,20251103-092752,global,global,750,S,H,A,E,S-A.png,H-E.png,sS,hH,mask-2.png,mask-1.png,h,0,0.8978937999345362,none,-5,0,0.04850289993919432,0.04673269996419549,0.0996826000045985,0.09979590005241334,0.751137200044468
RSVPLG03,TM,20251103-092639,1.0.1,20251020-085245,729,Practice,T1,1,Automatic,main,14,20251103-092757,global,local,300,S,S,E,E,S-E.png,E-S.png,sS,sS,mask-3.png,mask-2.png,s,1,0.5295384000055492,none,-5,0,0.04781919997185469,0.04763100016862154,0.10014860006049275,0.098860900150612,0.30092219985090196
RSVPLG03,TM,20251103-092639,1.0.1,20251020-085245,729,Practice,T1,1,Automatic,main,15,20251103-092801,local,global,300,H,H,A,E,A-H.png,H-E.png,hH,hH,mask-1.png,mask-4.png,h,1,0.6503832000307739,none,-5,0,0.04618349997326732,0.04658099985681474,0.0992227999959141,0.09959589992649853,0.299610200105235
RSVPLG03,TM,20251103-092639,1.0.1,20251020-085245,729,Practice,T1,1,Automatic,main,16,20251103-092805,global,global,300,S,H,E,A,S-E.png,H-A.png,sS,hH,mask-4.png,mask-3.png,h,0,0.7595524999778718,none,-5,0,0.04755529994145036,0.047282100189477205,0.10161229991354048,0.10086470004171133,0.30034279986284673
RSVPLG03,TM,20251103-092831,1.0.1,20251020-085245,729,Introduction,Both,1,Automatic,main,1,20251103-092952,global,global,750,H,S,E,A,H-E.png,S-A.png,hH,sS,mask-2.png,mask-2.png,s,0,1.926663599908352,s,1,1.3986361999996006,0.09125180006958544,0.09738290007226169,0.19392869994044304,0.19925049995072186,0.7426938000135124
RSVPLG03,TM,20251103-092831,1.0.1,20251020-085245,729,Introduction,Both,1,Automatic,main,2,20251103-093000,global,local,750,S,S,A,A,S-A.png,A-S.png,sS,sS,mask-1.png,mask-4.png,h,0,1.4564956000540406,s,1,0.694017400033772,0.09638920007273555,0.0973861999809742,0.1982577999588102,0.19930660002864897,0.7501453999429941
RSVPLG03,TM,20251103-092831,1.0.1,20251020-085245,729,Introduction,Both,1,Automatic,main,3,20251103-093007,global,global,750,H,S,E,E,H-E.png,S-E.png,hH,sS,mask-3.png,mask-4.png,h,1,0.671311300015077,s,1,0.47625870001502335,0.09743790002539754,0.09737839992158115,0.20035729999653995,0.2003264999948442,0.7506443001329899
RSVPLG03,TM,20251103-092831,1.0.1,20251020-085245,729,Introduction,Both,1,Automatic,main,4,20251103-093012,local,global,750,H,S,E,E,E-H.png,S-E.png,hH,sS,mask-3.png,mask-2.png,h,1,1.051798300119117,s,1,0.2624290001112968,0.09836670011281967,0.09675100003369153,0.2001646999269724,0.1996331000700593,0.7505572999361902
RSVPLG03,TM,20251103-092831,1.0.1,20251020-085245,729,Introduction,Both,1,Automatic,main,5,20251103-093018,global,global,750,S,H,E,E,S-E.png,H-E.png,sS,hH,mask-1.png,mask-4.png,s,1,0.43389130011200905,h,1,0.5235703000798821,0.09755649999715388,0.09754590014927089,0.20142689999192953,0.19957510009407997,0.7521774000488222
RSVPLG03,TM,20251103-092831,1.0.1,20251020-085245,729,Introduction,Both,1,Automatic,main,6,20251103-093023,local,global,750,H,H,A,E,A-H.png,H-E.png,hH,hH,mask-2.png,mask-1.png,h,1,0.7746474999003112,h,1,0.2961147001478821,0.09835730004124343,0.09716699994169176,0.20010400004684925,0.19890759978443384,0.7509133000858128
RSVPLG03,TM,20251103-092831,1.0.1,20251020-085245,729,Introduction,Both,1,Automatic,main,7,20251103-093029,global,local,750,S,S,E,E,S-E.png,E-S.png,sS,sS,mask-4.png,mask-4.png,s,1,0.592699300032109,h,0,0.47153880004771054,0.09844370000064373,0.09758739988319576,0.2006820000242442,0.19938909984193742,0.7511169000063092
RSVPLG03,TM,20251103-092831,1.0.1,20251020-085245,729,Introduction,Both,1,Automatic,main,8,20251103-093034,global,local,750,S,S,E,A,S-E.png,A-S.png,sS,sS,mask-1.png,mask-4.png,s,1,0.987123099854216,s,1,0.2197124999947846,0.0973807000555098,0.09746329998597503,0.20027010003104806,0.19952869997359812,0.7504847999662161
RSVPLG03,TM,20251103-092831,1.0.1,20251020-085245,729,Introduction,Both,1,Automatic,main,9,20251103-093039,local,local,750,H,S,E,A,E-H.png,A-S.png,hH,sS,mask-1.png,mask-3.png,s,0,0.8405548001173884,h,0,0.18634189991280437,0.09737919992767274,0.09856200008653104,0.2001632999163121,0.2006131000816822,0.7488017999567091
RSVPLG03,TM,20251103-092831,1.0.1,20251020-085245,729,Introduction,Both,1,Automatic,main,10,20251103-093045,local,global,750,S,H,A,A,A-S.png,H-A.png,sS,hH,mask-4.png,mask-1.png,s,1,1.4428689000196755,h,1,0.26307339989580214,0.09734100010246038,0.09742100001312792,0.20116799999959767,0.19930070010013878,0.7505810000002384
RSVPLG03,TM,20251103-092831,1.0.1,20251020-085245,729,Introduction,Both,1,Automatic,main,11,20251103-093051,local,local,750,H,S,E,E,E-H.png,E-S.png,hH,sS,mask-3.png,mask-4.png,s,0,1.243072299985215,h,0,0.1885232999920845,0.0973859999794513,0.09747170004993677,0.19834630005061626,0.20042390003800392,0.7496305999811739
RSVPLG03,TM,20251103-092831,1.0.1,20251020-085245,729,Introduction,Both,1,Automatic,main,12,20251103-093057,local,global,750,S,H,E,A,E-S.png,H-A.png,sS,hH,mask-3.png,mask-1.png,s,1,1.325729199917987,h,1,0.18729680008254945,0.09656640002503991,0.09856249997392297,0.1992786000482738,0.19953510002233088,0.749326900113374
RSVPLG03,TM,20251103-092831,1.0.1,20251020-085245,729,Introduction,Both,1,Automatic,main,13,20251103-093103,local,local,750,H,S,A,E,A-H.png,E-S.png,hH,sS,mask-1.png,mask-1.png,h,1,1.094685500022024,s,1,0.2164627001620829,0.0968928998336196,0.09742860007099807,0.20088559994474053,0.19831620017066598,0.7519834998529404
RSVPLG03,TM,20251103-092831,1.0.1,20251020-085245,729,Introduction,Both,1,Automatic,main,14,20251103-093108,global,local,750,S,S,E,A,S-E.png,A-S.png,sS,sS,mask-4.png,mask-1.png,s,1,0.4186559999361634,h,0,0.14932450000196695,0.09761669998988509,0.0976386999245733,0.20073319994844496,0.19967409991659224,0.7507660000119358
RSVPLG03,TM,20251103-092831,1.0.1,20251020-085245,729,Introduction,Both,1,Automatic,main,15,20251103-093113,global,global,750,S,H,E,E,S-E.png,H-E.png,sS,hH,mask-2.png,mask-4.png,s,1,0.38867779984138906,h,1,0.1571537998970598,0.09646870009601116,0.09739520004950464,0.20033379993401468,0.19933780003339052,0.7503422000445426
RSVPLG03,TM,20251103-092831,1.0.1,20251020-085245,729,Introduction,Both,1,Automatic,main,16,20251103-093118,local,local,750,H,H,A,A,A-H.png,A-H.png,hH,hH,mask-2.png,mask-3.png,s,0,0.8646442999597639,h,1,0.16825789981521666,0.09668740001507103,0.09743369999341667,0.19972170004621148,0.20030939998105168,0.7499750000424683
RSVPLG03,TM,20251103-093143,1.0.1,20251020-085245,729,Introduction,Both,1,Automatic,main,1,20251103-093208,global,global,750,S,S,E,A,S-E.png,S-A.png,sS,sS,mask-1.png,mask-2.png,h,0,2.1263479001354426,s,1,0.1393234001006931,0.09073619986884296,0.09611449996009469,0.19284239993430674,0.1991959000006318,0.743090600008145
RSVPLG03,TM,20251103-093143,1.0.1,20251020-085245,729,Introduction,Both,1,Automatic,main,2,20251103-093214,local,global,750,H,H,A,E,A-H.png,H-E.png,hH,hH,mask-3.png,mask-2.png,h,1,0.4967799000442028,h,1,0.10055019985884428,0.09735719999298453,0.09847480012103915,0.20045870007015765,0.20047109993174672,0.7486219999846071
RSVPLG03,TM,20251103-093143,1.0.1,20251020-085245,729,Introduction,Both,1,Automatic,main,3,20251103-093219,global,local,750,H,H,E,A,H-E.png,A-H.png,hH,hH,mask-4.png,mask-4.png,h,1,0.6201224999967963,h,1,0.12104270001873374,0.09765190002508461,0.09717780002392828,0.20056410017423332,0.19825099990703166,0.750298700062558
RSVPLG03,TM,20251103-093143,1.0.1,20251020-085245,729,Introduction,Both,1,Automatic,main,4,20251103-093224,local,global,750,S,H,A,A,A-S.png,H-A.png,sS,hH,mask-1.png,mask-4.png,h,0,0.4302613998297602,h,1,0.10413959994912148,0.09754720004275441,0.09733249992132187,0.1997638000175357,0.20041689998470247,0.7497741999104619
RSVPLG03,TM,20251103-093143,1.0.1,20251020-085245,729,Introduction,Both,1,Automatic,main,5,20251103-093229,local,local,750,S,H,E,E,E-S.png,E-H.png,sS,hH,mask-4.png,mask-4.png,s,1,0.5346669000573456,s,0,0.09815839980728924,0.0976819999050349,0.0964663999620825,0.1997668999247253,0.19898970006033778,0.7503194999881089
RSVPLG03,TM,20251103-093143,1.0.1,20251020-085245,729,Introduction,Both,1,Automatic,main,6,20251103-093234,local,local,750,H,H,E,A,E-H.png,A-H.png,hH,hH,mask-1.png,mask-4.png,s,0,0.5659113000147045,h,1,0.10608769999817014,0.09736769995652139,0.09737989981658757,0.20125000015832484,0.1982874998357147,0.7502517001703382
RSVPLG03,TM,20251103-093143,1.0.1,20251020-085245,729,Introduction,Both,1,Automatic,main,7,20251103-093239,local,global,750,S,S,A,A,A-S.png,S-A.png,sS,sS,mask-4.png,mask-4.png,s,1,0.5723212000448257,s,1,0.08239710005000234,0.09712269995361567,0.09731559990905225,0.20019879983738065,0.19826049986295402,0.7496805000118911
RSVPLG03,TM,20251103-093143,1.0.1,20251020-085245,729,Introduction,Both,1,Automatic,main,8,20251103-093244,global,local,750,S,S,A,A,S-A.png,A-S.png,sS,sS,mask-4.png,mask-1.png,s,1,0.5119152998086065,h,0,0.1541363000869751,0.09966800012625754,0.09659640002064407,0.20080590015277267,0.19873639987781644,0.7513640001416206
RSVPLG03,TM,20251103-093143,1.0.1,20251020-085245,729,Introduction,Both,1,Automatic,main,9,20251103-093249,local,global,750,S,S,A,A,A-S.png,S-A.png,sS,sS,mask-3.png,mask-2.png,s,1,0.4236033000051975,s,1,0.10586140002124012,0.09740209998562932,0.09779659984633327,0.19937589997425675,0.2007617000490427,0.7492233000230044
RSVPLG03,TM,20251103-093143,1.0.1,20251020-085245,729,Introduction,Both,1,Automatic,main,10,20251103-093254,local,local,750,S,H,E,A,E-S.png,A-H.png,sS,hH,mask-2.png,mask-3.png,s,1,0.3790018998552114,h,1,0.14032989996485412,0.09555570012889802,0.09753139992244542,0.199995799921453,0.2002970001194626,0.748717000009492
RSVPLG03,TM,20251103-093143,1.0.1,20251020-085245,729,Introduction,Both,1,Automatic,main,11,20251103-093259,global,global,750,S,S,E,A,S-E.png,S-A.png,sS,sS,mask-4.png,mask-1.png,s,1,0.4421135000884533,s,1,0.1062984000891447,0.09750279993750155,0.09755589999258518,0.19937959988601506,0.199597799917683,0.74953359994106
RSVPLG03,TM,20251103-093143,1.0.1,20251020-085245,729,Introduction,Both,1,Automatic,main,12,20251103-093303,global,global,750,H,H,A,E,H-A.png,H-E.png,hH,hH,mask-1.png,mask-1.png,s,0,0.4442892998922616,h,1,0.24783160001970828,0.09853959991596639,0.09854559996165335,0.19961389992386103,0.2006169999949634,0.7499031000770628
RSVPLG03,TM,20251103-093143,1.0.1,20251020-085245,729,Introduction,Both,1,Automatic,main,13,20251103-093309,global,global,750,S,H,E,A,S-E.png,H-A.png,sS,hH,mask-2.png,mask-4.png,s,1,0.34372959984466434,h,1,0.11307560000568628,0.09651709999889135,0.09839519998058677,0.1985742999240756,0.19944270001724362,0.7484857998788357
RSVPLG03,TM,20251103-093143,1.0.1,20251020-085245,729,Introduction,Both,1,Automatic,main,14,20251103-093313,global,local,750,S,S,E,E,S-E.png,E-S.png,sS,sS,mask-3.png,mask-2.png,s,1,0.3647193999495357,s,1,0.09454019996337593,0.09750709985382855,0.09655019990168512,0.20139159983955324,0.19862599996849895,0.7513431999832392
RSVPLG03,TM,20251103-093143,1.0.1,20251020-085245,729,Introduction,Both,1,Automatic,main,15,20251103-093318,global,local,750,S,H,E,E,S-E.png,E-H.png,sS,hH,mask-1.png,mask-4.png,s,1,0.4091420001350343,h,1,0.14194690017029643,0.09731410001404583,0.09628870012238622,0.19903330015949905,0.19902950013056397,0.7504392999690026
RSVPLG03,TM,20251103-093143,1.0.1,20251020-085245,729,Introduction,Both,1,Automatic,main,16,20251103-093323,local,local,750,S,H,E,A,E-S.png,A-H.png,sS,hH,mask-3.png,mask-2.png,s,1,0.4962257998995483,h,1,0.1183780999854207,0.0993713999632746,0.09619310009293258,0.20112710003741086,0.20006570010446012,0.7513280999846756
RSVPLG03,TM,20251103-093405,1.0.1,20251020-085245,729,Introduction,Both,1,Automatic,main,1,20251103-093427,global,local,750,S,H,A,E,S-A.png,E-H.png,sS,hH,mask-2.png,mask-1.png,s,1,0.9546984999906272,s,0,0.10398640017956495,0.09247919986955822,0.09757079998962581,0.19542900007218122,0.20063459989614785,0.7451899000443518
RSVPLG03,TM,20251103-093405,1.0.1,20251020-085245,729,Introduction,Both,1,Automatic,main,2,20251103-093432,local,local,750,S,H,E,E,E-S.png,E-H.png,sS,hH,mask-2.png,mask-3.png,s,1,1.1903578999917954,h,1,0.11779950000345707,0.0990274001378566,0.09572599991224706,0.19969010003842413,0.19916280009783804,0.7515102000907063
RSVPLG03,TM,20251103-093405,1.0.1,20251020-085245,729,Introduction,Both,1,Automatic,main,3,20251103-093438,global,global,750,H,H,E,A,H-E.png,H-A.png,hH,hH,mask-3.png,mask-1.png,h,1,0.3945193998515606,h,1,0.0850046998821199,0.09733749995939434,0.0974337998777628,0.19939299998804927,0.20022520003840327,0.7490393000189215
RSVPLG03,TM,20251103-093405,1.0.1,20251020-085245,729,Introduction,Both,1,Automatic,main,4,20251103-093443,global,global,750,S,S,E,A,S-E.png,S-A.png,sS,sS,mask-3.png,mask-4.png,h,0,1.1025783999357373,s,1,0.0863739000633359,0.09688850003294647,0.09746329998597503,0.20082139992155135,0.19946920010261238,0.7508989998605102
RSVPLG03,TM,20251103-093405,1.0.1,20251020-085245,729,Introduction,Both,1,Automatic,main,5,20251103-093448,global,global,750,H,S,A,E,H-A.png,S-E.png,hH,sS,mask-3.png,mask-3.png,h,1,0.23377099982462823,s,1,0.07585480017587543,0.09838929981924593,0.0965110999532044,0.200058399932459,0.19889430003240705,0.7512129999231547
RSVPLG03,TM,20251103-093405,1.0.1,20251020-085245,729,Introduction,Both,1,Automatic,main,6,20251103-093453,local,local,750,S,H,A,A,A-S.png,A-H.png,sS,hH,mask-4.png,mask-4.png,h,0,1.6210163000505418,h,1,0.09041130007244647,0.0988926999270916,0.09744119993411005,0.2012702999636531,0.20049310009926558,0.7519016999285668
RSVPLG03,TM,20251103-093405,1.0.1,20251020-085245,729,Introduction,Both,1,Automatic,main,7,20251103-093459,local,local,750,S,S,A,A,A-S.png,A-S.png,sS,sS,mask-1.png,mask-4.png,h,0,0.49352490017190576,s,1,0.07050939998589456,0.09743859991431236,0.09790059993974864,0.20060039986856282,0.19879029993899167,0.7508523999713361
RSVPLG03,TM,20251103-093405,1.0.1,20251020-085245,729,Introduction,Both,1,Automatic,main,8,20251103-093504,local,global,750,S,H,A,E,A-S.png,H-E.png,sS,hH,mask-1.png,mask-4.png,s,1,0.594994799932465,h,1,0.10831469995900989,0.09747089981101453,0.09853890002705157,0.20044639986008406,0.20050649996846914,0.749598499853164
RSVPLG03,TM,20251103-093405,1.0.1,20251020-085245,729,Introduction,Both,1,Automatic,main,9,20251103-093509,global,local,750,S,S,A,A,S-A.png,A-S.png,sS,sS,mask-4.png,mask-1.png,s,1,2.763152299914509,h,0,0.1414624999742955,0.09756580018438399,0.09756759996525943,0.19926620018668473,0.19965149997733533,0.7503795002121478
RSVPLG03,TM,20251103-093405,1.0.1,20251020-085245,729,Introduction,Both,1,Automatic,main,10,20251103-093516,local,global,750,H,S,A,E,A-H.png,S-E.png,hH,sS,mask-2.png,mask-3.png,h,1,0.38993700011633337,s,1,0.06022530002519488,0.09743030020035803,0.09654449997469783,0.19855360011570156,0.200260000070557,0.7495695000980049
RSVPLG03,TM,20251103-093405,1.0.1,20251020-085245,729,Introduction,Both,1,Automatic,main,11,20251103-093521,local,local,750,S,S,A,A,A-S.png,A-S.png,sS,sS,mask-3.png,mask-3.png,h,0,0.49337049992755055,s,1,0.024606799939647317,0.09725310001522303,0.09625820000655949,0.20002679992467165,0.19851180003024638,0.7510524999815971
RSVPLG03,TM,20251103-093405,1.0.1,20251020-085245,729,Introduction,Both,1,Automatic,main,12,20251103-093526,global,local,750,H,H,E,A,H-E.png,A-H.png,hH,hH,mask-1.png,mask-1.png,h,1,0.5773552998434752,h,1,0.09358910005539656,0.09740389999933541,0.09691830002702773,0.1990710999816656,0.1998912999406457,0.7499462000560015
RSVPLG03,TM,20251103-093405,1.0.1,20251020-085245,729,Introduction,Both,1,Automatic,main,13,20251103-093531,local,global,750,S,S,A,A,A-S.png,S-A.png,sS,sS,mask-3.png,mask-3.png,h,0,0.39944059983827174,s,1,0.04532489995472133,0.09719630004838109,0.097390899900347,0.19924130011349916,0.1996559000108391,0.749932800186798
RSVPLG03,TM,20251103-093405,1.0.1,20251020-085245,729,Introduction,Both,1,Automatic,main,14,20251103-093536,global,local,750,H,H,E,A,H-E.png,A-H.png,hH,hH,mask-2.png,mask-4.png,h,1,0.4560694999527186,h,1,0.09273779997602105,0.09796809987165034,0.09756519994698465,0.20124499988742173,0.19980460009537637,0.7513421999756247
RSVPLG03,TM,20251103-093405,1.0.1,20251020-085245,729,Introduction,Both,1,Automatic,main,15,20251103-093540,global,global,750,S,S,A,A,S-A.png,S-A.png,sS,sS,mask-1.png,mask-3.png,h,0,1.783268499886617,s,1,0.07052009995095432,0.09792390000075102,0.09937829989939928,0.2008696999400854,0.2012426001019776,0.7496736999601126
RSVPLG03,TM,20251103-093405,1.0.1,20251020-085245,729,Introduction,Both,1,Automatic,main,16,20251103-093547,local,global,750,S,H,A,A,A-S.png,H-A.png,sS,hH,mask-1.png,mask-3.png,h,0,1.0087125999853015,s,0,0.09210280003026128,0.09754180000163615,0.0974431000649929,0.1994678999762982,0.20055689988657832,0.7496217000298202
RSVPLG03,TM,20251103-093618,1.0.1,20251020-085245,729,Practice,Both,1,Automatic,main,1,20251103-093714,global,global,750,S,H,E,E,S-E.png,H-E.png,sS,hH,mask-4.png,mask-3.png,s,1,2.5105950001161546,s,0,2.7012571999803185,0.040318300016224384,0.0457458000164479,0.0932708999607712,0.09899139986373484,0.7445720001123846
RSVPLG03,TM,20251103-093618,1.0.1,20251020-085245,729,Practice,Both,1,Automatic,main,2,20251103-093723,local,global,300,H,H,E,E,E-H.png,H-E.png,hH,hH,mask-4.png,mask-1.png,h,1,3.4234541000332683,s,0,0.806041199946776,0.046247499994933605,0.04750600014813244,0.0983011000789702,0.101309800054878,0.29851130000315607
RSVPLG03,TM,20251103-093618,1.0.1,20251020-085245,729,Practice,Both,1,Automatic,main,3,20251103-093731,local,global,750,H,H,A,E,A-H.png,H-E.png,hH,hH,mask-3.png,mask-4.png,h,1,2.008613800164312,s,0,0.5079828000161797,0.0473262001760304,0.04748519998975098,0.09750560019165277,0.09947500005364418,0.7486344000790268
RSVPLG03,TM,20251103-093618,1.0.1,20251020-085245,729,Practice,Both,1,Automatic,main,4,20251103-093738,local,global,750,H,S,E,E,E-H.png,S-E.png,hH,sS,mask-3.png,mask-1.png,s,0,0.6060835998505354,h,0,0.2521451998036355,0.047530800104141235,0.04767240001820028,0.09957480011507869,0.09875690005719662,0.7507199000101537
RSVPLG03,TM,20251103-093618,1.0.1,20251020-085245,729,Practice,Both,1,Automatic,main,5,20251103-093743,global,global,750,H,H,E,E,H-E.png,H-E.png,hH,hH,mask-2.png,mask-2.png,h,1,0.5607361001893878,h,1,0.055137099931016564,0.047675499925389886,0.04804409993812442,0.10186899988912046,0.1002121998462826,0.7500779000110924
RSVPLG03,TM,20251103-093618,1.0.1,20251020-085245,729,Practice,Both,1,Automatic,main,6,20251103-093747,local,local,750,S,H,E,E,E-S.png,E-H.png,sS,hH,mask-4.png,mask-2.png,s,1,0.5828913000877947,s,0,0.08719810005277395,0.04751199996098876,0.04708570009097457,0.10155609995126724,0.09843060001730919,0.7518098000437021
RSVPLG03,TM,20251103-093618,1.0.1,20251020-085245,729,Practice,Both,1,Automatic,main,7,20251103-093752,global,local,750,S,H,E,E,S-E.png,E-H.png,sS,hH,mask-1.png,mask-3.png,s,1,0.9353269001003355,h,1,0.11883569997735322,0.04680539993569255,0.04753659991547465,0.09936439990997314,0.1007294999435544,0.7490268000401556
RSVPLG03,TM,20251103-093618,1.0.1,20251020-085245,729,Practice,Both,1,Automatic,main,8,20251103-093758,global,local,300,H,S,A,A,H-A.png,A-S.png,hH,sS,mask-1.png,mask-4.png,h,1,0.6998953998554498,h,0,0.08024310017935932,0.04751940001733601,0.0468754000030458,0.09954830002970994,0.09984270017594099,0.2982846999075264
RSVPLG03,TM,20251103-093618,1.0.1,20251020-085245,729,Practice,Both,1,Automatic,main,9,20251103-093802,global,local,300,H,H,E,A,H-E.png,A-H.png,hH,hH,mask-3.png,mask-2.png,h,1,0.7250584999565035,h,1,0.09297199989669025,0.04575589997693896,0.04749359982088208,0.09998639998957515,0.10148439998738468,0.29855530010536313
RSVPLG03,TM,20251103-093618,1.0.1,20251020-085245,729,Practice,Both,1,Automatic,main,10,20251103-093806,global,local,750,H,S,E,E,H-E.png,E-S.png,hH,sS,mask-4.png,mask-4.png,h,1,0.4636979999486357,s,1,0.08551030000671744,0.04742050007916987,0.045609200140461326,0.09971809992566705,0.09980830014683306,0.7502806999254972
RSVPLG03,TM,20251103-093618,1.0.1,20251020-085245,729,Practice,Both,1,Automatic,main,11,20251103-093811,local,local,300,H,S,E,E,E-H.png,E-S.png,hH,sS,mask-4.png,mask-2.png,s,0,0.720246999990195,s,1,0.10856260010041296,0.04751189984381199,0.047500899992883205,0.09818629990331829,0.10050250007770956,0.299055399838835
RSVPLG03,TM,20251103-093618,1.0.1,20251020-085245,729,Practice,Both,1,Automatic,main,12,20251103-093816,global,global,300,S,H,A,E,S-A.png,H-E.png,sS,hH,mask-1.png,mask-4.png,s,1,1.5845261998474598,h,1,1.6883310000412166,0.046654699835926294,0.04769589984789491,0.10092390002682805,0.09875949984416366,0.3008642999920994
RSVPLG03,TM,20251103-093618,1.0.1,20251020-085245,729,Practice,Both,1,Automatic,main,13,20251103-093823,local,global,300,H,H,A,A,A-H.png,H-A.png,hH,hH,mask-4.png,mask-2.png,s,0,1.450363899813965,s,0,0.10154800000600517,0.048665600130334496,0.04767480003647506,0.10186970001086593,0.09917379985563457,0.30151790007948875
RSVPLG03,TM,20251103-093618,1.0.1,20251020-085245,729,Practice,Both,1,Automatic,main,14,20251103-093828,local,local,300,S,H,A,E,A-S.png,E-H.png,sS,hH,mask-3.png,mask-1.png,s,1,1.7161156998481601,h,1,0.13628789992071688,0.0476108998991549,0.04794039996340871,0.10170449991710484,0.10107689979486167,0.3003779000137001
RSVPLG03,TM,20251103-093618,1.0.1,20251020-085245,729,Practice,Both,1,Automatic,main,15,20251103-093833,global,global,300,H,H,A,A,H-A.png,H-A.png,hH,hH,mask-3.png,mask-2.png,s,0,1.462642699945718,h,1,0.08387420000508428,0.04582950007170439,0.04772799997590482,0.10018850001506507,0.10022710007615387,0.29834300000220537
RSVPLG03,TM,20251103-093618,1.0.1,20251020-085245,729,Practice,Both,1,Automatic,main,16,20251103-093839,local,local,750,H,H,A,E,A-H.png,E-H.png,hH,hH,mask-1.png,mask-4.png,s,0,0.43815420009195805,h,1,0.10183360008522868,0.04679069994017482,0.04768570000305772,0.10102129983715713,0.10078600002452731,0.749824499944225
RSVPLG03,TM,20251103-093903,1.0.1,20251020-085245,729,Practice,Both,1,Automatic,main,1,20251103-093921,global,global,750,S,S,E,A,S-E.png,S-A.png,sS,sS,mask-4.png,mask-1.png,s,1,0.5241984000895172,h,0,0.5857238001190126,0.04219760000705719,0.04774469998665154,0.093935800017789,0.09923709998838603,0.7448441998567432
RSVPLG03,TM,20251103-093903,1.0.1,20251020-085245,729,Practice,Both,1,Automatic,main,2,20251103-093927,global,global,300,H,S,E,E,H-E.png,S-E.png,hH,sS,mask-1.png,mask-2.png,s,0,1.0657925999257714,h,0,0.1466698998119682,0.04740379983559251,0.04873419995419681,0.10067419987171888,0.10095819993875921,0.30026819999329746
RSVPLG03,TM,20251103-093903,1.0.1,20251020-085245,729,Practice,Both,1,Automatic,main,3,20251103-093932,global,global,750,H,H,E,E,H-E.png,H-E.png,hH,hH,mask-4.png,mask-1.png,s,0,0.7475620000623167,h,1,0.08838580013252795,0.04758530016988516,0.04619939997792244,0.09974760003387928,0.09946289984509349,0.7518713001627475
RSVPLG03,TM,20251103-093903,1.0.1,20251020-085245,729,Practice,Both,1,Automatic,main,4,20251103-093937,local,global,300,H,S,A,E,A-H.png,S-E.png,hH,sS,mask-3.png,mask-1.png,s,0,0.9864467999432236,h,0,0.07127110008150339,0.047573599964380264,0.04767940007150173,0.09979230002500117,0.09972769999876618,0.3002337000798434
RSVPLG03,TM,20251103-093903,1.0.1,20251020-085245,729,Practice,Both,1,Automatic,main,5,20251103-093941,local,local,750,S,S,E,E,E-S.png,E-S.png,sS,sS,mask-4.png,mask-3.png,s,1,0.37783079990185797,s,1,0.09033350017853081,0.04649169999174774,0.04669450013898313,0.10065130004659295,0.09881490003317595,0.7517923000268638
RSVPLG03,TM,20251103-093903,1.0.1,20251020-085245,729,Practice,Both,1,Automatic,main,6,20251103-093946,local,global,750,H,S,E,E,E-H.png,S-E.png,hH,sS,mask-2.png,mask-2.png,s,0,0.7082467000000179,h,0,0.216293899808079,0.04771739989519119,0.0465446999296546,0.09824489988386631,0.09959649993106723,0.7512205999810249
RSVPLG03,TM,20251103-093903,1.0.1,20251020-085245,729,Practice,Both,1,Automatic,main,7,20251103-093951,global,local,750,S,S,E,A,S-E.png,A-S.png,sS,sS,mask-4.png,mask-2.png,s,1,0.6076462999917567,h,0,0.3174446998164058,0.0474734001327306,0.046374000143259764,0.0984879001043737,0.10035730013623834,0.7506196999456733
RSVPLG03,TM,20251103-093903,1.0.1,20251020-085245,729,Practice,Both,1,Automatic,main,8,20251103-093956,global,local,300,S,S,A,A,S-A.png,A-S.png,sS,sS,mask-4.png,mask-1.png,s,1,1.937293899944052,h,0,0.8763476999010891,0.046158199897035956,0.048583699855953455,0.09915399993769825,0.10157649987377226,0.2990037000272423
RSVPLG03,TM,20251103-093903,1.0.1,20251020-085245,729,Practice,Both,1,Automatic,main,9,20251103-094003,local,local,750,H,H,A,E,A-H.png,E-H.png,hH,hH,mask-4.png,mask-4.png,s,0,0.748585700057447,h,1,0.23048539995215833,0.047474500024691224,0.048265699995681643,0.09936009999364614,0.10036239982582629,0.7502938001416624
RSVPLG03,TM,20251103-093903,1.0.1,20251020-085245,729,Practice,Both,1,Automatic,main,10,20251103-094008,global,local,300,S,H,E,A,S-E.png,A-H.png,sS,hH,mask-2.png,mask-3.png,s,1,0.7891857998911291,h,1,0.0735088000074029,0.04768690001219511,0.046695500146597624,0.09987360006198287,0.09993470017798245,0.3018062999472022
RSVPLG03,TM,20251103-093903,1.0.1,20251020-085245,729,Practice,Both,1,Automatic,main,11,20251103-094013,local,local,300,S,H,A,E,A-S.png,E-H.png,sS,hH,mask-3.png,mask-3.png,h,0,1.275732999900356,s,0,0.04188979999162257,0.04670189996249974,0.04791339999064803,0.10088680009357631,0.1001887999009341,0.30050130002200603
RSVPLG03,TM,20251103-093903,1.0.1,20251020-085245,729,Practice,Both,1,Automatic,main,12,20251103-094018,local,global,750,S,H,A,E,A-S.png,H-E.png,sS,hH,mask-2.png,mask-3.png,s,1,1.1045108998659998,h,1,0.02433629985898733,0.047504999907687306,0.04859100002795458,0.09957699989899993,0.10160189983434975,0.7503068000078201
RSVPLG03,TM,20251103-093903,1.0.1,20251020-085245,729,Practice,Both,1,Automatic,main,13,20251103-094023,global,local,750,S,S,E,A,S-E.png,A-S.png,sS,sS,mask-2.png,mask-2.png,s,1,1.0074537000618875,h,0,0.056238500168547034,0.04565620003268123,0.048557700123637915,0.09992199996486306,0.10086320014670491,0.7494882999453694
RSVPLG03,TM,20251103-093903,1.0.1,20251020-085245,729,Practice,Both,1,Automatic,main,14,20251103-094029,local,local,300,H,S,E,E,E-H.png,E-S.png,hH,sS,mask-4.png,mask-4.png,h,1,0.6143028000369668,h,0,0.19937260006554425,0.04644690011627972,0.045909699983894825,0.09929649997502565,0.10018200008198619,0.30035379994660616
RSVPLG03,TM,20251103-093903,1.0.1,20251020-085245,729,Practice,Both,1,Automatic,main,15,20251103-094033,global,global,300,H,H,A,A,H-A.png,H-A.png,hH,hH,mask-2.png,mask-3.png,h,1,0.6473540000151843,h,1,0.06560149998404086,0.04761670017614961,0.04686290002427995,0.10007990011945367,0.09971190011128783,0.3000441000331193
RSVPLG03,TM,20251103-093903,1.0.1,20251020-085245,729,Practice,Both,1,Automatic,main,16,20251103-094038,local,global,300,S,S,A,E,A-S.png,S-E.png,sS,sS,mask-4.png,mask-4.png,h,0,0.43573140003718436,s,1,0.04118259996175766,0.04649109998717904,0.04728810000233352,0.09946880000643432,0.09926829999312758,0.3009504000656307
RSVPLG03,TM,20251103-094101,1.0.1,20251020-085245,729,Practice,Both,1,Automatic,main,1,20251103-094121,local,local,750,H,H,E,A,E-H.png,A-H.png,hH,hH,mask-4.png,mask-2.png,h,1,1.7415078999474645,s,0,0.5502563000191003,0.04019800014793873,0.048091799952089787,0.09381410013884306,0.1005388000048697,0.7431215001270175
RSVPLG03,TM,20251103-094101,1.0.1,20251020-085245,729,Practice,Both,1,Automatic,main,2,20251103-094127,global,local,300,H,S,E,A,H-E.png,A-S.png,hH,sS,mask-1.png,mask-2.png,s,0,1.0656969000119716,h,0,0.04460870008915663,0.047517400002107024,0.046579800080507994,0.10039680008776486,0.09865580010227859,0.3008040999993682
RSVPLG03,TM,20251103-094101,1.0.1,20251020-085245,729,Practice,Both,1,Automatic,main,3,20251103-094132,global,local,750,S,H,A,A,S-A.png,A-H.png,sS,hH,mask-3.png,mask-4.png,s,1,0.47962210001423955,s,0,0.07143300003372133,0.04757749987766147,0.047534799901768565,0.10159999993629754,0.09922949993051589,0.7529007999692112
RSVPLG03,TM,20251103-094101,1.0.1,20251020-085245,729,Practice,Both,1,Automatic,main,4,20251103-094137,global,global,300,H,H,E,A,H-E.png,H-A.png,hH,hH,mask-1.png,mask-2.png,h,1,1.125047299778089,s,0,0.03733299998566508,0.04769640020094812,0.047684800112619996,0.09988960018381476,0.10190999996848404,0.3001087000593543
RSVPLG03,TM,20251103-094101,1.0.1,20251020-085245,729,Practice,Both,1,Automatic,main,5,20251103-094142,global,global,750,S,S,A,E,S-A.png,S-E.png,sS,sS,mask-2.png,mask-3.png,s,1,0.12542439997196198,h,0,0.20948780002072453,0.04769139993004501,0.046366400085389614,0.10097620007582009,0.09838009998202324,0.7523115000221878
RSVPLG03,TM,20251103-094101,1.0.1,20251020-085245,729,Practice,Both,1,Automatic,main,6,20251103-094146,local,global,300,S,S,E,A,E-S.png,S-A.png,sS,sS,mask-1.png,mask-2.png,s,1,0.5219064999837428,h,0,0.028161700116470456,0.04756990005262196,0.04664379986934364,0.10040809982456267,0.09970309981144965,0.3006382000166923
RSVPLG03,TM,20251103-094101,1.0.1,20251020-085245,729,Practice,Both,1,Automatic,main,7,20251103-094150,global,global,300,H,S,E,A,H-E.png,S-A.png,hH,sS,mask-4.png,mask-1.png,s,0,0.9969440998975188,s,1,0.13110950007103384,0.046520099975168705,0.04581429995596409,0.09956330014392734,0.0999356999527663,0.3000468001700938
RSVPLG03,TM,20251103-094101,1.0.1,20251020-085245,729,Practice,Both,1,Automatic,main,8,20251103-094155,local,local,300,H,S,E,A,E-H.png,A-S.png,hH,sS,mask-4.png,mask-3.png,s,0,0.7138132001273334,h,0,0.059737800154834986,0.04770409991033375,0.0485725998878479,0.1010416999924928,0.10072779981419444,0.30068140011280775
RSVPLG03,TM,20251103-094101,1.0.1,20251020-085245,729,Practice,Both,1,Automatic,main,9,20251103-094200,local,local,750,H,H,E,A,E-H.png,A-H.png,hH,hH,mask-4.png,mask-2.png,h,1,0.7220912999473512,h,1,0.05418640002608299,0.04860149999149144,0.049073899863287807,0.1008105999790132,0.10053499997593462,0.7512691000010818
RSVPLG03,TM,20251103-094101,1.0.1,20251020-085245,729,Practice,Both,1,Automatic,main,10,20251103-094205,local,local,300,H,H,A,A,A-H.png,A-H.png,hH,hH,mask-2.png,mask-2.png,h,1,0.39715249999426305,s,0,0.10918419994413853,0.04590640007518232,0.04713389999233186,0.10006750002503395,0.10095890006050467,0.29921990004368126
RSVPLG03,TM,20251103-094101,1.0.1,20251020-085245,729,Practice,Both,1,Automatic,main,11,20251103-094209,local,global,750,H,S,E,E,E-H.png,S-E.png,hH,sS,mask-3.png,mask-1.png,h,1,0.4245684000197798,h,0,0.0515342999715358,0.048540999880060554,0.04695810005068779,0.10061259986832738,0.09906610008329153,0.7521274997852743
RSVPLG03,TM,20251103-094101,1.0.1,20251020-085245,729,Practice,Both,1,Automatic,main,12,20251103-094214,local,global,300,S,S,A,E,A-S.png,S-E.png,sS,sS,mask-1.png,mask-4.png,h,0,0.31607249984517694,s,1,0.04324940009973943,0.04753200011327863,0.04626749991439283,0.0993618001230061,0.09913369989953935,0.3003134001046419
RSVPLG03,TM,20251103-094101,1.0.1,20251020-085245,729,Practice,Both,1,Automatic,main,13,20251103-094218,global,global,750,H,S,A,A,H-A.png,S-A.png,hH,sS,mask-4.png,mask-1.png,h,1,0.30162160005420446,s,1,0.13789290003478527,0.04651500005275011,0.046335000079125166,0.09953150013461709,0.09921879996545613,0.750898800091818
RSVPLG03,TM,20251103-094101,1.0.1,20251020-085245,729,Practice,Both,1,Automatic,main,14,20251103-094222,global,local,300,H,H,E,A,H-E.png,A-H.png,hH,hH,mask-4.png,mask-4.png,h,1,0.5619743000715971,s,0,0.04075319995172322,0.04588410002179444,0.04788170009851456,0.09983310010284185,0.09931239997968078,0.30010049999691546
RSVPLG03,TM,20251103-094101,1.0.1,20251020-085245,729,Practice,Both,1,Automatic,main,15,20251103-094227,local,global,750,H,H,A,E,A-H.png,H-E.png,hH,hH,mask-4.png,mask-4.png,h,1,0.34665349987335503,s,0,0.0353600000962615,0.04577010008506477,0.04826360009610653,0.10003499989397824,0.10050310008227825,0.7494848999194801
RSVPLG03,TM,20251103-094101,1.0.1,20251020-085245,729,Practice,Both,1,Automatic,main,16,20251103-094231,global,local,750,H,S,E,E,H-E.png,E-S.png,hH,sS,mask-2.png,mask-1.png,s,0,0.564908399945125,h,0,0.13235670002177358,0.046689199982210994,0.04669320001266897,0.09989670012146235,0.09989370009861887,0.7515998999588192
RSVPLG03,TM,20251103-094412,1.0.1,20251020-085245,729,Experiment,Both,1,Automatic,warmup,1,20251103-094505,local,local,300,S,S,A,A,A-S.png,A-S.png,sS,sS,mask-3.png,mask-3.png,h,0,1.6458011998329312,s,1,2.9946713999379426,0.04402330005541444,0.0476695999968797,0.09728819993324578,0.09982919995673001,0.29772139992564917
RSVPLG03,TM,20251103-094412,1.0.1,20251020-085245,729,Experiment,Both,1,Automatic,warmup,2,20251103-094514,global,local,750,S,S,E,E,S-E.png,E-S.png,sS,sS,mask-4.png,mask-3.png,h,0,0.33530379994772375,s,1,0.037533999886363745,0.04797119996510446,0.047538200160488486,0.10088230017572641,0.09863560018129647,0.7519888000097126
RSVPLG03,TM,20251103-094412,1.0.1,20251020-085245,729,Experiment,Both,1,Automatic,warmup,3,20251103-094518,local,global,750,H,S,E,A,E-H.png,S-A.png,hH,sS,mask-3.png,mask-3.png,h,1,0.46181849995628,s,1,0.055762399919331074,0.047754500061273575,0.047696399968117476,0.09995650011114776,0.09957160009071231,0.7497741000261158
RSVPLG03,TM,20251103-094412,1.0.1,20251020-085245,729,Experiment,Both,1,Automatic,warmup,4,20251103-094523,global,global,300,H,S,A,A,H-A.png,S-A.png,hH,sS,mask-4.png,mask-1.png,s,0,1.000065099913627,s,1,0.23010799987241626,0.04858019994571805,0.04731420008465648,0.10078880004584789,0.1005581000354141,0.29945649998262525
RSVPLG03,TM,20251103-094412,1.0.1,20251020-085245,729,Experiment,Both,1,Automatic,warmup,5,20251103-094528,local,local,750,H,S,A,A,A-H.png,A-S.png,hH,sS,mask-4.png,mask-1.png,h,1,0.6310036000795662,s,1,0.23615840007551014,0.04731779987923801,0.04737429996021092,0.09934600000269711,0.09996539982967079,0.7499623000621796
RSVPLG03,TM,20251103-094412,1.0.1,20251020-085245,729,Experiment,Both,1,Automatic,main,6,20251103-094533,local,local,750,S,S,E,E,E-S.png,E-S.png,sS,sS,mask-3.png,mask-1.png,s,1,0.785617999965325,s,1,0.06076270015910268,0.047566400142386556,0.04924249998293817,0.09854939999058843,0.10026839980855584,0.74876520014368
RSVPLG03,TM,20251103-094412,1.0.1,20251020-085245,729,Experiment,Both,1,Automatic,main,7,20251103-094538,global,local,300,S,H,A,E,S-A.png,E-H.png,sS,hH,mask-4.png,mask-3.png,s,1,0.610445800004527,h,1,0.018457800149917603,0.04769570007920265,0.047216800041496754,0.09993949998170137,0.10115400003269315,0.2985642000567168
RSVPLG03,TM,20251103-094412,1.0.1,20251020-085245,729,Experiment,Both,1,Automatic,main,8,20251103-094542,global,global,750,S,H,E,E,S-E.png,H-E.png,sS,hH,mask-2.png,mask-4.png,s,1,0.4787369000259787,h,1,0.038763799937441945,0.0475683999247849,0.04738210001960397,0.09859990002587438,0.09938569995574653,0.7499238001182675
RSVPLG03,TM,20251103-094412,1.0.1,20251020-085245,729,Experiment,Both,1,Automatic,main,9,20251103-094547,local,local,300,S,H,A,A,A-S.png,A-H.png,sS,hH,mask-1.png,mask-3.png,s,1,2.127123799873516,h,1,0.04180090012960136,0.04751270008273423,0.047730599995702505,0.09977050009183586,0.09931689989753067,0.3002298001665622
RSVPLG03,TM,20251103-094412,1.0.1,20251020-085245,729,Experiment,Both,1,Automatic,main,10,20251103-094553,global,global,300,H,H,E,E,H-E.png,H-E.png,hH,hH,mask-2.png,mask-1.png,s,0,0.6726822999771684,h,1,0.0704832999035716,0.047641800018027425,0.047705299919471145,0.09874940011650324,0.09993300004862249,0.30041060014627874
RSVPLG03,TM,20251103-094412,1.0.1,20251020-085245,729,Experiment,Both,1,Automatic,main,11,20251103-094557,local,global,300,H,S,E,E,E-H.png,S-E.png,hH,sS,mask-4.png,mask-4.png,s,0,1.0722094001248479,s,1,0.05347359995357692,0.047041800105944276,0.0480235000140965,0.09943730011582375,0.10133530013263226,0.29976919991895556
RSVPLG03,TM,20251103-094412,1.0.1,20251020-085245,729,Experiment,Both,1,Automatic,main,12,20251103-094602,global,global,750,H,S,A,A,H-A.png,S-A.png,hH,sS,mask-4.png,mask-4.png,s,0,0.52796890004538,s,1,0.08958230004645884,0.04599459981545806,0.047275399789214134,0.10001179995015264,0.09946349984966218,0.7499597000423819
RSVPLG03,TM,20251103-094412,1.0.1,20251020-085245,729,Experiment,Both,1,Automatic,main,13,20251103-094607,global,global,750,H,H,A,E,H-A.png,H-E.png,hH,hH,mask-3.png,mask-3.png,h,1,0.6537733001168817,s,0,0.10493239993229508,0.04873389983549714,0.04636089992709458,0.10095219989307225,0.09958350006490946,0.751737599959597
RSVPLG03,TM,20251103-094412,1.0.1,20251020-085245,729,Experiment,Both,1,Automatic,main,14,20251103-094612,global,global,300,S,S,E,E,S-E.png,S-E.png,sS,sS,mask-4.png,mask-1.png,h,0,0.952811700059101,s,1,0.9370381999760866,0.04787050001323223,0.047472700010985136,0.10050249984487891,0.09947819984517992,0.3012775999959558
RSVPLG03,TM,20251103-094412,1.0.1,20251020-085245,729,Experiment,Both,1,Automatic,main,15,20251103-094617,local,global,300,S,H,E,E,E-S.png,H-E.png,sS,hH,mask-4.png,mask-1.png,s,1,0.5218639001250267,h,1,0.0899115998763591,0.046690399991348386,0.046531999949365854,0.10043830005452037,0.09986419999040663,0.3011109000071883
RSVPLG03,TM,20251103-094412,1.0.1,20251020-085245,729,Experiment,Both,1,Automatic,main,16,20251103-094622,global,global,750,H,H,A,A,H-A.png,H-A.png,hH,hH,mask-3.png,mask-4.png,s,0,0.9746283001732081,h,1,0.10738739999942482,0.04688540007919073,0.046277099987491965,0.10021990002132952,0.09799139993265271,0.7509799001272768
RSVPLG03,TM,20251103-094412,1.0.1,20251020-085245,729,Experiment,Both,1,Automatic,main,17,20251103-094627,local,local,750,H,H,E,E,E-H.png,E-H.png,hH,hH,mask-2.png,mask-2.png,s,0,0.7057181000709534,h,1,0.12123990012332797,0.04637960018590093,0.04780990001745522,0.09948280011303723,0.10070879990234971,0.7496206001378596
RSVPLG03,TM,20251103-094412,1.0.1,20251020-085245,729,Experiment,Both,1,Automatic,main,18,20251103-094632,global,local,300,H,S,A,E,H-A.png,E-S.png,hH,sS,mask-2.png,mask-3.png,s,0,0.27831319998949766,h,0,0.020965800154954195,0.04752290016040206,0.04861449985764921,0.10079300007782876,0.10061570000834763,0.3004239001311362
RSVPLG03,TM,20251103-094412,1.0.1,20251020-085245,729,Experiment,Both,1,Automatic,main,19,20251103-094636,local,local,300,S,H,E,A,E-S.png,A-H.png,sS,hH,mask-2.png,mask-2.png,s,1,0.9643117000814527,h,1,0.054880900075659156,0.045784999849274755,0.04769679997116327,0.10000089998356998,0.10018890001811087,0.2997023998759687
RSVPLG03,TM,20251103-094412,1.0.1,20251020-085245,729,Experiment,Both,1,Automatic,main,20,20251103-094641,global,global,750,H,S,A,A,H-A.png,S-A.png,hH,sS,mask-4.png,mask-4.png,s,0,2.1898383998777717,h,0,0.022525300038978457,0.04739649989642203,0.04753960017114878,0.10038219997659326,0.09845810011029243,0.7507785998750478
RSVPLG03,TM,20251103-094412,1.0.1,20251020-085245,729,Experiment,Both,1,Automatic,main,21,20251103-094647,local,global,300,H,H,A,E,A-H.png,H-E.png,hH,hH,mask-3.png,mask-4.png,s,0,5.104612400056794,h,1,0.052385699935257435,0.04695639992132783,0.04703969997353852,0.10111609986051917,0.10037040011957288,0.30094089987687767
RSVPLG03,TM,20251103-094412,1.0.1,20251020-085245,729,Experiment,Both,1,Automatic,main,22,20251103-094656,global,local,300,H,S,E,A,H-E.png,A-S.png,hH,sS,mask-1.png,mask-2.png,s,0,0.9247286999598145,h,0,0.07110089994966984,0.04760710010305047,0.04863819992169738,0.10069059999659657,0.10173400002531707,0.2999566001817584
RSVPLG03,TM,20251103-094412,1.0.1,20251020-085245,729,Experiment,Both,1,Automatic,main,23,20251103-094701,global,local,300,H,S,E,E,H-E.png,E-S.png,hH,sS,mask-3.png,mask-2.png,h,1,0.4950012001208961,s,1,0.11027240008115768,0.046736600110307336,0.0464625998865813,0.09900730010122061,0.09961359994485974,0.3002731001470238
RSVPLG03,TM,20251103-094412,1.0.1,20251020-085245,729,Experiment,Both,1,Automatic,main,24,20251103-094705,global,local,750,H,H,E,A,H-E.png,A-H.png,hH,hH,mask-3.png,mask-2.png,s,0,0.2577348998747766,h,1,0.5678590000607073,0.04671659995801747,0.04769439995288849,0.09881399990990758,0.09981050016358495,0.7500459998846054
RSVPLG03,TM,20251103-094412,1.0.1,20251020-085245,729,Experiment,Both,1,Automatic,main,25,20251103-094710,global,local,750,H,H,A,E,H-A.png,E-H.png,hH,hH,mask-1.png,mask-4.png,h,1,0.8994100000709295,h,1,0.07404650002717972,0.04666309989988804,0.046694899909198284,0.09986070008017123,0.09989129984751344,0.7501640000846237
RSVPLG03,TM,20251103-094412,1.0.1,20251020-085245,729,Experiment,Both,1,Automatic,main,26,20251103-094717,global,global,750,S,S,A,A,S-A.png,S-A.png,sS,sS,mask-2.png,mask-2.png,h,0,0.41186900017783046,s,1,0.18190650013275445,0.0485060999635607,0.047868299996480346,0.10034210002049804,0.0999222001992166,0.7511064999271184
RSVPLG03,TM,20251103-094412,1.0.1,20251020-085245,729,Experiment,Both,1,Automatic,main,27,20251103-094722,local,local,300,S,H,A,A,A-S.png,A-H.png,sS,hH,mask-4.png,mask-3.png,h,0,0.538275099825114,s,0,0.18147780001163483,0.04698279988951981,0.047749599907547235,0.09855640004388988,0.10011749994009733,0.29916399996727705
RSVPLG03,TM,20251103-094412,1.0.1,20251020-085245,729,Experiment,Both,1,Automatic,main,28,20251103-094726,global,local,300,S,H,A,A,S-A.png,A-H.png,sS,hH,mask-3.png,mask-2.png,s,1,0.5940084001049399,h,1,0.09270060015842319,0.04883149988017976,0.04707339988090098,0.10089989984408021,0.10006369999609888,0.30131829995661974
RSVPLG03,TM,20251103-094412,1.0.1,20251020-085245,729,Experiment,Both,1,Automatic,main,29,20251103-094730,local,global,300,H,S,A,E,A-H.png,S-E.png,hH,sS,mask-3.png,mask-3.png,s,0,0.49379919981583953,h,0,0.05383620015345514,0.04736709990538657,0.047348800115287304,0.10041009983979166,0.0995736001059413,0.30057209986262023
RSVPLG03,TM,20251103-094412,1.0.1,20251020-085245,729,Experiment,Both,1,Automatic,main,30,20251103-094735,local,global,750,S,S,A,A,A-S.png,S-A.png,sS,sS,mask-2.png,mask-4.png,s,1,0.5126191000454128,s,1,0.23758849990554154,0.04770360002294183,0.047093600034713745,0.09989379998296499,0.09931509988382459,0.7510468000546098
RSVPLG03,TM,20251103-094412,1.0.1,20251020-085245,729,Experiment,Both,1,Automatic,main,31,20251103-094740,local,global,300,S,H,A,E,A-S.png,H-E.png,sS,hH,mask-4.png,mask-3.png,s,1,0.8003574998583645,h,1,0.05131499981507659,0.04749569995328784,0.04854930005967617,0.10065339994616807,0.10057080001570284,0.29999849991872907
RSVPLG03,TM,20251103-094412,1.0.1,20251020-085245,729,Experiment,Both,1,Automatic,main,32,20251103-094744,global,local,300,S,S,A,A,S-A.png,A-S.png,sS,sS,mask-1.png,mask-3.png,s,1,0.6837851998861879,h,0,0.0665901000611484,0.047543999971821904,0.04753149999305606,0.10078819980844855,0.10076960013248026,0.3000792998354882
RSVPLG03,TM,20251103-094412,1.0.1,20251020-085245,729,Experiment,Both,1,Automatic,main,33,20251103-094749,global,local,750,H,H,E,A,H-E.png,A-H.png,hH,hH,mask-3.png,mask-1.png,s,0,0.6564331999979913,h,1,0.07690660003572702,0.04774240008555353,0.04828269989229739,0.09904360002838075,0.099916199920699,0.7500702000688761
RSVPLG03,TM,20251103-094412,1.0.1,20251020-085245,729,Experiment,Both,1,Automatic,main,34,20251103-094754,local,global,300,S,S,E,A,E-S.png,S-A.png,sS,sS,mask-2.png,mask-2.png,s,1,0.676305599976331,s,1,0.09231360000558197,0.046724499901756644,0.047521699918434024,0.09985470003448427,0.09956729994155467,0.30024520005099475
RSVPLG03,TM,20251103-094412,1.0.1,20251020-085245,729,Experiment,Both,1,Automatic,main,35,20251103-094758,global,global,750,H,S,E,A,H-E.png,S-A.png,hH,sS,mask-3.png,mask-2.png,s,0,0.4651505001820624,s,1,0.11827969993464649,0.04761249991133809,0.04758269991725683,0.0997687999624759,0.09954019985161722,0.7505242000333965
RSVPLG03,TM,20251103-094412,1.0.1,20251020-085245,729,Experiment,Both,1,Automatic,main,36,20251103-094803,local,local,300,S,S,A,E,A-S.png,E-S.png,sS,sS,mask-4.png,mask-2.png,s,1,0.5362410999368876,s,1,0.03909959993325174,0.04767989995889366,0.0487548999954015,0.09990489995107055,0.10093169985339046,0.29908000002615154
RSVPLG03,TM,20251103-094412,1.0.1,20251020-085245,729,Experiment,Both,1,Automatic,main,37,20251103-094807,local,global,750,H,S,E,E,E-H.png,S-E.png,hH,sS,mask-2.png,mask-4.png,s,0,0.7886409999337047,s,1,0.12392529984936118,0.04860999993979931,0.0475173001177609,0.1016243000049144,0.09953880007378757,0.7513784999027848
RSVPLG03,TM,20251103-094412,1.0.1,20251020-085245,729,Experiment,Both,1,Automatic,main,38,20251103-094812,global,global,300,H,S,E,A,H-E.png,S-A.png,hH,sS,mask-1.png,mask-1.png,h,1,0.741801300086081,s,1,0.08609100012108684,0.047527199843898416,0.0485217000823468,0.09966939990408719,0.10052220011129975,0.29906929982826114
RSVPLG03,TM,20251103-094412,1.0.1,20251020-085245,729,Experiment,Both,1,Automatic,main,39,20251103-094817,local,local,750,H,S,E,E,E-H.png,E-S.png,hH,sS,mask-2.png,mask-3.png,s,0,0.7613868999760598,s,1,0.0744182001799345,0.04855960002169013,0.047529999865219,0.09961129981093109,0.10058749979361892,0.7511795000173151
RSVPLG03,TM,20251103-094412,1.0.1,20251020-085245,729,Experiment,Both,1,Automatic,main,40,20251103-094822,local,local,300,S,S,A,E,A-S.png,E-S.png,sS,sS,mask-2.png,mask-4.png,s,1,1.1099235999863595,h,0,0.026735799852758646,0.04873160016722977,0.04670449998229742,0.10001170006580651,0.09984859987162054,0.30073790019378066
RSVPLG03,TM,20251103-094412,1.0.1,20251020-085245,729,Experiment,Both,1,Automatic,main,41,20251103-094827,global,local,750,H,H,A,E,H-A.png,E-H.png,hH,hH,mask-3.png,mask-2.png,h,1,0.3820028000045568,s,0,0.09272500011138618,0.04770510015077889,0.047579700127243996,0.10067089996300638,0.10158189991489053,0.7501256000250578
RSVPLG03,TM,20251103-094412,1.0.1,20251020-085245,729,Experiment,Both,1,Automatic,main,42,20251103-094831,local,local,750,S,H,A,A,A-S.png,A-H.png,sS,hH,mask-3.png,mask-3.png,s,1,0.6238021999597549,h,1,0.06054889992810786,0.046536599984392524,0.04761529993265867,0.10044070007279515,0.09973849984817207,0.7497948000673205
RSVPLG03,TM,20251103-094412,1.0.1,20251020-085245,729,Experiment,Both,1,Automatic,main,43,20251103-094836,local,global,750,S,S,A,E,A-S.png,S-E.png,sS,sS,mask-1.png,mask-2.png,s,1,0.41545609990134835,h,0,0.0533369998447597,0.046722899889573455,0.048560200026258826,0.0989548999350518,0.09902209998108447,0.74950319994241
RSVPLG03,TM,20251103-094412,1.0.1,20251020-085245,729,Experiment,Both,1,Automatic,main,44,20251103-094841,local,local,750,H,S,E,A,E-H.png,A-S.png,hH,sS,mask-1.png,mask-2.png,h,1,1.0234181999694556,s,1,0.16483120014891028,0.04852840001694858,0.047693700063973665,0.10158029990270734,0.10023640003055334,0.7502317999023944
RSVPLG03,TM,20251103-094412,1.0.1,20251020-085245,729,Experiment,Both,1,Automatic,main,45,20251103-094846,global,local,750,S,S,A,A,S-A.png,A-S.png,sS,sS,mask-4.png,mask-1.png,s,1,0.6156995000783354,s,1,0.09480650001205504,0.04603069997392595,0.045853199902921915,0.10001240018755198,0.10001049982383847,0.7505231001414359
RSVPLG03,TM,20251103-094412,1.0.1,20251020-085245,729,Experiment,Both,1,Automatic,main,46,20251103-094851,local,global,300,S,S,A,A,A-S.png,S-A.png,sS,sS,mask-3.png,mask-1.png,s,1,0.7541590000037104,h,0,0.42599799996241927,0.047268199967220426,0.048654899932444096,0.09967899997718632,0.10069720004685223,0.29923260002397
RSVPLG03,TM,20251103-094412,1.0.1,20251020-085245,729,Experiment,Both,1,Automatic,main,47,20251103-094856,local,local,750,S,S,E,E,E-S.png,E-S.png,sS,sS,mask-1.png,mask-3.png,s,1,0.36437870003283024,s,1,0.06864459998905659,0.04651560005731881,0.04739319998770952,0.09857750008814037,0.10040959995239973,0.7495864001102746
RSVPLG03,TM,20251103-094412,1.0.1,20251020-085245,729,Experiment,Both,1,Automatic,main,48,20251103-094900,global,global,300,S,H,E,E,S-E.png,H-E.png,sS,hH,mask-3.png,mask-2.png,s,1,0.4670498000923544,h,1,0.008911600103601813,0.04768520011566579,0.047712599858641624,0.10090080020017922,0.09979039989411831,0.30053280014544725
RSVPLG03,TM,20251103-094412,1.0.1,20251020-085245,729,Experiment,Both,1,Automatic,main,49,20251103-094905,local,global,300,H,S,A,E,A-H.png,S-E.png,hH,sS,mask-3.png,mask-4.png,s,0,0.6868135000113398,s,1,0.04156410018913448,0.048368899850174785,0.0465633999556303,0.10005140001885593,0.09882689989171922,0.30119389994069934
RSVPLG03,TM,20251103-094412,1.0.1,20251020-085245,729,Experiment,Both,1,Automatic,main,50,20251103-094909,global,global,750,S,S,E,A,S-E.png,S-A.png,sS,sS,mask-1.png,mask-4.png,s,1,0.5007275999523699,s,1,0.12848279997706413,0.047033000038936734,0.047509599942713976,0.09986130008473992,0.09979450004175305,0.7501831999979913
RSVPLG03,TM,20251103-094412,1.0.1,20251020-085245,729,Experiment,Both,1,Automatic,main,51,20251103-094917,global,local,750,H,S,A,E,H-A.png,E-S.png,hH,sS,mask-2.png,mask-3.png,h,1,1.390483499970287,s,1,0.08545579994097352,0.047630100045353174,0.046447600005194545,0.09985199989750981,0.0994425998069346,0.7509135000873357
RSVPLG03,TM,20251103-094412,1.0.1,20251020-085245,729,Experiment,Both,1,Automatic,main,52,20251103-094922,global,local,300,H,H,A,E,H-A.png,E-H.png,hH,hH,mask-1.png,mask-3.png,h,1,0.6232634999323636,s,0,0.07056530006229877,0.04847929999232292,0.047954600071534514,0.10047359997406602,0.0999517000745982,0.3007411998696625
RSVPLG03,TM,20251103-094412,1.0.1,20251020-085245,729,Experiment,Both,1,Automatic,main,53,20251103-094927,global,local,750,H,S,A,A,H-A.png,A-S.png,hH,sS,mask-3.png,mask-3.png,h,1,0.5206593999173492,h,0,0.08884410001337528,0.047813500044867396,0.04763839999213815,0.09793710010126233,0.10108189983293414,0.7486807000823319
RSVPLG03,TM,20251103-094412,1.0.1,20251020-085245,729,Experiment,Both,1,Automatic,main,54,20251103-094931,local,local,300,S,H,E,E,E-S.png,E-H.png,sS,hH,mask-1.png,mask-2.png,h,0,0.6836288999766111,s,0,0.08815429988317192,0.04772290005348623,0.04848900018259883,0.09978140005841851,0.1018312000669539,0.29895729990676045
RSVPLG03,TM,20251103-094412,1.0.1,20251020-085245,729,Experiment,Both,1,Automatic,main,55,20251103-094936,local,local,750,H,S,E,E,E-H.png,E-S.png,hH,sS,mask-3.png,mask-3.png,h,1,0.4155866999644786,s,1,0.121799600077793,0.04754290007986128,0.04588089999742806,0.09941940009593964,0.09807850001379848,0.7519501999486238
RSVPLG03,TM,20251103-094412,1.0.1,20251020-085245,729,Experiment,Both,1,Automatic,main,56,20251103-094941,local,local,300,S,H,A,A,A-S.png,A-H.png,sS,hH,mask-4.png,mask-4.png,h,0,0.48224800010211766,s,0,0.09640349983237684,0.04844979988411069,0.04884269996546209,0.10070439986884594,0.10131380008533597,0.29879809985868633
RSVPLG03,TM,20251103-094412,1.0.1,20251020-085245,729,Experiment,Both,1,Automatic,main,57,20251103-094945,local,local,300,S,H,A,A,A-S.png,A-H.png,sS,hH,mask-2.png,mask-3.png,h,0,0.5364753999747336,s,0,0.08526089997030795,0.047489099903032184,0.04680679994635284,0.0994295000564307,0.09919420001097023,0.3007410999853164
RSVPLG03,TM,20251103-094412,1.0.1,20251020-085245,729,Experiment,Both,1,Automatic,main,58,20251103-094949,global,local,300,S,S,E,E,S-E.png,E-S.png,sS,sS,mask-2.png,mask-3.png,s,1,0.3871778999455273,s,1,0.0907642999663949,0.04773340001702309,0.04769630008377135,0.09993850020691752,0.0999474001582712,0.3005911000072956
RSVPLG03,TM,20251103-094412,1.0.1,20251020-085245,729,Experiment,Both,1,Automatic,main,59,20251103-094953,global,global,300,H,H,E,E,H-E.png,H-E.png,hH,hH,mask-4.png,mask-3.png,s,0,0.38265220005996525,h,1,0.6633915000129491,0.04747739993035793,0.04767960007302463,0.10064989980310202,0.09984869998879731,0.300833199871704
RSVPLG03,TM,20251103-094412,1.0.1,20251020-085245,729,Experiment,Both,1,Automatic,main,60,20251103-094958,local,global,750,H,H,E,A,E-H.png,H-A.png,hH,hH,mask-1.png,mask-1.png,s,0,0.6378708998672664,h,1,0.07680830010212958,0.04860929981805384,0.047521800035610795,0.10070449998602271,0.10070429998449981,0.7507301999721676
RSVPLG03,TM,20251103-094412,1.0.1,20251020-085245,729,Experiment,Both,1,Automatic,main,61,20251103-095003,global,global,300,H,H,E,A,H-E.png,H-A.png,hH,hH,mask-4.png,mask-1.png,h,1,0.4633133001625538,h,1,0.056211400078609586,0.049399000126868486,0.04738759994506836,0.10026920004747808,0.09988879994489253,0.3005803001578897
RSVPLG03,TM,20251103-094412,1.0.1,20251020-085245,729,Experiment,Both,1,Automatic,main,62,20251103-095007,global,global,300,S,S,A,A,S-A.png,S-A.png,sS,sS,mask-4.png,mask-4.png,s,1,0.6561770997941494,s,1,0.08877310017123818,0.04649859992787242,0.04770449991337955,0.09963919990696013,0.09893999993801117,0.2993701999075711
RSVPLG03,TM,20251103-094412,1.0.1,20251020-085245,729,Experiment,Both,1,Automatic,main,63,20251103-095011,local,global,750,H,H,E,A,E-H.png,H-A.png,hH,hH,mask-4.png,mask-2.png,s,0,0.7964039000216872,h,1,0.044738000025972724,0.04755080002360046,0.047564500011503696,0.10030439984984696,0.10059639997780323,0.7500370999332517
RSVPLG03,TM,20251103-094412,1.0.1,20251020-085245,729,Experiment,Both,1,Automatic,main,64,20251103-095016,global,global,300,S,H,A,A,S-A.png,H-A.png,sS,hH,mask-3.png,mask-3.png,s,1,0.7660133000463247,h,1,0.011634099995717406,0.04770109988749027,0.0483963000588119,0.09954859991557896,0.10140540008433163,0.2988445998635143
RSVPLG03,TM,20251103-094412,1.0.1,20251020-085245,729,Experiment,Both,1,Automatic,main,65,20251103-095021,global,global,300,H,H,E,A,H-E.png,H-A.png,hH,hH,mask-1.png,mask-2.png,h,1,0.8215119000524282,h,1,0.10736950021237135,0.04754450009204447,0.0465871999040246,0.09958210005424917,0.09962070011533797,0.29928390006534755
RSVPLG03,TM,20251103-094412,1.0.1,20251020-085245,729,Experiment,Both,1,Automatic,main,66,20251103-095025,local,global,300,S,S,A,E,A-S.png,S-E.png,sS,sS,mask-1.png,mask-3.png,h,0,0.6782987001352012,s,1,0.12184389983303845,0.047591099981218576,0.04830770008265972,0.10071730008348823,0.10047940001823008,0.3009695999789983
RSVPLG03,TM,20251103-094412,1.0.1,20251020-085245,729,Experiment,Both,1,Automatic,main,67,20251103-095030,local,local,750,S,H,A,A,A-S.png,A-H.png,sS,hH,mask-1.png,mask-2.png,h,0,2.6460257000289857,s,0,0.07265460002236068,0.04870779998600483,0.047870600130409,0.10112860007211566,0.1019509001635015,0.7500072999391705
RSVPLG03,TM,20251103-094412,1.0.1,20251020-085245,729,Experiment,Both,1,Automatic,main,68,20251103-095037,local,global,750,S,S,E,A,E-S.png,S-A.png,sS,sS,mask-3.png,mask-1.png,s,1,0.59322450007312,s,1,0.08367550000548363,0.048834600020200014,0.047646400053054094,0.10115480003878474,0.10022950009442866,0.7509300999809057
RSVPLG03,TM,20251103-094412,1.0.1,20251020-085245,729,Experiment,Both,1,Automatic,main,69,20251103-095042,global,local,300,H,H,E,E,H-E.png,E-H.png,hH,hH,mask-2.png,mask-2.png,h,1,0.48478879989124835,s,0,0.10400759987533092,0.04676089994609356,0.04767469991929829,0.09946010005660355,0.09983720001764596,0.30016450001858175
RSVPLG03,TM,20251103-094412,1.0.1,20251020-085245,729,Experiment,Both,1,Automatic,main,70,20251103-095046,local,local,750,H,S,E,A,E-H.png,A-S.png,hH,sS,mask-4.png,mask-2.png,s,0,0.5087200000416487,s,1,0.13571210019290447,0.04676189995370805,0.046671099960803986,0.10002440004609525,0.10003399988636374,0.7504024000372738
RSVPLG03,TM,20251103-094412,1.0.1,20251020-085245,729,Experiment,Both,1,Automatic,main,71,20251103-095051,local,local,750,S,S,E,A,E-S.png,A-S.png,sS,sS,mask-3.png,mask-1.png,s,1,0.5791444000788033,s,1,0.1164953000843525,0.046767699997872114,0.04870789987035096,0.09900190006010234,0.09990959987044334,0.7488622001837939
RSVPLG03,TM,20251103-094412,1.0.1,20251020-085245,729,Experiment,Both,1,Automatic,main,72,20251103-095056,global,local,300,S,S,E,A,S-E.png,A-S.png,sS,sS,mask-2.png,mask-2.png,s,1,0.6329518998973072,h,0,0.08306679991073906,0.046726099913939834,0.048708299873396754,0.10000999993644655,0.09990979987196624,0.29951100004836917
RSVPLG03,TM,20251103-094412,1.0.1,20251020-085245,729,Experiment,Both,1,Automatic,main,73,20251103-095100,global,global,300,S,H,E,E,S-E.png,H-E.png,sS,hH,mask-4.png,mask-1.png,s,1,0.4644728999119252,h,1,0.05849800002761185,0.045781100168824196,0.047558699967339635,0.09988370002247393,0.09955910011194646,0.300135700032115
RSVPLG03,TM,20251103-094412,1.0.1,20251020-085245,729,Experiment,Both,1,Automatic,main,74,20251103-095104,local,global,750,S,H,E,A,E-S.png,H-A.png,sS,hH,mask-2.png,mask-1.png,s,1,0.5750720000360161,h,1,0.07389619993045926,0.047523700166493654,0.04752829996868968,0.10054649994708598,0.09958559996448457,0.7501829999964684
RSVPLG03,TM,20251103-094412,1.0.1,20251020-085245,729,Experiment,Both,1,Automatic,main,75,20251103-095109,global,local,300,H,H,E,A,H-E.png,A-H.png,hH,hH,mask-3.png,mask-3.png,s,0,0.8261847000103444,h,1,0.08260180009528995,0.04753310000523925,0.04781819996424019,0.09938569995574653,0.0998259000480175,0.29975809995085
RSVPLG03,TM,20251103-094412,1.0.1,20251020-085245,729,Experiment,Both,1,Automatic,main,76,20251103-095116,global,global,750,S,S,E,E,S-E.png,S-E.png,sS,sS,mask-2.png,mask-3.png,h,0,1.5176930001471192,s,1,0.13526350003667176,0.047711400082334876,0.04905160004273057,0.10095670004375279,0.10032170009799302,0.7497409998904914
RSVPLG03,TM,20251103-094412,1.0.1,20251020-085245,729,Experiment,Both,1,Automatic,main,77,20251103-095121,local,local,750,S,S,A,E,A-S.png,E-S.png,sS,sS,mask-1.png,mask-3.png,h,0,0.7877452000975609,s,1,0.10738990013487637,0.047513100085780025,0.048361299792304635,0.10054090013727546,0.10136489989235997,0.7498686001636088
RSVPLG03,TM,20251103-094412,1.0.1,20251020-085245,729,Experiment,Both,1,Automatic,main,78,20251103-095127,global,local,750,H,S,A,A,H-A.png,A-S.png,hH,sS,mask-1.png,mask-4.png,h,1,0.5859286000486463,s,1,0.09369460004381835,0.04775410005822778,0.04669079999439418,0.10107950004749,0.09808539994992316,0.7516413000412285
RSVPLG03,TM,20251103-094412,1.0.1,20251020-085245,729,Experiment,Both,1,Automatic,main,79,20251103-095131,local,local,300,H,S,A,A,A-H.png,A-S.png,hH,sS,mask-3.png,mask-3.png,h,1,0.7316805999726057,s,1,0.10537729994393885,0.048246500082314014,0.04752689995802939,0.10078940005041659,0.10044920002110302,0.3001367000397295
RSVPLG03,TM,20251103-094412,1.0.1,20251020-085245,729,Experiment,Both,1,Automatic,main,80,20251103-095136,local,global,300,H,H,E,A,E-H.png,H-A.png,hH,hH,mask-4.png,mask-2.png,s,0,0.7713603999000043,h,1,0.03547269990667701,0.04867070005275309,0.04851690004579723,0.10086860018782318,0.10150830005295575,0.30001850007101893
RSVPLG03,TM,20251103-094412,1.0.1,20251020-085245,729,Experiment,Both,1,Automatic,main,81,20251103-095140,local,global,750,H,S,A,E,A-H.png,S-E.png,hH,sS,mask-3.png,mask-1.png,h,1,0.6701432000845671,s,1,0.07592700002714992,0.047334899893030524,0.04753959993831813,0.09974429989233613,0.1005428999196738,0.7511837999336421
RSVPLG03,TM,20251103-094412,1.0.1,20251020-085245,729,Experiment,Both,1,Automatic,main,82,20251103-095145,global,local,300,H,H,E,A,H-E.png,A-H.png,hH,hH,mask-2.png,mask-4.png,h,1,0.7347643999382854,h,1,0.07598820002749562,0.04671690007671714,0.04730810015462339,0.09879429987631738,0.10036650020629168,0.2999495998956263
RSVPLG03,TM,20251103-094412,1.0.1,20251020-085245,729,Experiment,Both,1,Automatic,main,83,20251103-095150,local,local,750,S,S,E,A,E-S.png,A-S.png,sS,sS,mask-2.png,mask-3.png,h,0,0.7506323999259621,h,0,0.10247129993513227,0.04748740000650287,0.04815639997832477,0.099032900063321,0.10124480002559721,0.7487933000084013
RSVPLG03,TM,20251103-094412,1.0.1,20251020-085245,729,Experiment,Both,1,Automatic,main,84,20251103-095155,local,local,300,H,S,E,A,E-H.png,A-S.png,hH,sS,mask-4.png,mask-3.png,s,0,0.5739744999445975,h,0,0.024107899982482195,0.04766479996033013,0.04724689992144704,0.1003080999944359,0.09914730000309646,0.30035679996944964
RSVPLG03,TM,20251103-094412,1.0.1,20251020-085245,729,Experiment,Both,1,Automatic,main,85,20251103-095159,global,global,750,H,S,A,E,H-A.png,S-E.png,hH,sS,mask-2.png,mask-4.png,s,0,0.7079481999389827,s,1,0.08431710000149906,0.04856410017237067,0.049592399969697,0.09890700015239418,0.10175270005129278,0.749266600003466
RSVPLG03,TM,20251103-094412,1.0.1,20251020-085245,729,Experiment,Both,1,Automatic,main,86,20251103-095204,local,local,300,S,H,E,E,E-S.png,E-H.png,sS,hH,mask-2.png,mask-4.png,h,0,0.7460427000187337,h,1,0.07557129999622703,0.04755789996124804,0.047392599983140826,0.09858909994363785,0.09835279989056289,0.3003845999483019
RSVPLG03,TM,20251103-094412,1.0.1,20251020-085245,729,Experiment,Both,1,Automatic,main,87,20251103-095208,local,global,750,S,S,A,E,A-S.png,S-E.png,sS,sS,mask-2.png,mask-1.png,s,1,1.6599681999068707,s,1,0.10237800003960729,0.047560299979522824,0.04842670005746186,0.09956820006482303,0.10041660000570118,0.7490598000586033
RSVPLG03,TM,20251103-094412,1.0.1,20251020-085245,729,Experiment,Both,1,Automatic,main,88,20251103-095214,global,local,300,H,S,E,A,H-E.png,A-S.png,hH,sS,mask-2.png,mask-2.png,s,0,1.712705000070855,h,0,1.239831699989736,0.04781430005095899,0.048712499905377626,0.09901900007389486,0.1010398999787867,0.2991260001435876
RSVPLG03,TM,20251103-094412,1.0.1,20251020-085245,729,Experiment,Both,1,Automatic,main,89,20251103-095221,global,global,750,H,S,E,E,H-E.png,S-E.png,hH,sS,mask-3.png,mask-2.png,h,1,0.4569096998311579,s,1,0.106498499866575,0.047673799796029925,0.04778040014207363,0.09978519985452294,0.0999897001311183,0.7515868998598307
RSVPLG03,TM,20251103-094412,1.0.1,20251020-085245,729,Experiment,Both,1,Automatic,main,90,20251103-095226,global,global,300,S,H,A,E,S-A.png,H-E.png,sS,hH,mask-2.png,mask-4.png,s,1,0.4453968000598252,h,1,0.05212539993226528,0.046134499832987785,0.047444800147786736,0.09939939994364977,0.10035970015451312,0.29963139980100095
RSVPLG03,TM,20251103-094412,1.0.1,20251020-085245,729,Experiment,Both,1,Automatic,main,91,20251103-095230,global,local,300,H,H,E,A,H-E.png,A-H.png,hH,hH,mask-2.png,mask-4.png,h,1,0.47304069995880127,h,1,0.08943490008823574,0.04660549992695451,0.04800750012509525,0.09986780001781881,0.10033200006000698,0.2985449999105185
RSVPLG03,TM,20251103-094412,1.0.1,20251020-085245,729,Experiment,Both,1,Automatic,main,92,20251103-095234,global,local,750,S,S,E,E,S-E.png,E-S.png,sS,sS,mask-3.png,mask-3.png,s,1,0.40106040006503463,s,1,0.11368769989348948,0.047266999958083034,0.04834320000372827,0.10031250002793968,0.10138150001876056,0.7499325000680983
RSVPLG03,TM,20251103-094412,1.0.1,20251020-085245,729,Experiment,Both,1,Automatic,main,93,20251103-095239,local,local,300,S,H,E,E,E-S.png,E-H.png,sS,hH,mask-3.png,mask-1.png,s,1,0.591495200060308,s,0,0.08186900010332465,0.046923100017011166,0.047690900042653084,0.09917020006105304,0.09969300008378923,0.2997755000833422
RSVPLG03,TM,20251103-094412,1.0.1,20251020-085245,729,Experiment,Both,1,Automatic,main,94,20251103-095243,global,global,750,S,H,E,E,S-E.png,H-E.png,sS,hH,mask-1.png,mask-4.png,s,1,0.3870478000026196,h,1,0.18381789978593588,0.04741910006850958,0.047345299972221255,0.10044459998607635,0.09942490002140403,0.7509133000858128
RSVPLG03,TM,20251103-094412,1.0.1,20251020-085245,729,Experiment,Both,1,Automatic,main,95,20251103-095248,global,local,300,S,H,A,A,S-A.png,A-H.png,sS,hH,mask-1.png,mask-4.png,s,1,0.5244394999463111,h,1,0.8400711000431329,0.04845290002413094,0.0474008999299258,0.1014564000070095,0.100374799920246,0.30117559991776943
RSVPLG03,TM,20251103-094412,1.0.1,20251020-085245,729,Experiment,Both,1,Automatic,main,96,20251103-095253,local,global,300,S,H,E,A,E-S.png,H-A.png,sS,hH,mask-1.png,mask-3.png,s,1,0.688352899858728,h,1,0.12072820006869733,0.047779199900105596,0.04637850006110966,0.09995299996808171,0.09839570010080934,0.29985559987835586
RSVPLG03,TM,20251103-094412,1.0.1,20251020-085245,729,Experiment,Both,1,Automatic,main,97,20251103-095257,local,global,300,S,S,E,E,E-S.png,S-E.png,sS,sS,mask-1.png,mask-4.png,s,1,0.5754994000308216,s,1,0.09035159996710718,0.04727870016358793,0.04687810014002025,0.09914920013397932,0.09932529996149242,0.29921930003911257
RSVPLG03,TM,20251103-094412,1.0.1,20251020-085245,729,Experiment,Both,1,Automatic,main,98,20251103-095302,local,global,750,S,H,A,E,A-S.png,H-E.png,sS,hH,mask-1.png,mask-1.png,s,1,0.42741029988974333,h,1,0.126274999929592,0.045895100105553865,0.046967299887910485,0.09868689998984337,0.09925889992155135,0.7505036999937147
RSVPLG03,TM,20251103-094412,1.0.1,20251020-085245,729,Experiment,Both,1,Automatic,main,99,20251103-095307,global,local,750,H,S,E,A,H-E.png,A-S.png,hH,sS,mask-4.png,mask-2.png,h,1,0.3902001001406461,s,1,0.569061900023371,0.04874160001054406,0.047728999983519316,0.10099240019917488,0.10100789996795356,0.7505590000655502
RSVPLG03,TM,20251103-094412,1.0.1,20251020-085245,729,Experiment,Both,1,Automatic,main,100,20251103-095312,local,local,300,H,H,A,A,A-H.png,A-H.png,hH,hH,mask-1.png,mask-2.png,h,1,2.1259872999507934,h,1,0.09154299995861948,0.046559700043872,0.0487546999938786,0.09860889986157417,0.10083590005524457,0.29926129989326
RSVPLG03,TM,20251103-094412,1.0.1,20251020-085245,729,Experiment,Both,1,Automatic,main,101,20251103-095320,global,local,750,H,S,E,A,H-E.png,A-S.png,hH,sS,mask-2.png,mask-4.png,h,1,0.857946699950844,s,1,0.41046549985185266,0.04771389998495579,0.04728890000842512,0.09991370001807809,0.10032019997015595,0.7500285999849439
RSVPLG03,TM,20251103-094412,1.0.1,20251020-085245,729,Experiment,Both,1,Automatic,main,102,20251103-095325,local,global,750,S,S,E,A,E-S.png,S-A.png,sS,sS,mask-3.png,mask-3.png,s,1,0.4757409000303596,s,1,0.09611900011077523,0.045719899935647845,0.048483100021258,0.09875319991260767,0.10155409993603826,0.7487200999166816
RSVPLG03,TM,20251103-094412,1.0.1,20251020-085245,729,Experiment,Both,1,Automatic,main,103,20251103-095330,local,local,750,S,H,E,A,E-S.png,A-H.png,sS,hH,mask-4.png,mask-4.png,s,1,0.7117610999848694,s,0,0.09237359999679029,0.047476100036874413,0.04704950004816055,0.1002416000701487,0.09936250001192093,0.7512712001334876
RSVPLG03,TM,20251103-094412,1.0.1,20251020-085245,729,Experiment,Both,1,Automatic,main,104,20251103-095335,global,global,750,H,S,A,A,H-A.png,S-A.png,hH,sS,mask-1.png,mask-2.png,s,0,0.39071029983460903,s,1,0.08156889979727566,0.04835060006007552,0.04835200007073581,0.10076000005938113,0.09981300006620586,0.7502725999802351
RSVPLG03,TM,20251103-094412,1.0.1,20251020-085245,729,Experiment,Both,1,Automatic,main,105,20251103-095340,global,global,300,S,S,A,E,S-A.png,S-E.png,sS,sS,mask-1.png,mask-4.png,s,1,0.4036008999682963,s,1,0.09275349997915328,0.04771820013411343,0.047769099939614534,0.0999310000333935,0.09985170001164079,0.3000684999860823
RSVPLG03,TM,20251103-094412,1.0.1,20251020-085245,729,Experiment,Both,1,Automatic,main,106,20251103-095344,local,global,300,H,H,E,E,E-H.png,H-E.png,hH,hH,mask-3.png,mask-4.png,s,0,0.5636547999456525,h,1,0.06114109978079796,0.04870100016705692,0.047693399945273995,0.09982560016214848,0.10029259999282658,0.3010045001283288
RSVPLG03,TM,20251103-094412,1.0.1,20251020-085245,729,Experiment,Both,1,Automatic,main,107,20251103-095348,global,global,750,H,S,E,A,H-E.png,S-A.png,hH,sS,mask-4.png,mask-2.png,h,1,0.7183948000892997,s,1,0.07456330000422895,0.046176900155842304,0.048836000030860305,0.09937790012918413,0.10104770003817976,0.748727000085637
RSVPLG03,TM,20251103-094412,1.0.1,20251020-085245,729,Experiment,Both,1,Automatic,main,108,20251103-095353,local,local,300,S,S,A,E,A-S.png,E-S.png,sS,sS,mask-2.png,mask-4.png,h,0,0.545570399845019,s,1,0.060429499950259924,0.04549130005761981,0.047496299957856536,0.09839479997754097,0.10013010003603995,0.30002239998430014
RSVPLG03,TM,20251103-094412,1.0.1,20251020-085245,729,Experiment,Both,1,Automatic,main,109,20251103-095357,local,local,750,S,S,A,E,A-S.png,E-S.png,sS,sS,mask-4.png,mask-4.png,h,0,0.6999454000033438,s,1,0.023390999995172024,0.047566300025209785,0.0457120998762548,0.10046410001814365,0.09887009998783469,0.7515778001397848
RSVPLG03,TM,20251103-094412,1.0.1,20251020-085245,729,Experiment,Both,1,Automatic,main,110,20251103-095402,local,global,300,H,H,E,E,E-H.png,H-E.png,hH,hH,mask-4.png,mask-3.png,s,0,0.62374969990924,h,1,0.08750660018995404,0.04753410001285374,0.04749600007198751,0.09951720014214516,0.1005146000534296,0.29974130005575716
RSVPLG03,TM,20251103-094412,1.0.1,20251020-085245,729,Experiment,Both,1,Automatic,main,111,20251103-095407,local,local,750,H,S,E,A,E-H.png,A-S.png,hH,sS,mask-2.png,mask-1.png,s,0,0.3356941998936236,h,0,0.09242190001532435,0.04770300001837313,0.04785409988835454,0.1009116000495851,0.09995529986917973,0.7512042000889778
RSVPLG03,TM,20251103-094412,1.0.1,20251020-085245,729,Experiment,Both,1,Automatic,main,112,20251103-095411,local,global,750,S,S,E,A,E-S.png,S-A.png,sS,sS,mask-1.png,mask-2.png,h,0,0.47935010003857315,s,1,0.18117359979078174,0.04673269996419549,0.0466221000533551,0.09987209993414581,0.09999289992265403,0.7507680999115109
RSVPLG03,TM,20251103-094412,1.0.1,20251020-085245,729,Experiment,Both,1,Automatic,main,113,20251103-095416,global,global,750,H,S,A,E,H-A.png,S-E.png,hH,sS,mask-3.png,mask-1.png,s,0,0.20118259987793863,s,1,1.036369799869135,0.04742370010353625,0.04745649988763034,0.09894430008716881,0.09991690004244447,0.7511990000493824
RSVPLG03,TM,20251103-094412,1.0.1,20251020-085245,729,Experiment,Both,1,Automatic,main,114,20251103-095421,global,local,750,S,S,E,E,S-E.png,E-S.png,sS,sS,mask-3.png,mask-4.png,s,1,0.38154450012370944,h,0,0.028803399996832013,0.04791939980350435,0.047017999924719334,0.10201329994015396,0.10005469992756844,0.7516204998828471
RSVPLG03,TM,20251103-094412,1.0.1,20251020-085245,729,Experiment,Both,1,Automatic,main,115,20251103-095426,local,global,750,H,S,A,A,A-H.png,S-A.png,hH,sS,mask-2.png,mask-1.png,s,0,0.6060513001866639,h,0,0.028643399942666292,0.04767980007454753,0.047755799954757094,0.09984280006028712,0.10008909995667636,0.7503947999794036
RSVPLG03,TM,20251103-094412,1.0.1,20251020-085245,729,Experiment,Both,1,Automatic,main,116,20251103-095431,global,global,300,H,S,A,A,H-A.png,S-A.png,hH,sS,mask-3.png,mask-4.png,s,0,0.8789065999444574,h,0,0.07118739979341626,0.04684259998612106,0.04772970010526478,0.10024700011126697,0.10058080009184778,0.29933289997279644
RSVPLG03,TM,20251103-094412,1.0.1,20251020-085245,729,Experiment,Both,1,Automatic,main,117,20251103-095435,global,local,750,H,H,E,E,H-E.png,E-H.png,hH,hH,mask-3.png,mask-1.png,h,1,0.45745300012640655,s,0,0.07684999983757734,0.046921500004827976,0.04771610000170767,0.09936779993586242,0.09890370001085103,0.7509848000481725
RSVPLG03,TM,20251103-094412,1.0.1,20251020-085245,729,Experiment,Both,1,Automatic,main,118,20251103-095440,local,global,300,S,S,E,A,E-S.png,S-A.png,sS,sS,mask-4.png,mask-4.png,s,1,0.4805824998766184,s,1,0.11773609998635948,0.047982499934732914,0.04771919990889728,0.10027609998360276,0.10096229985356331,0.29993330012075603
RSVPLG03,TM,20251103-094412,1.0.1,20251020-085245,729,Experiment,Both,1,Automatic,main,119,20251103-095444,global,global,300,S,S,E,A,S-E.png,S-A.png,sS,sS,mask-3.png,mask-2.png,s,1,0.42454409995116293,s,1,0.07643100013956428,0.048433300107717514,0.046251799911260605,0.10034040012396872,0.09977729991078377,0.30140890018083155
RSVPLG03,TM,20251103-094412,1.0.1,20251020-085245,729,Experiment,Both,1,Automatic,main,120,20251103-095449,global,global,300,S,S,E,E,S-E.png,S-E.png,sS,sS,mask-1.png,mask-1.png,s,1,0.37375709996558726,s,1,0.08771449979394674,0.047527399845421314,0.048549900064244866,0.09958170005120337,0.10059450007975101,0.29965019994415343
RSVPLG03,TM,20251103-094412,1.0.1,20251020-085245,729,Experiment,Both,1,Automatic,main,121,20251103-095453,local,local,300,S,S,A,E,A-S.png,E-S.png,sS,sS,mask-1.png,mask-1.png,h,0,0.57630499987863,h,0,0.16984350001439452,0.04717730008997023,0.04741850006394088,0.09987449995242059,0.09933719993568957,0.3000260000117123
RSVPLG03,TM,20251103-094412,1.0.1,20251020-085245,729,Experiment,Both,1,Automatic,main,122,20251103-095457,local,global,750,S,S,A,E,A-S.png,S-E.png,sS,sS,mask-1.png,mask-2.png,s,1,0.5968591999262571,h,0,0.13416150002740324,0.04752329993061721,0.04869649978354573,0.10051309992559254,0.10086969984695315,0.7500335001386702
RSVPLG03,TM,20251103-094412,1.0.1,20251020-085245,729,Experiment,Both,1,Automatic,main,123,20251103-095502,local,global,750,H,H,A,A,A-H.png,H-A.png,hH,hH,mask-3.png,mask-4.png,s,0,0.450074200052768,h,1,0.04020579997450113,0.04577989992685616,0.04783919989131391,0.09865279984660447,0.10037749982438982,0.7490958999842405
RSVPLG03,TM,20251103-094412,1.0.1,20251020-085245,729,Experiment,Both,1,Automatic,main,124,20251103-095507,global,local,750,H,S,A,E,H-A.png,E-S.png,hH,sS,mask-2.png,mask-1.png,s,0,0.3211028999648988,s,1,0.11678189993835986,0.04855860001407564,0.047057799994945526,0.10021460009738803,0.10111749987117946,0.7498689000494778
RSVPLG03,TM,20251103-094412,1.0.1,20251020-085245,729,Experiment,Both,1,Automatic,main,125,20251103-095511,global,local,750,S,S,A,A,S-A.png,A-S.png,sS,sS,mask-2.png,mask-2.png,s,1,0.3062909001018852,s,1,0.1556832001078874,0.04846929991617799,0.046960199950262904,0.09966520010493696,0.10001860000193119,0.7504159000236541
RSVPLG03,TM,20251103-095546,1.0.1,20251020-085245,729,Experiment,Both,1,Automatic,warmup,1,20251103-095606,global,local,300,H,S,A,A,H-A.png,A-S.png,hH,sS,mask-2.png,mask-3.png,s,0,0.8188317001331598,h,0,0.4274760000407696,0.03995030000805855,0.04866299987770617,0.09261070005595684,0.10101899993605912,0.2920612001325935
RSVPLG03,TM,20251103-095546,1.0.1,20251020-085245,729,Experiment,Both,1,Automatic,warmup,2,20251103-095611,global,global,750,S,H,A,E,S-A.png,H-E.png,sS,hH,mask-2.png,mask-2.png,s,1,0.5224278001114726,h,1,0.09245319990441203,0.04769290005788207,0.04750430001877248,0.10179410013370216,0.0996828000061214,0.7518641999922693
RSVPLG03,TM,20251103-095546,1.0.1,20251020-085245,729,Experiment,Both,1,Automatic,warmup,3,20251103-095616,local,local,750,H,H,A,A,A-H.png,A-H.png,hH,hH,mask-2.png,mask-3.png,s,0,0.6675103001762182,h,1,0.08838010020554066,0.04748550010845065,0.04855469986796379,0.09892849996685982,0.1005430999211967,0.750452300067991
RSVPLG03,TM,20251103-095546,1.0.1,20251020-085245,729,Experiment,Both,1,Automatic,warmup,4,20251103-095621,local,global,300,H,S,A,A,A-H.png,S-A.png,hH,sS,mask-4.png,mask-1.png,h,1,0.605550300097093,s,1,0.038581799948588014,0.04860550002194941,0.047376499976962805,0.1009937000926584,0.10040079988539219,0.30168210016563535
RSVPLG03,TM,20251103-095546,1.0.1,20251020-085245,729,Experiment,Both,1,Automatic,warmup,5,20251103-095625,global,local,750,S,H,A,A,S-A.png,A-H.png,sS,hH,mask-2.png,mask-4.png,h,0,0.615076599875465,h,1,0.30795220006257296,0.047557299956679344,0.04759329999797046,0.1007219001185149,0.1014525000937283,0.7506601000204682
RSVPLG03,TM,20251103-095546,1.0.1,20251020-085245,729,Experiment,Both,1,Automatic,main,6,20251103-095630,local,global,300,S,H,A,E,A-S.png,H-E.png,sS,hH,mask-3.png,mask-1.png,s,1,0.5119386999867857,h,1,0.07652850006707013,0.04753089998848736,0.04751079995185137,0.10152599983848631,0.09950559982098639,0.3018306000158191
RSVPLG03,TM,20251103-095546,1.0.1,20251020-085245,729,Experiment,Both,1,Automatic,main,7,20251103-095635,local,local,300,H,H,E,E,E-H.png,E-H.png,hH,hH,mask-2.png,mask-3.png,s,0,0.28978409990668297,s,0,0.07305480004288256,0.04647609987296164,0.04770309990271926,0.09891880000941455,0.0999165999237448,0.3005530999507755
RSVPLG03,TM,20251103-095546,1.0.1,20251020-085245,729,Experiment,Both,1,Automatic,main,8,20251103-095639,global,local,750,H,H,A,A,H-A.png,A-H.png,hH,hH,mask-1.png,mask-3.png,s,0,0.41062829992733896,h,1,0.02717969985678792,0.048420000122860074,0.04657150013372302,0.1010520001873374,0.09860930009745061,0.7522726999595761
RSVPLG03,TM,20251103-095546,1.0.1,20251020-085245,729,Experiment,Both,1,Automatic,main,9,20251103-095643,local,local,300,H,H,A,E,A-H.png,E-H.png,hH,hH,mask-1.png,mask-2.png,s,0,0.6624962999485433,h,1,0.10520930006168783,0.04729850008152425,0.047700499882921576,0.09937530010938644,0.09929069993086159,0.3000652000773698
RSVPLG03,TM,20251103-095546,1.0.1,20251020-085245,729,Experiment,Both,1,Automatic,main,10,20251103-095648,local,local,750,S,S,A,E,A-S.png,E-S.png,sS,sS,mask-4.png,mask-1.png,h,0,0.10590790002606809,s,1,0.5099394000135362,0.047671099891886115,0.04767889995127916,0.09911699988879263,0.0997246999759227,0.7521289999131113
RSVPLG03,TM,20251103-095546,1.0.1,20251020-085245,729,Experiment,Both,1,Automatic,main,11,20251103-095652,global,global,750,S,H,A,A,S-A.png,H-A.png,sS,hH,mask-1.png,mask-4.png,s,1,0.2946391999721527,h,1,0.0923909000121057,0.04689630004577339,0.04748820001259446,0.10001189983449876,0.0993236000649631,0.7520414998289198
RSVPLG03,TM,20251103-095546,1.0.1,20251020-085245,729,Experiment,Both,1,Automatic,main,12,20251103-095657,local,local,750,S,H,E,A,E-S.png,A-H.png,sS,hH,mask-2.png,mask-2.png,h,0,0.6714926001150161,s,0,0.12092810007743537,0.04889650014229119,0.04751760000362992,0.10197730013169348,0.10016320017166436,0.753474900033325
RSVPLG03,TM,20251103-095546,1.0.1,20251020-085245,729,Experiment,Both,1,Automatic,main,13,20251103-095702,global,local,750,S,S,E,A,S-E.png,A-S.png,sS,sS,mask-2.png,mask-4.png,s,1,0.45104760001413524,h,0,0.08818680001422763,0.04727050010114908,0.047145199961960316,0.10126639995723963,0.10115460003726184,0.7517216000705957
RSVPLG03,TM,20251103-095546,1.0.1,20251020-085245,729,Experiment,Both,1,Automatic,main,14,20251103-095707,global,local,750,H,H,E,A,H-E.png,A-H.png,hH,hH,mask-2.png,mask-3.png,s,0,0.5613762000575662,s,0,0.13613060000352561,0.047511099837720394,0.0465204999782145,0.09959829994477332,0.09953539981506765,0.7508884000126272
RSVPLG03,TM,20251103-095546,1.0.1,20251020-085245,729,Experiment,Both,1,Automatic,main,15,20251103-095711,global,global,750,S,S,E,A,S-E.png,S-A.png,sS,sS,mask-3.png,mask-1.png,s,1,0.4414590001106262,s,1,0.05841629998758435,0.04671010002493858,0.048292099963873625,0.09996580006554723,0.10102349985390902,0.7501644000876695
RSVPLG03,TM,20251103-095546,1.0.1,20251020-085245,729,Experiment,Both,1,Automatic,main,16,20251103-095716,global,local,300,H,S,A,E,H-A.png,E-S.png,hH,sS,mask-2.png,mask-2.png,s,0,0.6697953001130372,s,1,0.10787190007977188,0.04805089998990297,0.04862589994445443,0.1011854000389576,0.10100059979595244,0.2999568001832813
RSVPLG03,TM,20251103-095546,1.0.1,20251020-085245,729,Experiment,Both,1,Automatic,main,17,20251103-095721,local,global,300,H,S,E,E,E-H.png,S-E.png,hH,sS,mask-2.png,mask-2.png,s,0,0.45131650008261204,s,1,0.24603380006738007,0.0465485998429358,0.04839090001769364,0.10050479997880757,0.0999155999161303,0.2999495000112802
RSVPLG03,TM,20251103-095546,1.0.1,20251020-085245,729,Experiment,Both,1,Automatic,main,18,20251103-095725,global,local,300,S,S,E,E,S-E.png,E-S.png,sS,sS,mask-3.png,mask-1.png,s,1,0.4786168001592159,s,1,0.085530900163576,0.04742230009287596,0.048149299807846546,0.1007677000015974,0.1010418999940157,0.3003971001598984
RSVPLG03,TM,20251103-095546,1.0.1,20251020-085245,729,Experiment,Both,1,Automatic,main,19,20251103-095729,global,global,750,S,S,A,E,S-A.png,S-E.png,sS,sS,mask-1.png,mask-1.png,s,1,0.34064959990791976,s,1,0.12474199989810586,0.04643360013142228,0.04758909996598959,0.0995531000662595,0.0995153000112623,0.7513182000257075
RSVPLG03,TM,20251103-095546,1.0.1,20251020-085245,729,Experiment,Both,1,Automatic,main,20,20251103-095734,local,global,300,H,S,E,E,E-H.png,S-E.png,hH,sS,mask-3.png,mask-4.png,s,0,0.3565072000492364,s,1,0.13523479993455112,0.04739309987053275,0.04752300004474819,0.09941929997876287,0.1015385000500828,0.29866379988379776
RSVPLG03,TM,20251103-095546,1.0.1,20251020-085245,729,Experiment,Both,1,Automatic,main,21,20251103-095738,local,global,750,H,S,E,E,E-H.png,S-E.png,hH,sS,mask-1.png,mask-3.png,s,0,0.44758519995957613,s,1,0.15337980003096163,0.04668609984219074,0.04757000016979873,0.09886509994976223,0.099768599960953,0.750335699878633
RSVPLG03,TM,20251103-095546,1.0.1,20251020-085245,729,Experiment,Both,1,Automatic,main,22,20251103-095743,global,local,300,H,S,A,A,H-A.png,A-S.png,hH,sS,mask-4.png,mask-3.png,s,0,0.6533422998618335,h,0,0.0583901999052614,0.04759639990516007,0.04735470004379749,0.09990979987196624,0.10054000001400709,0.30127669987268746
RSVPLG03,TM,20251103-095546,1.0.1,20251020-085245,729,Experiment,Both,1,Automatic,main,23,20251103-095747,global,global,750,H,H,A,A,H-A.png,H-A.png,hH,hH,mask-2.png,mask-3.png,s,0,0.5976279000751674,h,1,0.41027089999988675,0.046761199831962585,0.04759049997664988,0.09948799991980195,0.09984289994463325,0.7515304000116885
RSVPLG03,TM,20251103-095546,1.0.1,20251020-085245,729,Experiment,Both,1,Automatic,main,24,20251103-095752,local,global,300,S,H,E,E,E-S.png,H-E.png,sS,hH,mask-3.png,mask-1.png,s,1,0.35841079987585545,h,1,0.4384446998592466,0.04760829987935722,0.046554400119930506,0.10055630002170801,0.10044610011391342,0.30063429987058043
RSVPLG03,TM,20251103-095546,1.0.1,20251020-085245,729,Experiment,Both,1,Automatic,main,25,20251103-095756,global,global,750,H,H,E,E,H-E.png,H-E.png,hH,hH,mask-4.png,mask-2.png,s,0,0.5545687999110669,h,1,0.07781410007737577,0.04749859985895455,0.047508700052276254,0.1004757999908179,0.09952250006608665,0.7524498999118805
RSVPLG03,TM,20251103-095546,1.0.1,20251020-085245,729,Experiment,Both,1,Automatic,main,26,20251103-095802,local,local,750,H,S,E,E,E-H.png,E-S.png,hH,sS,mask-3.png,mask-2.png,s,0,0.3230022999923676,h,0,0.010197299998253584,0.04673120006918907,0.04763839999213815,0.09807520010508597,0.09960880014114082,0.7499500999692827
RSVPLG03,TM,20251103-095546,1.0.1,20251020-085245,729,Experiment,Both,1,Automatic,main,27,20251103-095806,local,global,750,S,H,E,E,E-S.png,H-E.png,sS,hH,mask-3.png,mask-3.png,s,1,0.30187670001760125,s,0,0.09021279984153807,0.048530499916523695,0.04750869981944561,0.10152729996480048,0.0995199999306351,0.7531095000449568
RSVPLG03,TM,20251103-095546,1.0.1,20251020-085245,729,Experiment,Both,1,Automatic,main,28,20251103-095811,global,global,750,S,H,A,E,S-A.png,H-E.png,sS,hH,mask-1.png,mask-3.png,s,1,0.2868464000057429,h,1,0.003020599950104952,0.047534000128507614,0.04757270007394254,0.09954169997945428,0.10059790010564029,0.7514279000461102
