exp,exp_initials,runtime,ver,modtime,sub,blocktype,targets,cuetype,mode,trialtype,trial,trialtime,t1_level,t2_level,t2_lag,t1,t2,distractor1,distractor2,stimfile1,stimfile2,t1_corr,t2_corr,maskfile1,maskfile2,t1_resp,t1_acc,t1_rt,t2_resp,t2_acc,t2_rt,t1_dur,t2_dur,t1mask_soa,t2mask_soa,t1t2_soa
RSVPLG03,cs,20260225-132657,1.0.2,20251105-084826,775,Introduction,T1,1,Automatic,main,1,20260225-132837,global,global,750,S,S,A,E,S-A.png,S-E.png,sS,sS,mask-4.png,mask-2.png,h,0,6.249359399998866,none,-5,0,0.08866320000015548,0.0986652999999933,0.19281500000033702,0.20138889999907406,0.7418288000008033
RSVPLG03,cs,20260225-132657,1.0.2,20251105-084826,775,Introduction,T1,1,Automatic,main,2,20260225-132848,global,local,750,S,H,A,A,S-A.png,A-H.png,sS,hH,mask-4.png,mask-4.png,h,0,3.18364229999861,none,-5,0,0.09566000000086206,0.09638439999980619,0.19975680000061402,0.19943100000091363,0.7500491999999213
RSVPLG03,cs,20260225-132657,1.0.2,20251105-084826,775,Introduction,T1,1,Automatic,main,3,20260225-132855,local,global,750,S,S,E,A,E-S.png,S-A.png,sS,sS,mask-2.png,mask-1.png,s,1,0.8152479000000312,none,-5,0,0.0973362000004272,0.09758069999952568,0.20018960000015795,0.2002238999994006,0.7501291000007768
RSVPLG03,cs,20260225-132657,1.0.2,20251105-084826,775,Introduction,T1,1,Automatic,main,4,20260225-132900,global,local,750,S,H,A,E,S-A.png,E-H.png,sS,hH,mask-3.png,mask-4.png,s,1,0.607163099999525,none,-5,0,0.09741339999891352,0.0985049999999319,0.19965339999907883,0.19936889999917184,0.7505505999997695
RSVPLG03,cs,20260225-132657,1.0.2,20251105-084826,775,Introduction,T1,1,Automatic,main,5,20260225-132905,local,local,750,S,H,E,E,E-S.png,E-H.png,sS,hH,mask-2.png,mask-1.png,s,1,5.789758000000802,none,-5,0,0.09570389999862527,0.09938599999986764,0.19986710000011954,0.20135110000046552,0.748536699999022
RSVPLG03,cs,20260225-132657,1.0.2,20251105-084826,775,Introduction,T1,1,Automatic,main,6,20260225-132915,global,global,750,S,H,E,E,S-E.png,H-E.png,sS,hH,mask-1.png,mask-3.png,h,0,2.021881399999984,none,-5,0,0.09735920000093756,0.09735399999954097,0.1990642000000662,0.2002182999985962,0.7496899000016128
RSVPLG03,cs,20260225-132657,1.0.2,20251105-084826,775,Introduction,T1,1,Automatic,main,7,20260225-132921,local,local,750,H,S,A,A,A-H.png,A-S.png,hH,sS,mask-4.png,mask-2.png,h,1,0.6953714999999647,none,-5,0,0.09845969999878434,0.09750290000010864,0.1993594999985362,0.20036679999975604,0.7494910999994318
RSVPLG03,cs,20260225-132657,1.0.2,20251105-084826,775,Introduction,T1,1,Automatic,main,8,20260225-132926,local,local,750,S,S,A,A,A-S.png,A-S.png,sS,sS,mask-1.png,mask-4.png,none,-6,0,none,-5,0,0.09645479999926465,0.096421599999303,0.19942140000057407,0.199985100000049,0.7500660000005155
RSVPLG03,cs,20260225-132941,1.0.2,20251105-084826,775,Practice,T1,1,Automatic,main,1,20260225-132957,local,local,750,S,H,A,E,A-S.png,E-H.png,sS,hH,mask-1.png,mask-1.png,s,1,0.8417334999994637,none,-5,0,0.04678109999986191,0.04772869999942486,0.09921620000022813,0.09972039999956905,0.750766900000599
RSVPLG03,cs,20260225-132941,1.0.2,20251105-084826,775,Practice,T1,1,Automatic,main,2,20260225-133002,global,local,750,H,S,E,A,H-E.png,A-S.png,hH,sS,mask-4.png,mask-4.png,s,0,1.1563357999984873,none,-5,0,0.046568799998567556,0.04730819999895175,0.10058310000022175,0.10045389999868348,0.7505909999999858
RSVPLG03,cs,20260225-132941,1.0.2,20251105-084826,775,Practice,T1,1,Automatic,main,3,20260225-133007,global,local,300,H,H,A,A,H-A.png,A-H.png,hH,hH,mask-4.png,mask-1.png,s,0,2.317260300000271,none,-5,0,0.04656459999932849,0.047350499999083695,0.09871629999906872,0.10035299999981362,0.29995969999981753
RSVPLG03,cs,20260225-132941,1.0.2,20251105-084826,775,Practice,T1,1,Automatic,main,4,20260225-133013,global,local,750,H,H,E,A,H-E.png,A-H.png,hH,hH,mask-3.png,mask-4.png,h,1,3.4694022000003315,none,-5,0,0.04769279999891296,0.04566340000019409,0.09996580000006361,0.0998500999994576,0.7502968999997393
RSVPLG03,cs,20260225-132941,1.0.2,20251105-084826,775,Practice,T1,1,Automatic,main,5,20260225-133020,global,global,750,S,H,A,A,S-A.png,H-A.png,sS,hH,mask-1.png,mask-3.png,s,1,1.1795861000009609,none,-5,0,0.047536500000205706,0.04692880000038713,0.10096900000098685,0.10097370000039518,0.7505304999995133
RSVPLG03,cs,20260225-132941,1.0.2,20251105-084826,775,Practice,T1,1,Automatic,main,6,20260225-133026,local,local,300,H,H,E,E,E-H.png,E-H.png,hH,hH,mask-2.png,mask-4.png,h,1,0.8930236000014702,none,-5,0,0.046467199999824516,0.046677599999384256,0.10053589999915857,0.09998819999964326,0.29982159999963187
RSVPLG03,cs,20260225-132941,1.0.2,20251105-084826,775,Practice,T1,1,Automatic,main,7,20260225-133030,global,local,300,H,H,A,E,H-A.png,E-H.png,hH,hH,mask-4.png,mask-1.png,s,0,0.8395411000001332,none,-5,0,0.04752360000020417,0.047532000000501284,0.10071659999994154,0.09952500000144937,0.3016849999985425
RSVPLG03,cs,20260225-132941,1.0.2,20251105-084826,775,Practice,T1,1,Automatic,main,8,20260225-133034,local,global,750,S,S,E,A,E-S.png,S-A.png,sS,sS,mask-3.png,mask-3.png,s,1,1.0872240000007878,none,-5,0,0.04753830000117887,0.04644969999935711,0.10151229999974021,0.09953039999891189,0.7510517000009713
RSVPLG03,cs,20260225-132941,1.0.2,20251105-084826,775,Practice,T1,1,Automatic,main,9,20260225-133039,global,global,300,S,S,E,E,S-E.png,S-E.png,sS,sS,mask-4.png,mask-2.png,h,0,1.9259445000006963,none,-5,0,0.04769260000102804,0.04886160000023665,0.10077930000079505,0.10097780000069179,0.29936760000055074
RSVPLG03,cs,20260225-132941,1.0.2,20251105-084826,775,Practice,T1,1,Automatic,main,10,20260225-133045,global,global,300,S,S,E,E,S-E.png,S-E.png,sS,sS,mask-3.png,mask-2.png,h,0,1.6058647000008932,none,-5,0,0.047488399999565445,0.047536699999909615,0.10051750000093307,0.09954479999942123,0.30075829999987036
RSVPLG03,cs,20260225-132941,1.0.2,20251105-084826,775,Practice,T1,1,Automatic,main,11,20260225-133050,global,global,750,S,S,E,A,S-E.png,S-A.png,sS,sS,mask-4.png,mask-2.png,s,1,2.519032000000152,none,-5,0,0.04853499999990163,0.047500700000455254,0.10052339999856486,0.09892930000023625,0.7508187999992515
RSVPLG03,cs,20260225-132941,1.0.2,20251105-084826,775,Practice,T1,1,Automatic,main,12,20260225-133057,local,local,750,H,H,E,E,E-H.png,E-H.png,hH,hH,mask-1.png,mask-1.png,h,1,0.5348128999994515,none,-5,0,0.047635700000682846,0.04758170000059181,0.0996500000001106,0.09959760000128881,0.7495835999998235
RSVPLG03,cs,20260225-132941,1.0.2,20251105-084826,775,Practice,T1,1,Automatic,main,13,20260225-133101,local,local,300,S,S,A,E,A-S.png,E-S.png,sS,sS,mask-4.png,mask-1.png,s,1,0.32726890000049025,none,-5,0,0.046810699999696226,0.04755920000025071,0.10046599999986938,0.1005713000013202,0.3002629999991768
RSVPLG03,cs,20260225-132941,1.0.2,20251105-084826,775,Practice,T1,1,Automatic,main,14,20260225-133105,local,global,300,H,S,E,E,E-H.png,S-E.png,hH,sS,mask-2.png,mask-3.png,h,1,0.39760999999998603,none,-5,0,0.048513900001125876,0.04750670000066748,0.09953330000098504,0.09979140000177722,0.29979529999945953
RSVPLG03,cs,20260225-132941,1.0.2,20251105-084826,775,Practice,T1,1,Automatic,main,15,20260225-133109,local,global,750,S,S,A,E,A-S.png,S-E.png,sS,sS,mask-4.png,mask-2.png,s,1,0.4401944999990519,none,-5,0,0.04761809999945399,0.048462800001289,0.10162149999996473,0.10035070000049018,0.7507057999991957
RSVPLG03,cs,20260225-132941,1.0.2,20251105-084826,775,Practice,T1,1,Automatic,main,16,20260225-133114,local,global,300,S,S,E,A,E-S.png,S-A.png,sS,sS,mask-4.png,mask-4.png,s,1,0.309935499999483,none,-5,0,0.047749399998792796,0.045746600000711624,0.09833249999974214,0.098938499999349,0.30043669999940903
RSVPLG03,cs,20260225-133133,1.0.2,20251105-084826,775,Practice,T1,1,Automatic,main,1,20260225-133159,local,local,750,S,S,A,E,A-S.png,E-S.png,sS,sS,mask-1.png,mask-3.png,s,1,1.4090656999997009,none,-5,0,0.04122860000097717,0.046685100000104285,0.09401570000045467,0.0988827000001038,0.7477022000002762
RSVPLG03,cs,20260225-133133,1.0.2,20251105-084826,775,Practice,T1,1,Automatic,main,2,20260225-133205,global,local,300,S,S,E,A,S-E.png,A-S.png,sS,sS,mask-2.png,mask-1.png,s,1,1.0218215999993845,none,-5,0,0.04873349999979837,0.04770800000005693,0.10094989999925019,0.099937900000441,0.30161930000031134
RSVPLG03,cs,20260225-133133,1.0.2,20251105-084826,775,Practice,T1,1,Automatic,main,3,20260225-133209,global,global,300,H,S,A,A,H-A.png,S-A.png,hH,sS,mask-3.png,mask-4.png,s,0,0.7974639999993087,none,-5,0,0.04580470000109926,0.04747750000024098,0.09917650000170397,0.10064300000158255,0.30047190000004775
RSVPLG03,cs,20260225-133133,1.0.2,20251105-084826,775,Practice,T1,1,Automatic,main,4,20260225-133214,global,global,300,S,S,A,E,S-A.png,S-E.png,sS,sS,mask-4.png,mask-2.png,s,1,0.48078459999851475,none,-5,0,0.04671039999993809,0.045535999999628984,0.09994299999925715,0.09946760000093491,0.3007227999987663
RSVPLG03,cs,20260225-133133,1.0.2,20251105-084826,775,Practice,T1,1,Automatic,main,5,20260225-133218,local,global,300,S,H,A,A,A-S.png,H-A.png,sS,hH,mask-4.png,mask-1.png,s,1,0.6375935000014579,none,-5,0,0.04764950000026147,0.04764520000026096,0.10166820000085863,0.0989026000006561,0.30196350000005623
RSVPLG03,cs,20260225-133133,1.0.2,20251105-084826,775,Practice,T1,1,Automatic,main,6,20260225-133222,local,local,300,S,S,E,E,E-S.png,E-S.png,sS,sS,mask-2.png,mask-1.png,s,1,0.3928150000010646,none,-5,0,0.0473586999996769,0.04793900000004214,0.10040909999952419,0.10199610000017856,0.3000895000004675
RSVPLG03,cs,20260225-133133,1.0.2,20251105-084826,775,Practice,T1,1,Automatic,main,7,20260225-133226,global,local,750,H,H,E,E,H-E.png,E-H.png,hH,hH,mask-2.png,mask-4.png,s,0,4.395607000000382,none,-5,0,0.04758179999953427,0.04856190000100469,0.0998264999998355,0.09963760000027833,0.7526486999995541
RSVPLG03,cs,20260225-133133,1.0.2,20251105-084826,775,Practice,T1,1,Automatic,main,8,20260225-133234,local,global,300,S,S,E,A,E-S.png,S-A.png,sS,sS,mask-1.png,mask-3.png,s,1,0.3587754000000132,none,-5,0,0.04666480000014417,0.04855680000036955,0.09977499999877182,0.09991010000157985,0.3007953999986057
RSVPLG03,cs,20260225-133133,1.0.2,20251105-084826,775,Practice,T1,1,Automatic,main,9,20260225-133238,local,global,750,H,S,A,A,A-H.png,S-A.png,hH,sS,mask-2.png,mask-2.png,h,1,0.5423209999989922,none,-5,0,0.047490599999946426,0.04660909999984142,0.10048860000097193,0.0995865999993839,0.7535579000013968
RSVPLG03,cs,20260225-133133,1.0.2,20251105-084826,775,Practice,T1,1,Automatic,main,10,20260225-133243,local,local,750,S,S,A,A,A-S.png,A-S.png,sS,sS,mask-1.png,mask-1.png,s,1,0.42097369999828516,none,-5,0,0.04752890000054322,0.048598999999740045,0.10078920000159997,0.09979439999915485,0.7533773000013753
RSVPLG03,cs,20260225-133133,1.0.2,20251105-084826,775,Practice,T1,1,Automatic,main,11,20260225-133247,local,global,750,S,S,E,E,E-S.png,S-E.png,sS,sS,mask-1.png,mask-4.png,s,1,0.3657341999987693,none,-5,0,0.04772989999946731,0.04755070000101114,0.10040699999990466,0.10057730000153242,0.7532639999990351
RSVPLG03,cs,20260225-133133,1.0.2,20251105-084826,775,Practice,T1,1,Automatic,main,12,20260225-133252,local,local,300,S,H,A,A,A-S.png,A-H.png,sS,hH,mask-3.png,mask-3.png,s,1,1.2651810000006662,none,-5,0,0.04728129999966768,0.04683329999897978,0.09952900000098452,0.09917049999967276,0.3017725000008795
RSVPLG03,cs,20260225-133133,1.0.2,20251105-084826,775,Practice,T1,1,Automatic,main,13,20260225-133256,global,local,750,H,H,A,A,H-A.png,A-H.png,hH,hH,mask-3.png,mask-3.png,h,1,0.620134999999209,none,-5,0,0.046844899999996414,0.049326899999869056,0.10043229999973846,0.10228950000055193,0.7524799000002531
RSVPLG03,cs,20260225-133133,1.0.2,20251105-084826,775,Practice,T1,1,Automatic,main,14,20260225-133301,global,global,750,S,H,A,E,S-A.png,H-E.png,sS,hH,mask-4.png,mask-4.png,s,1,0.4807878999999957,none,-5,0,0.0476461999987805,0.046716299999388866,0.10035539999989851,0.1009396999997989,0.7530487000003632
RSVPLG03,cs,20260225-133133,1.0.2,20251105-084826,775,Practice,T1,1,Automatic,main,15,20260225-133306,global,global,750,S,H,E,E,S-E.png,H-E.png,sS,hH,mask-1.png,mask-1.png,h,0,0.5028686000005109,none,-5,0,0.047625999999581836,0.04803900000115391,0.09968809999918449,0.10116610000113724,0.7511289999984001
RSVPLG03,cs,20260225-133133,1.0.2,20251105-084826,775,Practice,T1,1,Automatic,main,16,20260225-133310,global,local,300,S,S,A,E,S-A.png,E-S.png,sS,sS,mask-1.png,mask-2.png,h,0,1.5603830000000016,none,-5,0,0.04831160000139789,0.047740200001499034,0.10016200000063691,0.10121480000088923,0.3011563000000024
RSVPLG03,cs,20260225-133331,1.0.2,20251105-084826,775,Practice,T1,1,Automatic,main,1,20260225-133352,local,local,750,H,S,E,A,E-H.png,A-S.png,hH,sS,mask-1.png,mask-2.png,s,0,0.9036126999999397,none,-5,0,0.03905440000016824,0.0477379000003566,0.09192350000012084,0.09983929999907559,0.742501099999572
RSVPLG03,cs,20260225-133331,1.0.2,20251105-084826,775,Practice,T1,1,Automatic,main,2,20260225-133357,global,global,300,H,S,E,A,H-E.png,S-A.png,hH,sS,mask-4.png,mask-2.png,s,0,1.4694070999994437,none,-5,0,0.04771450000043842,0.047512400000414345,0.09991699999955017,0.10061580000001413,0.2998229999993782
RSVPLG03,cs,20260225-133331,1.0.2,20251105-084826,775,Practice,T1,1,Automatic,main,3,20260225-133402,global,local,750,S,S,A,A,S-A.png,A-S.png,sS,sS,mask-4.png,mask-2.png,s,1,0.5677106000002823,none,-5,0,0.04867229999945266,0.04868009999881906,0.10088069999983418,0.09898289999910048,0.7506317000006675
RSVPLG03,cs,20260225-133331,1.0.2,20251105-084826,775,Practice,T1,1,Automatic,main,4,20260225-133407,local,local,300,S,S,A,A,A-S.png,A-S.png,sS,sS,mask-4.png,mask-1.png,s,1,0.35852259999956004,none,-5,0,0.047712999999930616,0.04806800000005751,0.1009303999999247,0.09966979999990144,0.3005754000005254
RSVPLG03,cs,20260225-133331,1.0.2,20251105-084826,775,Practice,T1,1,Automatic,main,5,20260225-133410,local,global,750,H,S,A,A,A-H.png,S-A.png,hH,sS,mask-1.png,mask-2.png,h,1,0.34568450000006123,none,-5,0,0.04754289999982575,0.04653820000021369,0.09865139999965322,0.09862190000058035,0.7506472999994003
RSVPLG03,cs,20260225-133331,1.0.2,20251105-084826,775,Practice,T1,1,Automatic,main,6,20260225-133415,local,global,300,S,S,A,A,A-S.png,S-A.png,sS,sS,mask-1.png,mask-3.png,s,1,0.47536460000083025,none,-5,0,0.047766600000613835,0.04772870000124385,0.09999800000150572,0.0999604000007821,0.2997627000004286
RSVPLG03,cs,20260225-133331,1.0.2,20251105-084826,775,Practice,T1,1,Automatic,main,7,20260225-133419,global,local,750,S,H,E,A,S-E.png,A-H.png,sS,hH,mask-4.png,mask-1.png,s,1,0.4178401999997732,none,-5,0,0.04769250000026659,0.04761849999886181,0.09906020000016724,0.10068859999955748,0.7500751000006858
RSVPLG03,cs,20260225-133331,1.0.2,20251105-084826,775,Practice,T1,1,Automatic,main,8,20260225-133423,global,local,300,H,H,A,A,H-A.png,A-H.png,hH,hH,mask-3.png,mask-1.png,h,1,1.1002097000000504,none,-5,0,0.04734929999904125,0.04855959999986226,0.10030649999862362,0.10038650000024063,0.2996380999993562
RSVPLG03,cs,20260225-133331,1.0.2,20251105-084826,775,Practice,T1,1,Automatic,main,9,20260225-133428,global,local,300,H,H,E,A,H-E.png,A-H.png,hH,hH,mask-2.png,mask-4.png,s,0,0.4095400999995036,none,-5,0,0.047384600000441424,0.0467201000010391,0.0995697000016662,0.09979680000105873,0.30090999999993073
RSVPLG03,cs,20260225-133331,1.0.2,20251105-084826,775,Practice,T1,1,Automatic,main,10,20260225-133432,local,local,750,S,S,A,A,A-S.png,A-S.png,sS,sS,mask-1.png,mask-2.png,s,1,0.4279636000010214,none,-5,0,0.04659179999907792,0.04758589999983087,0.09967039999901317,0.09963489999972808,0.75000639999962
RSVPLG03,cs,20260225-133331,1.0.2,20251105-084826,775,Practice,T1,1,Automatic,main,11,20260225-133436,local,global,750,H,S,A,E,A-H.png,S-E.png,hH,sS,mask-2.png,mask-2.png,h,1,0.4325031999997009,none,-5,0,0.047062599998753285,0.049482100001114304,0.10077949999867997,0.10022340000068652,0.7495205999985046
RSVPLG03,cs,20260225-133331,1.0.2,20251105-084826,775,Practice,T1,1,Automatic,main,12,20260225-133441,local,global,300,S,S,A,E,A-S.png,S-E.png,sS,sS,mask-1.png,mask-4.png,s,1,0.6055290999993304,none,-5,0,0.047224799998730305,0.04626319999988482,0.10065289999874949,0.09958999999980733,0.301195000000007
RSVPLG03,cs,20260225-133331,1.0.2,20251105-084826,775,Practice,T1,1,Automatic,main,13,20260225-133445,global,global,750,H,H,E,A,H-E.png,H-A.png,hH,hH,mask-4.png,mask-3.png,s,0,0.713813399999708,none,-5,0,0.047065299999303534,0.046609799999714596,0.09860630000002857,0.09983800000009069,0.7498751999992237
RSVPLG03,cs,20260225-133331,1.0.2,20251105-084826,775,Practice,T1,1,Automatic,main,14,20260225-133450,local,local,300,H,S,E,E,E-H.png,E-S.png,hH,sS,mask-2.png,mask-1.png,h,1,0.3703070999999909,none,-5,0,0.046513400000549154,0.048775600000226405,0.09966730000087409,0.10093890000098327,0.29848350000065693
RSVPLG03,cs,20260225-133331,1.0.2,20251105-084826,775,Practice,T1,1,Automatic,main,15,20260225-133454,global,global,300,S,S,E,E,S-E.png,S-E.png,sS,sS,mask-1.png,mask-3.png,s,1,1.123392800000147,none,-5,0,0.047077100000024075,0.04660249999869848,0.09973549999995157,0.09892719999879773,0.30112020000160555
RSVPLG03,cs,20260225-133331,1.0.2,20251105-084826,775,Practice,T1,1,Automatic,main,16,20260225-133459,global,global,750,H,H,A,E,H-A.png,H-E.png,hH,hH,mask-4.png,mask-1.png,s,0,0.778728700001011,none,-5,0,0.04752019999978074,0.04856809999910183,0.09952189999967231,0.10057849999975588,0.7494299999998475
RSVPLG03,cs,20260225-133536,1.0.2,20251105-084826,775,Practice,Both,1,Automatic,main,1,20260225-133607,local,global,300,H,H,E,E,E-H.png,H-E.png,hH,hH,mask-1.png,mask-3.png,h,1,3.110745499998302,s,0,1.0375371000009181,0.039083100000425475,0.04672220000065863,0.09230399999796646,0.09998740000082762,0.29219949999969685
RSVPLG03,cs,20260225-133536,1.0.2,20251105-084826,775,Practice,Both,1,Automatic,main,2,20260225-133615,local,local,300,H,H,A,E,A-H.png,E-H.png,hH,hH,mask-1.png,mask-3.png,h,1,0.9723085000005085,s,0,4.137294899999688,0.04774410000027274,0.047725300002639415,0.09973050000189687,0.0999456999998074,0.2996917999989819
RSVPLG03,cs,20260225-133536,1.0.2,20251105-084826,775,Practice,Both,1,Automatic,main,3,20260225-133624,global,global,300,H,H,A,E,H-A.png,H-E.png,hH,hH,mask-4.png,mask-3.png,s,0,1.4849165999985416,h,1,1.3400326000009954,0.04668120000133058,0.04761730000245734,0.09920670000065002,0.09998760000235052,0.29793299999801093
RSVPLG03,cs,20260225-133536,1.0.2,20251105-084826,775,Practice,Both,1,Automatic,main,4,20260225-133631,global,local,750,H,S,A,E,H-A.png,E-S.png,hH,sS,mask-1.png,mask-1.png,h,1,1.1195881999992707,s,1,0.47265020000122604,0.04774370000086492,0.04621749999932945,0.09993580000082147,0.09929740000006859,0.7471724000024551
RSVPLG03,cs,20260225-133536,1.0.2,20251105-084826,775,Practice,Both,1,Automatic,main,5,20260225-133636,local,local,750,H,S,E,E,E-H.png,E-S.png,hH,sS,mask-2.png,mask-2.png,h,1,0.4770048999998835,s,1,0.4914403000002494,0.047694499997305684,0.04764590000195312,0.09988589999920805,0.0994395000016084,0.7471454999977141
RSVPLG03,cs,20260225-133536,1.0.2,20251105-084826,775,Practice,Both,1,Automatic,main,6,20260225-133641,global,global,750,S,H,A,A,S-A.png,H-A.png,sS,hH,mask-3.png,mask-3.png,s,1,2.783116999999038,h,1,0.35665660000086064,0.047718099998746766,0.047728000001370674,0.09992849999980535,0.09934330000032787,0.7483920999984548
RSVPLG03,cs,20260225-133536,1.0.2,20251105-084826,775,Practice,Both,1,Automatic,main,7,20260225-133649,global,global,300,H,H,A,E,H-A.png,H-E.png,hH,hH,mask-1.png,mask-1.png,s,0,2.388771400001133,h,1,0.33100439999907394,0.04663399999844842,0.04674619999786955,0.09889900000052876,0.09990339999785647,0.29894340000100783
RSVPLG03,cs,20260225-133536,1.0.2,20251105-084826,775,Practice,Both,1,Automatic,main,8,20260225-133655,global,local,750,H,H,A,A,H-A.png,A-H.png,hH,hH,mask-2.png,mask-3.png,h,1,0.8220384999985981,s,0,0.522916099998838,0.048587099998258054,0.04752049999660812,0.10063829999853624,0.09851669999989099,0.748947500000213
RSVPLG03,cs,20260225-133536,1.0.2,20251105-084826,775,Practice,Both,1,Automatic,main,9,20260225-133701,local,local,300,S,S,A,E,A-S.png,E-S.png,sS,sS,mask-4.png,mask-1.png,s,1,0.9629228999983752,h,0,0.28348879999975907,0.04794299999775831,0.04656059999979334,0.10013329999856069,0.09963530000095489,0.3000773999992816
RSVPLG03,cs,20260225-133536,1.0.2,20251105-084826,775,Practice,Both,1,Automatic,main,10,20260225-133706,local,global,300,S,H,E,A,E-S.png,H-A.png,sS,hH,mask-1.png,mask-2.png,s,1,0.5242448999997578,s,0,0.4085369000022183,0.048543500000960194,0.04751159999796073,0.10054279999894788,0.10005819999787491,0.29892110000218963
RSVPLG03,cs,20260225-133536,1.0.2,20251105-084826,775,Practice,Both,1,Automatic,main,11,20260225-133710,global,global,750,S,H,E,A,S-E.png,H-A.png,sS,hH,mask-4.png,mask-1.png,s,1,0.7588243999998667,s,0,0.22972800000206917,0.04576509999969858,0.04851620000044932,0.09798939999745926,0.10042559999783407,0.7457697999998345
RSVPLG03,cs,20260225-133536,1.0.2,20251105-084826,775,Practice,Both,1,Automatic,main,12,20260225-133715,global,local,300,S,S,A,E,S-A.png,E-S.png,sS,sS,mask-1.png,mask-1.png,s,1,0.74059219999981,h,0,0.23343910000039614,0.048371100001531886,0.046617299998615636,0.10029510000094888,0.09965179999926477,0.30018610000115586
RSVPLG03,cs,20260225-133536,1.0.2,20251105-084826,775,Practice,Both,1,Automatic,main,13,20260225-133720,local,local,750,S,S,E,E,E-S.png,E-S.png,sS,sS,mask-2.png,mask-4.png,s,1,0.548607799999445,s,1,0.3325791000024765,0.048079000000143424,0.046721200000320096,0.10016149999864865,0.09976950000054785,0.7480391999997664
RSVPLG03,cs,20260225-133536,1.0.2,20251105-084826,775,Practice,Both,1,Automatic,main,14,20260225-133725,local,global,750,H,H,E,A,E-H.png,H-A.png,hH,hH,mask-1.png,mask-4.png,h,1,0.37979529999938677,s,0,0.3003759000021091,0.04755909999948926,0.045589000001200475,0.09991660000014235,0.09865720000016154,0.7493021000009321
RSVPLG03,cs,20260225-133536,1.0.2,20251105-084826,775,Practice,Both,1,Automatic,main,15,20260225-133730,global,local,300,S,S,A,A,S-A.png,A-S.png,sS,sS,mask-2.png,mask-3.png,s,1,1.7838120000014897,h,0,0.4544141000005766,0.04761220000000321,0.04753770000024815,0.10064770000099088,0.09952889999840409,0.29874370000106865
RSVPLG03,cs,20260225-133536,1.0.2,20251105-084826,775,Practice,Both,1,Automatic,main,16,20260225-133736,local,global,750,H,S,E,E,E-H.png,S-E.png,hH,sS,mask-4.png,mask-4.png,h,1,1.231483899999148,s,1,0.1270185000030324,0.04756669999915175,0.04789380000147503,0.09965379999994184,0.10075890000007348,0.7454901999990398
RSVPLG03,cs,20260225-133758,1.0.2,20251105-084826,775,Practice,Both,1,Automatic,main,1,20260225-133816,global,global,750,S,H,E,A,S-E.png,H-A.png,sS,hH,mask-2.png,mask-2.png,s,1,1.4117175999999745,h,1,0.19841789999918547,0.04006200000003446,0.048138900001504226,0.09160560000236728,0.10014669999873149,0.7390253000012308
RSVPLG03,cs,20260225-133758,1.0.2,20251105-084826,775,Practice,Both,1,Automatic,main,2,20260225-133822,global,local,750,H,S,A,A,H-A.png,A-S.png,hH,sS,mask-2.png,mask-1.png,h,1,0.7029683000000659,s,1,0.29931719999876805,0.04732330000115326,0.04672289999871282,0.10014869999940856,0.09876979999899049,0.7483777000015834
RSVPLG03,cs,20260225-133758,1.0.2,20251105-084826,775,Practice,Both,1,Automatic,main,3,20260225-133827,global,global,750,S,S,A,A,S-A.png,S-A.png,sS,sS,mask-3.png,mask-1.png,s,1,0.9596240999999281,h,0,0.15037350000056904,0.04496640000070329,0.04699559999789926,0.09768980000080774,0.09796920000007958,0.746852600001148
RSVPLG03,cs,20260225-133758,1.0.2,20251105-084826,775,Practice,Both,1,Automatic,main,4,20260225-133833,local,global,300,H,S,A,E,A-H.png,S-E.png,hH,sS,mask-1.png,mask-3.png,h,1,0.5862979999983509,s,1,0.29079229999842937,0.046813199998723576,0.04607620000024326,0.09985989999768208,0.09934829999838257,0.2994357999996282
RSVPLG03,cs,20260225-133758,1.0.2,20251105-084826,775,Practice,Both,1,Automatic,main,5,20260225-133837,local,local,750,H,H,A,E,A-H.png,E-H.png,hH,hH,mask-4.png,mask-1.png,h,1,0.9042649000002712,s,0,0.16990879999866593,0.04763680000178283,0.046508299998095026,0.09966930000155116,0.09851729999718373,0.7479693000022962
RSVPLG03,cs,20260225-133758,1.0.2,20251105-084826,775,Practice,Both,1,Automatic,main,6,20260225-133842,global,global,300,H,H,E,E,H-E.png,H-E.png,hH,hH,mask-4.png,mask-1.png,s,0,0.616971100000228,h,1,0.43941220000124304,0.04569269999774406,0.04707769999731681,0.10000170000057551,0.09955780000018422,0.2981550000004063
RSVPLG03,cs,20260225-133758,1.0.2,20251105-084826,775,Practice,Both,1,Automatic,main,7,20260225-133847,local,local,300,S,S,A,E,A-S.png,E-S.png,sS,sS,mask-2.png,mask-1.png,s,1,0.6523269999997865,h,0,0.26312310000139405,0.04753049999999348,0.04783790000146837,0.10057859999869834,0.09917870000208495,0.29831429999831016
RSVPLG03,cs,20260225-133758,1.0.2,20251105-084826,775,Practice,Both,1,Automatic,main,8,20260225-133852,global,local,300,S,H,E,E,S-E.png,E-H.png,sS,hH,mask-2.png,mask-3.png,s,1,1.1320382000012614,h,1,0.17110970000067027,0.046266100001957966,0.04856899999867892,0.09939540000050329,0.09957940000094823,0.29766680000102497
RSVPLG03,cs,20260225-133758,1.0.2,20251105-084826,775,Practice,Both,1,Automatic,main,9,20260225-133857,global,local,300,H,S,A,A,H-A.png,A-S.png,hH,sS,mask-3.png,mask-3.png,h,1,0.5070495999971172,s,1,0.13819689999945695,0.04737070000192034,0.04756039999847417,0.09843370000089635,0.10060959999827901,0.29789870000240626
RSVPLG03,cs,20260225-133758,1.0.2,20251105-084826,775,Practice,Both,1,Automatic,main,10,20260225-133901,local,local,300,H,S,A,A,A-H.png,A-S.png,hH,sS,mask-2.png,mask-3.png,h,1,0.7602856000012252,s,1,0.2669729000008374,0.04735720000098809,0.04739530000006198,0.0982585999990988,0.10023849999925005,0.2982378999986395
RSVPLG03,cs,20260225-133758,1.0.2,20251105-084826,775,Practice,Both,1,Automatic,main,11,20260225-133906,local,global,300,S,H,E,E,E-S.png,H-E.png,sS,hH,mask-2.png,mask-4.png,s,1,0.6704814000004262,s,0,0.25648980000187294,0.046595499999966705,0.0476130999995803,0.09860259999913978,0.09939609999855747,0.29784160000053816
RSVPLG03,cs,20260225-133758,1.0.2,20251105-084826,775,Practice,Both,1,Automatic,main,12,20260225-133911,local,global,750,H,S,A,E,A-H.png,S-E.png,hH,sS,mask-2.png,mask-2.png,h,1,0.3755113999977766,h,0,0.2925802999998268,0.046556600002077175,0.0475771999990684,0.09854020000057062,0.09959069999968051,0.7457981000006839
RSVPLG03,cs,20260225-133758,1.0.2,20251105-084826,775,Practice,Both,1,Automatic,main,13,20260225-133915,global,global,300,H,H,E,E,H-E.png,H-E.png,hH,hH,mask-4.png,mask-1.png,s,0,1.4081353999972634,h,1,0.20437659999879543,0.046922400000767084,0.04474399999890011,0.10099470000204747,0.09783220000099391,0.3002596000005724
RSVPLG03,cs,20260225-133758,1.0.2,20251105-084826,775,Practice,Both,1,Automatic,main,14,20260225-133921,local,global,750,H,H,A,E,A-H.png,H-E.png,hH,hH,mask-2.png,mask-1.png,h,1,0.509759500000655,h,1,0.09223560000100406,0.04953139999997802,0.04662309999912395,0.10055039999861037,0.09965219999867259,0.74867820000145
RSVPLG03,cs,20260225-133758,1.0.2,20251105-084826,775,Practice,Both,1,Automatic,main,15,20260225-133926,local,local,750,H,H,A,E,A-H.png,E-H.png,hH,hH,mask-3.png,mask-1.png,h,1,0.7347145000021555,h,1,0.200641600000381,0.04759130000093137,0.048676599999453174,0.10061130000030971,0.10173239999858197,0.746996300000319
RSVPLG03,cs,20260225-133758,1.0.2,20251105-084826,775,Practice,Both,1,Automatic,main,16,20260225-133931,global,local,750,H,H,E,A,H-E.png,A-H.png,hH,hH,mask-4.png,mask-4.png,h,1,1.428004299999884,s,0,0.23564540000006673,0.04682010000033188,0.04767559999891091,0.09900689999994938,0.1000640000020212,0.7460721999996167
RSVPLG03,cs,20260225-134044,1.0.2,20251105-084826,775,Introduction,Both,1,Automatic,main,1,20260225-134111,global,global,750,H,H,E,A,H-E.png,H-A.png,hH,hH,mask-1.png,mask-1.png,h,1,2.4936306000017794,h,1,0.12152359999890905,0.09149940000133938,0.09770810000190977,0.19385180000244873,0.2001735000012559,0.7441288000009081
RSVPLG03,cs,20260225-134044,1.0.2,20251105-084826,775,Introduction,Both,1,Automatic,main,2,20260225-134118,global,global,750,S,S,E,A,S-E.png,S-A.png,sS,sS,mask-1.png,mask-1.png,h,0,0.7223833000025479,h,0,0.24348210000243853,0.09793970000100671,0.09756589999960852,0.199535100000503,0.19962939999822993,0.7518268000021635
RSVPLG03,cs,20260225-134044,1.0.2,20251105-084826,775,Introduction,Both,1,Automatic,main,3,20260225-134123,global,local,750,H,H,A,E,H-A.png,E-H.png,hH,hH,mask-3.png,mask-3.png,h,1,0.9055585000023711,h,1,0.13781059999746503,0.09660550000262447,0.09757379999791738,0.19944450000184588,0.1996633999988262,0.7521627000023727
RSVPLG03,cs,20260225-134044,1.0.2,20251105-084826,775,Introduction,Both,1,Automatic,main,4,20260225-134129,global,local,750,S,H,A,A,S-A.png,A-H.png,sS,hH,mask-4.png,mask-1.png,s,1,1.8872809000022244,h,1,0.07669929999974556,0.09662639999805833,0.09756099999867729,0.1997427999995125,0.19897800000035204,0.7523075999997673
RSVPLG03,cs,20260225-134044,1.0.2,20251105-084826,775,Introduction,Both,1,Automatic,main,5,20260225-134135,global,local,750,H,H,E,E,H-E.png,E-H.png,hH,hH,mask-3.png,mask-3.png,s,0,1.2853756999975303,h,1,0.024820700000418583,0.09758059999876423,0.09756539999943925,0.2006493999979284,0.20072889999937615,0.7504545999981929
RSVPLG03,cs,20260225-134044,1.0.2,20251105-084826,775,Introduction,Both,1,Automatic,main,6,20260225-134141,local,global,750,S,S,A,E,A-S.png,S-E.png,sS,sS,mask-2.png,mask-2.png,s,1,0.7932999000004202,h,0,0.22268330000224523,0.09870550000050571,0.0984881000003952,0.2008626999995613,0.20056399999884889,0.7522668000019621
RSVPLG03,cs,20260225-134044,1.0.2,20251105-084826,775,Introduction,Both,1,Automatic,main,7,20260225-134146,local,local,750,S,S,E,A,E-S.png,A-S.png,sS,sS,mask-2.png,mask-4.png,s,1,0.4851414000004297,s,1,0.5512298000030569,0.09848169999895617,0.0968018999992637,0.20133809999970254,0.201396599997679,0.7516073000006145
RSVPLG03,cs,20260225-134044,1.0.2,20251105-084826,775,Introduction,Both,1,Automatic,main,8,20260225-134151,global,local,750,H,S,A,A,H-A.png,A-S.png,hH,sS,mask-2.png,mask-2.png,h,1,0.7171974000011687,s,1,0.10572959999990417,0.09838139999919804,0.09704860000056215,0.20123729999977513,0.2000466999998025,0.7529426000000967
RSVPLG03,cs,20260225-134044,1.0.2,20251105-084826,775,Introduction,Both,1,Automatic,main,9,20260225-134156,local,global,750,S,H,A,A,A-S.png,H-A.png,sS,hH,mask-1.png,mask-1.png,s,1,0.8299392000008083,s,0,0.2474277000001166,0.09737160000076983,0.0951989000022877,0.2002850999997463,0.19963890000144602,0.7528042999983882
RSVPLG03,cs,20260225-134044,1.0.2,20251105-084826,775,Introduction,Both,1,Automatic,main,10,20260225-134202,local,local,750,S,S,E,A,E-S.png,A-S.png,sS,sS,mask-4.png,mask-2.png,s,1,0.6614484000019729,s,1,0.1368761000012455,0.0993808999992325,0.09763299999758601,0.20222279999870807,0.20155939999676775,0.7521994000017003
RSVPLG03,cs,20260225-134044,1.0.2,20251105-084826,775,Introduction,Both,1,Automatic,main,11,20260225-134207,global,global,750,S,S,A,A,S-A.png,S-A.png,sS,sS,mask-3.png,mask-4.png,s,1,1.1859063999982027,s,1,0.10566719999769703,0.09743600000001607,0.09834610000325483,0.2004345999994257,0.20193810000273515,0.7504793999978574
RSVPLG03,cs,20260225-134044,1.0.2,20251105-084826,775,Introduction,Both,1,Automatic,main,12,20260225-134212,local,local,750,H,H,A,E,A-H.png,E-H.png,hH,hH,mask-1.png,mask-3.png,h,1,0.2598803999972006,h,1,0.1256636999969487,0.09836859999995795,0.09915349999937462,0.20096399999965797,0.2010398999991594,0.7515853000004427
RSVPLG03,cs,20260225-134044,1.0.2,20251105-084826,775,Introduction,Both,1,Automatic,main,13,20260225-134217,local,global,750,H,H,E,E,E-H.png,H-E.png,hH,hH,mask-4.png,mask-4.png,h,1,1.5353890000005777,h,1,1.041532899998856,0.09667500000068685,0.0972540000002482,0.1997559999981604,0.20048920000044745,0.7510987999994541
RSVPLG03,cs,20260225-134044,1.0.2,20251105-084826,775,Introduction,Both,1,Automatic,main,14,20260225-134224,global,global,750,H,H,E,E,H-E.png,H-E.png,hH,hH,mask-2.png,mask-1.png,h,1,1.960089700001845,h,1,1.2409519000029832,0.09757689999969443,0.09745599999951082,0.20053270000062184,0.20185729999866453,0.7504479999988689
RSVPLG03,cs,20260225-134044,1.0.2,20251105-084826,775,Introduction,Both,1,Automatic,main,15,20260225-134231,local,local,750,H,S,E,E,E-H.png,E-S.png,hH,sS,mask-2.png,mask-2.png,h,1,0.480189199999586,s,1,0.09382190000178525,0.0974701000013738,0.09680030000163242,0.20160089999990305,0.19990660000257776,0.751687399999355
RSVPLG03,cs,20260225-134044,1.0.2,20251105-084826,775,Introduction,Both,1,Automatic,main,16,20260225-134236,local,global,750,S,H,A,E,A-S.png,H-E.png,sS,hH,mask-2.png,mask-4.png,s,1,1.219473499997548,h,1,1.443386399998417,0.09840320000148495,0.09696019999682903,0.20060799999919254,0.1990498999984993,0.7529921000023023
RSVPLG03,cs,20260225-134325,1.0.2,20251105-084826,775,Experiment,Both,1,Automatic,warmup,1,20260225-134440,global,global,750,S,H,E,E,S-E.png,H-E.png,sS,hH,mask-1.png,mask-4.png,s,1,1.1946465000000899,s,0,0.08282329999929061,0.04033089999938966,0.04699080000136746,0.09358119999888004,0.10017249999873457,0.7437959999988379
RSVPLG03,cs,20260225-134325,1.0.2,20251105-084826,775,Experiment,Both,1,Automatic,warmup,2,20260225-134446,local,global,300,H,H,E,E,E-H.png,H-E.png,hH,hH,mask-2.png,mask-3.png,h,1,1.0012437000004866,s,0,0.18132450000121025,0.04756470000211266,0.04755189999923459,0.09868600000118022,0.1015877999998338,0.2989847999997437
RSVPLG03,cs,20260225-134325,1.0.2,20251105-084826,775,Experiment,Both,1,Automatic,warmup,3,20260225-134451,global,local,300,S,S,A,A,S-A.png,A-S.png,sS,sS,mask-2.png,mask-3.png,h,0,1.3498183999981848,s,1,0.22891549999985727,0.047580399997968925,0.047602099999494385,0.09917389999827719,0.09968279999884544,0.3006835999985924
RSVPLG03,cs,20260225-134325,1.0.2,20251105-084826,775,Experiment,Both,1,Automatic,warmup,4,20260225-134456,local,local,750,H,H,E,A,E-H.png,A-H.png,hH,hH,mask-3.png,mask-3.png,h,1,0.44258760000229813,h,1,0.06930430000284105,0.047517200000584126,0.04750720000083675,0.0991567999990366,0.0987676000004285,0.7503931999999622
RSVPLG03,cs,20260225-134325,1.0.2,20251105-084826,775,Experiment,Both,1,Automatic,main,5,20260225-134500,global,local,750,S,S,E,A,S-E.png,A-S.png,sS,sS,mask-2.png,mask-2.png,s,1,0.6008113000025332,s,1,0.1191529999996419,0.046542699998099124,0.0476678000013635,0.09939389999999548,0.09964340000078664,0.74969499999861
RSVPLG03,cs,20260225-134325,1.0.2,20251105-084826,775,Experiment,Both,1,Automatic,main,6,20260225-134505,global,local,750,S,S,E,A,S-E.png,A-S.png,sS,sS,mask-2.png,mask-3.png,s,1,2.6169317000021692,h,0,0.028472999998484738,0.048608500001137145,0.04804530000183149,0.10176789999968605,0.10015440000279341,0.7512736999997287
RSVPLG03,cs,20260225-134325,1.0.2,20251105-084826,775,Experiment,Both,1,Automatic,main,7,20260225-134512,local,local,300,H,S,E,E,E-H.png,E-S.png,hH,sS,mask-1.png,mask-4.png,h,1,1.2732495999989624,s,1,0.040012199999182485,0.04780810000011115,0.04761769999822718,0.09985420000157319,0.10036929999841959,0.2996093000001565
RSVPLG03,cs,20260225-134325,1.0.2,20251105-084826,775,Experiment,Both,1,Automatic,main,8,20260225-134517,local,global,750,H,S,E,E,E-H.png,S-E.png,hH,sS,mask-2.png,mask-4.png,h,1,0.9983485999982804,s,1,0.10649259999991045,0.04556899999806774,0.04755709999881219,0.09942239999872982,0.10056540000005043,0.7493823999975575
RSVPLG03,cs,20260225-134325,1.0.2,20251105-084826,775,Experiment,Both,1,Automatic,main,9,20260225-134522,local,local,750,S,S,A,E,A-S.png,E-S.png,sS,sS,mask-3.png,mask-1.png,s,1,0.9475861999999324,s,1,0.6799925999985135,0.04694559999916237,0.0477056999989145,0.10026379999908386,0.09989999999743304,0.7507078000016918
RSVPLG03,cs,20260225-134325,1.0.2,20251105-084826,775,Experiment,Both,1,Automatic,main,10,20260225-134528,local,global,750,S,S,E,A,E-S.png,S-A.png,sS,sS,mask-3.png,mask-1.png,s,1,1.416417399999773,h,0,0.04436290000012377,0.04796699999860721,0.047749599998496706,0.09935259999838308,0.09987650000039139,0.7520523999992292
RSVPLG03,cs,20260225-134325,1.0.2,20251105-084826,775,Experiment,Both,1,Automatic,main,11,20260225-134534,global,global,300,S,S,E,E,S-E.png,S-E.png,sS,sS,mask-1.png,mask-1.png,s,1,1.1472226999976556,h,0,1.2431528999986767,0.04742980000082753,0.04689409999991767,0.09937960000024759,0.100009300000238,0.30050180000034743
RSVPLG03,cs,20260225-134325,1.0.2,20251105-084826,775,Experiment,Both,1,Automatic,main,12,20260225-134539,local,local,750,S,S,E,A,E-S.png,A-S.png,sS,sS,mask-2.png,mask-4.png,s,1,0.9532459000001836,s,1,0.08156719999897177,0.04788229999758187,0.04863350000232458,0.09996509999837144,0.100643100002344,0.7498720999974466
RSVPLG03,cs,20260225-134325,1.0.2,20251105-084826,775,Experiment,Both,1,Automatic,main,13,20260225-134544,local,local,300,H,H,A,E,A-H.png,E-H.png,hH,hH,mask-1.png,mask-2.png,h,1,0.9757826999993995,h,1,0.13700510000126087,0.047426600001927,0.04579839999860269,0.09880360000170185,0.09864480000032927,0.3007351000014751
RSVPLG03,cs,20260225-134325,1.0.2,20251105-084826,775,Experiment,Both,1,Automatic,main,14,20260225-134548,global,local,300,H,H,E,E,H-E.png,E-H.png,hH,hH,mask-4.png,mask-4.png,s,0,1.0729595999982848,s,0,0.08611460000247462,0.04737790000217501,0.04761470000084955,0.09955930000069202,0.09965849999935017,0.2999238000011246
RSVPLG03,cs,20260225-134325,1.0.2,20251105-084826,775,Experiment,Both,1,Automatic,main,15,20260225-134553,local,local,300,S,S,A,A,A-S.png,A-S.png,sS,sS,mask-2.png,mask-3.png,h,0,1.1157124000019394,s,1,0.9234137000021292,0.04779629999757162,0.04610150000007707,0.1000434999987192,0.09939159999703406,0.29979570000068634
RSVPLG03,cs,20260225-134325,1.0.2,20251105-084826,775,Experiment,Both,1,Automatic,main,16,20260225-134558,local,global,750,H,S,A,A,A-H.png,S-A.png,hH,sS,mask-4.png,mask-1.png,h,1,0.5978274000008241,s,1,0.008300899997266242,0.047720999999000924,0.046731000002182554,0.09990069999912521,0.09892860000036308,0.7506781999982195
RSVPLG03,cs,20260225-134325,1.0.2,20251105-084826,775,Experiment,Both,1,Automatic,main,17,20260225-134603,global,local,300,H,H,E,E,H-E.png,E-H.png,hH,hH,mask-3.png,mask-1.png,h,1,1.293873699996766,s,0,0.026117499997781124,0.047624099999666214,0.048816499998793006,0.09960339999815915,0.10103719999824534,0.2991543999996793
RSVPLG03,cs,20260225-134325,1.0.2,20251105-084826,775,Experiment,Both,1,Automatic,main,18,20260225-134608,global,global,300,S,H,E,A,S-E.png,H-A.png,sS,hH,mask-2.png,mask-1.png,s,1,1.6744829999988724,s,0,0.05318289999922854,0.04851599999892642,0.047258000002329936,0.1015899999983958,0.09862620000058087,0.3014532999986841
RSVPLG03,cs,20260225-134325,1.0.2,20251105-084826,775,Experiment,Both,1,Automatic,main,19,20260225-134613,local,global,300,S,S,E,E,E-S.png,S-E.png,sS,sS,mask-2.png,mask-4.png,s,1,0.5306833000031475,s,1,0.08676019999984419,0.045426999997289386,0.04860520000147517,0.09939369999847258,0.10062180000022636,0.2989477999981318
RSVPLG03,cs,20260225-134325,1.0.2,20251105-084826,775,Experiment,Both,1,Automatic,main,20,20260225-134618,local,local,300,H,S,E,E,E-H.png,E-S.png,hH,sS,mask-1.png,mask-3.png,h,1,1.025242799998523,s,1,0.054509899997356115,0.0475142000032065,0.0471849999994447,0.10152740000194171,0.09837259999767412,0.3015819000029296
RSVPLG03,cs,20260225-134325,1.0.2,20251105-084826,775,Experiment,Both,1,Automatic,main,21,20260225-134623,global,local,300,S,S,A,E,S-A.png,E-S.png,sS,sS,mask-3.png,mask-4.png,h,0,0.6580327000010584,s,1,0.009969099999580067,0.04756990000169026,0.0475531999982195,0.09855450000031851,0.10059249999903841,0.2997276000023703
RSVPLG03,cs,20260225-134325,1.0.2,20251105-084826,775,Experiment,Both,1,Automatic,main,22,20260225-134627,global,global,750,H,H,A,E,H-A.png,H-E.png,hH,hH,mask-3.png,mask-3.png,h,1,1.082210100001248,h,1,0.07616779999807477,0.04753799999889452,0.04753100000016275,0.0995504999991681,0.1000421999997343,0.7495736000018951
RSVPLG03,cs,20260225-134325,1.0.2,20251105-084826,775,Experiment,Both,1,Automatic,main,23,20260225-134632,local,global,300,S,H,A,A,A-S.png,H-A.png,sS,hH,mask-2.png,mask-3.png,s,1,1.7018399000007776,h,1,0.011281600000074832,0.04834260000279755,0.048497499999939464,0.10131020000335411,0.10044170000037411,0.30004720000215457
RSVPLG03,cs,20260225-134325,1.0.2,20251105-084826,775,Experiment,Both,1,Automatic,main,24,20260225-134638,local,local,750,H,S,E,E,E-H.png,E-S.png,hH,sS,mask-1.png,mask-1.png,h,1,0.4152882000016689,s,1,0.07021350000286475,0.04877880000276491,0.04800750000140397,0.10198210000089603,0.10028479999891715,0.7516036000015447
RSVPLG03,cs,20260225-134325,1.0.2,20251105-084826,775,Experiment,Both,1,Automatic,main,25,20260225-134642,global,global,750,H,S,A,A,H-A.png,S-A.png,hH,sS,mask-1.png,mask-3.png,h,1,0.9585517000014079,s,1,0.03793249999944237,0.046442900002148235,0.04745799999727751,0.0996688000013819,0.10053390000030049,0.7493534000022919
RSVPLG03,cs,20260225-134325,1.0.2,20251105-084826,775,Experiment,Both,1,Automatic,main,26,20260225-134651,local,local,750,H,S,A,E,A-H.png,E-S.png,hH,sS,mask-4.png,mask-2.png,h,1,0.590092000002187,s,1,0.012953199999174103,0.04766549999840208,0.048460699999850476,0.0997094999984256,0.10062839999955031,0.7504487999976845
RSVPLG03,cs,20260225-134325,1.0.2,20251105-084826,775,Experiment,Both,1,Automatic,main,27,20260225-134655,local,global,750,H,H,A,A,A-H.png,H-A.png,hH,hH,mask-4.png,mask-2.png,h,1,0.3946386999996321,s,0,0.007697699998971075,0.04754019999745651,0.04750240000066697,0.0978168999972695,0.09889160000238917,0.7499676999977964
RSVPLG03,cs,20260225-134325,1.0.2,20251105-084826,775,Experiment,Both,1,Automatic,main,28,20260225-134700,local,local,750,H,H,A,E,A-H.png,E-H.png,hH,hH,mask-1.png,mask-2.png,h,1,0.6270600000025297,h,1,0.08951819999856525,0.04760080000050948,0.047778800002561184,0.10066970000116271,0.10201109999979963,0.7506028999996488
RSVPLG03,cs,20260225-134325,1.0.2,20251105-084826,775,Experiment,Both,1,Automatic,main,29,20260225-134705,local,global,750,H,S,A,A,A-H.png,S-A.png,hH,sS,mask-4.png,mask-3.png,h,1,0.48491659999854164,s,1,0.597331299999496,0.04726429999936954,0.047655699996539624,0.09846359999937704,0.1008674999975483,0.7493439000027138
RSVPLG03,cs,20260225-134325,1.0.2,20251105-084826,775,Experiment,Both,1,Automatic,main,30,20260225-134709,global,local,750,S,H,E,A,S-E.png,A-H.png,sS,hH,mask-3.png,mask-2.png,s,1,0.4297127999998338,s,0,0.08585470000252826,0.04872339999928954,0.04874479999853065,0.09992480000073556,0.09995830000116257,0.7506375000011758
RSVPLG03,cs,20260225-134325,1.0.2,20251105-084826,775,Experiment,Both,1,Automatic,main,31,20260225-134714,local,global,750,H,S,A,E,A-H.png,S-E.png,hH,sS,mask-4.png,mask-3.png,h,1,0.5352965000020049,s,1,0.10210860000006505,0.048610899997584056,0.048427300000184914,0.1011359000003722,0.10166209999806597,0.7504458000003069
RSVPLG03,cs,20260225-134325,1.0.2,20251105-084826,775,Experiment,Both,1,Automatic,main,32,20260225-134719,global,local,300,H,S,A,E,H-A.png,E-S.png,hH,sS,mask-4.png,mask-2.png,h,1,0.8332798000010371,s,1,0.02888650000022608,0.0468460000010964,0.046576500000810483,0.09986410000055912,0.09965530000044964,0.3009262999985367
RSVPLG03,cs,20260225-134325,1.0.2,20251105-084826,775,Experiment,Both,1,Automatic,main,33,20260225-134723,local,global,300,S,S,E,E,E-S.png,S-E.png,sS,sS,mask-3.png,mask-1.png,h,0,0.8464223999981186,s,1,0.2784155999979703,0.04751459999897634,0.04752589999770862,0.0998483999974269,0.10085459999754676,0.3000952000002144
RSVPLG03,cs,20260225-134325,1.0.2,20251105-084826,775,Experiment,Both,1,Automatic,main,34,20260225-134728,local,global,750,S,H,E,E,E-S.png,H-E.png,sS,hH,mask-4.png,mask-2.png,h,0,1.554898400001548,h,1,0.26157339999917895,0.04862149999826215,0.04749870000159717,0.10070149999955902,0.09955030000128318,0.7511176999978488
RSVPLG03,cs,20260225-134325,1.0.2,20251105-084826,775,Experiment,Both,1,Automatic,main,35,20260225-134734,global,local,300,H,S,E,A,H-E.png,A-S.png,hH,sS,mask-1.png,mask-1.png,s,0,1.1501491999988502,h,0,0.05463149999923189,0.04770780000035302,0.04779369999960181,0.09917610000047716,0.0992692999971041,0.2995042000002286
RSVPLG03,cs,20260225-134325,1.0.2,20251105-084826,775,Experiment,Both,1,Automatic,main,36,20260225-134739,global,local,300,S,S,A,E,S-A.png,E-S.png,sS,sS,mask-3.png,mask-2.png,h,0,0.4701228000012634,s,1,0.7125525000010384,0.04731089999768301,0.04734970000208705,0.10025319999840576,0.1003777000005357,0.30055349999747705
RSVPLG03,cs,20260225-134325,1.0.2,20251105-084826,775,Experiment,Both,1,Automatic,main,37,20260225-134744,global,global,750,H,S,A,A,H-A.png,S-A.png,hH,sS,mask-3.png,mask-1.png,s,0,0.6467890000021725,s,1,0.092984200000501,0.04682160000083968,0.04887529999905382,0.10011419999864302,0.10123939999903087,0.7488439000007929
RSVPLG03,cs,20260225-134325,1.0.2,20251105-084826,775,Experiment,Both,1,Automatic,main,38,20260225-134749,local,local,750,S,H,E,A,E-S.png,A-H.png,sS,hH,mask-3.png,mask-1.png,s,1,0.14115849999870989,h,1,0.28249940000023344,0.04883300000074087,0.04769200000009732,0.10027110000009998,0.10088499999983469,0.7510564000003797
RSVPLG03,cs,20260225-134325,1.0.2,20251105-084826,775,Experiment,Both,1,Automatic,main,39,20260225-134754,global,local,300,H,H,E,A,H-E.png,A-H.png,hH,hH,mask-3.png,mask-4.png,h,1,2.0436608999989403,s,0,0.038833800001157215,0.04606909999711206,0.04672329999812064,0.10037039999951958,0.09822200000053272,0.300488699998823
RSVPLG03,cs,20260225-134325,1.0.2,20251105-084826,775,Experiment,Both,1,Automatic,main,40,20260225-134800,local,local,750,S,S,E,E,E-S.png,E-S.png,sS,sS,mask-3.png,mask-1.png,s,1,0.4873943999991752,h,0,0.6166924000026484,0.04749239999728161,0.04703480000171112,0.0994420999995782,0.09963150000112364,0.7499562999983027
RSVPLG03,cs,20260225-134325,1.0.2,20251105-084826,775,Experiment,Both,1,Automatic,main,41,20260225-134805,local,local,300,S,S,E,A,E-S.png,A-S.png,sS,sS,mask-4.png,mask-4.png,s,1,0.5409996999987925,s,1,0.11615840000013122,0.04685370000152034,0.048608699999022065,0.10009590000117896,0.10079019999830052,0.2989091000017652
RSVPLG03,cs,20260225-134325,1.0.2,20251105-084826,775,Experiment,Both,1,Automatic,main,42,20260225-134809,global,global,300,H,H,E,E,H-E.png,H-E.png,hH,hH,mask-1.png,mask-4.png,s,0,1.7950243999985105,h,1,0.4014427000001888,0.04498920000332873,0.04639899999892805,0.09863440000117407,0.10052509999877657,0.2995011000020895
RSVPLG03,cs,20260225-134325,1.0.2,20251105-084826,775,Experiment,Both,1,Automatic,main,43,20260225-134815,local,global,300,S,H,A,E,A-S.png,H-E.png,sS,hH,mask-2.png,mask-1.png,h,0,1.3541447000025073,s,0,1.1618604000032065,0.04774100000213366,0.04882960000031744,0.10094160000153352,0.10204680000242661,0.2991357999999309
RSVPLG03,cs,20260225-134325,1.0.2,20251105-084826,775,Experiment,Both,1,Automatic,main,44,20260225-134820,global,global,750,H,H,E,E,H-E.png,H-E.png,hH,hH,mask-2.png,mask-2.png,h,1,0.9467686000025424,h,1,0.061356900001555914,0.047703500000352506,0.04771990000153892,0.0999258000010741,0.10087209999983315,0.7497054000014032
RSVPLG03,cs,20260225-134325,1.0.2,20251105-084826,775,Experiment,Both,1,Automatic,main,45,20260225-134825,local,global,750,S,H,A,E,A-S.png,H-E.png,sS,hH,mask-3.png,mask-4.png,s,1,0.7974205999998958,s,0,0.05452119999972638,0.04769820000001346,0.04880269999921438,0.10013830000025337,0.10104130000036093,0.7505502000021806
RSVPLG03,cs,20260225-134325,1.0.2,20251105-084826,775,Experiment,Both,1,Automatic,main,46,20260225-134830,local,global,300,H,H,A,A,A-H.png,H-A.png,hH,hH,mask-1.png,mask-2.png,h,1,0.7073658000008436,s,0,0.30076570000164793,0.0464484000003722,0.047685100002127,0.09953390000009676,0.10050090000004275,0.29913719999967725
RSVPLG03,cs,20260225-134325,1.0.2,20251105-084826,775,Experiment,Both,1,Automatic,main,47,20260225-134835,local,local,750,S,H,E,A,E-S.png,A-H.png,sS,hH,mask-3.png,mask-4.png,s,1,0.8364255999986199,h,1,1.0609704999988026,0.047539099999994505,0.04779259999850183,0.0987440000026254,0.09986279999793624,0.7499138000021048
RSVPLG03,cs,20260225-134325,1.0.2,20251105-084826,775,Experiment,Both,1,Automatic,main,48,20260225-134840,global,global,300,H,H,A,A,H-A.png,H-A.png,hH,hH,mask-4.png,mask-4.png,h,1,1.968840999998065,s,0,0.14931459999934305,0.047526900001685135,0.04753079999863985,0.1005384000018239,0.09953329999916605,0.30084460000216495
RSVPLG03,cs,20260225-134325,1.0.2,20251105-084826,775,Experiment,Both,1,Automatic,main,49,20260225-134846,local,local,750,H,H,A,E,A-H.png,E-H.png,hH,hH,mask-2.png,mask-4.png,h,1,1.001059099999111,s,0,0.04795340000055148,0.046829999999317806,0.0457449000023189,0.09908460000224295,0.09892029999900842,0.7507377000001725
RSVPLG03,cs,20260225-134325,1.0.2,20251105-084826,775,Experiment,Both,1,Automatic,main,50,20260225-134851,local,local,300,S,S,A,E,A-S.png,E-S.png,sS,sS,mask-4.png,mask-2.png,s,1,0.8060637999988103,h,0,0.5448644000025524,0.046684900000400376,0.047659700001531746,0.09884429999874556,0.09984669999903417,0.29944439999962924
RSVPLG03,cs,20260225-134325,1.0.2,20251105-084826,775,Experiment,Both,1,Automatic,main,51,20260225-134858,global,global,300,H,H,E,A,H-E.png,H-A.png,hH,hH,mask-1.png,mask-4.png,h,1,0.8512416999983543,s,0,1.4681818999997631,0.04781809999985853,0.046622000001661945,0.09920670000065002,0.09954519999882905,0.3004731000000902
RSVPLG03,cs,20260225-134325,1.0.2,20251105-084826,775,Experiment,Both,1,Automatic,main,52,20260225-134904,local,local,300,S,S,E,E,E-S.png,E-S.png,sS,sS,mask-4.png,mask-1.png,s,1,0.6125089999986812,s,1,0.09301680000135093,0.04715109999960987,0.04683060000024852,0.09962010000162991,0.10007409999889205,0.30028049999964423
RSVPLG03,cs,20260225-134325,1.0.2,20251105-084826,775,Experiment,Both,1,Automatic,main,53,20260225-134908,local,global,300,S,H,A,A,A-S.png,H-A.png,sS,hH,mask-2.png,mask-4.png,s,1,0.03165669999725651,s,0,0.18091270000149962,0.04668430000310764,0.04698389999975916,0.09984410000106436,0.0998055000018212,0.299471900001663
RSVPLG03,cs,20260225-134325,1.0.2,20251105-084826,775,Experiment,Both,1,Automatic,main,54,20260225-134912,local,global,300,H,H,E,E,E-H.png,H-E.png,hH,hH,mask-3.png,mask-1.png,h,1,0.878167000002577,h,1,0.11484700000073644,0.04668919999676291,0.04751170000236016,0.09957149999900139,0.09814629999891622,0.30107049999787705
RSVPLG03,cs,20260225-134325,1.0.2,20251105-084826,775,Experiment,Both,1,Automatic,main,55,20260225-134917,local,local,750,H,S,A,E,A-H.png,E-S.png,hH,sS,mask-1.png,mask-1.png,h,1,0.7553895999990345,h,0,0.17301850000148988,0.04726749999827007,0.04748909999761963,0.1001425999966159,0.09942210000008345,0.7510443999999552
RSVPLG03,cs,20260225-134325,1.0.2,20251105-084826,775,Experiment,Both,1,Automatic,main,56,20260225-134922,global,global,750,S,H,A,A,S-A.png,H-A.png,sS,hH,mask-2.png,mask-3.png,h,0,2.563173200000165,s,0,0.1232081999987713,0.048857800000405405,0.04800980000072741,0.10096559999874444,0.1001070999991498,0.7513402000004135
RSVPLG03,cs,20260225-134325,1.0.2,20251105-084826,775,Experiment,Both,1,Automatic,main,57,20260225-134929,global,global,750,H,S,E,A,H-E.png,S-A.png,hH,sS,mask-3.png,mask-1.png,h,1,0.7726599999987229,h,0,0.5494951000000583,0.047011499998916406,0.047021899998071603,0.09824129999833531,0.10005219999948167,0.7499640999994881
RSVPLG03,cs,20260225-134325,1.0.2,20251105-084826,775,Experiment,Both,1,Automatic,main,58,20260225-134934,global,global,750,S,S,E,A,S-E.png,S-A.png,sS,sS,mask-3.png,mask-3.png,h,0,2.6590694000005897,s,1,1.291992400001618,0.04736630000115838,0.04747700000007171,0.1001938000008522,0.1003603999997722,0.7508371000003535
RSVPLG03,cs,20260225-134325,1.0.2,20251105-084826,775,Experiment,Both,1,Automatic,main,59,20260225-134942,global,local,750,H,H,A,E,H-A.png,E-H.png,hH,hH,mask-1.png,mask-4.png,h,1,1.0342974999985017,s,0,0.0401516999991145,0.04712609999842243,0.0486973000006401,0.09987039999759872,0.099879500001407,0.7504893999976048
RSVPLG03,cs,20260225-134325,1.0.2,20251105-084826,775,Experiment,Both,1,Automatic,main,60,20260225-134948,local,local,300,H,S,A,A,A-H.png,A-S.png,hH,sS,mask-1.png,mask-3.png,h,1,0.46247389999916777,s,1,0.01185329999862006,0.047824900000705384,0.047047799998836126,0.10105440000188537,0.09880189999967115,0.3018840000004275
RSVPLG03,cs,20260225-134325,1.0.2,20251105-084826,775,Experiment,Both,1,Automatic,main,61,20260225-134952,global,local,750,S,S,E,E,S-E.png,E-S.png,sS,sS,mask-3.png,mask-4.png,s,1,0.5403005999978632,s,1,0.06962820000262582,0.047517200000584126,0.04782089999935124,0.09951809999984107,0.09945589999915683,0.7498116999995545
RSVPLG03,cs,20260225-134325,1.0.2,20251105-084826,775,Experiment,Both,1,Automatic,main,62,20260225-134956,local,global,750,S,H,E,E,E-S.png,H-E.png,sS,hH,mask-2.png,mask-1.png,s,1,0.7495703999993566,h,1,0.9418098999994982,0.04757690000042203,0.047638600000937004,0.09861159999854863,0.09968650000155321,0.7503780999977607
RSVPLG03,cs,20260225-134325,1.0.2,20251105-084826,775,Experiment,Both,1,Automatic,main,63,20260225-135001,global,global,750,S,S,A,A,S-A.png,S-A.png,sS,sS,mask-3.png,mask-3.png,s,1,1.0259730999969179,s,1,0.026543500000116182,0.04718199999842909,0.04747660000066389,0.09945019999940996,0.10055300000021816,0.7504644999971788
RSVPLG03,cs,20260225-134325,1.0.2,20251105-084826,775,Experiment,Both,1,Automatic,main,64,20260225-135007,global,global,300,S,S,E,E,S-E.png,S-E.png,sS,sS,mask-1.png,mask-2.png,h,0,0.947529900000518,h,0,0.08477179999681539,0.047575399999914225,0.04859980000037467,0.09965889999875799,0.1006416000018362,0.2991686999994272
RSVPLG03,cs,20260225-134325,1.0.2,20251105-084826,775,Experiment,Both,1,Automatic,main,65,20260225-135011,global,local,300,S,S,A,E,S-A.png,E-S.png,sS,sS,mask-2.png,mask-3.png,h,0,1.1185060999996495,h,0,0.07580460000099265,0.047994299999118084,0.046917600000597304,0.1011545000001206,0.09824590000062017,0.3013539999992645
RSVPLG03,cs,20260225-134325,1.0.2,20251105-084826,775,Experiment,Both,1,Automatic,main,66,20260225-135016,global,local,750,S,H,E,E,S-E.png,E-H.png,sS,hH,mask-1.png,mask-4.png,h,0,1.70446290000109,s,0,1.0646860000015295,0.04696879999755765,0.04791850000037812,0.10023489999730373,0.10011410000151955,0.7504625999972632
RSVPLG03,cs,20260225-134325,1.0.2,20251105-084826,775,Experiment,Both,1,Automatic,main,67,20260225-135023,local,global,300,S,H,A,E,A-S.png,H-E.png,sS,hH,mask-4.png,mask-2.png,h,0,1.4683688000004622,s,0,1.0683782999985851,0.047040900000865804,0.047662999997555744,0.09983160000047064,0.09984289999920293,0.2998665000013716
RSVPLG03,cs,20260225-134325,1.0.2,20251105-084826,775,Experiment,Both,1,Automatic,main,68,20260225-135028,local,global,300,H,H,A,A,A-H.png,H-A.png,hH,hH,mask-2.png,mask-1.png,h,1,0.6749259000025631,h,1,0.08746909999899799,0.046418800000537885,0.0472206999984337,0.09843679999903543,0.1002210999977251,0.3002434000009089
RSVPLG03,cs,20260225-134325,1.0.2,20251105-084826,775,Experiment,Both,1,Automatic,main,69,20260225-135032,global,global,750,H,H,E,A,H-E.png,H-A.png,hH,hH,mask-4.png,mask-4.png,s,0,0.9731609000009485,s,0,0.08730970000033267,0.04753100000016275,0.047560700000758516,0.0995470000016212,0.09919910000098753,0.7502616999991005
RSVPLG03,cs,20260225-134325,1.0.2,20251105-084826,775,Experiment,Both,1,Automatic,main,70,20260225-135038,local,global,750,S,S,A,E,A-S.png,S-E.png,sS,sS,mask-1.png,mask-4.png,s,1,1.169698800000333,s,1,0.10793800000101328,0.04671800000141957,0.04735829999845009,0.09975019999910728,0.10038089999943622,0.7493390000017826
RSVPLG03,cs,20260225-134325,1.0.2,20251105-084826,775,Experiment,Both,1,Automatic,main,71,20260225-135043,local,local,750,H,S,E,A,E-H.png,A-S.png,hH,sS,mask-1.png,mask-3.png,h,1,0.3482368000004499,s,1,0.07240289999754168,0.047520199997961754,0.048678799998015165,0.10059529999853112,0.1008652999989863,0.7495194000002812
RSVPLG03,cs,20260225-134325,1.0.2,20251105-084826,775,Experiment,Both,1,Automatic,main,72,20260225-135048,global,global,750,S,S,A,E,S-A.png,S-E.png,sS,sS,mask-1.png,mask-4.png,s,1,0.6888489000011759,s,1,0.08690059999935329,0.04671529999905033,0.04667650000192225,0.10007069999846863,0.1007184000009147,0.749188799996773
RSVPLG03,cs,20260225-134325,1.0.2,20251105-084826,775,Experiment,Both,1,Automatic,main,73,20260225-135052,global,local,750,S,S,E,A,S-E.png,A-S.png,sS,sS,mask-2.png,mask-3.png,s,1,0.5501366999997117,s,1,0.10359019999668817,0.0469448999974702,0.04705159999866737,0.10130679999929271,0.10010219999821857,0.7503584000005503
RSVPLG03,cs,20260225-134325,1.0.2,20251105-084826,775,Experiment,Both,1,Automatic,main,74,20260225-135057,local,global,750,H,H,A,A,A-H.png,H-A.png,hH,hH,mask-1.png,mask-3.png,h,1,0.5759366999991471,s,0,0.10291749999669264,0.047244199999113334,0.047788200001377845,0.10030420000111917,0.10061599999971804,0.7496452999985195
RSVPLG03,cs,20260225-134325,1.0.2,20251105-084826,775,Experiment,Both,1,Automatic,main,75,20260225-135102,local,global,300,H,S,A,E,A-H.png,S-E.png,hH,sS,mask-2.png,mask-3.png,h,1,1.8323047000012593,s,1,0.1368289999991248,0.046679900002345676,0.04772679999950924,0.09989900000073249,0.09916669999802252,0.2996802000016032
RSVPLG03,cs,20260225-134325,1.0.2,20251105-084826,775,Experiment,Both,1,Automatic,main,76,20260225-135112,global,local,750,H,H,A,E,H-A.png,E-H.png,hH,hH,mask-3.png,mask-2.png,s,0,0.7132775999998557,h,1,0.05111249999754364,0.046716200002265396,0.048567000001639826,0.09832929999902262,0.09931520000100136,0.7496952000001329
RSVPLG03,cs,20260225-134325,1.0.2,20251105-084826,775,Experiment,Both,1,Automatic,main,77,20260225-135117,local,local,300,S,H,A,E,A-S.png,E-H.png,sS,hH,mask-1.png,mask-4.png,s,1,0.9550444999986212,s,0,0.1197719000010693,0.048550700001214864,0.04882739999811747,0.10160259999975096,0.1013143999989552,0.3002809999998135
RSVPLG03,cs,20260225-134325,1.0.2,20251105-084826,775,Experiment,Both,1,Automatic,main,78,20260225-135122,global,local,300,H,S,A,E,H-A.png,E-S.png,hH,sS,mask-4.png,mask-2.png,h,1,0.8621372000015981,s,1,0.013275400000566151,0.04649550000249292,0.048567599998932565,0.09842200000275625,0.10061799999675713,0.29974780000338797
RSVPLG03,cs,20260225-134325,1.0.2,20251105-084826,775,Experiment,Both,1,Automatic,main,79,20260225-135127,global,local,300,H,S,E,A,H-E.png,A-S.png,hH,sS,mask-4.png,mask-1.png,s,0,0.5588065000010829,h,0,0.35959709999951883,0.046517900002072565,0.04759650000050897,0.09990639999887208,0.09961499999917578,0.29951440000149887
RSVPLG03,cs,20260225-134325,1.0.2,20251105-084826,775,Experiment,Both,1,Automatic,main,80,20260225-135131,local,local,300,S,H,A,A,A-S.png,A-H.png,sS,hH,mask-2.png,mask-1.png,s,1,0.4955712000009953,h,1,0.2122910999969463,0.04581939999843598,0.04786049999893294,0.09985409999717376,0.10019199999806006,0.2989780999996583
RSVPLG03,cs,20260225-134325,1.0.2,20251105-084826,775,Experiment,Both,1,Automatic,main,81,20260225-135135,global,global,300,H,H,A,A,H-A.png,H-A.png,hH,hH,mask-3.png,mask-3.png,h,1,1.3247176999975636,s,0,0.03471770000032848,0.04572840000037104,0.047628600001189625,0.09987130000081379,0.10072390000277665,0.2995620000001509
RSVPLG03,cs,20260225-134325,1.0.2,20251105-084826,775,Experiment,Both,1,Automatic,main,82,20260225-135140,global,local,750,H,S,E,A,H-E.png,A-S.png,hH,sS,mask-3.png,mask-2.png,s,0,0.0799535999976797,s,1,0.12071070000092732,0.04749929999888991,0.0465823000013188,0.09983199999987846,0.09950559999924735,0.7506538999987242
RSVPLG03,cs,20260225-134325,1.0.2,20251105-084826,775,Experiment,Both,1,Automatic,main,83,20260225-135145,local,global,750,H,S,E,A,E-H.png,S-A.png,hH,sS,mask-3.png,mask-1.png,h,1,0.8985534999992524,s,1,0.12363779999941471,0.04748929999914253,0.048005799999373266,0.10061200000200188,0.10213409999778378,0.7504508000019996
RSVPLG03,cs,20260225-134325,1.0.2,20251105-084826,775,Experiment,Both,1,Automatic,main,84,20260225-135150,global,global,750,H,S,A,A,H-A.png,S-A.png,hH,sS,mask-1.png,mask-3.png,h,1,1.115997900000366,s,1,0.29981229999975767,0.04754030000185594,0.047536599999148166,0.09957959999883315,0.10035979999884148,0.7497317000015755
RSVPLG03,cs,20260225-134325,1.0.2,20251105-084826,775,Experiment,Both,1,Automatic,main,85,20260225-135155,global,local,750,S,S,E,A,S-E.png,A-S.png,sS,sS,mask-1.png,mask-3.png,h,0,1.0206897000025492,s,1,0.060611799999605864,0.04862649999995483,0.047509899999568006,0.10163059999831603,0.10052700000233017,0.7510135999982595
RSVPLG03,cs,20260225-134325,1.0.2,20251105-084826,775,Experiment,Both,1,Automatic,main,86,20260225-135201,global,global,300,H,S,A,A,H-A.png,S-A.png,hH,sS,mask-2.png,mask-2.png,h,1,1.1302722999971593,h,0,0.2012520999996923,0.04780580000078771,0.0466387999986182,0.10003450000294833,0.09911959999953979,0.3004917000034766
RSVPLG03,cs,20260225-134325,1.0.2,20251105-084826,775,Experiment,Both,1,Automatic,main,87,20260225-135206,local,global,300,H,S,A,A,A-H.png,S-A.png,hH,sS,mask-4.png,mask-3.png,h,1,1.121538799998234,s,1,0.10508539999864297,0.04754759999923408,0.047413600001164014,0.09861979999914183,0.10032739999951445,0.29972540000017034
RSVPLG03,cs,20260225-134325,1.0.2,20251105-084826,775,Experiment,Both,1,Automatic,main,88,20260225-135210,global,global,300,S,S,A,A,S-A.png,S-A.png,sS,sS,mask-1.png,mask-4.png,h,0,0.7376293000015721,h,0,0.03831189999982598,0.04683649999788031,0.04760569999780273,0.10002479999820935,0.10147019999931217,0.30027680000057444
RSVPLG03,cs,20260225-134325,1.0.2,20251105-084826,775,Experiment,Both,1,Automatic,main,89,20260225-135215,global,local,750,H,H,A,E,H-A.png,E-H.png,hH,hH,mask-4.png,mask-2.png,s,0,2.1094593000016175,h,1,0.12102480000248761,0.04872579999937443,0.04804320000039297,0.10163889999967068,0.10037860000011278,0.7508116999997583
RSVPLG03,cs,20260225-134325,1.0.2,20251105-084826,775,Experiment,Both,1,Automatic,main,90,20260225-135221,local,local,300,H,H,A,A,A-H.png,A-H.png,hH,hH,mask-4.png,mask-3.png,h,1,0.422531500000332,s,0,0.044016600000759354,0.047512599998299265,0.048514099999010796,0.10087149999890244,0.10152849999940372,0.30051019999882556
RSVPLG03,cs,20260225-134325,1.0.2,20251105-084826,775,Experiment,Both,1,Automatic,main,91,20260225-135225,global,global,300,H,S,E,E,H-E.png,S-E.png,hH,sS,mask-2.png,mask-4.png,s,0,2.6568448999969405,s,1,0.15693580000151997,0.04769289999967441,0.04768549999789684,0.09829180000087945,0.09921829999802867,0.3000339999998687
RSVPLG03,cs,20260225-134325,1.0.2,20251105-084826,775,Experiment,Both,1,Automatic,main,92,20260225-135232,global,global,300,S,H,E,A,S-E.png,H-A.png,sS,hH,mask-3.png,mask-4.png,s,1,0.6009468000011111,s,0,0.1725798000006762,0.047686400001111906,0.04677359999914188,0.09990770000149496,0.0999666999996407,0.30054179999933694
RSVPLG03,cs,20260225-134325,1.0.2,20251105-084826,775,Experiment,Both,1,Automatic,main,93,20260225-135237,local,global,300,H,H,A,E,A-H.png,H-E.png,hH,hH,mask-1.png,mask-4.png,h,1,1.8432968000015535,s,0,1.9228404999994382,0.04722839999885764,0.04723089999970398,0.10085310000067693,0.10011639999720501,0.29979610000009416
RSVPLG03,cs,20260225-134325,1.0.2,20251105-084826,775,Experiment,Both,1,Automatic,main,94,20260225-135243,global,global,300,S,S,E,A,S-E.png,S-A.png,sS,sS,mask-1.png,mask-2.png,s,1,1.5120745000021998,s,1,0.1359124000009615,0.04814729999998235,0.047461800000746734,0.10032520000095246,0.10003940000024159,0.30005170000004
RSVPLG03,cs,20260225-134325,1.0.2,20251105-084826,775,Experiment,Both,1,Automatic,main,95,20260225-135248,local,local,300,S,S,A,A,A-S.png,A-S.png,sS,sS,mask-2.png,mask-2.png,s,1,0.7660654999999679,s,1,0.04402909999771509,0.047297599998273654,0.04757840000092983,0.09932759999719565,0.10152929999821936,0.2998413999994227
RSVPLG03,cs,20260225-134325,1.0.2,20251105-084826,775,Experiment,Both,1,Automatic,main,96,20260225-135253,global,global,750,H,H,A,E,H-A.png,H-E.png,hH,hH,mask-2.png,mask-1.png,h,1,0.8992242000022088,h,1,0.3318811999997706,0.04758699999729288,0.04753389999677893,0.09969229999842355,0.09862649999922724,0.7517984000005526
RSVPLG03,cs,20260225-134325,1.0.2,20251105-084826,775,Experiment,Both,1,Automatic,main,97,20260225-135258,global,local,300,H,S,A,E,H-A.png,E-S.png,hH,sS,mask-4.png,mask-2.png,h,1,0.5967633000000205,s,1,0.09013410000261501,0.048555400000623195,0.04872600000089733,0.09957060000306228,0.10186710000198218,0.2996588999994856
RSVPLG03,cs,20260225-134325,1.0.2,20251105-084826,775,Experiment,Both,1,Automatic,main,98,20260225-135302,global,local,750,H,H,A,E,H-A.png,E-H.png,hH,hH,mask-3.png,mask-2.png,s,0,1.0107599000002665,h,1,0.13329779999912716,0.047698800000944175,0.047716000000946224,0.10139710000294144,0.09990560000005644,0.751063300001988
RSVPLG03,cs,20260225-134325,1.0.2,20251105-084826,775,Experiment,Both,1,Automatic,main,99,20260225-135308,local,local,750,S,H,E,A,E-S.png,A-H.png,sS,hH,mask-4.png,mask-2.png,s,1,0.44314029999804916,h,1,0.13268410000091535,0.04768630000035046,0.046624399998108856,0.09993860000031418,0.1002526999982365,0.7506452999987232
RSVPLG03,cs,20260225-134325,1.0.2,20251105-084826,775,Experiment,Both,1,Automatic,main,100,20260225-135313,global,local,300,H,S,A,E,H-A.png,E-S.png,hH,sS,mask-4.png,mask-1.png,h,1,0.6274498000020685,s,1,0.08156790000066394,0.049696900001436006,0.04678159999821219,0.10003399999914109,0.10011200000008103,0.30129930000111926
RSVPLG03,cs,20260225-135429,1.0.2,20251105-084826,775,Experiment,Both,1,Automatic,warmup,1,20260225-135453,global,global,300,H,S,E,E,H-E.png,S-E.png,hH,sS,mask-3.png,mask-2.png,h,1,0.5062509999988833,s,1,0.5542979999991076,0.040440299999318086,0.04687259999991511,0.093679699999484,0.10000650000074529,0.2933101999988139
RSVPLG03,cs,20260225-135429,1.0.2,20251105-084826,775,Experiment,Both,1,Automatic,warmup,2,20260225-135457,local,local,750,H,S,A,E,A-H.png,E-S.png,hH,sS,mask-4.png,mask-2.png,h,1,0.4355838000010408,s,1,0.6979871000003186,0.0463716000012937,0.04771509999773116,0.09866320000219275,0.09989560000030906,0.7512615000014193
RSVPLG03,cs,20260225-135429,1.0.2,20251105-084826,775,Experiment,Both,1,Automatic,warmup,3,20260225-135502,global,local,300,H,H,E,A,H-E.png,A-H.png,hH,hH,mask-1.png,mask-4.png,h,1,0.9842560999968555,s,0,0.05753030000050785,0.04766560000280151,0.0479654999980994,0.09989390000191634,0.09991789999912726,0.2994219000029261
RSVPLG03,cs,20260225-135429,1.0.2,20251105-084826,775,Experiment,Both,1,Automatic,warmup,4,20260225-135507,local,global,300,H,S,A,E,A-H.png,S-E.png,hH,sS,mask-4.png,mask-3.png,h,1,2.1739911000004213,h,0,0.23658780000187107,0.04698900000221329,0.046902599999157246,0.1000860999993165,0.10019020000254386,0.300686599999608
RSVPLG03,cs,20260225-135429,1.0.2,20251105-084826,775,Experiment,Both,1,Automatic,main,5,20260225-135513,global,global,300,H,S,A,A,H-A.png,S-A.png,hH,sS,mask-4.png,mask-1.png,s,0,1.8688148000001092,s,1,0.1207938000006834,0.046143100000335835,0.04871079999793437,0.1004272000027413,0.1010625999988406,0.30005260000325507
RSVPLG03,cs,20260225-135429,1.0.2,20251105-084826,775,Experiment,Both,1,Automatic,main,6,20260225-135519,local,local,300,H,H,A,E,A-H.png,E-H.png,hH,hH,mask-1.png,mask-3.png,h,1,1.25030059999699,h,1,0.0442378000007011,0.048654199999873526,0.0475600999998278,0.10090760000093724,0.10007639999821549,0.2996999000024516
RSVPLG03,cs,20260225-135429,1.0.2,20251105-084826,775,Experiment,Both,1,Automatic,main,7,20260225-135524,local,global,750,H,H,A,A,A-H.png,H-A.png,hH,hH,mask-1.png,mask-2.png,h,1,0.7633029999997234,h,1,0.09295149999888963,0.04751699999906123,0.0465405999966606,0.09973919999902137,0.10018899999704445,0.751837700001488
RSVPLG03,cs,20260225-135429,1.0.2,20251105-084826,775,Experiment,Both,1,Automatic,main,8,20260225-135529,global,local,750,H,S,A,E,H-A.png,E-S.png,hH,sS,mask-1.png,mask-4.png,h,1,0.8304967000003671,s,1,0.03757860000041546,0.04754729999694973,0.046619999997346895,0.10004239999761921,0.09961699999985285,0.7512083000001439
RSVPLG03,cs,20260225-135429,1.0.2,20251105-084826,775,Experiment,Both,1,Automatic,main,9,20260225-135534,local,local,300,S,H,A,A,A-S.png,A-H.png,sS,hH,mask-1.png,mask-2.png,s,1,1.3396644999993441,s,0,0.060483400000521215,0.04653800000232877,0.0469567999971332,0.0995535000001837,0.0990332999972452,0.30060900000171387
RSVPLG03,cs,20260225-135429,1.0.2,20251105-084826,775,Experiment,Both,1,Automatic,main,10,20260225-135539,global,local,300,H,S,A,A,H-A.png,A-S.png,hH,sS,mask-3.png,mask-1.png,s,0,1.130847199998243,s,1,0.04356199999892851,0.048117500002263114,0.04753320000236272,0.10015310000017053,0.09953680000035092,0.3004423999991559
RSVPLG03,cs,20260225-135429,1.0.2,20251105-084826,775,Experiment,Both,1,Automatic,main,11,20260225-135543,global,local,300,S,H,E,E,S-E.png,E-H.png,sS,hH,mask-2.png,mask-3.png,s,1,0.989458599997306,h,1,0.028894499999296386,0.04751799999939976,0.0475412999985565,0.09950860000026296,0.09863629999745172,0.2997772000016994
RSVPLG03,cs,20260225-135429,1.0.2,20251105-084826,775,Experiment,Both,1,Automatic,main,12,20260225-135548,local,local,300,H,S,A,E,A-H.png,E-S.png,hH,sS,mask-4.png,mask-2.png,h,1,0.46423329999743146,s,1,0.14937509999799659,0.04753540000092471,0.04541650000101072,0.09954810000272118,0.0994898999997531,0.2998436000016227
RSVPLG03,cs,20260225-135429,1.0.2,20251105-084826,775,Experiment,Both,1,Automatic,main,13,20260225-135553,local,local,300,H,S,A,A,A-H.png,A-S.png,hH,sS,mask-3.png,mask-1.png,h,1,0.6671629000011308,s,1,0.04549070000211941,0.046716600001673214,0.046711500002857065,0.09999710000192863,0.09983790000114823,0.3001595999994606
RSVPLG03,cs,20260225-135429,1.0.2,20251105-084826,775,Experiment,Both,1,Automatic,main,14,20260225-135557,local,global,750,S,S,A,A,A-S.png,S-A.png,sS,sS,mask-4.png,mask-1.png,s,1,0.5089208999997936,s,1,0.1498963999983971,0.047277500001655426,0.04712190000282135,0.10031400000298163,0.09915010000258917,0.7500860000000102
RSVPLG03,cs,20260225-135429,1.0.2,20251105-084826,775,Experiment,Both,1,Automatic,main,15,20260225-135602,local,global,300,S,H,A,A,A-S.png,H-A.png,sS,hH,mask-2.png,mask-4.png,s,1,0.7548189000008279,s,0,0.06243410000024596,0.04770439999992959,0.04595770000014454,0.09990300000208663,0.09890989999985322,0.3005071000006865
RSVPLG03,cs,20260225-135429,1.0.2,20251105-084826,775,Experiment,Both,1,Automatic,main,16,20260225-135606,local,global,750,H,S,E,A,E-H.png,S-A.png,hH,sS,mask-4.png,mask-4.png,h,1,0.5716739999988931,s,1,0.6519291999975394,0.04599129999769502,0.048662199998943834,0.09957149999900139,0.09986310000022058,0.7500830999997561
RSVPLG03,cs,20260225-135429,1.0.2,20251105-084826,775,Experiment,Both,1,Automatic,main,17,20260225-135612,global,global,300,S,H,E,E,S-E.png,H-E.png,sS,hH,mask-1.png,mask-2.png,s,1,2.4423014000021794,s,0,0.2513154000007489,0.047660299998824485,0.04703489999883459,0.09985219999725814,0.10065739999845391,0.30023369999980787
RSVPLG03,cs,20260225-135429,1.0.2,20251105-084826,775,Experiment,Both,1,Automatic,main,18,20260225-135618,global,local,750,S,H,A,E,S-A.png,E-H.png,sS,hH,mask-3.png,mask-2.png,h,0,0.739567700002226,s,0,0.012489199998526601,0.04655869999987772,0.04903000000194879,0.09871669999847654,0.10007170000244514,0.7504713999987871
RSVPLG03,cs,20260225-135429,1.0.2,20251105-084826,775,Experiment,Both,1,Automatic,main,19,20260225-135623,local,global,750,S,S,E,E,E-S.png,S-E.png,sS,sS,mask-3.png,mask-1.png,s,1,0.47946219999721507,h,0,0.6397237999990466,0.04790490000232239,0.04743869999947492,0.09927910000260454,0.10053490000063903,0.7497770000009041
RSVPLG03,cs,20260225-135429,1.0.2,20251105-084826,775,Experiment,Both,1,Automatic,main,20,20260225-135628,global,local,300,S,S,A,A,S-A.png,A-S.png,sS,sS,mask-4.png,mask-4.png,s,1,0.8936103000014555,s,1,0.1755790999995952,0.04773439999917173,0.04683569999906467,0.10177660000044852,0.09886629999891738,0.3023661000006541
RSVPLG03,cs,20260225-135429,1.0.2,20251105-084826,775,Experiment,Both,1,Automatic,main,21,20260225-135632,local,local,300,S,H,E,A,E-S.png,A-H.png,sS,hH,mask-1.png,mask-4.png,s,1,0.28265660000033677,s,0,0.1080986999986635,0.04769079999823589,0.0475155000021914,0.09915819999878295,0.09877290000076755,0.30051089999687974
RSVPLG03,cs,20260225-135429,1.0.2,20251105-084826,775,Experiment,Both,1,Automatic,main,22,20260225-135636,global,global,750,S,S,E,A,S-E.png,S-A.png,sS,sS,mask-4.png,mask-1.png,s,1,0.6238254999989294,h,0,0.7679376999985834,0.04703660000086529,0.04741269999794895,0.09914980000030482,0.10023899999941932,0.7511291000009805
RSVPLG03,cs,20260225-135429,1.0.2,20251105-084826,775,Experiment,Both,1,Automatic,main,23,20260225-135641,local,global,750,S,H,A,E,A-S.png,H-E.png,sS,hH,mask-1.png,mask-3.png,multiple,-2,0.8756314000020211,h,1,0.7079503000022669,0.04694459999882383,0.04843550000077812,0.09999310000057449,0.10013009999966016,0.750938799999858
RSVPLG03,cs,20260225-135429,1.0.2,20251105-084826,775,Experiment,Both,1,Automatic,main,24,20260225-135647,global,local,300,S,S,A,E,S-A.png,E-S.png,sS,sS,mask-1.png,mask-4.png,h,0,2.7865406999990228,s,1,0.09237639999992098,0.047751699999935227,0.046987499998067506,0.10108849999960512,0.10039719999986119,0.30075270000088494
RSVPLG03,cs,20260225-135429,1.0.2,20251105-084826,775,Experiment,Both,1,Automatic,main,25,20260225-135654,global,local,750,S,S,A,A,S-A.png,A-S.png,sS,sS,mask-4.png,mask-3.png,s,1,1.2974400999992213,s,1,0.5243313000028138,0.04753720000007888,0.04763970000203699,0.10055240000292542,0.0996941000012157,0.7518376000007265
RSVPLG03,cs,20260225-135429,1.0.2,20251105-084826,775,Experiment,Both,1,Automatic,main,26,20260225-135702,global,global,750,S,H,A,A,S-A.png,H-A.png,sS,hH,mask-4.png,mask-4.png,s,1,0.6039414000006218,s,0,0.05487949999951525,0.047751600002811756,0.047957899998436915,0.09845810000115307,0.10004599999956554,0.7498607000015909
RSVPLG03,cs,20260225-135429,1.0.2,20251105-084826,775,Experiment,Both,1,Automatic,main,27,20260225-135706,global,local,750,H,S,A,E,H-A.png,E-S.png,hH,sS,mask-1.png,mask-2.png,h,1,0.6292762999983097,s,1,0.008975500000815373,0.04668350000065402,0.04876019999937853,0.09990010000183247,0.09995340000023134,0.7495252000007895
RSVPLG03,cs,20260225-135429,1.0.2,20251105-084826,775,Experiment,Both,1,Automatic,main,28,20260225-135711,global,global,750,H,H,A,E,H-A.png,H-E.png,hH,hH,mask-2.png,mask-2.png,h,1,1.3861976999978651,s,0,0.011651199998595985,0.04729280000174185,0.04724690000148257,0.09852010000031441,0.10027009999976144,0.7500782999995863
RSVPLG03,cs,20260225-135429,1.0.2,20251105-084826,775,Experiment,Both,1,Automatic,main,29,20260225-135717,local,local,750,S,S,A,E,A-S.png,E-S.png,sS,sS,mask-4.png,mask-3.png,s,1,0.38271370000074967,s,1,0.07404749999841442,0.046685200002684724,0.047684000001027016,0.09997289999955683,0.09992649999912828,0.7499327000004996
RSVPLG03,cs,20260225-135429,1.0.2,20251105-084826,775,Experiment,Both,1,Automatic,main,30,20260225-135721,local,global,300,S,S,E,A,E-S.png,S-A.png,sS,sS,mask-3.png,mask-1.png,s,1,0.5262737000011839,h,0,0.6222712000017054,0.04724060000080499,0.047498199997789925,0.09970840000096359,0.09952349999730359,0.30105320000075153
RSVPLG03,cs,20260225-135429,1.0.2,20251105-084826,775,Experiment,Both,1,Automatic,main,31,20260225-135725,global,global,300,S,H,A,E,S-A.png,H-E.png,sS,hH,mask-4.png,mask-2.png,s,1,1.6049027999979444,h,1,0.7482904999997118,0.04733029999988503,0.0474999999969441,0.10038799999892944,0.10146769999846583,0.29961700000058045
RSVPLG03,cs,20260225-135429,1.0.2,20251105-084826,775,Experiment,Both,1,Automatic,main,32,20260225-135731,global,global,750,H,S,E,E,H-E.png,S-E.png,hH,sS,mask-1.png,mask-1.png,h,1,1.0731936000011046,h,0,0.07746689999839873,0.04745520000142278,0.04749190000075032,0.09956520000196178,0.10091380000085337,0.7504913000011584
RSVPLG03,cs,20260225-135429,1.0.2,20251105-084826,775,Experiment,Both,1,Automatic,main,33,20260225-135737,local,local,300,S,H,E,E,E-S.png,E-H.png,sS,hH,mask-2.png,mask-1.png,s,1,0.4954369000006409,h,1,0.5757701999973506,0.04579369999919436,0.04756460000135121,0.09995449999769335,0.10061649999988731,0.29965789999914705
RSVPLG03,cs,20260225-135429,1.0.2,20251105-084826,775,Experiment,Both,1,Automatic,main,34,20260225-135741,local,local,750,S,S,A,E,A-S.png,E-S.png,sS,sS,mask-4.png,mask-3.png,s,1,0.20878620000075898,s,1,0.09032839999781572,0.04571890000079293,0.04651989999911166,0.09978689999843482,0.09849759999997332,0.7514110999982222
RSVPLG03,cs,20260225-135429,1.0.2,20251105-084826,775,Experiment,Both,1,Automatic,main,35,20260225-135745,local,global,300,S,S,A,A,A-S.png,S-A.png,sS,sS,mask-3.png,mask-4.png,s,1,0.646828099997947,h,0,0.007691900002100738,0.047681899999588495,0.04788650000045891,0.0988777000020491,0.10015460000067833,0.2994942000004812
RSVPLG03,cs,20260225-135429,1.0.2,20251105-084826,775,Experiment,Both,1,Automatic,main,36,20260225-135749,global,local,300,S,S,A,A,S-A.png,A-S.png,sS,sS,mask-3.png,mask-1.png,h,0,0.49472550000064075,s,1,0.27620910000041476,0.04774660000111908,0.04668450000099256,0.10005460000320454,0.09827749999749358,0.30159760000242386
RSVPLG03,cs,20260225-135429,1.0.2,20251105-084826,775,Experiment,Both,1,Automatic,main,37,20260225-135754,global,local,300,H,H,A,E,H-A.png,E-H.png,hH,hH,mask-1.png,mask-2.png,h,1,0.313969900002121,h,1,0.039189200000691926,0.047541500000079395,0.047694099997897865,0.10036330000002636,0.09888979999959702,0.2999655999992683
RSVPLG03,cs,20260225-135429,1.0.2,20251105-084826,775,Experiment,Both,1,Automatic,main,38,20260225-135758,local,local,300,S,S,A,A,A-S.png,A-S.png,sS,sS,mask-1.png,mask-4.png,s,1,0.5434185999984038,s,1,0.07551049999892712,0.04772749999756343,0.04774919999908889,0.09995519999938551,0.10001510000074632,0.3004709999986517
RSVPLG03,cs,20260225-135429,1.0.2,20251105-084826,775,Experiment,Both,1,Automatic,main,39,20260225-135802,global,global,750,H,S,E,E,H-E.png,S-E.png,hH,sS,mask-3.png,mask-1.png,s,0,0.916488599999866,h,0,0.5775080000021262,0.046121199997287476,0.04849189999731607,0.10028229999807081,0.09978570000021136,0.7503682999995362
RSVPLG03,cs,20260225-135429,1.0.2,20251105-084826,775,Experiment,Both,1,Automatic,main,40,20260225-135808,local,local,750,S,H,A,E,A-S.png,E-H.png,sS,hH,mask-1.png,mask-3.png,h,0,0.5227478000015253,s,0,1.4866850999969756,0.04780949999985751,0.04871209999691928,0.10100990000137244,0.10130319999734638,0.7502249000026495
RSVPLG03,cs,20260225-135429,1.0.2,20251105-084826,775,Experiment,Both,1,Automatic,main,41,20260225-135814,global,global,300,H,H,A,E,H-A.png,H-E.png,hH,hH,mask-4.png,mask-4.png,h,1,1.3322974000002432,s,0,0.10749520000172197,0.048545900001045084,0.04757410000092932,0.09977040000012494,0.09989860000132467,0.30026809999981197
RSVPLG03,cs,20260225-135429,1.0.2,20251105-084826,775,Experiment,Both,1,Automatic,main,42,20260225-135819,global,global,750,H,H,A,A,H-A.png,H-A.png,hH,hH,mask-3.png,mask-3.png,h,1,0.29924490000121295,h,1,0.7098071000000346,0.04752390000066953,0.047602200000255834,0.10046090000105323,0.10103750000052969,0.750997200000711
RSVPLG03,cs,20260225-135429,1.0.2,20251105-084826,775,Experiment,Both,1,Automatic,main,43,20260225-135824,global,global,300,S,H,E,A,S-E.png,H-A.png,sS,hH,mask-1.png,mask-1.png,h,0,0.3487447000006796,h,1,0.07195890000002692,0.04652159999750438,0.04750720000083675,0.09955879999688477,0.09956149999925401,0.2998578999977326
RSVPLG03,cs,20260225-135429,1.0.2,20251105-084826,775,Experiment,Both,1,Automatic,main,44,20260225-135828,local,global,750,H,S,E,A,E-H.png,S-A.png,hH,sS,mask-3.png,mask-1.png,h,1,1.3042053999997734,h,0,1.1598439999979746,0.04766659999950207,0.04652220000207308,0.09983769999962533,0.09951830000136397,0.7520315000001574
RSVPLG03,cs,20260225-135429,1.0.2,20251105-084826,775,Experiment,Both,1,Automatic,main,45,20260225-135835,local,global,300,H,S,E,A,E-H.png,S-A.png,hH,sS,mask-1.png,mask-2.png,h,1,0.5469215999983135,s,1,0.12213450000126613,0.04765499999848544,0.04772129999764729,0.09892119999858551,0.09942759999830741,0.2993943000001309
RSVPLG03,cs,20260225-135429,1.0.2,20251105-084826,775,Experiment,Both,1,Automatic,main,46,20260225-135840,local,local,750,S,H,E,A,E-S.png,A-H.png,sS,hH,mask-4.png,mask-4.png,s,1,0.7462341999998898,h,1,0.8900949000017135,0.047817399998166366,0.04852449999816599,0.10005589999855147,0.10100799999781884,0.7511224000008951
RSVPLG03,cs,20260225-135429,1.0.2,20251105-084826,775,Experiment,Both,1,Automatic,main,47,20260225-135844,global,local,750,S,H,E,A,S-E.png,A-H.png,sS,hH,mask-2.png,mask-3.png,s,1,0.7862229999991541,h,1,0.2176411000000371,0.04672900000150548,0.04755450000084238,0.10020490000169957,0.10060640000301646,0.7506616999999096
RSVPLG03,cs,20260225-135429,1.0.2,20251105-084826,775,Experiment,Both,1,Automatic,main,48,20260225-135850,local,global,300,S,S,A,A,A-S.png,S-A.png,sS,sS,mask-4.png,mask-2.png,s,1,0.5324695000017527,h,0,0.6925044000017806,0.045953800003189826,0.04778670000087004,0.10002770000210148,0.10000790000049165,0.3000419000018155
RSVPLG03,cs,20260225-135429,1.0.2,20251105-084826,775,Experiment,Both,1,Automatic,main,49,20260225-135854,local,global,750,S,H,A,E,A-S.png,H-E.png,sS,hH,mask-1.png,mask-1.png,s,1,0.7236652999999933,h,1,0.14726319999681436,0.04733910000140895,0.046953799999755574,0.09966619999977411,0.09983810000267113,0.7502550999997766
RSVPLG03,cs,20260225-135429,1.0.2,20251105-084826,775,Experiment,Both,1,Automatic,main,50,20260225-135859,local,local,300,H,H,E,E,E-H.png,E-H.png,hH,hH,mask-4.png,mask-3.png,h,1,0.5841461999989406,s,0,0.03482830000211834,0.047551300001941854,0.04954110000107903,0.10138860000006389,0.10065830000166898,0.2996242000008351
RSVPLG03,cs,20260225-135429,1.0.2,20251105-084826,775,Experiment,Both,1,Automatic,main,51,20260225-135905,global,global,750,H,S,A,A,H-A.png,S-A.png,hH,sS,mask-1.png,mask-2.png,h,1,0.6561851000005845,h,0,0.07707329999902868,0.04849819999799365,0.047354999998788116,0.10034509999968577,0.09969529999943916,0.7511395000001357
RSVPLG03,cs,20260225-135429,1.0.2,20251105-084826,775,Experiment,Both,1,Automatic,main,52,20260225-135910,local,local,750,H,H,A,E,A-H.png,E-H.png,hH,hH,mask-4.png,mask-1.png,s,0,1.147296400002233,s,0,0.07301819999702275,0.0459197000018321,0.04671119999693474,0.09973040000113542,0.10090709999712999,0.7505712000020139
RSVPLG03,cs,20260225-135429,1.0.2,20251105-084826,775,Experiment,Both,1,Automatic,main,53,20260225-135916,local,global,750,S,S,E,A,E-S.png,S-A.png,sS,sS,mask-1.png,mask-4.png,s,1,1.300193400002172,h,0,0.20501769999827957,0.048617899999953806,0.04669359999752487,0.09968089999892982,0.09850939999887487,0.7511712000014086
RSVPLG03,cs,20260225-135429,1.0.2,20251105-084826,775,Experiment,Both,1,Automatic,main,54,20260225-135921,global,local,750,H,H,A,E,H-A.png,E-H.png,hH,hH,mask-2.png,mask-4.png,h,1,0.7868661000029533,s,0,0.027754300001106458,0.047529600000416394,0.047546199999487726,0.10040250000020023,0.0998607000001357,0.7502243999988423
RSVPLG03,cs,20260225-135429,1.0.2,20251105-084826,775,Experiment,Both,1,Automatic,main,55,20260225-135926,global,local,300,S,S,A,A,S-A.png,A-S.png,sS,sS,mask-2.png,mask-1.png,h,0,1.2061644999994314,s,1,0.05881740000040736,0.047599800000170944,0.04673050000201329,0.10057530000267434,0.09970550000070943,0.30070100000011735
RSVPLG03,cs,20260225-135429,1.0.2,20251105-084826,775,Experiment,Both,1,Automatic,main,56,20260225-135931,local,global,300,H,S,A,A,A-H.png,S-A.png,hH,sS,mask-1.png,mask-3.png,h,1,0.8825361999988672,s,1,0.04672449999998207,0.04675380000117002,0.048815400001331,0.09898580000299262,0.10005440000168164,0.29881770000065444
RSVPLG03,cs,20260225-135429,1.0.2,20251105-084826,775,Experiment,Both,1,Automatic,main,57,20260225-135936,global,local,750,S,S,E,E,S-E.png,E-S.png,sS,sS,mask-4.png,mask-4.png,s,1,1.019318900001963,s,1,0.05353280000053928,0.04598459999760962,0.04777560000002268,0.10021339999730117,0.10168280000289087,0.7497301999974297
RSVPLG03,cs,20260225-135429,1.0.2,20251105-084826,775,Experiment,Both,1,Automatic,main,58,20260225-135941,global,local,750,H,H,E,A,H-E.png,A-H.png,hH,hH,mask-4.png,mask-2.png,h,1,0.6656466999993427,s,0,0.036850000000413274,0.04768870000043535,0.046710599999642,0.09941210000033607,0.10094630000094185,0.7512862000003224
RSVPLG03,cs,20260225-135429,1.0.2,20251105-084826,775,Experiment,Both,1,Automatic,main,59,20260225-135946,global,local,300,H,H,A,A,H-A.png,A-H.png,hH,hH,mask-1.png,mask-2.png,h,1,1.1178226999982144,s,0,0.037152400000195485,0.04784970000036992,0.04772200000297744,0.09889830000247457,0.09951850000288687,0.30085519999920507
RSVPLG03,cs,20260225-135429,1.0.2,20251105-084826,775,Experiment,Both,1,Automatic,main,60,20260225-135950,local,global,300,H,H,A,E,A-H.png,H-E.png,hH,hH,mask-2.png,mask-3.png,h,1,0.3470658000005642,h,1,0.062164999999367865,0.047580099999322556,0.047512500001175795,0.09972909999851254,0.09969900000214693,0.30017319999751635
RSVPLG03,cs,20260225-135429,1.0.2,20251105-084826,775,Experiment,Both,1,Automatic,main,61,20260225-135954,local,local,750,S,S,A,E,A-S.png,E-S.png,sS,sS,mask-1.png,mask-4.png,s,1,0.9007517999998527,s,1,0.07349999999860302,0.047408000002178596,0.04750380000041332,0.09970380000231671,0.10151780000160215,0.7510929000018223
RSVPLG03,cs,20260225-135429,1.0.2,20251105-084826,775,Experiment,Both,1,Automatic,main,62,20260225-135959,local,global,300,H,S,E,E,E-H.png,S-E.png,hH,sS,mask-1.png,mask-2.png,h,1,0.5954691000006278,h,0,0.08116169999993872,0.04671469999811961,0.0472397000012279,0.09991760000048089,0.0984697000021697,0.3005381999973906
RSVPLG03,cs,20260225-135429,1.0.2,20251105-084826,775,Experiment,Both,1,Automatic,main,63,20260225-140004,global,global,300,H,H,A,A,H-A.png,H-A.png,hH,hH,mask-4.png,mask-2.png,s,0,0.7031535999994958,s,0,0.06697369999892544,0.04696880000119563,0.04598769999938668,0.1002251999998407,0.1002435999980662,0.30004010000266135
RSVPLG03,cs,20260225-135429,1.0.2,20251105-084826,775,Experiment,Both,1,Automatic,main,64,20260225-140008,local,global,750,S,S,A,A,A-S.png,S-A.png,sS,sS,mask-2.png,mask-1.png,s,1,0.8271620999985316,h,0,0.020905599998513935,0.04861480000181473,0.04732760000115377,0.10024089999933494,0.0995693000004394,0.7509088000006159
RSVPLG03,cs,20260225-135429,1.0.2,20251105-084826,775,Experiment,Both,1,Automatic,main,65,20260225-140013,local,global,750,S,H,A,E,A-S.png,H-E.png,sS,hH,mask-4.png,mask-2.png,s,1,0.6522469999981695,h,1,0.8446155999990879,0.047675099998741644,0.047693900000012945,0.09972779999952763,0.09888019999925746,0.7515276999984053
RSVPLG03,cs,20260225-135429,1.0.2,20251105-084826,775,Experiment,Both,1,Automatic,main,66,20260225-140018,global,global,750,H,S,E,E,H-E.png,S-E.png,hH,sS,mask-2.png,mask-3.png,s,0,0.8183577999989211,s,1,0.1224843999989389,0.04753509999864036,0.04751390000092215,0.09955400000035297,0.10082400000101188,0.7496903999999631
RSVPLG03,cs,20260225-135429,1.0.2,20251105-084826,775,Experiment,Both,1,Automatic,main,67,20260225-140023,global,global,750,H,S,E,E,H-E.png,S-E.png,hH,sS,mask-4.png,mask-4.png,h,1,0.720817099998385,h,0,0.10168379999959143,0.04756289999932051,0.04767160000119475,0.09956099999908474,0.1019068999994488,0.7503604999983509
RSVPLG03,cs,20260225-135429,1.0.2,20251105-084826,775,Experiment,Both,1,Automatic,main,68,20260225-140028,local,global,300,H,S,A,A,A-H.png,S-A.png,hH,sS,mask-2.png,mask-2.png,h,1,0.8121931999994558,h,0,0.4755691999998817,0.04681669999990845,0.04775620000145864,0.10106639999867184,0.09878020000178367,0.3007317999981751
RSVPLG03,cs,20260225-135429,1.0.2,20251105-084826,775,Experiment,Both,1,Automatic,main,69,20260225-140033,local,global,750,H,H,E,E,E-H.png,H-E.png,hH,hH,mask-3.png,mask-4.png,h,1,0.18046049999975367,s,0,0.990331500001048,0.04751329999999143,0.047510000000329455,0.10053429999970831,0.09942510000109905,0.7512599999972736
RSVPLG03,cs,20260225-135429,1.0.2,20251105-084826,775,Experiment,Both,1,Automatic,main,70,20260225-140038,global,local,300,S,H,E,E,S-E.png,E-H.png,sS,hH,mask-4.png,mask-2.png,s,1,0.8586111000004166,h,1,0.26166190000003553,0.04765839999890886,0.04771960000289255,0.09868550000101095,0.09917920000225422,0.3003257999989728
RSVPLG03,cs,20260225-135429,1.0.2,20251105-084826,775,Experiment,Both,1,Automatic,main,71,20260225-140043,global,global,750,H,S,A,E,H-A.png,S-E.png,hH,sS,mask-3.png,mask-4.png,h,1,1.1813971999981732,s,1,0.10226899999906891,0.04752679999728571,0.04759790000025532,0.09936949999973876,0.09977150000122492,0.7497814999987895
RSVPLG03,cs,20260225-135429,1.0.2,20251105-084826,775,Experiment,Both,1,Automatic,main,72,20260225-140049,local,local,300,H,S,E,E,E-H.png,E-S.png,hH,sS,mask-4.png,mask-3.png,h,1,0.3946456000012404,s,1,0.05752230000143754,0.04652450000139652,0.04672789999676752,0.09971779999978025,0.0990825999979279,0.30004140000164625
RSVPLG03,cs,20260225-135429,1.0.2,20251105-084826,775,Experiment,Both,1,Automatic,main,73,20260225-140053,global,global,300,H,S,E,E,H-E.png,S-E.png,hH,sS,mask-4.png,mask-1.png,h,1,0.8039396999993187,s,1,0.14987230000042473,0.04772950000187848,0.048596699998597614,0.09978310000224155,0.10164459999941755,0.29907030000322266
RSVPLG03,cs,20260225-135429,1.0.2,20251105-084826,775,Experiment,Both,1,Automatic,main,74,20260225-140057,local,local,750,S,H,E,A,E-S.png,A-H.png,sS,hH,mask-2.png,mask-3.png,s,1,0.5539943000003404,h,1,0.234389099998225,0.04733240000132355,0.047812699998758035,0.09942159999991418,0.1000026000001526,0.7514821000004304
RSVPLG03,cs,20260225-135429,1.0.2,20251105-084826,775,Experiment,Both,1,Automatic,main,75,20260225-140102,local,global,300,S,S,A,A,A-S.png,S-A.png,sS,sS,mask-1.png,mask-4.png,s,1,1.0827300999990257,s,1,0.1333134999986214,0.04749640000227373,0.04747289999795612,0.09972109999944223,0.09928039999795146,0.30044140000245534
RSVPLG03,cs,20260225-135429,1.0.2,20251105-084826,775,Experiment,Both,1,Automatic,main,76,20260225-140108,global,global,300,H,H,A,A,H-A.png,H-A.png,hH,hH,mask-4.png,mask-2.png,h,1,0.43028339999727905,s,0,0.08623530000113533,0.04635719999714638,0.04632899999705842,0.09919579999768757,0.09918999999717926,0.30031439999947906
RSVPLG03,cs,20260225-135429,1.0.2,20251105-084826,775,Experiment,Both,1,Automatic,main,77,20260225-140113,local,local,300,H,S,A,E,A-H.png,E-S.png,hH,sS,mask-1.png,mask-3.png,h,1,0.8444570000028762,s,1,0.16712159999951837,0.047507300001598196,0.04883700000209501,0.09951220000220928,0.10097160000077565,0.2991772999994282
RSVPLG03,cs,20260225-135429,1.0.2,20251105-084826,775,Experiment,Both,1,Automatic,main,78,20260225-140117,global,local,750,S,H,E,E,S-E.png,E-H.png,sS,hH,mask-4.png,mask-4.png,h,0,0.531379800002469,s,0,0.25923790000160807,0.04766880000170204,0.04576369999995222,0.1008378000005905,0.0997784999999567,0.7526280000020051
RSVPLG03,cs,20260225-135429,1.0.2,20251105-084826,775,Experiment,Both,1,Automatic,main,79,20260225-140122,local,local,750,S,S,E,A,E-S.png,A-S.png,sS,sS,mask-3.png,mask-4.png,s,1,0.7928284000008716,s,1,0.09429749999981141,0.0477195000021311,0.04704499999934342,0.09994520000327611,0.09897569999884581,0.7517003000029945
RSVPLG03,cs,20260225-135429,1.0.2,20251105-084826,775,Experiment,Both,1,Automatic,main,80,20260225-140127,global,local,750,S,H,E,A,S-E.png,A-H.png,sS,hH,mask-3.png,mask-2.png,s,1,0.7328266000004078,h,1,0.024246100001619197,0.04654400000072201,0.046728400000574766,0.09828689999994822,0.09997049999947194,0.7512525000020105
RSVPLG03,cs,20260225-135429,1.0.2,20251105-084826,775,Experiment,Both,1,Automatic,main,81,20260225-140132,local,local,750,S,S,A,A,A-S.png,A-S.png,sS,sS,mask-1.png,mask-3.png,s,1,0.5261324000020977,s,1,0.07472910000069533,0.046903099999326514,0.046926899998652516,0.09898239999893121,0.1006290999976045,0.7502179000002798
RSVPLG03,cs,20260225-135429,1.0.2,20251105-084826,775,Experiment,Both,1,Automatic,main,82,20260225-140137,global,global,300,S,H,A,A,S-A.png,H-A.png,sS,hH,mask-4.png,mask-3.png,s,1,0.8100852000025043,s,0,0.055482299998402596,0.0474075999991328,0.04650699999911012,0.10062749999997322,0.09984350000013364,0.3006353999990097
RSVPLG03,cs,20260225-135429,1.0.2,20251105-084826,775,Experiment,Both,1,Automatic,main,83,20260225-140142,global,local,300,S,S,E,E,S-E.png,E-S.png,sS,sS,mask-1.png,mask-3.png,h,0,1.5175024000018311,s,1,0.0059828999983437825,0.04715809999834164,0.047745100000611274,0.09941999999864493,0.10027049999916926,0.29909159999806434
RSVPLG03,cs,20260225-135429,1.0.2,20251105-084826,775,Experiment,Both,1,Automatic,main,84,20260225-140147,local,local,750,H,S,A,E,A-H.png,E-S.png,hH,sS,mask-4.png,mask-1.png,h,1,0.8116406000008283,s,1,0.03077119999943534,0.04672690000006696,0.04853490000095917,0.10000850000142236,0.10059770000225399,0.7502143999990949
RSVPLG03,cs,20260225-135429,1.0.2,20251105-084826,775,Experiment,Both,1,Automatic,main,85,20260225-140152,global,global,300,S,H,E,A,S-E.png,H-A.png,sS,hH,mask-3.png,mask-3.png,s,1,1.4318639999983134,h,1,0.16333819999999832,0.04756149999957415,0.04829359999712324,0.10060590000284719,0.10103149999849848,0.3002159000025131
RSVPLG03,cs,20260225-135429,1.0.2,20251105-084826,775,Experiment,Both,1,Automatic,main,86,20260225-140157,local,local,750,H,H,A,A,A-H.png,A-H.png,hH,hH,mask-1.png,mask-3.png,h,1,1.4791452999998,s,0,0.1237808000005316,0.046639100000902545,0.04637249999723281,0.09992280000005849,0.09974890000012238,0.7506156000017654
RSVPLG03,cs,20260225-135429,1.0.2,20251105-084826,775,Experiment,Both,1,Automatic,main,87,20260225-140203,global,global,750,S,H,E,E,S-E.png,H-E.png,sS,hH,mask-1.png,mask-4.png,h,0,0.4629259999965143,h,1,0.0448781000013696,0.048482499998499407,0.04738970000107656,0.09963219999917783,0.10021950000009383,0.7512440999998944
RSVPLG03,cs,20260225-135429,1.0.2,20251105-084826,775,Experiment,Both,1,Automatic,main,88,20260225-140207,local,global,750,H,H,E,A,E-H.png,H-A.png,hH,hH,mask-1.png,mask-1.png,h,1,0.8585837999999058,h,1,0.038173000000824686,0.04812669999955688,0.04695039999933215,0.1002011999989918,0.09999529999913648,0.7513374999980442
RSVPLG03,cs,20260225-135429,1.0.2,20251105-084826,775,Experiment,Both,1,Automatic,main,89,20260225-140212,global,global,750,S,S,E,E,S-E.png,S-E.png,sS,sS,mask-1.png,mask-4.png,h,0,1.2246978000002855,h,0,0.44408719999773894,0.048349400000006426,0.046719199999643024,0.10033230000044568,0.09969019999698503,0.751404900001944
RSVPLG03,cs,20260225-135429,1.0.2,20251105-084826,775,Experiment,Both,1,Automatic,main,90,20260225-140218,local,global,300,S,S,E,A,E-S.png,S-A.png,sS,sS,mask-2.png,mask-4.png,s,1,0.5858744999968621,h,0,0.21427919999769074,0.046007599998119986,0.046196299997973256,0.09998319999795058,0.1003309999978228,0.3006557000007888
RSVPLG03,cs,20260225-135429,1.0.2,20251105-084826,775,Experiment,Both,1,Automatic,main,91,20260225-140223,local,local,300,H,H,A,A,A-H.png,A-H.png,hH,hH,mask-2.png,mask-1.png,h,1,0.4967121000008774,h,1,0.07022299999880488,0.04740709999896353,0.0475323999999091,0.10032330000103684,0.1005248000001302,0.30180269999982556
RSVPLG03,cs,20260225-135429,1.0.2,20251105-084826,775,Experiment,Both,1,Automatic,main,92,20260225-140227,global,local,300,S,S,E,A,S-E.png,A-S.png,sS,sS,mask-4.png,mask-1.png,s,1,0.4959305999982462,s,1,0.060422599999583326,0.047689099999843165,0.04753379999965546,0.0986257000004116,0.09883530000297469,0.30039059999762685
RSVPLG03,cs,20260225-135429,1.0.2,20251105-084826,775,Experiment,Both,1,Automatic,main,93,20260225-140231,global,local,750,H,S,A,A,H-A.png,A-S.png,hH,sS,mask-1.png,mask-2.png,h,1,0.7481071000001975,s,1,0.07179480000195326,0.04750399999829824,0.04790839999986929,0.10121820000131265,0.10191589999885764,0.7505047000013292
RSVPLG03,cs,20260225-135429,1.0.2,20251105-084826,775,Experiment,Both,1,Automatic,main,94,20260225-140236,local,local,750,H,H,A,A,A-H.png,A-H.png,hH,hH,mask-3.png,mask-3.png,h,1,0.3939591999987897,h,1,0.1153191000012157,0.04775990000052843,0.04957070000091335,0.10005499999897438,0.10121799999978975,0.7502203000003647
RSVPLG03,cs,20260225-135429,1.0.2,20251105-084826,775,Experiment,Both,1,Automatic,main,95,20260225-140241,global,local,300,S,H,A,E,S-A.png,E-H.png,sS,hH,mask-2.png,mask-2.png,h,0,1.0105517000010877,s,0,0.11672689999977592,0.04750979999880656,0.04851520000011078,0.09850590000132797,0.1015850000003411,0.2989844000003359
RSVPLG03,cs,20260225-135429,1.0.2,20251105-084826,775,Experiment,Both,1,Automatic,main,96,20260225-140245,global,global,300,H,H,A,A,H-A.png,H-A.png,hH,hH,mask-4.png,mask-3.png,s,0,4.222712899998442,h,1,4.318551299998944,0.04921029999968596,0.04698170000119717,0.10127420000208076,0.10001810000176192,0.3013234999998531
RSVPLG03,cs,20260225-135429,1.0.2,20251105-084826,775,Experiment,Both,1,Automatic,main,97,20260225-140254,global,local,750,S,S,E,A,S-E.png,A-S.png,sS,sS,mask-1.png,mask-1.png,h,0,0.6045114000007743,h,0,0.8288185999990674,0.046557099998608464,0.046535499997844454,0.10063249999802792,0.10053989999869373,0.7511233000004722
RSVPLG03,cs,20260225-135429,1.0.2,20251105-084826,775,Experiment,Both,1,Automatic,main,98,20260225-140259,local,global,300,S,S,E,E,E-S.png,S-E.png,sS,sS,mask-2.png,mask-2.png,s,1,0.5750071000002208,h,0,0.06890360000033979,0.04755440000008093,0.047532099997624755,0.09866429999965476,0.09953899999891291,0.3003196999998181
RSVPLG03,cs,20260225-135429,1.0.2,20251105-084826,775,Experiment,Both,1,Automatic,main,99,20260225-140303,global,global,300,H,S,A,A,H-A.png,S-A.png,hH,sS,mask-2.png,mask-1.png,h,1,0.1378095999971265,h,0,0.6669944999994186,0.047555999997712206,0.04671969999981229,0.10059019999971497,0.09969579999960843,0.3000207999975828
RSVPLG03,cs,20260225-135429,1.0.2,20251105-084826,775,Experiment,Both,1,Automatic,main,100,20260225-140307,local,local,300,H,H,A,E,A-H.png,E-H.png,hH,hH,mask-3.png,mask-3.png,h,1,0.07562849999885657,s,0,0.05475310000110767,0.04736540000158129,0.04959940000117058,0.10031820000222069,0.09978880000198842,0.2987606999995478
