exp,exp_initials,runtime,ver,modtime,sub,blocktype,targets,cuetype,mode,trialtype,trial,trialtime,t1_level,t2_level,t2_lag,t1,t2,distractor1,distractor2,stimfile1,stimfile2,t1_corr,t2_corr,maskfile1,maskfile2,t1_resp,t1_acc,t1_rt,t2_resp,t2_acc,t2_rt,t1_dur,t2_dur,t1mask_soa,t2mask_soa,t1t2_soa
RSVPLG03,TM,20251103-101104,1.0.1,20251020-085245,730,Introduction,T1,1,Automatic,main,1,20251103-101952,local,global,750,H,S,A,A,A-H.png,S-A.png,hH,sS,mask-3.png,mask-1.png,h,1,4.38309199991636,none,-5,0,0.09106929996050894,0.09867269988171756,0.19385750009678304,0.20172029989771545,0.74386170017533
RSVPLG03,TM,20251103-101104,1.0.1,20251020-085245,730,Introduction,T1,1,Automatic,main,2,20251103-102001,global,local,750,S,S,E,E,S-E.png,E-S.png,sS,sS,mask-4.png,mask-3.png,s,1,0.8069358998909593,none,-5,0,0.0975028001703322,0.09853939991444349,0.20071230013854802,0.20073339994996786,0.7509759000968188
RSVPLG03,TM,20251103-101104,1.0.1,20251020-085245,730,Introduction,T1,1,Automatic,main,3,20251103-102006,global,global,750,H,S,A,E,H-A.png,S-E.png,hH,sS,mask-4.png,mask-1.png,h,1,0.7136663999408484,none,-5,0,0.09769729990512133,0.09862239984795451,0.2008710999507457,0.2016087998636067,0.7512519001029432
RSVPLG03,TM,20251103-101104,1.0.1,20251020-085245,730,Introduction,T1,1,Automatic,main,4,20251103-102010,global,local,750,S,S,E,E,S-E.png,E-S.png,sS,sS,mask-2.png,mask-2.png,s,1,0.5710525000467896,none,-5,0,0.09843929996713996,0.09635589993558824,0.2004726999439299,0.20027759997174144,0.7531822000164539
RSVPLG03,TM,20251103-101104,1.0.1,20251020-085245,730,Introduction,T1,1,Automatic,main,5,20251103-102015,local,local,750,H,S,A,E,A-H.png,E-S.png,hH,sS,mask-2.png,mask-2.png,h,1,0.4742056999821216,none,-5,0,0.09625489986501634,0.09859090019017458,0.1991407999303192,0.20157690020278096,0.7504357998259366
RSVPLG03,TM,20251103-101104,1.0.1,20251020-085245,730,Introduction,T1,1,Automatic,main,6,20251103-102020,local,global,750,H,H,E,A,E-H.png,H-A.png,hH,hH,mask-3.png,mask-1.png,s,0,0.35973799997009337,none,-5,0,0.09915439994074404,0.09647070011124015,0.2020761000458151,0.20139440009370446,0.7522829999215901
RSVPLG03,TM,20251103-101104,1.0.1,20251020-085245,730,Introduction,T1,1,Automatic,main,7,20251103-102024,global,global,750,S,S,E,E,S-E.png,S-E.png,sS,sS,mask-1.png,mask-4.png,s,1,0.4965669000521302,none,-5,0,0.09741419996134937,0.09864550014026463,0.20059639983810484,0.20171490008942783,0.7501949998550117
RSVPLG03,TM,20251103-101104,1.0.1,20251020-085245,730,Introduction,T1,1,Automatic,main,8,20251103-102029,local,local,750,S,H,A,A,A-S.png,A-H.png,sS,hH,mask-1.png,mask-3.png,s,1,0.5324198000598699,none,-5,0,0.09641869994811714,0.09724469995126128,0.1996005999390036,0.2012825000565499,0.7509411999490112
RSVPLG03,TM,20251103-101104,1.0.1,20251020-085245,730,Introduction,T1,1,Automatic,main,9,20251103-102034,global,global,750,H,S,E,E,H-E.png,S-E.png,hH,sS,mask-2.png,mask-2.png,h,1,0.4142883999738842,none,-5,0,0.09741599997505546,0.09834799985401332,0.19962300010956824,0.2012089998461306,0.7511325001250952
RSVPLG03,TM,20251103-101104,1.0.1,20251020-085245,730,Introduction,T1,1,Automatic,main,10,20251103-102038,global,global,750,H,S,E,A,H-E.png,S-A.png,hH,sS,mask-1.png,mask-1.png,h,1,0.29136779997497797,none,-5,0,0.095615099882707,0.09869510005228221,0.2002508998848498,0.2009099000133574,0.7507414999417961
RSVPLG03,TM,20251103-101104,1.0.1,20251020-085245,730,Introduction,T1,1,Automatic,main,11,20251103-102043,local,local,750,H,S,A,E,A-H.png,E-S.png,hH,sS,mask-3.png,mask-1.png,h,1,0.38189880014397204,none,-5,0,0.09841510001569986,0.09683430008590221,0.20130429998971522,0.19872880005277693,0.7532212999649346
RSVPLG03,TM,20251103-101104,1.0.1,20251020-085245,730,Introduction,T1,1,Automatic,main,12,20251103-102047,global,local,750,S,H,E,E,S-E.png,E-H.png,sS,hH,mask-1.png,mask-2.png,s,1,0.4877483998425305,none,-5,0,0.09839900000952184,0.09652239992283285,0.20024759997613728,0.19951110007241368,0.7528019000310451
RSVPLG03,TM,20251103-101104,1.0.1,20251020-085245,730,Introduction,T1,1,Automatic,main,13,20251103-102052,local,global,750,H,S,E,A,E-H.png,S-A.png,hH,sS,mask-3.png,mask-4.png,h,1,0.4988973999861628,none,-5,0,0.09858290012925863,0.09773780009709299,0.20060990005731583,0.19921320001594722,0.7530237999744713
RSVPLG03,TM,20251103-101104,1.0.1,20251020-085245,730,Introduction,T1,1,Automatic,main,14,20251103-102057,global,local,750,S,S,A,A,S-A.png,A-S.png,sS,sS,mask-3.png,mask-1.png,s,1,0.4808483999222517,none,-5,0,0.09748929995112121,0.09815520001575351,0.19923729985021055,0.2007039999589324,0.7504894000012428
RSVPLG03,TM,20251103-101104,1.0.1,20251020-085245,730,Introduction,T1,1,Automatic,main,15,20251103-102101,local,local,750,H,S,A,A,A-H.png,A-S.png,hH,sS,mask-2.png,mask-3.png,h,1,0.7292176000773907,none,-5,0,0.09755120007321239,0.09882380021736026,0.19962610001675785,0.20120480004698038,0.7500722999684513
RSVPLG03,TM,20251103-101104,1.0.1,20251020-085245,730,Introduction,T1,1,Automatic,main,16,20251103-102106,local,global,750,S,H,A,A,A-S.png,H-A.png,sS,hH,mask-1.png,mask-4.png,s,1,0.662531599868089,none,-5,0,0.09767179982736707,0.09733790019527078,0.19944170000962913,0.1998833001125604,0.7517666998319328
RSVPLG03,TM,20251103-102210,1.0.1,20251020-085245,730,Practice,T1,1,Automatic,main,1,20251103-102229,local,global,750,S,S,A,E,A-S.png,S-E.png,sS,sS,mask-1.png,mask-1.png,s,1,0.475602800026536,none,-5,0,0.040695499861612916,0.04707659990526736,0.09462259989231825,0.09941209992393851,0.7444905999582261
RSVPLG03,TM,20251103-102210,1.0.1,20251020-085245,730,Practice,T1,1,Automatic,main,2,20251103-102234,local,global,750,S,S,E,A,E-S.png,S-A.png,sS,sS,mask-4.png,mask-4.png,s,1,0.427713300101459,none,-5,0,0.047905700048431754,0.04740489996038377,0.09945950005203485,0.09977700002491474,0.7505024999845773
RSVPLG03,TM,20251103-102210,1.0.1,20251020-085245,730,Practice,T1,1,Automatic,main,3,20251103-102238,global,local,300,S,H,E,A,S-E.png,A-H.png,sS,hH,mask-4.png,mask-4.png,s,1,0.13494590017944574,none,-5,0,0.047631500056013465,0.04740400006994605,0.09979979996569455,0.09962480003014207,0.3000918999314308
RSVPLG03,TM,20251103-102210,1.0.1,20251020-085245,730,Practice,T1,1,Automatic,main,4,20251103-102242,local,global,300,S,H,A,E,A-S.png,H-E.png,sS,hH,mask-2.png,mask-4.png,s,1,0.38370849983766675,none,-5,0,0.04734649998135865,0.047773499973118305,0.09936069999821484,0.10057540005072951,0.2991253000218421
RSVPLG03,TM,20251103-102210,1.0.1,20251020-085245,730,Practice,T1,1,Automatic,main,5,20251103-102246,local,local,300,H,S,E,A,E-H.png,A-S.png,hH,sS,mask-4.png,mask-4.png,h,1,0.7344231000170112,none,-5,0,0.046034099999815226,0.04751920001581311,0.09989469987340271,0.0996443999465555,0.30024300003424287
RSVPLG03,TM,20251103-102210,1.0.1,20251020-085245,730,Practice,T1,1,Automatic,main,6,20251103-102250,local,local,750,S,S,A,E,A-S.png,E-S.png,sS,sS,mask-1.png,mask-4.png,s,1,0.335054500028491,none,-5,0,0.0466883999761194,0.048526099883019924,0.0998539999127388,0.09952969988808036,0.7510865000076592
RSVPLG03,TM,20251103-102210,1.0.1,20251020-085245,730,Practice,T1,1,Automatic,main,7,20251103-102254,global,local,300,S,H,E,A,S-E.png,A-H.png,sS,hH,mask-4.png,mask-1.png,s,1,0.4517285998445004,none,-5,0,0.04568509990349412,0.046668600058183074,0.09988639992661774,0.09989070007577538,0.29948029993101954
RSVPLG03,TM,20251103-102210,1.0.1,20251020-085245,730,Practice,T1,1,Automatic,main,8,20251103-102258,global,local,750,S,H,A,A,S-A.png,A-H.png,sS,hH,mask-3.png,mask-3.png,s,1,0.44455199991352856,none,-5,0,0.04772559995763004,0.04849869990721345,0.10000530001707375,0.10040059988386929,0.7498210000339895
RSVPLG03,TM,20251103-102210,1.0.1,20251020-085245,730,Practice,T1,1,Automatic,main,9,20251103-102303,local,local,300,S,S,A,E,A-S.png,E-S.png,sS,sS,mask-2.png,mask-3.png,s,1,0.7328140998724848,none,-5,0,0.047502600122243166,0.0466800001449883,0.09992940002121031,0.09890310000628233,0.3015813999809325
RSVPLG03,TM,20251103-102210,1.0.1,20251020-085245,730,Practice,T1,1,Automatic,main,10,20251103-102307,global,local,750,S,S,E,E,S-E.png,E-S.png,sS,sS,mask-3.png,mask-3.png,s,1,1.472174899885431,none,-5,0,0.047462299931794405,0.047687700018286705,0.09839309984818101,0.10089530004188418,0.749294999986887
RSVPLG03,TM,20251103-102210,1.0.1,20251020-085245,730,Practice,T1,1,Automatic,main,11,20251103-102313,global,global,300,S,H,E,A,S-E.png,H-A.png,sS,hH,mask-2.png,mask-3.png,s,1,0.9767050999216735,none,-5,0,0.04751449986360967,0.0495062000118196,0.10049539990723133,0.1017017001286149,0.29956819978542626
RSVPLG03,TM,20251103-102210,1.0.1,20251020-085245,730,Practice,T1,1,Automatic,main,12,20251103-102317,global,global,300,H,S,E,E,H-E.png,S-E.png,hH,sS,mask-2.png,mask-3.png,h,1,0.9504182001110166,none,-5,0,0.047875900054350495,0.04872870002873242,0.10189189994707704,0.10079480009153485,0.3005484000314027
RSVPLG03,TM,20251103-102210,1.0.1,20251020-085245,730,Practice,T1,1,Automatic,main,13,20251103-102322,local,global,300,S,H,E,A,E-S.png,H-A.png,sS,hH,mask-1.png,mask-2.png,s,1,0.4674706000369042,none,-5,0,0.048197099938988686,0.04649739991873503,0.09987760009244084,0.09852919983677566,0.30225270008668303
RSVPLG03,TM,20251103-102210,1.0.1,20251020-085245,730,Practice,T1,1,Automatic,main,14,20251103-102326,local,local,750,H,S,A,A,A-H.png,A-S.png,hH,sS,mask-3.png,mask-4.png,h,1,0.6766776000149548,none,-5,0,0.046625399962067604,0.04806019994430244,0.09974979981780052,0.100103999953717,0.7494975000154227
RSVPLG03,TM,20251103-102210,1.0.1,20251020-085245,730,Practice,T1,1,Automatic,main,15,20251103-102330,global,global,750,S,S,A,A,S-A.png,S-A.png,sS,sS,mask-3.png,mask-1.png,s,1,0.7116241999901831,none,-5,0,0.04852069984190166,0.04765570000745356,0.10056429984979331,0.09987720008939505,0.7508762998040766
RSVPLG03,TM,20251103-102210,1.0.1,20251020-085245,730,Practice,T1,1,Automatic,main,16,20251103-102335,global,global,750,S,S,A,E,S-A.png,S-E.png,sS,sS,mask-4.png,mask-4.png,s,1,0.4677978998515755,none,-5,0,0.047640200005844235,0.04768129996955395,0.09970039990730584,0.0998490999918431,0.7498184000141919
RSVPLG03,TM,20251103-102518,1.0.1,20251020-085245,730,Introduction,Both,1,Automatic,main,1,20251103-102541,local,local,750,H,S,A,E,A-H.png,E-S.png,hH,sS,mask-3.png,mask-2.png,h,1,1.452091900166124,s,1,1.1880135000683367,0.09894289984367788,0.09856569999828935,0.20202749990858138,0.2003801001701504,0.7519045998342335
RSVPLG03,TM,20251103-102518,1.0.1,20251020-085245,730,Introduction,Both,1,Automatic,main,2,20251103-102548,global,local,750,S,H,A,E,S-A.png,E-H.png,sS,hH,mask-3.png,mask-1.png,s,1,1.5852900999598205,h,1,0.695235799998045,0.0974858000408858,0.09884039987809956,0.2013695000205189,0.20111809996888041,0.7506107999943197
RSVPLG03,TM,20251103-102518,1.0.1,20251020-085245,730,Introduction,Both,1,Automatic,main,3,20251103-102555,local,global,750,S,S,E,E,E-S.png,S-E.png,sS,sS,mask-2.png,mask-2.png,s,1,1.2725152999628335,s,1,0.39517569984309375,0.09751550015062094,0.0992000000551343,0.20038389996625483,0.20187880005687475,0.7497066000942141
RSVPLG03,TM,20251103-102518,1.0.1,20251020-085245,730,Introduction,Both,1,Automatic,main,4,20251103-102601,local,global,750,S,S,E,E,E-S.png,S-E.png,sS,sS,mask-4.png,mask-4.png,s,1,1.1481205997988582,s,1,0.29104619985446334,0.09845469985157251,0.09747410006821156,0.20030339993536472,0.1995914001017809,0.7519705998711288
RSVPLG03,TM,20251103-102518,1.0.1,20251020-085245,730,Introduction,Both,1,Automatic,main,5,20251103-102607,global,global,750,S,S,E,A,S-E.png,S-A.png,sS,sS,mask-1.png,mask-2.png,s,1,1.1073328000493348,s,1,0.37710329983383417,0.09793410007841885,0.09865139983594418,0.20078740012831986,0.20070059993304312,0.7507071001455188
RSVPLG03,TM,20251103-102518,1.0.1,20251020-085245,730,Introduction,Both,1,Automatic,main,6,20251103-102612,local,local,750,S,H,E,E,E-S.png,E-H.png,sS,hH,mask-2.png,mask-4.png,s,1,1.070910600014031,s,0,0.2939748000353575,0.09733689995482564,0.09682570002041757,0.200207999907434,0.19977960013784468,0.7513571998570114
RSVPLG03,TM,20251103-102518,1.0.1,20251020-085245,730,Introduction,Both,1,Automatic,main,7,20251103-102618,global,global,750,H,S,E,E,H-E.png,S-E.png,hH,sS,mask-1.png,mask-2.png,h,1,1.2382078000809997,s,1,0.34705740003846586,0.09768470004200935,0.0984527999535203,0.20068900007754564,0.20129709993489087,0.75183039996773
RSVPLG03,TM,20251103-102518,1.0.1,20251020-085245,730,Introduction,Both,1,Automatic,main,8,20251103-102624,local,local,750,S,S,A,E,A-S.png,E-S.png,sS,sS,mask-1.png,mask-1.png,s,1,1.1536813999991864,s,1,0.10054860007949173,0.09833040018565953,0.09755740012042224,0.20083510014228523,0.20067110005766153,0.7520643000025302
RSVPLG03,TM,20251103-102518,1.0.1,20251020-085245,730,Introduction,Both,1,Automatic,main,9,20251103-102630,global,local,750,S,S,E,A,S-E.png,A-S.png,sS,sS,mask-1.png,mask-4.png,s,1,1.7107478000689298,h,0,0.23681459994986653,0.09759799996390939,0.09657090017572045,0.2014630998019129,0.20060520013794303,0.752269399818033
RSVPLG03,TM,20251103-102518,1.0.1,20251020-085245,730,Introduction,Both,1,Automatic,main,10,20251103-102636,global,global,750,H,S,E,A,H-E.png,S-A.png,hH,sS,mask-3.png,mask-3.png,h,1,1.1168567999266088,s,1,0.21858939994126558,0.09636879991739988,0.09849749994464219,0.19925089995376766,0.20136629999615252,0.7504322999157012
RSVPLG03,TM,20251103-102518,1.0.1,20251020-085245,730,Introduction,Both,1,Automatic,main,11,20251103-102641,local,local,750,S,H,E,E,E-S.png,E-H.png,sS,hH,mask-3.png,mask-3.png,s,1,1.6616828001569957,h,1,0.3547988999634981,0.09737659990787506,0.09670370002277195,0.19912160001695156,0.20054109999909997,0.7510887000244111
RSVPLG03,TM,20251103-102518,1.0.1,20251020-085245,730,Introduction,Both,1,Automatic,main,12,20251103-102648,global,local,750,H,S,A,E,H-A.png,E-S.png,hH,sS,mask-3.png,mask-2.png,h,1,1.2570229000411928,s,1,0.3090317999012768,0.09742680005729198,0.09659890015609562,0.20104430010542274,0.19924760004505515,0.7524943000171334
RSVPLG03,TM,20251103-102518,1.0.1,20251020-085245,730,Introduction,Both,1,Automatic,main,13,20251103-102654,local,global,750,S,S,A,A,A-S.png,S-A.png,sS,sS,mask-2.png,mask-1.png,s,1,1.0688953998032957,s,1,0.2744815999176353,0.09915899997577071,0.09701359993778169,0.20022749993950129,0.200094599975273,0.7519117998890579
RSVPLG03,TM,20251103-102518,1.0.1,20251020-085245,730,Introduction,Both,1,Automatic,main,14,20251103-102659,local,global,750,H,H,A,E,A-H.png,H-E.png,hH,hH,mask-1.png,mask-1.png,h,1,1.125242599984631,h,1,0.25263350014574826,0.09843809995800257,0.09843050013296306,0.20029930002056062,0.20022570015862584,0.7511711998376995
RSVPLG03,TM,20251103-102518,1.0.1,20251020-085245,730,Introduction,Both,1,Automatic,main,15,20251103-102705,global,global,750,S,S,E,E,S-E.png,S-E.png,sS,sS,mask-4.png,mask-4.png,s,1,1.0186199999880046,s,1,0.26877709990367293,0.09851890010759234,0.09841360012069345,0.20141070010140538,0.20131479995325208,0.7512139000464231
RSVPLG03,TM,20251103-102518,1.0.1,20251020-085245,730,Introduction,Both,1,Automatic,main,16,20251103-102711,global,local,750,H,S,A,E,H-A.png,E-S.png,hH,sS,mask-3.png,mask-3.png,h,1,1.2488244997803122,s,1,0.2401878999080509,0.09670279989950359,0.09640779998153448,0.19962550001218915,0.20017570001073182,0.7517580999992788
RSVPLG03,TM,20251103-102758,1.0.1,20251020-085245,730,Practice,Both,1,Automatic,main,1,20251103-102822,local,local,750,H,H,A,A,A-H.png,A-H.png,hH,hH,mask-1.png,mask-1.png,h,1,0.8717191000469029,h,1,0.11890709982253611,0.04034509998746216,0.04665729985572398,0.09152220003306866,0.09981420007534325,0.74218920012936
RSVPLG03,TM,20251103-102758,1.0.1,20251020-085245,730,Practice,Both,1,Automatic,main,2,20251103-102827,local,global,300,H,S,A,A,A-H.png,S-A.png,hH,sS,mask-3.png,mask-3.png,h,1,1.0653915000148118,s,1,0.2049606000073254,0.04756420012563467,0.04744799993932247,0.09961539995856583,0.09931629989296198,0.30087350006215274
RSVPLG03,TM,20251103-102758,1.0.1,20251020-085245,730,Practice,Both,1,Automatic,main,3,20251103-102832,local,global,750,S,S,E,E,E-S.png,S-E.png,sS,sS,mask-4.png,mask-1.png,s,1,1.0241357998456806,s,1,0.18554179999046028,0.04777289996854961,0.04867759998887777,0.09998159995302558,0.10174369998276234,0.7487351999152452
RSVPLG03,TM,20251103-102758,1.0.1,20251020-085245,730,Practice,Both,1,Automatic,main,4,20251103-102837,local,local,750,S,S,A,E,A-S.png,E-S.png,sS,sS,mask-4.png,mask-3.png,s,1,0.8856886001303792,s,1,0.08942770003341138,0.04670379986055195,0.047982800053432584,0.10089490003883839,0.09866530005820096,0.7494389999192208
RSVPLG03,TM,20251103-102758,1.0.1,20251020-085245,730,Practice,Both,1,Automatic,main,5,20251103-102842,local,global,750,S,H,A,E,A-S.png,H-E.png,sS,hH,mask-4.png,mask-1.png,s,1,0.9346804001834244,h,1,0.12343160016462207,0.04751510010100901,0.04829439986497164,0.09852440003305674,0.09850749978795648,0.7486160001717508
RSVPLG03,TM,20251103-102758,1.0.1,20251020-085245,730,Practice,Both,1,Automatic,main,6,20251103-102847,global,global,300,S,S,A,A,S-A.png,S-A.png,sS,sS,mask-1.png,mask-3.png,s,1,1.036272400058806,s,1,0.08925260021351278,0.04730889992788434,0.04669569991528988,0.1003178998362273,0.10066609992645681,0.29928659996949136
RSVPLG03,TM,20251103-102758,1.0.1,20251020-085245,730,Practice,Both,1,Automatic,main,7,20251103-102852,global,local,300,S,H,E,E,S-E.png,E-H.png,sS,hH,mask-2.png,mask-3.png,s,1,1.02499739988707,s,0,0.08963839989155531,0.04655609978362918,0.04880680004134774,0.09995699999853969,0.10092990007251501,0.2990199998021126
RSVPLG03,TM,20251103-102758,1.0.1,20251020-085245,730,Practice,Both,1,Automatic,main,8,20251103-102857,local,local,300,H,S,E,A,E-H.png,A-S.png,hH,sS,mask-1.png,mask-4.png,h,1,1.042339599924162,s,1,0.007244299864396453,0.04729330004192889,0.04775959998369217,0.10029249987564981,0.10067220008932054,0.2995293999556452
RSVPLG03,TM,20251103-102758,1.0.1,20251020-085245,730,Practice,Both,1,Automatic,main,9,20251103-102902,global,global,300,H,H,E,A,H-E.png,H-A.png,hH,hH,mask-4.png,mask-4.png,h,1,0.9269343998748809,h,1,0.09228819981217384,0.047551299910992384,0.047776399878785014,0.09882339998148382,0.09946229984052479,0.29826020007021725
RSVPLG03,TM,20251103-102758,1.0.1,20251020-085245,730,Practice,Both,1,Automatic,main,10,20251103-102906,global,global,750,S,H,E,E,S-E.png,H-E.png,sS,hH,mask-1.png,mask-2.png,s,1,1.0648629998322576,h,1,0.09344449988566339,0.04756550001911819,0.04757679998874664,0.0995819999370724,0.09956709994003177,0.7493219999596477
RSVPLG03,TM,20251103-102758,1.0.1,20251020-085245,730,Practice,Both,1,Automatic,main,11,20251103-102912,local,global,300,H,S,E,A,E-H.png,S-A.png,hH,sS,mask-2.png,mask-4.png,s,0,0.4574076998978853,s,1,0.08568780007772148,0.04772130004130304,0.04773709992878139,0.09978020004928112,0.1009390999097377,0.2991063999943435
RSVPLG03,TM,20251103-102758,1.0.1,20251020-085245,730,Practice,Both,1,Automatic,main,12,20251103-102916,global,local,300,S,H,A,A,S-A.png,A-H.png,sS,hH,mask-1.png,mask-3.png,s,1,0.7735862000845373,h,1,0.02745419996790588,0.04743029992096126,0.04695640015415847,0.10061570000834763,0.10102559998631477,0.3002464999444783
RSVPLG03,TM,20251103-102758,1.0.1,20251020-085245,730,Practice,Both,1,Automatic,main,13,20251103-102920,global,local,750,S,S,A,A,S-A.png,A-S.png,sS,sS,mask-1.png,mask-4.png,s,1,1.0490896999835968,h,0,1.3083994998596609,0.04656590009108186,0.04762810003012419,0.09917529998347163,0.10000599990598857,0.7492380000185221
RSVPLG03,TM,20251103-102758,1.0.1,20251020-085245,730,Practice,Both,1,Automatic,main,14,20251103-102927,global,local,750,H,S,A,E,H-A.png,E-S.png,hH,sS,mask-3.png,mask-2.png,h,1,0.7973042998928577,s,1,0.4232407999224961,0.04752809996716678,0.046914299950003624,0.09958570008166134,0.0993713999632746,0.7499460000544786
RSVPLG03,TM,20251103-102758,1.0.1,20251020-085245,730,Practice,Both,1,Automatic,main,15,20251103-102932,global,global,750,S,H,E,E,S-E.png,H-E.png,sS,hH,mask-3.png,mask-2.png,s,1,0.9513209001161158,h,1,0.3468035999685526,0.048474299954250455,0.04863639990799129,0.10133229987695813,0.10085069993510842,0.7499708998948336
RSVPLG03,TM,20251103-102758,1.0.1,20251020-085245,730,Practice,Both,1,Automatic,main,16,20251103-102938,local,local,300,S,S,E,A,E-S.png,A-S.png,sS,sS,mask-3.png,mask-2.png,s,1,0.9482733998447657,h,0,0.4037537998519838,0.046564599964767694,0.04656499996781349,0.09867669991217554,0.09858799981884658,0.29974210006184876
RSVPLG03,TM,20251103-103021,1.0.1,20251020-085245,730,Experiment,Both,1,Automatic,warmup,1,20251103-103159,global,local,750,S,S,E,E,S-E.png,E-S.png,sS,sS,mask-1.png,mask-4.png,s,1,0.9632665000390261,s,1,0.18863749993033707,0.048330700024962425,0.046505199978128076,0.09989889990538359,0.10058729979209602,0.7495116000063717
RSVPLG03,TM,20251103-103021,1.0.1,20251020-085245,730,Experiment,Both,1,Automatic,warmup,2,20251103-103204,global,global,300,S,H,A,A,S-A.png,H-A.png,sS,hH,mask-1.png,mask-4.png,s,1,1.0879525998607278,h,1,0.3119397999253124,0.047315699979662895,0.04708850011229515,0.1002753998618573,0.09847779991105199,0.2997437999583781
RSVPLG03,TM,20251103-103021,1.0.1,20251020-085245,730,Experiment,Both,1,Automatic,warmup,3,20251103-103209,local,local,300,S,S,A,A,A-S.png,A-S.png,sS,sS,mask-4.png,mask-4.png,s,1,0.6562489999923855,h,0,0.26709360000677407,0.04591519990935922,0.04839390004053712,0.09872470004484057,0.10028659994713962,0.2989026999566704
RSVPLG03,TM,20251103-103021,1.0.1,20251020-085245,730,Experiment,Both,1,Automatic,warmup,4,20251103-103214,global,global,750,H,S,E,E,H-E.png,S-E.png,hH,sS,mask-2.png,mask-3.png,h,1,1.0018233999144286,s,1,0.2914438000880182,0.0464926001150161,0.04803379997611046,0.09939220012165606,0.10096920002251863,0.747189600020647
RSVPLG03,TM,20251103-103021,1.0.1,20251020-085245,730,Experiment,Both,1,Automatic,warmup,5,20251103-103219,local,global,750,H,S,E,A,E-H.png,S-A.png,hH,sS,mask-1.png,mask-2.png,s,0,1.510729999979958,s,1,0.21235790010541677,0.047917400021106005,0.048487700056284666,0.09945930005051196,0.0993522999342531,0.7480611000210047
RSVPLG03,TM,20251103-103021,1.0.1,20251020-085245,730,Experiment,Both,1,Automatic,main,6,20251103-103225,local,local,750,H,H,A,A,A-H.png,A-H.png,hH,hH,mask-3.png,mask-4.png,h,1,1.0324969999492168,h,1,0.2651027000974864,0.04780509998090565,0.04770200001075864,0.10023580002598464,0.10093669989146292,0.747541300021112
RSVPLG03,TM,20251103-103021,1.0.1,20251020-085245,730,Experiment,Both,1,Automatic,main,7,20251103-103231,global,local,750,H,H,E,A,H-E.png,A-H.png,hH,hH,mask-2.png,mask-2.png,h,1,0.7555812001228333,h,1,0.4272193999495357,0.04648769996128976,0.046756599796935916,0.09845739998854697,0.09944949997588992,0.7480749001260847
RSVPLG03,TM,20251103-103021,1.0.1,20251020-085245,730,Experiment,Both,1,Automatic,main,8,20251103-103236,local,global,300,S,S,A,A,A-S.png,S-A.png,sS,sS,mask-1.png,mask-2.png,s,1,0.5420654001645744,s,1,0.3226725999265909,0.046822299947962165,0.04883840004913509,0.09934179997071624,0.10019250004552305,0.2986579998396337
RSVPLG03,TM,20251103-103021,1.0.1,20251020-085245,730,Experiment,Both,1,Automatic,main,9,20251103-103241,global,local,750,H,S,A,A,H-A.png,A-S.png,hH,sS,mask-1.png,mask-3.png,h,1,0.5896261997986585,h,0,0.3286163001321256,0.04789389995858073,0.048236200120300055,0.10013159993104637,0.10053830011747777,0.7478493999224156
RSVPLG03,TM,20251103-103021,1.0.1,20251020-085245,730,Experiment,Both,1,Automatic,main,10,20251103-103246,local,global,750,S,H,E,A,E-S.png,H-A.png,sS,hH,mask-4.png,mask-4.png,s,1,0.8797236999962479,h,1,0.29279370000585914,0.04750220011919737,0.04750009998679161,0.0985497001092881,0.09940030006691813,0.7478607001248747
RSVPLG03,TM,20251103-103021,1.0.1,20251020-085245,730,Experiment,Both,1,Automatic,main,11,20251103-103251,local,global,750,S,S,E,E,E-S.png,S-E.png,sS,sS,mask-1.png,mask-2.png,s,1,0.8614737000316381,s,1,0.2571858998853713,0.04686939995735884,0.047967399936169386,0.09864109987393022,0.10026480001397431,0.7476880999747664
RSVPLG03,TM,20251103-103021,1.0.1,20251020-085245,730,Experiment,Both,1,Automatic,main,12,20251103-103256,global,global,300,H,S,E,E,H-E.png,S-E.png,hH,sS,mask-3.png,mask-3.png,h,1,0.5923069000709802,h,0,0.3766593001782894,0.047524499939754605,0.04620860004797578,0.09972320008091629,0.10027910000644624,0.2999625999946147
RSVPLG03,TM,20251103-103021,1.0.1,20251020-085245,730,Experiment,Both,1,Automatic,main,13,20251103-103301,local,local,300,S,S,A,A,A-S.png,A-S.png,sS,sS,mask-4.png,mask-4.png,s,1,0.6109954998828471,s,1,0.31672800006344914,0.048384000081568956,0.04651789995841682,0.1012283000163734,0.09950340003706515,0.30018560006283224
RSVPLG03,TM,20251103-103021,1.0.1,20251020-085245,730,Experiment,Both,1,Automatic,main,14,20251103-103305,local,local,750,H,S,A,A,A-H.png,A-S.png,hH,sS,mask-4.png,mask-3.png,h,1,1.1069086999632418,h,0,0.3970294001046568,0.047938100062310696,0.04616019991226494,0.1002277999650687,0.09852909995242953,0.7502693000715226
RSVPLG03,TM,20251103-103021,1.0.1,20251020-085245,730,Experiment,Both,1,Automatic,main,15,20251103-103311,local,global,300,S,S,E,E,E-S.png,S-E.png,sS,sS,mask-1.png,mask-3.png,s,1,0.8411522000096738,s,1,0.44118730002082884,0.0477074000518769,0.04701770003885031,0.09869680018164217,0.10113030020147562,0.29859729995951056
RSVPLG03,TM,20251103-103021,1.0.1,20251020-085245,730,Experiment,Both,1,Automatic,main,16,20251103-103316,global,local,300,H,H,A,A,H-A.png,A-H.png,hH,hH,mask-1.png,mask-3.png,h,1,0.7247618001420051,h,1,0.31074050022289157,0.047828900162130594,0.04665150004439056,0.1011653000023216,0.09985480015166104,0.3003811000380665
RSVPLG03,TM,20251103-103021,1.0.1,20251020-085245,730,Experiment,Both,1,Automatic,main,17,20251103-103321,global,global,300,H,S,A,E,H-A.png,S-E.png,hH,sS,mask-2.png,mask-1.png,h,1,0.9233186000492424,s,1,0.23768999986350536,0.04664369998499751,0.04852219996973872,0.10013719997368753,0.10043049999512732,0.29871149989776313
RSVPLG03,TM,20251103-103021,1.0.1,20251020-085245,730,Experiment,Both,1,Automatic,main,18,20251103-103326,global,local,750,S,H,E,E,S-E.png,E-H.png,sS,hH,mask-3.png,mask-4.png,s,1,0.754806200042367,h,1,0.310825000051409,0.04750730004161596,0.0474976000841707,0.10051160003058612,0.10049579991027713,0.7488979001063854
RSVPLG03,TM,20251103-103021,1.0.1,20251020-085245,730,Experiment,Both,1,Automatic,main,19,20251103-103331,global,local,300,S,H,A,E,S-A.png,E-H.png,sS,hH,mask-2.png,mask-3.png,s,1,0.5920990998856723,s,0,0.31786530022509396,0.049134999979287386,0.04861759999766946,0.1001408000010997,0.09976690006442368,0.3004969998728484
RSVPLG03,TM,20251103-103021,1.0.1,20251020-085245,730,Experiment,Both,1,Automatic,main,20,20251103-103335,local,global,750,S,S,E,E,E-S.png,S-E.png,sS,sS,mask-2.png,mask-4.png,s,1,0.8880525999702513,s,1,0.249127599876374,0.046642999863252044,0.047616299940273166,0.09971129987388849,0.09971999982371926,0.7481881000567228
RSVPLG03,TM,20251103-103021,1.0.1,20251020-085245,730,Experiment,Both,1,Automatic,main,21,20251103-103341,global,local,750,H,S,E,E,H-E.png,E-S.png,hH,sS,mask-4.png,mask-1.png,h,1,0.9991055000573397,s,1,0.19334659981541336,0.047740399837493896,0.0475441999733448,0.10090560000389814,0.10029560001567006,0.7486860000062734
RSVPLG03,TM,20251103-103021,1.0.1,20251020-085245,730,Experiment,Both,1,Automatic,main,22,20251103-103346,global,local,300,S,H,A,A,S-A.png,A-H.png,sS,hH,mask-2.png,mask-1.png,s,1,0.5979090000037104,s,0,0.3470148998312652,0.04774619988165796,0.046553200110793114,0.09978569997474551,0.09981580008752644,0.3004079998936504
RSVPLG03,TM,20251103-103021,1.0.1,20251020-085245,730,Experiment,Both,1,Automatic,main,23,20251103-103351,global,local,300,S,S,A,A,S-A.png,A-S.png,sS,sS,mask-2.png,mask-3.png,s,1,1.0455451000016183,h,0,0.2260459999088198,0.04769590008072555,0.04801909998059273,0.1000163999851793,0.10009449999779463,0.2989020000677556
RSVPLG03,TM,20251103-103021,1.0.1,20251020-085245,730,Experiment,Both,1,Automatic,main,24,20251103-103356,global,global,750,S,H,E,E,S-E.png,H-E.png,sS,hH,mask-3.png,mask-3.png,s,1,0.698755000019446,h,1,0.21469820011407137,0.046536399982869625,0.0474972000811249,0.09974039997905493,0.09947070013731718,0.7493315997999161
RSVPLG03,TM,20251103-103021,1.0.1,20251020-085245,730,Experiment,Both,1,Automatic,main,25,20251103-103401,global,global,750,S,S,A,E,S-A.png,S-E.png,sS,sS,mask-3.png,mask-4.png,s,1,0.7833130999933928,s,1,0.26708809984847903,0.04769470007158816,0.047508700052276254,0.09975449997000396,0.10062179993838072,0.7487806999124587
RSVPLG03,TM,20251103-103021,1.0.1,20251020-085245,730,Experiment,Both,1,Automatic,main,26,20251103-103414,global,global,300,S,H,A,E,S-A.png,H-E.png,sS,hH,mask-4.png,mask-2.png,s,1,0.8559063000138849,h,1,0.23636029986664653,0.046401700004935265,0.047574899857863784,0.09977509989403188,0.09940780000761151,0.29888839996419847
RSVPLG03,TM,20251103-103021,1.0.1,20251020-085245,730,Experiment,Both,1,Automatic,main,27,20251103-103419,local,global,300,H,S,A,A,A-H.png,S-A.png,hH,sS,mask-3.png,mask-3.png,h,1,0.5691696000285447,s,1,0.24909489997662604,0.047927699983119965,0.04609429999254644,0.10102639999240637,0.0983519998844713,0.30145350005477667
RSVPLG03,TM,20251103-103021,1.0.1,20251020-085245,730,Experiment,Both,1,Automatic,main,28,20251103-103424,global,global,750,S,H,E,A,S-E.png,H-A.png,sS,hH,mask-4.png,mask-2.png,s,1,0.7841012000571936,h,1,0.23383320006541908,0.047876899829134345,0.047656500013545156,0.1001844999846071,0.09853810002095997,0.7484460999257863
RSVPLG03,TM,20251103-103021,1.0.1,20251020-085245,730,Experiment,Both,1,Automatic,main,29,20251103-103429,global,global,750,H,S,E,E,H-E.png,S-E.png,hH,sS,mask-3.png,mask-4.png,h,1,0.6799739000853151,s,1,0.1916537000797689,0.047550000017508864,0.047326100058853626,0.09963790001347661,0.09954850003123283,0.7484309000428766
RSVPLG03,TM,20251103-103021,1.0.1,20251020-085245,730,Experiment,Both,1,Automatic,main,30,20251103-103434,local,global,750,S,H,E,A,E-S.png,H-A.png,sS,hH,mask-3.png,mask-2.png,s,1,0.4651726000010967,h,1,0.22064609988592565,0.04669529991224408,0.04640959994867444,0.09891419997438788,0.09868369996547699,0.7487991999369115
RSVPLG03,TM,20251103-103021,1.0.1,20251020-085245,730,Experiment,Both,1,Automatic,main,31,20251103-103439,global,global,300,S,H,A,E,S-A.png,H-E.png,sS,hH,mask-4.png,mask-3.png,s,1,0.8235655000898987,h,1,0.14933570008724928,0.048531100153923035,0.04856560006737709,0.10055200010538101,0.10057729994878173,0.2987506000790745
RSVPLG03,TM,20251103-103021,1.0.1,20251020-085245,730,Experiment,Both,1,Automatic,main,32,20251103-103443,global,local,300,S,S,A,A,S-A.png,A-S.png,sS,sS,mask-1.png,mask-2.png,s,1,0.8118124001193792,h,0,0.1700744000263512,0.04653379996307194,0.046918499981984496,0.1001029999461025,0.09988749981857836,0.298751600086689
RSVPLG03,TM,20251103-103021,1.0.1,20251020-085245,730,Experiment,Both,1,Automatic,main,33,20251103-103448,local,local,750,H,S,E,A,E-H.png,A-S.png,hH,sS,mask-3.png,mask-1.png,h,1,0.9215274997986853,h,0,0.20212420006282628,0.046700899954885244,0.046523600118234754,0.0999600999057293,0.09895490016788244,0.749408199917525
RSVPLG03,TM,20251103-103021,1.0.1,20251020-085245,730,Experiment,Both,1,Automatic,main,34,20251103-103453,local,local,750,H,H,A,E,A-H.png,E-H.png,hH,hH,mask-3.png,mask-3.png,h,1,0.710217900108546,s,0,0.19021499995142221,0.04807400004938245,0.04850500007160008,0.10092579992488027,0.0998881000559777,0.7487025000154972
RSVPLG03,TM,20251103-103021,1.0.1,20251020-085245,730,Experiment,Both,1,Automatic,main,35,20251103-103458,local,local,750,S,H,A,E,A-S.png,E-H.png,sS,hH,mask-2.png,mask-4.png,s,1,0.4939584999810904,s,0,0.2529491998720914,0.04755500005558133,0.04774340009316802,0.09991999994963408,0.09986170008778572,0.748304900014773
RSVPLG03,TM,20251103-103021,1.0.1,20251020-085245,730,Experiment,Both,1,Automatic,main,36,20251103-103503,local,global,750,H,H,E,E,E-H.png,H-E.png,hH,hH,mask-1.png,mask-1.png,h,1,0.8064596001058817,h,1,0.18119670008309186,0.046603400027379394,0.04687299998477101,0.09970409981906414,0.09994169999845326,0.747868999838829
RSVPLG03,TM,20251103-103021,1.0.1,20251020-085245,730,Experiment,Both,1,Automatic,main,37,20251103-103508,local,local,300,H,S,A,A,A-H.png,A-S.png,hH,sS,mask-1.png,mask-2.png,h,1,0.7303035999648273,s,1,0.6838098000735044,0.048556899884715676,0.04673750000074506,0.09991819993592799,0.09973790007643402,0.3003233999479562
RSVPLG03,TM,20251103-103021,1.0.1,20251020-085245,730,Experiment,Both,1,Automatic,main,38,20251103-103513,local,global,750,S,H,A,A,A-S.png,H-A.png,sS,hH,mask-3.png,mask-2.png,s,1,0.5850321999751031,h,1,0.06894379993900657,0.04773869994096458,0.044912099838256836,0.10021309996955097,0.09780319989658892,0.7502508000470698
RSVPLG03,TM,20251103-103021,1.0.1,20251020-085245,730,Experiment,Both,1,Automatic,main,39,20251103-103518,local,local,750,S,H,A,A,A-S.png,A-H.png,sS,hH,mask-1.png,mask-3.png,s,1,0.8937906001228839,h,1,0.2172083999030292,0.04854240012355149,0.04676300007849932,0.10057980008423328,0.09952790010720491,0.7485094000585377
RSVPLG03,TM,20251103-103021,1.0.1,20251020-085245,730,Experiment,Both,1,Automatic,main,40,20251103-103523,global,local,750,S,S,E,A,S-E.png,A-S.png,sS,sS,mask-1.png,mask-4.png,s,1,0.8047524001449347,h,0,0.04233550000935793,0.046224300051108,0.04755050013773143,0.10021870001219213,0.1004052001517266,0.7481126999482512
RSVPLG03,TM,20251103-103021,1.0.1,20251020-085245,730,Experiment,Both,1,Automatic,main,41,20251103-103528,local,local,750,S,H,A,A,A-S.png,A-H.png,sS,hH,mask-3.png,mask-4.png,s,1,1.0858672000467777,h,1,0.7441226998344064,0.04568540002219379,0.047878799960017204,0.09890259988605976,0.10008889995515347,0.7477839000057429
RSVPLG03,TM,20251103-103021,1.0.1,20251020-085245,730,Experiment,Both,1,Automatic,main,42,20251103-103534,global,global,300,H,H,E,E,H-E.png,H-E.png,hH,hH,mask-1.png,mask-3.png,h,1,0.912297299830243,h,1,0.2132359000388533,0.046728899935260415,0.0472760999109596,0.09909219993278384,0.10031779995188117,0.2994421999901533
RSVPLG03,TM,20251103-103021,1.0.1,20251020-085245,730,Experiment,Both,1,Automatic,main,43,20251103-103539,local,local,300,H,S,E,E,E-H.png,E-S.png,hH,sS,mask-4.png,mask-2.png,h,1,0.5854177000001073,h,0,0.1952271000482142,0.048883500043302774,0.047302700113505125,0.09984310017898679,0.10034250002354383,0.29976429999805987
RSVPLG03,TM,20251103-103021,1.0.1,20251020-085245,730,Experiment,Both,1,Automatic,main,44,20251103-103543,local,global,300,H,H,E,E,E-H.png,H-E.png,hH,hH,mask-3.png,mask-4.png,h,1,1.1159081000369042,h,1,0.17187369987368584,0.04726010002195835,0.04802469979040325,0.10007750010117888,0.10099949990399182,0.2983038001693785
RSVPLG03,TM,20251103-103021,1.0.1,20251020-085245,730,Experiment,Both,1,Automatic,main,45,20251103-103548,global,global,750,S,S,E,E,S-E.png,S-E.png,sS,sS,mask-2.png,mask-2.png,s,1,0.5308868000283837,s,1,0.266358699882403,0.04777880012989044,0.04851670004427433,0.1007258000317961,0.09954710002057254,0.7482600000221282
RSVPLG03,TM,20251103-103021,1.0.1,20251020-085245,730,Experiment,Both,1,Automatic,main,46,20251103-103553,global,global,300,S,H,E,A,S-E.png,H-A.png,sS,hH,mask-3.png,mask-3.png,s,1,0.7922229999676347,h,1,0.2071956000290811,0.04767540004104376,0.047676000045612454,0.10078929993323982,0.09987940010614693,0.30025029997341335
RSVPLG03,TM,20251103-103021,1.0.1,20251020-085245,730,Experiment,Both,1,Automatic,main,47,20251103-103558,local,global,300,H,S,A,E,A-H.png,S-E.png,hH,sS,mask-2.png,mask-1.png,h,1,0.8040143998805434,s,1,0.16435269988141954,0.04685990000143647,0.046927700052037835,0.09910240001045167,0.10018340009264648,0.29799399990588427
RSVPLG03,TM,20251103-103021,1.0.1,20251020-085245,730,Experiment,Both,1,Automatic,main,48,20251103-103602,local,global,750,H,H,E,A,E-H.png,H-A.png,hH,hH,mask-3.png,mask-4.png,h,1,0.3697146000340581,h,1,0.16911459993571043,0.04634330002591014,0.047306699911132455,0.09945510001853108,0.10034459992311895,0.748500999994576
RSVPLG03,TM,20251103-103021,1.0.1,20251020-085245,730,Experiment,Both,1,Automatic,main,49,20251103-103607,local,local,300,H,S,A,A,A-H.png,A-S.png,hH,sS,mask-2.png,mask-4.png,h,1,0.4621292999945581,h,0,0.17120610014535487,0.04765120008960366,0.047646200051531196,0.10054740007035434,0.10008909995667636,0.2989399000070989
RSVPLG03,TM,20251103-103021,1.0.1,20251020-085245,730,Experiment,Both,1,Automatic,main,50,20251103-103611,local,global,300,S,S,A,A,A-S.png,S-A.png,sS,sS,mask-2.png,mask-3.png,s,1,0.4760670999530703,s,1,0.195015300065279,0.046683100052177906,0.04720219993032515,0.09990689996629953,0.0993518999312073,0.29928450006991625
RSVPLG03,TM,20251103-103021,1.0.1,20251020-085245,730,Experiment,Both,1,Automatic,main,51,20251103-103629,local,global,750,S,H,E,E,E-S.png,H-E.png,sS,hH,mask-1.png,mask-2.png,s,1,0.30657820007763803,h,1,0.13808840001001954,0.04570220015011728,0.04656679998151958,0.09784319996833801,0.09899490000680089,0.7483839001506567
RSVPLG03,TM,20251103-103021,1.0.1,20251020-085245,730,Experiment,Both,1,Automatic,main,52,20251103-103634,local,global,750,S,S,E,E,E-S.png,S-E.png,sS,sS,mask-3.png,mask-3.png,s,1,0.3270803999621421,s,1,0.19608319993130863,0.04870470007881522,0.04728709999471903,0.09985730005428195,0.10016719996929169,0.7491699000820518
RSVPLG03,TM,20251103-103021,1.0.1,20251020-085245,730,Experiment,Both,1,Automatic,main,53,20251103-103638,local,local,300,H,S,E,E,E-H.png,E-S.png,hH,sS,mask-2.png,mask-4.png,h,1,0.3369501999113709,s,1,0.1409638999029994,0.04759540013037622,0.0479178000241518,0.10061960015445948,0.10001319996081293,0.29995260015130043
RSVPLG03,TM,20251103-103021,1.0.1,20251020-085245,730,Experiment,Both,1,Automatic,main,54,20251103-103642,global,local,750,S,H,A,E,S-A.png,E-H.png,sS,hH,mask-3.png,mask-3.png,s,1,0.4381606001406908,s,0,0.14744609990157187,0.04823740012943745,0.04615459986962378,0.10135690006427467,0.1002710999455303,0.7495061000809073
RSVPLG03,TM,20251103-103021,1.0.1,20251020-085245,730,Experiment,Both,1,Automatic,main,55,20251103-103647,local,local,750,S,S,A,A,A-S.png,A-S.png,sS,sS,mask-2.png,mask-4.png,s,1,0.43516600015573204,h,0,0.11865360010415316,0.0464432998560369,0.04659690009430051,0.09929839987307787,0.09972700010985136,0.7483168998733163
RSVPLG03,TM,20251103-103021,1.0.1,20251020-085245,730,Experiment,Both,1,Automatic,main,56,20251103-103652,local,local,300,H,S,E,A,E-H.png,A-S.png,hH,sS,mask-3.png,mask-4.png,h,1,0.5652960001025349,h,0,0.08881350001320243,0.047518699895590544,0.047484799986705184,0.10154760000295937,0.09839229984208941,0.30112419999204576
RSVPLG03,TM,20251103-103021,1.0.1,20251020-085245,730,Experiment,Both,1,Automatic,main,57,20251103-103656,local,local,300,S,H,E,E,E-S.png,E-H.png,sS,hH,mask-2.png,mask-4.png,s,1,0.5663224998861551,h,1,0.29945569997653365,0.04771529999561608,0.046819700160995126,0.099865100113675,0.10002220002934337,0.29897570004686713
RSVPLG03,TM,20251103-103021,1.0.1,20251020-085245,730,Experiment,Both,1,Automatic,main,58,20251103-103701,local,local,300,H,S,A,E,A-H.png,E-S.png,hH,sS,mask-2.png,mask-1.png,h,1,0.45827709999866784,h,0,0.17178250011056662,0.04740100004710257,0.048631299985572696,0.09944580006413162,0.10070879990234971,0.2987907000351697
RSVPLG03,TM,20251103-103021,1.0.1,20251020-085245,730,Experiment,Both,1,Automatic,main,59,20251103-103705,global,local,300,S,H,E,E,S-E.png,E-H.png,sS,hH,mask-1.png,mask-3.png,s,1,0.40005469997413456,s,0,0.20621279999613762,0.046375899808481336,0.04749369993805885,0.09824929991737008,0.09938769997097552,0.29828529991209507
RSVPLG03,TM,20251103-103021,1.0.1,20251020-085245,730,Experiment,Both,1,Automatic,main,60,20251103-103709,global,global,300,H,H,E,A,H-E.png,H-A.png,hH,hH,mask-1.png,mask-4.png,h,1,0.32456879992969334,h,1,0.21849519992247224,0.04651160002686083,0.04760570009239018,0.09853920014575124,0.09989310009405017,0.2984388000331819
RSVPLG03,TM,20251103-103021,1.0.1,20251020-085245,730,Experiment,Both,1,Automatic,main,61,20251103-103713,local,global,750,H,H,A,E,A-H.png,H-E.png,hH,hH,mask-3.png,mask-3.png,h,1,0.34368159994482994,h,1,0.22069550002925098,0.04670390021055937,0.04672349989414215,0.10002250014804304,0.09899260010570288,0.7479338000994176
RSVPLG03,TM,20251103-103021,1.0.1,20251020-085245,730,Experiment,Both,1,Automatic,main,62,20251103-103718,local,local,750,S,S,E,E,E-S.png,E-S.png,sS,sS,mask-1.png,mask-1.png,s,1,0.4213576999027282,s,1,0.22714399988763034,0.04846370010636747,0.04677709983661771,0.0990353999659419,0.10011200001463294,0.7487417000811547
RSVPLG03,TM,20251103-103021,1.0.1,20251020-085245,730,Experiment,Both,1,Automatic,main,63,20251103-103723,local,local,300,H,S,A,A,A-H.png,A-S.png,hH,sS,mask-1.png,mask-2.png,h,1,0.30638980004005134,h,0,0.13755830004811287,0.0469990000128746,0.046579400077462196,0.1000556000508368,0.0996539001353085,0.30037509999237955
RSVPLG03,TM,20251103-103021,1.0.1,20251020-085245,730,Experiment,Both,1,Automatic,main,64,20251103-103727,local,global,300,S,S,E,E,E-S.png,S-E.png,sS,sS,mask-1.png,mask-3.png,s,1,0.38486650004051626,s,1,0.211673199897632,0.046483099926263094,0.04860199987888336,0.09897570009343326,0.09966079983860254,0.29820000007748604
RSVPLG03,TM,20251103-103021,1.0.1,20251020-085245,730,Experiment,Both,1,Automatic,main,65,20251103-103731,local,global,750,S,S,E,E,E-S.png,S-E.png,sS,sS,mask-1.png,mask-4.png,s,1,0.3583374998997897,s,1,0.1016243000049144,0.047995800152421,0.04762699990533292,0.10107300011441112,0.10062619997188449,0.7492891000583768
RSVPLG03,TM,20251103-103021,1.0.1,20251020-085245,730,Experiment,Both,1,Automatic,main,66,20251103-103736,local,local,750,H,H,A,A,A-H.png,A-H.png,hH,hH,mask-2.png,mask-1.png,h,1,0.278633400099352,h,1,0.06919430010020733,0.04846009984612465,0.04671710007824004,0.09946809988468885,0.09964979998767376,0.749659099848941
RSVPLG03,TM,20251103-103021,1.0.1,20251020-085245,730,Experiment,Both,1,Automatic,main,67,20251103-103740,global,global,750,H,H,E,A,H-E.png,H-A.png,hH,hH,mask-4.png,mask-3.png,h,1,0.30358540010638535,h,1,0.03604889987036586,0.0475399000570178,0.047664700075984,0.09842850011773407,0.09947330015711486,0.746848399983719
RSVPLG03,TM,20251103-103021,1.0.1,20251020-085245,730,Experiment,Both,1,Automatic,main,68,20251103-103745,local,global,300,H,H,E,A,E-H.png,H-A.png,hH,hH,mask-2.png,mask-1.png,h,1,0.4356007999740541,h,1,0.06064860010519624,0.04752590018324554,0.04670440009795129,0.09956900007091463,0.09914509998634458,0.29838649998418987
RSVPLG03,TM,20251103-103021,1.0.1,20251020-085245,730,Experiment,Both,1,Automatic,main,69,20251103-103749,global,global,750,H,H,E,A,H-E.png,H-A.png,hH,hH,mask-4.png,mask-2.png,h,1,0.31662719999440014,h,1,0.09666759986430407,0.04738919995725155,0.0474592000246048,0.09936270001344383,0.09944489994086325,0.7488561999052763
RSVPLG03,TM,20251103-103021,1.0.1,20251020-085245,730,Experiment,Both,1,Automatic,main,70,20251103-103753,local,local,750,H,S,A,E,A-H.png,E-S.png,hH,sS,mask-1.png,mask-4.png,h,1,0.4704282998573035,s,1,0.08686410007067025,0.046561599941924214,0.048417000100016594,0.09964270005002618,0.10072809993289411,0.7478245999664068
RSVPLG03,TM,20251103-103021,1.0.1,20251020-085245,730,Experiment,Both,1,Automatic,main,71,20251103-103758,local,global,300,S,S,A,E,A-S.png,S-E.png,sS,sS,mask-2.png,mask-1.png,s,1,0.553400699980557,s,1,0.05638249986805022,0.048658200073987246,0.047743899980559945,0.10144120012409985,0.09894940000958741,0.300834400113672
RSVPLG03,TM,20251103-103021,1.0.1,20251020-085245,730,Experiment,Both,1,Automatic,main,72,20251103-103802,global,local,750,H,H,E,E,H-E.png,E-H.png,hH,hH,mask-1.png,mask-2.png,h,1,0.45875200000591576,h,1,0.04891950008459389,0.04770469991490245,0.04571589990518987,0.09982399991713464,0.09895749995484948,0.749747599940747
RSVPLG03,TM,20251103-103021,1.0.1,20251020-085245,730,Experiment,Both,1,Automatic,main,73,20251103-103807,global,local,300,S,H,E,E,S-E.png,E-H.png,sS,hH,mask-3.png,mask-2.png,s,1,1.3008424998261034,h,1,0.05763779999688268,0.04755489993840456,0.04768539988435805,0.10004389984533191,0.09991089999675751,0.2996517000719905
RSVPLG03,TM,20251103-103021,1.0.1,20251020-085245,730,Experiment,Both,1,Automatic,main,74,20251103-103812,local,local,750,H,H,E,E,E-H.png,E-H.png,hH,hH,mask-2.png,mask-4.png,h,1,0.39545780001208186,h,1,0.061739200027659535,0.047725999960675836,0.04762700013816357,0.09991550003178418,0.09988859994336963,0.7480597000103444
RSVPLG03,TM,20251103-103021,1.0.1,20251020-085245,730,Experiment,Both,1,Automatic,main,75,20251103-103816,global,global,300,H,S,E,E,H-E.png,S-E.png,hH,sS,mask-4.png,mask-1.png,h,1,0.998769500060007,s,1,0.03774570021778345,0.04871940007433295,0.04871700005605817,0.1009638998657465,0.09975150017999113,0.29899799986742437
RSVPLG03,TM,20251103-103021,1.0.1,20251020-085245,730,Experiment,Both,1,Automatic,main,76,20251103-103822,global,local,300,S,S,E,A,S-E.png,A-S.png,sS,sS,mask-4.png,mask-2.png,s,1,0.7744088999461383,h,0,0.0759757999330759,0.047459299908950925,0.047789699863642454,0.09959509992040694,0.10093720001168549,0.29752989998087287
RSVPLG03,TM,20251103-103021,1.0.1,20251020-085245,730,Experiment,Both,1,Automatic,main,77,20251103-103827,local,global,300,S,S,A,A,A-S.png,S-A.png,sS,sS,mask-3.png,mask-4.png,s,1,0.9084194998722523,h,0,0.10163819999434054,0.04753460013307631,0.047520400024950504,0.0997553002089262,0.09960930002853274,0.30024280003271997
RSVPLG03,TM,20251103-103021,1.0.1,20251020-085245,730,Experiment,Both,1,Automatic,main,78,20251103-103831,global,local,750,H,H,A,E,H-A.png,E-H.png,hH,hH,mask-2.png,mask-1.png,h,1,0.3663200999144465,h,1,0.0606432999484241,0.047837099991738796,0.04600479989312589,0.09811150003224611,0.09895340004004538,0.749189600115642
RSVPLG03,TM,20251103-103021,1.0.1,20251020-085245,730,Experiment,Both,1,Automatic,main,79,20251103-103836,local,local,300,S,H,E,A,E-S.png,A-H.png,sS,hH,mask-4.png,mask-2.png,s,1,0.7974978999700397,h,1,0.10407989984378219,0.04754199995659292,0.04741410003043711,0.10057109990157187,0.1004286000970751,0.3001800999045372
RSVPLG03,TM,20251103-103021,1.0.1,20251020-085245,730,Experiment,Both,1,Automatic,main,80,20251103-103841,global,global,300,H,S,E,A,H-E.png,S-A.png,hH,sS,mask-1.png,mask-3.png,h,1,0.5472844999749213,s,1,0.18830549996346235,0.047649099957197905,0.04656110005453229,0.09968059998936951,0.0985777999740094,0.3007857999764383
RSVPLG03,TM,20251103-103021,1.0.1,20251020-085245,730,Experiment,Both,1,Automatic,main,81,20251103-103845,global,global,300,S,S,A,E,S-A.png,S-E.png,sS,sS,mask-1.png,mask-1.png,s,1,0.3802000000141561,s,1,0.06732179992832243,0.04753420013003051,0.04792440007440746,0.10049450001679361,0.1002710999455303,0.2986228000372648
RSVPLG03,TM,20251103-103021,1.0.1,20251020-085245,730,Experiment,Both,1,Automatic,main,82,20251103-103849,global,local,300,S,S,E,A,S-E.png,A-S.png,sS,sS,mask-3.png,mask-3.png,s,1,0.4412666999269277,s,1,0.0723172000143677,0.04839809983968735,0.046715799951925874,0.10098889982327819,0.09920850000344217,0.3007437998894602
RSVPLG03,TM,20251103-103021,1.0.1,20251020-085245,730,Experiment,Both,1,Automatic,main,83,20251103-103853,local,global,300,S,S,A,A,A-S.png,S-A.png,sS,sS,mask-1.png,mask-4.png,s,1,0.5984521000646055,h,0,0.07479119999334216,0.04751030006445944,0.04756710003130138,0.09905369998887181,0.09959489991888404,0.3003760001156479
RSVPLG03,TM,20251103-103021,1.0.1,20251020-085245,730,Experiment,Both,1,Automatic,main,84,20251103-103858,global,local,300,H,H,E,E,H-E.png,E-H.png,hH,hH,mask-1.png,mask-3.png,h,1,0.48144769994542,h,1,0.06862469995394349,0.047487900126725435,0.047867099987342954,0.10005880007520318,0.09994519990868866,0.30022280011326075
RSVPLG03,TM,20251103-103021,1.0.1,20251020-085245,730,Experiment,Both,1,Automatic,main,85,20251103-103902,local,global,750,H,S,E,E,E-H.png,S-E.png,hH,sS,mask-3.png,mask-2.png,h,1,0.5863871998153627,s,1,0.19883399992249906,0.04760499997064471,0.04766929987818003,0.09923500008881092,0.09999879985116422,0.7476520000491291
RSVPLG03,TM,20251103-103021,1.0.1,20251020-085245,730,Experiment,Both,1,Automatic,main,86,20251103-103907,global,local,750,H,H,A,A,H-A.png,A-H.png,hH,hH,mask-1.png,mask-1.png,h,1,0.6118662999942899,h,1,0.06172970007173717,0.047487800009548664,0.045786399859935045,0.10028070001862943,0.09927919995971024,0.750330800190568
RSVPLG03,TM,20251103-103021,1.0.1,20251020-085245,730,Experiment,Both,1,Automatic,main,87,20251103-103911,global,global,300,S,S,E,A,S-E.png,S-A.png,sS,sS,mask-2.png,mask-4.png,s,1,0.3895119000226259,s,1,0.09363449993543327,0.047727900091558695,0.04735359991900623,0.09971079998649657,0.09919469989836216,0.2997926000971347
RSVPLG03,TM,20251103-103021,1.0.1,20251020-085245,730,Experiment,Both,1,Automatic,main,88,20251103-103916,global,local,750,S,S,E,A,S-E.png,A-S.png,sS,sS,mask-2.png,mask-2.png,s,1,0.6131780000869185,s,1,0.06087899999693036,0.04754749988205731,0.04791510012000799,0.10034490004181862,0.10132739995606244,0.7481398999225348
RSVPLG03,TM,20251103-103021,1.0.1,20251020-085245,730,Experiment,Both,1,Automatic,main,89,20251103-103920,local,global,750,S,H,A,A,A-S.png,H-A.png,sS,hH,mask-2.png,mask-3.png,h,0,0.37601220002397895,h,1,0.10549220000393689,0.04725480009801686,0.04764820006676018,0.10015169996768236,0.0994283000472933,0.7484098998829722
RSVPLG03,TM,20251103-103021,1.0.1,20251020-085245,730,Experiment,Both,1,Automatic,main,90,20251103-103925,local,global,300,H,S,E,A,E-H.png,S-A.png,hH,sS,mask-2.png,mask-2.png,h,1,0.4282747998367995,h,0,0.054914799984544516,0.04855539998970926,0.04763619997538626,0.09948470001108944,0.09980629989877343,0.29935830016620457
RSVPLG03,TM,20251103-103021,1.0.1,20251020-085245,730,Experiment,Both,1,Automatic,main,91,20251103-103929,global,local,300,S,H,E,E,S-E.png,E-H.png,sS,hH,mask-3.png,mask-2.png,s,1,0.828514700056985,s,0,0.09750030003488064,0.04868969996459782,0.04852359998039901,0.10088030016049743,0.0998058000113815,0.2987979000899941
RSVPLG03,TM,20251103-103021,1.0.1,20251020-085245,730,Experiment,Both,1,Automatic,main,92,20251103-103934,global,local,750,H,H,E,E,H-E.png,E-H.png,hH,hH,mask-4.png,mask-2.png,h,1,0.40835039992816746,h,1,0.07480249996297061,0.04790450003929436,0.04833010002039373,0.10102020017802715,0.10131990001536906,0.7482275001239032
RSVPLG03,TM,20251103-103021,1.0.1,20251020-085245,730,Experiment,Both,1,Automatic,main,93,20251103-103938,local,local,300,S,H,A,A,A-S.png,A-H.png,sS,hH,mask-3.png,mask-4.png,s,1,0.7766793000046164,h,1,0.07061369996517897,0.04767200001515448,0.04781519994139671,0.09909830009564757,0.09984449995681643,0.29986750008538365
RSVPLG03,TM,20251103-103021,1.0.1,20251020-085245,730,Experiment,Both,1,Automatic,main,94,20251103-103943,global,local,750,H,H,A,E,H-A.png,E-H.png,hH,hH,mask-2.png,mask-1.png,h,1,0.35744070005603135,h,1,0.061943599954247475,0.04619899997487664,0.047734899912029505,0.09899129997938871,0.09884710004553199,0.7485515000298619
RSVPLG03,TM,20251103-103021,1.0.1,20251020-085245,730,Experiment,Both,1,Automatic,main,95,20251103-103947,global,global,750,H,H,A,E,H-A.png,H-E.png,hH,hH,mask-2.png,mask-2.png,h,1,0.2995635000988841,h,1,0.07773740007542074,0.04758900008164346,0.046586399897933006,0.1003133999183774,0.09957109997048974,0.7492172999773175
RSVPLG03,TM,20251103-103021,1.0.1,20251020-085245,730,Experiment,Both,1,Automatic,main,96,20251103-103951,global,global,750,S,S,E,A,S-E.png,S-A.png,sS,sS,mask-2.png,mask-4.png,s,1,0.7127007998060435,s,1,0.11078390013426542,0.04655959992669523,0.046971100149676204,0.09962789993733168,0.09999950020574033,0.7480624997988343
RSVPLG03,TM,20251103-103021,1.0.1,20251020-085245,730,Experiment,Both,1,Automatic,main,97,20251103-103956,global,local,300,S,H,E,A,S-E.png,A-H.png,sS,hH,mask-3.png,mask-4.png,s,1,0.39046350005082786,s,0,0.057958299992606044,0.047302099876105785,0.04827730008400977,0.09913329989649355,0.10048360005021095,0.2984654998872429
RSVPLG03,TM,20251103-103021,1.0.1,20251020-085245,730,Experiment,Both,1,Automatic,main,98,20251103-104000,global,global,300,H,S,A,A,H-A.png,S-A.png,hH,sS,mask-4.png,mask-1.png,h,1,1.0015587999951094,s,1,0.09242340014316142,0.045921599958091974,0.0476889000274241,0.10002729995176196,0.09979859995655715,0.2978815999813378
RSVPLG03,TM,20251103-103021,1.0.1,20251020-085245,730,Experiment,Both,1,Automatic,main,99,20251103-104005,global,global,750,S,H,A,A,S-A.png,H-A.png,sS,hH,mask-4.png,mask-4.png,s,1,0.651837799930945,h,1,0.0731154999230057,0.045621300116181374,0.048556300112977624,0.09869160014204681,0.10056050005368888,0.7475425000302494
RSVPLG03,TM,20251103-103021,1.0.1,20251020-085245,730,Experiment,Both,1,Automatic,main,100,20251103-104010,local,local,750,S,H,A,E,A-S.png,E-H.png,sS,hH,mask-3.png,mask-2.png,s,1,0.3425437998957932,s,0,0.0694599999114871,0.04900519992224872,0.04673429997637868,0.1018507000990212,0.09942979994229972,0.7499432000331581
RSVPLG03,TM,20251103-103021,1.0.1,20251020-085245,730,Experiment,Both,1,Automatic,main,101,20251103-104025,global,local,750,S,S,E,E,S-E.png,E-S.png,sS,sS,mask-4.png,mask-1.png,s,1,0.24842160008847713,s,1,0.0853530999738723,0.04745019995607436,0.047385700047016144,0.10027509997598827,0.1003765999339521,0.7489086999557912
RSVPLG03,TM,20251103-103021,1.0.1,20251020-085245,730,Experiment,Both,1,Automatic,main,102,20251103-104029,local,local,300,S,S,A,A,A-S.png,A-S.png,sS,sS,mask-2.png,mask-3.png,s,1,0.304386000148952,s,1,0.05338479997590184,0.04742580000311136,0.04741649981588125,0.09833529987372458,0.0998494999948889,0.2985465000383556
RSVPLG03,TM,20251103-103021,1.0.1,20251020-085245,730,Experiment,Both,1,Automatic,main,103,20251103-104033,global,global,750,S,H,E,A,S-E.png,H-A.png,sS,hH,mask-4.png,mask-4.png,s,1,0.7948936000466347,h,1,0.1386556001380086,0.045869699912145734,0.04708859999664128,0.09907029988244176,0.1001228999812156,0.7475974999833852
RSVPLG03,TM,20251103-103021,1.0.1,20251020-085245,730,Experiment,Both,1,Automatic,main,104,20251103-104038,local,local,750,S,H,A,A,A-S.png,A-H.png,sS,hH,mask-3.png,mask-1.png,s,1,0.48854709998704493,h,1,0.12965510017238557,0.04773740004748106,0.04689110000617802,0.10081409988924861,0.09981060004793108,0.7489835999440402
RSVPLG03,TM,20251103-103021,1.0.1,20251020-085245,730,Experiment,Both,1,Automatic,main,105,20251103-104043,global,local,750,S,S,E,E,S-E.png,E-S.png,sS,sS,mask-2.png,mask-3.png,s,1,0.4355558999814093,s,1,0.15197939984500408,0.04662630008533597,0.04593409993685782,0.09886250016279519,0.09895989997312427,0.7492291000671685
RSVPLG03,TM,20251103-103021,1.0.1,20251020-085245,730,Experiment,Both,1,Automatic,main,106,20251103-104048,local,global,300,S,H,A,A,A-S.png,H-A.png,sS,hH,mask-1.png,mask-3.png,s,1,0.4777941999491304,h,1,0.10845890012569726,0.04760579997673631,0.046400600112974644,0.09984300006181002,0.09854919998906553,0.29936930001713336
RSVPLG03,TM,20251103-103021,1.0.1,20251020-085245,730,Experiment,Both,1,Automatic,main,107,20251103-104052,global,local,300,H,H,A,E,H-A.png,E-H.png,hH,hH,mask-1.png,mask-2.png,h,1,0.4065287997946143,h,1,0.07056379993446171,0.04769369983114302,0.04660989996045828,0.09978499985300004,0.09958799998275936,0.29949999996460974
RSVPLG03,TM,20251103-103021,1.0.1,20251020-085245,730,Experiment,Both,1,Automatic,main,108,20251103-104056,local,global,750,H,S,A,A,A-H.png,S-A.png,hH,sS,mask-4.png,mask-2.png,h,1,0.4808380000758916,h,0,0.07709569996222854,0.04868600005283952,0.04850509995594621,0.09979630005545914,0.10044700000435114,0.7490539001300931
RSVPLG03,TM,20251103-103021,1.0.1,20251020-085245,730,Experiment,Both,1,Automatic,main,109,20251103-104101,global,local,750,H,H,E,E,H-E.png,E-H.png,hH,hH,mask-3.png,mask-1.png,h,1,0.40908239991404116,h,1,0.05458329990506172,0.046581000089645386,0.04842939996160567,0.09868580009788275,0.10040490003302693,0.746104400139302
RSVPLG03,TM,20251103-103021,1.0.1,20251020-085245,730,Experiment,Both,1,Automatic,main,110,20251103-104105,local,local,300,S,H,A,A,A-S.png,A-H.png,sS,hH,mask-3.png,mask-3.png,h,0,0.45920770009979606,h,1,0.05934000015258789,0.04848370002582669,0.046537999995052814,0.09944960009306669,0.09985110000707209,0.3003688999451697
RSVPLG03,TM,20251103-103021,1.0.1,20251020-085245,730,Experiment,Both,1,Automatic,main,111,20251103-104110,local,local,750,S,H,A,E,A-S.png,E-H.png,sS,hH,mask-4.png,mask-1.png,s,1,0.4433691001031548,h,1,0.10165129997767508,0.046948600094765425,0.04752659983932972,0.09998200018890202,0.10060809995047748,0.7477433001622558
RSVPLG03,TM,20251103-103021,1.0.1,20251020-085245,730,Experiment,Both,1,Automatic,main,112,20251103-104114,global,global,300,H,H,A,E,H-A.png,H-E.png,hH,hH,mask-3.png,mask-2.png,h,1,0.3669575999956578,h,1,0.06750650005415082,0.04752720007672906,0.047524800058454275,0.09852860006503761,0.10052870004437864,0.29792929999530315
RSVPLG03,TM,20251103-103021,1.0.1,20251020-085245,730,Experiment,Both,1,Automatic,main,113,20251103-104118,global,global,300,H,S,E,A,H-E.png,S-A.png,hH,sS,mask-1.png,mask-3.png,h,1,0.427675899816677,s,1,0.10814399993978441,0.04737369995564222,0.04744779993779957,0.10018770000897348,0.09935900010168552,0.29943579994142056
RSVPLG03,TM,20251103-103021,1.0.1,20251020-085245,730,Experiment,Both,1,Automatic,main,114,20251103-104122,global,global,750,H,S,E,A,H-E.png,S-A.png,hH,sS,mask-2.png,mask-1.png,h,1,0.5146679000463337,s,1,0.14466440002433956,0.048274600179865956,0.04757840000092983,0.10015900013968349,0.1001462999265641,0.7491803001612425
RSVPLG03,TM,20251103-103021,1.0.1,20251020-085245,730,Experiment,Both,1,Automatic,main,115,20251103-104127,global,global,300,H,S,E,A,H-E.png,S-A.png,hH,sS,mask-3.png,mask-4.png,h,1,0.39234310016036034,s,1,0.05508279986679554,0.04669509991072118,0.04880689992569387,0.10001459997147322,0.10004669986665249,0.29847240005619824
RSVPLG03,TM,20251103-103021,1.0.1,20251020-085245,730,Experiment,Both,1,Automatic,main,116,20251103-104131,local,local,300,H,H,E,E,E-H.png,E-H.png,hH,hH,mask-4.png,mask-2.png,h,1,0.6533417000900954,s,0,0.09003920014947653,0.04767710017040372,0.046552599873393774,0.09995460021309555,0.09982929984107614,0.2999993001576513
RSVPLG03,TM,20251103-103021,1.0.1,20251020-085245,730,Experiment,Both,1,Automatic,main,117,20251103-104136,local,global,750,H,S,E,E,E-H.png,S-E.png,hH,sS,mask-1.png,mask-2.png,h,1,0.40364350005984306,h,0,0.08322319993749261,0.049605100182816386,0.04947059997357428,0.10217349999584258,0.10150450002402067,0.7486404001247138
RSVPLG03,TM,20251103-103021,1.0.1,20251020-085245,730,Experiment,Both,1,Automatic,main,118,20251103-104140,global,global,750,H,S,A,E,H-A.png,S-E.png,hH,sS,mask-1.png,mask-4.png,h,1,0.355789199937135,s,1,0.2847782999742776,0.04752949997782707,0.04752789996564388,0.0984334999229759,0.09798920014873147,0.7488738999236375
RSVPLG03,TM,20251103-103021,1.0.1,20251020-085245,730,Experiment,Both,1,Automatic,main,119,20251103-104145,global,global,750,H,H,E,E,H-E.png,H-E.png,hH,hH,mask-4.png,mask-4.png,h,1,0.2506835001986474,h,1,0.0514637001324445,0.04563029995188117,0.04633719986304641,0.0986430998891592,0.09871040005236864,0.748159599956125
RSVPLG03,TM,20251103-103021,1.0.1,20251020-085245,730,Experiment,Both,1,Automatic,main,120,20251103-104149,global,local,300,S,H,A,A,S-A.png,A-H.png,sS,hH,mask-3.png,mask-3.png,s,1,0.3915049999486655,s,0,0.28497159993276,0.04775970010086894,0.04773440002463758,0.09958530007861555,0.0991849999409169,0.30002099997363985
RSVPLG03,TM,20251103-103021,1.0.1,20251020-085245,730,Experiment,Both,1,Automatic,main,121,20251103-104154,global,local,300,H,S,A,A,H-A.png,A-S.png,hH,sS,mask-1.png,mask-4.png,h,1,0.3670073999091983,s,1,0.07614100002683699,0.0475063999183476,0.04772870009765029,0.09999520005658269,0.10114010004326701,0.29875239985994995
RSVPLG03,TM,20251103-103021,1.0.1,20251020-085245,730,Experiment,Both,1,Automatic,main,122,20251103-104158,local,local,300,H,H,A,A,A-H.png,A-H.png,hH,hH,mask-4.png,mask-4.png,h,1,0.48326339991763234,h,1,0.20054810005240142,0.04656450008042157,0.04754639999009669,0.09868380008265376,0.09966560010798275,0.300069099990651
RSVPLG03,TM,20251103-103021,1.0.1,20251020-085245,730,Experiment,Both,1,Automatic,main,123,20251103-104202,global,global,750,H,S,A,E,H-A.png,S-E.png,hH,sS,mask-1.png,mask-3.png,h,1,0.6804680000059307,s,1,0.1290738999377936,0.048658099956810474,0.04769870010204613,0.10080259991809726,0.09994350001215935,0.7491039999295026
RSVPLG03,TM,20251103-103021,1.0.1,20251020-085245,730,Experiment,Both,1,Automatic,main,124,20251103-104207,local,global,300,H,S,E,A,E-H.png,S-A.png,hH,sS,mask-3.png,mask-3.png,h,1,0.5185729002114385,s,1,0.11737679992802441,0.047736499924212694,0.04770940006710589,0.10116400010883808,0.10082520009018481,0.3000342999584973
RSVPLG03,TM,20251103-103021,1.0.1,20251020-085245,730,Experiment,Both,1,Automatic,main,125,20251103-104211,local,global,300,S,S,A,A,A-S.png,S-A.png,sS,sS,mask-3.png,mask-3.png,s,1,0.34801440010778606,s,1,0.06094529991969466,0.04868240002542734,0.04675609990954399,0.10087170009501278,0.09881290001794696,0.3006059001199901
RSVPLG03,TM,20251103-104249,1.0.1,20251020-085245,730,Experiment,Both,1,Automatic,warmup,1,20251103-104318,global,local,300,H,S,E,E,H-E.png,E-S.png,hH,sS,mask-4.png,mask-3.png,h,1,0.2504998999647796,s,1,0.06809640000574291,0.04133699997328222,0.046693900134414434,0.09414239996112883,0.0997551002074033,0.2933070999570191
RSVPLG03,TM,20251103-104249,1.0.1,20251020-085245,730,Experiment,Both,1,Automatic,warmup,2,20251103-104322,global,local,750,H,H,A,E,H-A.png,E-H.png,hH,hH,mask-3.png,mask-2.png,h,1,1.0634967000223696,h,1,0.8277141000144184,0.04748369986191392,0.047473200131207705,0.09954829979687929,0.10067149996757507,0.7472297998610884
RSVPLG03,TM,20251103-104249,1.0.1,20251020-085245,730,Experiment,Both,1,Automatic,warmup,3,20251103-104328,local,global,750,S,S,A,E,A-S.png,S-E.png,sS,sS,mask-4.png,mask-3.png,s,1,0.9951503998599946,h,0,0.1655637000221759,0.047607599990442395,0.04570859996601939,0.09872469981200993,0.09817370004020631,0.7483508998993784
RSVPLG03,TM,20251103-104249,1.0.1,20251020-085245,730,Experiment,Both,1,Automatic,warmup,4,20251103-104333,local,local,300,H,H,A,E,A-H.png,E-H.png,hH,hH,mask-1.png,mask-1.png,h,1,0.5550396000035107,h,1,0.21609880006872118,0.047543000197038054,0.04751929990015924,0.09955950011499226,0.098576599964872,0.30023870011791587
RSVPLG03,TM,20251103-104249,1.0.1,20251020-085245,730,Experiment,Both,1,Automatic,warmup,5,20251103-104338,local,local,750,H,H,A,E,A-H.png,E-H.png,hH,hH,mask-2.png,mask-2.png,h,1,0.25913799996487796,h,1,0.21897349995560944,0.046718599973246455,0.04772519995458424,0.0987158000934869,0.09988939994946122,0.7467599001247436
RSVPLG03,TM,20251103-104249,1.0.1,20251020-085245,730,Experiment,Both,1,Automatic,main,6,20251103-104342,local,global,750,H,H,A,E,A-H.png,H-E.png,hH,hH,mask-1.png,mask-3.png,h,1,0.207169100176543,h,1,0.23449319996871054,0.048492199974134564,0.04753410001285374,0.10062679997645319,0.09956089989282191,0.7487749001011252
RSVPLG03,TM,20251103-104249,1.0.1,20251020-085245,730,Experiment,Both,1,Automatic,main,7,20251103-104347,global,local,300,H,S,A,A,H-A.png,A-S.png,hH,sS,mask-4.png,mask-2.png,h,1,0.3580986999440938,h,0,0.2520616000983864,0.04738070000894368,0.04737829999066889,0.10044259997084737,0.09981600008904934,0.298089399933815
RSVPLG03,TM,20251103-104249,1.0.1,20251020-085245,730,Experiment,Both,1,Automatic,main,8,20251103-104351,local,global,300,S,S,A,E,A-S.png,S-E.png,sS,sS,mask-2.png,mask-1.png,s,1,0.9693188997916877,h,0,0.15614840015769005,0.04760989989154041,0.048544200137257576,0.10005689994432032,0.0997055999469012,0.2989965998567641
RSVPLG03,TM,20251103-104249,1.0.1,20251020-085245,730,Experiment,Both,1,Automatic,main,9,20251103-104356,local,local,750,H,S,A,A,A-H.png,A-S.png,hH,sS,mask-1.png,mask-1.png,h,1,0.3570936999749392,s,1,0.21333569986745715,0.046727400040254,0.047086500097066164,0.09908090019598603,0.10100170015357435,0.7460628000553697
RSVPLG03,TM,20251103-104249,1.0.1,20251020-085245,730,Experiment,Both,1,Automatic,main,10,20251103-104400,local,global,750,H,S,E,E,E-H.png,S-E.png,hH,sS,mask-1.png,mask-3.png,h,1,0.32879389985464513,s,1,0.20072099985554814,0.0483583000022918,0.047565999906510115,0.10110559989698231,0.09941609995439649,0.7494636999908835
RSVPLG03,TM,20251103-104249,1.0.1,20251020-085245,730,Experiment,Both,1,Automatic,main,11,20251103-104405,global,global,750,S,H,E,E,S-E.png,H-E.png,sS,hH,mask-2.png,mask-4.png,s,1,0.6901579000987113,h,1,0.07572940015234053,0.04746619984507561,0.04651130014099181,0.10036919987760484,0.09852710017003119,0.7482917997986078
RSVPLG03,TM,20251103-104249,1.0.1,20251020-085245,730,Experiment,Both,1,Automatic,main,12,20251103-104410,local,global,300,H,S,A,A,A-H.png,S-A.png,hH,sS,mask-4.png,mask-4.png,h,1,0.8091376000083983,s,1,0.18383890017867088,0.04557700012810528,0.048578100046142936,0.09899520012550056,0.10036989999935031,0.29775650007650256
RSVPLG03,TM,20251103-104249,1.0.1,20251020-085245,730,Experiment,Both,1,Automatic,main,13,20251103-104415,global,local,300,H,S,A,A,H-A.png,A-S.png,hH,sS,mask-3.png,mask-2.png,h,1,0.40412059985101223,h,0,0.23692930000834167,0.0478556000161916,0.04762840014882386,0.09902910003438592,0.0996535001322627,0.29927619989030063
RSVPLG03,TM,20251103-104249,1.0.1,20251020-085245,730,Experiment,Both,1,Automatic,main,14,20251103-104419,local,local,300,H,S,A,A,A-H.png,A-S.png,hH,sS,mask-2.png,mask-3.png,h,1,0.3452851998154074,s,1,0.2929932000115514,0.04741410003043711,0.04742450010962784,0.10079779988154769,0.09863250004127622,0.300618999870494
RSVPLG03,TM,20251103-104249,1.0.1,20251020-085245,730,Experiment,Both,1,Automatic,main,15,20251103-104423,local,local,750,S,H,A,A,A-S.png,A-H.png,sS,hH,mask-1.png,mask-3.png,s,1,0.1903810000512749,h,1,0.3948417000938207,0.04760079993866384,0.04760799999348819,0.09965979983098805,0.1007065000012517,0.7475159999448806
RSVPLG03,TM,20251103-104249,1.0.1,20251020-085245,730,Experiment,Both,1,Automatic,main,16,20251103-104428,local,local,750,H,H,A,E,A-H.png,E-H.png,hH,hH,mask-3.png,mask-3.png,h,1,0.40273529989644885,h,1,0.1671766999643296,0.047521900152787566,0.047521900152787566,0.09854430006816983,0.10154080018401146,0.7461115999612957
RSVPLG03,TM,20251103-104249,1.0.1,20251020-085245,730,Experiment,Both,1,Automatic,main,17,20251103-104433,local,local,750,H,S,E,E,E-H.png,E-S.png,hH,sS,mask-2.png,mask-2.png,h,1,0.3240507999435067,s,1,0.17106540012173355,0.04751059995032847,0.04749239981174469,0.09956000000238419,0.10056639998219907,0.747652200050652
RSVPLG03,TM,20251103-104249,1.0.1,20251020-085245,730,Experiment,Both,1,Automatic,main,18,20251103-104437,global,local,750,H,S,E,A,H-E.png,A-S.png,hH,sS,mask-1.png,mask-4.png,h,1,0.569805399980396,s,1,0.09235600009560585,0.0473541000392288,0.04749669996090233,0.10023360000923276,0.0995063001755625,0.7482618000358343
RSVPLG03,TM,20251103-104249,1.0.1,20251020-085245,730,Experiment,Both,1,Automatic,main,19,20251103-104442,local,local,300,H,S,A,E,A-H.png,E-S.png,hH,sS,mask-2.png,mask-4.png,h,1,0.36623120005242527,s,1,0.325207999907434,0.047489400021731853,0.04748369986191392,0.0994636001996696,0.09933409979566932,0.2997925002127886
RSVPLG03,TM,20251103-104249,1.0.1,20251020-085245,730,Experiment,Both,1,Automatic,main,20,20251103-104446,global,global,750,H,S,A,A,H-A.png,S-A.png,hH,sS,mask-4.png,mask-2.png,h,1,0.42366559989750385,s,1,0.22880010004155338,0.046533500077202916,0.048584100091829896,0.09955630009062588,0.10041960002854466,0.7459559000562876
RSVPLG03,TM,20251103-104249,1.0.1,20251020-085245,730,Experiment,Both,1,Automatic,main,21,20251103-104451,local,local,300,H,S,A,A,A-H.png,A-S.png,hH,sS,mask-1.png,mask-2.png,h,1,0.38052110001444817,s,1,0.16890130005776882,0.04748089984059334,0.04751339997164905,0.09838519990444183,0.09966480010189116,0.2989327998366207
RSVPLG03,TM,20251103-104249,1.0.1,20251020-085245,730,Experiment,Both,1,Automatic,main,22,20251103-104455,global,local,750,H,H,E,A,H-E.png,A-H.png,hH,hH,mask-2.png,mask-3.png,h,1,0.3275237998459488,h,1,0.18872649990953505,0.04571929993107915,0.047745299991220236,0.09776299982331693,0.09994230000302196,0.7460240998771042
RSVPLG03,TM,20251103-104249,1.0.1,20251020-085245,730,Experiment,Both,1,Automatic,main,23,20251103-104500,global,local,300,S,H,E,A,S-E.png,A-H.png,sS,hH,mask-4.png,mask-3.png,s,1,0.3712365999817848,h,1,0.1524048000574112,0.04771950002759695,0.046761600067839026,0.09992720000445843,0.09900650009512901,0.29860519990324974
RSVPLG03,TM,20251103-104249,1.0.1,20251020-085245,730,Experiment,Both,1,Automatic,main,24,20251103-104504,global,global,300,H,S,E,A,H-E.png,S-A.png,hH,sS,mask-2.png,mask-3.png,h,1,0.48988369992002845,s,1,0.09264129982329905,0.04564619995653629,0.04674099991098046,0.09985590004362166,0.0998972998932004,0.29845190001651645
RSVPLG03,TM,20251103-104249,1.0.1,20251020-085245,730,Experiment,Both,1,Automatic,main,25,20251103-104508,local,local,750,S,H,A,E,A-S.png,E-H.png,sS,hH,mask-3.png,mask-1.png,s,1,0.687459500040859,s,0,0.05608769995160401,0.04696850012987852,0.04657180001959205,0.099994600052014,0.09887810004875064,0.748290800023824
RSVPLG03,TM,20251103-104249,1.0.1,20251020-085245,730,Experiment,Both,1,Automatic,main,26,20251103-104515,local,global,750,S,S,E,A,E-S.png,S-A.png,sS,sS,mask-1.png,mask-3.png,s,1,0.279939099913463,s,1,0.07782459980808198,0.04765580012463033,0.04757010005414486,0.09972910000942647,0.09887490002438426,0.7483236000407487
RSVPLG03,TM,20251103-104249,1.0.1,20251020-085245,730,Experiment,Both,1,Automatic,main,27,20251103-104520,global,local,300,S,S,A,E,S-A.png,E-S.png,sS,sS,mask-3.png,mask-2.png,s,1,0.39752420014701784,s,1,0.07383539993315935,0.0468943000305444,0.04826339986175299,0.09995590010657907,0.09925820003263652,0.29946870007552207
RSVPLG03,TM,20251103-104249,1.0.1,20251020-085245,730,Experiment,Both,1,Automatic,main,28,20251103-104524,global,global,750,S,H,E,E,S-E.png,H-E.png,sS,hH,mask-4.png,mask-1.png,s,1,0.3849722999148071,h,1,0.08631200017407537,0.04760870011523366,0.048449299996718764,0.10022610006853938,0.1005036998540163,0.7477383001241833
RSVPLG03,TM,20251103-104249,1.0.1,20251020-085245,730,Experiment,Both,1,Automatic,main,29,20251103-104528,global,global,300,H,H,E,A,H-E.png,H-A.png,hH,hH,mask-4.png,mask-1.png,h,1,0.3513954000081867,h,1,0.05320069985464215,0.047524900175631046,0.04711729986593127,0.09961899998597801,0.09971349989064038,0.2997706001624465
RSVPLG03,TM,20251103-104249,1.0.1,20251020-085245,730,Experiment,Both,1,Automatic,main,30,20251103-104532,local,global,750,H,S,A,A,A-H.png,S-A.png,hH,sS,mask-2.png,mask-1.png,h,1,0.39226350001990795,s,1,0.061216000001877546,0.048498300136998296,0.047609200002625585,0.10036460007540882,0.099621000001207,0.7487061000429094
RSVPLG03,TM,20251103-104249,1.0.1,20251020-085245,730,Experiment,Both,1,Automatic,main,31,20251103-104537,global,global,750,S,S,E,A,S-E.png,S-A.png,sS,sS,mask-3.png,mask-2.png,s,1,0.32007230003364384,s,1,0.08746650000102818,0.04748329985886812,0.04737650020979345,0.1000879998318851,0.09833270008675754,0.7488312998320907
RSVPLG03,TM,20251103-104249,1.0.1,20251020-085245,730,Experiment,Both,1,Automatic,main,32,20251103-104541,global,local,300,S,H,E,E,S-E.png,E-H.png,sS,hH,mask-1.png,mask-4.png,s,1,0.35005639982409775,s,0,0.07048360002227128,0.04568669991567731,0.04776300000958145,0.0984792998060584,0.10053539997898042,0.2975888999644667
RSVPLG03,TM,20251103-104249,1.0.1,20251020-085245,730,Experiment,Both,1,Automatic,main,33,20251103-104545,local,global,300,H,H,E,E,E-H.png,H-E.png,hH,hH,mask-4.png,mask-1.png,h,1,0.446354900021106,h,1,0.09098790003918111,0.04768359987065196,0.04748809989541769,0.09987179981544614,0.1006632000207901,0.2992380999494344
RSVPLG03,TM,20251103-104249,1.0.1,20251020-085245,730,Experiment,Both,1,Automatic,main,34,20251103-104550,global,global,750,S,H,E,A,S-E.png,H-A.png,sS,hH,mask-4.png,mask-3.png,s,1,0.6267508999444544,h,1,0.02743940008804202,0.047565999906510115,0.04778490005992353,0.09977119998075068,0.09933499991893768,0.7477748999372125
RSVPLG03,TM,20251103-104249,1.0.1,20251020-085245,730,Experiment,Both,1,Automatic,main,35,20251103-104554,global,local,750,S,H,E,A,S-E.png,A-H.png,sS,hH,mask-3.png,mask-3.png,s,1,0.2455313999671489,h,1,0.6531490001361817,0.04752649995498359,0.04617989994585514,0.10053639998659492,0.10037450003437698,0.7484168999362737
RSVPLG03,TM,20251103-104249,1.0.1,20251020-085245,730,Experiment,Both,1,Automatic,main,36,20251103-104559,local,local,300,H,S,E,A,E-H.png,A-S.png,hH,sS,mask-3.png,mask-4.png,h,1,0.36777630005963147,s,1,0.14761999994516373,0.048514399910345674,0.047622200101614,0.09952529985457659,0.09985860018059611,0.2993460998404771
RSVPLG03,TM,20251103-104249,1.0.1,20251020-085245,730,Experiment,Both,1,Automatic,main,37,20251103-104604,local,global,750,H,H,E,E,E-H.png,H-E.png,hH,hH,mask-3.png,mask-1.png,h,1,0.39650010014884174,h,1,0.057360799983143806,0.04701600014232099,0.046696499921381474,0.10016420017927885,0.09932409995235503,0.7475472001824528
RSVPLG03,TM,20251103-104249,1.0.1,20251020-085245,730,Experiment,Both,1,Automatic,main,38,20251103-104608,local,global,300,H,S,E,E,E-H.png,S-E.png,hH,sS,mask-4.png,mask-2.png,h,1,0.5271580000407994,h,0,0.06012329994700849,0.0475019000004977,0.045905600069090724,0.09933310002088547,0.09983490011654794,0.29962379997596145
RSVPLG03,TM,20251103-104249,1.0.1,20251020-085245,730,Experiment,Both,1,Automatic,main,39,20251103-104612,global,global,300,S,H,A,E,S-A.png,H-E.png,sS,hH,mask-3.png,mask-1.png,s,1,0.2734722997993231,h,1,0.11358659993857145,0.047571799950674176,0.047690500039607286,0.09896610002033412,0.09988490003161132,0.3001253998372704
RSVPLG03,TM,20251103-104249,1.0.1,20251020-085245,730,Experiment,Both,1,Automatic,main,40,20251103-104616,local,global,750,S,H,E,E,E-S.png,H-E.png,sS,hH,mask-2.png,mask-3.png,s,1,0.6915591999422759,h,1,0.01077569997869432,0.04749689996242523,0.04828349989838898,0.10053739999420941,0.10106189991347492,0.7479269001632929
RSVPLG03,TM,20251103-104249,1.0.1,20251020-085245,730,Experiment,Both,1,Automatic,main,41,20251103-104621,global,global,300,S,S,E,A,S-E.png,S-A.png,sS,sS,mask-4.png,mask-4.png,s,1,0.31634630006738007,s,1,0.07674499996937811,0.04755180003121495,0.04751059995032847,0.10020489990711212,0.10047669988125563,0.29900890006683767
RSVPLG03,TM,20251103-104249,1.0.1,20251020-085245,730,Experiment,Both,1,Automatic,main,42,20251103-104625,global,global,300,H,H,E,E,H-E.png,H-E.png,hH,hH,mask-4.png,mask-4.png,h,1,0.25911600003018975,h,1,0.07682270021177828,0.045635699992999434,0.04674430005252361,0.09969129995442927,0.09901020000688732,0.2992523000575602
RSVPLG03,TM,20251103-104249,1.0.1,20251020-085245,730,Experiment,Both,1,Automatic,main,43,20251103-104629,global,global,300,H,S,E,A,H-E.png,S-A.png,hH,sS,mask-2.png,mask-4.png,h,1,0.3306974999140948,s,1,0.06017009983770549,0.047244600020349026,0.04875580011866987,0.09947460005059838,0.10100860008969903,0.2975419999565929
RSVPLG03,TM,20251103-104249,1.0.1,20251020-085245,730,Experiment,Both,1,Automatic,main,44,20251103-104633,local,local,750,S,H,E,E,E-S.png,E-H.png,sS,hH,mask-2.png,mask-4.png,s,1,0.752371700014919,s,0,0.05546119995415211,0.04690380021929741,0.04867629986256361,0.09878200013190508,0.0990831998642534,0.7462988002225757
RSVPLG03,TM,20251103-104249,1.0.1,20251020-085245,730,Experiment,Both,1,Automatic,main,45,20251103-104638,global,local,750,S,H,A,A,S-A.png,A-H.png,sS,hH,mask-2.png,mask-2.png,s,1,0.4324451999273151,h,1,0.13046470005065203,0.04739329987205565,0.04758000001311302,0.10032779979519546,0.09868930000811815,0.7486058999784291
RSVPLG03,TM,20251103-104249,1.0.1,20251020-085245,730,Experiment,Both,1,Automatic,main,46,20251103-104643,local,local,750,H,H,A,E,A-H.png,E-H.png,hH,hH,mask-2.png,mask-2.png,h,1,0.6298221999313682,s,0,0.12286120001226664,0.04734820011071861,0.04757579998113215,0.09935929998755455,0.10070249997079372,0.7477835000026971
RSVPLG03,TM,20251103-104249,1.0.1,20251020-085245,730,Experiment,Both,1,Automatic,main,47,20251103-104648,global,global,300,H,S,E,E,H-E.png,S-E.png,hH,sS,mask-4.png,mask-1.png,h,1,0.32168609998188913,s,1,0.139195199823007,0.047647299943491817,0.04759189998731017,0.10003360011614859,0.09965920005925,0.2991140999365598
RSVPLG03,TM,20251103-104249,1.0.1,20251020-085245,730,Experiment,Both,1,Automatic,main,48,20251103-104652,local,local,750,S,S,E,E,E-S.png,E-S.png,sS,sS,mask-1.png,mask-4.png,s,1,0.2220467000734061,s,1,0.07328610005788505,0.046986900037154555,0.04682020004838705,0.10028070001862943,0.09846129990182817,0.74819379998371
RSVPLG03,TM,20251103-104249,1.0.1,20251020-085245,730,Experiment,Both,1,Automatic,main,49,20251103-104656,global,local,750,H,H,A,A,H-A.png,A-H.png,hH,hH,mask-1.png,mask-2.png,h,1,0.24945720005780458,h,1,0.07637569983489811,0.04556549992412329,0.048624200047925115,0.09878470003604889,0.10062339995056391,0.7456072999630123
RSVPLG03,TM,20251103-104249,1.0.1,20251020-085245,730,Experiment,Both,1,Automatic,main,50,20251103-104700,global,local,750,H,S,A,E,H-A.png,E-S.png,hH,sS,mask-1.png,mask-4.png,h,1,0.3803258000407368,s,1,0.15085999993607402,0.04681170010007918,0.0475445999763906,0.0990514000877738,0.09891030006110668,0.748565600020811
RSVPLG03,TM,20251103-104249,1.0.1,20251020-085245,730,Experiment,Both,1,Automatic,main,51,20251103-104707,global,local,300,S,H,A,A,S-A.png,A-H.png,sS,hH,mask-1.png,mask-2.png,s,1,0.3681941998656839,s,0,0.03897370002232492,0.047674600034952164,0.047182099893689156,0.10000169998966157,0.10028709983453155,0.29922919999808073
RSVPLG03,TM,20251103-104249,1.0.1,20251020-085245,730,Experiment,Both,1,Automatic,main,52,20251103-104711,global,local,750,H,H,E,A,H-E.png,A-H.png,hH,hH,mask-3.png,mask-2.png,h,1,0.242010299814865,h,1,0.055373899871483445,0.04775570007041097,0.0476887000259012,0.09974570013582706,0.09989270009100437,0.7469605000223964
RSVPLG03,TM,20251103-104249,1.0.1,20251020-085245,730,Experiment,Both,1,Automatic,main,53,20251103-104715,local,global,750,S,H,E,A,E-S.png,H-A.png,sS,hH,mask-3.png,mask-4.png,s,1,0.3089522998780012,h,1,0.10313699999824166,0.048275499837473035,0.047549499897286296,0.10028449981473386,0.09855030011385679,0.7485338998958468
RSVPLG03,TM,20251103-104249,1.0.1,20251020-085245,730,Experiment,Both,1,Automatic,main,54,20251103-104719,global,local,300,H,H,A,E,H-A.png,E-H.png,hH,hH,mask-1.png,mask-4.png,h,1,0.454935000045225,s,0,0.09354649996384978,0.0457185001578182,0.04772020014934242,0.09889520006254315,0.1001188000664115,0.2976621000561863
RSVPLG03,TM,20251103-104249,1.0.1,20251020-085245,730,Experiment,Both,1,Automatic,main,55,20251103-104724,local,global,300,H,S,E,A,E-H.png,S-A.png,hH,sS,mask-3.png,mask-2.png,s,0,0.4999493998475373,s,1,0.05350220017135143,0.04750810004770756,0.04763639997690916,0.10151659999974072,0.09952159994281828,0.29997560009360313
RSVPLG03,TM,20251103-104249,1.0.1,20251020-085245,730,Experiment,Both,1,Automatic,main,56,20251103-104728,global,global,300,S,S,A,A,S-A.png,S-A.png,sS,sS,mask-3.png,mask-1.png,s,1,0.410367599921301,s,1,0.0439240001142025,0.04645999986678362,0.04756399989128113,0.09855580003932118,0.10145499999634922,0.29780429997481406
RSVPLG03,TM,20251103-104249,1.0.1,20251020-085245,730,Experiment,Both,1,Automatic,main,57,20251103-104732,local,global,300,H,S,A,E,A-H.png,S-E.png,hH,sS,mask-1.png,mask-3.png,h,1,0.3446799998637289,s,1,0.12513469997793436,0.0471943998709321,0.04868729994632304,0.09895559982396662,0.09977580001577735,0.29897719994187355
RSVPLG03,TM,20251103-104249,1.0.1,20251020-085245,730,Experiment,Both,1,Automatic,main,58,20251103-104736,global,local,750,S,H,E,A,S-E.png,A-H.png,sS,hH,mask-1.png,mask-2.png,s,1,0.2509355000220239,h,1,0.05858709989115596,0.046398399863392115,0.047551500145345926,0.09947640006430447,0.10056940000504255,0.7469102998729795
RSVPLG03,TM,20251103-104249,1.0.1,20251020-085245,730,Experiment,Both,1,Automatic,main,59,20251103-104740,local,local,750,H,H,E,E,E-H.png,E-H.png,hH,hH,mask-1.png,mask-4.png,h,1,0.36232019984163344,h,1,0.05441759992390871,0.04738919995725155,0.04752789996564388,0.09988650004379451,0.09950360003858805,0.7474539999384433
RSVPLG03,TM,20251103-104249,1.0.1,20251020-085245,730,Experiment,Both,1,Automatic,main,60,20251103-104745,local,global,750,H,S,E,E,E-H.png,S-E.png,hH,sS,mask-4.png,mask-2.png,s,0,0.3849289999343455,s,1,0.06816959986463189,0.0464969000313431,0.04865920008160174,0.09875690005719662,0.10164980008266866,0.7466583999339491
RSVPLG03,TM,20251103-104249,1.0.1,20251020-085245,730,Experiment,Both,1,Automatic,main,61,20251103-104749,global,local,750,S,H,A,E,S-A.png,E-H.png,sS,hH,mask-4.png,mask-3.png,s,1,0.45672899996861815,s,0,0.056836399948224425,0.04736809991300106,0.044398700119927526,0.1005571000277996,0.09752999991178513,0.7493199999444187
RSVPLG03,TM,20251103-104249,1.0.1,20251020-085245,730,Experiment,Both,1,Automatic,main,62,20251103-104754,global,local,300,H,H,A,A,H-A.png,A-H.png,hH,hH,mask-1.png,mask-4.png,h,1,0.6907585998997092,h,1,0.10427280003204942,0.04817580012604594,0.047093499917536974,0.10135730006732047,0.09875199990347028,0.29960300005041063
RSVPLG03,TM,20251103-104249,1.0.1,20251020-085245,730,Experiment,Both,1,Automatic,main,63,20251103-104759,local,local,750,S,S,A,E,A-S.png,E-S.png,sS,sS,mask-1.png,mask-4.png,s,1,0.30013729981146753,s,1,0.06891450006514788,0.04746589995920658,0.04765640012919903,0.10029929992742836,0.09910340001806617,0.7478751998860389
RSVPLG03,TM,20251103-104249,1.0.1,20251020-085245,730,Experiment,Both,1,Automatic,main,64,20251103-104803,global,local,300,S,H,A,E,S-A.png,E-H.png,sS,hH,mask-2.png,mask-1.png,s,1,0.4508394000586122,s,0,0.05988579988479614,0.04850319982506335,0.04851580015383661,0.10054599982686341,0.0998498999979347,0.29881359986029565
RSVPLG03,TM,20251103-104249,1.0.1,20251020-085245,730,Experiment,Both,1,Automatic,main,65,20251103-104807,local,local,300,S,H,E,E,E-S.png,E-H.png,sS,hH,mask-4.png,mask-2.png,s,1,0.5201320999767631,s,0,0.10083819995634258,0.04665419994853437,0.046647199895232916,0.0995917001273483,0.09983580000698566,0.2993976001162082
RSVPLG03,TM,20251103-104249,1.0.1,20251020-085245,730,Experiment,Both,1,Automatic,main,66,20251103-104811,local,local,750,H,H,A,E,A-H.png,E-H.png,hH,hH,mask-1.png,mask-3.png,s,0,0.29993360000662506,h,1,0.015628699911758304,0.047819299856200814,0.04670920013450086,0.09954079985618591,0.09900010004639626,0.7485803999006748
RSVPLG03,TM,20251103-104249,1.0.1,20251020-085245,730,Experiment,Both,1,Automatic,main,67,20251103-104816,local,global,750,H,H,E,E,E-H.png,H-E.png,hH,hH,mask-2.png,mask-2.png,h,1,0.541226299945265,h,1,0.05488259997218847,0.046721599996089935,0.047566400142386556,0.09838370000943542,0.09958540019579232,0.7475625998340547
RSVPLG03,TM,20251103-104249,1.0.1,20251020-085245,730,Experiment,Both,1,Automatic,main,68,20251103-104821,local,global,750,H,H,E,E,E-H.png,H-E.png,hH,hH,mask-4.png,mask-2.png,h,1,0.4103240999393165,h,1,0.04880119999870658,0.04749679984524846,0.04653270007111132,0.1009443998336792,0.09997550002299249,0.7488997997716069
RSVPLG03,TM,20251103-104249,1.0.1,20251020-085245,730,Experiment,Both,1,Automatic,main,69,20251103-104825,global,local,750,S,S,E,A,S-E.png,A-S.png,sS,sS,mask-1.png,mask-1.png,s,1,0.21549740014597774,s,1,0.036312400130555034,0.04787339991889894,0.045525799971073866,0.10082569997757673,0.09864209988154471,0.7492285999469459
RSVPLG03,TM,20251103-104249,1.0.1,20251020-085245,730,Experiment,Both,1,Automatic,main,70,20251103-104829,global,global,750,S,S,A,A,S-A.png,S-A.png,sS,sS,mask-2.png,mask-4.png,s,1,0.18945599999278784,s,1,0.054671499878168106,0.048052400117740035,0.04703480005264282,0.10040000011213124,0.09879000019282103,0.7478734999895096
RSVPLG03,TM,20251103-104249,1.0.1,20251020-085245,730,Experiment,Both,1,Automatic,main,71,20251103-104834,local,local,300,S,S,E,E,E-S.png,E-S.png,sS,sS,mask-3.png,mask-4.png,s,1,0.3656446998938918,s,1,0.03446550015360117,0.04797459999099374,0.0487118000164628,0.09993780008517206,0.09924350003711879,0.29956369986757636
RSVPLG03,TM,20251103-104249,1.0.1,20251020-085245,730,Experiment,Both,1,Automatic,main,72,20251103-104838,local,global,300,S,H,A,A,A-S.png,H-A.png,sS,hH,mask-4.png,mask-1.png,h,0,0.4070987000595778,h,1,0.04449460003525019,0.0467272000387311,0.047372200060635805,0.09917649999260902,0.09970870008692145,0.2991984998807311
RSVPLG03,TM,20251103-104249,1.0.1,20251020-085245,730,Experiment,Both,1,Automatic,main,73,20251103-104842,global,global,750,S,H,E,A,S-E.png,H-A.png,sS,hH,mask-3.png,mask-4.png,s,1,0.4307089999783784,h,1,0.09741659997962415,0.047675800044089556,0.0475208000279963,0.09989519999362528,0.10056010005064309,0.7473728000186384
RSVPLG03,TM,20251103-104249,1.0.1,20251020-085245,730,Experiment,Both,1,Automatic,main,74,20251103-104847,global,global,300,H,H,A,E,H-A.png,H-E.png,hH,hH,mask-2.png,mask-4.png,h,1,0.213876600144431,h,1,0.05612490000203252,0.04561659996397793,0.04889569990336895,0.09986680001020432,0.09998989989981055,0.29762880015186965
RSVPLG03,TM,20251103-104249,1.0.1,20251020-085245,730,Experiment,Both,1,Automatic,main,75,20251103-104851,global,local,300,H,H,E,E,H-E.png,E-H.png,hH,hH,mask-4.png,mask-2.png,h,1,0.3033276000060141,h,1,0.054266100050881505,0.04742670012637973,0.04839599994011223,0.10130280000157654,0.10046350001357496,0.29957920010201633
RSVPLG03,TM,20251103-104249,1.0.1,20251020-085245,730,Experiment,Both,1,Automatic,main,76,20251103-104859,global,local,300,S,H,E,E,S-E.png,E-H.png,sS,hH,mask-1.png,mask-4.png,s,1,0.3032464000862092,s,0,0.05838440009392798,0.04770060000009835,0.045715499902144074,0.09994230000302196,0.09934399998746812,0.30051490012556314
RSVPLG03,TM,20251103-104249,1.0.1,20251020-085245,730,Experiment,Both,1,Automatic,main,77,20251103-104903,local,global,300,H,S,E,A,E-H.png,S-A.png,hH,sS,mask-4.png,mask-1.png,h,1,0.29855530010536313,s,1,0.0273416000418365,0.04697020002640784,0.047680099960416555,0.0981712001375854,0.10005689994432032,0.2976659000851214
RSVPLG03,TM,20251103-104249,1.0.1,20251020-085245,730,Experiment,Both,1,Automatic,main,78,20251103-104907,global,local,300,H,H,A,E,H-A.png,E-H.png,hH,hH,mask-4.png,mask-2.png,h,1,0.37037579994648695,h,1,0.04164889990352094,0.04704590002074838,0.04752829996868968,0.10033950000070035,0.10059569985605776,0.29942370019853115
RSVPLG03,TM,20251103-104249,1.0.1,20251020-085245,730,Experiment,Both,1,Automatic,main,79,20251103-104911,local,global,300,S,S,A,A,A-S.png,S-A.png,sS,sS,mask-1.png,mask-4.png,s,1,0.4326630001887679,h,0,0.1330844999756664,0.04661690001375973,0.04760399996303022,0.09923589997924864,0.10060460004024208,0.29801809997297823
RSVPLG03,TM,20251103-104249,1.0.1,20251020-085245,730,Experiment,Both,1,Automatic,main,80,20251103-104916,global,local,300,H,S,E,A,H-E.png,A-S.png,hH,sS,mask-3.png,mask-4.png,h,1,0.3748778000008315,h,0,0.04291360010392964,0.04769010003656149,0.047486199997365475,0.09988610004074872,0.09969369997270405,0.29830090003088117
RSVPLG03,TM,20251103-104249,1.0.1,20251020-085245,730,Experiment,Both,1,Automatic,main,81,20251103-104920,global,global,750,S,S,E,A,S-E.png,S-A.png,sS,sS,mask-3.png,mask-3.png,s,1,0.2889026999473572,s,1,0.059843899914994836,0.048405000008642673,0.048444899963214993,0.101289700018242,0.0999541999772191,0.747632100014016
RSVPLG03,TM,20251103-104249,1.0.1,20251020-085245,730,Experiment,Both,1,Automatic,main,82,20251103-104924,global,local,750,H,S,E,E,H-E.png,E-S.png,hH,sS,mask-2.png,mask-1.png,h,1,0.32364469999447465,s,1,0.058194899931550026,0.047530699986964464,0.04753000009804964,0.1006436999887228,0.09952499996870756,0.7483037000056356
RSVPLG03,TM,20251103-104249,1.0.1,20251020-085245,730,Experiment,Both,1,Automatic,main,83,20251103-104928,global,local,750,S,H,E,A,S-E.png,A-H.png,sS,hH,mask-3.png,mask-1.png,s,1,0.2850345999468118,s,0,0.038533799815922976,0.047843300038948655,0.04766479996033013,0.10006389999762177,0.09969999990426004,0.7477404000237584
RSVPLG03,TM,20251103-104249,1.0.1,20251020-085245,730,Experiment,Both,1,Automatic,main,84,20251103-104933,local,global,750,S,S,A,E,A-S.png,S-E.png,sS,sS,mask-1.png,mask-2.png,s,1,0.2542705999221653,s,1,0.05541119980625808,0.047468600096181035,0.047582700150087476,0.10037590004503727,0.1006865999661386,0.7478334999177605
RSVPLG03,TM,20251103-104249,1.0.1,20251020-085245,730,Experiment,Both,1,Automatic,main,85,20251103-104937,local,local,300,H,S,A,A,A-H.png,A-S.png,hH,sS,mask-2.png,mask-1.png,h,1,0.24471930018626153,h,0,0.05823459988459945,0.049422699958086014,0.048515799921005964,0.10142709990032017,0.09975839988328516,0.2996233000885695
RSVPLG03,TM,20251103-104249,1.0.1,20251020-085245,730,Experiment,Both,1,Automatic,main,86,20251103-104941,local,global,300,H,S,E,A,E-H.png,S-A.png,hH,sS,mask-4.png,mask-2.png,h,1,0.43827600008808076,s,1,0.05359399993903935,0.04719659988768399,0.048671500058844686,0.09906069980934262,0.10143220005556941,0.29847919987514615
RSVPLG03,TM,20251103-104249,1.0.1,20251020-085245,730,Experiment,Both,1,Automatic,main,87,20251103-104945,local,local,750,H,S,E,A,E-H.png,A-S.png,hH,sS,mask-2.png,mask-4.png,h,1,0.42648499994538724,h,0,0.09735399996861815,0.047527800081297755,0.04852089984342456,0.09962630015797913,0.10054069990292192,0.7474973001517355
RSVPLG03,TM,20251103-104249,1.0.1,20251020-085245,730,Experiment,Both,1,Automatic,main,88,20251103-104950,local,local,300,S,H,A,E,A-S.png,E-H.png,sS,hH,mask-4.png,mask-2.png,s,1,0.5140458000823855,h,1,0.03821530006825924,0.047434400068596005,0.047341300174593925,0.09937550011090934,0.0991097001824528,0.299424699973315
RSVPLG03,TM,20251103-104249,1.0.1,20251020-085245,730,Experiment,Both,1,Automatic,main,89,20251103-104954,local,global,300,H,H,E,A,E-H.png,H-A.png,hH,hH,mask-4.png,mask-1.png,h,1,0.6098825000226498,h,1,0.09023649990558624,0.049373599933460355,0.04719660012051463,0.10025090002454817,0.10037870006635785,0.30004619993269444
RSVPLG03,TM,20251103-104249,1.0.1,20251020-085245,730,Experiment,Both,1,Automatic,main,90,20251103-104958,global,global,750,H,H,E,E,H-E.png,H-E.png,hH,hH,mask-3.png,mask-1.png,h,1,0.2540553000289947,h,1,0.04255599994212389,0.04769330006092787,0.047490600030869246,0.10088180005550385,0.09967959998175502,0.7484538999851793
RSVPLG03,TM,20251103-104249,1.0.1,20251020-085245,730,Experiment,Both,1,Automatic,main,91,20251103-105003,global,global,750,S,S,E,E,S-E.png,S-E.png,sS,sS,mask-3.png,mask-2.png,s,1,0.1915449001826346,s,1,0.060391300125047565,0.047293500043451786,0.047374899964779615,0.09958769986405969,0.09957999992184341,0.7461530000437051
RSVPLG03,TM,20251103-104249,1.0.1,20251020-085245,730,Experiment,Both,1,Automatic,main,92,20251103-105007,local,local,300,S,H,A,A,A-S.png,A-H.png,sS,hH,mask-2.png,mask-3.png,h,0,0.3269998000469059,h,1,0.043210700154304504,0.04571110010147095,0.048663900000974536,0.09793590009212494,0.0997055999469012,0.2972281000111252
RSVPLG03,TM,20251103-104249,1.0.1,20251020-085245,730,Experiment,Both,1,Automatic,main,93,20251103-105011,global,global,300,S,H,A,A,S-A.png,H-A.png,sS,hH,mask-3.png,mask-2.png,s,1,0.4172356000635773,s,0,0.04168060002848506,0.0475443999748677,0.04753310000523925,0.10055780014954507,0.09892300004139543,0.2998160000424832
RSVPLG03,TM,20251103-104249,1.0.1,20251020-085245,730,Experiment,Both,1,Automatic,main,94,20251103-105015,local,local,300,H,S,E,E,E-H.png,E-S.png,hH,sS,mask-4.png,mask-2.png,h,1,0.39437080011703074,s,1,0.309113800060004,0.048511500004678965,0.04604519996792078,0.10058009997010231,0.09902639989741147,0.2996473000384867
RSVPLG03,TM,20251103-104249,1.0.1,20251020-085245,730,Experiment,Both,1,Automatic,main,95,20251103-105020,local,global,750,H,S,A,A,A-H.png,S-A.png,hH,sS,mask-3.png,mask-3.png,h,1,0.3177819000557065,s,1,0.9186629999894649,0.04752389993518591,0.04647900001145899,0.09854239993728697,0.09813449997454882,0.7473128000274301
RSVPLG03,TM,20251103-104249,1.0.1,20251020-085245,730,Experiment,Both,1,Automatic,main,96,20251103-105025,local,local,750,S,S,A,E,A-S.png,E-S.png,sS,sS,mask-1.png,mask-4.png,s,1,0.48407689994201064,s,1,0.07458969997242093,0.04800559999421239,0.04868220002390444,0.10026860004290938,0.09981489996425807,0.7468564000446349
RSVPLG03,TM,20251103-104249,1.0.1,20251020-085245,730,Experiment,Both,1,Automatic,main,97,20251103-105030,global,local,300,S,S,E,A,S-E.png,A-S.png,sS,sS,mask-3.png,mask-2.png,s,1,0.5539267000276595,s,1,0.07693649991415441,0.04653759999200702,0.04740679985843599,0.0985686001367867,0.10019050003029406,0.2986056001391262
RSVPLG03,TM,20251103-104249,1.0.1,20251020-085245,730,Experiment,Both,1,Automatic,main,98,20251103-105034,global,global,750,H,S,E,A,H-E.png,S-A.png,hH,sS,mask-4.png,mask-4.png,h,1,0.18859259993769228,s,1,0.02828820003196597,0.047544100088998675,0.047552699921652675,0.09956649993546307,0.10056290007196367,0.7482312000356615
RSVPLG03,TM,20251103-104249,1.0.1,20251020-085245,730,Experiment,Both,1,Automatic,main,99,20251103-105038,local,global,750,H,S,A,A,A-H.png,S-A.png,hH,sS,mask-4.png,mask-3.png,h,1,0.10580960009247065,s,1,0.21462949994020164,0.04857719992287457,0.04861900000832975,0.10165120009332895,0.101142100058496,0.7477826999966055
RSVPLG03,TM,20251103-104249,1.0.1,20251020-085245,730,Experiment,Both,1,Automatic,main,100,20251103-105043,global,global,750,H,H,E,A,H-E.png,H-A.png,hH,hH,mask-1.png,mask-2.png,h,1,0.2525669999886304,h,1,0.07776719983667135,0.04746859986335039,0.04880329989828169,0.0997248999774456,0.10130139999091625,0.7472077000420541
RSVPLG03,TM,20251103-104249,1.0.1,20251020-085245,730,Experiment,Both,1,Automatic,main,101,20251103-105048,local,global,300,H,S,E,E,E-H.png,S-E.png,hH,sS,mask-2.png,mask-1.png,h,1,0.25504419999197125,h,0,0.03959650010801852,0.04766559996642172,0.04768710001371801,0.09990519983693957,0.0998931999783963,0.30027109989896417
RSVPLG03,TM,20251103-104249,1.0.1,20251020-085245,730,Experiment,Both,1,Automatic,main,102,20251103-105052,global,global,300,H,H,A,A,H-A.png,H-A.png,hH,hH,mask-4.png,mask-3.png,h,1,0.2730203999672085,h,1,0.05867790011689067,0.04661679989658296,0.04772010003216565,0.09942979994229972,0.0990311000496149,0.29883200000040233
RSVPLG03,TM,20251103-104249,1.0.1,20251020-085245,730,Experiment,Both,1,Automatic,main,103,20251103-105056,local,local,750,H,S,A,A,A-H.png,A-S.png,hH,sS,mask-2.png,mask-4.png,h,1,0.3065861000213772,s,1,0.16700659994967282,0.04874289990402758,0.04654699983075261,0.10068459995090961,0.09964019991457462,0.7494620999787003
RSVPLG03,TM,20251103-104249,1.0.1,20251020-085245,730,Experiment,Both,1,Automatic,main,104,20251103-105101,local,local,750,H,H,E,A,E-H.png,A-H.png,hH,hH,mask-2.png,mask-3.png,h,1,0.24068189994432032,h,1,0.053769199876114726,0.04830950009636581,0.04659260017797351,0.10029729991219938,0.09857400017790496,0.7486423999071121
RSVPLG03,TM,20251103-104249,1.0.1,20251020-085245,730,Experiment,Both,1,Automatic,main,105,20251103-105105,global,global,750,S,H,A,E,S-A.png,H-E.png,sS,hH,mask-2.png,mask-4.png,s,1,0.2753326001111418,h,1,0.08421229990199208,0.04684379999525845,0.04867699998430908,0.09965849993750453,0.10089000011794269,0.747814399888739
RSVPLG03,TM,20251103-104249,1.0.1,20251020-085245,730,Experiment,Both,1,Automatic,main,106,20251103-105109,local,local,300,H,H,E,E,E-H.png,E-H.png,hH,hH,mask-3.png,mask-4.png,h,1,0.26400560000911355,s,0,0.1332985998596996,0.045647399965673685,0.04782340000383556,0.09985619992949069,0.0991416999604553,0.29786420008167624
RSVPLG03,TM,20251103-104249,1.0.1,20251020-085245,730,Experiment,Both,1,Automatic,main,107,20251103-105114,local,local,300,S,S,E,A,E-S.png,A-S.png,sS,sS,mask-4.png,mask-4.png,h,0,0.25863850000314415,s,1,0.06736669992096722,0.047679999843239784,0.04668730008415878,0.09989569988101721,0.09898389992304146,0.3005788999143988
RSVPLG03,TM,20251103-104249,1.0.1,20251020-085245,730,Experiment,Both,1,Automatic,main,108,20251103-105118,local,global,300,H,H,E,E,E-H.png,H-E.png,hH,hH,mask-4.png,mask-3.png,h,1,0.3576801000162959,s,0,0.17352149984799325,0.04736119997687638,0.04646169999614358,0.09981480007991195,0.09974039997905493,0.3002873999066651
RSVPLG03,TM,20251103-104249,1.0.1,20251020-085245,730,Experiment,Both,1,Automatic,main,109,20251103-105122,local,global,300,S,S,A,E,A-S.png,S-E.png,sS,sS,mask-1.png,mask-2.png,s,1,0.32827570009976625,s,1,0.05643570004031062,0.04679380008019507,0.04607139993458986,0.09882649988867342,0.09913049987517297,0.29928190005011857
RSVPLG03,TM,20251103-104249,1.0.1,20251020-085245,730,Experiment,Both,1,Automatic,main,110,20251103-105126,global,global,750,S,S,A,A,S-A.png,S-A.png,sS,sS,mask-3.png,mask-2.png,s,1,0.22609269991517067,s,1,0.04201509989798069,0.04851350001990795,0.04760400019586086,0.10059739998541772,0.0996307001914829,0.7477784999646246
RSVPLG03,TM,20251103-104249,1.0.1,20251020-085245,730,Experiment,Both,1,Automatic,main,111,20251103-105130,local,global,300,S,H,A,A,A-S.png,H-A.png,sS,hH,mask-1.png,mask-1.png,h,0,1.1460911000613123,h,1,0.06970220012590289,0.04707790003158152,0.04868590016849339,0.10023250011727214,0.10076240007765591,0.2994884999934584
RSVPLG03,TM,20251103-104249,1.0.1,20251020-085245,730,Experiment,Both,1,Automatic,main,112,20251103-105135,local,local,300,S,H,A,A,A-S.png,A-H.png,sS,hH,mask-2.png,mask-2.png,s,1,0.446692599914968,s,0,0.061373400036245584,0.04745159996673465,0.04769340017810464,0.10065799998119473,0.09985120012424886,0.3001341999042779
RSVPLG03,TM,20251103-104249,1.0.1,20251020-085245,730,Experiment,Both,1,Automatic,main,113,20251103-105139,global,global,750,S,H,A,A,S-A.png,H-A.png,sS,hH,mask-2.png,mask-2.png,s,1,0.10622830013744533,h,1,0.04344650008715689,0.04764409991912544,0.04650950012728572,0.09984329994767904,0.09875140013173223,0.7489551999606192
RSVPLG03,TM,20251103-104249,1.0.1,20251020-085245,730,Experiment,Both,1,Automatic,main,114,20251103-105144,global,global,300,S,S,A,A,S-A.png,S-A.png,sS,sS,mask-2.png,mask-2.png,s,1,0.2131151999346912,s,1,0.06946959998458624,0.04858129983767867,0.04635499999858439,0.10058889980427921,0.0992268999107182,0.3008872999344021
RSVPLG03,TM,20251103-104249,1.0.1,20251020-085245,730,Experiment,Both,1,Automatic,main,115,20251103-105147,local,local,300,H,S,A,E,A-H.png,E-S.png,hH,sS,mask-4.png,mask-2.png,h,1,0.2532134000211954,s,1,0.052170699927955866,0.04649839992634952,0.047539700055494905,0.09956529992632568,0.10084600001573563,0.29805679991841316
RSVPLG03,TM,20251103-104249,1.0.1,20251020-085245,730,Experiment,Both,1,Automatic,main,116,20251103-105151,local,global,750,H,S,E,A,E-H.png,S-A.png,hH,sS,mask-4.png,mask-2.png,h,1,0.32867230009287596,s,1,0.15653360006399453,0.04673589998856187,0.04670980013906956,0.09975660010240972,0.1002381001599133,0.7477712000254542
RSVPLG03,TM,20251103-104249,1.0.1,20251020-085245,730,Experiment,Both,1,Automatic,main,117,20251103-105156,local,local,300,S,H,E,E,E-S.png,E-H.png,sS,hH,mask-3.png,mask-4.png,h,0,0.13984169997274876,s,0,0.12534180004149675,0.04670579987578094,0.04765710001811385,0.09971759980544448,0.09901440003886819,0.2987379999831319
RSVPLG03,TM,20251103-104249,1.0.1,20251020-085245,730,Experiment,Both,1,Automatic,main,118,20251103-105200,global,local,750,S,H,A,A,S-A.png,A-H.png,sS,hH,mask-1.png,mask-2.png,s,1,0.12122700014151633,h,1,0.15650010015815496,0.045685699908062816,0.047492999816313386,0.09785949997603893,0.10034450003877282,0.7463714999612421
RSVPLG03,TM,20251103-104249,1.0.1,20251020-085245,730,Experiment,Both,1,Automatic,main,119,20251103-105204,global,local,300,S,S,A,E,S-A.png,E-S.png,sS,sS,mask-1.png,mask-4.png,s,1,0.21903859986923635,s,1,0.07610150007531047,0.04685739986598492,0.04847059980966151,0.09835599991492927,0.09948009997606277,0.29761580005288124
RSVPLG03,TM,20251103-104249,1.0.1,20251020-085245,730,Experiment,Both,1,Automatic,main,120,20251103-105208,global,local,750,S,S,A,E,S-A.png,E-S.png,sS,sS,mask-1.png,mask-4.png,s,1,0.23651160020381212,s,1,0.059080300154164433,0.048087900038808584,0.04841979988850653,0.10008100001141429,0.09987909998744726,0.7476828000508249
RSVPLG03,TM,20251103-104249,1.0.1,20251020-085245,730,Experiment,Both,1,Automatic,main,121,20251103-105213,global,global,300,H,S,A,A,H-A.png,S-A.png,hH,sS,mask-1.png,mask-2.png,h,1,0.28436770010739565,s,1,0.12359829992055893,0.04868750018067658,0.04671690007671714,0.10019020014442503,0.0989457000978291,0.3004207999911159
RSVPLG03,TM,20251103-104249,1.0.1,20251020-085245,730,Experiment,Both,1,Automatic,main,122,20251103-105217,global,local,750,S,H,E,E,S-E.png,E-H.png,sS,hH,mask-2.png,mask-2.png,s,1,0.3037698999978602,s,0,0.10244469996541739,0.04667770001105964,0.04769040015526116,0.09888079995289445,0.09989850013516843,0.7467658999375999
