exp,exp_initials,runtime,ver,modtime,sub,blocktype,targets,cuetype,mode,trialtype,trial,trialtime,t1_level,t2_level,t2_lag,t1,t2,distractor1,distractor2,stimfile1,stimfile2,t1_corr,t2_corr,maskfile1,maskfile2,t1_resp,t1_acc,t1_rt,t2_resp,t2_acc,t2_rt,t1_dur,t2_dur,t1mask_soa,t2mask_soa,t1t2_soa
RSVPLG03,cs,20251112-110439,1.0.2,20251105-084826,740,Introduction,T1,1,Automatic,main,1,20251112-110501,local,global,750,H,H,A,A,A-H.png,H-A.png,hH,hH,mask-1.png,mask-2.png,h,1,1.69393299985677,none,-5,0,0.09000679990276694,0.09856479987502098,0.19265169999562204,0.2006397999357432,0.7423199000768363
RSVPLG03,cs,20251112-110439,1.0.2,20251105-084826,740,Introduction,T1,1,Automatic,main,2,20251112-110507,local,global,750,S,S,A,E,A-S.png,S-E.png,sS,sS,mask-4.png,mask-3.png,s,1,0.7261487001087517,none,-5,0,0.09638719982467592,0.09817739995196462,0.19871709984727204,0.2012004000134766,0.7480726998765022
RSVPLG03,cs,20251112-110439,1.0.2,20251105-084826,740,Introduction,T1,1,Automatic,main,3,20251112-110512,local,global,750,S,S,A,E,A-S.png,S-E.png,sS,sS,mask-3.png,mask-3.png,s,1,0.511843399843201,none,-5,0,0.09738750010728836,0.09634139994159341,0.20106040011160076,0.1982748000882566,0.7507406000513583
RSVPLG03,cs,20251112-110439,1.0.2,20251105-084826,740,Introduction,T1,1,Automatic,main,4,20251112-110517,global,local,750,S,H,A,E,S-A.png,E-H.png,sS,hH,mask-1.png,mask-4.png,s,1,0.39546349993906915,none,-5,0,0.09738399996422231,0.09752379986457527,0.20121109997853637,0.20035289996303618,0.7499182000756264
RSVPLG03,cs,20251112-110439,1.0.2,20251105-084826,740,Introduction,T1,1,Automatic,main,5,20251112-110521,global,global,750,H,H,A,A,H-A.png,H-A.png,hH,hH,mask-3.png,mask-4.png,h,1,0.44432180002331734,none,-5,0,0.09736189991235733,0.09734750003553927,0.20024719997309148,0.20021190005354583,0.7497425999026746
RSVPLG03,cs,20251112-110439,1.0.2,20251105-084826,740,Introduction,T1,1,Automatic,main,6,20251112-110526,global,local,750,S,S,A,A,S-A.png,A-S.png,sS,sS,mask-2.png,mask-3.png,s,1,0.5418412000872195,none,-5,0,0.0973851999733597,0.09764529997482896,0.20011059986427426,0.20053049991838634,0.749757899902761
RSVPLG03,cs,20251112-110439,1.0.2,20251105-084826,740,Introduction,T1,1,Automatic,main,7,20251112-110531,local,local,750,H,H,E,A,E-H.png,A-H.png,hH,hH,mask-2.png,mask-2.png,h,1,0.4253933001309633,none,-5,0,0.09741859999485314,0.0984668000601232,0.20136220008134842,0.2008098999504,0.7491975000593811
RSVPLG03,cs,20251112-110439,1.0.2,20251105-084826,740,Introduction,T1,1,Automatic,main,8,20251112-110535,local,local,750,S,H,A,A,A-S.png,A-H.png,sS,hH,mask-3.png,mask-3.png,s,1,0.5918451999314129,none,-5,0,0.09842639998532832,0.09738219995051622,0.19932390004396439,0.20030630007386208,0.7493465999141335
RSVPLG03,cs,20251112-110439,1.0.2,20251105-084826,740,Introduction,T1,1,Automatic,main,9,20251112-110540,local,local,750,S,H,E,A,E-S.png,A-H.png,sS,hH,mask-4.png,mask-1.png,none,-6,0,none,-5,0,0.09952539997175336,0.09738270007073879,0.20039950008504093,0.19930350012145936,0.7502037999220192
RSVPLG03,cs,20251112-110552,1.0.2,20251105-084826,740,Practice,T1,1,Automatic,main,1,20251112-110607,global,global,300,S,H,E,A,S-E.png,H-A.png,sS,hH,mask-3.png,mask-3.png,h,0,1.1101690998766571,none,-5,0,0.039331199834123254,0.04565410013310611,0.09239330003038049,0.09957950003445148,0.2927198999095708
RSVPLG03,cs,20251112-110552,1.0.2,20251105-084826,740,Practice,T1,1,Automatic,main,2,20251112-110612,global,local,300,S,H,E,A,S-E.png,A-H.png,sS,hH,mask-1.png,mask-1.png,s,1,0.45411100005730987,none,-5,0,0.04677610006183386,0.04748230008408427,0.09815139998681843,0.09933200012892485,0.2994035000447184
RSVPLG03,cs,20251112-110552,1.0.2,20251105-084826,740,Practice,T1,1,Automatic,main,3,20251112-110616,global,global,750,H,H,A,A,H-A.png,H-A.png,hH,hH,mask-3.png,mask-4.png,h,1,0.5387635000515729,none,-5,0,0.04705389984883368,0.04748419998213649,0.09804750001057982,0.09850049996748567,0.7495434999000281
RSVPLG03,cs,20251112-110552,1.0.2,20251105-084826,740,Practice,T1,1,Automatic,main,4,20251112-110620,local,global,750,S,S,A,A,A-S.png,S-A.png,sS,sS,mask-2.png,mask-4.png,s,1,0.49092769995331764,none,-5,0,0.047487800009548664,0.04749849997460842,0.10048320004716516,0.09949699998833239,0.7506361999548972
RSVPLG03,cs,20251112-110552,1.0.2,20251105-084826,740,Practice,T1,1,Automatic,main,5,20251112-110625,local,global,300,H,H,A,E,A-H.png,H-E.png,hH,hH,mask-3.png,mask-2.png,s,0,0.7988802001345903,none,-5,0,0.046606099931523204,0.04666169988922775,0.09980319999158382,0.10084949992597103,0.2999591000843793
RSVPLG03,cs,20251112-110552,1.0.2,20251105-084826,740,Practice,T1,1,Automatic,main,6,20251112-110629,global,global,750,S,S,E,A,S-E.png,S-A.png,sS,sS,mask-1.png,mask-1.png,s,1,0.3680495999287814,none,-5,0,0.04754390008747578,0.048428399953991175,0.09955710009671748,0.10147870006039739,0.7483578000683337
RSVPLG03,cs,20251112-110552,1.0.2,20251105-084826,740,Practice,T1,1,Automatic,main,7,20251112-110633,local,global,300,S,S,A,E,A-S.png,S-E.png,sS,sS,mask-1.png,mask-1.png,s,1,0.3486176000442356,none,-5,0,0.04749260004609823,0.048508800100535154,0.0984993998426944,0.10153129999525845,0.2986750998534262
RSVPLG03,cs,20251112-110552,1.0.2,20251105-084826,740,Practice,T1,1,Automatic,main,8,20251112-110637,local,local,300,S,S,A,E,A-S.png,E-S.png,sS,sS,mask-1.png,mask-3.png,s,1,0.3245158998761326,none,-5,0,0.04714179993607104,0.04753099987283349,0.09952399996109307,0.100831100018695,0.29832180007360876
RSVPLG03,cs,20251112-110552,1.0.2,20251105-084826,740,Practice,T1,1,Automatic,main,9,20251112-110641,local,local,750,H,S,A,E,A-H.png,E-S.png,hH,sS,mask-4.png,mask-1.png,h,1,0.6241444998886436,none,-5,0,0.045700599905103445,0.04780349996872246,0.09989070007577538,0.09997109998948872,0.7482167000416666
RSVPLG03,cs,20251112-110552,1.0.2,20251105-084826,740,Practice,T1,1,Automatic,main,10,20251112-110646,local,local,750,H,H,A,E,A-H.png,E-H.png,hH,hH,mask-4.png,mask-3.png,s,0,0.8044766001403332,none,-5,0,0.04771089996211231,0.04871169989928603,0.09991020010784268,0.10080719995312393,0.7500595999881625
RSVPLG03,cs,20251112-110552,1.0.2,20251105-084826,740,Practice,T1,1,Automatic,main,11,20251112-110651,global,global,300,H,S,A,E,H-A.png,S-E.png,hH,sS,mask-2.png,mask-4.png,h,1,0.9061027001589537,none,-5,0,0.04751350008882582,0.04751820000819862,0.1005430999211967,0.10052690003067255,0.29981340002268553
RSVPLG03,cs,20251112-110552,1.0.2,20251105-084826,740,Practice,T1,1,Automatic,main,12,20251112-110655,global,local,300,H,S,A,A,H-A.png,A-S.png,hH,sS,mask-2.png,mask-3.png,h,1,0.34085709997452796,none,-5,0,0.047800299944356084,0.04709889995865524,0.10077839996665716,0.09938369994051754,0.3004898000508547
RSVPLG03,cs,20251112-110552,1.0.2,20251105-084826,740,Practice,T1,1,Automatic,main,13,20251112-110659,local,local,300,S,H,A,A,A-S.png,A-H.png,sS,hH,mask-2.png,mask-3.png,s,1,0.2756366999819875,none,-5,0,0.046715399948880076,0.04774859989993274,0.09985310002230108,0.10004229983314872,0.29961950005963445
RSVPLG03,cs,20251112-110552,1.0.2,20251105-084826,740,Practice,T1,1,Automatic,main,14,20251112-110703,local,global,750,H,S,E,A,E-H.png,S-A.png,hH,sS,mask-4.png,mask-1.png,h,1,0.4043249001260847,none,-5,0,0.04669079999439418,0.045718299923464656,0.09990849997848272,0.0997917999047786,0.7499895000364631
RSVPLG03,cs,20251112-110552,1.0.2,20251105-084826,740,Practice,T1,1,Automatic,main,15,20251112-110707,global,local,750,H,S,A,E,H-A.png,E-S.png,hH,sS,mask-3.png,mask-3.png,h,1,0.41464029997587204,none,-5,0,0.04753590002655983,0.04866149998269975,0.10064009996131063,0.10073349997401237,0.7492066998966038
RSVPLG03,cs,20251112-110552,1.0.2,20251105-084826,740,Practice,T1,1,Automatic,main,16,20251112-110711,global,local,750,S,H,A,E,S-A.png,E-H.png,sS,hH,mask-1.png,mask-1.png,s,1,0.3134836999233812,none,-5,0,0.04747250000946224,0.04673549998551607,0.099370599957183,0.1000365000218153,0.7505332001019269
RSVPLG03,cs,20251112-110802,1.0.2,20251105-084826,740,Practice,Both,1,Automatic,main,1,20251112-110835,global,local,750,H,S,E,E,H-E.png,E-S.png,hH,sS,mask-4.png,mask-4.png,h,1,1.0813951999880373,s,1,0.9215798999648541,0.046389800030738115,0.04735670005902648,0.09970850008539855,0.10044270008802414,0.7441545999608934
RSVPLG03,cs,20251112-110802,1.0.2,20251105-084826,740,Practice,Both,1,Automatic,main,2,20251112-110841,local,global,300,H,S,E,E,E-H.png,S-E.png,hH,sS,mask-4.png,mask-4.png,h,1,2.3360272999852896,s,1,0.4264354999177158,0.04748720000497997,0.04680539993569255,0.10051360004581511,0.10089039988815784,0.29773710016161203
RSVPLG03,cs,20251112-110802,1.0.2,20251105-084826,740,Practice,Both,1,Automatic,main,3,20251112-110847,global,global,300,H,H,A,A,H-A.png,H-A.png,hH,hH,mask-2.png,mask-4.png,h,1,0.4505823999643326,h,1,0.2937260000035167,0.04658839991316199,0.045533299911767244,0.09864889993332326,0.09820959996432066,0.2990623000077903
RSVPLG03,cs,20251112-110802,1.0.2,20251105-084826,740,Practice,Both,1,Automatic,main,4,20251112-110852,local,global,750,S,S,A,A,A-S.png,S-A.png,sS,sS,mask-2.png,mask-4.png,s,1,1.5140096999239177,s,1,1.1440213001333177,0.046698200050741434,0.04771089996211231,0.0988678999710828,0.09990699985064566,0.7453454001806676
RSVPLG03,cs,20251112-110802,1.0.2,20251105-084826,740,Practice,Both,1,Automatic,main,5,20251112-110858,local,local,300,H,H,E,A,E-H.png,A-H.png,hH,hH,mask-1.png,mask-1.png,h,1,0.91328309988603,h,1,0.3586252999957651,0.047495999839156866,0.0465641999617219,0.0997438000049442,0.09874860011041164,0.2992163999006152
RSVPLG03,cs,20251112-110802,1.0.2,20251105-084826,740,Practice,Both,1,Automatic,main,6,20251112-110903,local,local,750,H,S,E,A,E-H.png,A-S.png,hH,sS,mask-2.png,mask-4.png,h,1,0.5321434000506997,s,1,0.15531099983491004,0.04861739999614656,0.046715499833226204,0.09984679985791445,0.09779949998483062,0.7463066000491381
RSVPLG03,cs,20251112-110802,1.0.2,20251105-084826,740,Practice,Both,1,Automatic,main,7,20251112-110908,global,global,750,H,H,A,A,H-A.png,H-A.png,hH,hH,mask-2.png,mask-3.png,h,1,0.4047401000279933,h,1,0.23013909999281168,0.045671300031244755,0.04557920014485717,0.09786310000345111,0.09878430003300309,0.7449507999699563
RSVPLG03,cs,20251112-110802,1.0.2,20251105-084826,740,Practice,Both,1,Automatic,main,8,20251112-110913,global,local,750,S,S,E,E,S-E.png,E-S.png,sS,sS,mask-4.png,mask-3.png,s,1,0.3707457999698818,s,1,0.23311030003242195,0.047687199898064137,0.04768289998173714,0.09888419997878373,0.09981160005554557,0.7439294999931008
RSVPLG03,cs,20251112-110802,1.0.2,20251105-084826,740,Practice,Both,1,Automatic,main,9,20251112-110918,local,global,750,H,H,E,A,E-H.png,H-A.png,hH,hH,mask-1.png,mask-2.png,h,1,1.171115499921143,s,0,1.2513238999526948,0.04746429994702339,0.04756570002064109,0.09866069979034364,0.10062210005708039,0.7436757998075336
RSVPLG03,cs,20251112-110802,1.0.2,20251105-084826,740,Practice,Both,1,Automatic,main,10,20251112-110923,global,local,300,H,H,E,A,H-E.png,A-H.png,hH,hH,mask-3.png,mask-3.png,h,1,0.3782038001809269,h,1,0.3138450998812914,0.04777359985746443,0.04766770009882748,0.1010677998419851,0.0988733998965472,0.2987178999464959
RSVPLG03,cs,20251112-110802,1.0.2,20251105-084826,740,Practice,Both,1,Automatic,main,11,20251112-110927,local,global,300,S,H,A,E,A-S.png,H-E.png,sS,hH,mask-2.png,mask-4.png,s,1,0.8019308000802994,s,0,0.2914277999661863,0.045753899961709976,0.047561199869960546,0.09798309998586774,0.09950899984687567,0.29661200009286404
RSVPLG03,cs,20251112-110802,1.0.2,20251105-084826,740,Practice,Both,1,Automatic,main,12,20251112-110932,global,global,750,H,S,E,E,H-E.png,S-E.png,hH,sS,mask-4.png,mask-3.png,h,1,1.7847058998886496,s,1,0.17339479993097484,0.04657399980351329,0.04771770001389086,0.09834579983726144,0.09919320000335574,0.7445618999190629
RSVPLG03,cs,20251112-110802,1.0.2,20251105-084826,740,Practice,Both,1,Automatic,main,13,20251112-110938,global,global,300,H,H,A,A,H-A.png,H-A.png,hH,hH,mask-1.png,mask-1.png,h,1,0.3762980999890715,h,1,0.2453055998776108,0.0488067998085171,0.04674559994600713,0.10037839994765818,0.09999529994092882,0.29925689985975623
RSVPLG03,cs,20251112-110802,1.0.2,20251105-084826,740,Practice,Both,1,Automatic,main,14,20251112-110942,global,local,300,S,H,A,A,S-A.png,A-H.png,sS,hH,mask-1.png,mask-2.png,h,0,1.7041263000573963,h,1,0.08974829991348088,0.04769030003808439,0.04699830012395978,0.09876580000855029,0.10033020004630089,0.29751179995946586
RSVPLG03,cs,20251112-110802,1.0.2,20251105-084826,740,Practice,Both,1,Automatic,main,15,20251112-110947,local,local,300,H,H,E,E,E-H.png,E-H.png,hH,hH,mask-4.png,mask-2.png,h,1,4.069431000156328,s,0,0.8833149001002312,0.04717259993776679,0.04665770009160042,0.10039909998886287,0.0996397000271827,0.2988845999352634
RSVPLG03,cs,20251112-110802,1.0.2,20251105-084826,740,Practice,Both,1,Automatic,main,16,20251112-110956,local,local,750,S,H,A,E,A-S.png,E-H.png,sS,hH,mask-4.png,mask-1.png,s,1,0.47128920000977814,h,1,0.24729839991778135,0.047008899971842766,0.04801799985580146,0.0982419999781996,0.1002283999696374,0.7436224999837577
RSVPLG03,cs,20251112-111109,1.0.2,20251105-084826,740,Experiment,Both,1,Automatic,warmup,1,20251112-111145,global,local,750,H,H,A,A,H-A.png,A-H.png,hH,hH,mask-4.png,mask-4.png,h,1,0.6336781000718474,h,1,0.37291899998672307,0.04107360006310046,0.04656969988718629,0.09419060009531677,0.09960939991287887,0.7445098001044244
RSVPLG03,cs,20251112-111109,1.0.2,20251105-084826,740,Experiment,Both,1,Automatic,warmup,2,20251112-111151,global,local,300,S,H,A,A,S-A.png,A-H.png,sS,hH,mask-2.png,mask-1.png,s,1,0.4539177999831736,s,0,0.14198480010963976,0.046902500092983246,0.049137100111693144,0.09799680020660162,0.09937370009720325,0.2980076000094414
RSVPLG03,cs,20251112-111109,1.0.2,20251105-084826,740,Experiment,Both,1,Automatic,warmup,3,20251112-111155,global,global,750,H,H,A,A,H-A.png,H-A.png,hH,hH,mask-1.png,mask-1.png,h,1,0.3552710001822561,h,1,0.2519548998679966,0.047484599985182285,0.048380699940025806,0.10155180003494024,0.10122459987178445,0.7498276000842452
RSVPLG03,cs,20251112-111109,1.0.2,20251105-084826,740,Experiment,Both,1,Automatic,warmup,4,20251112-111159,local,local,300,H,H,E,A,E-H.png,A-H.png,hH,hH,mask-4.png,mask-4.png,s,0,0.6439819000661373,h,1,0.44050349993631244,0.047282599844038486,0.04828520002774894,0.10046749981120229,0.09945999993942678,0.30014539998956025
RSVPLG03,cs,20251112-111109,1.0.2,20251105-084826,740,Experiment,Both,1,Automatic,main,5,20251112-111204,local,global,300,S,S,A,E,A-S.png,S-E.png,sS,sS,mask-1.png,mask-4.png,s,1,0.5098860999569297,s,1,0.10989949991926551,0.04852840001694858,0.047548600006848574,0.09948730003088713,0.10061639989726245,0.3007772001437843
RSVPLG03,cs,20251112-111109,1.0.2,20251105-084826,740,Experiment,Both,1,Automatic,main,6,20251112-111208,local,global,750,S,H,A,E,A-S.png,H-E.png,sS,hH,mask-1.png,mask-2.png,s,1,0.7530526998452842,s,0,0.13765849987976253,0.048676300095394254,0.04565600003115833,0.1000946001149714,0.09988210001029074,0.7509186000097543
RSVPLG03,cs,20251112-111109,1.0.2,20251105-084826,740,Experiment,Both,1,Automatic,main,7,20251112-111213,local,global,300,H,S,A,E,A-H.png,S-E.png,hH,sS,mask-2.png,mask-2.png,h,1,1.374333499930799,s,1,0.028213700046762824,0.046685200184583664,0.04766739998012781,0.0988788001704961,0.09983880002982914,0.3003450999967754
RSVPLG03,cs,20251112-111109,1.0.2,20251105-084826,740,Experiment,Both,1,Automatic,main,8,20251112-111218,global,global,750,H,H,A,A,H-A.png,H-A.png,hH,hH,mask-2.png,mask-2.png,h,1,0.35406060004606843,h,1,0.12390210013836622,0.04653229983523488,0.04792760009877384,0.09852849994786084,0.10085120005533099,0.7491028998047113
RSVPLG03,cs,20251112-111109,1.0.2,20251105-084826,740,Experiment,Both,1,Automatic,main,9,20251112-111223,local,global,750,H,H,A,A,A-H.png,H-A.png,hH,hH,mask-1.png,mask-3.png,h,1,5.980264900019392,h,1,0.7585372000467032,0.04854150000028312,0.04775759996846318,0.09967319993302226,0.1009636998642236,0.7488535000011325
RSVPLG03,cs,20251112-111109,1.0.2,20251105-084826,740,Experiment,Both,1,Automatic,main,10,20251112-111234,local,global,750,S,H,A,E,A-S.png,H-E.png,sS,hH,mask-3.png,mask-3.png,s,1,0.87222780007869,s,0,0.17188609996810555,0.047707500169053674,0.04768699989654124,0.0998462000861764,0.09889789996668696,0.7497736001387239
RSVPLG03,cs,20251112-111109,1.0.2,20251105-084826,740,Experiment,Both,1,Automatic,main,11,20251112-111239,global,global,300,S,H,E,A,S-E.png,H-A.png,sS,hH,mask-4.png,mask-1.png,s,1,1.5065226999577135,h,1,0.12308699986897409,0.0476411001291126,0.04773540003225207,0.10027030017226934,0.09877500007860363,0.29992730007506907
RSVPLG03,cs,20251112-111109,1.0.2,20251105-084826,740,Experiment,Both,1,Automatic,main,12,20251112-111244,local,local,300,S,S,A,A,A-S.png,A-S.png,sS,sS,mask-4.png,mask-1.png,s,1,0.41974579985253513,s,1,0.08400800009258091,0.04745980002917349,0.04729139991104603,0.10046830005012453,0.10039089992642403,0.30020150006748736
RSVPLG03,cs,20251112-111109,1.0.2,20251105-084826,740,Experiment,Both,1,Automatic,main,13,20251112-111248,global,global,300,S,H,A,E,S-A.png,H-E.png,sS,hH,mask-1.png,mask-2.png,s,1,0.4555337999481708,h,1,0.235730400076136,0.04769030003808439,0.04765109997242689,0.0996307001914829,0.09985099988989532,0.30022500013001263
RSVPLG03,cs,20251112-111109,1.0.2,20251105-084826,740,Experiment,Both,1,Automatic,main,14,20251112-111253,global,local,300,S,S,E,A,S-E.png,A-S.png,sS,sS,mask-3.png,mask-2.png,s,1,1.9572498998604715,s,1,0.2588595999404788,0.04568209988065064,0.04860779992304742,0.09986720001325011,0.09997419989667833,0.29864579997956753
RSVPLG03,cs,20251112-111109,1.0.2,20251105-084826,740,Experiment,Both,1,Automatic,main,15,20251112-111258,global,global,300,H,H,E,E,H-E.png,H-E.png,hH,hH,mask-1.png,mask-3.png,h,1,0.38978329999372363,h,1,0.16570670017972589,0.04772339994087815,0.04657720006071031,0.09928920003585517,0.09965489991009235,0.30006040004082024
RSVPLG03,cs,20251112-111109,1.0.2,20251105-084826,740,Experiment,Both,1,Automatic,main,16,20251112-111303,local,local,750,H,H,E,E,E-H.png,E-H.png,hH,hH,mask-2.png,mask-1.png,h,1,0.4087374999653548,h,1,0.1391364000737667,0.04698980017565191,0.04849439999088645,0.10010820021852851,0.10051120002754033,0.748567400034517
RSVPLG03,cs,20251112-111109,1.0.2,20251105-084826,740,Experiment,Both,1,Automatic,main,17,20251112-111307,local,local,750,S,H,E,E,E-S.png,E-H.png,sS,hH,mask-4.png,mask-3.png,s,1,0.4755303000565618,h,1,0.09233839996159077,0.04750310000963509,0.047487900126725435,0.10150160011835396,0.10047960001975298,0.7499279000330716
RSVPLG03,cs,20251112-111109,1.0.2,20251105-084826,740,Experiment,Both,1,Automatic,main,18,20251112-111312,global,global,300,S,H,E,A,S-E.png,H-A.png,sS,hH,mask-1.png,mask-2.png,s,1,0.6605753998737782,h,1,0.09223799989558756,0.04758920008316636,0.04845599993132055,0.10068570007570088,0.10049279988743365,0.3000686999876052
RSVPLG03,cs,20251112-111109,1.0.2,20251105-084826,740,Experiment,Both,1,Automatic,main,19,20251112-111316,local,local,750,H,S,A,E,A-H.png,E-S.png,hH,sS,mask-2.png,mask-3.png,h,1,1.9455736998934299,h,0,0.0746335000731051,0.04673979990184307,0.047536700032651424,0.09979989985004067,0.0998494999948889,0.7488660998642445
RSVPLG03,cs,20251112-111109,1.0.2,20251105-084826,740,Experiment,Both,1,Automatic,main,20,20251112-111323,global,local,300,S,S,A,E,S-A.png,E-S.png,sS,sS,mask-2.png,mask-4.png,s,1,0.4384630999993533,s,1,0.26072290004231036,0.045774800004437566,0.047176399966701865,0.0979317999444902,0.09828420006670058,0.29960499983280897
RSVPLG03,cs,20251112-111109,1.0.2,20251105-084826,740,Experiment,Both,1,Automatic,main,21,20251112-111327,local,global,750,S,S,A,E,A-S.png,S-E.png,sS,sS,mask-4.png,mask-2.png,s,1,0.769043399952352,h,0,0.44055230007506907,0.046700899954885244,0.04569669999182224,0.09996369993314147,0.09994380013085902,0.7496328998822719
RSVPLG03,cs,20251112-111109,1.0.2,20251105-084826,740,Experiment,Both,1,Automatic,main,22,20251112-111332,local,local,300,H,H,A,E,A-H.png,E-H.png,hH,hH,mask-1.png,mask-4.png,h,1,0.7161464998498559,s,0,0.6650894000194967,0.0456748001743108,0.04584599984809756,0.09986280021257699,0.0997330998070538,0.2992443002294749
RSVPLG03,cs,20251112-111109,1.0.2,20251105-084826,740,Experiment,Both,1,Automatic,main,23,20251112-111337,local,local,300,S,H,A,A,A-S.png,A-H.png,sS,hH,mask-2.png,mask-2.png,s,1,0.9697642999235541,s,0,0.17439709999598563,0.045701100025326014,0.04767479980364442,0.09989019995555282,0.09887109999544919,0.2995043001137674
RSVPLG03,cs,20251112-111109,1.0.2,20251105-084826,740,Experiment,Both,1,Automatic,main,24,20251112-111342,local,global,750,S,H,A,A,A-S.png,H-A.png,sS,hH,mask-3.png,mask-1.png,s,1,1.6558433999307454,h,1,0.0961947999894619,0.047521800035610795,0.047504899790510535,0.09989650011993945,0.10150239989161491,0.7498777001164854
RSVPLG03,cs,20251112-111109,1.0.2,20251105-084826,740,Experiment,Both,1,Automatic,main,25,20251112-111348,global,global,750,S,H,A,A,S-A.png,H-A.png,sS,hH,mask-4.png,mask-3.png,s,1,0.6224112000782043,h,1,0.32393800001591444,0.046933399979025126,0.04845550004392862,0.09973359992727637,0.09962120000272989,0.7502444998826832
RSVPLG03,cs,20251112-111109,1.0.2,20251105-084826,740,Experiment,Both,1,Automatic,main,26,20251112-111445,global,local,300,H,H,A,E,H-A.png,E-H.png,hH,hH,mask-3.png,mask-3.png,h,1,0.5167394999880344,h,1,0.05341159994713962,0.0475592000875622,0.04624069994315505,0.0996636999770999,0.09932469995692372,0.2993942000903189
RSVPLG03,cs,20251112-111109,1.0.2,20251105-084826,740,Experiment,Both,1,Automatic,main,27,20251112-111449,global,local,300,H,H,E,E,H-E.png,E-H.png,hH,hH,mask-4.png,mask-1.png,h,1,0.5460030001122504,h,1,0.07598840002901852,0.04639449995011091,0.047444299794733524,0.10027899988926947,0.10117179993540049,0.29918550001457334
RSVPLG03,cs,20251112-111109,1.0.2,20251105-084826,740,Experiment,Both,1,Automatic,main,28,20251112-111454,global,local,750,S,H,E,E,S-E.png,E-H.png,sS,hH,mask-4.png,mask-1.png,s,1,1.054833399830386,s,0,0.2837988999672234,0.047519100131466985,0.04836119990795851,0.1015194000210613,0.1016245000064373,0.7492556001525372
RSVPLG03,cs,20251112-111109,1.0.2,20251105-084826,740,Experiment,Both,1,Automatic,main,29,20251112-111459,global,global,750,S,H,A,A,S-A.png,H-A.png,sS,hH,mask-1.png,mask-2.png,s,1,0.40059030009433627,h,1,0.015762200113385916,0.047499499982222915,0.04751099995337427,0.10149340005591512,0.09954160009510815,0.7503748000599444
RSVPLG03,cs,20251112-111109,1.0.2,20251105-084826,740,Experiment,Both,1,Automatic,main,30,20251112-111504,global,local,750,S,H,E,A,S-E.png,A-H.png,sS,hH,mask-2.png,mask-1.png,s,1,2.5121853000018746,h,1,0.615038399817422,0.048577799927443266,0.047506799921393394,0.10059980000369251,0.09851549984887242,0.7506842999719083
RSVPLG03,cs,20251112-111109,1.0.2,20251105-084826,740,Experiment,Both,1,Automatic,main,31,20251112-111511,global,local,300,S,H,E,E,S-E.png,E-H.png,sS,hH,mask-3.png,mask-3.png,s,1,0.8939759000204504,s,0,0.1309764999896288,0.047484599985182285,0.04750650003552437,0.09947749995626509,0.0995153000112623,0.2996944999322295
RSVPLG03,cs,20251112-111109,1.0.2,20251105-084826,740,Experiment,Both,1,Automatic,main,32,20251112-111516,local,global,300,S,S,A,A,A-S.png,S-A.png,sS,sS,mask-3.png,mask-2.png,s,1,1.4344812999479473,h,0,1.5304547999985516,0.047608899883925915,0.04903100011870265,0.10066769993864,0.10003490000963211,0.2990343999117613
RSVPLG03,cs,20251112-111109,1.0.2,20251105-084826,740,Experiment,Both,1,Automatic,main,33,20251112-111521,global,global,750,H,S,A,E,H-A.png,S-E.png,hH,sS,mask-4.png,mask-1.png,h,1,0.4075311999768019,s,1,0.00985310017131269,0.04650089982897043,0.0475016999989748,0.09968149987980723,0.10067029995843768,0.7490009998437017
RSVPLG03,cs,20251112-111109,1.0.2,20251105-084826,740,Experiment,Both,1,Automatic,main,34,20251112-111525,global,local,750,H,S,E,A,H-E.png,A-S.png,hH,sS,mask-4.png,mask-3.png,h,1,0.4482963001355529,h,0,0.08442820003256202,0.047505700029432774,0.04868999985046685,0.09971449989825487,0.10072759981267154,0.7496263000648469
RSVPLG03,cs,20251112-111109,1.0.2,20251105-084826,740,Experiment,Both,1,Automatic,main,35,20251112-111530,local,local,750,H,S,E,E,E-H.png,E-S.png,hH,sS,mask-1.png,mask-3.png,h,1,0.40790480002760887,s,1,0.21954780002124608,0.04670589999295771,0.04881519987247884,0.09977710014209151,0.1008768999017775,0.7493637001607567
RSVPLG03,cs,20251112-111109,1.0.2,20251105-084826,740,Experiment,Both,1,Automatic,main,36,20251112-111535,local,local,300,S,H,A,E,A-S.png,E-H.png,sS,hH,mask-2.png,mask-4.png,s,1,0.7700290000066161,s,0,0.08532730001024902,0.04667780012823641,0.049283700063824654,0.09901630016975105,0.10030249995179474,0.2985247001051903
RSVPLG03,cs,20251112-111109,1.0.2,20251105-084826,740,Experiment,Both,1,Automatic,main,37,20251112-111539,global,local,300,H,H,E,E,H-E.png,E-H.png,hH,hH,mask-1.png,mask-4.png,s,0,0.7041163998655975,h,1,0.17647850001230836,0.046401199884712696,0.047278499929234385,0.09914360009133816,0.10117819998413324,0.29832300008274615
RSVPLG03,cs,20251112-111109,1.0.2,20251105-084826,740,Experiment,Both,1,Automatic,main,38,20251112-111544,local,global,300,S,H,A,A,A-S.png,H-A.png,sS,hH,mask-4.png,mask-1.png,s,1,1.9967883001081645,s,0,0.13888640003278852,0.04736279998905957,0.04607639997266233,0.09958789986558259,0.09834909997880459,0.30021839984692633
RSVPLG03,cs,20251112-111109,1.0.2,20251105-084826,740,Experiment,Both,1,Automatic,main,39,20251112-111549,global,global,300,S,H,A,A,S-A.png,H-A.png,sS,hH,mask-3.png,mask-3.png,s,1,0.5643976000137627,h,1,0.23611399997025728,0.049062700010836124,0.04760949988849461,0.10007870011031628,0.0986393999774009,0.3013936001807451
RSVPLG03,cs,20251112-111109,1.0.2,20251105-084826,740,Experiment,Both,1,Automatic,main,40,20251112-111554,global,global,750,H,S,E,E,H-E.png,S-E.png,hH,sS,mask-1.png,mask-3.png,h,1,0.4649239999707788,s,1,0.1895479999948293,0.04758040001615882,0.0485253999941051,0.101542399963364,0.09967439994215965,0.7506399999838322
RSVPLG03,cs,20251112-111109,1.0.2,20251105-084826,740,Experiment,Both,1,Automatic,main,41,20251112-111559,global,local,750,S,H,A,A,S-A.png,A-H.png,sS,hH,mask-2.png,mask-1.png,s,1,0.5415251001249999,h,1,0.25166369997896254,0.04759779991582036,0.04654420004226267,0.1006483999080956,0.09908129996620119,0.7507334998808801
RSVPLG03,cs,20251112-111109,1.0.2,20251105-084826,740,Experiment,Both,1,Automatic,main,42,20251112-111603,local,local,750,S,H,E,E,E-S.png,E-H.png,sS,hH,mask-1.png,mask-1.png,s,1,0.40669670002534986,h,1,0.23599339998327196,0.04751679999753833,0.047438800102099776,0.10173560003750026,0.09847380011342466,0.7513380998279899
RSVPLG03,cs,20251112-111109,1.0.2,20251105-084826,740,Experiment,Both,1,Automatic,main,43,20251112-111608,global,global,300,H,S,A,A,H-A.png,S-A.png,hH,sS,mask-2.png,mask-4.png,h,1,0.3701026998460293,s,1,0.18194829998537898,0.04646739992313087,0.047453399980440736,0.100130699807778,0.09859890001825988,0.3004112998023629
RSVPLG03,cs,20251112-111109,1.0.2,20251105-084826,740,Experiment,Both,1,Automatic,main,44,20251112-111612,local,local,300,S,S,E,A,E-S.png,A-S.png,sS,sS,mask-2.png,mask-3.png,s,1,0.41838970012031496,s,1,0.1878569999244064,0.046333299949765205,0.047684899996966124,0.1005156000610441,0.09988899994641542,0.3001739999745041
RSVPLG03,cs,20251112-111109,1.0.2,20251105-084826,740,Experiment,Both,1,Automatic,main,45,20251112-111617,global,global,300,S,S,A,A,S-A.png,S-A.png,sS,sS,mask-2.png,mask-4.png,s,1,0.3207910000346601,s,1,0.16396729997359216,0.048520199954509735,0.04680619994178414,0.10070349997840822,0.09905129997059703,0.3010770999826491
RSVPLG03,cs,20251112-111109,1.0.2,20251105-084826,740,Experiment,Both,1,Automatic,main,46,20251112-111621,local,global,750,H,H,E,A,E-H.png,H-A.png,hH,hH,mask-3.png,mask-2.png,h,1,0.9279028000310063,h,1,0.1481035000178963,0.047315800096839666,0.04777180007658899,0.10025670006871223,0.09980010008439422,0.7499239000026137
RSVPLG03,cs,20251112-111109,1.0.2,20251105-084826,740,Experiment,Both,1,Automatic,main,47,20251112-111626,local,global,750,H,H,A,E,A-H.png,H-E.png,hH,hH,mask-1.png,mask-3.png,h,1,0.48302510008215904,h,1,0.16787520004436374,0.047688799910247326,0.046600300120189786,0.0987164000980556,0.09962440002709627,0.749250799883157
RSVPLG03,cs,20251112-111109,1.0.2,20251105-084826,740,Experiment,Both,1,Automatic,main,48,20251112-111631,local,global,300,S,S,A,E,A-S.png,S-E.png,sS,sS,mask-3.png,mask-1.png,h,0,4.021876699989662,s,1,0.06240339996293187,0.04711799998767674,0.04765839991159737,0.10034859995357692,0.1008390998467803,0.2999402000568807
RSVPLG03,cs,20251112-111109,1.0.2,20251105-084826,740,Experiment,Both,1,Automatic,main,49,20251112-111638,global,local,750,S,S,E,A,S-E.png,A-S.png,sS,sS,mask-4.png,mask-3.png,s,1,0.5589558999054134,h,0,0.23483780003152788,0.046542600030079484,0.04656559997238219,0.09973650006577373,0.10009839991107583,0.7495624001603574
RSVPLG03,cs,20251112-111109,1.0.2,20251105-084826,740,Experiment,Both,1,Automatic,main,50,20251112-111643,global,local,750,S,H,E,A,S-E.png,A-H.png,sS,hH,mask-4.png,mask-2.png,s,1,0.6417036999482661,h,1,0.3282089000567794,0.04767210013233125,0.04709840007126331,0.10009800014086068,0.10035969992168248,0.7497167000547051
RSVPLG03,cs,20251112-111109,1.0.2,20251105-084826,740,Experiment,Both,1,Automatic,main,51,20251112-111652,local,local,300,S,H,A,E,A-S.png,E-H.png,sS,hH,mask-2.png,mask-3.png,s,1,0.7057974000927061,h,1,0.11902829981409013,0.047594300005584955,0.04638630012050271,0.09868419985286891,0.09844490000978112,0.2999733998440206
RSVPLG03,cs,20251112-111109,1.0.2,20251105-084826,740,Experiment,Both,1,Automatic,main,52,20251112-111657,local,local,750,H,H,A,A,A-H.png,A-H.png,hH,hH,mask-3.png,mask-3.png,h,1,0.34782109991647303,h,1,0.13046470005065203,0.04753419989719987,0.04753009998239577,0.0995433998759836,0.098623399855569,0.7501024999655783
RSVPLG03,cs,20251112-111109,1.0.2,20251105-084826,740,Experiment,Both,1,Automatic,main,53,20251112-111701,global,local,300,S,S,E,E,S-E.png,E-S.png,sS,sS,mask-2.png,mask-4.png,s,1,0.4526855999138206,s,1,0.21616179984994233,0.047595700016245246,0.04752710019238293,0.09977430012077093,0.09957620012573898,0.30002179997973144
RSVPLG03,cs,20251112-111109,1.0.2,20251105-084826,740,Experiment,Both,1,Automatic,main,54,20251112-111706,local,local,750,H,S,E,E,E-H.png,E-S.png,hH,sS,mask-4.png,mask-4.png,h,1,0.4188522999174893,s,1,0.2012802001554519,0.047664300072938204,0.04767769994214177,0.09983980003744364,0.10006430000066757,0.7495732000097632
RSVPLG03,cs,20251112-111109,1.0.2,20251105-084826,740,Experiment,Both,1,Automatic,main,55,20251112-111710,local,local,750,S,H,E,A,E-S.png,A-H.png,sS,hH,mask-3.png,mask-3.png,s,1,0.5516607000026852,h,1,0.16635819990187883,0.045678599970415235,0.04767500003799796,0.09993299981579185,0.0998498999979347,0.7482549999840558
RSVPLG03,cs,20251112-111109,1.0.2,20251105-084826,740,Experiment,Both,1,Automatic,main,56,20251112-111715,local,global,300,S,S,E,A,E-S.png,S-A.png,sS,sS,mask-1.png,mask-2.png,h,0,0.70592480013147,s,1,0.178014500066638,0.04649859992787242,0.04652730002999306,0.0995106000918895,0.09953120001591742,0.29982610000297427
RSVPLG03,cs,20251112-111109,1.0.2,20251105-084826,740,Experiment,Both,1,Automatic,main,57,20251112-111720,local,local,300,H,H,E,E,E-H.png,E-H.png,hH,hH,mask-3.png,mask-1.png,h,1,3.0254148999229074,h,1,0.1530937000643462,0.04871080000884831,0.04669620003551245,0.100920399883762,0.09995029983110726,0.30151550006121397
RSVPLG03,cs,20251112-111109,1.0.2,20251105-084826,740,Experiment,Both,1,Automatic,main,58,20251112-111727,local,global,750,H,H,A,A,A-H.png,H-A.png,hH,hH,mask-3.png,mask-2.png,h,1,1.6182230000849813,s,0,0.1310803999658674,0.0486926999874413,0.048679899889975786,0.10086390003561974,0.09997109998948872,0.7498518000356853
RSVPLG03,cs,20251112-111109,1.0.2,20251105-084826,740,Experiment,Both,1,Automatic,main,59,20251112-111732,local,global,300,S,S,E,A,E-S.png,S-A.png,sS,sS,mask-3.png,mask-4.png,s,1,0.7715783999301493,h,0,0.1368979001417756,0.046719999983906746,0.04777109995484352,0.098970300052315,0.09905020007863641,0.2996956000570208
RSVPLG03,cs,20251112-111109,1.0.2,20251105-084826,740,Experiment,Both,1,Automatic,main,60,20251112-111737,local,global,750,H,S,A,A,A-H.png,S-A.png,hH,sS,mask-4.png,mask-4.png,s,0,0.6163058001548052,h,0,0.23098309990018606,0.04767080000601709,0.04767940007150173,0.10184139991179109,0.09989210008643568,0.7501933998428285
RSVPLG03,cs,20251112-111109,1.0.2,20251105-084826,740,Experiment,Both,1,Automatic,main,61,20251112-111742,global,local,300,H,S,A,A,H-A.png,A-S.png,hH,sS,mask-3.png,mask-2.png,h,1,0.34335029986687005,h,0,0.1558900000527501,0.04772879998199642,0.047753999941051006,0.0999739000108093,0.09999499982222915,0.2997666001319885
RSVPLG03,cs,20251112-111109,1.0.2,20251105-084826,740,Experiment,Both,1,Automatic,main,62,20251112-111746,global,local,750,S,H,E,E,S-E.png,E-H.png,sS,hH,mask-4.png,mask-3.png,s,1,0.4901439000386745,h,1,0.19554660003632307,0.046513899927958846,0.04765109997242689,0.09899609978310764,0.10065590008161962,0.7504240998532623
RSVPLG03,cs,20251112-111109,1.0.2,20251105-084826,740,Experiment,Both,1,Automatic,main,63,20251112-111751,global,global,750,S,S,E,E,S-E.png,S-E.png,sS,sS,mask-3.png,mask-2.png,s,1,0.6837023000698537,s,1,0.13962820009328425,0.047683299984782934,0.04588239989243448,0.09910680004395545,0.09920720010995865,0.7498508000280708
RSVPLG03,cs,20251112-111109,1.0.2,20251105-084826,740,Experiment,Both,1,Automatic,main,64,20251112-111756,local,local,300,S,H,E,E,E-S.png,E-H.png,sS,hH,mask-4.png,mask-1.png,s,1,0.5304411000106484,h,1,0.234088399913162,0.04870339995250106,0.047694999957457185,0.10025869985111058,0.10145829990506172,0.29970390000380576
RSVPLG03,cs,20251112-111109,1.0.2,20251105-084826,740,Experiment,Both,1,Automatic,main,65,20251112-111800,global,local,750,S,S,A,A,S-A.png,A-S.png,sS,sS,mask-4.png,mask-1.png,s,1,0.9026856001000851,h,0,0.7788535000290722,0.047675800044089556,0.04663369990885258,0.10186509997583926,0.09882439998909831,0.7510502999648452
RSVPLG03,cs,20251112-111109,1.0.2,20251105-084826,740,Experiment,Both,1,Automatic,main,66,20251112-111806,local,global,750,S,H,E,A,E-S.png,H-A.png,sS,hH,mask-1.png,mask-2.png,s,1,0.5931337000802159,h,1,0.22489940002560616,0.047664100071415305,0.04774160007946193,0.10082820011302829,0.09992259996943176,0.7499569000210613
RSVPLG03,cs,20251112-111109,1.0.2,20251105-084826,740,Experiment,Both,1,Automatic,main,67,20251112-111811,local,global,300,H,S,E,E,E-H.png,S-E.png,hH,sS,mask-3.png,mask-1.png,s,0,2.0669778001029044,h,0,0.020483799977228045,0.04797529987990856,0.0477076000533998,0.10155460005626082,0.09903030004352331,0.30120919994078577
RSVPLG03,cs,20251112-111109,1.0.2,20251105-084826,740,Experiment,Both,1,Automatic,main,68,20251112-111817,local,local,300,H,S,E,A,E-H.png,A-S.png,hH,sS,mask-2.png,mask-1.png,h,1,1.0640594998840243,s,1,0.19912480004131794,0.04568099998869002,0.04567219992168248,0.09985110000707209,0.0997480999212712,0.29985309997573495
RSVPLG03,cs,20251112-111109,1.0.2,20251105-084826,740,Experiment,Both,1,Automatic,main,69,20251112-111822,local,global,300,H,H,E,A,E-H.png,H-A.png,hH,hH,mask-1.png,mask-4.png,s,0,2.2634128001518548,h,1,0.28348810016177595,0.045713100116699934,0.048676899867132306,0.09973619994707406,0.09989940002560616,0.2983725001104176
RSVPLG03,cs,20251112-111109,1.0.2,20251105-084826,740,Experiment,Both,1,Automatic,main,70,20251112-111828,local,local,300,S,S,A,A,A-S.png,A-S.png,sS,sS,mask-2.png,mask-2.png,s,1,0.5617090000305325,h,0,0.3301339999306947,0.04864910012111068,0.047534900018945336,0.10168440011329949,0.09948899992741644,0.30047450005076826
RSVPLG03,cs,20251112-111109,1.0.2,20251105-084826,740,Experiment,Both,1,Automatic,main,71,20251112-111832,global,local,300,H,H,A,A,H-A.png,A-H.png,hH,hH,mask-1.png,mask-1.png,h,1,0.6391946999356151,h,1,0.17828069999814034,0.04752880008891225,0.04550689994357526,0.1015966001432389,0.09860359993763268,0.30185040016658604
RSVPLG03,cs,20251112-111109,1.0.2,20251105-084826,740,Experiment,Both,1,Automatic,main,72,20251112-111837,local,local,300,H,S,E,A,E-H.png,A-S.png,hH,sS,mask-4.png,mask-1.png,h,1,1.29039330012165,s,1,0.19889999995939434,0.047190999845042825,0.04756209999322891,0.09823110001161695,0.0996106001548469,0.2984688999131322
RSVPLG03,cs,20251112-111109,1.0.2,20251105-084826,740,Experiment,Both,1,Automatic,main,73,20251112-111842,local,local,750,S,S,E,A,E-S.png,A-S.png,sS,sS,mask-3.png,mask-4.png,s,1,0.4915787000209093,s,1,0.22909729997627437,0.04656110005453229,0.04751930013298988,0.10055960016325116,0.10151790012605488,0.7490556000266224
RSVPLG03,cs,20251112-111109,1.0.2,20251105-084826,740,Experiment,Both,1,Automatic,main,74,20251112-111847,local,local,750,S,H,A,E,A-S.png,E-H.png,sS,hH,mask-4.png,mask-4.png,s,1,0.43836220004595816,h,1,0.1353719998151064,0.04589630011469126,0.04852399998344481,0.09811450005508959,0.10054929996840656,0.7480425001122057
RSVPLG03,cs,20251112-111109,1.0.2,20251105-084826,740,Experiment,Both,1,Automatic,main,75,20251112-111851,local,global,750,H,H,E,E,E-H.png,H-E.png,hH,hH,mask-3.png,mask-4.png,s,0,1.0232661000918597,h,1,0.35686509986408055,0.04673850000835955,0.04860979993827641,0.09886579983867705,0.10064049996435642,0.7493068999610841
RSVPLG03,cs,20251112-111109,1.0.2,20251105-084826,740,Experiment,Both,1,Automatic,main,76,20251112-111912,local,local,750,S,S,A,A,A-S.png,A-S.png,sS,sS,mask-4.png,mask-2.png,s,1,0.3876604998949915,s,1,0.13361690007150173,0.04850570019334555,0.046560600167140365,0.09961090004071593,0.09964840020984411,0.7498431999702007
RSVPLG03,cs,20251112-111109,1.0.2,20251105-084826,740,Experiment,Both,1,Automatic,main,77,20251112-111917,global,global,750,H,H,E,E,H-E.png,H-E.png,hH,hH,mask-1.png,mask-1.png,h,1,0.23747360007837415,h,1,0.14270419999957085,0.047513100085780025,0.047505700029432774,0.10152500006370246,0.10149849997833371,0.7498264000751078
RSVPLG03,cs,20251112-111109,1.0.2,20251105-084826,740,Experiment,Both,1,Automatic,main,78,20251112-111922,local,local,300,H,H,E,A,E-H.png,A-H.png,hH,hH,mask-2.png,mask-4.png,h,1,0.5005105000454932,s,0,0.16729550017043948,0.04657829995267093,0.04653229983523488,0.09958990011364222,0.09886189992539585,0.3001690001692623
RSVPLG03,cs,20251112-111109,1.0.2,20251105-084826,740,Experiment,Both,1,Automatic,main,79,20251112-111926,global,global,750,S,H,E,A,S-E.png,H-A.png,sS,hH,mask-2.png,mask-4.png,h,0,1.1664921001065522,h,1,0.22213030001148582,0.04777640011161566,0.04672739980742335,0.10003860015422106,0.09995880001224577,0.7506336001679301
RSVPLG03,cs,20251112-111109,1.0.2,20251105-084826,740,Experiment,Both,1,Automatic,main,80,20251112-111931,global,global,750,S,S,E,A,S-E.png,S-A.png,sS,sS,mask-1.png,mask-2.png,s,1,1.4507923000492156,s,1,0.13620750000700355,0.046487299958243966,0.04804239980876446,0.09850870002992451,0.1001448999159038,0.7485160999931395
RSVPLG03,cs,20251112-111109,1.0.2,20251105-084826,740,Experiment,Both,1,Automatic,main,81,20251112-111937,local,local,750,S,S,E,A,E-S.png,A-S.png,sS,sS,mask-3.png,mask-3.png,s,1,0.3662527999840677,s,1,0.5561609999276698,0.04749900009483099,0.04752220003865659,0.09933270001783967,0.09936550003476441,0.7496352000162005
RSVPLG03,cs,20251112-111109,1.0.2,20251105-084826,740,Experiment,Both,1,Automatic,main,82,20251112-111942,global,global,300,H,H,A,A,H-A.png,H-A.png,hH,hH,mask-1.png,mask-2.png,h,1,0.38303739996626973,h,1,0.15342059987597167,0.04752000002190471,0.048504400067031384,0.09851719997823238,0.09989680000580847,0.29870709986425936
RSVPLG03,cs,20251112-111109,1.0.2,20251105-084826,740,Experiment,Both,1,Automatic,main,83,20251112-111946,global,local,750,S,S,E,A,S-E.png,A-S.png,sS,sS,mask-2.png,mask-2.png,s,1,0.960074600065127,h,0,0.21649630018509924,0.04736230010166764,0.04715759982354939,0.10139099997468293,0.10016139992512763,0.7503908001817763
RSVPLG03,cs,20251112-111109,1.0.2,20251105-084826,740,Experiment,Both,1,Automatic,main,84,20251112-111951,local,global,750,H,H,A,E,A-H.png,H-E.png,hH,hH,mask-3.png,mask-1.png,h,1,0.4982473000418395,h,1,0.42662969999946654,0.0474972000811249,0.04750019987113774,0.10051220003515482,0.10051159979775548,0.7500023001339287
RSVPLG03,cs,20251112-111109,1.0.2,20251105-084826,740,Experiment,Both,1,Automatic,main,85,20251112-111956,global,local,300,S,S,E,A,S-E.png,A-S.png,sS,sS,mask-3.png,mask-2.png,s,1,0.43118189997039735,s,1,0.21603500004857779,0.048602999886497855,0.04755500005558133,0.10061399987898767,0.09955830010585487,0.30098439985886216
RSVPLG03,cs,20251112-111109,1.0.2,20251105-084826,740,Experiment,Both,1,Automatic,main,86,20251112-112001,local,global,300,H,H,A,A,A-H.png,H-A.png,hH,hH,mask-3.png,mask-1.png,h,1,0.4376528998836875,h,1,0.20272949989885092,0.04670140007510781,0.047472700010985136,0.0998029001057148,0.09923480008728802,0.3001596999820322
RSVPLG03,cs,20251112-111109,1.0.2,20251105-084826,740,Experiment,Both,1,Automatic,main,87,20251112-112005,global,global,750,S,H,E,A,S-E.png,H-A.png,sS,hH,mask-2.png,mask-2.png,s,1,0.38194240001030266,h,1,0.17177790007553995,0.04770580003969371,0.04609099985100329,0.09988560015335679,0.1000175999943167,0.7498539001680911
RSVPLG03,cs,20251112-111109,1.0.2,20251105-084826,740,Experiment,Both,1,Automatic,main,88,20251112-112010,global,global,300,S,S,E,A,S-E.png,S-A.png,sS,sS,mask-4.png,mask-2.png,s,1,0.42359749996103346,s,1,0.18150649988092482,0.04692400014027953,0.047036100178956985,0.10009820014238358,0.10026770015247166,0.2998645999468863
RSVPLG03,cs,20251112-111109,1.0.2,20251105-084826,740,Experiment,Both,1,Automatic,main,89,20251112-112014,global,global,300,H,S,A,A,H-A.png,S-A.png,hH,sS,mask-2.png,mask-4.png,h,1,0.3467973000369966,h,0,0.15464730001986027,0.04876850009895861,0.047625600127503276,0.10018469998613,0.09892390016466379,0.3013315999414772
RSVPLG03,cs,20251112-111109,1.0.2,20251105-084826,740,Experiment,Both,1,Automatic,main,90,20251112-112018,global,local,750,H,H,E,E,H-E.png,E-H.png,hH,hH,mask-1.png,mask-3.png,h,1,0.594974200008437,s,0,0.2181822001002729,0.047679000068455935,0.04663130012340844,0.09895680006593466,0.09999800007790327,0.7500559000764042
RSVPLG03,cs,20251112-111109,1.0.2,20251105-084826,740,Experiment,Both,1,Automatic,main,91,20251112-112023,global,local,750,S,H,A,A,S-A.png,A-H.png,sS,hH,mask-1.png,mask-1.png,s,1,0.40084840008057654,h,1,0.19500509998761117,0.04573930008336902,0.04672070010565221,0.0990947000682354,0.10088929999619722,0.7487959999125451
RSVPLG03,cs,20251112-111109,1.0.2,20251105-084826,740,Experiment,Both,1,Automatic,main,92,20251112-112028,local,global,300,H,S,A,E,A-H.png,S-E.png,hH,sS,mask-3.png,mask-1.png,h,1,0.648548899916932,h,0,0.15679309982806444,0.046732400078326464,0.04789579985663295,0.09957050019875169,0.10009279986843467,0.29821140016429126
RSVPLG03,cs,20251112-111109,1.0.2,20251105-084826,740,Experiment,Both,1,Automatic,main,93,20251112-112032,global,global,300,H,S,A,A,H-A.png,S-A.png,hH,sS,mask-1.png,mask-3.png,h,1,0.8195975001435727,h,0,0.15212509990669787,0.04654350015334785,0.04759919992648065,0.10058220010250807,0.10059889988042414,0.2998777001630515
RSVPLG03,cs,20251112-111109,1.0.2,20251105-084826,740,Experiment,Both,1,Automatic,main,94,20251112-112037,global,local,750,S,S,E,E,S-E.png,E-S.png,sS,sS,mask-1.png,mask-3.png,s,1,0.8876797999255359,h,0,1.5586812000256032,0.04653539997525513,0.047521800035610795,0.0995767000131309,0.1015234999358654,0.7486876000184566
RSVPLG03,cs,20251112-111109,1.0.2,20251105-084826,740,Experiment,Both,1,Automatic,main,95,20251112-112043,global,local,300,H,H,A,A,H-A.png,A-H.png,hH,hH,mask-1.png,mask-3.png,h,1,0.49103379994630814,h,1,0.2288635999429971,0.04749300004914403,0.04552179994061589,0.10152160003781319,0.09851409983821213,0.30180790019221604
RSVPLG03,cs,20251112-111109,1.0.2,20251105-084826,740,Experiment,Both,1,Automatic,main,96,20251112-112048,global,global,750,H,S,E,A,H-E.png,S-A.png,hH,sS,mask-2.png,mask-2.png,h,1,0.5380564001388848,s,1,0.14876280003227293,0.047546799993142486,0.04750600014813244,0.10156389977782965,0.10153740015812218,0.7497313998173922
RSVPLG03,cs,20251112-111109,1.0.2,20251105-084826,740,Experiment,Both,1,Automatic,main,97,20251112-112052,global,global,300,S,S,E,E,S-E.png,S-E.png,sS,sS,mask-3.png,mask-1.png,h,0,2.8354452000930905,s,1,0.13726029987446964,0.048659800086170435,0.04862800007686019,0.10084190010093153,0.0997874999884516,0.29936810000799596
RSVPLG03,cs,20251112-111109,1.0.2,20251105-084826,740,Experiment,Both,1,Automatic,main,98,20251112-112059,local,global,300,H,S,A,E,A-H.png,S-E.png,hH,sS,mask-1.png,mask-3.png,h,1,0.6220750000793487,s,1,0.15239099995233119,0.0467121999245137,0.04772679996676743,0.0990835998672992,0.09991439990699291,0.30007630004547536
RSVPLG03,cs,20251112-111109,1.0.2,20251105-084826,740,Experiment,Both,1,Automatic,main,99,20251112-112103,global,global,750,H,H,E,A,H-E.png,H-A.png,hH,hH,mask-4.png,mask-3.png,h,1,0.3831259000580758,h,1,0.09240500000305474,0.04709260002709925,0.04715969995595515,0.10025870008394122,0.09932109992951155,0.7497650000732392
RSVPLG03,cs,20251112-111109,1.0.2,20251105-084826,740,Experiment,Both,1,Automatic,main,100,20251112-112108,global,local,300,S,S,A,E,S-A.png,E-S.png,sS,sS,mask-4.png,mask-1.png,s,1,0.4387849001213908,h,0,0.1836580999661237,0.04685700009576976,0.04651560005731881,0.10036309994757175,0.09850169997662306,0.30072579998522997
RSVPLG03,cs,20251112-112202,1.0.2,20251105-084826,740,Experiment,Both,1,Automatic,warmup,1,20251112-112239,global,global,750,H,H,A,E,H-A.png,H-E.png,hH,hH,mask-3.png,mask-2.png,h,1,0.2711821000557393,h,1,0.07656479999423027,0.042012999998405576,0.0467499999795109,0.09526120009832084,0.09893560013733804,0.7446820000186563
RSVPLG03,cs,20251112-112202,1.0.2,20251105-084826,740,Experiment,Both,1,Automatic,warmup,2,20251112-112243,global,local,300,S,S,E,A,S-E.png,A-S.png,sS,sS,mask-2.png,mask-1.png,s,1,0.4835596000775695,s,1,0.11723169987089932,0.047724799951538444,0.04773109988309443,0.099869400030002,0.09983969992026687,0.29959410009905696
RSVPLG03,cs,20251112-112202,1.0.2,20251105-084826,740,Experiment,Both,1,Automatic,warmup,3,20251112-112247,local,global,300,S,H,A,A,A-S.png,H-A.png,sS,hH,mask-1.png,mask-3.png,s,1,0.5927122000139207,s,0,0.1185260999482125,0.047210499877110124,0.04668259993195534,0.09943639999255538,0.09893979993648827,0.29929039999842644
RSVPLG03,cs,20251112-112202,1.0.2,20251105-084826,740,Experiment,Both,1,Automatic,warmup,4,20251112-112252,local,local,300,S,H,E,E,E-S.png,E-H.png,sS,hH,mask-4.png,mask-2.png,s,1,0.47362689999863505,h,1,0.15522139985114336,0.04656059993430972,0.047631199937313795,0.100629499880597,0.0997021000366658,0.29916379996575415
RSVPLG03,cs,20251112-112202,1.0.2,20251105-084826,740,Experiment,Both,1,Automatic,main,5,20251112-112256,global,local,750,S,H,E,A,S-E.png,A-H.png,sS,hH,mask-1.png,mask-4.png,s,1,0.6468045001383871,h,1,0.6511649999301881,0.04642230016179383,0.04751800000667572,0.09879210009239614,0.0995958000421524,0.7484327999409288
RSVPLG03,cs,20251112-112202,1.0.2,20251105-084826,740,Experiment,Both,1,Automatic,main,6,20251112-112301,global,local,300,H,S,E,A,H-E.png,A-S.png,hH,sS,mask-3.png,mask-3.png,h,1,0.3059187999460846,h,0,0.22151289996691048,0.047516100108623505,0.04878429998643696,0.10153730004094541,0.10192520008422434,0.2998377000913024
RSVPLG03,cs,20251112-112202,1.0.2,20251105-084826,740,Experiment,Both,1,Automatic,main,7,20251112-112306,local,global,750,S,S,E,A,E-S.png,S-A.png,sS,sS,mask-1.png,mask-4.png,s,1,0.5881914999336004,s,1,0.7652477999217808,0.04851840017363429,0.047511199954897165,0.1015342001337558,0.10157379996962845,0.7500049001537263
RSVPLG03,cs,20251112-112202,1.0.2,20251105-084826,740,Experiment,Both,1,Automatic,main,8,20251112-112311,local,global,300,S,H,A,E,A-S.png,H-E.png,sS,hH,mask-1.png,mask-1.png,s,1,0.5881145999301225,s,0,0.21412020013667643,0.047543699853122234,0.046222600154578686,0.10145589988678694,0.0982332001440227,0.3016895998734981
RSVPLG03,cs,20251112-112202,1.0.2,20251105-084826,740,Experiment,Both,1,Automatic,main,9,20251112-112316,local,global,750,S,S,A,E,A-S.png,S-E.png,sS,sS,mask-4.png,mask-1.png,s,1,1.4005573999602348,h,0,0.138889400055632,0.04558619996532798,0.047807499999180436,0.09865349996834993,0.10006500012241304,0.7476856999564916
RSVPLG03,cs,20251112-112202,1.0.2,20251105-084826,740,Experiment,Both,1,Automatic,main,10,20251112-112321,local,local,750,S,H,A,E,A-S.png,E-H.png,sS,hH,mask-2.png,mask-1.png,s,1,0.7418508999980986,h,1,0.1850877997931093,0.04726150003261864,0.04833689983934164,0.10019059991464019,0.10055919992737472,0.7494816000107676
RSVPLG03,cs,20251112-112202,1.0.2,20251105-084826,740,Experiment,Both,1,Automatic,main,11,20251112-112326,local,global,300,S,S,E,E,E-S.png,S-E.png,sS,sS,mask-4.png,mask-2.png,h,0,2.914511599810794,s,1,0.01199110015295446,0.04499630001373589,0.047567399917170405,0.09809249988757074,0.09858979983255267,0.2993340000975877
RSVPLG03,cs,20251112-112202,1.0.2,20251105-084826,740,Experiment,Both,1,Automatic,main,12,20251112-112333,global,global,300,H,H,E,E,H-E.png,H-E.png,hH,hH,mask-1.png,mask-1.png,h,1,0.46412689983844757,h,1,0.1843489999882877,0.04755480005405843,0.04678070009686053,0.1006253999657929,0.09886960010044277,0.2998806000687182
RSVPLG03,cs,20251112-112202,1.0.2,20251105-084826,740,Experiment,Both,1,Automatic,main,13,20251112-112337,local,global,300,S,S,E,A,E-S.png,S-A.png,sS,sS,mask-2.png,mask-2.png,s,1,0.9363397001288831,h,0,0.4418091999832541,0.0475163001101464,0.04753029998391867,0.10151170007884502,0.10054100002162158,0.2998643000610173
RSVPLG03,cs,20251112-112202,1.0.2,20251105-084826,740,Experiment,Both,1,Automatic,main,14,20251112-112342,local,local,300,S,H,A,A,A-S.png,A-H.png,sS,hH,mask-3.png,mask-2.png,h,0,0.7970040000509471,h,1,0.16740359994582832,0.04856560006737709,0.04753040010109544,0.10061379987746477,0.09991839993745089,0.30083999992348254
RSVPLG03,cs,20251112-112202,1.0.2,20251105-084826,740,Experiment,Both,1,Automatic,main,15,20251112-112347,local,local,750,S,H,A,E,A-S.png,E-H.png,sS,hH,mask-2.png,mask-3.png,s,1,0.4699562001042068,h,1,0.3289799999911338,0.047494599828496575,0.04751830012537539,0.10051789996214211,0.10130740003660321,0.7501977998763323
RSVPLG03,cs,20251112-112202,1.0.2,20251105-084826,740,Experiment,Both,1,Automatic,main,16,20251112-112352,global,global,750,H,H,E,E,H-E.png,H-E.png,hH,hH,mask-2.png,mask-1.png,h,1,0.3227387999650091,h,1,0.10848299995996058,0.047768000047653913,0.04774750000797212,0.09898480004630983,0.09970439993776381,0.7499963999725878
RSVPLG03,cs,20251112-112202,1.0.2,20251105-084826,740,Experiment,Both,1,Automatic,main,17,20251112-112356,global,local,300,H,H,A,A,H-A.png,A-H.png,hH,hH,mask-4.png,mask-4.png,h,1,0.41931100003421307,h,1,0.21389010013081133,0.04770650016143918,0.047668999992311,0.10055880015715957,0.09962150012142956,0.29987380001693964
RSVPLG03,cs,20251112-112202,1.0.2,20251105-084826,740,Experiment,Both,1,Automatic,main,18,20251112-112400,global,local,300,H,S,E,E,H-E.png,E-S.png,hH,sS,mask-3.png,mask-2.png,h,1,0.35609620017930865,h,0,0.31489020003937185,0.04765239986591041,0.04748339997604489,0.09983880002982914,0.09991159988567233,0.3006321999710053
RSVPLG03,cs,20251112-112202,1.0.2,20251105-084826,740,Experiment,Both,1,Automatic,main,19,20251112-112405,global,global,750,H,S,E,A,H-E.png,S-A.png,hH,sS,mask-2.png,mask-1.png,h,1,0.2560688001103699,s,1,0.14614770002663136,0.04770680004730821,0.04662010003812611,0.09993440005928278,0.09879760001786053,0.7494353000074625
RSVPLG03,cs,20251112-112202,1.0.2,20251105-084826,740,Experiment,Both,1,Automatic,main,20,20251112-112409,global,global,300,S,H,E,A,S-E.png,H-A.png,sS,hH,mask-4.png,mask-1.png,s,1,0.36814339994452894,h,1,0.1984023000113666,0.04757649987004697,0.04856489994563162,0.10073979990556836,0.10078010009601712,0.3005953999236226
RSVPLG03,cs,20251112-112202,1.0.2,20251105-084826,740,Experiment,Both,1,Automatic,main,21,20251112-112413,global,local,750,S,H,A,A,S-A.png,A-H.png,sS,hH,mask-2.png,mask-3.png,s,1,0.3723360998556018,h,1,0.23676520003937185,0.04667640011757612,0.04868740006349981,0.09988530003465712,0.09987240005284548,0.7479741000570357
RSVPLG03,cs,20251112-112202,1.0.2,20251105-084826,740,Experiment,Both,1,Automatic,main,22,20251112-112418,global,global,750,S,H,E,A,S-E.png,H-A.png,sS,hH,mask-3.png,mask-2.png,s,1,0.40061970008537173,h,1,0.012129300041124225,0.047392499865964055,0.04592329985462129,0.10080959997139871,0.09996289992704988,0.7506391999777406
RSVPLG03,cs,20251112-112202,1.0.2,20251105-084826,740,Experiment,Both,1,Automatic,main,23,20251112-112423,local,local,300,S,H,E,A,E-S.png,A-H.png,sS,hH,mask-4.png,mask-4.png,s,1,0.5082368000876158,s,0,0.1848263000138104,0.04757889988832176,0.04749889997765422,0.1015198000241071,0.09956410015001893,0.2998897999059409
RSVPLG03,cs,20251112-112202,1.0.2,20251105-084826,740,Experiment,Both,1,Automatic,main,24,20251112-112427,global,local,750,H,S,A,A,H-A.png,A-S.png,hH,sS,mask-2.png,mask-3.png,h,1,0.43350899987854064,h,0,0.1244783999864012,0.04856470017693937,0.04858009982854128,0.09959820006042719,0.10093009984120727,0.748756900196895
RSVPLG03,cs,20251112-112202,1.0.2,20251105-084826,740,Experiment,Both,1,Automatic,main,25,20251112-112432,global,local,750,S,S,E,A,S-E.png,A-S.png,sS,sS,mask-1.png,mask-4.png,s,1,0.43939279997721314,h,0,2.035967499949038,0.04751930013298988,0.047521800035610795,0.1005337000824511,0.09937330009415746,0.7502009000163525
RSVPLG03,cs,20251112-112202,1.0.2,20251105-084826,740,Experiment,Both,1,Automatic,main,26,20251112-112452,global,global,750,S,S,E,A,S-E.png,S-A.png,sS,sS,mask-3.png,mask-2.png,h,0,0.45273829996585846,s,1,0.5282286000438035,0.04663080000318587,0.0468754000030458,0.10052039986476302,0.10102599998936057,0.7491796999238431
RSVPLG03,cs,20251112-112202,1.0.2,20251105-084826,740,Experiment,Both,1,Automatic,main,27,20251112-112457,local,local,300,S,H,E,E,E-S.png,E-H.png,sS,hH,mask-1.png,mask-1.png,s,1,0.4158914000727236,s,0,0.1838674999307841,0.047704100143164396,0.04768540011718869,0.1000757000874728,0.09992950013838708,0.3006144999526441
RSVPLG03,cs,20251112-112202,1.0.2,20251105-084826,740,Experiment,Both,1,Automatic,main,28,20251112-112501,global,global,750,H,H,E,A,H-E.png,H-A.png,hH,hH,mask-1.png,mask-2.png,h,1,0.37129719997756183,h,1,0.20207159989513457,0.04869150021113455,0.04767629993148148,0.10073890001513064,0.10186669998802245,0.7496220001485199
RSVPLG03,cs,20251112-112202,1.0.2,20251105-084826,740,Experiment,Both,1,Automatic,main,29,20251112-112506,local,local,300,H,S,A,A,A-H.png,A-S.png,hH,sS,mask-2.png,mask-1.png,h,1,0.5324494000524282,s,1,0.25110249989666045,0.0487441997975111,0.045657800044864416,0.10001219995319843,0.09961040015332401,0.301578699843958
RSVPLG03,cs,20251112-112202,1.0.2,20251105-084826,740,Experiment,Both,1,Automatic,main,30,20251112-112510,local,local,750,S,H,A,A,A-S.png,A-H.png,sS,hH,mask-2.png,mask-1.png,s,1,0.4819513999391347,h,1,0.25410560006275773,0.04586319997906685,0.0485729998908937,0.09875710005871952,0.09978029993362725,0.7479473000857979
RSVPLG03,cs,20251112-112202,1.0.2,20251105-084826,740,Experiment,Both,1,Automatic,main,31,20251112-112515,local,local,750,H,H,E,A,E-H.png,A-H.png,hH,hH,mask-3.png,mask-1.png,h,1,0.7188474000431597,h,1,0.5334677000064403,0.048797700088471174,0.04768950003199279,0.10006309999153018,0.09896999993361533,0.750890800030902
RSVPLG03,cs,20251112-112202,1.0.2,20251105-084826,740,Experiment,Both,1,Automatic,main,32,20251112-112520,global,local,300,S,H,A,A,S-A.png,A-H.png,sS,hH,mask-1.png,mask-2.png,s,1,0.48329470003955066,h,1,0.2017065999098122,0.047524600056931376,0.04569109994918108,0.09990140004083514,0.09891370008699596,0.3015322999563068
RSVPLG03,cs,20251112-112202,1.0.2,20251105-084826,740,Experiment,Both,1,Automatic,main,33,20251112-112525,global,global,750,H,H,A,A,H-A.png,H-A.png,hH,hH,mask-1.png,mask-4.png,h,1,0.29987320001237094,h,1,0.1797531999181956,0.047711400082334876,0.04755809996277094,0.10171699989587069,0.10063520004041493,0.7498045999091119
RSVPLG03,cs,20251112-112202,1.0.2,20251105-084826,740,Experiment,Both,1,Automatic,main,34,20251112-112529,global,global,750,S,H,E,A,S-E.png,H-A.png,sS,hH,mask-1.png,mask-4.png,s,1,0.3708420000039041,h,1,0.43971760012209415,0.04762439988553524,0.04751619999296963,0.09963200008496642,0.09954169997945428,0.7501248000189662
RSVPLG03,cs,20251112-112202,1.0.2,20251105-084826,740,Experiment,Both,1,Automatic,main,35,20251112-112534,local,local,300,H,S,A,A,A-H.png,A-S.png,hH,sS,mask-4.png,mask-1.png,h,1,1.4593686999287456,h,0,0.5236794999800622,0.047540799947455525,0.047545199980959296,0.09860510006546974,0.09964530006982386,0.30018969997763634
RSVPLG03,cs,20251112-112202,1.0.2,20251105-084826,740,Experiment,Both,1,Automatic,main,36,20251112-112540,local,global,300,S,H,A,E,A-S.png,H-E.png,sS,hH,mask-2.png,mask-2.png,s,1,0.4512877999804914,s,0,0.21052270010113716,0.04591450002044439,0.046804700046777725,0.09869100013747811,0.10031220014207065,0.2993554000277072
RSVPLG03,cs,20251112-112202,1.0.2,20251105-084826,740,Experiment,Both,1,Automatic,main,37,20251112-112544,global,global,300,H,S,E,E,H-E.png,S-E.png,hH,sS,mask-4.png,mask-1.png,h,1,0.4536563998553902,s,1,0.2456567999906838,0.048825800186023116,0.048920399975031614,0.10092610004357994,0.10117829986847937,0.29957470018416643
RSVPLG03,cs,20251112-112202,1.0.2,20251105-084826,740,Experiment,Both,1,Automatic,main,38,20251112-112548,global,local,300,S,H,A,E,S-A.png,E-H.png,sS,hH,mask-4.png,mask-2.png,s,1,5.788905000081286,h,1,0.9753706001210958,0.04871749994345009,0.045691899955272675,0.10091409995220602,0.0999112999998033,0.3015523999929428
RSVPLG03,cs,20251112-112202,1.0.2,20251105-084826,740,Experiment,Both,1,Automatic,main,39,20251112-112559,local,global,750,H,H,A,A,A-H.png,H-A.png,hH,hH,mask-1.png,mask-3.png,h,1,0.8325946000404656,h,1,0.7410708002280444,0.047304100124165416,0.047737699933350086,0.09851160016842186,0.09996060002595186,0.7482066000811756
RSVPLG03,cs,20251112-112202,1.0.2,20251105-084826,740,Experiment,Both,1,Automatic,main,40,20251112-112605,global,local,300,S,S,A,A,S-A.png,A-S.png,sS,sS,mask-2.png,mask-4.png,s,1,0.5025297000538558,h,0,0.2083349998574704,0.04769429983571172,0.04654340003617108,0.09990169992670417,0.09890590002760291,0.3014978999271989
RSVPLG03,cs,20251112-112202,1.0.2,20251105-084826,740,Experiment,Both,1,Automatic,main,41,20251112-112609,global,global,300,H,H,E,E,H-E.png,H-E.png,hH,hH,mask-4.png,mask-4.png,h,1,2.2892735998611897,h,1,0.15616029989905655,0.04760430008172989,0.046619600150734186,0.09967650007456541,0.09899750002659857,0.29898449988104403
RSVPLG03,cs,20251112-112202,1.0.2,20251105-084826,740,Experiment,Both,1,Automatic,main,42,20251112-112615,global,local,750,H,H,E,E,H-E.png,E-H.png,hH,hH,mask-3.png,mask-4.png,h,1,0.47538829990662634,s,0,0.524508300004527,0.04770670016296208,0.04768049996346235,0.10190150002017617,0.09973479993641376,0.7511601001024246
RSVPLG03,cs,20251112-112202,1.0.2,20251105-084826,740,Experiment,Both,1,Automatic,main,43,20251112-112620,global,local,750,H,S,E,E,H-E.png,E-S.png,hH,sS,mask-1.png,mask-4.png,h,1,0.5333872998598963,h,0,1.5085810997989029,0.046539500122889876,0.047567299799993634,0.09939690004102886,0.10066429991275072,0.7485920002218336
RSVPLG03,cs,20251112-112202,1.0.2,20251105-084826,740,Experiment,Both,1,Automatic,main,44,20251112-112626,global,global,300,H,S,E,A,H-E.png,S-A.png,hH,sS,mask-4.png,mask-4.png,h,1,0.4667060999199748,s,1,0.373389600077644,0.04755700007081032,0.04750470002181828,0.10060820006765425,0.09956509992480278,0.30029739998281
RSVPLG03,cs,20251112-112202,1.0.2,20251105-084826,740,Experiment,Both,1,Automatic,main,45,20251112-112631,global,local,300,H,H,A,A,H-A.png,A-H.png,hH,hH,mask-4.png,mask-4.png,h,1,0.5265512000769377,h,1,0.18836469994857907,0.047846300061792135,0.04778019990772009,0.10111859999597073,0.10002720006741583,0.30088920006528497
RSVPLG03,cs,20251112-112202,1.0.2,20251105-084826,740,Experiment,Both,1,Automatic,main,46,20251112-112635,local,global,750,H,H,E,E,E-H.png,H-E.png,hH,hH,mask-4.png,mask-1.png,h,1,0.6486498001031578,s,0,0.41007720003835857,0.04784850007854402,0.04776540002785623,0.10071490006521344,0.09929689997807145,0.7497318000532687
RSVPLG03,cs,20251112-112202,1.0.2,20251105-084826,740,Experiment,Both,1,Automatic,main,47,20251112-112640,local,local,300,H,S,E,E,E-H.png,E-S.png,hH,sS,mask-2.png,mask-4.png,h,1,2.30830130004324,h,0,0.10848450008779764,0.04753890004940331,0.04904389986768365,0.09960630000568926,0.10016109980642796,0.29827950010076165
RSVPLG03,cs,20251112-112202,1.0.2,20251105-084826,740,Experiment,Both,1,Automatic,main,48,20251112-112646,global,local,750,H,H,A,A,H-A.png,A-H.png,hH,hH,mask-4.png,mask-1.png,h,1,0.4953811001032591,h,1,0.22410079999826849,0.047688499791547656,0.04700450017116964,0.0986617999151349,0.09977920004166663,0.7493456997908652
RSVPLG03,cs,20251112-112202,1.0.2,20251105-084826,740,Experiment,Both,1,Automatic,main,49,20251112-112651,global,global,750,S,H,A,E,S-A.png,H-E.png,sS,hH,mask-3.png,mask-3.png,s,1,0.42739630001597106,h,1,0.5503656000364572,0.048228800063952804,0.04751789988949895,0.10029150010086596,0.09953709994442761,0.7501356001012027
RSVPLG03,cs,20251112-112202,1.0.2,20251105-084826,740,Experiment,Both,1,Automatic,main,50,20251112-112656,local,global,750,S,H,A,E,A-S.png,H-E.png,sS,hH,mask-4.png,mask-3.png,h,0,5.0832678999286145,s,0,0.17842999985441566,0.04753760015591979,0.04757399996742606,0.0995527000632137,0.09851430007256567,0.7500591999851167
RSVPLG03,cs,20251112-112202,1.0.2,20251105-084826,740,Experiment,Both,1,Automatic,main,51,20251112-112819,global,global,300,S,H,A,A,S-A.png,H-A.png,sS,hH,mask-1.png,mask-2.png,s,1,0.31975059979595244,h,1,0.1973794000223279,0.04568039998412132,0.04661610000766814,0.09867609990760684,0.10060409992001951,0.2992982999421656
RSVPLG03,cs,20251112-112202,1.0.2,20251105-084826,740,Experiment,Both,1,Automatic,main,52,20251112-112823,local,local,750,H,S,E,A,E-H.png,A-S.png,hH,sS,mask-3.png,mask-4.png,h,1,0.4245438000652939,s,1,0.15133839985355735,0.046923100017011166,0.04650039994157851,0.09881219989620149,0.09854599996469915,0.7497346000745893
RSVPLG03,cs,20251112-112202,1.0.2,20251105-084826,740,Experiment,Both,1,Automatic,main,53,20251112-112828,local,local,300,S,H,A,A,A-S.png,A-H.png,sS,hH,mask-4.png,mask-4.png,s,1,0.3498267000541091,h,1,0.4582936998922378,0.04751399997621775,0.04751449986360967,0.1006819000467658,0.10067990003153682,0.300012500025332
RSVPLG03,cs,20251112-112202,1.0.2,20251105-084826,740,Experiment,Both,1,Automatic,main,54,20251112-112832,local,local,750,H,H,E,E,E-H.png,E-H.png,hH,hH,mask-1.png,mask-2.png,h,1,0.39868809981271625,h,1,0.25210050004534423,0.04724139999598265,0.048551199957728386,0.09955909987911582,0.10158449993468821,0.7489503000397235
RSVPLG03,cs,20251112-112202,1.0.2,20251105-084826,740,Experiment,Both,1,Automatic,main,55,20251112-112837,local,global,750,H,S,A,A,A-H.png,S-A.png,hH,sS,mask-3.png,mask-1.png,h,1,0.8581746998243034,h,0,0.49403900001198053,0.047389499843120575,0.048594600055366755,0.1002652000170201,0.09997159987688065,0.7489287999924272
RSVPLG03,cs,20251112-112202,1.0.2,20251105-084826,740,Experiment,Both,1,Automatic,main,56,20251112-112842,global,local,300,H,S,E,A,H-E.png,A-S.png,hH,sS,mask-2.png,mask-3.png,h,1,0.3346410000231117,h,0,0.1403948999941349,0.04752429993823171,0.04635940003208816,0.0997452000156045,0.09921079990454018,0.29971930012106895
RSVPLG03,cs,20251112-112202,1.0.2,20251105-084826,740,Experiment,Both,1,Automatic,main,57,20251112-112846,local,global,750,S,H,E,E,E-S.png,H-E.png,sS,hH,mask-2.png,mask-4.png,s,1,0.45767050003632903,s,0,0.16436509997583926,0.04852010007016361,0.0473774999845773,0.1007538998965174,0.09938480006530881,0.7499724999070168
RSVPLG03,cs,20251112-112202,1.0.2,20251105-084826,740,Experiment,Both,1,Automatic,main,58,20251112-112851,global,local,750,H,S,A,A,H-A.png,A-S.png,hH,sS,mask-2.png,mask-4.png,h,1,0.5914920000359416,s,1,0.17130999988876283,0.04859449993818998,0.046519000083208084,0.10030219983309507,0.09967120015062392,0.7510666998568922
RSVPLG03,cs,20251112-112202,1.0.2,20251105-084826,740,Experiment,Both,1,Automatic,main,59,20251112-112856,global,global,300,S,H,A,E,S-A.png,H-E.png,sS,hH,mask-1.png,mask-4.png,s,1,0.3748837001621723,s,0,0.15059480001218617,0.04881890001706779,0.04871840006671846,0.1010167000349611,0.10091769997961819,0.3006355999968946
RSVPLG03,cs,20251112-112202,1.0.2,20251105-084826,740,Experiment,Both,1,Automatic,main,60,20251112-112900,global,local,300,S,S,A,E,S-A.png,E-S.png,sS,sS,mask-1.png,mask-4.png,s,1,0.5686492999084294,h,0,0.1827535000629723,0.047905700048431754,0.04767800006084144,0.10016739997081459,0.10093860002234578,0.29916259995661676
RSVPLG03,cs,20251112-112202,1.0.2,20251105-084826,740,Experiment,Both,1,Automatic,main,61,20251112-112905,local,local,750,H,H,A,A,A-H.png,A-H.png,hH,hH,mask-3.png,mask-4.png,h,1,0.5354879999067634,s,0,0.6621284999419004,0.04752850020304322,0.048523700097575784,0.09960570000112057,0.09952410007826984,0.7496265000663698
RSVPLG03,cs,20251112-112202,1.0.2,20251105-084826,740,Experiment,Both,1,Automatic,main,62,20251112-112910,local,global,750,S,H,A,A,A-S.png,H-A.png,sS,hH,mask-2.png,mask-4.png,h,0,1.0290695000439882,s,0,0.26806239993311465,0.04750930005684495,0.04749869997613132,0.09948089998215437,0.10051249992102385,0.7495085000991821
RSVPLG03,cs,20251112-112202,1.0.2,20251105-084826,740,Experiment,Both,1,Automatic,main,63,20251112-112915,global,global,750,H,S,A,E,H-A.png,S-E.png,hH,sS,mask-2.png,mask-2.png,h,1,0.8584972999524325,h,0,0.5229412000626326,0.046897799940779805,0.046765599865466356,0.10002060001716018,0.10000819992274046,0.7504165000282228
RSVPLG03,cs,20251112-112202,1.0.2,20251105-084826,740,Experiment,Both,1,Automatic,main,64,20251112-112921,local,global,300,S,S,E,E,E-S.png,S-E.png,sS,sS,mask-1.png,mask-4.png,s,1,0.4185308001469821,s,1,0.14419030002318323,0.048705399967730045,0.048694499768316746,0.10002900008112192,0.09999269992113113,0.3001700001768768
RSVPLG03,cs,20251112-112202,1.0.2,20251105-084826,740,Experiment,Both,1,Automatic,main,65,20251112-112925,global,global,300,S,H,E,A,S-E.png,H-A.png,sS,hH,mask-3.png,mask-4.png,s,1,2.7915977998636663,s,0,0.15329959988594055,0.04573170002549887,0.04642780008725822,0.09893970005214214,0.0993000001180917,0.2994820000603795
RSVPLG03,cs,20251112-112202,1.0.2,20251105-084826,740,Experiment,Both,1,Automatic,main,66,20251112-112932,local,local,300,H,S,A,A,A-H.png,A-S.png,hH,sS,mask-1.png,mask-4.png,h,1,0.7703495998866856,s,1,0.16535639995709062,0.04704580013640225,0.047222299966961145,0.10009040008299053,0.09851470007561147,0.2998306001536548
RSVPLG03,cs,20251112-112202,1.0.2,20251105-084826,740,Experiment,Both,1,Automatic,main,67,20251112-112936,local,global,300,S,S,A,A,A-S.png,S-A.png,sS,sS,mask-1.png,mask-1.png,h,0,0.5144916998688132,h,0,0.2953902999870479,0.04756840015761554,0.04749140003696084,0.10160900000482798,0.10047580022364855,0.29989699996076524
RSVPLG03,cs,20251112-112202,1.0.2,20251105-084826,740,Experiment,Both,1,Automatic,main,68,20251112-112941,local,global,300,H,H,E,A,E-H.png,H-A.png,hH,hH,mask-2.png,mask-4.png,h,1,2.88134799990803,s,0,0.14950830000452697,0.047481399960815907,0.048511300003156066,0.10049149999395013,0.10049949982203543,0.29957600007764995
RSVPLG03,cs,20251112-112202,1.0.2,20251105-084826,740,Experiment,Both,1,Automatic,main,69,20251112-112948,global,global,300,S,S,A,E,S-A.png,S-E.png,sS,sS,mask-1.png,mask-4.png,s,1,0.386499100131914,s,1,0.18709839996881783,0.047555800061672926,0.04751589987426996,0.09956940007396042,0.10151740000583231,0.29807240003719926
RSVPLG03,cs,20251112-112202,1.0.2,20251105-084826,740,Experiment,Both,1,Automatic,main,70,20251112-112952,global,local,300,H,H,A,A,H-A.png,A-H.png,hH,hH,mask-1.png,mask-3.png,s,0,3.6054008998908103,h,1,0.2210454000160098,0.04751510010100901,0.045476899947971106,0.1005304001737386,0.09855629992671311,0.3018015001434833
RSVPLG03,cs,20251112-112202,1.0.2,20251105-084826,740,Experiment,Both,1,Automatic,main,71,20251112-112959,global,local,300,H,S,A,E,H-A.png,E-S.png,hH,sS,mask-3.png,mask-3.png,h,1,0.3361942998599261,s,1,0.34588610008358955,0.04750139988027513,0.04750290000811219,0.10071850009262562,0.10069140000268817,0.3000922999344766
RSVPLG03,cs,20251112-112202,1.0.2,20251105-084826,740,Experiment,Both,1,Automatic,main,72,20251112-113004,local,local,300,S,H,E,E,E-S.png,E-H.png,sS,hH,mask-4.png,mask-1.png,s,1,3.589565899921581,h,1,0.16946220002137125,0.0487276001367718,0.047096299938857555,0.09998570010066032,0.09924819995649159,0.3010866001714021
RSVPLG03,cs,20251112-112202,1.0.2,20251105-084826,740,Experiment,Both,1,Automatic,main,73,20251112-113011,local,global,750,H,S,A,A,A-H.png,S-A.png,hH,sS,mask-1.png,mask-2.png,s,0,1.6246772001031786,h,0,0.07408330007456243,0.046526100020855665,0.04752700007520616,0.09968989994376898,0.10073300008662045,0.749311399878934
RSVPLG03,cs,20251112-112202,1.0.2,20251105-084826,740,Experiment,Both,1,Automatic,main,74,20251112-113017,local,global,750,S,H,E,E,E-S.png,H-E.png,sS,hH,mask-3.png,mask-1.png,h,0,0.6298943001311272,s,0,0.5527749999891967,0.04752290016040206,0.04868720006197691,0.10141520015895367,0.09991180012002587,0.750224299961701
RSVPLG03,cs,20251112-112202,1.0.2,20251105-084826,740,Experiment,Both,1,Automatic,main,75,20251112-113022,global,local,750,S,H,A,A,S-A.png,A-H.png,sS,hH,mask-1.png,mask-2.png,s,1,0.6040208998601884,h,1,0.2452539000660181,0.047612200025469065,0.0485014000441879,0.09889880008995533,0.09955179993994534,0.7494433000683784
RSVPLG03,cs,20251112-112202,1.0.2,20251105-084826,740,Experiment,Both,1,Automatic,main,76,20251112-113047,global,global,750,H,S,E,A,H-E.png,S-A.png,hH,sS,mask-3.png,mask-3.png,h,1,1.8595962000545114,h,0,0.2006562000606209,0.047580699902027845,0.04750040010549128,0.10159979993477464,0.09856620011851192,0.7513818999286741
RSVPLG03,cs,20251112-112202,1.0.2,20251105-084826,740,Experiment,Both,1,Automatic,main,77,20251112-113053,global,local,750,H,H,E,E,H-E.png,E-H.png,hH,hH,mask-2.png,mask-3.png,h,1,0.6822965999599546,s,0,0.11032159999012947,0.047722000163048506,0.04571719979867339,0.1015202000271529,0.09988899994641542,0.7514646002091467
RSVPLG03,cs,20251112-112202,1.0.2,20251105-084826,740,Experiment,Both,1,Automatic,main,78,20251112-113058,local,global,750,H,S,A,E,A-H.png,S-E.png,hH,sS,mask-4.png,mask-3.png,h,1,1.2371006000321358,h,0,0.521908099995926,0.04569409997202456,0.04654329991899431,0.10003719991073012,0.09943999978713691,0.74872100003995
RSVPLG03,cs,20251112-112202,1.0.2,20251105-084826,740,Experiment,Both,1,Automatic,main,79,20251112-113104,local,local,750,H,H,E,A,E-H.png,A-H.png,hH,hH,mask-4.png,mask-4.png,h,1,1.3432465000078082,h,1,0.538637800142169,0.04754119995050132,0.0476887000259012,0.09869000012986362,0.09974149987101555,0.7483606000896543
RSVPLG03,cs,20251112-112202,1.0.2,20251105-084826,740,Experiment,Both,1,Automatic,main,80,20251112-113110,global,global,300,H,H,A,A,H-A.png,H-A.png,hH,hH,mask-4.png,mask-4.png,h,1,0.5787613999564201,h,1,0.18902970012277365,0.04758249991573393,0.04752900009043515,0.10091369994916022,0.10058050020597875,0.2996824998408556
RSVPLG03,cs,20251112-112202,1.0.2,20251105-084826,740,Experiment,Both,1,Automatic,main,81,20251112-113114,local,global,300,H,H,A,E,A-H.png,H-E.png,hH,hH,mask-1.png,mask-4.png,h,1,1.075753099983558,s,0,0.23556940001435578,0.04658840014599264,0.04753020009957254,0.09867300000041723,0.10057980008423328,0.2982767999637872
RSVPLG03,cs,20251112-112202,1.0.2,20251105-084826,740,Experiment,Both,1,Automatic,main,82,20251112-113119,global,global,300,H,H,E,E,H-E.png,H-E.png,hH,hH,mask-1.png,mask-2.png,h,1,0.3737844000570476,h,1,0.2956996001303196,0.04555640020407736,0.04842560016550124,0.09955939999781549,0.09878730005584657,0.2986538000404835
RSVPLG03,cs,20251112-112202,1.0.2,20251105-084826,740,Experiment,Both,1,Automatic,main,83,20251112-113124,global,global,300,S,S,E,E,S-E.png,S-E.png,sS,sS,mask-4.png,mask-2.png,s,1,0.5965555000584573,s,1,0.16268950002267957,0.04757019993849099,0.047586699947714806,0.10065450007095933,0.10067830001935363,0.2997208000160754
RSVPLG03,cs,20251112-112202,1.0.2,20251105-084826,740,Experiment,Both,1,Automatic,main,84,20251112-113128,global,local,300,H,H,E,A,H-E.png,A-H.png,hH,hH,mask-1.png,mask-3.png,h,1,0.36869650008156896,h,1,0.2184824999421835,0.04575020004995167,0.04852079995907843,0.09870789991691709,0.10048529994674027,0.2987766000442207
RSVPLG03,cs,20251112-112202,1.0.2,20251105-084826,740,Experiment,Both,1,Automatic,main,85,20251112-113132,local,global,300,H,S,E,E,E-H.png,S-E.png,hH,sS,mask-2.png,mask-2.png,h,1,2.1851331000216305,h,0,0.17169780004769564,0.04567499994300306,0.04747820016928017,0.09830109984613955,0.09949960000813007,0.29865179979242384
RSVPLG03,cs,20251112-112202,1.0.2,20251105-084826,740,Experiment,Both,1,Automatic,main,86,20251112-113138,local,local,300,S,H,E,E,E-S.png,E-H.png,sS,hH,mask-2.png,mask-2.png,s,1,4.469797800062224,s,0,0.17095569986850023,0.0461862999945879,0.04654909996315837,0.0983387001324445,0.09851469984278083,0.29940280015580356
RSVPLG03,cs,20251112-112202,1.0.2,20251105-084826,740,Experiment,Both,1,Automatic,main,87,20251112-113146,global,local,750,H,S,E,E,H-E.png,E-S.png,hH,sS,mask-3.png,mask-1.png,h,1,0.8282264999579638,s,1,0.6305764000862837,0.04749369993805885,0.04752269992604852,0.09951710002496839,0.09950160002335906,0.7483530000317842
RSVPLG03,cs,20251112-112202,1.0.2,20251105-084826,740,Experiment,Both,1,Automatic,main,88,20251112-113152,local,local,750,H,H,A,A,A-H.png,A-H.png,hH,hH,mask-4.png,mask-1.png,h,1,0.543887399835512,h,1,0.21171050006523728,0.0471004000864923,0.04753290000371635,0.10106289992108941,0.10070429998449981,0.7504338000435382
RSVPLG03,cs,20251112-112202,1.0.2,20251105-084826,740,Experiment,Both,1,Automatic,main,89,20251112-113157,local,global,750,S,S,E,A,E-S.png,S-A.png,sS,sS,mask-1.png,mask-1.png,s,1,0.56706180004403,s,1,0.843928299844265,0.04773260001093149,0.04866069997660816,0.1009551000315696,0.10083999997004867,0.7495254999957979
RSVPLG03,cs,20251112-112202,1.0.2,20251105-084826,740,Experiment,Both,1,Automatic,main,90,20251112-113202,local,global,300,S,H,E,A,E-S.png,H-A.png,sS,hH,mask-4.png,mask-1.png,s,1,0.557164300000295,s,0,0.1336862000171095,0.04703250015154481,0.04755529994145036,0.09933250001631677,0.1015852999407798,0.29817310022190213
RSVPLG03,cs,20251112-112202,1.0.2,20251105-084826,740,Experiment,Both,1,Automatic,main,91,20251112-113207,local,local,300,H,S,E,A,E-H.png,A-S.png,hH,sS,mask-4.png,mask-2.png,s,0,2.067332800012082,s,1,0.26373480004258454,0.046672599855810404,0.04781139991246164,0.09989139996469021,0.10102329985238612,0.2987565000075847
RSVPLG03,cs,20251112-112202,1.0.2,20251105-084826,740,Experiment,Both,1,Automatic,main,92,20251112-113213,local,local,300,H,H,A,E,A-H.png,E-H.png,hH,hH,mask-4.png,mask-2.png,h,1,1.0904858999419957,s,0,0.2034650999121368,0.04869420011527836,0.04753859993070364,0.10090980003587902,0.10071649984456599,0.3001896000932902
RSVPLG03,cs,20251112-112202,1.0.2,20251105-084826,740,Experiment,Both,1,Automatic,main,93,20251112-113218,local,global,300,S,S,A,A,A-S.png,S-A.png,sS,sS,mask-1.png,mask-3.png,h,0,0.5234717999119312,h,0,0.2427461000625044,0.047584999818354845,0.04751270008273423,0.1005824999883771,0.10053330007940531,0.29992249980568886
RSVPLG03,cs,20251112-112202,1.0.2,20251105-084826,740,Experiment,Both,1,Automatic,main,94,20251112-113222,global,global,750,H,H,A,E,H-A.png,H-E.png,hH,hH,mask-2.png,mask-2.png,h,1,0.3460969999432564,h,1,0.18242700002156198,0.04651649994775653,0.045714200008660555,0.09830530011095107,0.09928859979845583,0.7496327001135796
RSVPLG03,cs,20251112-112202,1.0.2,20251105-084826,740,Experiment,Both,1,Automatic,main,95,20251112-113227,local,local,750,H,H,A,E,A-H.png,E-H.png,hH,hH,mask-4.png,mask-4.png,h,1,1.2626946000382304,s,0,3.4187733000144362,0.04770399979315698,0.04758370015770197,0.09890589979477227,0.10011869994923472,0.7496437998488545
RSVPLG03,cs,20251112-112202,1.0.2,20251105-084826,740,Experiment,Both,1,Automatic,main,96,20251112-113235,global,global,750,H,H,A,E,H-A.png,H-E.png,hH,hH,mask-3.png,mask-1.png,h,1,1.215410599950701,h,1,0.14129260019399226,0.048729300033301115,0.04775250004604459,0.10171690001152456,0.10004269983619452,0.7497907001525164
RSVPLG03,cs,20251112-112202,1.0.2,20251105-084826,740,Experiment,Both,1,Automatic,main,97,20251112-113241,global,local,750,S,H,A,E,S-A.png,E-H.png,sS,hH,mask-1.png,mask-4.png,s,1,0.4523718999698758,h,1,0.24128070008009672,0.04873099992983043,0.04757920000702143,0.09994599991478026,0.09991570003330708,0.750961999874562
RSVPLG03,cs,20251112-112202,1.0.2,20251105-084826,740,Experiment,Both,1,Automatic,main,98,20251112-113246,local,local,750,H,S,E,E,E-H.png,E-S.png,hH,sS,mask-1.png,mask-4.png,h,1,0.49167040013708174,s,1,0.20461389981210232,0.045908099971711636,0.046535100089386106,0.10002580005675554,0.09970010002143681,0.7498548999428749
RSVPLG03,cs,20251112-112202,1.0.2,20251105-084826,740,Experiment,Both,1,Automatic,main,99,20251112-113251,local,global,300,S,S,E,E,E-S.png,S-E.png,sS,sS,mask-3.png,mask-3.png,s,1,0.660177799873054,s,1,0.36206469987519085,0.04798460006713867,0.04652939992956817,0.10106270015239716,0.099558399990201,0.30068100010976195
RSVPLG03,cs,20251112-112202,1.0.2,20251105-084826,740,Experiment,Both,1,Automatic,main,100,20251112-113255,local,local,750,S,S,A,E,A-S.png,E-S.png,sS,sS,mask-4.png,mask-1.png,s,1,0.9509617001749575,s,1,0.19813610007986426,0.046748700086027384,0.04853900009766221,0.09981700009666383,0.09962320001795888,0.7488915999419987
