exp,exp_initials,runtime,ver,modtime,sub,blocktype,targets,cuetype,mode,trialtype,trial,trialtime,t1_level,t2_level,t2_lag,t1,t2,distractor1,distractor2,stimfile1,stimfile2,t1_corr,t2_corr,maskfile1,maskfile2,t1_resp,t1_acc,t1_rt,t2_resp,t2_acc,t2_rt,t1_dur,t2_dur,t1mask_soa,t2mask_soa,t1t2_soa
RSVPLG03,cs,20260306-105527,1.0.2,20251105-084826,794,Introduction,T1,1,Automatic,main,1,20260306-105553,local,global,750,S,H,A,E,A-S.png,H-E.png,sS,hH,mask-2.png,mask-3.png,s,1,5.593344500055537,none,-5,0,0.09568080003373325,0.09738369996193796,0.20064539997838438,0.20007209992036223,0.7504522000672296
RSVPLG03,cs,20260306-105527,1.0.2,20251105-084826,794,Introduction,T1,1,Automatic,main,2,20260306-105603,global,global,750,H,H,E,E,H-E.png,H-E.png,hH,hH,mask-2.png,mask-3.png,h,1,1.0020692000398412,none,-5,0,0.09599890001118183,0.09934590000193566,0.19843750004656613,0.2002206000033766,0.748362599988468
RSVPLG03,cs,20260306-105527,1.0.2,20251105-084826,794,Introduction,T1,1,Automatic,main,3,20260306-105608,local,global,750,S,S,A,E,A-S.png,S-E.png,sS,sS,mask-2.png,mask-2.png,s,1,2.2174402000382543,none,-5,0,0.09663639997597784,0.09732960001565516,0.19954889989458025,0.20018669997807592,0.7498541999375448
RSVPLG03,cs,20260306-105527,1.0.2,20251105-084826,794,Introduction,T1,1,Automatic,main,4,20260306-105614,global,global,750,H,S,E,E,H-E.png,S-E.png,hH,sS,mask-2.png,mask-4.png,h,1,3.9905640999786556,none,-5,0,0.0983129000524059,0.09850560000631958,0.20140700007323176,0.2014666999457404,0.7498228000476956
RSVPLG03,cs,20260306-105527,1.0.2,20251105-084826,794,Introduction,T1,1,Automatic,main,5,20260306-105622,local,local,750,S,S,E,A,E-S.png,A-S.png,sS,sS,mask-2.png,mask-2.png,s,1,1.0501027000136673,none,-5,0,0.09737560001667589,0.09764819999691099,0.20068959996569902,0.20065759995486587,0.7507505000103265
RSVPLG03,cs,20260306-105527,1.0.2,20251105-084826,794,Introduction,T1,1,Automatic,main,6,20260306-105627,global,global,750,S,H,A,E,S-A.png,H-E.png,sS,hH,mask-4.png,mask-4.png,h,0,1.079586400068365,none,-5,0,0.0975366000784561,0.09739670006092638,0.20093260006979108,0.20124199998099357,0.7494341999990866
RSVPLG03,cs,20260306-105527,1.0.2,20251105-084826,794,Introduction,T1,1,Automatic,main,7,20260306-105633,global,global,750,H,H,E,A,H-E.png,H-A.png,hH,hH,mask-1.png,mask-2.png,h,1,0.9791840999387205,none,-5,0,0.09638470003847033,0.09835450001992285,0.2002022999804467,0.20127409999258816,0.7483703000470996
RSVPLG03,cs,20260306-105527,1.0.2,20251105-084826,794,Introduction,T1,1,Automatic,main,8,20260306-105638,global,local,750,H,S,E,A,H-E.png,A-S.png,hH,sS,mask-1.png,mask-3.png,h,1,0.7421705999877304,none,-5,0,0.09833599999547005,0.09843789995647967,0.2001894999993965,0.20012479997240007,0.7499474999494851
RSVPLG03,cs,20260306-105527,1.0.2,20251105-084826,794,Introduction,T1,1,Automatic,main,9,20260306-105643,local,local,750,S,H,E,E,E-S.png,E-H.png,sS,hH,mask-1.png,mask-4.png,none,-6,0,none,-5,0,0.09835320001002401,0.09731300000566989,0.20007839996833354,0.20014460000675172,0.7505397000350058
RSVPLG03,cs,20260306-105655,1.0.2,20251105-084826,794,Practice,T1,1,Automatic,main,1,20260306-105717,global,global,750,H,H,A,A,H-A.png,H-A.png,hH,hH,mask-2.png,mask-4.png,h,1,0.8415813000174239,none,-5,0,0.047185400035232306,0.047779500018805265,0.10041740001179278,0.10096850001718849,0.7494044000050053
RSVPLG03,cs,20260306-105655,1.0.2,20251105-084826,794,Practice,T1,1,Automatic,main,2,20260306-105722,local,global,750,H,H,E,A,E-H.png,H-A.png,hH,hH,mask-4.png,mask-1.png,s,0,1.4243725999258459,none,-5,0,0.0470620000269264,0.046748299966566265,0.09943890001159161,0.0999623000388965,0.7500525000505149
RSVPLG03,cs,20260306-105655,1.0.2,20251105-084826,794,Practice,T1,1,Automatic,main,3,20260306-105727,global,local,300,H,S,A,A,H-A.png,A-S.png,hH,sS,mask-1.png,mask-3.png,h,1,1.0289562999969348,none,-5,0,0.04751549998763949,0.046435299911536276,0.09887719992548227,0.09832479991018772,0.30083510000258684
RSVPLG03,cs,20260306-105655,1.0.2,20251105-084826,794,Practice,T1,1,Automatic,main,4,20260306-105732,global,local,300,S,H,E,A,S-E.png,A-H.png,sS,hH,mask-3.png,mask-4.png,s,1,0.9020050999242812,none,-5,0,0.047213700017891824,0.048705499968491495,0.0995346000418067,0.10086050000973046,0.2986655000131577
RSVPLG03,cs,20260306-105655,1.0.2,20251105-084826,794,Practice,T1,1,Automatic,main,5,20260306-105736,local,local,300,H,H,E,E,E-H.png,E-H.png,hH,hH,mask-3.png,mask-3.png,s,0,1.7119668000377715,none,-5,0,0.04569309996441007,0.04771200008690357,0.09822499996516854,0.09978450008202344,0.2999747999710962
RSVPLG03,cs,20260306-105655,1.0.2,20251105-084826,794,Practice,T1,1,Automatic,main,6,20260306-105742,local,global,300,H,H,E,A,E-H.png,H-A.png,hH,hH,mask-4.png,mask-4.png,s,0,2.348133699968457,none,-5,0,0.04774899990297854,0.04651840007863939,0.0999549999833107,0.09834700007922947,0.3006862999172881
RSVPLG03,cs,20260306-105655,1.0.2,20251105-084826,794,Practice,T1,1,Automatic,main,7,20260306-105748,local,local,750,S,H,A,E,A-S.png,E-H.png,sS,hH,mask-4.png,mask-1.png,h,0,1.4638772000325844,none,-5,0,0.047717500012367964,0.04879809997510165,0.09982540004421026,0.10101530002430081,0.7487747999839485
RSVPLG03,cs,20260306-105655,1.0.2,20251105-084826,794,Practice,T1,1,Automatic,main,8,20260306-105753,global,local,750,S,H,A,A,S-A.png,A-H.png,sS,hH,mask-4.png,mask-4.png,s,1,0.7515565999783576,none,-5,0,0.04833729995880276,0.04730189999099821,0.10067059996072203,0.100457499967888,0.7509327000007033
RSVPLG03,cs,20260306-105655,1.0.2,20251105-084826,794,Practice,T1,1,Automatic,main,9,20260306-105758,local,global,750,S,H,A,E,A-S.png,H-E.png,sS,hH,mask-2.png,mask-1.png,s,1,1.1645037000998855,none,-5,0,0.0474897000240162,0.047563000000081956,0.09966529998928308,0.09989039995707572,0.7511825000401586
RSVPLG03,cs,20260306-105655,1.0.2,20251105-084826,794,Practice,T1,1,Automatic,main,10,20260306-105803,global,global,300,H,H,E,E,H-E.png,H-E.png,hH,hH,mask-4.png,mask-2.png,h,1,0.7723154000705108,none,-5,0,0.048530399915762246,0.047674099914729595,0.10170489992015064,0.09975549997761846,0.3016747999936342
RSVPLG03,cs,20260306-105655,1.0.2,20251105-084826,794,Practice,T1,1,Automatic,main,11,20260306-105807,local,local,300,H,H,E,E,E-H.png,E-H.png,hH,hH,mask-3.png,mask-2.png,h,1,1.2066024000523612,none,-5,0,0.0485880000051111,0.04756570002064109,0.10065740009304136,0.10155789996497333,0.2993143000639975
RSVPLG03,cs,20260306-105655,1.0.2,20251105-084826,794,Practice,T1,1,Automatic,main,12,20260306-105812,global,global,750,S,S,A,A,S-A.png,S-A.png,sS,sS,mask-1.png,mask-1.png,s,1,0.9148107999935746,none,-5,0,0.046616400009952486,0.04760129994247109,0.099654599907808,0.09930529992561787,0.7497678999789059
RSVPLG03,cs,20260306-105655,1.0.2,20251105-084826,794,Practice,T1,1,Automatic,main,13,20260306-105817,global,global,300,S,S,E,A,S-E.png,S-A.png,sS,sS,mask-3.png,mask-1.png,s,1,0.7475780999520794,none,-5,0,0.04658109997399151,0.04755500005558133,0.09983980003744364,0.10063770005945116,0.29990109999198467
RSVPLG03,cs,20260306-105655,1.0.2,20251105-084826,794,Practice,T1,1,Automatic,main,14,20260306-105821,local,global,300,S,S,E,A,E-S.png,S-A.png,sS,sS,mask-1.png,mask-3.png,s,1,0.6796118000056595,none,-5,0,0.04666859994176775,0.047635699971579015,0.09972039994318038,0.09993520006537437,0.29932909994386137
RSVPLG03,cs,20260306-105655,1.0.2,20251105-084826,794,Practice,T1,1,Automatic,main,15,20260306-105825,global,local,750,H,H,A,E,H-A.png,E-H.png,hH,hH,mask-2.png,mask-4.png,h,1,0.7199732000008225,none,-5,0,0.04669599991757423,0.04757850000169128,0.0994215999962762,0.10156729992013425,0.7487144999904558
RSVPLG03,cs,20260306-105655,1.0.2,20251105-084826,794,Practice,T1,1,Automatic,main,16,20260306-105830,local,local,750,S,S,A,E,A-S.png,E-S.png,sS,sS,mask-1.png,mask-3.png,s,1,0.5317229001084343,none,-5,0,0.04849900002591312,0.047361499979160726,0.10151820001192391,0.10033619997557253,0.7501674999948591
RSVPLG03,cs,20260306-105848,1.0.2,20251105-084826,794,Practice,T1,1,Automatic,main,1,20260306-105908,local,global,300,H,H,E,E,E-H.png,H-E.png,hH,hH,mask-4.png,mask-1.png,h,1,2.779924300033599,none,-5,0,0.041834000032395124,0.04722309997305274,0.09534680005162954,0.1003208999754861,0.29462990001775324
RSVPLG03,cs,20260306-105848,1.0.2,20251105-084826,794,Practice,T1,1,Automatic,main,2,20260306-105914,global,global,300,S,S,E,E,S-E.png,S-E.png,sS,sS,mask-3.png,mask-3.png,s,1,0.6508381000021473,none,-5,0,0.04862240003421903,0.048311199992895126,0.10172130004502833,0.10149709996767342,0.3007226000772789
RSVPLG03,cs,20260306-105848,1.0.2,20251105-084826,794,Practice,T1,1,Automatic,main,3,20260306-105918,local,local,300,H,H,A,E,A-H.png,E-H.png,hH,hH,mask-3.png,mask-2.png,h,1,0.6460156999528408,none,-5,0,0.04682290006894618,0.046646100003272295,0.09821590001229197,0.09929319994989783,0.29952500003855675
RSVPLG03,cs,20260306-105848,1.0.2,20251105-084826,794,Practice,T1,1,Automatic,main,4,20260306-105923,global,global,750,H,H,E,A,H-E.png,H-A.png,hH,hH,mask-4.png,mask-2.png,h,1,3.124065099982545,none,-5,0,0.046639899956062436,0.04733890003990382,0.09962420002557337,0.09967180003877729,0.7506978999590501
RSVPLG03,cs,20260306-105848,1.0.2,20251105-084826,794,Practice,T1,1,Automatic,main,5,20260306-105930,local,local,750,H,S,E,A,E-H.png,A-S.png,hH,sS,mask-3.png,mask-2.png,h,1,2.496057500015013,none,-5,0,0.04838739999104291,0.047305199899710715,0.10082509997300804,0.09971879993099719,0.7522220000391826
RSVPLG03,cs,20260306-105848,1.0.2,20251105-084826,794,Practice,T1,1,Automatic,main,6,20260306-105936,local,global,300,H,H,E,A,E-H.png,H-A.png,hH,hH,mask-1.png,mask-4.png,h,1,0.6598819000646472,none,-5,0,0.04705419996753335,0.048237400013022125,0.10149440006352961,0.10183459997642785,0.3001460999948904
RSVPLG03,cs,20260306-105848,1.0.2,20251105-084826,794,Practice,T1,1,Automatic,main,7,20260306-105940,local,global,750,S,H,A,E,A-S.png,H-E.png,sS,hH,mask-4.png,mask-3.png,s,1,0.5832844000542536,none,-5,0,0.04749450006056577,0.04689579992555082,0.09988330001942813,0.10126909997779876,0.7507120000664145
RSVPLG03,cs,20260306-105848,1.0.2,20251105-084826,794,Practice,T1,1,Automatic,main,8,20260306-105945,global,global,300,S,S,E,A,S-E.png,S-A.png,sS,sS,mask-4.png,mask-3.png,s,1,0.6694184000371024,none,-5,0,0.046173300012014806,0.04746339994017035,0.09966079995501786,0.10093359998427331,0.3001607999904081
RSVPLG03,cs,20260306-105848,1.0.2,20251105-084826,794,Practice,T1,1,Automatic,main,9,20260306-105949,global,local,750,H,S,E,E,H-E.png,E-S.png,hH,sS,mask-4.png,mask-3.png,h,1,0.8802629000274464,none,-5,0,0.04707149998284876,0.04717679996974766,0.1009665000019595,0.10059199994429946,0.75048990000505
RSVPLG03,cs,20260306-105848,1.0.2,20251105-084826,794,Practice,T1,1,Automatic,main,10,20260306-105954,local,local,300,H,H,E,E,E-H.png,E-H.png,hH,hH,mask-1.png,mask-3.png,s,0,0.5106994999805465,none,-5,0,0.047376499976962805,0.049264200031757355,0.0998496999964118,0.10184739995747805,0.29927660000976175
RSVPLG03,cs,20260306-105848,1.0.2,20251105-084826,794,Practice,T1,1,Automatic,main,11,20260306-105958,global,local,300,H,H,E,E,H-E.png,E-H.png,hH,hH,mask-2.png,mask-2.png,h,1,0.7543344999430701,none,-5,0,0.0483078999677673,0.04845940007362515,0.09941699996124953,0.10175670008175075,0.29993889993056655
RSVPLG03,cs,20260306-105848,1.0.2,20251105-084826,794,Practice,T1,1,Automatic,main,12,20260306-110002,global,local,300,S,H,A,E,S-A.png,E-H.png,sS,hH,mask-4.png,mask-4.png,s,1,0.43993879994377494,none,-5,0,0.04856819997075945,0.048209300031885505,0.10078290000092238,0.10065959999337792,0.3015344999730587
RSVPLG03,cs,20260306-105848,1.0.2,20251105-084826,794,Practice,T1,1,Automatic,main,13,20260306-110006,global,local,750,H,S,E,A,H-E.png,A-S.png,hH,sS,mask-2.png,mask-4.png,h,1,0.5769702000543475,none,-5,0,0.046908600023016334,0.04700680007226765,0.09937619999982417,0.09873870003502816,0.7518221000209451
RSVPLG03,cs,20260306-105848,1.0.2,20251105-084826,794,Practice,T1,1,Automatic,main,14,20260306-110011,local,global,750,S,H,E,A,E-S.png,H-A.png,sS,hH,mask-4.png,mask-3.png,s,1,0.7028580000624061,none,-5,0,0.04633609997108579,0.04734199994709343,0.09985240001697093,0.10064530000090599,0.7507844000356272
RSVPLG03,cs,20260306-105848,1.0.2,20251105-084826,794,Practice,T1,1,Automatic,main,15,20260306-110015,global,global,750,H,S,A,E,H-A.png,S-E.png,hH,sS,mask-2.png,mask-1.png,h,1,0.7569145000306889,none,-5,0,0.04733880003914237,0.04713550000451505,0.09927929996047169,0.09974830003920943,0.7509157999884337
RSVPLG03,cs,20260306-105848,1.0.2,20251105-084826,794,Practice,T1,1,Automatic,main,16,20260306-110020,local,local,750,S,S,E,A,E-S.png,A-S.png,sS,sS,mask-3.png,mask-4.png,s,1,0.7592683000257239,none,-5,0,0.04692369990516454,0.04713739990256727,0.10022249992471188,0.10036699997726828,0.7505199000006542
RSVPLG03,cs,20260306-110109,1.0.2,20251105-084826,794,Practice,Both,1,Automatic,main,1,20260306-110131,local,local,300,S,S,A,E,A-S.png,E-S.png,sS,sS,mask-2.png,mask-2.png,s,1,0.7014371999539435,h,0,0.08937639999203384,0.04722589999437332,0.04755819996353239,0.10031920007895678,0.10047369997482747,0.3004144000587985
RSVPLG03,cs,20260306-110109,1.0.2,20251105-084826,794,Practice,Both,1,Automatic,main,2,20260306-110136,local,global,300,H,S,A,A,A-H.png,S-A.png,hH,sS,mask-1.png,mask-1.png,s,0,2.575213900068775,h,0,0.5507183000445366,0.04720779997296631,0.04680820007342845,0.09864260000176728,0.09991310001350939,0.30022839992307127
RSVPLG03,cs,20260306-110109,1.0.2,20251105-084826,794,Practice,Both,1,Automatic,main,3,20260306-110143,local,local,750,S,S,A,A,A-S.png,A-S.png,sS,sS,mask-1.png,mask-1.png,s,1,1.3024506999645382,h,0,0.2961806000676006,0.04757239995524287,0.046506899991072714,0.09911989991087466,0.10036610008683056,0.7515782999107614
RSVPLG03,cs,20260306-110109,1.0.2,20251105-084826,794,Practice,Both,1,Automatic,main,4,20260306-110148,local,local,750,H,H,A,E,A-H.png,E-H.png,hH,hH,mask-3.png,mask-2.png,h,1,1.4917331000324339,s,0,0.42709909996483475,0.04674040002282709,0.0475366999162361,0.10080570005811751,0.0995147000066936,0.7515695000765845
RSVPLG03,cs,20260306-110109,1.0.2,20251105-084826,794,Practice,Both,1,Automatic,main,5,20260306-110154,global,global,750,S,H,A,E,S-A.png,H-E.png,sS,hH,mask-2.png,mask-2.png,s,1,1.4899046999635175,h,1,0.3256264999508858,0.04758080001920462,0.04865709994919598,0.09962910006288439,0.10078430001158267,0.7508793000597507
RSVPLG03,cs,20260306-110109,1.0.2,20251105-084826,794,Practice,Both,1,Automatic,main,6,20260306-110200,local,local,300,H,H,E,E,E-H.png,E-H.png,hH,hH,mask-4.png,mask-2.png,s,0,2.1729720999719575,h,1,0.41009830008260906,0.04768219997640699,0.04845640005078167,0.09917060006409883,0.10128800000529736,0.2988601999823004
RSVPLG03,cs,20260306-110109,1.0.2,20251105-084826,794,Practice,Both,1,Automatic,main,7,20260306-110207,global,local,300,S,S,E,E,S-E.png,E-S.png,sS,sS,mask-3.png,mask-2.png,s,1,0.721194599987939,s,1,0.14099410001654178,0.04759329999797046,0.047375300084240735,0.09966609999537468,0.10042910010088235,0.3001295999856666
RSVPLG03,cs,20260306-110109,1.0.2,20251105-084826,794,Practice,Both,1,Automatic,main,8,20260306-110211,global,global,300,H,S,E,E,H-E.png,S-E.png,hH,sS,mask-3.png,mask-1.png,h,1,1.1531627998920158,s,1,0.10325759998522699,0.046949599985964596,0.0487243999959901,0.10007000004407018,0.10001100006047636,0.29985289997421205
RSVPLG03,cs,20260306-110109,1.0.2,20251105-084826,794,Practice,Both,1,Automatic,main,9,20260306-110216,local,global,750,S,H,E,A,E-S.png,H-A.png,sS,hH,mask-2.png,mask-3.png,s,1,0.8117452999576926,h,1,0.05730740004219115,0.04759049997664988,0.04844420007430017,0.10058440000284463,0.10040470003150403,0.7502740999916568
RSVPLG03,cs,20260306-110109,1.0.2,20251105-084826,794,Practice,Both,1,Automatic,main,10,20260306-110221,global,global,750,S,H,E,A,S-E.png,H-A.png,sS,hH,mask-2.png,mask-4.png,s,1,0.6107850999105722,h,1,0.027462100028060377,0.04850349994376302,0.04913190007209778,0.10042529995553195,0.1004016000078991,0.7508942999411374
RSVPLG03,cs,20260306-110109,1.0.2,20251105-084826,794,Practice,Both,1,Automatic,main,11,20260306-110226,local,global,300,S,S,E,A,E-S.png,S-A.png,sS,sS,mask-3.png,mask-2.png,s,1,0.8528711999533698,s,1,0.10376329999417067,0.048514399910345674,0.04694160004146397,0.10053489997517318,0.10004210006445646,0.3017584999324754
RSVPLG03,cs,20260306-110109,1.0.2,20251105-084826,794,Practice,Both,1,Automatic,main,12,20260306-110231,local,global,750,H,S,E,E,E-H.png,S-E.png,hH,sS,mask-2.png,mask-4.png,h,1,0.4714649999514222,s,1,0.04258969996590167,0.046840299968607724,0.048504099948331714,0.10097050003241748,0.10047079995274544,0.7522169000003487
RSVPLG03,cs,20260306-110109,1.0.2,20251105-084826,794,Practice,Both,1,Automatic,main,13,20260306-110235,global,global,300,S,H,E,E,S-E.png,H-E.png,sS,hH,mask-4.png,mask-1.png,s,1,0.6015748000936583,h,1,0.027758300071582198,0.04750740004237741,0.04751100006978959,0.10051140002906322,0.10040780005510896,0.30078819999471307
RSVPLG03,cs,20260306-110109,1.0.2,20251105-084826,794,Practice,Both,1,Automatic,main,14,20260306-110239,global,local,750,S,H,E,A,S-E.png,A-H.png,sS,hH,mask-4.png,mask-4.png,s,1,0.43724250001832843,h,1,0.0054614999098703265,0.04757429996971041,0.046937900013290346,0.09988240001257509,0.10001539997756481,0.7515567999798805
RSVPLG03,cs,20260306-110109,1.0.2,20251105-084826,794,Practice,Both,1,Automatic,main,15,20260306-110244,global,local,750,S,S,A,E,S-A.png,E-S.png,sS,sS,mask-1.png,mask-4.png,s,1,0.4288587999762967,s,1,0.10738389997277409,0.04756400000769645,0.048483200022019446,0.09863730007782578,0.10062300006393343,0.750105099985376
RSVPLG03,cs,20260306-110109,1.0.2,20251105-084826,794,Practice,Both,1,Automatic,main,16,20260306-110249,global,local,300,S,H,A,A,S-A.png,A-H.png,sS,hH,mask-2.png,mask-4.png,s,1,0.814228400005959,h,1,0.9420462000416592,0.046465200022794306,0.04682269995100796,0.1004568999633193,0.09875390003435314,0.3007733999984339
RSVPLG03,cs,20260306-110109,1.0.2,20251105-084826,794,Experiment,Both,1,Automatic,warmup,1,20260306-113445,local,global,300,S,S,A,A,A-S.png,S-A.png,sS,sS,mask-1.png,mask-3.png,s,1,0.4424238000065088,h,0,0.5543337999843061,0.046053600031882524,0.046354099991731346,0.09892520005814731,0.09970419993624091,0.2999125000787899
RSVPLG03,cs,20260306-110109,1.0.2,20251105-084826,794,Experiment,Both,1,Automatic,warmup,2,20260306-113450,local,local,750,H,S,E,E,E-H.png,E-S.png,hH,sS,mask-4.png,mask-2.png,h,1,0.49307899991981685,s,1,0.6051892000250518,0.048185499967075884,0.048040200024843216,0.10103289992548525,0.10053890000563115,0.7489914000034332
RSVPLG03,cs,20260306-110109,1.0.2,20251105-084826,794,Experiment,Both,1,Automatic,warmup,3,20260306-113454,local,global,750,S,S,A,E,A-S.png,S-E.png,sS,sS,mask-2.png,mask-4.png,s,1,0.49127109989058226,s,1,0.12030910002067685,0.04852359998039901,0.04728649999015033,0.10081400000490248,0.09984340006485581,0.7492154999636114
RSVPLG03,cs,20260306-110109,1.0.2,20251105-084826,794,Experiment,Both,1,Automatic,warmup,4,20260306-113459,global,local,750,H,S,A,A,H-A.png,A-S.png,hH,sS,mask-3.png,mask-1.png,h,1,0.5807272000238299,h,0,0.10855819995049387,0.04824440006632358,0.04806049994658679,0.10157669999171048,0.09925530001055449,0.7487701000645757
RSVPLG03,cs,20260306-110109,1.0.2,20251105-084826,794,Experiment,Both,1,Automatic,main,5,20260306-113504,local,local,300,H,S,A,E,A-H.png,E-S.png,hH,sS,mask-2.png,mask-1.png,s,0,0.9833488999865949,h,0,0.04477100004442036,0.0483896000077948,0.045644599944353104,0.09959160001017153,0.09983219997957349,0.2999837000388652
RSVPLG03,cs,20260306-110109,1.0.2,20251105-084826,794,Experiment,Both,1,Automatic,main,6,20260306-113508,global,local,300,H,H,E,A,H-E.png,A-H.png,hH,hH,mask-3.png,mask-4.png,h,1,0.5054965999443084,h,1,0.11748629994690418,0.044972200063057244,0.04726479994133115,0.09747290005907416,0.09964989998843521,0.29794020007830113
RSVPLG03,cs,20260306-110109,1.0.2,20251105-084826,794,Experiment,Both,1,Automatic,main,7,20260306-113512,local,global,750,S,H,A,A,A-S.png,H-A.png,sS,hH,mask-3.png,mask-1.png,s,1,0.41102500003762543,h,1,0.5712054000468925,0.04833849996794015,0.04656639997847378,0.10192769998684525,0.09812300000339746,0.7514188999775797
RSVPLG03,cs,20260306-110109,1.0.2,20251105-084826,794,Experiment,Both,1,Automatic,main,8,20260306-113517,global,local,300,H,S,A,E,H-A.png,E-S.png,hH,sS,mask-2.png,mask-3.png,s,0,1.679829900036566,h,0,1.808101800037548,0.045718299923464656,0.048231399967335165,0.09913859993685037,0.09874289995059371,0.29875700001139194
RSVPLG03,cs,20260306-110109,1.0.2,20251105-084826,794,Experiment,Both,1,Automatic,main,9,20260306-113522,local,global,750,H,H,A,A,A-H.png,H-A.png,hH,hH,mask-2.png,mask-3.png,h,1,0.7952823000960052,h,1,0.06997309997677803,0.04611200001090765,0.04825190000701696,0.1000911999726668,0.09984629997052252,0.7476928000105545
RSVPLG03,cs,20260306-110109,1.0.2,20251105-084826,794,Experiment,Both,1,Automatic,main,10,20260306-113527,local,global,750,S,S,A,E,A-S.png,S-E.png,sS,sS,mask-3.png,mask-3.png,s,1,0.6323747000424191,s,1,0.10279409994836897,0.04556210001464933,0.046428399975411594,0.09791719994973391,0.1006642000284046,0.7490492999786511
RSVPLG03,cs,20260306-110109,1.0.2,20251105-084826,794,Experiment,Both,1,Automatic,main,11,20260306-113532,global,global,750,S,H,A,E,S-A.png,H-E.png,sS,hH,mask-4.png,mask-4.png,s,1,0.413113999995403,h,1,0.014812299981713295,0.04805740003939718,0.04668140003923327,0.1006636000238359,0.10045180004090071,0.7492890000576153
RSVPLG03,cs,20260306-110109,1.0.2,20251105-084826,794,Experiment,Both,1,Automatic,main,12,20260306-113537,global,local,300,S,S,E,A,S-E.png,A-S.png,sS,sS,mask-3.png,mask-1.png,s,1,0.6665324000641704,s,1,0.09448349999729544,0.047760199988260865,0.0449330999981612,0.0998062000144273,0.09976449992973357,0.3009045000653714
RSVPLG03,cs,20260306-110109,1.0.2,20251105-084826,794,Experiment,Both,1,Automatic,main,13,20260306-113541,global,global,750,H,H,E,A,H-E.png,H-A.png,hH,hH,mask-4.png,mask-1.png,h,1,0.6366706000408158,h,1,0.1107725000474602,0.04569840000476688,0.04745620000176132,0.09916690003592521,0.09971219999715686,0.7489715999690816
RSVPLG03,cs,20260306-110109,1.0.2,20251105-084826,794,Experiment,Both,1,Automatic,main,14,20260306-113546,global,global,300,S,S,E,E,S-E.png,S-E.png,sS,sS,mask-4.png,mask-4.png,s,1,0.429982400033623,s,1,0.09351409994997084,0.04744059999939054,0.04926090000662953,0.10102880001068115,0.10269030008930713,0.29824339994229376
RSVPLG03,cs,20260306-110109,1.0.2,20251105-084826,794,Experiment,Both,1,Automatic,main,15,20260306-113550,global,global,300,S,S,A,E,S-A.png,S-E.png,sS,sS,mask-2.png,mask-3.png,s,1,0.3526132999686524,s,1,0.09181819995865226,0.04927930003032088,0.04828290001023561,0.10297110001556575,0.10154109995346516,0.3001591000938788
RSVPLG03,cs,20260306-110109,1.0.2,20251105-084826,794,Experiment,Both,1,Automatic,main,16,20260306-113554,global,global,750,H,H,A,E,H-A.png,H-E.png,hH,hH,mask-4.png,mask-1.png,h,1,0.4652233000379056,s,0,0.016117500024847686,0.04741150001063943,0.048408799921162426,0.09872669994365424,0.09975479997228831,0.7478438999969512
RSVPLG03,cs,20260306-110109,1.0.2,20251105-084826,794,Experiment,Both,1,Automatic,main,17,20260306-113559,global,global,750,H,H,A,A,H-A.png,H-A.png,hH,hH,mask-1.png,mask-4.png,h,1,0.32704850006848574,h,1,0.06204800005070865,0.0472293000202626,0.04621379997115582,0.10061149997636676,0.09928799991030246,0.7500840000575408
RSVPLG03,cs,20260306-110109,1.0.2,20251105-084826,794,Experiment,Both,1,Automatic,main,18,20260306-113603,local,global,300,S,S,E,E,E-S.png,S-E.png,sS,sS,mask-3.png,mask-4.png,s,1,0.49646980001125485,s,1,0.09140779997687787,0.048562000039964914,0.046725999913178384,0.10213320003822446,0.10032959992531687,0.30170960002578795
RSVPLG03,cs,20260306-110109,1.0.2,20251105-084826,794,Experiment,Both,1,Automatic,main,19,20260306-113607,local,local,750,S,S,A,E,A-S.png,E-S.png,sS,sS,mask-3.png,mask-4.png,s,1,0.3524771999800578,s,1,0.05388309992849827,0.045697900000959635,0.048523399978876114,0.09975219995249063,0.10212489997502416,0.747440499952063
RSVPLG03,cs,20260306-110109,1.0.2,20251105-084826,794,Experiment,Both,1,Automatic,main,20,20260306-113612,local,local,750,H,H,A,A,A-H.png,A-H.png,hH,hH,mask-4.png,mask-1.png,h,1,0.4746781999710947,h,1,0.0738625000230968,0.04694790008943528,0.046579600078985095,0.09935809997841716,0.09989030007272959,0.7484104000031948
RSVPLG03,cs,20260306-110109,1.0.2,20251105-084826,794,Experiment,Both,1,Automatic,main,21,20260306-113616,local,global,300,H,H,A,E,A-H.png,H-E.png,hH,hH,mask-3.png,mask-3.png,h,1,0.5734472000040114,h,1,0.08439350000116974,0.04508269997313619,0.04589150007814169,0.09905159997288138,0.09690000000409782,0.2996927999192849
RSVPLG03,cs,20260306-110109,1.0.2,20251105-084826,794,Experiment,Both,1,Automatic,main,22,20260306-113620,local,local,300,H,S,A,E,A-H.png,E-S.png,hH,sS,mask-2.png,mask-3.png,h,1,0.39976319996640086,s,1,0.030474299914203584,0.04826880001928657,0.046660699998028576,0.1009465999668464,0.10074610006995499,0.30075199995189905
RSVPLG03,cs,20260306-110109,1.0.2,20251105-084826,794,Experiment,Both,1,Automatic,main,23,20260306-113625,local,local,300,H,S,A,A,A-H.png,A-S.png,hH,sS,mask-3.png,mask-3.png,s,0,0.42737310007214546,h,0,0.5715771000832319,0.04677839996293187,0.04840209998656064,0.10053679998964071,0.10235469997860491,0.2974404999986291
RSVPLG03,cs,20260306-110109,1.0.2,20251105-084826,794,Experiment,Both,1,Automatic,main,24,20260306-113629,local,local,750,H,S,A,A,A-H.png,A-S.png,hH,sS,mask-4.png,mask-2.png,h,1,0.36589130002539605,s,1,0.055895900004543364,0.04860669991467148,0.048253399902023375,0.10109899996314198,0.10145209997426718,0.7492653999943286
RSVPLG03,cs,20260306-110109,1.0.2,20251105-084826,794,Experiment,Both,1,Automatic,main,25,20260306-113633,global,local,750,H,H,E,E,H-E.png,E-H.png,hH,hH,mask-2.png,mask-1.png,h,1,0.3851526000071317,h,1,0.1032866999739781,0.04759820003528148,0.04707229998894036,0.10171469999477267,0.09931950003374368,0.7490740000503138
RSVPLG03,cs,20260306-110109,1.0.2,20251105-084826,794,Experiment,Both,1,Automatic,main,26,20260306-113746,global,global,750,S,S,E,E,S-E.png,S-E.png,sS,sS,mask-1.png,mask-4.png,s,1,0.5173601999413222,s,1,0.043217599974013865,0.04728370008524507,0.04545279999729246,0.10041190008632839,0.0978992999298498,0.7496453000931069
RSVPLG03,cs,20260306-110109,1.0.2,20251105-084826,794,Experiment,Both,1,Automatic,main,27,20260306-113751,local,global,750,H,S,E,E,E-H.png,S-E.png,hH,sS,mask-2.png,mask-2.png,h,1,0.4277049000374973,h,0,0.07235979998949915,0.046486300067044795,0.04748059995472431,0.09986790001858026,0.10168859991244972,0.7482080000918359
RSVPLG03,cs,20260306-110109,1.0.2,20251105-084826,794,Experiment,Both,1,Automatic,main,28,20260306-113755,global,local,750,S,S,E,A,S-E.png,A-S.png,sS,sS,mask-1.png,mask-2.png,s,1,0.3709263999480754,s,1,0.0694939000532031,0.046290600090287626,0.045991400023922324,0.09893660002853721,0.09969169995747507,0.7491970000555739
RSVPLG03,cs,20260306-110109,1.0.2,20251105-084826,794,Experiment,Both,1,Automatic,main,29,20260306-113800,global,local,300,S,S,E,A,S-E.png,A-S.png,sS,sS,mask-2.png,mask-3.png,s,1,0.4453321999171749,h,0,0.5733107000123709,0.04781430005095899,0.04918309999629855,0.09986469999421388,0.10092979995533824,0.2984282000688836
RSVPLG03,cs,20260306-110109,1.0.2,20251105-084826,794,Experiment,Both,1,Automatic,main,30,20260306-113804,local,local,750,H,H,A,E,A-H.png,E-H.png,hH,hH,mask-3.png,mask-2.png,h,1,0.5095129000255838,s,0,0.05761400004848838,0.0464464999968186,0.04726010002195835,0.09906750009395182,0.1000716999405995,0.7489383000647649
RSVPLG03,cs,20260306-110109,1.0.2,20251105-084826,794,Experiment,Both,1,Automatic,main,31,20260306-113808,local,local,750,S,S,E,A,E-S.png,A-S.png,sS,sS,mask-1.png,mask-1.png,s,1,0.515220700064674,h,0,1.7252378000412136,0.04639379994478077,0.047228099894709885,0.09887069999240339,0.10153839993290603,0.7491761000128463
RSVPLG03,cs,20260306-110109,1.0.2,20251105-084826,794,Experiment,Both,1,Automatic,main,32,20260306-113815,global,global,300,S,H,E,A,S-E.png,H-A.png,sS,hH,mask-3.png,mask-4.png,s,1,0.6249828999862075,s,0,0.07901429990306497,0.048677499988116324,0.04725579998921603,0.10079319996293634,0.10077979997731745,0.30018629995174706
RSVPLG03,cs,20260306-110109,1.0.2,20251105-084826,794,Experiment,Both,1,Automatic,main,33,20260306-113819,global,local,300,S,S,A,E,S-A.png,E-S.png,sS,sS,mask-3.png,mask-1.png,s,1,1.1375927000772208,h,0,0.36610049998853356,0.04866289999336004,0.04699050006456673,0.10086909995879978,0.09980049997102469,0.301119799958542
RSVPLG03,cs,20260306-110109,1.0.2,20251105-084826,794,Experiment,Both,1,Automatic,main,34,20260306-113824,local,global,300,S,H,E,E,E-S.png,H-E.png,sS,hH,mask-4.png,mask-1.png,s,1,0.3981916999910027,h,1,0.5102493000449613,0.04414739995263517,0.04565159999765456,0.09962999995332211,0.097163200029172,0.29874629992991686
RSVPLG03,cs,20260306-110109,1.0.2,20251105-084826,794,Experiment,Both,1,Automatic,main,35,20260306-113828,global,global,750,S,H,E,A,S-E.png,H-A.png,sS,hH,mask-4.png,mask-4.png,s,1,0.4968892999459058,h,1,0.6088559000054374,0.04716439999174327,0.048404900007881224,0.09965719992760569,0.09976110002025962,0.7481166999787092
RSVPLG03,cs,20260306-110109,1.0.2,20251105-084826,794,Experiment,Both,1,Automatic,main,36,20260306-113833,local,local,300,S,S,A,A,A-S.png,A-S.png,sS,sS,mask-4.png,mask-3.png,s,1,0.5787319999653846,h,0,0.6746776999207214,0.04709869995713234,0.04730360000394285,0.0995454000076279,0.10063999996054918,0.2999798000091687
RSVPLG03,cs,20260306-110109,1.0.2,20251105-084826,794,Experiment,Both,1,Automatic,main,37,20260306-113837,global,global,300,S,H,E,A,S-E.png,H-A.png,sS,hH,mask-1.png,mask-3.png,s,1,0.4513128000544384,h,1,0.5633713999995962,0.047369000036269426,0.04534409998450428,0.10037630004808307,0.10082050005439669,0.30014579999260604
RSVPLG03,cs,20260306-110109,1.0.2,20251105-084826,794,Experiment,Both,1,Automatic,main,38,20260306-113841,local,local,750,S,S,A,E,A-S.png,E-S.png,sS,sS,mask-3.png,mask-1.png,h,0,0.3511469999793917,s,1,0.04730729991570115,0.046283200033940375,0.04750889993738383,0.09961649996694177,0.09978509997017682,0.7480870999861509
RSVPLG03,cs,20260306-110109,1.0.2,20251105-084826,794,Experiment,Both,1,Automatic,main,39,20260306-113845,local,global,750,S,H,A,A,A-S.png,H-A.png,sS,hH,mask-3.png,mask-1.png,s,1,0.5443399999057874,h,1,0.006368599948473275,0.04688209993764758,0.04603779991157353,0.10050970001611859,0.09872009989339858,0.7498807000229135
RSVPLG03,cs,20260306-110109,1.0.2,20251105-084826,794,Experiment,Both,1,Automatic,main,40,20260306-113850,local,local,300,S,S,A,E,A-S.png,E-S.png,sS,sS,mask-2.png,mask-3.png,h,0,0.6582569000311196,s,1,0.07367289997637272,0.04567370004951954,0.045506399939768016,0.097203400102444,0.09972930001094937,0.2984746000729501
RSVPLG03,cs,20260306-110109,1.0.2,20251105-084826,794,Experiment,Both,1,Automatic,main,41,20260306-113854,global,local,300,H,H,E,A,H-E.png,A-H.png,hH,hH,mask-1.png,mask-3.png,h,1,0.5313444000203162,h,1,0.09512379998341203,0.04609680001158267,0.04668840009253472,0.09937499999068677,0.09973430004902184,0.29957139992620796
RSVPLG03,cs,20260306-110109,1.0.2,20251105-084826,794,Experiment,Both,1,Automatic,main,42,20260306-113859,global,global,750,H,S,A,E,H-A.png,S-E.png,hH,sS,mask-2.png,mask-2.png,h,1,0.46531350002624094,s,1,0.1208771999226883,0.04827929998282343,0.04686619993299246,0.10180609999224544,0.09825749997980893,0.7502035000361502
RSVPLG03,cs,20260306-110109,1.0.2,20251105-084826,794,Experiment,Both,1,Automatic,main,43,20260306-113903,local,global,750,H,H,A,E,A-H.png,H-E.png,hH,hH,mask-1.png,mask-3.png,h,1,0.6858456999761984,h,1,0.17639310006052256,0.048270999919623137,0.04740220005623996,0.1005822999868542,0.1008117999881506,0.7485216999193653
RSVPLG03,cs,20260306-110109,1.0.2,20251105-084826,794,Experiment,Both,1,Automatic,main,44,20260306-113908,global,global,300,S,H,A,E,S-A.png,H-E.png,sS,hH,mask-4.png,mask-3.png,s,1,0.44645789999049157,h,1,0.00843040004838258,0.04795979999471456,0.04827839997597039,0.09977159998379648,0.10237840004265308,0.29786729998886585
RSVPLG03,cs,20260306-110109,1.0.2,20251105-084826,794,Experiment,Both,1,Automatic,main,45,20260306-113912,local,global,300,H,S,E,A,E-H.png,S-A.png,hH,sS,mask-1.png,mask-3.png,s,0,0.7053552999859676,s,1,0.0563496999675408,0.04730960004962981,0.047235800069756806,0.09976090001873672,0.10071180004160851,0.2990630000131205
RSVPLG03,cs,20260306-110109,1.0.2,20251105-084826,794,Experiment,Both,1,Automatic,main,46,20260306-113917,local,global,300,H,H,A,A,A-H.png,H-A.png,hH,hH,mask-2.png,mask-4.png,h,1,0.7032640000106767,h,1,0.10371739999391139,0.04688339994754642,0.04776440002024174,0.10066449991427362,0.09982010000385344,0.2995163999730721
RSVPLG03,cs,20260306-110109,1.0.2,20251105-084826,794,Experiment,Both,1,Automatic,main,47,20260306-113921,local,global,300,H,H,E,E,E-H.png,H-E.png,hH,hH,mask-2.png,mask-2.png,s,0,0.5745843999320641,h,1,0.7026534000178799,0.04506310005672276,0.04735550004988909,0.09690370003227144,0.1005648000864312,0.2975023000035435
RSVPLG03,cs,20260306-110109,1.0.2,20251105-084826,794,Experiment,Both,1,Automatic,main,48,20260306-113925,local,local,750,H,S,E,A,E-H.png,A-S.png,hH,sS,mask-4.png,mask-4.png,s,0,0.6415953000541776,h,0,0.014903699979186058,0.047020899946801364,0.047185400035232306,0.09954550000838935,0.09860280004795641,0.7490185999777168
RSVPLG03,cs,20260306-110109,1.0.2,20251105-084826,794,Experiment,Both,1,Automatic,main,49,20260306-113930,local,local,750,S,H,A,E,A-S.png,E-H.png,sS,hH,mask-3.png,mask-2.png,h,0,0.8440680999774486,s,0,0.058314999914728105,0.04631779994815588,0.04659630008973181,0.09963819989934564,0.09964130003936589,0.7489629999035969
RSVPLG03,cs,20260306-110109,1.0.2,20251105-084826,794,Experiment,Both,1,Automatic,main,50,20260306-113935,local,global,750,H,H,A,A,A-H.png,H-A.png,hH,hH,mask-4.png,mask-1.png,h,1,0.49527069996111095,h,1,0.11067510000430048,0.04721559991594404,0.0463340999558568,0.10077779996208847,0.10076109995134175,0.7499829999869689
RSVPLG03,cs,20260306-110109,1.0.2,20251105-084826,794,Experiment,Both,1,Automatic,main,51,20260306-113955,global,local,750,S,H,E,E,S-E.png,E-H.png,sS,hH,mask-2.png,mask-4.png,s,1,0.45514710003044456,h,1,0.9892456000670791,0.047199799912050366,0.04673529998399317,0.0998299999628216,0.09831509995274246,0.7493540999712422
RSVPLG03,cs,20260306-110109,1.0.2,20251105-084826,794,Experiment,Both,1,Automatic,main,52,20260306-114000,global,global,750,H,H,E,A,H-E.png,H-A.png,hH,hH,mask-3.png,mask-1.png,h,1,0.4213936000596732,h,1,0.165652499999851,0.04742139996960759,0.04636100004427135,0.10031569993589073,0.10089470003731549,0.748886999906972
RSVPLG03,cs,20260306-110109,1.0.2,20251105-084826,794,Experiment,Both,1,Automatic,main,53,20260306-114005,local,local,300,H,H,E,A,E-H.png,A-H.png,hH,hH,mask-1.png,mask-2.png,s,0,0.6779473000206053,h,1,0.15939059993252158,0.04821299994364381,0.048399000079371035,0.10086379991844296,0.09867550001945347,0.29904819990042597
RSVPLG03,cs,20260306-110109,1.0.2,20251105-084826,794,Experiment,Both,1,Automatic,main,54,20260306-114009,local,global,750,S,S,A,A,A-S.png,S-A.png,sS,sS,mask-3.png,mask-3.png,s,1,0.8165393000235781,s,1,0.23454899992793798,0.04676389996893704,0.04751199996098876,0.098198699997738,0.10028100002091378,0.749229299952276
RSVPLG03,cs,20260306-110109,1.0.2,20251105-084826,794,Experiment,Both,1,Automatic,main,55,20260306-114014,local,global,300,S,H,A,A,A-S.png,H-A.png,sS,hH,mask-3.png,mask-2.png,h,0,0.4293459999607876,s,0,0.270642300019972,0.04575380007736385,0.046509800013154745,0.09970949997659773,0.10050330008380115,0.2993797999806702
RSVPLG03,cs,20260306-110109,1.0.2,20251105-084826,794,Experiment,Both,1,Automatic,main,56,20260306-114019,global,local,750,H,S,E,A,H-E.png,A-S.png,hH,sS,mask-1.png,mask-4.png,h,1,0.5252374999690801,h,0,0.09421290003228933,0.046414899989031255,0.047428300022147596,0.09880789997987449,0.09882750001270324,0.7480253999819979
RSVPLG03,cs,20260306-110109,1.0.2,20251105-084826,794,Experiment,Both,1,Automatic,main,57,20260306-114023,global,local,750,S,S,A,A,S-A.png,A-S.png,sS,sS,mask-3.png,mask-3.png,s,1,0.49242689996026456,s,1,0.08762299991212785,0.04519810003694147,0.050006099976599216,0.10082159994635731,0.10297329991590232,0.7470073000295088
RSVPLG03,cs,20260306-110109,1.0.2,20251105-084826,794,Experiment,Both,1,Automatic,main,58,20260306-114028,local,local,300,H,S,E,A,E-H.png,A-S.png,hH,sS,mask-1.png,mask-4.png,s,0,0.5416039999108762,h,0,0.0608607999747619,0.0443527998868376,0.04610520007554442,0.09815249999519438,0.09794050001073629,0.29858919989783317
RSVPLG03,cs,20260306-110109,1.0.2,20251105-084826,794,Experiment,Both,1,Automatic,main,59,20260306-114032,global,local,750,S,H,A,E,S-A.png,E-H.png,sS,hH,mask-4.png,mask-4.png,s,1,0.6171176000498235,s,0,0.07770859997253865,0.04655040008947253,0.045740699977613986,0.09979730006307364,0.10002749995328486,0.7498995000496507
RSVPLG03,cs,20260306-110109,1.0.2,20251105-084826,794,Experiment,Both,1,Automatic,main,60,20260306-114037,local,local,750,H,S,A,E,A-H.png,E-S.png,hH,sS,mask-3.png,mask-3.png,h,1,0.37809110002126545,s,1,0.1659722999902442,0.04838729999028146,0.045302100013941526,0.10097279993351549,0.09859920002054423,0.7510483999503776
RSVPLG03,cs,20260306-110109,1.0.2,20251105-084826,794,Experiment,Both,1,Automatic,main,61,20260306-114042,local,local,750,H,S,E,E,E-H.png,E-S.png,hH,sS,mask-2.png,mask-2.png,s,0,0.7303953000809997,s,1,0.14043030003085732,0.045677300076931715,0.04565669992007315,0.0990014000562951,0.09856219997163862,0.7491403000894934
RSVPLG03,cs,20260306-110109,1.0.2,20251105-084826,794,Experiment,Both,1,Automatic,main,62,20260306-114047,global,local,750,S,S,E,E,S-E.png,E-S.png,sS,sS,mask-1.png,mask-4.png,s,1,0.38101300003472716,s,1,0.08654540008865297,0.045517000020481646,0.04552080004941672,0.10078570002224296,0.09678480005823076,0.7501518999924883
RSVPLG03,cs,20260306-110109,1.0.2,20251105-084826,794,Experiment,Both,1,Automatic,main,63,20260306-114051,local,local,300,H,S,A,E,A-H.png,E-S.png,hH,sS,mask-3.png,mask-3.png,h,1,0.36987430008593947,s,1,0.13250380009412766,0.047131899977102876,0.047241899999789894,0.09974530001636595,0.10017589991912246,0.2990697000641376
RSVPLG03,cs,20260306-110109,1.0.2,20251105-084826,794,Experiment,Both,1,Automatic,main,64,20260306-114055,global,global,300,S,S,A,E,S-A.png,S-E.png,sS,sS,mask-3.png,mask-2.png,s,1,0.9286879000719637,h,0,0.18534640001598746,0.04521080001723021,0.046123099979013205,0.09973740007262677,0.09947299992199987,0.29933150007855147
RSVPLG03,cs,20260306-110109,1.0.2,20251105-084826,794,Experiment,Both,1,Automatic,main,65,20260306-114100,local,global,300,H,H,E,E,E-H.png,H-E.png,hH,hH,mask-2.png,mask-1.png,s,0,0.46586769993882626,h,1,0.0791446000803262,0.045275500044226646,0.046834400040097535,0.09913210000377148,0.10059929999988526,0.2979928000131622
RSVPLG03,cs,20260306-110109,1.0.2,20251105-084826,794,Experiment,Both,1,Automatic,main,66,20260306-114104,local,global,750,S,S,E,A,E-S.png,S-A.png,sS,sS,mask-2.png,mask-1.png,s,1,0.8433908999431878,s,1,0.07167189999017864,0.04650909989140928,0.04932799993548542,0.0992902999278158,0.09966379997786134,0.7473529999842867
RSVPLG03,cs,20260306-110109,1.0.2,20251105-084826,794,Experiment,Both,1,Automatic,main,67,20260306-114109,local,local,750,H,H,A,A,A-H.png,A-H.png,hH,hH,mask-2.png,mask-4.png,h,1,0.4818215999985114,h,1,0.07901490002404898,0.04716399998869747,0.04667850001715124,0.09978619997855276,0.10045110003557056,0.7493927999166772
RSVPLG03,cs,20260306-110109,1.0.2,20251105-084826,794,Experiment,Both,1,Automatic,main,68,20260306-114114,global,global,300,H,S,E,E,H-E.png,S-E.png,hH,sS,mask-1.png,mask-4.png,h,1,0.3827265000436455,s,1,0.09421799995470792,0.04612680000718683,0.04746340005658567,0.10050940001383424,0.10081189998891205,0.2994535999605432
RSVPLG03,cs,20260306-110109,1.0.2,20251105-084826,794,Experiment,Both,1,Automatic,main,69,20260306-114118,local,global,750,S,S,A,A,A-S.png,S-A.png,sS,sS,mask-2.png,mask-1.png,h,0,0.36144389992114156,s,1,0.08826059999410063,0.04798459995072335,0.0466570999706164,0.09991759993135929,0.10042120004072785,0.7492899999488145
RSVPLG03,cs,20260306-110109,1.0.2,20251105-084826,794,Experiment,Both,1,Automatic,main,70,20260306-114122,global,local,300,H,S,A,A,H-A.png,A-S.png,hH,sS,mask-1.png,mask-2.png,h,1,1.0430260000284761,h,0,0.09076569997705519,0.047023799968883395,0.04752669995650649,0.09733119991142303,0.10030859999824315,0.2987981999758631
RSVPLG03,cs,20260306-110109,1.0.2,20251105-084826,794,Experiment,Both,1,Automatic,main,71,20260306-114127,global,local,750,H,H,A,A,H-A.png,A-H.png,hH,hH,mask-3.png,mask-4.png,h,1,0.931329800048843,h,1,0.4614918000297621,0.04664150008466095,0.047234600060619414,0.09804549999535084,0.10023410001304,0.7478162000188604
RSVPLG03,cs,20260306-110109,1.0.2,20251105-084826,794,Experiment,Both,1,Automatic,main,72,20260306-114133,global,global,750,S,H,A,E,S-A.png,H-E.png,sS,hH,mask-1.png,mask-4.png,s,1,0.4144594999961555,h,1,0.44027340004686266,0.04490579990670085,0.04850739997345954,0.0990725998999551,0.10063280002214015,0.7464488999685273
RSVPLG03,cs,20260306-110109,1.0.2,20251105-084826,794,Experiment,Both,1,Automatic,main,73,20260306-114138,global,local,750,S,H,E,A,S-E.png,A-H.png,sS,hH,mask-3.png,mask-4.png,s,1,0.7687408000929281,h,1,0.15831780002918094,0.04655940004158765,0.04705490008927882,0.09810549998655915,0.09818020008970052,0.7491401999723166
RSVPLG03,cs,20260306-110109,1.0.2,20251105-084826,794,Experiment,Both,1,Automatic,main,74,20260306-114143,global,global,750,H,S,E,E,H-E.png,S-E.png,hH,sS,mask-4.png,mask-2.png,h,1,0.717285200022161,s,1,0.5383657000493258,0.04502409999258816,0.046723000006750226,0.09979840007144958,0.09970450005494058,0.7471139000263065
RSVPLG03,cs,20260306-110109,1.0.2,20251105-084826,794,Experiment,Both,1,Automatic,main,75,20260306-114148,local,global,300,H,S,E,A,E-H.png,S-A.png,hH,sS,mask-4.png,mask-2.png,s,0,1.0112423000391573,s,1,0.10688400000799447,0.04816370003391057,0.0476885000243783,0.09991370001807809,0.10085520008578897,0.2995191999943927
RSVPLG03,cs,20260306-110109,1.0.2,20251105-084826,794,Experiment,Both,1,Automatic,main,76,20260306-114221,local,local,300,H,S,E,A,E-H.png,A-S.png,hH,sS,mask-2.png,mask-1.png,s,0,0.3775572000304237,h,0,0.5057150999782607,0.04714160005096346,0.04533829994034022,0.09968790004495531,0.09959289990365505,0.3003219000529498
RSVPLG03,cs,20260306-110109,1.0.2,20251105-084826,794,Experiment,Both,1,Automatic,main,77,20260306-114225,local,local,750,S,S,E,A,E-S.png,A-S.png,sS,sS,mask-1.png,mask-3.png,h,0,0.5744198000757024,s,1,0.20632279990240932,0.04736660001799464,0.04635179997421801,0.09860259993001819,0.09774819994345307,0.749970700009726
RSVPLG03,cs,20260306-110109,1.0.2,20251105-084826,794,Experiment,Both,1,Automatic,main,78,20260306-114230,local,global,300,S,S,E,A,E-S.png,S-A.png,sS,sS,mask-4.png,mask-1.png,s,1,0.6416112999431789,s,1,0.0773964999243617,0.04720699996687472,0.04725719999987632,0.10023920005187392,0.09991580003406852,0.3002802999690175
RSVPLG03,cs,20260306-110109,1.0.2,20251105-084826,794,Experiment,Both,1,Automatic,main,79,20260306-114234,global,global,300,H,H,E,A,H-E.png,H-A.png,hH,hH,mask-3.png,mask-2.png,h,1,0.4870931999757886,h,1,0.054089499986730516,0.046594500076025724,0.04643210000358522,0.09969569998793304,0.09805449994746596,0.29934060003142804
RSVPLG03,cs,20260306-110109,1.0.2,20251105-084826,794,Experiment,Both,1,Automatic,main,80,20260306-114238,global,global,300,S,S,A,A,S-A.png,S-A.png,sS,sS,mask-4.png,mask-4.png,s,1,0.4377432999899611,s,1,0.10143349994905293,0.04627679998520762,0.04836090002208948,0.09782079991418868,0.10144950007088482,0.29737209994345903
RSVPLG03,cs,20260306-110109,1.0.2,20251105-084826,794,Experiment,Both,1,Automatic,main,81,20260306-114243,global,local,750,S,H,E,E,S-E.png,E-H.png,sS,hH,mask-3.png,mask-2.png,s,1,0.44653610000386834,s,0,0.07476100011263043,0.04534289997536689,0.04710149997845292,0.09963499999139458,0.09905479999724776,0.7492593999486417
RSVPLG03,cs,20260306-110109,1.0.2,20251105-084826,794,Experiment,Both,1,Automatic,main,82,20260306-114247,local,global,300,S,H,E,E,E-S.png,H-E.png,sS,hH,mask-1.png,mask-2.png,s,1,0.3992658000206575,h,1,0.05352239997591823,0.047415300039574504,0.0474903000285849,0.09973160002846271,0.10096399998292327,0.2992112999781966
RSVPLG03,cs,20260306-110109,1.0.2,20251105-084826,794,Experiment,Both,1,Automatic,main,83,20260306-114251,global,local,750,S,S,E,A,S-E.png,A-S.png,sS,sS,mask-4.png,mask-4.png,s,1,0.7059199999785051,h,0,0.2774487000424415,0.04754579998552799,0.04810450004879385,0.09882119996473193,0.10133370000403374,0.7482774999225512
RSVPLG03,cs,20260306-110109,1.0.2,20251105-084826,794,Experiment,Both,1,Automatic,main,84,20260306-114256,local,local,300,S,H,E,A,E-S.png,A-H.png,sS,hH,mask-3.png,mask-3.png,s,1,0.3847467000596225,h,1,0.02375350007787347,0.04628270003013313,0.04592099995352328,0.09894840000197291,0.10056439996697009,0.29945500008761883
RSVPLG03,cs,20260306-110109,1.0.2,20251105-084826,794,Experiment,Both,1,Automatic,main,85,20260306-114300,global,local,300,H,H,A,E,H-A.png,E-H.png,hH,hH,mask-3.png,mask-2.png,h,1,0.959534400026314,s,0,0.1693175999680534,0.049466799944639206,0.04611610004212707,0.1006678999401629,0.09865020005963743,0.30125169991515577
RSVPLG03,cs,20260306-110109,1.0.2,20251105-084826,794,Experiment,Both,1,Automatic,main,86,20260306-114305,global,global,750,H,H,E,E,H-E.png,H-E.png,hH,hH,mask-4.png,mask-1.png,h,1,0.4170917000155896,h,1,0.07766749989241362,0.04733169998507947,0.04548650002107024,0.09955909999553114,0.09885700000450015,0.749970700009726
RSVPLG03,cs,20260306-110109,1.0.2,20251105-084826,794,Experiment,Both,1,Automatic,main,87,20260306-114310,global,global,300,H,S,A,A,H-A.png,S-A.png,hH,sS,mask-4.png,mask-4.png,h,1,0.45941040001343936,s,1,0.05739019997417927,0.04899759998079389,0.04845739994198084,0.09974770003464073,0.1002781999995932,0.2990671000443399
RSVPLG03,cs,20260306-110109,1.0.2,20251105-084826,794,Experiment,Both,1,Automatic,main,88,20260306-114314,global,global,300,S,S,E,E,S-E.png,S-E.png,sS,sS,mask-3.png,mask-2.png,s,1,0.38465750007890165,s,1,0.08775129995774478,0.04679819999728352,0.04728100006468594,0.09927969996351749,0.1005388000048697,0.29989919997751713
RSVPLG03,cs,20260306-110109,1.0.2,20251105-084826,794,Experiment,Both,1,Automatic,main,89,20260306-114318,global,local,300,H,H,A,E,H-A.png,E-H.png,hH,hH,mask-2.png,mask-2.png,h,1,0.7045040000230074,s,0,0.02314730000216514,0.04701390000991523,0.04611100000329316,0.10054140002466738,0.09953130001667887,0.3007245999760926
RSVPLG03,cs,20260306-110109,1.0.2,20251105-084826,794,Experiment,Both,1,Automatic,main,90,20260306-114322,local,global,750,H,S,E,E,E-H.png,S-E.png,hH,sS,mask-4.png,mask-2.png,s,0,0.3991828999714926,s,1,0.07953230000566691,0.04829599999357015,0.047256299993023276,0.0997954000486061,0.1012124998960644,0.7482387000927702
RSVPLG03,cs,20260306-110109,1.0.2,20251105-084826,794,Experiment,Both,1,Automatic,main,91,20260306-114327,global,global,750,S,S,A,A,S-A.png,S-A.png,sS,sS,mask-1.png,mask-3.png,s,1,0.4443322999868542,s,1,0.05751179996877909,0.047702500014565885,0.046905299997888505,0.09944790008012205,0.0999244999838993,0.7498301999876276
RSVPLG03,cs,20260306-110109,1.0.2,20251105-084826,794,Experiment,Both,1,Automatic,main,92,20260306-114332,global,local,300,S,S,A,A,S-A.png,A-S.png,sS,sS,mask-2.png,mask-4.png,s,1,0.5625309000024572,s,1,0.33513670007232577,0.04654050001408905,0.04671619995497167,0.09796929999720305,0.10050409997347742,0.2990214000456035
RSVPLG03,cs,20260306-110109,1.0.2,20251105-084826,794,Experiment,Both,1,Automatic,main,93,20260306-114336,global,local,750,S,S,E,E,S-E.png,E-S.png,sS,sS,mask-4.png,mask-2.png,s,1,0.3774635000154376,s,1,0.11048490006942302,0.04625290003605187,0.04452820005826652,0.101376699982211,0.09783940005581826,0.7506798999384046
RSVPLG03,cs,20260306-110109,1.0.2,20251105-084826,794,Experiment,Both,1,Automatic,main,94,20260306-114341,global,global,300,H,S,E,A,H-E.png,S-A.png,hH,sS,mask-4.png,mask-2.png,h,1,0.3661769999889657,s,1,0.12640010006725788,0.04608680005185306,0.04748419998213649,0.09860780008602887,0.09916939993854612,0.3000605000415817
RSVPLG03,cs,20260306-110109,1.0.2,20251105-084826,794,Experiment,Both,1,Automatic,main,95,20260306-114345,local,global,300,S,S,E,A,E-S.png,S-A.png,sS,sS,mask-1.png,mask-4.png,s,1,0.42967499990481883,s,1,0.08739320002496243,0.045382199925370514,0.048238900024443865,0.09887569991406053,0.09944000001996756,0.29655069997534156
RSVPLG03,cs,20260306-110109,1.0.2,20251105-084826,794,Experiment,Both,1,Automatic,main,96,20260306-114349,local,global,750,S,S,A,A,A-S.png,S-A.png,sS,sS,mask-3.png,mask-2.png,h,0,1.26057329995092,s,1,0.028651900007389486,0.04644559998996556,0.04566740000154823,0.09893570002168417,0.0971434999955818,0.7497622000519186
RSVPLG03,cs,20260306-110109,1.0.2,20251105-084826,794,Experiment,Both,1,Automatic,main,97,20260306-114354,global,local,300,S,H,A,A,S-A.png,A-H.png,sS,hH,mask-3.png,mask-3.png,s,1,0.5388863999396563,s,0,0.1754597999388352,0.04560140008106828,0.04622869996819645,0.0970083000138402,0.0984487000387162,0.29765930003486574
RSVPLG03,cs,20260306-110109,1.0.2,20251105-084826,794,Experiment,Both,1,Automatic,main,98,20260306-114359,local,local,300,S,S,E,E,E-S.png,E-S.png,sS,sS,mask-4.png,mask-3.png,s,1,0.5114513000007719,s,1,0.08710810006596148,0.0463027999503538,0.04724530002567917,0.09813980001490563,0.10064159997273237,0.29828829993493855
RSVPLG03,cs,20260306-110109,1.0.2,20251105-084826,794,Experiment,Both,1,Automatic,main,99,20260306-114403,local,local,300,S,S,A,E,A-S.png,E-S.png,sS,sS,mask-2.png,mask-1.png,s,1,0.7581332999980077,h,0,0.07556199992541224,0.045914200018160045,0.04822310002055019,0.09972620010375977,0.10075079998932779,0.2978025000775233
RSVPLG03,cs,20260306-110109,1.0.2,20251105-084826,794,Experiment,Both,1,Automatic,main,100,20260306-114407,global,local,300,H,S,E,E,H-E.png,E-S.png,hH,sS,mask-4.png,mask-4.png,h,1,0.3611368000274524,s,1,0.04149269999470562,0.047517099999822676,0.044785400037653744,0.0997882999945432,0.09842269995715469,0.3002270000288263
RSVPLG03,cs,20260306-114526,1.0.2,20251105-084826,794,Experiment,Both,1,Automatic,warmup,1,20260306-114611,global,global,750,H,H,A,A,H-A.png,H-A.png,hH,hH,mask-3.png,mask-4.png,s,0,0.14203039999119937,s,0,0.9226533999899402,0.04023260006215423,0.04688369994983077,0.09210740006528795,0.10012590000405908,0.742782200104557
RSVPLG03,cs,20260306-114526,1.0.2,20251105-084826,794,Experiment,Both,1,Automatic,warmup,2,20260306-114616,global,local,750,S,H,A,A,S-A.png,A-H.png,sS,hH,mask-1.png,mask-2.png,s,1,0.8192850999766961,s,0,0.10310249996837229,0.047614999930374324,0.047680299961939454,0.09961879998445511,0.0998189999954775,0.7499542000005022
RSVPLG03,cs,20260306-114526,1.0.2,20251105-084826,794,Experiment,Both,1,Automatic,warmup,3,20260306-114621,local,global,750,S,H,E,A,E-S.png,H-A.png,sS,hH,mask-4.png,mask-2.png,s,1,0.463020300026983,h,1,0.1205620999680832,0.0452282999176532,0.04769689997192472,0.09826799994334579,0.1003639999544248,0.7500036000274122
RSVPLG03,cs,20260306-114526,1.0.2,20251105-084826,794,Experiment,Both,1,Automatic,warmup,4,20260306-114626,local,global,300,H,S,A,E,A-H.png,S-E.png,hH,sS,mask-4.png,mask-2.png,h,1,0.42853359994478524,s,1,0.14530229999218136,0.0459685999667272,0.047508600051514804,0.09913480002433062,0.10049620002973825,0.29931889998260885
RSVPLG03,cs,20260306-114526,1.0.2,20251105-084826,794,Experiment,Both,1,Automatic,main,5,20260306-114630,global,global,300,H,S,E,E,H-E.png,S-E.png,hH,sS,mask-1.png,mask-2.png,h,1,0.3670545999193564,s,1,0.19864009995944798,0.047852299991063774,0.04748670000117272,0.10084049997385591,0.09957689989823848,0.3011584000196308
RSVPLG03,cs,20260306-114526,1.0.2,20251105-084826,794,Experiment,Both,1,Automatic,main,6,20260306-114634,global,global,300,H,S,E,E,H-E.png,S-E.png,hH,sS,mask-4.png,mask-4.png,h,1,0.44540289998985827,s,1,0.2030815000180155,0.04715250001754612,0.04682350007351488,0.0981568000279367,0.09999390004668385,0.2994518999475986
RSVPLG03,cs,20260306-114526,1.0.2,20251105-084826,794,Experiment,Both,1,Automatic,main,7,20260306-114638,local,local,300,H,H,A,A,A-H.png,A-H.png,hH,hH,mask-1.png,mask-3.png,h,1,0.42161280009895563,h,1,0.09319899999536574,0.04752689995802939,0.046530499937944114,0.09851969999726862,0.0995506999315694,0.3002445000456646
RSVPLG03,cs,20260306-114526,1.0.2,20251105-084826,794,Experiment,Both,1,Automatic,main,8,20260306-114643,local,global,750,S,H,E,A,E-S.png,H-A.png,sS,hH,mask-2.png,mask-2.png,s,1,0.6106837999541312,h,1,0.22021529998164624,0.04851979995146394,0.04752730007749051,0.10053579998202622,0.10154479998163879,0.750754699925892
RSVPLG03,cs,20260306-114526,1.0.2,20251105-084826,794,Experiment,Both,1,Automatic,main,9,20260306-114648,global,local,300,S,S,A,E,S-A.png,E-S.png,sS,sS,mask-1.png,mask-1.png,s,1,0.4395113999489695,s,1,0.14381729997694492,0.04750760004390031,0.046192800044082105,0.09850640001241118,0.09966850001364946,0.2997330999933183
RSVPLG03,cs,20260306-114526,1.0.2,20251105-084826,794,Experiment,Both,1,Automatic,main,10,20260306-114652,local,local,750,S,S,E,E,E-S.png,E-S.png,sS,sS,mask-3.png,mask-2.png,s,1,0.4860585000133142,s,1,0.10778399999253452,0.048515900038182735,0.04773300001397729,0.0995691999560222,0.102021099999547,0.7503731000469998
RSVPLG03,cs,20260306-114526,1.0.2,20251105-084826,794,Experiment,Both,1,Automatic,main,11,20260306-114657,global,global,750,S,H,A,E,S-A.png,H-E.png,sS,hH,mask-3.png,mask-3.png,s,1,0.3500973000191152,h,1,0.055086800013668835,0.04653669998515397,0.04665969999041408,0.10001980001106858,0.0998993000248447,0.7504411999834701
RSVPLG03,cs,20260306-114526,1.0.2,20251105-084826,794,Experiment,Both,1,Automatic,main,12,20260306-114701,local,global,300,S,H,E,E,E-S.png,H-E.png,sS,hH,mask-3.png,mask-2.png,s,1,0.3547205999493599,h,1,0.8761137999827042,0.04859250003937632,0.04776669992133975,0.10070020006969571,0.09881310001946986,0.3011637000599876
RSVPLG03,cs,20260306-114526,1.0.2,20251105-084826,794,Experiment,Both,1,Automatic,main,13,20260306-114706,local,local,750,S,H,E,E,E-S.png,E-H.png,sS,hH,mask-4.png,mask-1.png,s,1,0.4967323000309989,s,0,0.11382229998707771,0.04852870001923293,0.047508500050753355,0.09978309995494783,0.10051160003058612,0.7510983999818563
RSVPLG03,cs,20260306-114526,1.0.2,20251105-084826,794,Experiment,Both,1,Automatic,main,14,20260306-114711,local,global,750,S,S,A,A,A-S.png,S-A.png,sS,sS,mask-3.png,mask-2.png,h,0,0.33131649997085333,s,1,0.10900169995147735,0.04716860002372414,0.04813940008170903,0.10012429999187589,0.0994179000845179,0.7503615999594331
RSVPLG03,cs,20260306-114526,1.0.2,20251105-084826,794,Experiment,Both,1,Automatic,main,15,20260306-114716,local,global,750,S,H,E,E,E-S.png,H-E.png,sS,hH,mask-4.png,mask-3.png,s,1,0.3287909000646323,h,1,0.06837989995256066,0.04778440005611628,0.047461200039833784,0.10089200001675636,0.09966290008742362,0.7512352999765426
RSVPLG03,cs,20260306-114526,1.0.2,20251105-084826,794,Experiment,Both,1,Automatic,main,16,20260306-114720,local,local,300,H,S,A,E,A-H.png,E-S.png,hH,sS,mask-1.png,mask-4.png,h,1,0.32965410000178963,s,1,0.08960860001388937,0.04770770005416125,0.04670049995183945,0.10090190009213984,0.09991019999142736,0.30093470006249845
RSVPLG03,cs,20260306-114526,1.0.2,20251105-084826,794,Experiment,Both,1,Automatic,main,17,20260306-114724,global,global,300,S,H,A,A,S-A.png,H-A.png,sS,hH,mask-4.png,mask-2.png,s,1,0.43066130008082837,h,1,0.0858330000191927,0.0486739999614656,0.04763149993959814,0.09990199992898852,0.10066239989828318,0.30103490001056343
RSVPLG03,cs,20260306-114526,1.0.2,20251105-084826,794,Experiment,Both,1,Automatic,main,18,20260306-114728,local,global,300,H,H,A,A,A-H.png,H-A.png,hH,hH,mask-4.png,mask-3.png,h,1,0.34863609995227307,s,0,0.08060789993032813,0.048868600046262145,0.0477271000854671,0.10052790003828704,0.09990570007357746,0.30126320000272244
RSVPLG03,cs,20260306-114526,1.0.2,20251105-084826,794,Experiment,Both,1,Automatic,main,19,20260306-114733,local,global,750,S,H,A,A,A-S.png,H-A.png,sS,hH,mask-3.png,mask-4.png,s,1,0.4319499999983236,h,1,0.1024619999807328,0.04752580006606877,0.04761320003308356,0.10052249999716878,0.10144240001682192,0.7503934999695048
RSVPLG03,cs,20260306-114526,1.0.2,20251105-084826,794,Experiment,Both,1,Automatic,main,20,20260306-114737,global,global,750,H,H,A,A,H-A.png,H-A.png,hH,hH,mask-1.png,mask-1.png,h,1,0.5239788999315351,h,1,0.08821469999384135,0.047489200020208955,0.047988599981181324,0.09887370001524687,0.10001559997908771,0.7505601000739262
RSVPLG03,cs,20260306-114526,1.0.2,20251105-084826,794,Experiment,Both,1,Automatic,main,21,20260306-114742,local,local,750,H,H,E,A,E-H.png,A-H.png,hH,hH,mask-4.png,mask-2.png,h,1,0.3392244999995455,h,1,0.06937939999625087,0.047541000065393746,0.04751840000972152,0.09946689999196678,0.09953649993985891,0.7502692000707611
RSVPLG03,cs,20260306-114526,1.0.2,20251105-084826,794,Experiment,Both,1,Automatic,main,22,20260306-114746,local,local,300,H,S,E,A,E-H.png,A-S.png,hH,sS,mask-2.png,mask-1.png,h,1,0.468058800091967,s,1,0.060919699957594275,0.0468249999685213,0.04682300006970763,0.0990241999970749,0.1010107999900356,0.29999869992025197
RSVPLG03,cs,20260306-114526,1.0.2,20251105-084826,794,Experiment,Both,1,Automatic,main,23,20260306-114751,global,global,750,S,H,E,A,S-E.png,H-A.png,sS,hH,mask-3.png,mask-4.png,s,1,0.28862459992524236,h,1,0.02246730006299913,0.04704850004054606,0.04768509999848902,0.10038449999410659,0.0994520999956876,0.7511339000193402
RSVPLG03,cs,20260306-114526,1.0.2,20251105-084826,794,Experiment,Both,1,Automatic,main,24,20260306-114755,global,local,300,S,H,A,E,S-A.png,E-H.png,sS,hH,mask-3.png,mask-3.png,s,1,0.3573122000088915,h,1,0.4856154000153765,0.0465131999226287,0.04751499998383224,0.09952059993520379,0.09797270002309233,0.3009392999811098
RSVPLG03,cs,20260306-114526,1.0.2,20251105-084826,794,Experiment,Both,1,Automatic,main,25,20260306-114759,global,local,300,H,H,A,E,H-A.png,E-H.png,hH,hH,mask-1.png,mask-3.png,h,1,0.6223414000123739,h,1,0.03899579995777458,0.04882360005285591,0.04754900000989437,0.10098710004240274,0.10072610003408045,0.30037940002512187
RSVPLG03,cs,20260306-114526,1.0.2,20251105-084826,794,Experiment,Both,1,Automatic,main,26,20260306-114809,local,local,300,S,S,A,E,A-S.png,E-S.png,sS,sS,mask-2.png,mask-2.png,s,1,0.34834459994453937,h,0,0.7712813999969512,0.047546699992381036,0.04704669991042465,0.09958779998123646,0.10030649998225272,0.30009580007754266
RSVPLG03,cs,20260306-114526,1.0.2,20251105-084826,794,Experiment,Both,1,Automatic,main,27,20260306-114814,global,global,300,S,H,E,A,S-E.png,H-A.png,sS,hH,mask-3.png,mask-2.png,s,1,0.4451696000760421,h,1,0.06029819999821484,0.04751780000515282,0.04753590002655983,0.09952369995880872,0.09955340006854385,0.30001739994622767
RSVPLG03,cs,20260306-114526,1.0.2,20251105-084826,794,Experiment,Both,1,Automatic,main,28,20260306-114818,global,global,300,S,S,E,A,S-E.png,S-A.png,sS,sS,mask-3.png,mask-2.png,s,1,0.5839025999885052,s,1,0.08257050008978695,0.047520300024189055,0.048744100029580295,0.09964320005383343,0.10035660001449287,0.2992846000706777
RSVPLG03,cs,20260306-114526,1.0.2,20251105-084826,794,Experiment,Both,1,Automatic,main,29,20260306-114823,local,global,300,H,S,A,A,A-H.png,S-A.png,hH,sS,mask-1.png,mask-2.png,h,1,0.31205349997617304,s,1,0.12894059997051954,0.04756709991488606,0.046655200072564185,0.09958489995915443,0.09870070009492338,0.30102279991842806
RSVPLG03,cs,20260306-114526,1.0.2,20251105-084826,794,Experiment,Both,1,Automatic,main,30,20260306-114827,global,local,300,H,S,A,A,H-A.png,A-S.png,hH,sS,mask-2.png,mask-1.png,h,1,0.5249542999081314,h,0,0.16192889993544668,0.04774370009545237,0.04877019999548793,0.10095030011143535,0.1009427000535652,0.2990797000238672
RSVPLG03,cs,20260306-114526,1.0.2,20251105-084826,794,Experiment,Both,1,Automatic,main,31,20260306-114831,local,local,300,S,H,A,A,A-S.png,A-H.png,sS,hH,mask-1.png,mask-3.png,s,1,0.8328775999834761,h,1,0.21352360001765192,0.047621099976822734,0.04778320004697889,0.09976250003091991,0.10093840002082288,0.2999542999314144
RSVPLG03,cs,20260306-114526,1.0.2,20251105-084826,794,Experiment,Both,1,Automatic,main,32,20260306-114836,global,global,300,H,H,E,A,H-E.png,H-A.png,hH,hH,mask-2.png,mask-1.png,h,1,0.5143679999746382,h,1,0.214945700019598,0.04769839998334646,0.04770039999857545,0.09989939990919083,0.09885350009426475,0.30145129992160946
RSVPLG03,cs,20260306-114526,1.0.2,20251105-084826,794,Experiment,Both,1,Automatic,main,33,20260306-114840,global,local,750,S,S,A,A,S-A.png,A-S.png,sS,sS,mask-3.png,mask-1.png,s,1,0.4933110000565648,h,0,0.10437720001209527,0.04516949993558228,0.0497363000176847,0.0983086999040097,0.10075050010345876,0.7490851999027655
RSVPLG03,cs,20260306-114526,1.0.2,20251105-084826,794,Experiment,Both,1,Automatic,main,34,20260306-114845,local,local,750,S,S,A,E,A-S.png,E-S.png,sS,sS,mask-1.png,mask-2.png,s,1,0.4576015000930056,s,1,0.09508320002350956,0.046985300024971366,0.04764590004924685,0.10010179993696511,0.10074370005168021,0.7504862999776378
RSVPLG03,cs,20260306-114526,1.0.2,20251105-084826,794,Experiment,Both,1,Automatic,main,35,20260306-114849,global,global,750,H,H,E,A,H-E.png,H-A.png,hH,hH,mask-1.png,mask-1.png,h,1,0.4516418999992311,h,1,0.10255010006949306,0.04724580002948642,0.0467855999013409,0.09952940000221133,0.09976569993887097,0.7506173000438139
RSVPLG03,cs,20260306-114526,1.0.2,20251105-084826,794,Experiment,Both,1,Automatic,main,36,20260306-114854,local,local,750,H,S,E,E,E-H.png,E-S.png,hH,sS,mask-3.png,mask-3.png,s,0,0.47300469991751015,h,0,0.6168968999991193,0.04585240001324564,0.0465361000970006,0.1000598999671638,0.09971169999334961,0.7504185999277979
RSVPLG03,cs,20260306-114526,1.0.2,20251105-084826,794,Experiment,Both,1,Automatic,main,37,20260306-114859,local,global,300,H,S,E,E,E-H.png,S-E.png,hH,sS,mask-3.png,mask-1.png,s,0,0.5817708000540733,s,1,0.1417958999518305,0.047588499961420894,0.04761289991438389,0.10008889995515347,0.10025699995458126,0.2998469000449404
RSVPLG03,cs,20260306-114526,1.0.2,20251105-084826,794,Experiment,Both,1,Automatic,main,38,20260306-114903,global,global,750,H,H,A,E,H-A.png,H-E.png,hH,hH,mask-3.png,mask-2.png,h,1,0.3790764999575913,h,1,0.15166600001975894,0.04755979997571558,0.04792199993971735,0.09961509995628148,0.10007179994136095,0.7501973999897018
RSVPLG03,cs,20260306-114526,1.0.2,20251105-084826,794,Experiment,Both,1,Automatic,main,39,20260306-114908,global,global,300,S,H,E,E,S-E.png,H-E.png,sS,hH,mask-1.png,mask-2.png,s,1,0.6696318999165669,h,1,0.08458719996269792,0.04700979997869581,0.04734459996689111,0.09998339996673167,0.10021369997411966,0.30088799993973225
RSVPLG03,cs,20260306-114526,1.0.2,20251105-084826,794,Experiment,Both,1,Automatic,main,40,20260306-114912,local,global,300,H,S,E,E,E-H.png,S-E.png,hH,sS,mask-3.png,mask-3.png,s,0,0.47980970004573464,s,1,0.08707549993414432,0.04851480002980679,0.04650189995300025,0.10152459994424134,0.09953299991320819,0.3018323000287637
RSVPLG03,cs,20260306-114526,1.0.2,20251105-084826,794,Experiment,Both,1,Automatic,main,41,20260306-114916,local,global,300,S,S,E,E,E-S.png,S-E.png,sS,sS,mask-3.png,mask-3.png,s,1,0.4486998999491334,s,1,0.09431269997730851,0.04654609994031489,0.046964399982243776,0.1000375000294298,0.10106260003522038,0.30053729994688183
RSVPLG03,cs,20260306-114526,1.0.2,20251105-084826,794,Experiment,Both,1,Automatic,main,42,20260306-114921,global,local,750,S,S,E,E,S-E.png,E-S.png,sS,sS,mask-4.png,mask-4.png,s,1,0.3656051999423653,s,1,0.06996100000105798,0.046758599928580225,0.04880400002002716,0.09990309993736446,0.10200089996214956,0.7493875999934971
RSVPLG03,cs,20260306-114526,1.0.2,20251105-084826,794,Experiment,Both,1,Automatic,main,43,20260306-114925,local,local,300,H,H,A,E,A-H.png,E-H.png,hH,hH,mask-1.png,mask-4.png,h,1,0.5253057000227273,s,0,0.12157020007725805,0.04759339999873191,0.047570399940013885,0.09907370002474636,0.10060370003338903,0.30042730004061013
RSVPLG03,cs,20260306-114526,1.0.2,20251105-084826,794,Experiment,Both,1,Automatic,main,44,20260306-114930,global,global,300,S,H,A,E,S-A.png,H-E.png,sS,hH,mask-3.png,mask-1.png,s,1,0.4307079000864178,h,1,0.01652440009638667,0.04752280004322529,0.048358700005337596,0.10158230003435165,0.0998812000034377,0.29995530005544424
RSVPLG03,cs,20260306-114526,1.0.2,20251105-084826,794,Experiment,Both,1,Automatic,main,45,20260306-114934,global,global,750,S,S,E,E,S-E.png,S-E.png,sS,sS,mask-2.png,mask-4.png,s,1,0.41029979998711497,s,1,0.15225509996525943,0.045744000002741814,0.04887130006682128,0.09999500005505979,0.10070379998069257,0.749007000005804
RSVPLG03,cs,20260306-114526,1.0.2,20251105-084826,794,Experiment,Both,1,Automatic,main,46,20260306-114938,local,local,300,S,H,A,A,A-S.png,A-H.png,sS,hH,mask-2.png,mask-3.png,s,1,0.5293230999959633,h,1,0.010501899989321828,0.04791710001882166,0.047670100000686944,0.09953070001211017,0.09922090009786189,0.2996828999603167
RSVPLG03,cs,20260306-114526,1.0.2,20251105-084826,794,Experiment,Both,1,Automatic,main,47,20260306-114943,local,local,300,H,S,E,E,E-H.png,E-S.png,hH,sS,mask-1.png,mask-1.png,s,0,0.41717919998336583,h,0,0.007613199995830655,0.048475900082848966,0.04856910009402782,0.09955280006397516,0.100410700077191,0.30008359998464584
RSVPLG03,cs,20260306-114526,1.0.2,20251105-084826,794,Experiment,Both,1,Automatic,main,48,20260306-114947,global,local,750,H,H,E,E,H-E.png,E-H.png,hH,hH,mask-2.png,mask-4.png,h,1,0.5608667000196874,h,1,0.06023479998111725,0.04742590000387281,0.0485377999721095,0.10036590008530766,0.10021379997488111,0.7497714000055566
RSVPLG03,cs,20260306-114526,1.0.2,20251105-084826,794,Experiment,Both,1,Automatic,main,49,20260306-114951,local,local,750,S,S,A,E,A-S.png,E-S.png,sS,sS,mask-4.png,mask-3.png,s,1,0.37502180004958063,s,1,0.05631930008530617,0.047566400025971234,0.048563600052148104,0.09959120000712574,0.0997009000275284,0.7500910999951884
RSVPLG03,cs,20260306-114526,1.0.2,20251105-084826,794,Experiment,Both,1,Automatic,main,50,20260306-114956,local,local,300,S,S,E,A,E-S.png,A-S.png,sS,sS,mask-4.png,mask-1.png,s,1,0.38394950004294515,h,0,0.03812630008906126,0.04606180009432137,0.047547099995426834,0.09913460002280772,0.10053219995461404,0.2993741000536829
RSVPLG03,cs,20260306-114526,1.0.2,20251105-084826,794,Experiment,Both,1,Automatic,main,51,20260306-115048,global,local,750,H,H,E,E,H-E.png,E-H.png,hH,hH,mask-1.png,mask-4.png,h,1,0.4393131999531761,s,0,0.05970980005804449,0.04699039994738996,0.0459639000473544,0.10016719996929169,0.09977870003785938,0.7513664999278262
RSVPLG03,cs,20260306-114526,1.0.2,20251105-084826,794,Experiment,Both,1,Automatic,main,52,20260306-115052,global,local,300,S,H,E,A,S-E.png,A-H.png,sS,hH,mask-4.png,mask-1.png,s,1,0.4589145000791177,h,1,0.10401030001230538,0.04782660002820194,0.04690139996819198,0.10093510011211038,0.099923099973239,0.30079910007771105
RSVPLG03,cs,20260306-114526,1.0.2,20251105-084826,794,Experiment,Both,1,Automatic,main,53,20260306-115056,global,local,300,H,S,A,E,H-A.png,E-S.png,hH,sS,mask-4.png,mask-3.png,h,1,0.3544670999981463,s,1,0.08049890003167093,0.0477312000002712,0.04713429999537766,0.10092190001159906,0.09831509995274246,0.300979100051336
RSVPLG03,cs,20260306-114526,1.0.2,20251105-084826,794,Experiment,Both,1,Automatic,main,54,20260306-115101,global,global,750,H,H,E,A,H-E.png,H-A.png,hH,hH,mask-3.png,mask-3.png,h,1,0.5015061000594869,h,1,0.1515223999740556,0.04744580003898591,0.04713760002050549,0.10046490002423525,0.09985999995842576,0.7502967000473291
RSVPLG03,cs,20260306-114526,1.0.2,20251105-084826,794,Experiment,Both,1,Automatic,main,55,20260306-115105,global,local,300,S,H,E,A,S-E.png,A-H.png,sS,hH,mask-2.png,mask-1.png,s,1,0.6521096000215039,s,0,0.10280320001766086,0.04771760001312941,0.04690359998494387,0.09979250002652407,0.10032960004173219,0.29988379997666925
RSVPLG03,cs,20260306-114526,1.0.2,20251105-084826,794,Experiment,Both,1,Automatic,main,56,20260306-115110,local,local,300,S,S,E,E,E-S.png,E-S.png,sS,sS,mask-3.png,mask-2.png,s,1,0.4964083000086248,s,1,0.10888849990442395,0.0487431000219658,0.0471087999176234,0.10080749995540828,0.09976419992744923,0.3008204000070691
RSVPLG03,cs,20260306-114526,1.0.2,20251105-084826,794,Experiment,Both,1,Automatic,main,57,20260306-115114,local,global,750,H,S,A,E,A-H.png,S-E.png,hH,sS,mask-3.png,mask-4.png,h,1,0.36560060002375394,s,1,0.11845519999042153,0.04595189995598048,0.0464393999427557,0.09823919995687902,0.0996439999435097,0.7506589000113308
RSVPLG03,cs,20260306-114526,1.0.2,20251105-084826,794,Experiment,Both,1,Automatic,main,58,20260306-115118,global,local,300,S,H,E,A,S-E.png,A-H.png,sS,hH,mask-1.png,mask-2.png,s,1,0.6591700999997556,s,0,0.11739519995171577,0.04605849995277822,0.04769569996278733,0.09931389999110252,0.09994870005175471,0.2999417999526486
RSVPLG03,cs,20260306-114526,1.0.2,20251105-084826,794,Experiment,Both,1,Automatic,main,59,20260306-115123,local,global,750,S,H,A,E,A-S.png,H-E.png,sS,hH,mask-2.png,mask-1.png,s,1,0.5585213000886142,h,1,0.016173999989405274,0.047512599965557456,0.04855830001179129,0.09966409998014569,0.10049859993159771,0.7493694999720901
RSVPLG03,cs,20260306-114526,1.0.2,20251105-084826,794,Experiment,Both,1,Automatic,main,60,20260306-115128,local,global,300,H,H,A,A,A-H.png,H-A.png,hH,hH,mask-2.png,mask-1.png,h,1,0.7483001999789849,h,1,0.06644679990131408,0.04751639999449253,0.045740699977613986,0.1005581000354141,0.09946169995237142,0.30038180004339665
RSVPLG03,cs,20260306-114526,1.0.2,20251105-084826,794,Experiment,Both,1,Automatic,main,61,20260306-115132,local,global,300,H,S,A,E,A-H.png,S-E.png,hH,sS,mask-1.png,mask-2.png,h,1,0.4307263999944553,s,1,0.08917000005021691,0.047683099983260036,0.04806479997932911,0.10091789998114109,0.09923040005378425,0.3005123999901116
RSVPLG03,cs,20260306-114526,1.0.2,20251105-084826,794,Experiment,Both,1,Automatic,main,62,20260306-115136,local,global,750,H,S,A,A,A-H.png,S-A.png,hH,sS,mask-1.png,mask-2.png,h,1,0.359395100036636,s,1,0.08309549989644438,0.04765409999527037,0.04670259996782988,0.10187010001391172,0.09949970000889152,0.7526175000239164
RSVPLG03,cs,20260306-114526,1.0.2,20251105-084826,794,Experiment,Both,1,Automatic,main,63,20260306-115141,global,global,300,H,S,E,E,H-E.png,S-E.png,hH,sS,mask-3.png,mask-4.png,h,1,0.4178027000743896,s,1,0.08720219996757805,0.046662200009450316,0.04768929991405457,0.09984230005647987,0.09998709999490529,0.2994360000593588
RSVPLG03,cs,20260306-114526,1.0.2,20251105-084826,794,Experiment,Both,1,Automatic,main,64,20260306-115145,global,local,750,S,H,A,A,S-A.png,A-H.png,sS,hH,mask-3.png,mask-1.png,s,1,0.47832130000460893,h,1,0.15401800000108778,0.04751060006674379,0.04875199997331947,0.10050920001231134,0.10182670003268868,0.7504619000246748
RSVPLG03,cs,20260306-114526,1.0.2,20251105-084826,794,Experiment,Both,1,Automatic,main,65,20260306-115150,local,global,750,S,H,E,E,E-S.png,H-E.png,sS,hH,mask-3.png,mask-4.png,s,1,0.4111385999713093,h,1,0.15594970004167408,0.047545199980959296,0.04754199995659292,0.1005469000665471,0.10086959996260703,0.7503237000200897
RSVPLG03,cs,20260306-114526,1.0.2,20251105-084826,794,Experiment,Both,1,Automatic,main,66,20260306-115155,local,local,300,H,H,E,A,E-H.png,A-H.png,hH,hH,mask-2.png,mask-3.png,s,0,0.6149145000381395,h,1,0.07778950000647455,0.04958440002519637,0.04701829992700368,0.10160509997513145,0.0993821999290958,0.3017380000092089
RSVPLG03,cs,20260306-114526,1.0.2,20251105-084826,794,Experiment,Both,1,Automatic,main,67,20260306-115159,local,global,300,H,S,E,E,E-H.png,S-E.png,hH,sS,mask-4.png,mask-2.png,s,0,0.5393699000123888,h,0,0.05156310007441789,0.04874769994057715,0.04772869998123497,0.10201489995233715,0.10083340003620833,0.30157729994971305
RSVPLG03,cs,20260306-114526,1.0.2,20251105-084826,794,Experiment,Both,1,Automatic,main,68,20260306-115203,global,global,750,S,S,A,A,S-A.png,S-A.png,sS,sS,mask-1.png,mask-1.png,s,1,0.42317339999135584,s,1,0.07420150004327297,0.04651529993861914,0.046498200041241944,0.09952539997175336,0.09851869998965412,0.7508501999545842
RSVPLG03,cs,20260306-114526,1.0.2,20251105-084826,794,Experiment,Both,1,Automatic,main,69,20260306-115208,global,local,750,S,H,E,E,S-E.png,E-H.png,sS,hH,mask-4.png,mask-4.png,s,1,0.4047184999799356,s,0,0.08540320000611246,0.0475830000359565,0.04837910004425794,0.10064750001765788,0.1003513999748975,0.7511642000172287
RSVPLG03,cs,20260306-114526,1.0.2,20251105-084826,794,Experiment,Both,1,Automatic,main,70,20260306-115213,local,global,750,H,S,E,A,E-H.png,S-A.png,hH,sS,mask-2.png,mask-1.png,s,0,0.3977496000006795,s,1,0.07490709994453937,0.047804900095798075,0.04868160001933575,0.10103930009063333,0.10189679998438805,0.7504993000766262
RSVPLG03,cs,20260306-114526,1.0.2,20251105-084826,794,Experiment,Both,1,Automatic,main,71,20260306-115217,global,local,750,H,S,A,E,H-A.png,E-S.png,hH,sS,mask-1.png,mask-1.png,h,1,0.30902859999332577,s,1,0.08901879994664341,0.04843620001338422,0.046585200005210936,0.10051660006865859,0.10059399995952845,0.7517086000880226
RSVPLG03,cs,20260306-114526,1.0.2,20251105-084826,794,Experiment,Both,1,Automatic,main,72,20260306-115222,local,local,750,S,H,A,E,A-S.png,E-H.png,sS,hH,mask-4.png,mask-3.png,h,0,0.3627557000145316,s,0,0.020219300058670342,0.04757259995676577,0.04683410003781319,0.0996118999319151,0.10079729999415576,0.7509914999827743
RSVPLG03,cs,20260306-114526,1.0.2,20251105-084826,794,Experiment,Both,1,Automatic,main,73,20260306-115226,local,local,750,H,H,E,E,E-H.png,E-H.png,hH,hH,mask-3.png,mask-2.png,s,0,0.41797159996349365,s,0,0.0928588000824675,0.047438900102861226,0.048175000003539026,0.10069400002248585,0.09928060008678585,0.7513327000197023
RSVPLG03,cs,20260306-114526,1.0.2,20251105-084826,794,Experiment,Both,1,Automatic,main,74,20260306-115231,local,local,750,S,H,E,E,E-S.png,E-H.png,sS,hH,mask-4.png,mask-2.png,h,0,1.047228500014171,h,1,0.07747589994687587,0.04688359994906932,0.04883410001639277,0.10039099992718548,0.10247479996178299,0.7491968999383971
RSVPLG03,cs,20260306-114526,1.0.2,20251105-084826,794,Experiment,Both,1,Automatic,main,75,20260306-115236,global,global,750,S,S,E,E,S-E.png,S-E.png,sS,sS,mask-2.png,mask-1.png,s,1,0.3435294999508187,s,1,0.09000580001156777,0.04780709999613464,0.04750879993662238,0.0999110999982804,0.09952379995957017,0.7508866999996826
RSVPLG03,cs,20260306-114526,1.0.2,20251105-084826,794,Experiment,Both,1,Automatic,main,76,20260306-115242,local,global,750,S,S,E,A,E-S.png,S-A.png,sS,sS,mask-2.png,mask-1.png,s,1,0.3520611999556422,s,1,0.08945710002444685,0.047771899960935116,0.046739600016735494,0.10001069994177669,0.10026929993182421,0.751358599984087
RSVPLG03,cs,20260306-114526,1.0.2,20251105-084826,794,Experiment,Both,1,Automatic,main,77,20260306-115246,local,global,750,S,S,A,E,A-S.png,S-E.png,sS,sS,mask-4.png,mask-1.png,h,0,0.3395961000351235,s,1,0.037832400063052773,0.048523199977353215,0.047464100061915815,0.09943619999103248,0.10052220011129975,0.7508463999256492
RSVPLG03,cs,20260306-114526,1.0.2,20251105-084826,794,Experiment,Both,1,Automatic,main,78,20260306-115251,global,global,300,S,S,E,A,S-E.png,S-A.png,sS,sS,mask-4.png,mask-4.png,s,1,0.4161814999533817,s,1,0.08545349992346019,0.04755769995972514,0.04590370005462319,0.10047259996645153,0.09899980004411191,0.30114859994500875
RSVPLG03,cs,20260306-114526,1.0.2,20251105-084826,794,Experiment,Both,1,Automatic,main,79,20260306-115255,local,local,750,S,H,A,A,A-S.png,A-H.png,sS,hH,mask-1.png,mask-2.png,h,0,0.47278169996570796,h,1,0.06020360009279102,0.048529300023801625,0.04761459992732853,0.10159830003976822,0.09964369994122535,0.7513516000472009
RSVPLG03,cs,20260306-114526,1.0.2,20251105-084826,794,Experiment,Both,1,Automatic,main,80,20260306-115259,local,global,300,S,H,E,E,E-S.png,H-E.png,sS,hH,mask-4.png,mask-4.png,s,1,0.29879609995987266,h,1,0.7639377999585122,0.04644989990629256,0.0474356000777334,0.09971199999563396,0.09972530009690672,0.3002259999047965
RSVPLG03,cs,20260306-114526,1.0.2,20251105-084826,794,Experiment,Both,1,Automatic,main,81,20260306-115304,global,global,300,S,S,A,A,S-A.png,S-A.png,sS,sS,mask-4.png,mask-3.png,s,1,0.31672179989982396,s,1,0.06005609990097582,0.04670559999067336,0.049529400072060525,0.09989880002103746,0.10056880000047386,0.2989762999350205
RSVPLG03,cs,20260306-114526,1.0.2,20251105-084826,794,Experiment,Both,1,Automatic,main,82,20260306-115308,local,local,300,H,H,A,A,A-H.png,A-H.png,hH,hH,mask-1.png,mask-3.png,h,1,0.6567787999520078,h,1,0.31786110007669777,0.04860870004631579,0.04752089991234243,0.1016167999478057,0.09953439992386848,0.3019093000330031
RSVPLG03,cs,20260306-114526,1.0.2,20251105-084826,794,Experiment,Both,1,Automatic,main,83,20260306-115313,global,global,750,H,H,E,E,H-E.png,H-E.png,hH,hH,mask-4.png,mask-2.png,h,1,0.41963579994626343,h,1,0.08240980003029108,0.049576499965041876,0.04734359995927662,0.10059039993211627,0.10062319994904101,0.7519986999686807
RSVPLG03,cs,20260306-114526,1.0.2,20251105-084826,794,Experiment,Both,1,Automatic,main,84,20260306-115317,global,local,300,S,H,E,A,S-E.png,A-H.png,sS,hH,mask-2.png,mask-3.png,s,1,0.8374451000709087,h,1,0.12125520000699908,0.04751669999677688,0.04846479999832809,0.09934630000498146,0.10066839994397014,0.29986120003741235
RSVPLG03,cs,20260306-114526,1.0.2,20251105-084826,794,Experiment,Both,1,Automatic,main,85,20260306-115322,global,local,300,S,S,E,E,S-E.png,E-S.png,sS,sS,mask-2.png,mask-3.png,s,1,0.41287260001990944,s,1,0.11625780002214015,0.04772799997590482,0.04763209994416684,0.10005769995041192,0.09964249993208796,0.29997849999926984
RSVPLG03,cs,20260306-114526,1.0.2,20251105-084826,794,Experiment,Both,1,Automatic,main,86,20260306-115326,global,local,300,S,H,A,A,S-A.png,A-H.png,sS,hH,mask-4.png,mask-4.png,s,1,0.5203079000348225,h,1,0.08731620002072304,0.04746789997443557,0.0475643000099808,0.10153519990853965,0.10064580000471324,0.30127559998072684
RSVPLG03,cs,20260306-114526,1.0.2,20251105-084826,794,Experiment,Both,1,Automatic,main,87,20260306-115330,global,local,750,H,H,A,E,H-A.png,E-H.png,hH,hH,mask-4.png,mask-1.png,h,1,0.546547600068152,s,0,0.08700019994284958,0.047394099994562566,0.047514099976979196,0.10028060001786798,0.10052349988836795,0.7503930000821128
RSVPLG03,cs,20260306-114526,1.0.2,20251105-084826,794,Experiment,Both,1,Automatic,main,88,20260306-115335,global,global,750,H,H,A,E,H-A.png,H-E.png,hH,hH,mask-2.png,mask-4.png,h,1,0.41444249998312443,h,1,0.09521830000448972,0.046973500051535666,0.045707000070251524,0.09943770000245422,0.09990330005530268,0.7513948000269011
RSVPLG03,cs,20260306-114526,1.0.2,20251105-084826,794,Experiment,Both,1,Automatic,main,89,20260306-115340,global,local,300,S,S,A,A,S-A.png,A-S.png,sS,sS,mask-2.png,mask-1.png,s,1,0.5250382999656722,h,0,0.060687099932692945,0.04573080001864582,0.047499700100161135,0.09946639998815954,0.09957090008538216,0.29979189997538924
RSVPLG03,cs,20260306-114526,1.0.2,20251105-084826,794,Experiment,Both,1,Automatic,main,90,20260306-115344,global,global,300,S,H,E,E,S-E.png,H-E.png,sS,hH,mask-1.png,mask-1.png,s,1,0.37579149997327477,h,1,0.007987700053490698,0.04771099996287376,0.046689300099387765,0.09889769996516407,0.09889290004502982,0.3005857999669388
RSVPLG03,cs,20260306-114526,1.0.2,20251105-084826,794,Experiment,Both,1,Automatic,main,91,20260306-115348,global,local,750,S,H,A,A,S-A.png,A-H.png,sS,hH,mask-1.png,mask-3.png,s,1,0.3454510000301525,h,1,0.6314064000034705,0.04758309992030263,0.04663190001156181,0.09981509996578097,0.09910680004395545,0.7513641999103129
RSVPLG03,cs,20260306-114526,1.0.2,20251105-084826,794,Experiment,Both,1,Automatic,main,92,20260306-115353,global,local,750,H,S,E,A,H-E.png,A-S.png,hH,sS,mask-1.png,mask-3.png,h,1,0.4566315000411123,s,1,0.13478640001267195,0.0470738000003621,0.046632700017653406,0.10095059999730438,0.09965730004478246,0.752290099975653
RSVPLG03,cs,20260306-114526,1.0.2,20251105-084826,794,Experiment,Both,1,Automatic,main,93,20260306-115358,local,global,750,H,H,E,A,E-H.png,H-A.png,hH,hH,mask-3.png,mask-4.png,s,0,0.3391551000531763,h,1,0.04240979999303818,0.0475088000530377,0.04844839998986572,0.10051810008008033,0.09968620003201067,0.7495871999999508
RSVPLG03,cs,20260306-114526,1.0.2,20251105-084826,794,Experiment,Both,1,Automatic,main,94,20260306-115403,global,local,750,H,H,E,A,H-E.png,A-H.png,hH,hH,mask-3.png,mask-3.png,h,1,0.3335298999445513,h,1,0.10105850000400096,0.047594200004823506,0.0464782000053674,0.10062929999548942,0.09937389998231083,0.7505379000212997
RSVPLG03,cs,20260306-114526,1.0.2,20251105-084826,794,Experiment,Both,1,Automatic,main,95,20260306-115407,local,local,750,H,S,E,A,E-H.png,A-S.png,hH,sS,mask-1.png,mask-3.png,h,1,0.26497460005339235,s,1,0.043158499989658594,0.04873470007441938,0.04751260008197278,0.10085909999907017,0.09964710008352995,0.7511338000185788
RSVPLG03,cs,20260306-114526,1.0.2,20251105-084826,794,Experiment,Both,1,Automatic,main,96,20260306-115412,local,global,300,H,H,E,A,E-H.png,H-A.png,hH,hH,mask-4.png,mask-3.png,h,1,0.42060239997226745,s,0,0.12003590003587306,0.04592110007070005,0.047723299940116704,0.09925940004177392,0.09992029995191842,0.29984860005788505
RSVPLG03,cs,20260306-114526,1.0.2,20251105-084826,794,Experiment,Both,1,Automatic,main,97,20260306-115416,local,global,300,H,S,E,A,E-H.png,S-A.png,hH,sS,mask-2.png,mask-4.png,h,1,0.3719712001038715,s,1,0.04492349992506206,0.048557400004938245,0.04722859989851713,0.10056779999285936,0.1002188998972997,0.30074710003100336
RSVPLG03,cs,20260306-114526,1.0.2,20251105-084826,794,Experiment,Both,1,Automatic,main,98,20260306-115420,global,local,750,H,H,E,A,H-E.png,A-H.png,hH,hH,mask-1.png,mask-2.png,h,1,0.4297042000107467,h,1,0.08374099992215633,0.04782629990950227,0.04743309994228184,0.10006219998467714,0.09878010000102222,0.7505313999718055
RSVPLG03,cs,20260306-114526,1.0.2,20251105-084826,794,Experiment,Both,1,Automatic,main,99,20260306-115425,local,local,750,H,H,A,E,A-H.png,E-H.png,hH,hH,mask-1.png,mask-1.png,h,1,0.4911530000390485,h,1,0.10481439996510744,0.04672260000370443,0.047743799979798496,0.10025160002987832,0.09993329993449152,0.7513729000929743
RSVPLG03,cs,20260306-114526,1.0.2,20251105-084826,794,Experiment,Both,1,Automatic,main,100,20260306-115430,global,global,750,S,H,A,E,S-A.png,H-E.png,sS,hH,mask-1.png,mask-2.png,s,1,0.3317213000264019,h,1,0.021352199953980744,0.048774799914099276,0.04768819990567863,0.10197969991713762,0.09988349990453571,0.7511637000134215
