exp,exp_initials,runtime,ver,modtime,sub,blocktype,targets,cuetype,mode,trialtype,trial,trialtime,t1_level,t2_level,t2_lag,t1,t2,distractor1,distractor2,stimfile1,stimfile2,t1_corr,t2_corr,maskfile1,maskfile2,t1_resp,t1_acc,t1_rt,t2_resp,t2_acc,t2_rt,t1_dur,t2_dur,t1mask_soa,t2mask_soa,t1t2_soa
RSVPLG03,sg,20260310-150704,1.0.2,20251105-084826,799,Introduction,T1,1,Automatic,main,1,20260310-150742,global,local,750,S,S,E,A,S-E.png,A-S.png,sS,sS,mask-2.png,mask-1.png,s,1,2.3991390999872237,none,-5,0,0.09411880001425743,0.09635340003296733,0.19663370004855096,0.19922540010884404,0.7471600000280887
RSVPLG03,sg,20260310-150704,1.0.2,20251105-084826,799,Introduction,T1,1,Automatic,main,2,20260310-150749,local,global,750,H,H,E,E,E-H.png,H-E.png,hH,hH,mask-3.png,mask-3.png,h,1,2.756360299885273,none,-5,0,0.0967596999835223,0.09756159991957247,0.1999636001419276,0.19956219987943769,0.7496627001091838
RSVPLG03,sg,20260310-150704,1.0.2,20251105-084826,799,Introduction,T1,1,Automatic,main,3,20260310-150756,global,local,750,H,S,E,A,H-E.png,A-S.png,hH,sS,mask-3.png,mask-4.png,h,1,1.2278762001078576,none,-5,0,0.09960959991440177,0.09878830006346107,0.2009342999663204,0.19904959993436933,0.7508264000061899
RSVPLG03,sg,20260310-150704,1.0.2,20251105-084826,799,Introduction,T1,1,Automatic,main,4,20260310-150801,global,global,750,S,S,A,E,S-A.png,S-E.png,sS,sS,mask-2.png,mask-3.png,s,1,0.8022521999664605,none,-5,0,0.09840659983456135,0.0963228999171406,0.20012719999067485,0.1995562999509275,0.7506595000158995
RSVPLG03,sg,20260310-150704,1.0.2,20251105-084826,799,Introduction,T1,1,Automatic,main,5,20260310-150806,global,global,750,S,S,E,E,S-E.png,S-E.png,sS,sS,mask-3.png,mask-2.png,s,1,0.7823449999559671,none,-5,0,0.0986733001191169,0.09724429994821548,0.20167400012724102,0.19911179994232953,0.751070500118658
RSVPLG03,sg,20260310-150704,1.0.2,20251105-084826,799,Introduction,T1,1,Automatic,main,6,20260310-150811,global,global,750,S,H,E,A,S-E.png,H-A.png,sS,hH,mask-1.png,mask-4.png,s,1,0.5213351999409497,none,-5,0,0.09687580005265772,0.09737069997936487,0.19879380008205771,0.19831250002607703,0.7507044000085443
RSVPLG03,sg,20260310-150704,1.0.2,20251105-084826,799,Introduction,T1,1,Automatic,main,7,20260310-150816,local,local,750,H,S,E,A,E-H.png,A-S.png,hH,sS,mask-1.png,mask-3.png,s,0,1.0025712000206113,none,-5,0,0.09758050017990172,0.09675120003521442,0.20145370019599795,0.20172100001946092,0.7501297001726925
RSVPLG03,sg,20260310-150704,1.0.2,20251105-084826,799,Introduction,T1,1,Automatic,main,8,20260310-150821,local,local,750,H,S,E,A,E-H.png,A-S.png,hH,sS,mask-2.png,mask-4.png,s,0,1.788157699862495,none,-5,0,0.09765449981205165,0.09679040010087192,0.20052369986660779,0.1987608999479562,0.7516991999000311
RSVPLG03,sg,20260310-150704,1.0.2,20251105-084826,799,Introduction,T1,1,Automatic,main,9,20260310-150827,local,global,750,S,S,E,E,E-S.png,S-E.png,sS,sS,mask-2.png,mask-1.png,s,1,2.310611200053245,none,-5,0,0.09635260002687573,0.09738269983790815,0.20023650000803173,0.1980477999895811,0.7503420000430197
RSVPLG03,sg,20260310-150704,1.0.2,20251105-084826,799,Introduction,T1,1,Automatic,main,10,20260310-150834,global,global,750,S,H,A,E,S-A.png,H-E.png,sS,hH,mask-3.png,mask-1.png,s,1,1.0483766000252217,none,-5,0,0.09840429993346334,0.09741630009375513,0.20026029995642602,0.1983382001053542,0.7508745999075472
RSVPLG03,sg,20260310-150704,1.0.2,20251105-084826,799,Introduction,T1,1,Automatic,main,11,20260310-150839,local,global,750,S,H,E,E,E-S.png,H-E.png,sS,hH,mask-1.png,mask-3.png,h,0,2.0837503999937326,none,-5,0,0.0973715998698026,0.09731000009924173,0.20022949995473027,0.20016760006546974,0.7498283998575062
RSVPLG03,sg,20260310-150704,1.0.2,20251105-084826,799,Introduction,T1,1,Automatic,main,12,20260310-150845,local,global,750,S,H,A,E,A-S.png,H-E.png,sS,hH,mask-3.png,mask-1.png,s,1,0.8749503998551518,none,-5,0,0.09735880000516772,0.09753430006094277,0.19872869993560016,0.19941340014338493,0.7498831998091191
RSVPLG03,sg,20260310-150704,1.0.2,20251105-084826,799,Introduction,T1,1,Automatic,main,13,20260310-150850,global,local,750,H,H,A,A,H-A.png,A-H.png,hH,hH,mask-4.png,mask-2.png,h,1,1.1041409999597818,none,-5,0,0.0969213000498712,0.09739229991100729,0.19902170007117093,0.20045039989054203,0.7492190001066774
RSVPLG03,sg,20260310-150704,1.0.2,20251105-084826,799,Introduction,T1,1,Automatic,main,14,20260310-150855,local,local,750,H,S,E,A,E-H.png,A-S.png,hH,sS,mask-1.png,mask-4.png,s,0,0.961685299873352,none,-5,0,0.09737790003418922,0.09604530013166368,0.2004879000596702,0.1997559000737965,0.7501336999703199
RSVPLG03,sg,20260310-150704,1.0.2,20251105-084826,799,Introduction,T1,1,Automatic,main,15,20260310-150901,global,local,750,S,H,E,E,S-E.png,E-H.png,sS,hH,mask-2.png,mask-2.png,s,1,0.739393699914217,none,-5,0,0.09754640003666282,0.09752720012329519,0.1996648998465389,0.20042840018868446,0.7495988998562098
RSVPLG03,sg,20260310-150704,1.0.2,20251105-084826,799,Introduction,T1,1,Automatic,main,16,20260310-150905,local,local,750,H,H,A,E,A-H.png,E-H.png,hH,hH,mask-1.png,mask-1.png,h,1,1.1572375998366624,none,-5,0,0.09751780005171895,0.09736139979213476,0.1986758999992162,0.20010689995251596,0.750084700062871
RSVPLG03,sg,20260310-151016,1.0.2,20251105-084826,799,Practice,T1,1,Automatic,main,1,20260310-151035,global,local,300,H,H,A,E,H-A.png,E-H.png,hH,hH,mask-4.png,mask-4.png,s,0,0.9569339998997748,none,-5,0,0.040862999856472015,0.04661469999700785,0.09300559991970658,0.09906399995088577,0.2935373999644071
RSVPLG03,sg,20260310-151016,1.0.2,20251105-084826,799,Practice,T1,1,Automatic,main,2,20260310-151040,global,global,300,H,H,E,E,H-E.png,H-E.png,hH,hH,mask-4.png,mask-4.png,h,1,1.1145466000307351,none,-5,0,0.04775280016474426,0.04780499986372888,0.10055029997602105,0.1008154998999089,0.29999530012719333
RSVPLG03,sg,20260310-151016,1.0.2,20251105-084826,799,Practice,T1,1,Automatic,main,3,20260310-151044,local,global,750,S,H,E,E,E-S.png,H-E.png,sS,hH,mask-2.png,mask-2.png,s,1,0.518548300024122,none,-5,0,0.04787680017761886,0.048392900032922626,0.09906220017001033,0.10025550005957484,0.748500700108707
RSVPLG03,sg,20260310-151016,1.0.2,20251105-084826,799,Practice,T1,1,Automatic,main,4,20260310-151049,global,local,300,S,S,A,A,S-A.png,A-S.png,sS,sS,mask-4.png,mask-3.png,h,0,1.031619899906218,none,-5,0,0.04765819991007447,0.047481700079515576,0.10040919994935393,0.09967210004106164,0.300289899809286
RSVPLG03,sg,20260310-151016,1.0.2,20251105-084826,799,Practice,T1,1,Automatic,main,5,20260310-151053,global,global,750,S,H,E,E,S-E.png,H-E.png,sS,hH,mask-2.png,mask-2.png,s,1,1.2958050000015646,none,-5,0,0.048607399920001626,0.04823899990878999,0.10082599986344576,0.10024959989823401,0.7481637999881059
RSVPLG03,sg,20260310-151016,1.0.2,20251105-084826,799,Practice,T1,1,Automatic,main,6,20260310-151059,local,local,750,H,H,E,A,E-H.png,A-H.png,hH,hH,mask-3.png,mask-1.png,h,1,0.7996171999257058,none,-5,0,0.04775219992734492,0.04754750011488795,0.1003916000481695,0.10058590001426637,0.7483876999467611
RSVPLG03,sg,20260310-151016,1.0.2,20251105-084826,799,Practice,T1,1,Automatic,main,7,20260310-151104,global,local,750,S,S,E,E,S-E.png,E-S.png,sS,sS,mask-3.png,mask-4.png,s,1,0.4044941000174731,none,-5,0,0.04589219996705651,0.04866069997660816,0.09796849987469614,0.10071190004236996,0.7479872999247164
RSVPLG03,sg,20260310-151016,1.0.2,20251105-084826,799,Practice,T1,1,Automatic,main,8,20260310-151108,global,global,300,S,S,E,A,S-E.png,S-A.png,sS,sS,mask-4.png,mask-2.png,s,1,0.35865209996700287,none,-5,0,0.047105600126087666,0.048375500133261085,0.09811339993029833,0.09943070006556809,0.29876699997112155
RSVPLG03,sg,20260310-151016,1.0.2,20251105-084826,799,Practice,T1,1,Automatic,main,9,20260310-151112,global,local,750,H,H,A,A,H-A.png,A-H.png,hH,hH,mask-4.png,mask-3.png,h,1,0.7497423000168055,none,-5,0,0.04670489998534322,0.047594300005584955,0.0996622999664396,0.0996169000864029,0.7484005999285728
RSVPLG03,sg,20260310-151016,1.0.2,20251105-084826,799,Practice,T1,1,Automatic,main,10,20260310-151117,local,local,750,H,S,E,A,E-H.png,A-S.png,hH,sS,mask-1.png,mask-2.png,s,0,0.8357198999729007,none,-5,0,0.047358799958601594,0.04653739999048412,0.10009730001911521,0.09850459988228977,0.750561699969694
RSVPLG03,sg,20260310-151016,1.0.2,20251105-084826,799,Practice,T1,1,Automatic,main,11,20260310-151122,local,global,300,H,H,A,E,A-H.png,H-E.png,hH,hH,mask-3.png,mask-3.png,h,1,1.0376206000801176,none,-5,0,0.047425299882888794,0.045841600047424436,0.09842459997162223,0.09876920003443956,0.2991551999002695
RSVPLG03,sg,20260310-151016,1.0.2,20251105-084826,799,Practice,T1,1,Automatic,main,12,20260310-151126,local,global,300,S,S,A,E,A-S.png,S-E.png,sS,sS,mask-1.png,mask-2.png,s,1,0.7466424000449479,none,-5,0,0.04835609998553991,0.047514500096440315,0.10076060006394982,0.09893550002016127,0.3010978000238538
RSVPLG03,sg,20260310-151016,1.0.2,20251105-084826,799,Practice,T1,1,Automatic,main,13,20260310-151130,global,global,750,H,S,A,A,H-A.png,S-A.png,hH,sS,mask-4.png,mask-3.png,h,1,0.8530801997985691,none,-5,0,0.04741669981740415,0.04638159996829927,0.09955689986236393,0.0981208998709917,0.7499142999295145
RSVPLG03,sg,20260310-151016,1.0.2,20251105-084826,799,Practice,T1,1,Automatic,main,14,20260310-151135,local,local,300,S,S,A,A,A-S.png,A-S.png,sS,sS,mask-3.png,mask-1.png,s,1,0.6760778999887407,none,-5,0,0.04750510002486408,0.04742439999245107,0.09935569996014237,0.09935609996318817,0.2994452000129968
RSVPLG03,sg,20260310-151016,1.0.2,20251105-084826,799,Practice,T1,1,Automatic,main,15,20260310-151139,local,global,750,S,S,A,A,A-S.png,S-A.png,sS,sS,mask-2.png,mask-1.png,s,1,0.900784500176087,none,-5,0,0.04752300004474819,0.04831660003401339,0.10052120010368526,0.09913370013237,0.7502071000635624
RSVPLG03,sg,20260310-151016,1.0.2,20251105-084826,799,Practice,T1,1,Automatic,main,16,20260310-151144,local,local,300,S,S,E,A,E-S.png,A-S.png,sS,sS,mask-3.png,mask-3.png,s,1,0.38691210001707077,none,-5,0,0.04748499998822808,0.047537799924612045,0.10149689996615052,0.10052850004285574,0.29951669997535646
RSVPLG03,sg,20260310-151021,1.0.2,20251105-084826,799,Introduction,Both,1,Automatic,main,1,20260310-151342,local,local,750,S,H,A,E,A-S.png,E-H.png,sS,hH,mask-2.png,mask-3.png,h,0,1.2758201998658478,h,1,1.7340770999435335,0.09649809985421598,0.096174499951303,0.2016185000538826,0.19858670001849532,0.7519797999411821
RSVPLG03,sg,20260310-151021,1.0.2,20251105-084826,799,Introduction,Both,1,Automatic,main,2,20260310-151349,local,local,750,S,H,E,E,E-S.png,E-H.png,sS,hH,mask-1.png,mask-4.png,s,1,1.2527167999651283,h,1,1.998363499995321,0.09615490003488958,0.09760500001721084,0.2002191999927163,0.19958989997394383,0.7505193999968469
RSVPLG03,sg,20260310-151021,1.0.2,20251105-084826,799,Introduction,Both,1,Automatic,main,3,20260310-151357,local,global,750,H,H,A,E,A-H.png,H-E.png,hH,hH,mask-1.png,mask-1.png,h,1,1.8657187998760492,h,1,0.31873070006258786,0.09634020016528666,0.09651300008408725,0.20007949997670949,0.1982372000347823,0.7520461999811232
RSVPLG03,sg,20260310-151021,1.0.2,20251105-084826,799,Introduction,Both,1,Automatic,main,4,20260310-151403,local,global,750,H,S,E,A,E-H.png,S-A.png,hH,sS,mask-2.png,mask-3.png,h,1,1.982514699921012,h,0,0.12096059997566044,0.09648779989220202,0.09668589988723397,0.20038079982623458,0.19964469992555678,0.7507090999279171
RSVPLG03,sg,20260310-151021,1.0.2,20251105-084826,799,Introduction,Both,1,Automatic,main,5,20260310-151410,global,local,750,S,H,A,A,S-A.png,A-H.png,sS,hH,mask-1.png,mask-3.png,s,1,1.2897423999384046,h,1,0.02099730004556477,0.09738569986075163,0.09760469989851117,0.20043780002743006,0.20052119996398687,0.7510818999726325
RSVPLG03,sg,20260310-151021,1.0.2,20251105-084826,799,Introduction,Both,1,Automatic,main,6,20260310-151415,local,global,750,H,H,A,A,A-H.png,H-A.png,hH,hH,mask-2.png,mask-1.png,h,1,1.9394970000721514,s,0,0.15623349999077618,0.09828619984909892,0.09662810014560819,0.2001199999358505,0.2007401001174003,0.7506805998273194
RSVPLG03,sg,20260310-151021,1.0.2,20251105-084826,799,Introduction,Both,1,Automatic,main,7,20260310-151422,global,global,750,H,S,A,A,H-A.png,S-A.png,hH,sS,mask-2.png,mask-4.png,h,1,1.7690527001395822,s,1,0.05198049987666309,0.095329400151968,0.09725939994677901,0.1994046000763774,0.19960699998773634,0.7502063000574708
RSVPLG03,sg,20260310-151021,1.0.2,20251105-084826,799,Introduction,Both,1,Automatic,main,8,20260310-151428,global,local,750,H,S,A,A,H-A.png,A-S.png,hH,sS,mask-2.png,mask-4.png,h,1,0.6689346998464316,s,1,0.02712209988385439,0.09565929998643696,0.09767430019564927,0.19947790005244315,0.20051990007050335,0.7501356999855489
RSVPLG03,sg,20260310-151021,1.0.2,20251105-084826,799,Introduction,Both,1,Automatic,main,9,20260310-151433,local,local,750,S,H,A,A,A-S.png,A-H.png,sS,hH,mask-4.png,mask-1.png,s,1,1.055388200096786,h,1,0.005897799972444773,0.0952341000083834,0.0973006000276655,0.20062589994631708,0.20041489996947348,0.7499857998918742
RSVPLG03,sg,20260310-151021,1.0.2,20251105-084826,799,Introduction,Both,1,Automatic,main,10,20260310-151438,global,global,750,H,H,A,A,H-A.png,H-A.png,hH,hH,mask-3.png,mask-1.png,h,1,1.155351100023836,h,1,0.10818700003437698,0.09757600002922118,0.0953721001278609,0.199320700019598,0.1985059001017362,0.7510992998722941
RSVPLG03,sg,20260310-151021,1.0.2,20251105-084826,799,Introduction,Both,1,Automatic,main,11,20260310-151444,global,local,750,S,H,E,A,S-E.png,A-H.png,sS,hH,mask-1.png,mask-1.png,s,1,0.9472320999484509,h,1,0.024660600116476417,0.09658310003578663,0.09768659994006157,0.19955740007571876,0.1995335000101477,0.7499077999964356
RSVPLG03,sg,20260310-151021,1.0.2,20251105-084826,799,Introduction,Both,1,Automatic,main,12,20260310-151449,global,global,750,S,H,E,A,S-E.png,H-A.png,sS,hH,mask-2.png,mask-2.png,s,1,1.0342979000415653,h,1,0.005409299861639738,0.09531780006363988,0.09759000013582408,0.19933860003948212,0.2005464001558721,0.7499400000087917
RSVPLG03,sg,20260310-151021,1.0.2,20251105-084826,799,Introduction,Both,1,Automatic,main,13,20260310-151454,local,global,750,H,H,A,E,A-H.png,H-E.png,hH,hH,mask-2.png,mask-3.png,h,1,0.938890099991113,h,1,0.08641549991443753,0.0963777001015842,0.09743439988233149,0.20166600006632507,0.19940389995463192,0.7509475001133978
RSVPLG03,sg,20260310-151021,1.0.2,20251105-084826,799,Introduction,Both,1,Automatic,main,14,20260310-151459,global,local,750,H,S,E,A,H-E.png,A-S.png,hH,sS,mask-2.png,mask-4.png,h,1,1.0653675999492407,s,1,1.177527799969539,0.09632109990343451,0.09636670001782477,0.20051009999588132,0.20033419993706048,0.750189800048247
RSVPLG03,sg,20260310-151021,1.0.2,20251105-084826,799,Introduction,Both,1,Automatic,main,15,20260310-151505,local,local,750,H,H,A,E,A-H.png,E-H.png,hH,hH,mask-3.png,mask-4.png,h,1,0.6034667000640184,h,1,0.059817800065502524,0.09774080011993647,0.09554830007255077,0.20059940009377897,0.1991095000412315,0.7523596999235451
RSVPLG03,sg,20260310-151021,1.0.2,20251105-084826,799,Introduction,Both,1,Automatic,main,16,20260310-151510,global,global,750,S,S,A,A,S-A.png,S-A.png,sS,sS,mask-3.png,mask-3.png,s,1,0.9528709999285638,s,1,0.04050959995947778,0.09743660013191402,0.09751350013539195,0.20133770001120865,0.19893780001439154,0.7511613999959081
RSVPLG03,sg,20260310-151555,1.0.2,20251105-084826,799,Practice,Both,1,Automatic,main,1,20260310-151613,local,global,750,S,H,A,E,A-S.png,H-E.png,sS,hH,mask-4.png,mask-1.png,s,1,0.7332832000683993,h,1,0.010302599985152483,0.03980700019747019,0.04767169989645481,0.09323390014469624,0.10086889984086156,0.7417477001436055
RSVPLG03,sg,20260310-151555,1.0.2,20251105-084826,799,Practice,Both,1,Automatic,main,2,20260310-151618,local,local,300,H,H,E,A,E-H.png,A-H.png,hH,hH,mask-2.png,mask-1.png,s,0,0.7905690998304635,h,1,0.01123189995996654,0.04569939989596605,0.046798599883913994,0.09912710008211434,0.10025070002302527,0.29889219999313354
RSVPLG03,sg,20260310-151555,1.0.2,20251105-084826,799,Practice,Both,1,Automatic,main,3,20260310-151622,local,local,300,H,H,A,A,A-H.png,A-H.png,hH,hH,mask-2.png,mask-3.png,h,1,1.282060599885881,s,0,0.02213070006109774,0.047650699969381094,0.0469756000675261,0.09822879987768829,0.09804400010034442,0.30048409989103675
RSVPLG03,sg,20260310-151555,1.0.2,20251105-084826,799,Practice,Both,1,Automatic,main,4,20260310-151627,local,global,750,S,S,A,A,A-S.png,S-A.png,sS,sS,mask-3.png,mask-1.png,s,1,1.1825887998566031,s,1,0.05133799999020994,0.04558459995314479,0.048539600102230906,0.09896729979664087,0.09962400002405047,0.7482107998803258
RSVPLG03,sg,20260310-151555,1.0.2,20251105-084826,799,Practice,Both,1,Automatic,main,5,20260310-151633,global,global,750,S,H,E,A,S-E.png,H-A.png,sS,hH,mask-1.png,mask-3.png,s,1,1.1142418999224901,s,0,0.04861790011636913,0.04767400003038347,0.04870659997686744,0.10095130000263453,0.10073000006377697,0.7494250999297947
RSVPLG03,sg,20260310-151555,1.0.2,20251105-084826,799,Practice,Both,1,Automatic,main,6,20260310-151638,global,local,750,H,S,A,E,H-A.png,E-S.png,hH,sS,mask-4.png,mask-3.png,h,1,1.5742469001561403,s,1,1.65471879998222,0.04566770000383258,0.04767020000144839,0.09894189983606339,0.09979430004023015,0.7479544999077916
RSVPLG03,sg,20260310-151555,1.0.2,20251105-084826,799,Practice,Both,1,Automatic,main,7,20260310-151644,global,local,300,S,S,E,A,S-E.png,A-S.png,sS,sS,mask-2.png,mask-1.png,s,1,1.12724669999443,h,0,0.029164700070396066,0.04692390002310276,0.04882030002772808,0.09900980000384152,0.09986990015022457,0.2991504999808967
RSVPLG03,sg,20260310-151555,1.0.2,20251105-084826,799,Practice,Both,1,Automatic,main,8,20260310-151648,global,local,300,S,S,E,E,S-E.png,E-S.png,sS,sS,mask-4.png,mask-1.png,s,1,0.9502880000509322,h,0,0.06530119990929961,0.04783100006170571,0.04764629993587732,0.10097779985517263,0.0996909998357296,0.30083490000106394
RSVPLG03,sg,20260310-151555,1.0.2,20251105-084826,799,Practice,Both,1,Automatic,main,9,20260310-151653,local,global,300,S,H,A,E,A-S.png,H-E.png,sS,hH,mask-4.png,mask-3.png,s,1,0.750709000043571,h,1,1.2471467000432312,0.047727799974381924,0.0487166999373585,0.10103859985247254,0.09932189993560314,0.29969049990177155
RSVPLG03,sg,20260310-151555,1.0.2,20251105-084826,799,Practice,Both,1,Automatic,main,10,20260310-151659,local,global,300,S,S,E,A,E-S.png,S-A.png,sS,sS,mask-2.png,mask-2.png,s,1,0.5635387001093477,h,0,0.003969700075685978,0.046976299956440926,0.04738610005006194,0.09985370002686977,0.1012709999922663,0.3003273999784142
RSVPLG03,sg,20260310-151555,1.0.2,20251105-084826,799,Practice,Both,1,Automatic,main,11,20260310-151703,global,global,300,H,S,A,A,H-A.png,S-A.png,hH,sS,mask-3.png,mask-4.png,s,0,0.7654773001559079,s,1,0.05953489989042282,0.045727299991995096,0.046828299993649125,0.09990209992974997,0.10054189991205931,0.2983778000343591
RSVPLG03,sg,20260310-151555,1.0.2,20251105-084826,799,Practice,Both,1,Automatic,main,12,20260310-151708,global,global,750,H,S,E,A,H-E.png,S-A.png,hH,sS,mask-1.png,mask-2.png,h,1,0.842525300104171,s,1,0.9707251000218093,0.047353999922052026,0.04741419991478324,0.10088629997335374,0.09860550006851554,0.7506891000084579
RSVPLG03,sg,20260310-151555,1.0.2,20251105-084826,799,Practice,Both,1,Automatic,main,13,20260310-151712,local,local,750,H,S,A,A,A-H.png,A-S.png,hH,sS,mask-1.png,mask-4.png,h,1,1.060526099987328,s,1,1.0161367999389768,0.04731500009074807,0.04861860000528395,0.10036320006474853,0.0994185998570174,0.7485744000878185
RSVPLG03,sg,20260310-151555,1.0.2,20251105-084826,799,Practice,Both,1,Automatic,main,14,20260310-151719,local,local,750,H,S,A,E,A-H.png,E-S.png,hH,sS,mask-1.png,mask-3.png,h,1,1.6325305001810193,s,1,0.9240019998978823,0.048529099905863404,0.04759059986099601,0.09965629992075264,0.09955939999781549,0.7497384001035243
RSVPLG03,sg,20260310-151555,1.0.2,20251105-084826,799,Practice,Both,1,Automatic,main,15,20260310-151725,global,local,750,H,H,A,E,H-A.png,E-H.png,hH,hH,mask-1.png,mask-1.png,h,1,0.6759828000795096,s,0,0.630440799985081,0.04575779987499118,0.04774209996685386,0.09843209991231561,0.09967139991931617,0.7479308999609202
RSVPLG03,sg,20260310-151555,1.0.2,20251105-084826,799,Practice,Both,1,Automatic,main,16,20260310-151731,global,global,300,H,H,E,E,H-E.png,H-E.png,hH,hH,mask-1.png,mask-1.png,h,1,1.0476112999022007,s,0,0.17347789998166263,0.047791500110179186,0.04797299997881055,0.10014949995093048,0.10123299993574619,0.2991025000810623
RSVPLG03,sg,20260310-151759,1.0.2,20251105-084826,799,Practice,Both,1,Automatic,main,1,20260310-151833,global,global,300,S,H,E,A,S-E.png,H-A.png,sS,hH,mask-2.png,mask-1.png,h,0,1.802917799912393,s,0,0.7310935000423342,0.040341699961572886,0.048577999928966165,0.09285359992645681,0.10064659989438951,0.29306040005758405
RSVPLG03,sg,20260310-151759,1.0.2,20251105-084826,799,Practice,Both,1,Automatic,main,2,20260310-151839,local,global,750,H,S,E,A,E-H.png,S-A.png,hH,sS,mask-2.png,mask-3.png,h,1,1.123735300032422,h,0,0.06355019984766841,0.0474592000246048,0.04747009999118745,0.10070349997840822,0.09933230001479387,0.752135899849236
RSVPLG03,sg,20260310-151759,1.0.2,20251105-084826,799,Practice,Both,1,Automatic,main,3,20260310-151845,global,global,750,H,S,E,A,H-E.png,S-A.png,hH,sS,mask-4.png,mask-2.png,h,1,0.8857102000620216,s,1,1.0302707999944687,0.04658579989336431,0.048643099842593074,0.09959100000560284,0.09991479991003871,0.749937100103125
RSVPLG03,sg,20260310-151759,1.0.2,20251105-084826,799,Practice,Both,1,Automatic,main,4,20260310-151850,global,local,300,H,H,E,E,H-E.png,E-H.png,hH,hH,mask-4.png,mask-1.png,h,1,1.067738699959591,s,0,1.196051900042221,0.04787520016543567,0.047490600030869246,0.10100230015814304,0.10046190000139177,0.3008055000100285
RSVPLG03,sg,20260310-151759,1.0.2,20251105-084826,799,Practice,Both,1,Automatic,main,5,20260310-151855,local,local,750,S,S,E,E,E-S.png,E-S.png,sS,sS,mask-3.png,mask-3.png,s,1,0.8138302001170814,s,1,0.10770110017620027,0.04583469987846911,0.04674569983035326,0.09968560002744198,0.09829039988107979,0.7506051000673324
RSVPLG03,sg,20260310-151759,1.0.2,20251105-084826,799,Practice,Both,1,Automatic,main,6,20260310-151900,local,global,750,S,S,E,A,E-S.png,S-A.png,sS,sS,mask-2.png,mask-3.png,s,1,1.284627800108865,h,0,0.5556344999931753,0.04589200019836426,0.047498200088739395,0.09917390020564198,0.09950030012987554,0.7498965000268072
RSVPLG03,sg,20260310-151759,1.0.2,20251105-084826,799,Practice,Both,1,Automatic,main,7,20260310-151906,global,local,750,H,S,E,E,H-E.png,E-S.png,hH,sS,mask-1.png,mask-4.png,h,1,1.264515500050038,h,0,0.12378459982573986,0.04751780000515282,0.04865140002220869,0.0999499000608921,0.10062390007078648,0.7501789000816643
RSVPLG03,sg,20260310-151759,1.0.2,20251105-084826,799,Practice,Both,1,Automatic,main,8,20260310-151911,local,global,300,S,H,E,E,E-S.png,H-E.png,sS,hH,mask-2.png,mask-4.png,s,1,1.9070856999605894,h,1,2.0668864001054317,0.04753109999001026,0.048523199977353215,0.10054100002162158,0.1009551000315696,0.2990119999740273
RSVPLG03,sg,20260310-151759,1.0.2,20251105-084826,799,Practice,Both,1,Automatic,main,9,20260310-151917,global,local,750,S,H,E,E,S-E.png,E-H.png,sS,hH,mask-2.png,mask-2.png,s,1,1.1257907999679446,h,1,1.3019966001156718,0.045674500055611134,0.04840610013343394,0.09817330003716052,0.09929329995065928,0.7495639000553638
RSVPLG03,sg,20260310-151759,1.0.2,20251105-084826,799,Practice,Both,1,Automatic,main,10,20260310-151922,local,global,300,H,H,A,A,A-H.png,H-A.png,hH,hH,mask-2.png,mask-4.png,h,1,1.1864402999635786,s,0,0.09689279994927347,0.04776520002633333,0.04879570007324219,0.09995570010505617,0.10097230016253889,0.29883019998669624
RSVPLG03,sg,20260310-151759,1.0.2,20251105-084826,799,Practice,Both,1,Automatic,main,11,20260310-151928,global,local,300,H,S,E,A,H-E.png,A-S.png,hH,sS,mask-2.png,mask-1.png,h,1,1.1343109998852015,s,1,0.40704840002581477,0.04767589992843568,0.04838439985178411,0.09986379998736084,0.10127929993905127,0.2991086000110954
RSVPLG03,sg,20260310-151759,1.0.2,20251105-084826,799,Practice,Both,1,Automatic,main,12,20260310-151933,local,local,300,H,H,A,E,A-H.png,E-H.png,hH,hH,mask-2.png,mask-3.png,h,1,1.1249281999189407,s,0,0.2113342999946326,0.046884399838745594,0.04757270007394254,0.09938179980963469,0.1010266998782754,0.3010388999246061
RSVPLG03,sg,20260310-151759,1.0.2,20251105-084826,799,Practice,Both,1,Automatic,main,13,20260310-151938,global,global,300,S,S,E,E,S-E.png,S-E.png,sS,sS,mask-4.png,mask-2.png,s,1,3.434242900228128,s,1,0.11876059998758137,0.04647679999470711,0.04682399984449148,0.09906979999504983,0.10005099978297949,0.30036700004711747
RSVPLG03,sg,20260310-151759,1.0.2,20251105-084826,799,Practice,Both,1,Automatic,main,14,20260310-151945,local,local,750,S,H,A,A,A-S.png,A-H.png,sS,hH,mask-3.png,mask-4.png,s,1,1.0726922999601811,h,1,0.10705260001122952,0.04758500005118549,0.04768240009434521,0.09979090001434088,0.10091749997809529,0.7492158999666572
RSVPLG03,sg,20260310-151759,1.0.2,20251105-084826,799,Practice,Both,1,Automatic,main,15,20260310-151951,local,local,300,S,H,E,A,E-S.png,A-H.png,sS,hH,mask-4.png,mask-4.png,s,1,0.8593840000685304,h,1,0.12059820001013577,0.04677719995379448,0.047503900015726686,0.1001895999070257,0.10065859998576343,0.2999690999276936
RSVPLG03,sg,20260310-151759,1.0.2,20251105-084826,799,Practice,Both,1,Automatic,main,16,20260310-151956,global,global,750,S,S,A,A,S-A.png,S-A.png,sS,sS,mask-3.png,mask-3.png,s,1,0.9033325000200421,s,1,0.19618019997142255,0.04655100009404123,0.04756229999475181,0.09855160000734031,0.09978049993515015,0.7498562000691891
RSVPLG03,sg,20260310-152031,1.0.2,20251105-084826,799,Practice,Both,1,Automatic,main,1,20260310-152047,local,global,750,S,S,E,E,E-S.png,S-E.png,sS,sS,mask-3.png,mask-4.png,s,1,0.8916255999356508,s,1,0.26331910002045333,0.04021969996392727,0.046089099952951074,0.09413730003871024,0.09931660001166165,0.7424443999771029
RSVPLG03,sg,20260310-152031,1.0.2,20251105-084826,799,Practice,Both,1,Automatic,main,2,20260310-152052,local,local,300,S,H,A,A,A-S.png,A-H.png,sS,hH,mask-4.png,mask-2.png,s,1,0.6845245000440627,h,1,0.42450970015488565,0.04608680005185306,0.047455100109800696,0.10059819999150932,0.10061719990335405,0.29912000009790063
RSVPLG03,sg,20260310-152031,1.0.2,20251105-084826,799,Practice,Both,1,Automatic,main,3,20260310-152057,local,global,300,S,H,A,E,A-S.png,H-E.png,sS,hH,mask-4.png,mask-3.png,s,1,1.0501087999437004,h,1,0.3212063000537455,0.04765140009112656,0.046526100020855665,0.0996828000061214,0.09953240002505481,0.30008379998616874
RSVPLG03,sg,20260310-152031,1.0.2,20251105-084826,799,Practice,Both,1,Automatic,main,4,20260310-152103,global,global,300,S,S,E,E,S-E.png,S-E.png,sS,sS,mask-3.png,mask-2.png,s,1,1.1713175000622869,h,0,0.22025960008613765,0.04767400003038347,0.04767840006388724,0.09986079996451735,0.0989125999622047,0.30004579992964864
RSVPLG03,sg,20260310-152031,1.0.2,20251105-084826,799,Practice,Both,1,Automatic,main,5,20260310-152108,global,local,750,H,S,A,E,H-A.png,E-S.png,hH,sS,mask-3.png,mask-4.png,h,1,2.645232600159943,s,1,0.12411859980784357,0.046856499975547194,0.0483424998819828,0.0997496999334544,0.10112489992752671,0.7479338999837637
RSVPLG03,sg,20260310-152031,1.0.2,20251105-084826,799,Practice,Both,1,Automatic,main,6,20260310-152115,global,local,300,H,H,A,E,H-A.png,E-H.png,hH,hH,mask-4.png,mask-2.png,h,1,1.086803900077939,s,0,0.06642520008608699,0.04744719993323088,0.04499769979156554,0.09918859996832907,0.09934499999508262,0.2997672001365572
RSVPLG03,sg,20260310-152031,1.0.2,20251105-084826,799,Practice,Both,1,Automatic,main,7,20260310-152120,global,local,300,S,H,E,E,S-E.png,E-H.png,sS,hH,mask-2.png,mask-1.png,h,0,1.592689000070095,h,1,0.11741299997083843,0.046773500042036176,0.047529200091958046,0.10073850001208484,0.09968650015071034,0.29890789999626577
RSVPLG03,sg,20260310-152031,1.0.2,20251105-084826,799,Practice,Both,1,Automatic,main,8,20260310-152125,global,global,300,H,H,E,A,H-E.png,H-A.png,hH,hH,mask-3.png,mask-3.png,s,0,1.4451035999227315,h,1,0.12354279984720051,0.047650800086557865,0.04850289993919432,0.09966860013082623,0.10064120008610189,0.29851510003209114
RSVPLG03,sg,20260310-152031,1.0.2,20251105-084826,799,Practice,Both,1,Automatic,main,9,20260310-152131,local,global,300,H,H,E,E,E-H.png,H-E.png,hH,hH,mask-4.png,mask-4.png,s,0,1.230045400094241,h,1,0.010125699918717146,0.04573270003311336,0.0478558000177145,0.09889969998039305,0.10007479996420443,0.29789209994487464
RSVPLG03,sg,20260310-152031,1.0.2,20251105-084826,799,Practice,Both,1,Automatic,main,10,20260310-152136,local,local,750,S,H,E,E,E-S.png,E-H.png,sS,hH,mask-3.png,mask-1.png,s,1,0.683472900185734,h,1,0.0714368000626564,0.046578200068324804,0.0466835000552237,0.09914800012484193,0.09886169992387295,0.7494077000301331
RSVPLG03,sg,20260310-152031,1.0.2,20251105-084826,799,Practice,Both,1,Automatic,main,11,20260310-152141,local,local,750,H,H,E,A,E-H.png,A-H.png,hH,hH,mask-3.png,mask-3.png,h,1,0.9119838001206517,s,0,0.06160819996148348,0.04768710001371801,0.046789399813860655,0.09987499983981252,0.09897699998691678,0.7485927999950945
RSVPLG03,sg,20260310-152031,1.0.2,20251105-084826,799,Practice,Both,1,Automatic,main,12,20260310-152146,global,local,750,S,S,E,A,S-E.png,A-S.png,sS,sS,mask-4.png,mask-4.png,s,1,1.5956890999805182,s,1,0.14738950016908348,0.04769509984180331,0.04668039991520345,0.09983399999327958,0.0987841000314802,0.7491794999223202
RSVPLG03,sg,20260310-152031,1.0.2,20251105-084826,799,Practice,Both,1,Automatic,main,13,20260310-152152,global,global,750,H,S,E,A,H-E.png,S-A.png,hH,sS,mask-3.png,mask-2.png,h,1,2.623499399982393,h,0,0.18252260005101562,0.04866240010596812,0.047463899943977594,0.0998596001882106,0.09963650000281632,0.7483880000654608
RSVPLG03,sg,20260310-152031,1.0.2,20251105-084826,799,Practice,Both,1,Automatic,main,14,20260310-152200,local,local,300,H,S,E,A,E-H.png,A-S.png,hH,sS,mask-4.png,mask-4.png,h,1,1.0434412998147309,s,1,0.47523170011118054,0.048002999974414706,0.04768289998173714,0.10035790014080703,0.09895230014808476,0.29964919993653893
RSVPLG03,sg,20260310-152031,1.0.2,20251105-084826,799,Practice,Both,1,Automatic,main,15,20260310-152205,local,global,750,S,H,E,A,E-S.png,H-A.png,sS,hH,mask-3.png,mask-3.png,s,1,1.0225677001290023,h,1,0.1334019999485463,0.04626690014265478,0.04685580008663237,0.10035310010425746,0.10095990006811917,0.7471588000189513
RSVPLG03,sg,20260310-152031,1.0.2,20251105-084826,799,Practice,Both,1,Automatic,main,16,20260310-152210,global,global,750,S,S,E,A,S-E.png,S-A.png,sS,sS,mask-4.png,mask-4.png,s,1,0.9106852998957038,s,1,0.1719239999074489,0.04762060008943081,0.047669799998402596,0.09971190011128783,0.10049379989504814,0.7479261001572013
RSVPLG03,sg,20260310-152428,1.0.2,20251105-084826,799,Experiment,Both,1,Automatic,warmup,1,20260310-152448,global,global,300,S,S,E,A,S-E.png,S-A.png,sS,sS,mask-3.png,mask-2.png,h,0,1.0102371000684798,s,1,1.1540934999939054,0.04007379990071058,0.046480200020596385,0.092725700000301,0.1006471998989582,0.29452649992890656
RSVPLG03,sg,20260310-152428,1.0.2,20251105-084826,799,Experiment,Both,1,Automatic,warmup,2,20260310-152453,local,global,300,H,H,E,E,E-H.png,H-E.png,hH,hH,mask-2.png,mask-2.png,h,1,0.9984750999137759,s,0,0.15093100001104176,0.04708279995247722,0.04755739984102547,0.10021129995584488,0.10046519991010427,0.30060479999519885
RSVPLG03,sg,20260310-152428,1.0.2,20251105-084826,799,Experiment,Both,1,Automatic,warmup,3,20260310-152458,global,local,300,S,S,A,E,S-A.png,E-S.png,sS,sS,mask-3.png,mask-4.png,s,1,1.428018500097096,s,1,0.17329119984060526,0.04750019987113774,0.046686100075021386,0.09968480002135038,0.09996789996512234,0.30129839992150664
RSVPLG03,sg,20260310-152428,1.0.2,20251105-084826,799,Experiment,Both,1,Automatic,warmup,4,20260310-152504,local,local,300,S,H,A,E,A-S.png,E-H.png,sS,hH,mask-1.png,mask-1.png,s,1,1.1688027000054717,h,1,0.14110670005902648,0.047654900001361966,0.04655219987034798,0.10186739987693727,0.09977660002186894,0.30213259998708963
RSVPLG03,sg,20260310-152428,1.0.2,20251105-084826,799,Experiment,Both,1,Automatic,main,5,20260310-152509,local,global,750,H,S,E,E,E-H.png,S-E.png,hH,sS,mask-2.png,mask-1.png,h,1,1.125915199983865,s,1,0.24998970003798604,0.046666499925777316,0.04750569979660213,0.09985569980926812,0.09961139992810786,0.7524290999863297
RSVPLG03,sg,20260310-152428,1.0.2,20251105-084826,799,Experiment,Both,1,Automatic,main,6,20260310-152515,local,local,300,H,H,A,E,A-H.png,E-H.png,hH,hH,mask-3.png,mask-3.png,h,1,1.046751300105825,s,0,0.7125738000031561,0.048555999994277954,0.047561399871483445,0.1016155001707375,0.09924990008585155,0.30294040008448064
RSVPLG03,sg,20260310-152428,1.0.2,20251105-084826,799,Experiment,Both,1,Automatic,main,7,20260310-152520,global,local,300,S,H,A,E,S-A.png,E-H.png,sS,hH,mask-2.png,mask-2.png,s,1,1.5364530000369996,h,1,0.06442169984802604,0.04675210011191666,0.047780599910765886,0.0999080000910908,0.10008809994906187,0.2995100000407547
RSVPLG03,sg,20260310-152428,1.0.2,20251105-084826,799,Experiment,Both,1,Automatic,main,8,20260310-152526,global,global,750,H,S,E,E,H-E.png,S-E.png,hH,sS,mask-3.png,mask-4.png,h,1,1.1112631000578403,s,1,0.16322579979896545,0.0487788999453187,0.04766019992530346,0.10190409980714321,0.09949759999290109,0.7537632999010384
RSVPLG03,sg,20260310-152428,1.0.2,20251105-084826,799,Experiment,Both,1,Automatic,main,9,20260310-152532,global,local,750,H,H,A,E,H-A.png,E-H.png,hH,hH,mask-3.png,mask-2.png,h,1,0.6587271001189947,h,1,0.1491936999373138,0.04666769993491471,0.04855690011754632,0.10040130000561476,0.10082789999432862,0.7524838999379426
RSVPLG03,sg,20260310-152428,1.0.2,20251105-084826,799,Experiment,Both,1,Automatic,main,10,20260310-152537,global,local,750,S,S,A,E,S-A.png,E-S.png,sS,sS,mask-4.png,mask-2.png,s,1,0.917361400090158,s,1,0.17031760001555085,0.04680379992350936,0.046392699936404824,0.10024359985254705,0.09863759996369481,0.7535734998527914
RSVPLG03,sg,20260310-152428,1.0.2,20251105-084826,799,Experiment,Both,1,Automatic,main,11,20260310-152542,global,global,750,H,S,E,A,H-E.png,S-A.png,hH,sS,mask-2.png,mask-3.png,h,1,1.1161823999136686,s,1,0.15599110000766814,0.0477696000598371,0.047039000084623694,0.09919640002772212,0.10018589999526739,0.7528743001166731
RSVPLG03,sg,20260310-152428,1.0.2,20251105-084826,799,Experiment,Both,1,Automatic,main,12,20260310-152548,global,global,750,S,S,A,E,S-A.png,S-E.png,sS,sS,mask-4.png,mask-1.png,s,1,1.0684130999725312,h,0,0.17093700007535517,0.04913470009341836,0.04768109996803105,0.10121019999496639,0.10090709989890456,0.7531662001274526
RSVPLG03,sg,20260310-152428,1.0.2,20251105-084826,799,Experiment,Both,1,Automatic,main,13,20260310-152553,global,global,750,S,S,A,E,S-A.png,S-E.png,sS,sS,mask-1.png,mask-4.png,s,1,1.3934891000390053,s,1,0.19284559995867312,0.04782859981060028,0.04787030001170933,0.10087819979526103,0.1001615000423044,0.753228799905628
RSVPLG03,sg,20260310-152428,1.0.2,20251105-084826,799,Experiment,Both,1,Automatic,main,14,20260310-152559,local,global,300,S,H,E,A,E-S.png,H-A.png,sS,hH,mask-4.png,mask-2.png,s,1,0.8454567999579012,h,1,0.07577220001257956,0.047733499901369214,0.04881409998051822,0.1003509999718517,0.1010071998462081,0.3004224000032991
RSVPLG03,sg,20260310-152428,1.0.2,20251105-084826,799,Experiment,Both,1,Automatic,main,15,20260310-152604,global,local,750,H,H,E,A,H-E.png,A-H.png,hH,hH,mask-4.png,mask-4.png,h,1,1.025609100004658,h,1,0.11713290004990995,0.04757619998417795,0.047671299893409014,0.0994963999837637,0.10099159996025264,0.7515285001136363
RSVPLG03,sg,20260310-152428,1.0.2,20251105-084826,799,Experiment,Both,1,Automatic,main,16,20260310-152609,local,global,750,H,S,A,E,A-H.png,S-E.png,hH,sS,mask-1.png,mask-3.png,h,1,1.1158535000868142,s,1,0.15220410004258156,0.04751059995032847,0.04769559996202588,0.09938699984923005,0.10190810007043183,0.7519069998525083
RSVPLG03,sg,20260310-152428,1.0.2,20251105-084826,799,Experiment,Both,1,Automatic,main,17,20260310-152615,local,global,750,S,H,E,E,E-S.png,H-E.png,sS,hH,mask-4.png,mask-3.png,s,1,1.0636410000734031,h,1,0.12181160016916692,0.0466650000307709,0.04779240000061691,0.09971949993632734,0.10124400001950562,0.7519982999656349
RSVPLG03,sg,20260310-152428,1.0.2,20251105-084826,799,Experiment,Both,1,Automatic,main,18,20260310-152620,local,local,300,H,S,A,E,A-H.png,E-S.png,hH,sS,mask-3.png,mask-2.png,h,1,1.4464550998527557,s,1,0.08393970015458763,0.048477499978616834,0.04756950004957616,0.10031780018471181,0.09896410000510514,0.30122620007023215
RSVPLG03,sg,20260310-152428,1.0.2,20251105-084826,799,Experiment,Both,1,Automatic,main,19,20260310-152626,global,local,300,H,S,A,E,H-A.png,E-S.png,hH,sS,mask-1.png,mask-1.png,h,1,1.0445299001876265,s,1,0.09000799991190434,0.04765710001811385,0.04846139997243881,0.09975469997152686,0.09969029994681478,0.3001490000169724
RSVPLG03,sg,20260310-152428,1.0.2,20251105-084826,799,Experiment,Both,1,Automatic,main,20,20260310-152631,local,global,300,S,S,E,A,E-S.png,S-A.png,sS,sS,mask-4.png,mask-1.png,s,1,1.0560986998025328,s,1,0.1452324001584202,0.04651400004513562,0.047733600018545985,0.09856449998915195,0.09893260011449456,0.3008669000118971
RSVPLG03,sg,20260310-152428,1.0.2,20251105-084826,799,Experiment,Both,1,Automatic,main,21,20260310-152636,local,local,300,S,S,E,A,E-S.png,A-S.png,sS,sS,mask-1.png,mask-4.png,s,1,1.0698789998423308,h,0,0.15071860002353787,0.046650700038298965,0.04767200001515448,0.09891250007785857,0.09970670007169247,0.30062250001356006
RSVPLG03,sg,20260310-152428,1.0.2,20251105-084826,799,Experiment,Both,1,Automatic,main,22,20260310-152641,local,local,300,H,H,E,A,E-H.png,A-H.png,hH,hH,mask-3.png,mask-1.png,h,1,0.9827886000275612,h,1,0.13862200011499226,0.04668959998525679,0.04770060000009835,0.09968759980984032,0.10087830014526844,0.30063149984925985
RSVPLG03,sg,20260310-152428,1.0.2,20251105-084826,799,Experiment,Both,1,Automatic,main,23,20260310-152646,local,local,300,H,S,E,A,E-H.png,A-S.png,hH,sS,mask-3.png,mask-4.png,h,1,1.3888193001039326,s,1,0.11891909991391003,0.04767870018258691,0.048812099965289235,0.10021629999391735,0.10102690011262894,0.3001079000532627
RSVPLG03,sg,20260310-152428,1.0.2,20251105-084826,799,Experiment,Both,1,Automatic,main,24,20260310-152651,local,local,300,H,H,E,A,E-H.png,A-H.png,hH,hH,mask-4.png,mask-3.png,h,1,0.871537100058049,h,1,0.10110490000806749,0.0476687999907881,0.04795309994369745,0.09958490007556975,0.10104330000467598,0.30043540010228753
RSVPLG03,sg,20260310-152428,1.0.2,20251105-084826,799,Experiment,Both,1,Automatic,main,25,20260310-152656,local,local,750,S,H,A,A,A-S.png,A-H.png,sS,hH,mask-3.png,mask-3.png,h,0,0.8372122999280691,s,0,0.7465294001158327,0.047236999962478876,0.04777089995332062,0.099156100070104,0.09924479993060231,0.7527018000837415
RSVPLG03,sg,20260310-152428,1.0.2,20251105-084826,799,Experiment,Both,1,Automatic,main,26,20260310-152708,global,global,300,S,H,A,E,S-A.png,H-E.png,sS,hH,mask-3.png,mask-4.png,s,1,1.40863800002262,h,1,0.090180299943313,0.04779159999452531,0.04866799991577864,0.10004730010405183,0.10089570004492998,0.30171200004406273
RSVPLG03,sg,20260310-152428,1.0.2,20251105-084826,799,Experiment,Both,1,Automatic,main,27,20260310-152714,global,local,750,S,H,E,A,S-E.png,A-H.png,sS,hH,mask-3.png,mask-1.png,s,1,0.9059073999524117,h,1,0.9982143000233918,0.04669760004617274,0.047741300193592906,0.1010642999317497,0.10025390004739165,0.7515101998578757
RSVPLG03,sg,20260310-152428,1.0.2,20251105-084826,799,Experiment,Both,1,Automatic,main,28,20260310-152720,local,global,750,H,H,A,E,A-H.png,H-E.png,hH,hH,mask-2.png,mask-3.png,h,1,0.9661512000020593,h,1,0.13820980000309646,0.04754089983180165,0.04850680008530617,0.09954599989578128,0.10060500004328787,0.7524289998691529
RSVPLG03,sg,20260310-152428,1.0.2,20251105-084826,799,Experiment,Both,1,Automatic,main,29,20260310-152725,global,global,300,S,S,E,E,S-E.png,S-E.png,sS,sS,mask-1.png,mask-2.png,s,1,1.7359319999814034,h,0,0.7307724999263883,0.047689300030469894,0.04889190010726452,0.10188400000333786,0.10107089998200536,0.30071209999732673
RSVPLG03,sg,20260310-152428,1.0.2,20251105-084826,799,Experiment,Both,1,Automatic,main,30,20260310-152732,local,local,750,S,H,A,A,A-S.png,A-H.png,sS,hH,mask-2.png,mask-3.png,s,1,0.8100000999402255,h,1,0.14057540008798242,0.047673999797552824,0.049813800025731325,0.09997669979929924,0.10100920009426773,0.7512629998382181
RSVPLG03,sg,20260310-152428,1.0.2,20251105-084826,799,Experiment,Both,1,Automatic,main,31,20260310-152737,global,local,750,S,S,E,A,S-E.png,A-S.png,sS,sS,mask-2.png,mask-1.png,s,1,0.8184877000749111,h,0,0.1210387998726219,0.04868549993261695,0.04657110013067722,0.10086010000668466,0.10099080018699169,0.7540302998386323
RSVPLG03,sg,20260310-152428,1.0.2,20251105-084826,799,Experiment,Both,1,Automatic,main,32,20260310-152742,global,global,300,H,H,A,A,H-A.png,H-A.png,hH,hH,mask-4.png,mask-2.png,h,1,0.8704427001066506,h,1,0.12337370007298887,0.047550000017508864,0.04749739984981716,0.09873709990642965,0.10068879998289049,0.30043830000795424
RSVPLG03,sg,20260310-152428,1.0.2,20251105-084826,799,Experiment,Both,1,Automatic,main,33,20260310-152747,local,local,750,S,S,A,A,A-S.png,A-S.png,sS,sS,mask-4.png,mask-2.png,s,1,0.743092600023374,s,1,0.14535779994912446,0.048192800022661686,0.04699639999307692,0.10028090002015233,0.10016930010169744,0.7528979000635445
RSVPLG03,sg,20260310-152428,1.0.2,20251105-084826,799,Experiment,Both,1,Automatic,main,34,20260310-152752,global,local,750,H,H,E,A,H-E.png,A-H.png,hH,hH,mask-3.png,mask-3.png,h,1,0.693004900123924,h,1,0.13387839985080063,0.04663909994997084,0.04782489989884198,0.0996826000045985,0.10002480004914105,0.7521571000106633
RSVPLG03,sg,20260310-152428,1.0.2,20251105-084826,799,Experiment,Both,1,Automatic,main,35,20260310-152757,global,global,750,H,S,E,E,H-E.png,S-E.png,hH,sS,mask-1.png,mask-1.png,h,1,0.847495699999854,s,1,0.06911879987455904,0.04872209997847676,0.047527699964120984,0.10099130007438362,0.10038439999334514,0.7534193000756204
RSVPLG03,sg,20260310-152428,1.0.2,20251105-084826,799,Experiment,Both,1,Automatic,main,36,20260310-152802,local,local,750,H,H,E,A,E-H.png,A-H.png,hH,hH,mask-4.png,mask-4.png,h,1,0.5913454000838101,h,1,0.1221051998436451,0.04971479997038841,0.047546999994665384,0.10133159998804331,0.09942770004272461,0.7536524999886751
RSVPLG03,sg,20260310-152428,1.0.2,20251105-084826,799,Experiment,Both,1,Automatic,main,37,20260310-152807,global,global,300,S,S,A,A,S-A.png,S-A.png,sS,sS,mask-1.png,mask-2.png,s,1,0.8259526998735964,s,1,0.10953509993851185,0.04754240019246936,0.04694800009019673,0.09955620020627975,0.09880080004222691,0.3018388000782579
RSVPLG03,sg,20260310-152428,1.0.2,20251105-084826,799,Experiment,Both,1,Automatic,main,38,20260310-152812,global,global,300,S,S,E,A,S-E.png,S-A.png,sS,sS,mask-2.png,mask-3.png,s,1,1.3818538000341505,h,0,0.15309529984369874,0.04856600007042289,0.04646939993835986,0.10059499996714294,0.09852869994938374,0.3026618000585586
RSVPLG03,sg,20260310-152428,1.0.2,20251105-084826,799,Experiment,Both,1,Automatic,main,39,20260310-152818,local,local,300,S,H,A,E,A-S.png,E-H.png,sS,hH,mask-3.png,mask-1.png,s,1,1.290420699864626,h,1,0.12551199994049966,0.04767100000753999,0.047419599955901504,0.09992649988271296,0.10024659987539053,0.299572000047192
RSVPLG03,sg,20260310-152428,1.0.2,20251105-084826,799,Experiment,Both,1,Automatic,main,40,20260310-152823,local,global,750,H,S,A,A,A-H.png,S-A.png,hH,sS,mask-2.png,mask-2.png,h,1,0.6753963001538068,s,1,0.24161139992065728,0.047588499961420894,0.04891350003890693,0.10001830011606216,0.1009736000560224,0.7515348000451922
RSVPLG03,sg,20260310-152428,1.0.2,20251105-084826,799,Experiment,Both,1,Automatic,main,41,20260310-152828,local,local,750,H,S,A,E,A-H.png,E-S.png,hH,sS,mask-4.png,mask-1.png,h,1,0.7145078000612557,s,1,0.21937969978898764,0.04762139986269176,0.04786319984123111,0.09961190004833043,0.101255799876526,0.7515873999800533
RSVPLG03,sg,20260310-152428,1.0.2,20251105-084826,799,Experiment,Both,1,Automatic,main,42,20260310-152833,local,global,300,H,H,E,E,E-H.png,H-E.png,hH,hH,mask-2.png,mask-3.png,h,1,0.9370077999774367,h,1,0.11446129996329546,0.04767180001363158,0.048666900023818016,0.09954409999772906,0.09998339996673167,0.2999828001484275
RSVPLG03,sg,20260310-152428,1.0.2,20251105-084826,799,Experiment,Both,1,Automatic,main,43,20260310-152838,local,global,750,S,H,A,A,A-S.png,H-A.png,sS,hH,mask-2.png,mask-4.png,s,1,0.47566069988533854,h,1,0.2024523001164198,0.047683600103482604,0.04752220003865659,0.09989800001494586,0.10152860009111464,0.7521130999084562
RSVPLG03,sg,20260310-152428,1.0.2,20251105-084826,799,Experiment,Both,1,Automatic,main,44,20260310-152843,local,global,750,S,H,A,E,A-S.png,H-E.png,sS,hH,mask-2.png,mask-1.png,s,1,0.5354976002126932,h,1,0.2037012001965195,0.047495099948719144,0.04748370009474456,0.09996460005640984,0.10174409998580813,0.7518471998628229
RSVPLG03,sg,20260310-152428,1.0.2,20251105-084826,799,Experiment,Both,1,Automatic,main,45,20260310-152849,global,local,750,S,H,E,A,S-E.png,A-H.png,sS,hH,mask-1.png,mask-4.png,s,1,0.692300499882549,h,1,0.07519529992714524,0.046313000144436955,0.04756689979694784,0.09922620002180338,0.10046809981577098,0.7520678001455963
RSVPLG03,sg,20260310-152428,1.0.2,20251105-084826,799,Experiment,Both,1,Automatic,main,46,20260310-152854,global,global,300,S,H,E,A,S-E.png,H-A.png,sS,hH,mask-2.png,mask-2.png,s,1,0.7866474001202732,h,1,0.07424229988828301,0.04572440008632839,0.04872010019607842,0.09900419996120036,0.10001980001106858,0.2997409999370575
RSVPLG03,sg,20260310-152428,1.0.2,20251105-084826,799,Experiment,Both,1,Automatic,main,47,20260310-152859,global,local,300,S,S,E,A,S-E.png,A-S.png,sS,sS,mask-3.png,mask-1.png,s,1,0.46420669998042285,h,0,0.08833099994808435,0.047337899915874004,0.04900979995727539,0.09890889981761575,0.10014560003764927,0.3002623999491334
RSVPLG03,sg,20260310-152428,1.0.2,20251105-084826,799,Experiment,Both,1,Automatic,main,48,20260310-152903,local,local,750,H,S,E,E,E-H.png,E-S.png,hH,sS,mask-1.png,mask-3.png,h,1,0.9652625999879092,h,0,0.11266399989835918,0.04750590003095567,0.04756990005262196,0.09968389989808202,0.09963089996017516,0.7523741000331938
RSVPLG03,sg,20260310-152428,1.0.2,20251105-084826,799,Experiment,Both,1,Automatic,main,49,20260310-152908,global,local,300,S,H,A,A,S-A.png,A-H.png,sS,hH,mask-3.png,mask-4.png,s,1,0.7509065999183804,s,0,0.1451940000988543,0.04768259986303747,0.046845899894833565,0.09982010000385344,0.09964519995264709,0.3014901999849826
RSVPLG03,sg,20260310-152428,1.0.2,20251105-084826,799,Experiment,Both,1,Automatic,main,50,20260310-152913,global,global,300,S,S,A,E,S-A.png,S-E.png,sS,sS,mask-3.png,mask-3.png,s,1,0.7924098998773843,s,1,0.07088909996673465,0.04706640006043017,0.04773289989680052,0.10038949991576374,0.10188390011899173,0.3001298999879509
RSVPLG03,sg,20260310-152428,1.0.2,20251105-084826,799,Experiment,Both,1,Automatic,main,51,20260310-152922,global,global,300,S,S,E,A,S-E.png,S-A.png,sS,sS,mask-2.png,mask-3.png,h,0,0.7483107000589371,s,1,0.020344400079920888,0.04663949995301664,0.0478368999902159,0.09971460001543164,0.09909750008955598,0.3014302998781204
RSVPLG03,sg,20260310-152428,1.0.2,20251105-084826,799,Experiment,Both,1,Automatic,main,52,20260310-152926,global,global,750,H,S,E,E,H-E.png,S-E.png,hH,sS,mask-3.png,mask-2.png,h,1,1.253648999845609,h,0,0.28874200000427663,0.04853260004892945,0.048852300038561225,0.10086000012233853,0.10105390008538961,0.7533547000493854
RSVPLG03,sg,20260310-152428,1.0.2,20251105-084826,799,Experiment,Both,1,Automatic,main,53,20260310-152932,global,local,750,S,H,A,E,S-A.png,E-H.png,sS,hH,mask-1.png,mask-2.png,s,1,0.8107328000478446,h,1,0.5384797998704016,0.0477830998133868,0.047699599992483854,0.10122209996916354,0.09994420013390481,0.7537981998175383
RSVPLG03,sg,20260310-152428,1.0.2,20251105-084826,799,Experiment,Both,1,Automatic,main,54,20260310-152938,local,global,750,H,H,A,A,A-H.png,H-A.png,hH,hH,mask-2.png,mask-2.png,h,1,0.7287800000049174,h,1,0.13752699992619455,0.04786910000257194,0.04625160014256835,0.10001110006123781,0.09943960001692176,0.7526473000179976
RSVPLG03,sg,20260310-152428,1.0.2,20251105-084826,799,Experiment,Both,1,Automatic,main,55,20260310-152943,global,local,300,S,H,E,E,S-E.png,E-H.png,sS,hH,mask-4.png,mask-1.png,s,1,1.2763383998535573,h,1,0.10424889996647835,0.04673009994439781,0.04958599992096424,0.09990140004083514,0.10060029989108443,0.2998142000287771
RSVPLG03,sg,20260310-152428,1.0.2,20251105-084826,799,Experiment,Both,1,Automatic,main,56,20260310-152948,global,global,300,H,S,E,A,H-E.png,S-A.png,hH,sS,mask-4.png,mask-2.png,h,1,1.2243572999723256,s,1,0.07106520002707839,0.047745499992743134,0.04861190007068217,0.09968940005637705,0.10162089997902513,0.30043779988773167
RSVPLG03,sg,20260310-152428,1.0.2,20251105-084826,799,Experiment,Both,1,Automatic,main,57,20260310-152953,local,local,750,S,S,A,E,A-S.png,E-S.png,sS,sS,mask-2.png,mask-4.png,s,1,0.5853806999512017,s,1,0.11113759991712868,0.04767909995280206,0.048473000060766935,0.09879880002699792,0.10154050006531179,0.7514029999729246
RSVPLG03,sg,20260310-152428,1.0.2,20251105-084826,799,Experiment,Both,1,Automatic,main,58,20260310-152958,global,local,750,S,S,A,A,S-A.png,A-S.png,sS,sS,mask-2.png,mask-3.png,s,1,0.5311467000283301,s,1,0.08820140012539923,0.04751070006750524,0.04767449991777539,0.10055690002627671,0.09982810006476939,0.7522936000023037
RSVPLG03,sg,20260310-152428,1.0.2,20251105-084826,799,Experiment,Both,1,Automatic,main,59,20260310-153003,global,local,300,H,S,A,A,H-A.png,A-S.png,hH,sS,mask-2.png,mask-2.png,h,1,0.603669699979946,h,0,0.2751326998695731,0.047545199980959296,0.04762760014273226,0.10000069998204708,0.10061449999921024,0.30104759987443686
RSVPLG03,sg,20260310-152428,1.0.2,20251105-084826,799,Experiment,Both,1,Automatic,main,60,20260310-153008,local,local,750,S,H,E,A,E-S.png,A-H.png,sS,hH,mask-4.png,mask-3.png,s,1,1.9312480001244694,s,0,0.06888249982148409,0.04900099989026785,0.04757030005566776,0.10212709987536073,0.09978149994276464,0.7544388000387698
RSVPLG03,sg,20260310-152428,1.0.2,20251105-084826,799,Experiment,Both,1,Automatic,main,61,20260310-153015,local,local,300,H,H,A,E,A-H.png,E-H.png,hH,hH,mask-2.png,mask-1.png,h,1,0.6670371000654995,s,0,0.025653299875557423,0.04677719995379448,0.04776069987565279,0.10091469995677471,0.10248099989257753,0.3003130001015961
RSVPLG03,sg,20260310-152428,1.0.2,20251105-084826,799,Experiment,Both,1,Automatic,main,62,20260310-153020,global,local,750,S,S,E,A,S-E.png,A-S.png,sS,sS,mask-4.png,mask-1.png,s,1,0.8878309999126941,s,1,0.1539832998532802,0.04671810008585453,0.04752960009500384,0.10075540002435446,0.10155400005169213,0.75227089994587
RSVPLG03,sg,20260310-152428,1.0.2,20251105-084826,799,Experiment,Both,1,Automatic,main,63,20260310-153025,global,local,300,S,S,E,A,S-E.png,A-S.png,sS,sS,mask-4.png,mask-4.png,s,1,0.9170952998101711,s,1,0.21690150001086295,0.048541400115936995,0.04648520005866885,0.10039210016839206,0.10010110004805028,0.3017160000745207
RSVPLG03,sg,20260310-152428,1.0.2,20251105-084826,799,Experiment,Both,1,Automatic,main,64,20260310-153030,global,global,750,S,S,E,A,S-E.png,S-A.png,sS,sS,mask-1.png,mask-1.png,s,1,1.1635715998709202,h,0,1.1122914000879973,0.047775200102478266,0.04850810021162033,0.09925310011021793,0.1005776000674814,0.7522680999245495
RSVPLG03,sg,20260310-152428,1.0.2,20251105-084826,799,Experiment,Both,1,Automatic,main,65,20260310-153036,local,local,300,S,H,A,E,A-S.png,E-H.png,sS,hH,mask-3.png,mask-2.png,s,1,1.8568269999232143,h,1,0.2794938001316041,0.04798909998498857,0.04760160017758608,0.0994963999837637,0.10110420011915267,0.3013245998881757
RSVPLG03,sg,20260310-152428,1.0.2,20251105-084826,799,Experiment,Both,1,Automatic,main,66,20260310-153042,global,local,300,S,H,A,A,S-A.png,A-H.png,sS,hH,mask-2.png,mask-2.png,s,1,1.7336727001238614,h,1,0.8230071999132633,0.046505700098350644,0.04727079998701811,0.09851870010606945,0.09946650010533631,0.3008626999799162
RSVPLG03,sg,20260310-152428,1.0.2,20251105-084826,799,Experiment,Both,1,Automatic,main,67,20260310-153048,local,global,300,H,H,A,E,A-H.png,H-E.png,hH,hH,mask-4.png,mask-1.png,h,1,0.06964800017885864,h,1,1.1223913000430912,0.04737889999523759,0.04695219988934696,0.09930420015007257,0.10101109999231994,0.30094970017671585
RSVPLG03,sg,20260310-152428,1.0.2,20251105-084826,799,Experiment,Both,1,Automatic,main,68,20260310-153053,global,local,300,S,H,A,E,S-A.png,E-H.png,sS,hH,mask-4.png,mask-2.png,h,0,0.12360629998147488,h,1,1.1183354000095278,0.047862800071015954,0.04757099994458258,0.10011709993705153,0.1007540998980403,0.3014430000912398
RSVPLG03,sg,20260310-152428,1.0.2,20251105-084826,799,Experiment,Both,1,Automatic,main,69,20260310-153058,global,global,750,H,H,E,A,H-E.png,H-A.png,hH,hH,mask-2.png,mask-2.png,h,1,0.17213189997710288,h,1,0.9026074998546392,0.04716760013252497,0.04871720005758107,0.10137449996545911,0.09993149992078543,0.7530968000646681
RSVPLG03,sg,20260310-152428,1.0.2,20251105-084826,799,Experiment,Both,1,Automatic,main,70,20260310-153103,global,global,750,H,S,A,A,H-A.png,S-A.png,hH,sS,mask-1.png,mask-1.png,h,1,0.10666060005314648,h,0,1.224513900000602,0.04758649994619191,0.04757570009678602,0.10060869995504618,0.10162200010381639,0.752612299984321
RSVPLG03,sg,20260310-152428,1.0.2,20251105-084826,799,Experiment,Both,1,Automatic,main,71,20260310-153109,global,local,300,H,H,A,A,H-A.png,A-H.png,hH,hH,mask-1.png,mask-3.png,h,1,0.10778629989363253,h,1,1.2362063000909984,0.04712549992837012,0.04818339995108545,0.09934130008332431,0.10028079990297556,0.3012969000265002
RSVPLG03,sg,20260310-152428,1.0.2,20251105-084826,799,Experiment,Both,1,Automatic,main,72,20260310-153114,local,local,300,H,H,A,A,A-H.png,A-H.png,hH,hH,mask-3.png,mask-4.png,h,1,0.09329809993505478,h,1,0.6469278000295162,0.04788849991746247,0.04884600010700524,0.10120169981382787,0.10064530000090599,0.3015794998500496
RSVPLG03,sg,20260310-152428,1.0.2,20251105-084826,799,Experiment,Both,1,Automatic,main,73,20260310-153118,local,global,300,H,S,A,E,A-H.png,S-E.png,hH,sS,mask-2.png,mask-3.png,h,1,0.07434559985995293,s,1,0.005263300146907568,0.04865760006941855,0.048201699974015355,0.10064049996435642,0.10104399989359081,0.30093570007011294
RSVPLG03,sg,20260310-152428,1.0.2,20251105-084826,799,Experiment,Both,1,Automatic,main,74,20260310-153123,local,local,750,S,H,E,A,E-S.png,A-H.png,sS,hH,mask-3.png,mask-1.png,s,1,0.8392664999701083,h,1,0.7194310000631958,0.04879720020107925,0.04772859998047352,0.10068300017155707,0.09991590003482997,0.7534423000179231
RSVPLG03,sg,20260310-152428,1.0.2,20251105-084826,799,Experiment,Both,1,Automatic,main,75,20260310-153128,local,global,750,S,H,E,A,E-S.png,H-A.png,sS,hH,mask-2.png,mask-1.png,s,1,0.8243540001567453,s,0,0.21813499997369945,0.048554399982094765,0.047677099937573075,0.10053709987550974,0.10006650001741946,0.7533346998970956
RSVPLG03,sg,20260310-152428,1.0.2,20251105-084826,799,Experiment,Both,1,Automatic,main,76,20260310-153146,local,global,300,S,S,E,E,E-S.png,S-E.png,sS,sS,mask-1.png,mask-2.png,s,1,0.6652956998441368,h,0,13.578011200064793,0.04751299996860325,0.04769519995898008,0.09963349997997284,0.0998655001167208,0.30108130001462996
RSVPLG03,sg,20260310-152428,1.0.2,20251105-084826,799,Experiment,Both,1,Automatic,main,77,20260310-153151,local,local,750,S,H,E,A,E-S.png,A-H.png,sS,hH,mask-1.png,mask-4.png,s,1,0.8795894999057055,h,1,0.6296041999012232,0.04798800009302795,0.04700809996575117,0.10126790008507669,0.1005725001450628,0.7532011000439525
RSVPLG03,sg,20260310-152428,1.0.2,20251105-084826,799,Experiment,Both,1,Automatic,main,78,20260310-153156,global,global,300,S,S,A,A,S-A.png,S-A.png,sS,sS,mask-3.png,mask-2.png,s,1,0.9386311999987811,h,0,0.23413809994235635,0.04670319985598326,0.04613809986039996,0.10014749993570149,0.09921859996393323,0.3018028000369668
RSVPLG03,sg,20260310-152428,1.0.2,20251105-084826,799,Experiment,Both,1,Automatic,main,79,20260310-153201,global,local,750,H,H,E,A,H-E.png,A-H.png,hH,hH,mask-4.png,mask-2.png,h,1,0.29591960017569363,h,1,0.8689384001772851,0.04766620020382106,0.04688729997724295,0.10012270021252334,0.09919710014946759,0.7529388000257313
RSVPLG03,sg,20260310-152428,1.0.2,20251105-084826,799,Experiment,Both,1,Automatic,main,80,20260310-153207,global,global,300,S,H,E,A,S-E.png,H-A.png,sS,hH,mask-2.png,mask-3.png,s,1,1.8080516001209617,h,1,0.22263529989868402,0.04804120003245771,0.0485018000472337,0.10059120017103851,0.10071859997697175,0.30131260002963245
RSVPLG03,sg,20260310-152428,1.0.2,20251105-084826,799,Experiment,Both,1,Automatic,main,81,20260310-153212,local,local,300,H,S,E,A,E-H.png,A-S.png,hH,sS,mask-4.png,mask-4.png,h,1,0.9480220000259578,s,1,0.12546089990064502,0.04855239996686578,0.04837669990956783,0.101251499960199,0.10139669990167022,0.3018626000266522
RSVPLG03,sg,20260310-152428,1.0.2,20251105-084826,799,Experiment,Both,1,Automatic,main,82,20260310-153217,global,global,750,H,S,A,E,H-A.png,S-E.png,hH,sS,mask-3.png,mask-1.png,h,1,0.9483762001618743,s,1,0.13340989989228547,0.045915599912405014,0.048621000023558736,0.09897930012084544,0.1000568000599742,0.751517100026831
RSVPLG03,sg,20260310-152428,1.0.2,20251105-084826,799,Experiment,Both,1,Automatic,main,83,20260310-153223,local,global,300,H,H,A,E,A-H.png,H-E.png,hH,hH,mask-1.png,mask-2.png,h,1,1.0562458999920636,h,1,0.09092120011337101,0.04749869997613132,0.047484599985182285,0.10071819997392595,0.0982708998490125,0.3020687000826001
RSVPLG03,sg,20260310-152428,1.0.2,20251105-084826,799,Experiment,Both,1,Automatic,main,84,20260310-153228,global,global,750,H,S,A,A,H-A.png,S-A.png,hH,sS,mask-3.png,mask-2.png,h,1,0.49836249998770654,s,1,0.16744240000844002,0.04772939998656511,0.04868389992043376,0.09992250008508563,0.10064559988677502,0.7523145000450313
RSVPLG03,sg,20260310-152428,1.0.2,20251105-084826,799,Experiment,Both,1,Automatic,main,85,20260310-153233,local,global,300,S,S,A,A,A-S.png,S-A.png,sS,sS,mask-4.png,mask-1.png,s,1,0.9397390999365598,h,0,0.028727599885314703,0.048846400110051036,0.04749480006285012,0.10091889998875558,0.09849169990047812,0.30252430005930364
RSVPLG03,sg,20260310-152428,1.0.2,20251105-084826,799,Experiment,Both,1,Automatic,main,86,20260310-153238,local,global,300,S,S,A,E,A-S.png,S-E.png,sS,sS,mask-4.png,mask-4.png,s,1,0.9541060000192374,s,1,0.09005249990150332,0.046280600130558014,0.047040200093761086,0.09911229996941984,0.09930540015920997,0.3011960999574512
RSVPLG03,sg,20260310-152428,1.0.2,20251105-084826,799,Experiment,Both,1,Automatic,main,87,20260310-153242,global,local,300,S,H,E,A,S-E.png,A-H.png,sS,hH,mask-3.png,mask-1.png,s,1,0.7743874001316726,h,1,0.019703200086951256,0.04768509999848902,0.04742869990877807,0.09987029992043972,0.10051709995605052,0.30184690002352
RSVPLG03,sg,20260310-152428,1.0.2,20251105-084826,799,Experiment,Both,1,Automatic,main,88,20260310-153247,local,global,750,S,H,A,A,A-S.png,H-A.png,sS,hH,mask-1.png,mask-1.png,s,1,0.4433523998595774,h,1,0.13249769993126392,0.0486776998732239,0.04776629991829395,0.1008971999399364,0.09984879987314343,0.7523622000589967
RSVPLG03,sg,20260310-152428,1.0.2,20251105-084826,799,Experiment,Both,1,Automatic,main,89,20260310-153252,global,global,300,S,H,E,A,S-E.png,H-A.png,sS,hH,mask-1.png,mask-4.png,h,0,1.1266323998570442,h,1,0.07181780016981065,0.04963629995472729,0.04852960002608597,0.1010697998572141,0.09950549993664026,0.3020095999818295
RSVPLG03,sg,20260310-152428,1.0.2,20251105-084826,799,Experiment,Both,1,Automatic,main,90,20260310-153257,global,global,750,S,H,A,A,S-A.png,H-A.png,sS,hH,mask-2.png,mask-2.png,s,1,0.6278321999125183,h,1,0.2211507000029087,0.04859410016797483,0.04652590001933277,0.09980830014683306,0.09925490012392402,0.7530024000443518
RSVPLG03,sg,20260310-152428,1.0.2,20251105-084826,799,Experiment,Both,1,Automatic,main,91,20260310-153302,local,global,750,H,S,A,A,A-H.png,S-A.png,hH,sS,mask-4.png,mask-2.png,h,1,0.7581356998998672,s,1,0.2212565999943763,0.0465448999311775,0.047681800089776516,0.09971150010824203,0.10192929999902844,0.7518257000483572
RSVPLG03,sg,20260310-152428,1.0.2,20251105-084826,799,Experiment,Both,1,Automatic,main,92,20260310-153307,local,global,300,H,H,E,A,E-H.png,H-A.png,hH,hH,mask-1.png,mask-1.png,h,1,0.9151918001007289,h,1,0.2935699000954628,0.04760489985346794,0.046536399982869625,0.09987129992805421,0.09865469997748733,0.3021008998621255
RSVPLG03,sg,20260310-152428,1.0.2,20251105-084826,799,Experiment,Both,1,Automatic,main,93,20260310-153312,local,global,300,S,S,E,E,E-S.png,S-E.png,sS,sS,mask-4.png,mask-1.png,s,1,0.9482221000362188,s,1,0.20012129982933402,0.04779039998538792,0.04732100013643503,0.09987129992805421,0.10017340001650155,0.30094629991799593
RSVPLG03,sg,20260310-152428,1.0.2,20251105-084826,799,Experiment,Both,1,Automatic,main,94,20260310-153318,local,global,300,S,H,E,E,E-S.png,H-E.png,sS,hH,mask-3.png,mask-1.png,s,1,0.8799525999929756,h,1,0.23669179994612932,0.048399200197309256,0.045521599939092994,0.10035840002819896,0.09902100008912385,0.3016357000451535
RSVPLG03,sg,20260310-152428,1.0.2,20251105-084826,799,Experiment,Both,1,Automatic,main,95,20260310-153323,local,local,300,H,H,E,E,E-H.png,E-H.png,hH,hH,mask-2.png,mask-2.png,h,1,0.6363693000748754,h,1,0.1018082001246512,0.046366999857127666,0.04767829994671047,0.09961479995399714,0.09987979987636209,0.3021583999507129
RSVPLG03,sg,20260310-152428,1.0.2,20251105-084826,799,Experiment,Both,1,Automatic,main,96,20260310-153327,local,global,750,S,H,A,E,A-S.png,H-E.png,sS,hH,mask-4.png,mask-3.png,s,1,0.6290575000457466,s,0,0.36337350006215274,0.04719260009005666,0.04770649992860854,0.10027910000644624,0.10117170005105436,0.7521583000198007
RSVPLG03,sg,20260310-152428,1.0.2,20251105-084826,799,Experiment,Both,1,Automatic,main,97,20260310-153332,global,local,750,S,H,A,E,S-A.png,E-H.png,sS,hH,mask-1.png,mask-4.png,h,0,0.8823682998772711,h,1,0.09625730011612177,0.046728899935260415,0.04769190005026758,0.10072159999981523,0.10203920002095401,0.7517285000067204
RSVPLG03,sg,20260310-152428,1.0.2,20251105-084826,799,Experiment,Both,1,Automatic,main,98,20260310-153338,global,local,300,H,S,E,E,H-E.png,E-S.png,hH,sS,mask-1.png,mask-4.png,h,1,0.8526932999957353,s,1,0.020347099984064698,0.047519000014290214,0.04651809995993972,0.09984280006028712,0.0996159000787884,0.3008727999404073
RSVPLG03,sg,20260310-152428,1.0.2,20251105-084826,799,Experiment,Both,1,Automatic,main,99,20260310-153342,local,local,750,S,S,A,E,A-S.png,E-S.png,sS,sS,mask-4.png,mask-3.png,s,1,0.47926670010201633,s,1,0.2162214000709355,0.04690409987233579,0.0485166001599282,0.1000214999075979,0.10055690002627671,0.7516017998568714
RSVPLG03,sg,20260310-152428,1.0.2,20251105-084826,799,Experiment,Both,1,Automatic,main,100,20260310-153347,local,local,750,H,S,A,E,A-H.png,E-S.png,hH,sS,mask-3.png,mask-3.png,h,1,0.6811531002167612,s,1,0.2801130001898855,0.04766359995119274,0.049840099876746535,0.09922580001875758,0.10274809994734824,0.7511365001555532
RSVPLG03,sg,20260310-153422,1.0.2,20251105-084826,799,Experiment,Both,1,Automatic,warmup,1,20260310-153443,global,local,750,H,H,E,A,H-E.png,A-H.png,hH,hH,mask-3.png,mask-1.png,h,1,0.7491874999832362,h,1,0.1517763000447303,0.04718469991348684,0.04751390009187162,0.09925379999913275,0.0995878002140671,0.7493685998488218
RSVPLG03,sg,20260310-153422,1.0.2,20251105-084826,799,Experiment,Both,1,Automatic,warmup,2,20260310-153448,local,global,300,S,S,E,A,E-S.png,S-A.png,sS,sS,mask-2.png,mask-1.png,s,1,0.8196869001258165,h,0,0.2635957000311464,0.04703669995069504,0.04742530011571944,0.09939259989187121,0.09998080017976463,0.2986114998348057
RSVPLG03,sg,20260310-153422,1.0.2,20251105-084826,799,Experiment,Both,1,Automatic,warmup,3,20260310-153453,global,global,750,S,S,E,A,S-E.png,S-A.png,sS,sS,mask-1.png,mask-4.png,s,1,1.3462731998879462,h,0,0.680982300080359,0.047695300076156855,0.04773449990898371,0.09986720001325011,0.10089970007538795,0.7490997000131756
RSVPLG03,sg,20260310-153422,1.0.2,20251105-084826,799,Experiment,Both,1,Automatic,warmup,4,20260310-153500,local,local,300,H,H,E,A,E-H.png,A-H.png,hH,hH,mask-2.png,mask-4.png,h,1,0.9866006001830101,h,1,0.06938340002670884,0.04771810001693666,0.04646790004335344,0.09993369993753731,0.09835450001992285,0.3006816999986768
RSVPLG03,sg,20260310-153422,1.0.2,20251105-084826,799,Experiment,Both,1,Automatic,main,5,20260310-153505,local,global,300,S,H,A,A,A-S.png,H-A.png,sS,hH,mask-3.png,mask-4.png,s,1,0.9183406999800354,h,1,0.05459309997968376,0.047352799912914634,0.04749890021048486,0.09985199989750981,0.0993575002066791,0.3002896998077631
RSVPLG03,sg,20260310-153422,1.0.2,20251105-084826,799,Experiment,Both,1,Automatic,main,6,20260310-153509,global,local,750,S,H,A,E,S-A.png,E-H.png,sS,hH,mask-3.png,mask-3.png,s,1,0.971112199826166,h,1,0.6677547001745552,0.04781040013767779,0.04745740001089871,0.10105070006102324,0.09955320018343627,0.7498292999807745
RSVPLG03,sg,20260310-153422,1.0.2,20251105-084826,799,Experiment,Both,1,Automatic,main,7,20260310-153516,local,local,750,S,S,E,E,E-S.png,E-S.png,sS,sS,mask-3.png,mask-3.png,s,1,0.5371387000195682,s,1,0.1905650000553578,0.046724900137633085,0.046411499846726656,0.09860790008679032,0.09909150004386902,0.7495314001571387
RSVPLG03,sg,20260310-153422,1.0.2,20251105-084826,799,Experiment,Both,1,Automatic,main,8,20260310-153521,local,local,750,H,S,A,E,A-H.png,E-S.png,hH,sS,mask-2.png,mask-2.png,h,1,1.1839924999512732,s,1,0.2510657999664545,0.04887229995802045,0.04613599996082485,0.09965939982794225,0.10042699985206127,0.7499124000314623
RSVPLG03,sg,20260310-153422,1.0.2,20251105-084826,799,Experiment,Both,1,Automatic,main,9,20260310-153526,local,local,300,S,S,A,E,A-S.png,E-S.png,sS,sS,mask-1.png,mask-2.png,s,1,0.9066226999275386,h,0,0.26801700005307794,0.0459326000418514,0.048454000148922205,0.09814939997158945,0.10083270003087819,0.2979188999161124
RSVPLG03,sg,20260310-153422,1.0.2,20251105-084826,799,Experiment,Both,1,Automatic,main,10,20260310-153531,local,global,300,H,S,E,E,E-H.png,S-E.png,hH,sS,mask-1.png,mask-3.png,s,0,1.0092116999439895,h,0,2.1781917000189424,0.048605200136080384,0.04755100002512336,0.10075159999541938,0.09851709986105561,0.30120180011726916
RSVPLG03,sg,20260310-153422,1.0.2,20251105-084826,799,Experiment,Both,1,Automatic,main,11,20260310-153538,local,local,750,H,S,E,E,E-H.png,E-S.png,hH,sS,mask-2.png,mask-3.png,h,1,0.8555444001685828,s,1,0.6196465999819338,0.04904489987529814,0.04732050001621246,0.10081859980709851,0.10013479995541275,0.7496034998912364
RSVPLG03,sg,20260310-153422,1.0.2,20251105-084826,799,Experiment,Both,1,Automatic,main,12,20260310-153544,global,local,750,H,H,E,A,H-E.png,A-H.png,hH,hH,mask-3.png,mask-1.png,h,1,1.512311200145632,s,0,0.1754666999913752,0.04664199985563755,0.047389799961820245,0.09980940003879368,0.1006428999826312,0.7492730000521988
RSVPLG03,sg,20260310-153422,1.0.2,20251105-084826,799,Experiment,Both,1,Automatic,main,13,20260310-153550,global,local,300,S,S,A,A,S-A.png,A-S.png,sS,sS,mask-3.png,mask-2.png,h,0,1.4391595001798123,h,0,0.7455238001421094,0.04740049992688,0.04666900006122887,0.10166659997776151,0.1008500000461936,0.30042479978874326
RSVPLG03,sg,20260310-153422,1.0.2,20251105-084826,799,Experiment,Both,1,Automatic,main,14,20260310-153556,global,global,750,S,H,A,A,S-A.png,H-A.png,sS,hH,mask-4.png,mask-3.png,s,1,1.659492699895054,s,0,0.06516330013982952,0.047533099772408605,0.047664600191637874,0.10152219980955124,0.09984870022162795,0.7498783997725695
RSVPLG03,sg,20260310-153422,1.0.2,20251105-084826,799,Experiment,Both,1,Automatic,main,15,20260310-153602,global,global,300,S,H,A,A,S-A.png,H-A.png,sS,hH,mask-1.png,mask-3.png,h,0,1.897152999881655,h,1,0.09064600011333823,0.048686099937185645,0.04655630001798272,0.10086410003714263,0.0989983999170363,0.3008383000269532
RSVPLG03,sg,20260310-153422,1.0.2,20251105-084826,799,Experiment,Both,1,Automatic,main,16,20260310-153608,local,global,750,S,S,E,A,E-S.png,S-A.png,sS,sS,mask-2.png,mask-1.png,s,1,1.8896075999364257,s,1,0.9974491000175476,0.047569100046530366,0.047736600041389465,0.09964370005764067,0.09994999994523823,0.7481126999482512
RSVPLG03,sg,20260310-153422,1.0.2,20251105-084826,799,Experiment,Both,1,Automatic,main,17,20260310-153615,local,global,750,S,H,E,E,E-S.png,H-E.png,sS,hH,mask-2.png,mask-4.png,s,1,0.8366094001103193,h,1,0.12551829987205565,0.049077500123530626,0.046707300003618,0.10008890018798411,0.10085239983163774,0.749565000180155
RSVPLG03,sg,20260310-153422,1.0.2,20251105-084826,799,Experiment,Both,1,Automatic,main,18,20260310-153620,global,local,750,H,H,E,E,H-E.png,E-H.png,hH,hH,mask-1.png,mask-3.png,h,1,0.7466708000283688,h,1,0.2909598001278937,0.047325899824500084,0.048612300073727965,0.10012379987165332,0.09987600008025765,0.7486371998675168
RSVPLG03,sg,20260310-153422,1.0.2,20251105-084826,799,Experiment,Both,1,Automatic,main,19,20260310-153625,global,local,300,H,H,E,A,H-E.png,A-H.png,hH,hH,mask-2.png,mask-2.png,h,1,1.0732952000107616,s,0,0.7724842999596149,0.04921129997819662,0.04757630010135472,0.1006477999035269,0.09963160008192062,0.30165599985048175
RSVPLG03,sg,20260310-153422,1.0.2,20251105-084826,799,Experiment,Both,1,Automatic,main,20,20260310-153631,local,global,750,H,S,E,E,E-H.png,S-E.png,hH,sS,mask-2.png,mask-2.png,h,1,1.024483900051564,h,0,0.09926519985310733,0.046520200092345476,0.04672709992155433,0.10051469993777573,0.10018009995110333,0.7493112001102418
RSVPLG03,sg,20260310-153422,1.0.2,20251105-084826,799,Experiment,Both,1,Automatic,main,21,20260310-153636,local,local,300,S,H,E,E,E-S.png,E-H.png,sS,hH,mask-4.png,mask-3.png,s,1,1.6203830000013113,h,1,1.7809216000605375,0.04793559992685914,0.047673899913206697,0.10088789998553693,0.10017429990693927,0.3014239000622183
RSVPLG03,sg,20260310-153422,1.0.2,20251105-084826,799,Experiment,Both,1,Automatic,main,22,20260310-153642,global,global,750,S,S,E,A,S-E.png,S-A.png,sS,sS,mask-3.png,mask-4.png,s,1,2.1937197998631746,s,1,0.24780629994347692,0.04772699996829033,0.04774629999883473,0.10084929992444813,0.09902620012871921,0.7501962999813259
RSVPLG03,sg,20260310-153422,1.0.2,20251105-084826,799,Experiment,Both,1,Automatic,main,23,20260310-153648,global,local,300,H,S,A,E,H-A.png,E-S.png,hH,sS,mask-1.png,mask-4.png,h,1,5.505101099843159,s,1,5.728879899950698,0.04659499996341765,0.047542199958115816,0.099572200095281,0.09953620005398989,0.29909830004908144
RSVPLG03,sg,20260310-153422,1.0.2,20251105-084826,799,Experiment,Both,1,Automatic,main,24,20260310-153658,global,local,300,S,H,A,A,S-A.png,A-H.png,sS,hH,mask-3.png,mask-2.png,s,1,2.1174734998494387,h,1,0.28007339988835156,0.04566800012253225,0.047685699770227075,0.09951360011473298,0.09985919995233417,0.29923890018835664
RSVPLG03,sg,20260310-153422,1.0.2,20251105-084826,799,Experiment,Both,1,Automatic,main,25,20260310-153704,global,global,300,S,S,A,E,S-A.png,S-E.png,sS,sS,mask-4.png,mask-2.png,s,1,1.3167579998262227,s,1,0.17923930007964373,0.04865620005875826,0.04743860010057688,0.10172730009071529,0.10031530004926026,0.30106039997190237
RSVPLG03,sg,20260310-153422,1.0.2,20251105-084826,799,Experiment,Both,1,Automatic,main,26,20260310-153717,global,global,300,H,H,A,E,H-A.png,H-E.png,hH,hH,mask-3.png,mask-1.png,h,1,0.8934575999155641,h,1,0.13870269991457462,0.047752799931913614,0.04637130000628531,0.09981839987449348,0.09924200014211237,0.30042559979483485
RSVPLG03,sg,20260310-153422,1.0.2,20251105-084826,799,Experiment,Both,1,Automatic,main,27,20260310-153721,local,local,300,S,H,A,E,A-S.png,E-H.png,sS,hH,mask-3.png,mask-2.png,s,1,1.0621114000678062,h,1,0.05428439984098077,0.047365699894726276,0.04664089996367693,0.10025899996981025,0.09964579995721579,0.3007400999777019
RSVPLG03,sg,20260310-153422,1.0.2,20251105-084826,799,Experiment,Both,1,Automatic,main,28,20260310-153726,local,local,300,H,H,E,A,E-H.png,A-H.png,hH,hH,mask-4.png,mask-4.png,s,0,1.2633270998485386,h,1,0.009956700028851628,0.04675799980759621,0.04663810017518699,0.09811059990897775,0.1006002000067383,0.29890019982121885
RSVPLG03,sg,20260310-153422,1.0.2,20251105-084826,799,Experiment,Both,1,Automatic,main,29,20260310-153731,local,local,750,H,H,A,E,A-H.png,E-H.png,hH,hH,mask-3.png,mask-4.png,h,1,0.6858043000102043,s,0,2.4897777000442147,0.04866049997508526,0.04646099987439811,0.1009561000391841,0.09875130001455545,0.7502680001780391
RSVPLG03,sg,20260310-153422,1.0.2,20251105-084826,799,Experiment,Both,1,Automatic,main,30,20260310-153739,global,global,750,H,S,A,A,H-A.png,S-A.png,hH,sS,mask-1.png,mask-4.png,h,1,0.7078861000481993,s,1,0.8839122001081705,0.04771299986168742,0.04867940000258386,0.09935949998907745,0.10110939992591739,0.7496454999782145
RSVPLG03,sg,20260310-153422,1.0.2,20251105-084826,799,Experiment,Both,1,Automatic,main,31,20260310-153743,global,local,750,S,H,A,E,S-A.png,E-H.png,sS,hH,mask-4.png,mask-4.png,s,1,0.8190623999107629,h,1,0.022616200149059296,0.04857599991373718,0.04653430008329451,0.1006434999871999,0.0996301001869142,0.7507274998351932
RSVPLG03,sg,20260310-153422,1.0.2,20251105-084826,799,Experiment,Both,1,Automatic,main,32,20260310-153749,local,global,750,S,H,E,E,E-S.png,H-E.png,sS,hH,mask-4.png,mask-3.png,s,1,0.7243643999099731,h,1,1.0694319000467658,0.04755070013925433,0.04750399990007281,0.101012600120157,0.1015090998262167,0.7496608002111316
RSVPLG03,sg,20260310-153422,1.0.2,20251105-084826,799,Experiment,Both,1,Automatic,main,33,20260310-153755,global,local,750,S,H,A,A,S-A.png,A-H.png,sS,hH,mask-2.png,mask-3.png,s,1,2.2210864999797195,h,1,0.0970519999973476,0.04627529997378588,0.04711270006373525,0.10025319992564619,0.10112980008125305,0.7483868000563234
RSVPLG03,sg,20260310-153422,1.0.2,20251105-084826,799,Experiment,Both,1,Automatic,main,34,20260310-153801,local,local,300,S,H,E,A,E-S.png,A-H.png,sS,hH,mask-2.png,mask-3.png,s,1,1.83268680004403,h,1,0.04087879997678101,0.0476029000710696,0.04742580000311136,0.0997407000977546,0.09847670001909137,0.30131400004029274
RSVPLG03,sg,20260310-153422,1.0.2,20251105-084826,799,Experiment,Both,1,Automatic,main,35,20260310-153807,global,local,300,H,H,A,A,H-A.png,A-H.png,hH,hH,mask-4.png,mask-2.png,h,1,0.4754568999633193,h,1,0.07403280003927648,0.04726099991239607,0.048696599900722504,0.0998738999478519,0.1019641999155283,0.29943430004641414
RSVPLG03,sg,20260310-153422,1.0.2,20251105-084826,799,Experiment,Both,1,Automatic,main,36,20260310-153811,local,global,300,H,S,A,A,A-H.png,S-A.png,hH,sS,mask-1.png,mask-4.png,h,1,0.8116208999417722,s,1,0.020574500085785985,0.04644880001433194,0.04841859987936914,0.09867650014348328,0.09965909994207323,0.29879810009151697
RSVPLG03,sg,20260310-153422,1.0.2,20251105-084826,799,Experiment,Both,1,Automatic,main,37,20260310-153816,local,global,750,S,S,A,E,A-S.png,S-E.png,sS,sS,mask-1.png,mask-3.png,s,1,1.5299592998344451,h,0,0.0596624999307096,0.04561110003851354,0.04753699991852045,0.09882820001803339,0.09935839986428618,0.7496597000863403
RSVPLG03,sg,20260310-153422,1.0.2,20251105-084826,799,Experiment,Both,1,Automatic,main,38,20260310-153822,global,local,300,H,S,A,E,H-A.png,E-S.png,hH,sS,mask-4.png,mask-1.png,h,1,0.5849872999824584,h,0,0.3149906999897212,0.04753549979068339,0.04687589989043772,0.10153109999373555,0.10016299993731081,0.29978789994493127
RSVPLG03,sg,20260310-153422,1.0.2,20251105-084826,799,Experiment,Both,1,Automatic,main,39,20260310-153826,local,global,300,H,S,A,A,A-H.png,S-A.png,hH,sS,mask-4.png,mask-4.png,h,1,0.5810716000851244,s,1,0.04763339995406568,0.0472093999851495,0.04830470005981624,0.09906909987330437,0.10114819998852909,0.29943030001595616
RSVPLG03,sg,20260310-153422,1.0.2,20251105-084826,799,Experiment,Both,1,Automatic,main,40,20260310-153831,global,global,750,H,H,A,E,H-A.png,H-E.png,hH,hH,mask-4.png,mask-4.png,h,1,0.4052464999258518,h,1,0.12092259991914034,0.04651710018515587,0.0486845001578331,0.10055190022103488,0.10089650005102158,0.7486751000396907
RSVPLG03,sg,20260310-153422,1.0.2,20251105-084826,799,Experiment,Both,1,Automatic,main,41,20260310-153835,global,global,750,S,H,E,E,S-E.png,H-E.png,sS,hH,mask-1.png,mask-4.png,s,1,0.7295976998284459,h,1,0.07632129988633096,0.04753519990481436,0.048655099933966994,0.10061059985309839,0.0999322000425309,0.7488072998821735
RSVPLG03,sg,20260310-153422,1.0.2,20251105-084826,799,Experiment,Both,1,Automatic,main,42,20260310-153840,global,local,300,H,H,E,E,H-E.png,E-H.png,hH,hH,mask-2.png,mask-1.png,h,1,0.6640037999022752,s,0,0.3948460998944938,0.04676669999025762,0.04863749979995191,0.10048649995587766,0.09964469983242452,0.3000312000513077
RSVPLG03,sg,20260310-153422,1.0.2,20251105-084826,799,Experiment,Both,1,Automatic,main,43,20260310-153845,global,global,750,S,H,E,A,S-E.png,H-A.png,sS,hH,mask-3.png,mask-1.png,s,1,0.8353403999935836,h,1,0.012603699928149581,0.0486695000436157,0.04688969999551773,0.09952639997936785,0.10114379995502532,0.749206000007689
RSVPLG03,sg,20260310-153422,1.0.2,20251105-084826,799,Experiment,Both,1,Automatic,main,44,20260310-153850,local,global,750,H,S,A,E,A-H.png,S-E.png,hH,sS,mask-3.png,mask-1.png,h,1,0.924701499985531,h,0,0.0862214001826942,0.046721599996089935,0.046807599952444434,0.09890080010518432,0.10038709989748895,0.7483385000377893
RSVPLG03,sg,20260310-153422,1.0.2,20251105-084826,799,Experiment,Both,1,Automatic,main,45,20260310-153855,local,global,300,H,S,E,A,E-H.png,S-A.png,hH,sS,mask-3.png,mask-3.png,h,1,1.0346019000280648,s,1,0.19908679998479784,0.04771850001998246,0.04735700017772615,0.09969920013099909,0.10088260006159544,0.29916199995204806
RSVPLG03,sg,20260310-153422,1.0.2,20251105-084826,799,Experiment,Both,1,Automatic,main,46,20260310-153900,local,local,300,H,H,E,E,E-H.png,E-H.png,hH,hH,mask-3.png,mask-3.png,h,1,0.8391356999054551,s,0,0.15080539998598397,0.04756959993392229,0.04670599987730384,0.1008927000220865,0.09975829999893904,0.3003446999937296
RSVPLG03,sg,20260310-153422,1.0.2,20251105-084826,799,Experiment,Both,1,Automatic,main,47,20260310-153905,global,local,300,H,S,E,A,H-E.png,A-S.png,hH,sS,mask-3.png,mask-1.png,h,1,0.7583321998827159,h,0,0.07604230009019375,0.04752799984999001,0.047510200180113316,0.09876389987766743,0.10049430001527071,0.29812789987772703
RSVPLG03,sg,20260310-153422,1.0.2,20251105-084826,799,Experiment,Both,1,Automatic,main,48,20260310-153909,global,global,300,H,S,E,A,H-E.png,S-A.png,hH,sS,mask-4.png,mask-1.png,h,1,1.0162640998605639,h,0,0.08431019983254373,0.04708910011686385,0.0476224001031369,0.10069520003162324,0.09997930005192757,0.30055420007556677
RSVPLG03,sg,20260310-153422,1.0.2,20251105-084826,799,Experiment,Both,1,Automatic,main,49,20260310-153914,global,local,300,S,H,A,E,S-A.png,E-H.png,sS,hH,mask-1.png,mask-4.png,h,0,0.7968224000651389,s,0,0.06043919990770519,0.047512499848380685,0.046834300039336085,0.10057669994421303,0.09903749986551702,0.3013909999281168
RSVPLG03,sg,20260310-153422,1.0.2,20251105-084826,799,Experiment,Both,1,Automatic,main,50,20260310-153919,local,local,300,S,H,E,A,E-S.png,A-H.png,sS,hH,mask-2.png,mask-3.png,s,1,1.3352542000357062,h,1,0.0016859001480042934,0.04833310004323721,0.04828220000490546,0.10044750012457371,0.10061099985614419,0.30027830018661916
RSVPLG03,sg,20260310-153422,1.0.2,20251105-084826,799,Experiment,Both,1,Automatic,main,51,20260310-153935,local,global,750,S,S,A,E,A-S.png,S-E.png,sS,sS,mask-3.png,mask-1.png,s,1,1.2881655001547188,h,0,0.474612400168553,0.046600000001490116,0.046852200059220195,0.10047630011104047,0.1000139000825584,0.7487345999106765
RSVPLG03,sg,20260310-153422,1.0.2,20251105-084826,799,Experiment,Both,1,Automatic,main,52,20260310-153941,global,local,300,H,H,E,E,H-E.png,E-H.png,hH,hH,mask-2.png,mask-2.png,h,1,0.8711049999110401,h,1,0.06720010004937649,0.04719489999115467,0.04839350003749132,0.0982039999216795,0.10057200002484024,0.2983188999351114
RSVPLG03,sg,20260310-153422,1.0.2,20251105-084826,799,Experiment,Both,1,Automatic,main,53,20260310-153946,local,global,300,S,H,E,A,E-S.png,H-A.png,sS,hH,mask-4.png,mask-2.png,s,1,1.045086800120771,h,1,0.09098269999958575,0.04624229995533824,0.048570199869573116,0.09848359995521605,0.10054609994404018,0.2989203000906855
RSVPLG03,sg,20260310-153422,1.0.2,20251105-084826,799,Experiment,Both,1,Automatic,main,54,20260310-153951,global,global,300,H,H,A,E,H-A.png,H-E.png,hH,hH,mask-3.png,mask-3.png,h,1,0.7865303000435233,h,1,0.07271589990705252,0.04678720002993941,0.04748370009474456,0.0995773000176996,0.10048640007153153,0.29981999984011054
RSVPLG03,sg,20260310-153422,1.0.2,20251105-084826,799,Experiment,Both,1,Automatic,main,55,20260310-153955,global,local,750,S,H,A,E,S-A.png,E-H.png,sS,hH,mask-1.png,mask-3.png,s,1,0.7084594999905676,h,1,0.019642200088128448,0.048686299938708544,0.04666350013576448,0.09992130007594824,0.09851870010606945,0.7508306999225169
RSVPLG03,sg,20260310-153422,1.0.2,20251105-084826,799,Experiment,Both,1,Automatic,main,56,20260310-154000,local,local,750,H,S,E,A,E-H.png,A-S.png,hH,sS,mask-4.png,mask-4.png,h,1,1.0957803998608142,s,1,0.7149272998794913,0.04567879997193813,0.04550230014137924,0.09886240004561841,0.09850449999794364,0.7496634998824447
RSVPLG03,sg,20260310-153422,1.0.2,20251105-084826,799,Experiment,Both,1,Automatic,main,57,20260310-154006,local,global,300,H,H,A,A,A-H.png,H-A.png,hH,hH,mask-4.png,mask-1.png,h,1,0.7606540000997484,s,0,0.010001600021496415,0.04636000003665686,0.047643700148910284,0.09942360012792051,0.09920260007493198,0.2994283000007272
RSVPLG03,sg,20260310-153422,1.0.2,20251105-084826,799,Experiment,Both,1,Automatic,main,58,20260310-154011,local,global,750,H,S,A,E,A-H.png,S-E.png,hH,sS,mask-1.png,mask-1.png,h,1,2.366027800133452,h,0,0.6678048998583108,0.047570399940013885,0.0462485000025481,0.10054340003989637,0.09856140008196235,0.7507321999873966
RSVPLG03,sg,20260310-153422,1.0.2,20251105-084826,799,Experiment,Both,1,Automatic,main,59,20260310-154018,global,global,300,H,H,E,E,H-E.png,H-E.png,hH,hH,mask-4.png,mask-3.png,h,1,0.654549099970609,h,1,0.07015120005235076,0.04674729984253645,0.047670100117102265,0.09895739983767271,0.1004261001944542,0.2985921998042613
RSVPLG03,sg,20260310-153422,1.0.2,20251105-084826,799,Experiment,Both,1,Automatic,main,60,20260310-154022,global,global,750,H,H,A,A,H-A.png,H-A.png,hH,hH,mask-3.png,mask-2.png,h,1,0.4614723001141101,h,1,0.10631050006486475,0.047003400046378374,0.04744850005954504,0.10009960015304387,0.09965929994359612,0.7499071001075208
RSVPLG03,sg,20260310-153422,1.0.2,20251105-084826,799,Experiment,Both,1,Automatic,main,61,20260310-154027,global,global,300,S,S,E,E,S-E.png,S-E.png,sS,sS,mask-1.png,mask-3.png,s,1,0.4429955999366939,s,1,0.07977700000628829,0.04867110005579889,0.04957440006546676,0.10091049992479384,0.10064890002831817,0.2984674000181258
RSVPLG03,sg,20260310-153422,1.0.2,20251105-084826,799,Experiment,Both,1,Automatic,main,62,20260310-154032,local,global,750,S,H,A,A,A-S.png,H-A.png,sS,hH,mask-2.png,mask-2.png,s,1,1.0805513998493552,h,1,0.2820360001642257,0.046645599883049726,0.048604599898681045,0.09936959994956851,0.10065729985944927,0.7493290000129491
RSVPLG03,sg,20260310-153422,1.0.2,20251105-084826,799,Experiment,Both,1,Automatic,main,63,20260310-154037,global,global,300,S,S,E,E,S-E.png,S-E.png,sS,sS,mask-4.png,mask-3.png,s,1,0.5187470999080688,s,1,0.08713939995504916,0.047698100097477436,0.04751339997164905,0.10178779996931553,0.10055189998820424,0.3000493999570608
RSVPLG03,sg,20260310-153422,1.0.2,20251105-084826,799,Experiment,Both,1,Automatic,main,64,20260310-154041,global,local,750,H,S,A,E,H-A.png,E-S.png,hH,sS,mask-3.png,mask-4.png,h,1,1.2304197000339627,s,1,0.04270739993080497,0.04673409997485578,0.04784499993547797,0.10075509990565479,0.10010899999178946,0.7486441000364721
RSVPLG03,sg,20260310-153422,1.0.2,20251105-084826,799,Experiment,Both,1,Automatic,main,65,20260310-154047,global,global,750,H,S,A,A,H-A.png,S-A.png,hH,sS,mask-3.png,mask-1.png,h,1,0.7736630998551846,s,1,0.06709909997880459,0.045650299871340394,0.04772530007176101,0.09863559994846582,0.10086839995346963,0.747757599921897
RSVPLG03,sg,20260310-153422,1.0.2,20251105-084826,799,Experiment,Both,1,Automatic,main,66,20260310-154052,global,local,750,H,H,A,E,H-A.png,E-H.png,hH,hH,mask-1.png,mask-1.png,h,1,0.77318080002442,h,1,0.08933679992333055,0.045762799913063645,0.047617699950933456,0.09858059999532998,0.10115880006924272,0.7479103999212384
RSVPLG03,sg,20260310-153422,1.0.2,20251105-084826,799,Experiment,Both,1,Automatic,main,67,20260310-154057,global,global,300,H,H,E,E,H-E.png,H-E.png,hH,hH,mask-1.png,mask-4.png,h,1,1.906852199928835,h,1,0.3607446001842618,0.04674779996275902,0.04728850000537932,0.09994479990564287,0.0987158000934869,0.29941039998084307
RSVPLG03,sg,20260310-153422,1.0.2,20251105-084826,799,Experiment,Both,1,Automatic,main,68,20260310-154103,global,local,750,H,H,A,A,H-A.png,A-H.png,hH,hH,mask-1.png,mask-1.png,h,1,0.5811925998423249,h,1,0.12810419988818467,0.04868969996459782,0.04768289998173714,0.10001389984972775,0.09960580011829734,0.7500006998889148
RSVPLG03,sg,20260310-153422,1.0.2,20251105-084826,799,Experiment,Both,1,Automatic,main,69,20260310-154107,local,global,750,H,H,A,E,A-H.png,H-E.png,hH,hH,mask-4.png,mask-3.png,h,1,0.4736577000003308,s,0,0.4967492998111993,0.046502500073984265,0.04769999999552965,0.10062410007230937,0.10089539992623031,0.7489273000974208
RSVPLG03,sg,20260310-153422,1.0.2,20251105-084826,799,Experiment,Both,1,Automatic,main,70,20260310-154113,global,global,750,H,H,E,A,H-E.png,H-A.png,hH,hH,mask-4.png,mask-4.png,h,1,0.36676849983632565,h,1,0.08908539987169206,0.0477116999682039,0.04862629994750023,0.09972709999419749,0.10073269996792078,0.7484862999990582
RSVPLG03,sg,20260310-153422,1.0.2,20251105-084826,799,Experiment,Both,1,Automatic,main,71,20260310-154117,global,global,750,H,H,E,E,H-E.png,H-E.png,hH,hH,mask-3.png,mask-4.png,h,1,0.3776982999406755,h,1,0.08402940002270043,0.046936400001868606,0.0486739999614656,0.0982236999552697,0.10064480011351407,0.7471708999946713
RSVPLG03,sg,20260310-153422,1.0.2,20251105-084826,799,Experiment,Both,1,Automatic,main,72,20260310-154122,global,global,750,S,H,E,A,S-E.png,H-A.png,sS,hH,mask-3.png,mask-4.png,s,1,0.4880195998121053,h,1,0.08682189998216927,0.047722200164571404,0.04811409977264702,0.09991970006376505,0.10040479991585016,0.7493802001699805
RSVPLG03,sg,20260310-153422,1.0.2,20251105-084826,799,Experiment,Both,1,Automatic,main,73,20260310-154127,global,local,750,H,H,E,E,H-E.png,E-H.png,hH,hH,mask-4.png,mask-2.png,h,1,1.0498592001385987,h,1,0.24246079986914992,0.047733700135722756,0.047688999911770225,0.10177790001034737,0.09961190004833043,0.7502248000819236
RSVPLG03,sg,20260310-153422,1.0.2,20251105-084826,799,Experiment,Both,1,Automatic,main,74,20260310-154132,local,local,750,S,S,A,E,A-S.png,E-S.png,sS,sS,mask-3.png,mask-1.png,s,1,0.7704234998673201,s,1,0.11635269992984831,0.04855050006881356,0.04774939990602434,0.10175650008022785,0.10166119993664324,0.7495471001602709
RSVPLG03,sg,20260310-153422,1.0.2,20251105-084826,799,Experiment,Both,1,Automatic,main,75,20260310-154137,local,local,300,H,H,E,A,E-H.png,A-H.png,hH,hH,mask-3.png,mask-1.png,h,1,0.7186398999765515,h,1,0.10860650008544326,0.04740420007146895,0.04835910000838339,0.09927910007536411,0.09945800015702844,0.29974519996903837
RSVPLG03,sg,20260310-153422,1.0.2,20251105-084826,799,Experiment,Both,1,Automatic,main,76,20260310-154144,global,local,300,H,H,A,E,H-A.png,E-H.png,hH,hH,mask-1.png,mask-1.png,h,1,1.10746999992989,h,1,0.375113399932161,0.04840379999950528,0.045566300163045526,0.1004137999843806,0.09931700001470745,0.30075239995494485
RSVPLG03,sg,20260310-153422,1.0.2,20251105-084826,799,Experiment,Both,1,Automatic,main,77,20260310-154149,global,local,750,S,S,A,A,S-A.png,A-S.png,sS,sS,mask-4.png,mask-4.png,s,1,0.42558249994181097,s,1,0.14084189990535378,0.04767029988579452,0.04751350008882582,0.0997633000370115,0.09884190000593662,0.7502422998659313
RSVPLG03,sg,20260310-153422,1.0.2,20251105-084826,799,Experiment,Both,1,Automatic,main,78,20260310-154154,local,global,750,S,S,A,A,A-S.png,S-A.png,sS,sS,mask-2.png,mask-3.png,s,1,0.632402699906379,s,1,0.11996150016784668,0.04769579996354878,0.048713200027123094,0.09986479999497533,0.10090090008452535,0.7493662999477237
RSVPLG03,sg,20260310-153422,1.0.2,20251105-084826,799,Experiment,Both,1,Automatic,main,79,20260310-154159,local,local,300,H,S,E,A,E-H.png,A-S.png,hH,sS,mask-1.png,mask-3.png,h,1,0.5519498998764902,s,1,0.055603899993002415,0.04755959985777736,0.04756259988062084,0.1007099999114871,0.09862139984034002,0.30122720007784665
RSVPLG03,sg,20260310-153422,1.0.2,20251105-084826,799,Experiment,Both,1,Automatic,main,80,20260310-154203,local,local,300,S,H,A,E,A-S.png,E-H.png,sS,hH,mask-4.png,mask-3.png,s,1,0.9389518001116812,h,1,0.16900039999745786,0.04655850003473461,0.04866920015774667,0.10055599990300834,0.10072380001656711,0.298449199879542
RSVPLG03,sg,20260310-153422,1.0.2,20251105-084826,799,Experiment,Both,1,Automatic,main,81,20260310-154208,local,local,300,H,H,A,A,A-H.png,A-H.png,hH,hH,mask-1.png,mask-3.png,h,1,0.8610171999316663,s,0,0.20133060007356107,0.04783840011805296,0.04749309993349016,0.10132250003516674,0.09976499993354082,0.2999382000416517
RSVPLG03,sg,20260310-153422,1.0.2,20251105-084826,799,Experiment,Both,1,Automatic,main,82,20260310-154213,local,local,750,S,S,E,A,E-S.png,A-S.png,sS,sS,mask-1.png,mask-4.png,s,1,0.4973013000562787,s,1,0.13409589999355376,0.04751699999906123,0.047657799907028675,0.10009799990803003,0.09905579988844693,0.7500845999456942
RSVPLG03,sg,20260310-153422,1.0.2,20251105-084826,799,Experiment,Both,1,Automatic,main,83,20260310-154218,local,local,750,H,H,A,A,A-H.png,A-H.png,hH,hH,mask-1.png,mask-2.png,h,1,0.41867579985409975,h,1,0.15095110004767776,0.04676860012114048,0.046762999845668674,0.09918440016917884,0.10023460001684725,0.749749000184238
RSVPLG03,sg,20260310-153422,1.0.2,20251105-084826,799,Experiment,Both,1,Automatic,main,84,20260310-154223,local,global,300,S,S,A,A,A-S.png,S-A.png,sS,sS,mask-3.png,mask-1.png,s,1,1.0406378000043333,s,1,0.5290166998747736,0.04782740003429353,0.0475872999522835,0.10004699998535216,0.10072849993593991,0.3005152998957783
RSVPLG03,sg,20260310-153422,1.0.2,20251105-084826,799,Experiment,Both,1,Automatic,main,85,20260310-154228,local,global,750,H,H,A,A,A-H.png,H-A.png,hH,hH,mask-1.png,mask-3.png,h,1,1.0090087000280619,h,1,0.2367183999158442,0.04509819997474551,0.04769719997420907,0.09971110010519624,0.09988270001485944,0.7480595000088215
RSVPLG03,sg,20260310-153422,1.0.2,20251105-084826,799,Experiment,Both,1,Automatic,main,86,20260310-154233,local,global,300,H,H,A,A,A-H.png,H-A.png,hH,hH,mask-1.png,mask-2.png,h,1,0.7445155000314116,h,1,1.2014389999676496,0.04577630013227463,0.0477167998906225,0.09805350005626678,0.09846560005098581,0.2996482001617551
RSVPLG03,sg,20260310-153422,1.0.2,20251105-084826,799,Experiment,Both,1,Automatic,main,87,20260310-154239,local,global,300,H,S,A,E,A-H.png,S-E.png,hH,sS,mask-4.png,mask-2.png,h,1,0.7315533000510186,s,1,0.07986789988353848,0.04755829996429384,0.04755060002207756,0.10037900018505752,0.10050279996357858,0.30046910000965
RSVPLG03,sg,20260310-153422,1.0.2,20251105-084826,799,Experiment,Both,1,Automatic,main,88,20260310-154243,local,local,750,S,H,E,E,E-S.png,E-H.png,sS,hH,mask-4.png,mask-4.png,s,1,0.42569870012812316,h,1,0.2784955999813974,0.04736680001951754,0.048502499936148524,0.09956669993698597,0.09989159996621311,0.7492627999745309
RSVPLG03,sg,20260310-153422,1.0.2,20251105-084826,799,Experiment,Both,1,Automatic,main,89,20260310-154248,global,global,300,H,S,E,A,H-E.png,S-A.png,hH,sS,mask-1.png,mask-1.png,h,1,0.9478314998559654,s,1,0.04916219995357096,0.047655200120061636,0.047312499955296516,0.09968690015375614,0.09836069983430207,0.29998580017127097
RSVPLG03,sg,20260310-153422,1.0.2,20251105-084826,799,Experiment,Both,1,Automatic,main,90,20260310-154253,global,global,300,S,S,A,A,S-A.png,S-A.png,sS,sS,mask-2.png,mask-4.png,s,1,0.6154688999522477,s,1,0.12563410005532205,0.046540499897673726,0.045741300098598,0.09850169997662306,0.09980520000681281,0.29925119993276894
RSVPLG03,sg,20260310-153422,1.0.2,20251105-084826,799,Experiment,Both,1,Automatic,main,91,20260310-154258,global,local,300,S,H,E,E,S-E.png,E-H.png,sS,hH,mask-1.png,mask-1.png,s,1,1.1837045000866055,h,1,0.053144700126722455,0.04725199984386563,0.04782679979689419,0.10133409989066422,0.10004579997621477,0.2995933999773115
RSVPLG03,sg,20260310-153422,1.0.2,20251105-084826,799,Experiment,Both,1,Automatic,main,92,20260310-154303,local,global,300,S,S,E,E,E-S.png,S-E.png,sS,sS,mask-2.png,mask-3.png,s,1,0.5182864000089467,h,0,1.7027813999447972,0.04555630008690059,0.04750709980726242,0.0996598000638187,0.09960119985044003,0.29825930017977953
RSVPLG03,sg,20260310-153422,1.0.2,20251105-084826,799,Experiment,Both,1,Automatic,main,93,20260310-154309,local,local,750,H,S,E,E,E-H.png,E-S.png,hH,sS,mask-1.png,mask-2.png,h,1,0.40212640003301203,s,1,0.3137454001698643,0.04771049995906651,0.046678800135850906,0.09990649996325374,0.09886370017193258,0.7501467999536544
RSVPLG03,sg,20260310-153422,1.0.2,20251105-084826,799,Experiment,Both,1,Automatic,main,94,20260310-154314,global,local,750,H,S,E,A,H-E.png,A-S.png,hH,sS,mask-3.png,mask-2.png,h,1,0.6567875000182539,s,1,0.33063069987110794,0.047515900107100606,0.04776139999739826,0.09880580008029938,0.10002200002782047,0.7487373000476509
RSVPLG03,sg,20260310-153422,1.0.2,20251105-084826,799,Experiment,Both,1,Automatic,main,95,20260310-154319,local,global,300,H,H,A,E,A-H.png,H-E.png,hH,hH,mask-2.png,mask-3.png,h,1,1.0368325000163168,s,0,0.18915940006263554,0.04752300004474819,0.047519100131466985,0.10052380012348294,0.10054140002466738,0.3002033999655396
RSVPLG03,sg,20260310-153422,1.0.2,20251105-084826,799,Experiment,Both,1,Automatic,main,96,20260310-154324,local,local,750,H,H,E,A,E-H.png,A-H.png,hH,hH,mask-3.png,mask-1.png,h,1,0.8023850000463426,h,1,0.12881350005045533,0.04585530003532767,0.04740659985691309,0.09906659997068346,0.09844699990935624,0.7495278001297265
RSVPLG03,sg,20260310-153422,1.0.2,20251105-084826,799,Experiment,Both,1,Automatic,main,97,20260310-154329,global,global,750,H,H,A,E,H-A.png,H-E.png,hH,hH,mask-2.png,mask-2.png,h,1,0.45000219997018576,h,1,0.1343572000041604,0.04687190009281039,0.04734429996460676,0.09930139989592135,0.09860869986005127,0.7497632000595331
RSVPLG03,sg,20260310-153422,1.0.2,20251105-084826,799,Experiment,Both,1,Automatic,main,98,20260310-154333,local,local,300,H,H,A,E,A-H.png,E-H.png,hH,hH,mask-4.png,mask-3.png,h,1,0.7122878001537174,s,0,0.07657589996233582,0.04764630016870797,0.047626500017941,0.09964670008048415,0.0986538000870496,0.3009466000366956
RSVPLG03,sg,20260310-153422,1.0.2,20251105-084826,799,Experiment,Both,1,Automatic,main,99,20260310-154338,global,global,300,S,S,A,A,S-A.png,S-A.png,sS,sS,mask-1.png,mask-4.png,s,1,0.43853699997998774,s,1,0.07011450012214482,0.04740160005167127,0.04676660010591149,0.09957619989290833,0.09895740007050335,0.3002243998926133
RSVPLG03,sg,20260310-153422,1.0.2,20251105-084826,799,Experiment,Both,1,Automatic,main,100,20260310-154342,local,local,750,H,H,A,E,A-H.png,E-H.png,hH,hH,mask-3.png,mask-1.png,h,1,0.7152886998374015,h,1,0.09711640002205968,0.04877719981595874,0.04748519998975098,0.10080469981767237,0.09948910004459321,0.7496757998596877
