exp,exp_initials,runtime,ver,modtime,sub,blocktype,targets,cuetype,mode,trialtype,trial,trialtime,t1_level,t2_level,t2_lag,t1,t2,distractor1,distractor2,stimfile1,stimfile2,t1_corr,t2_corr,maskfile1,maskfile2,t1_resp,t1_acc,t1_rt,t2_resp,t2_acc,t2_rt,t1_dur,t2_dur,t1mask_soa,t2mask_soa,t1t2_soa
RSVPLG03,cs,20260227-101547,1.0.2,20251105-084826,781,Introduction,T1,1,Automatic,main,1,20260227-101611,local,local,750,H,S,A,E,A-H.png,E-S.png,hH,sS,mask-4.png,mask-3.png,h,1,2.6757682000024943,none,-5,0,0.09049870001035742,0.09753339999588206,0.19466570000804495,0.1993895000050543,0.7433883000048809
RSVPLG03,cs,20260227-101547,1.0.2,20251105-084826,781,Introduction,T1,1,Automatic,main,2,20260227-101618,global,global,750,S,H,E,E,S-E.png,H-E.png,sS,hH,mask-4.png,mask-3.png,s,1,1.5484814000083134,none,-5,0,0.0982806999963941,0.09700589999556541,0.20130909999716096,0.20023240000591613,0.7488985999953002
RSVPLG03,cs,20260227-101547,1.0.2,20251105-084826,781,Introduction,T1,1,Automatic,main,3,20260227-101624,global,local,750,S,S,E,A,S-E.png,A-S.png,sS,sS,mask-3.png,mask-3.png,s,1,0.8764175999967847,none,-5,0,0.09737390000373125,0.09758790000341833,0.20019309999770485,0.20071330000064336,0.7473031999979867
RSVPLG03,cs,20260227-101547,1.0.2,20251105-084826,781,Introduction,T1,1,Automatic,main,4,20260227-101629,local,local,750,S,H,E,E,E-S.png,E-H.png,sS,hH,mask-1.png,mask-2.png,none,-6,0,none,-5,0,0.09848570000031032,0.09630289999768138,0.1997865000012098,0.19918429999961518,0.7493039999972098
RSVPLG03,cs,20260227-101641,1.0.2,20251105-084826,781,Practice,T1,1,Automatic,main,1,20260227-101658,global,global,300,S,S,A,A,S-A.png,S-A.png,sS,sS,mask-1.png,mask-1.png,s,1,1.23161460000847,none,-5,0,0.0410589999955846,0.047519600004306994,0.09418619998905342,0.09957890000077896,0.2943459999951301
RSVPLG03,cs,20260227-101641,1.0.2,20251105-084826,781,Practice,T1,1,Automatic,main,2,20260227-101703,global,local,750,H,S,A,E,H-A.png,E-S.png,hH,sS,mask-4.png,mask-2.png,h,1,0.7345490000006976,none,-5,0,0.047689099999843165,0.04751370000303723,0.10177920000569429,0.09950820000085514,0.7516930999991018
RSVPLG03,cs,20260227-101641,1.0.2,20251105-084826,781,Practice,T1,1,Automatic,main,3,20260227-101708,local,local,750,S,H,E,E,E-S.png,E-H.png,sS,hH,mask-1.png,mask-3.png,h,0,0.5385213000117801,none,-5,0,0.047700200011604466,0.04791069999919273,0.10091730000567622,0.10014950000913814,0.7502980999997817
RSVPLG03,cs,20260227-101641,1.0.2,20251105-084826,781,Practice,T1,1,Automatic,main,4,20260227-101713,local,local,750,S,S,A,A,A-S.png,A-S.png,sS,sS,mask-3.png,mask-3.png,s,1,0.6480906000069808,none,-5,0,0.04641079998691566,0.04802210000343621,0.10037239998928271,0.10028400000010151,0.7495357999869157
RSVPLG03,cs,20260227-101641,1.0.2,20251105-084826,781,Practice,T1,1,Automatic,main,5,20260227-101717,local,global,750,H,S,A,E,A-H.png,S-E.png,hH,sS,mask-3.png,mask-1.png,s,0,0.8126361000031466,none,-5,0,0.04849689999537077,0.04856799999834038,0.100493899997673,0.10056730000360403,0.750216200001887
RSVPLG03,cs,20260227-101641,1.0.2,20251105-084826,781,Practice,T1,1,Automatic,main,6,20260227-101722,global,local,750,S,S,A,E,S-A.png,E-S.png,sS,sS,mask-1.png,mask-3.png,h,0,1.098283999992418,none,-5,0,0.04759479999484029,0.04838300000119489,0.09968089999165386,0.10048190000816248,0.7496472999919206
RSVPLG03,cs,20260227-101641,1.0.2,20251105-084826,781,Practice,T1,1,Automatic,main,7,20260227-101727,global,local,300,H,H,A,E,H-A.png,E-H.png,hH,hH,mask-2.png,mask-4.png,h,1,0.5416871000052197,none,-5,0,0.048332100006518885,0.04734499999904074,0.10132859999430366,0.10025689999747556,0.3008020999986911
RSVPLG03,cs,20260227-101641,1.0.2,20251105-084826,781,Practice,T1,1,Automatic,main,8,20260227-101732,local,global,300,S,H,E,E,E-S.png,H-E.png,sS,hH,mask-3.png,mask-1.png,h,0,0.5898233000043547,none,-5,0,0.046551999999792315,0.04845000000204891,0.09965349998674355,0.10144600000057835,0.2988970999867888
RSVPLG03,cs,20260227-101641,1.0.2,20251105-084826,781,Practice,T1,1,Automatic,main,9,20260227-101736,local,global,750,H,H,A,A,A-H.png,H-A.png,hH,hH,mask-3.png,mask-2.png,s,0,1.1688764999998966,none,-5,0,0.04853189999994356,0.047517099999822676,0.0996657000068808,0.09949690000212286,0.7515754000050947
RSVPLG03,cs,20260227-101641,1.0.2,20251105-084826,781,Practice,T1,1,Automatic,main,10,20260227-101741,global,global,750,H,S,A,A,H-A.png,S-A.png,hH,sS,mask-2.png,mask-1.png,h,1,0.5444381999986945,none,-5,0,0.04881490000116173,0.047226700000464916,0.0998124000034295,0.09852200000023004,0.7517526000010548
RSVPLG03,cs,20260227-101641,1.0.2,20251105-084826,781,Practice,T1,1,Automatic,main,11,20260227-101746,local,local,300,H,S,E,A,E-H.png,A-S.png,hH,sS,mask-1.png,mask-1.png,h,1,1.5169038000021828,none,-5,0,0.048538100003497675,0.04730439999548253,0.10163950000423938,0.09958169999299571,0.3018177000049036
RSVPLG03,cs,20260227-101641,1.0.2,20251105-084826,781,Practice,T1,1,Automatic,main,12,20260227-101751,global,global,750,H,H,E,A,H-E.png,H-A.png,hH,hH,mask-3.png,mask-3.png,h,1,0.32839809999859426,none,-5,0,0.04750810000405181,0.046486699997331016,0.09960450000653509,0.09949749999213964,0.7499373000027845
RSVPLG03,cs,20260227-101641,1.0.2,20251105-084826,781,Practice,T1,1,Automatic,main,13,20260227-101755,local,local,300,S,S,E,A,E-S.png,A-S.png,sS,sS,mask-1.png,mask-4.png,s,1,0.7083939000003738,none,-5,0,0.04777679999824613,0.04770779999671504,0.09997359999397304,0.09990259999176487,0.30052689999865834
RSVPLG03,cs,20260227-101641,1.0.2,20251105-084826,781,Practice,T1,1,Automatic,main,14,20260227-101800,global,global,300,S,S,E,A,S-E.png,S-A.png,sS,sS,mask-1.png,mask-2.png,h,0,0.5416128000069875,none,-5,0,0.048283800002536736,0.0473999000096228,0.09917799998947885,0.09934909999719821,0.301267499991809
RSVPLG03,cs,20260227-101641,1.0.2,20251105-084826,781,Practice,T1,1,Automatic,main,15,20260227-101804,local,global,300,S,S,E,A,E-S.png,S-A.png,sS,sS,mask-1.png,mask-1.png,s,1,0.30407199999899603,none,-5,0,0.047957100003259256,0.047409199993126094,0.10106299999461044,0.10040019999723881,0.30141790000197943
RSVPLG03,cs,20260227-101641,1.0.2,20251105-084826,781,Practice,T1,1,Automatic,main,16,20260227-101808,global,local,300,S,H,E,A,S-E.png,A-H.png,sS,hH,mask-2.png,mask-2.png,s,1,0.8495402999978978,none,-5,0,0.04700220000813715,0.04653780000808183,0.09957730000314768,0.09888679999858141,0.30022720000124536
RSVPLG03,cs,20260227-101826,1.0.2,20251105-084826,781,Practice,T1,1,Automatic,main,1,20260227-101841,local,global,750,S,H,A,A,A-S.png,H-A.png,sS,hH,mask-3.png,mask-2.png,s,1,0.44746959999611136,none,-5,0,0.041759100000490434,0.04771420000179205,0.09293860000616405,0.09988680000242312,0.7435713000013493
RSVPLG03,cs,20260227-101826,1.0.2,20251105-084826,781,Practice,T1,1,Automatic,main,2,20260227-101846,local,global,300,H,H,E,A,E-H.png,H-A.png,hH,hH,mask-3.png,mask-4.png,s,0,0.654458799996064,none,-5,0,0.04670409999380354,0.047142399998847395,0.09882819998892955,0.09950080000271555,0.2984221999940928
RSVPLG03,cs,20260227-101826,1.0.2,20251105-084826,781,Practice,T1,1,Automatic,main,3,20260227-101850,local,local,750,H,S,A,A,A-H.png,A-S.png,hH,sS,mask-4.png,mask-4.png,h,1,0.3121696000016527,none,-5,0,0.04675670000142418,0.04565080000611488,0.09966000000713393,0.09846850000030827,0.7500614000018686
RSVPLG03,cs,20260227-101826,1.0.2,20251105-084826,781,Practice,T1,1,Automatic,main,4,20260227-101855,local,global,300,H,H,A,E,A-H.png,H-E.png,hH,hH,mask-1.png,mask-2.png,s,0,0.3224783999903593,none,-5,0,0.04763589998765383,0.046689700000570156,0.09967699999106117,0.09865980000176933,0.30125249999400694
RSVPLG03,cs,20260227-101826,1.0.2,20251105-084826,781,Practice,T1,1,Automatic,main,5,20260227-101859,global,local,300,H,S,A,E,H-A.png,E-S.png,hH,sS,mask-2.png,mask-1.png,h,1,0.3369505000009667,none,-5,0,0.04851629999757279,0.049798000007285737,0.1004081999999471,0.10200139999506064,0.29931780000333674
RSVPLG03,cs,20260227-101826,1.0.2,20251105-084826,781,Practice,T1,1,Automatic,main,6,20260227-101903,local,global,750,H,S,A,A,A-H.png,S-A.png,hH,sS,mask-3.png,mask-4.png,s,0,0.5450915999972494,none,-5,0,0.04768230000627227,0.046781800003373064,0.09983069999725558,0.09973839999292977,0.7503978000022471
RSVPLG03,cs,20260227-101826,1.0.2,20251105-084826,781,Practice,T1,1,Automatic,main,7,20260227-101907,global,local,300,S,S,A,E,S-A.png,E-S.png,sS,sS,mask-4.png,mask-3.png,s,1,0.9988814999960596,none,-5,0,0.04551039999932982,0.047524499997962266,0.09954909999214578,0.10157119999348652,0.2979147000005469
RSVPLG03,cs,20260227-101826,1.0.2,20251105-084826,781,Practice,T1,1,Automatic,main,8,20260227-101912,global,global,750,H,H,A,E,H-A.png,H-E.png,hH,hH,mask-1.png,mask-4.png,h,1,0.36279780000040773,none,-5,0,0.04769770000712015,0.048083300003781915,0.09976950001146179,0.09924160000809934,0.7482761999999639
RSVPLG03,cs,20260227-101826,1.0.2,20251105-084826,781,Practice,T1,1,Automatic,main,9,20260227-101916,global,global,750,H,S,E,A,H-E.png,S-A.png,hH,sS,mask-3.png,mask-1.png,s,0,0.36186170000291895,none,-5,0,0.04749549999542069,0.04659820000233594,0.10039890000189189,0.10076869999465998,0.7494257000071229
RSVPLG03,cs,20260227-101826,1.0.2,20251105-084826,781,Practice,T1,1,Automatic,main,10,20260227-101921,global,global,300,S,S,A,A,S-A.png,S-A.png,sS,sS,mask-1.png,mask-2.png,h,0,0.4373400999902515,none,-5,0,0.047554299992043525,0.04763620000449009,0.10007499999483116,0.09845460001088213,0.30041339999297634
RSVPLG03,cs,20260227-101826,1.0.2,20251105-084826,781,Practice,T1,1,Automatic,main,11,20260227-101925,local,local,300,H,H,A,E,A-H.png,E-H.png,hH,hH,mask-1.png,mask-4.png,s,0,0.5469050000101561,none,-5,0,0.04930189999868162,0.048644800001056865,0.10134629999811295,0.10097790000145324,0.3009018000011565
RSVPLG03,cs,20260227-101826,1.0.2,20251105-084826,781,Practice,T1,1,Automatic,main,12,20260227-101929,global,global,300,H,H,E,E,H-E.png,H-E.png,hH,hH,mask-1.png,mask-2.png,h,1,0.2162246999941999,none,-5,0,0.04598279998754151,0.04724559999885969,0.09873519999382552,0.0983871999924304,0.30030899999837857
RSVPLG03,cs,20260227-101826,1.0.2,20251105-084826,781,Practice,T1,1,Automatic,main,13,20260227-101933,global,local,750,H,H,E,E,H-E.png,E-H.png,hH,hH,mask-1.png,mask-1.png,s,0,1.0658551000087755,none,-5,0,0.046954199991887435,0.04729840000800323,0.0986337999929674,0.10129180000512861,0.7485464999917895
RSVPLG03,cs,20260227-101826,1.0.2,20251105-084826,781,Practice,T1,1,Automatic,main,14,20260227-101938,local,local,750,S,H,A,A,A-S.png,A-H.png,sS,hH,mask-1.png,mask-3.png,h,0,0.25176030000147875,none,-5,0,0.046566000004531816,0.0477513999940129,0.09969509999791626,0.0999982000066666,0.7480648000055226
RSVPLG03,cs,20260227-101826,1.0.2,20251105-084826,781,Practice,T1,1,Automatic,main,15,20260227-101943,global,local,750,S,S,A,A,S-A.png,A-S.png,sS,sS,mask-1.png,mask-4.png,s,1,0.15110050000657793,none,-5,0,0.04650039999978617,0.04858329999842681,0.09948780000559054,0.10058339999523014,0.7480009999999311
RSVPLG03,cs,20260227-101826,1.0.2,20251105-084826,781,Practice,T1,1,Automatic,main,16,20260227-101947,local,local,300,H,S,E,E,E-H.png,E-S.png,hH,sS,mask-1.png,mask-2.png,s,0,0.5950708000018494,none,-5,0,0.04740989999845624,0.045685999997658655,0.09817880000628065,0.09986089999438263,0.30050670000491664
RSVPLG03,cs,20260227-102005,1.0.2,20251105-084826,781,Practice,T1,1,Automatic,main,1,20260227-102022,global,local,750,H,H,A,E,H-A.png,E-H.png,hH,hH,mask-1.png,mask-3.png,s,0,0.27426060001016594,none,-5,0,0.040592799996375106,0.04658910000580363,0.09279009999590926,0.09979160000511911,0.7453965000022436
RSVPLG03,cs,20260227-102005,1.0.2,20251105-084826,781,Practice,T1,1,Automatic,main,2,20260227-102026,global,global,750,S,S,E,A,S-E.png,S-A.png,sS,sS,mask-2.png,mask-2.png,h,0,0.1621900000027381,none,-5,0,0.047498100000666454,0.047670699990703724,0.09878380000009201,0.0998700999916764,0.7508666000067024
RSVPLG03,cs,20260227-102005,1.0.2,20251105-084826,781,Practice,T1,1,Automatic,main,3,20260227-102030,local,global,750,H,S,A,E,A-H.png,S-E.png,hH,sS,mask-2.png,mask-3.png,h,1,0.1633023000031244,none,-5,0,0.046611900004791096,0.04850790000637062,0.09961580000526737,0.09873179999704007,0.7517071000038413
RSVPLG03,cs,20260227-102005,1.0.2,20251105-084826,781,Practice,T1,1,Automatic,main,4,20260227-102035,local,local,750,S,H,A,E,A-S.png,E-H.png,sS,hH,mask-4.png,mask-4.png,s,1,0.2535074000043096,none,-5,0,0.046360799999092706,0.04919550000340678,0.09921240000403486,0.10237500000221189,0.7501600999967195
RSVPLG03,cs,20260227-102005,1.0.2,20251105-084826,781,Practice,T1,1,Automatic,main,5,20260227-102039,global,global,300,H,S,E,E,H-E.png,S-E.png,hH,sS,mask-4.png,mask-4.png,h,1,0.5567518000025302,none,-5,0,0.04860680000274442,0.047529100003885105,0.09997470000234898,0.09955369999806862,0.3013677999988431
RSVPLG03,cs,20260227-102005,1.0.2,20251105-084826,781,Practice,T1,1,Automatic,main,6,20260227-102043,global,local,300,H,S,A,A,H-A.png,A-S.png,hH,sS,mask-1.png,mask-1.png,s,0,0.30080150000867434,none,-5,0,0.047478799999225885,0.04754299999331124,0.10044100000231992,0.10062009999819566,0.3003791000082856
RSVPLG03,cs,20260227-102005,1.0.2,20251105-084826,781,Practice,T1,1,Automatic,main,7,20260227-102047,global,global,300,H,S,A,A,H-A.png,S-A.png,hH,sS,mask-3.png,mask-3.png,s,0,0.5968690000008792,none,-5,0,0.04778810001153033,0.04694140001083724,0.09901020000688732,0.1002067000081297,0.3000437000009697
RSVPLG03,cs,20260227-102005,1.0.2,20251105-084826,781,Practice,T1,1,Automatic,main,8,20260227-102051,local,local,750,H,H,A,E,A-H.png,E-H.png,hH,hH,mask-4.png,mask-2.png,h,1,0.38828020000073593,none,-5,0,0.047867900007986464,0.04781630000798032,0.10013160000380594,0.09991350000200327,0.7519661999976961
RSVPLG03,cs,20260227-102005,1.0.2,20251105-084826,781,Practice,T1,1,Automatic,main,9,20260227-102056,local,global,300,S,H,A,E,A-S.png,H-E.png,sS,hH,mask-2.png,mask-4.png,s,1,0.44205820000206586,none,-5,0,0.0475667999999132,0.04849080000713002,0.1005971000122372,0.10051180000300519,0.2997440000035567
RSVPLG03,cs,20260227-102005,1.0.2,20251105-084826,781,Practice,T1,1,Automatic,main,10,20260227-102100,global,local,750,S,H,A,E,S-A.png,E-H.png,sS,hH,mask-4.png,mask-2.png,h,0,0.3210774999897694,none,-5,0,0.04779079998843372,0.048765500003355555,0.10199579999607522,0.10194900000351481,0.7514222999889171
RSVPLG03,cs,20260227-102005,1.0.2,20251105-084826,781,Practice,T1,1,Automatic,main,11,20260227-102104,local,global,300,H,H,E,A,E-H.png,H-A.png,hH,hH,mask-4.png,mask-2.png,s,0,0.34591410000575706,none,-5,0,0.047519300002022646,0.0476351999968756,0.099959500003024,0.10107779999088962,0.3006317000108538
RSVPLG03,cs,20260227-102005,1.0.2,20251105-084826,781,Practice,T1,1,Automatic,main,12,20260227-102108,global,global,750,H,S,E,E,H-E.png,S-E.png,hH,sS,mask-4.png,mask-2.png,h,1,0.790809199999785,none,-5,0,0.04670429999532644,0.04869910000707023,0.10081409999111202,0.10076260000641923,0.7506255999905989
RSVPLG03,cs,20260227-102005,1.0.2,20251105-084826,781,Practice,T1,1,Automatic,main,13,20260227-102113,local,global,750,H,H,E,E,E-H.png,H-E.png,hH,hH,mask-3.png,mask-3.png,h,1,0.47862749999330845,none,-5,0,0.0458912999893073,0.04854610000620596,0.09964590000163298,0.09990450000623241,0.7514496999938274
RSVPLG03,cs,20260227-102005,1.0.2,20251105-084826,781,Practice,T1,1,Automatic,main,14,20260227-102118,global,local,300,H,S,E,A,H-E.png,A-S.png,hH,sS,mask-2.png,mask-4.png,s,0,0.42959200000041164,none,-5,0,0.04818670000531711,0.04769510000187438,0.10245410000788979,0.09988320000411477,0.302066600008402
RSVPLG03,cs,20260227-102005,1.0.2,20251105-084826,781,Practice,T1,1,Automatic,main,15,20260227-102122,local,local,300,H,H,A,A,A-H.png,A-H.png,hH,hH,mask-3.png,mask-3.png,h,1,0.6631168999883812,none,-5,0,0.04667219999828376,0.04865530000824947,0.09888530000171158,0.10080719999677967,0.30007739999564365
RSVPLG03,cs,20260227-102005,1.0.2,20251105-084826,781,Practice,T1,1,Automatic,main,16,20260227-102126,local,local,300,S,S,A,E,A-S.png,E-S.png,sS,sS,mask-1.png,mask-2.png,s,1,0.3364082000043709,none,-5,0,0.04677480000827927,0.04688210001040716,0.09995470001013018,0.10001829999964684,0.2996363999991445
RSVPLG03,cs,20260227-102152,1.0.2,20251105-084826,781,Practice,Both,1,Automatic,main,1,20260227-102216,local,global,300,H,H,E,E,E-H.png,H-E.png,hH,hH,mask-1.png,mask-1.png,h,1,0.6007794000033755,s,0,0.17323459999170154,0.042039899999508634,0.04881799999566283,0.09295180000481196,0.10100389999570325,0.29396120000455994
RSVPLG03,cs,20260227-102152,1.0.2,20251105-084826,781,Practice,Both,1,Automatic,main,2,20260227-102220,global,global,300,S,S,E,A,S-E.png,S-A.png,sS,sS,mask-1.png,mask-2.png,s,1,0.3591212000028463,h,0,0.24909569999726955,0.04858839999360498,0.04669300001114607,0.10082520000287332,0.09889860000112094,0.30068679999385495
RSVPLG03,cs,20260227-102152,1.0.2,20251105-084826,781,Practice,Both,1,Automatic,main,3,20260227-102225,local,global,750,H,H,E,E,E-H.png,H-E.png,hH,hH,mask-1.png,mask-4.png,h,1,0.3069056999956956,s,0,0.10648689999652561,0.04850299999816343,0.046843800009810366,0.10046359999978449,0.09987330000149086,0.7507141999958549
RSVPLG03,cs,20260227-102152,1.0.2,20251105-084826,781,Practice,Both,1,Automatic,main,4,20260227-102230,global,global,300,S,S,A,E,S-A.png,S-E.png,sS,sS,mask-4.png,mask-3.png,s,1,0.6362172999943141,s,1,0.08368470000277739,0.04758929999661632,0.04591110000910703,0.09860140000819229,0.10008620000735391,0.29966829999466427
RSVPLG03,cs,20260227-102152,1.0.2,20251105-084826,781,Practice,Both,1,Automatic,main,5,20260227-102234,global,local,750,S,H,E,A,S-E.png,A-H.png,sS,hH,mask-1.png,mask-2.png,h,0,0.4335312999901362,h,1,0.3439873000024818,0.04671239999879617,0.04860910000570584,0.09879380000347737,0.10165330000745598,0.7485071999981301
RSVPLG03,cs,20260227-102152,1.0.2,20251105-084826,781,Practice,Both,1,Automatic,main,6,20260227-102239,global,local,750,S,S,A,E,S-A.png,E-S.png,sS,sS,mask-1.png,mask-4.png,s,1,0.2857130999909714,s,1,0.086351799996919,0.048536000002059154,0.04790730000240728,0.10055540000030305,0.1000079000077676,0.7504604999994626
RSVPLG03,cs,20260227-102152,1.0.2,20251105-084826,781,Practice,Both,1,Automatic,main,7,20260227-102244,local,local,300,S,H,E,E,E-S.png,E-H.png,sS,hH,mask-2.png,mask-1.png,s,1,0.5087598999962211,h,1,0.40794350000214763,0.04561539999849629,0.04749630000151228,0.09866309999779332,0.10085320001235232,0.2985364999913145
RSVPLG03,cs,20260227-102152,1.0.2,20251105-084826,781,Practice,Both,1,Automatic,main,8,20260227-102248,local,local,750,S,H,E,A,E-S.png,A-H.png,sS,hH,mask-4.png,mask-4.png,s,1,0.2045839999918826,h,1,0.0043803000007756054,0.04675320000387728,0.04774119998910464,0.09918049999396317,0.10096379999595229,0.7485154000023613
RSVPLG03,cs,20260227-102152,1.0.2,20251105-084826,781,Practice,Both,1,Automatic,main,9,20260227-102253,global,global,750,S,S,E,E,S-E.png,S-E.png,sS,sS,mask-2.png,mask-3.png,s,1,0.3710761999973329,s,1,0.07763290000730194,0.04751810000743717,0.04651880000892561,0.09878400000161491,0.09952340000018012,0.7501218999968842
RSVPLG03,cs,20260227-102152,1.0.2,20251105-084826,781,Practice,Both,1,Automatic,main,10,20260227-102257,local,global,750,H,S,A,A,A-H.png,S-A.png,hH,sS,mask-2.png,mask-4.png,h,1,0.3295070000021951,s,1,0.5649850000045262,0.04654290000326,0.04749269998865202,0.10135420000005979,0.10072819999186322,0.7501900000061141
RSVPLG03,cs,20260227-102152,1.0.2,20251105-084826,781,Practice,Both,1,Automatic,main,11,20260227-102303,global,local,300,H,H,E,A,H-E.png,A-H.png,hH,hH,mask-2.png,mask-3.png,h,1,0.3146086000051582,s,0,0.03835500001150649,0.04770380000991281,0.04744679998839274,0.099219700001413,0.10063319999608211,0.2995462000108091
RSVPLG03,cs,20260227-102152,1.0.2,20251105-084826,781,Practice,Both,1,Automatic,main,12,20260227-102307,global,local,300,H,H,A,A,H-A.png,A-H.png,hH,hH,mask-1.png,mask-2.png,h,1,0.403401000003214,s,0,0.03857060000882484,0.047423099997104146,0.04666539999016095,0.10025819999282248,0.099599399996805,0.2999924000032479
RSVPLG03,cs,20260227-102152,1.0.2,20251105-084826,781,Practice,Both,1,Automatic,main,13,20260227-102311,local,local,750,S,S,E,A,E-S.png,A-S.png,sS,sS,mask-3.png,mask-4.png,s,1,0.2570158000016818,s,1,0.10030730000289623,0.04751309999846853,0.04749949999677483,0.10057229999802075,0.09949940000660717,0.7506150999979582
RSVPLG03,cs,20260227-102152,1.0.2,20251105-084826,781,Practice,Both,1,Automatic,main,14,20260227-102316,local,global,300,S,S,A,A,A-S.png,S-A.png,sS,sS,mask-3.png,mask-2.png,s,1,0.8311997999990126,h,0,0.14846150000812486,0.049593100004130974,0.04721319999953266,0.10158070000761654,0.09989270000369288,0.3018246999999974
RSVPLG03,cs,20260227-102152,1.0.2,20251105-084826,781,Practice,Both,1,Automatic,main,15,20260227-102321,global,global,750,S,H,A,A,S-A.png,H-A.png,sS,hH,mask-1.png,mask-3.png,s,1,0.4392874000041047,h,1,0.11466980000841431,0.04811100001097657,0.04661669999768492,0.10024860000703484,0.09964529999706428,0.7502290000120411
RSVPLG03,cs,20260227-102152,1.0.2,20251105-084826,781,Practice,Both,1,Automatic,main,16,20260227-102325,local,local,300,H,S,A,E,A-H.png,E-S.png,hH,sS,mask-4.png,mask-1.png,s,0,0.388020400001551,s,1,0.11900979999336414,0.04745839998940937,0.04759240000566933,0.09961409999232274,0.09983520000241697,0.30002319999039173
RSVPLG03,cs,20260227-102349,1.0.2,20251105-084826,781,Practice,Both,1,Automatic,main,1,20260227-102409,local,global,750,S,H,A,A,A-S.png,H-A.png,sS,hH,mask-2.png,mask-2.png,s,1,0.4904960999992909,h,1,0.618568799996865,0.04189069999847561,0.04652429999259766,0.09420849999878556,0.09882240000297315,0.745554599998286
RSVPLG03,cs,20260227-102349,1.0.2,20251105-084826,781,Practice,Both,1,Automatic,main,2,20260227-102413,global,local,300,H,H,E,A,H-E.png,A-H.png,hH,hH,mask-2.png,mask-4.png,h,1,0.6533991999895079,s,0,0.009969799997634254,0.04610999999567866,0.047947500002919696,0.10014480000245385,0.09927310000057332,0.2998294999997597
RSVPLG03,cs,20260227-102349,1.0.2,20251105-084826,781,Practice,Both,1,Automatic,main,3,20260227-102418,global,local,300,S,H,A,A,S-A.png,A-H.png,sS,hH,mask-2.png,mask-4.png,s,1,0.27212120000331197,s,0,0.24805519999063108,0.04782010000781156,0.04755899999872781,0.09915050001291092,0.10054239998862613,0.2999304000113625
RSVPLG03,cs,20260227-102349,1.0.2,20251105-084826,781,Practice,Both,1,Automatic,main,4,20260227-102422,local,global,750,H,S,E,E,E-H.png,S-E.png,hH,sS,mask-1.png,mask-2.png,h,1,0.31135779999021906,s,1,0.04054289999476168,0.04638400000112597,0.04712430000654422,0.10036280000349507,0.10150070000963751,0.7502846999996109
RSVPLG03,cs,20260227-102349,1.0.2,20251105-084826,781,Practice,Both,1,Automatic,main,5,20260227-102427,local,global,300,H,H,E,A,E-H.png,H-A.png,hH,hH,mask-1.png,mask-3.png,h,1,0.3013091000029817,h,1,0.12352649999957066,0.04762769999797456,0.0465286999969976,0.10065100000065286,0.09889850000035949,0.3015501000045333
RSVPLG03,cs,20260227-102349,1.0.2,20251105-084826,781,Practice,Both,1,Automatic,main,6,20260227-102431,local,local,300,H,S,E,A,E-H.png,A-S.png,hH,sS,mask-1.png,mask-4.png,h,1,0.32366160000674427,s,1,0.020121000008657575,0.0485165000136476,0.048497299998416565,0.09951990000263322,0.10053879999031778,0.29976010000973474
RSVPLG03,cs,20260227-102349,1.0.2,20251105-084826,781,Practice,Both,1,Automatic,main,7,20260227-102435,global,global,300,H,H,A,A,H-A.png,H-A.png,hH,hH,mask-1.png,mask-3.png,h,1,0.2708414999942761,h,1,0.15708740000263788,0.04752569999254774,0.04756830001133494,0.09956639999290928,0.09966540000459645,0.2998282999906223
RSVPLG03,cs,20260227-102349,1.0.2,20251105-084826,781,Practice,Both,1,Automatic,main,8,20260227-102439,global,global,750,H,S,A,E,H-A.png,S-E.png,hH,sS,mask-3.png,mask-2.png,h,1,0.5104462999879615,s,1,0.09229359999881126,0.047403699994902126,0.048675800004275516,0.09959440000238828,0.10098899999866262,0.7510722000006353
RSVPLG03,cs,20260227-102349,1.0.2,20251105-084826,781,Practice,Both,1,Automatic,main,9,20260227-102444,local,local,300,S,S,A,A,A-S.png,A-S.png,sS,sS,mask-4.png,mask-2.png,s,1,0.22827579999284353,s,1,0.12363990000449121,0.04630499999620952,0.04863710000063293,0.09916220000013709,0.10211120000167284,0.29820489999838173
RSVPLG03,cs,20260227-102349,1.0.2,20251105-084826,781,Practice,Both,1,Automatic,main,10,20260227-102448,local,local,750,H,S,E,A,E-H.png,A-S.png,hH,sS,mask-2.png,mask-1.png,h,1,0.7201695999974618,s,1,0.2227961000025971,0.04646879999199882,0.04932599999301601,0.10029539999959525,0.1018426999944495,0.7498818000021856
RSVPLG03,cs,20260227-102349,1.0.2,20251105-084826,781,Practice,Both,1,Automatic,main,11,20260227-102454,global,global,750,H,H,E,E,H-E.png,H-E.png,hH,hH,mask-1.png,mask-2.png,h,1,0.28349980000348296,h,1,0.1506264000054216,0.047200100001646206,0.04750570000032894,0.10016460000770167,0.10278139999718405,0.7520688000076916
RSVPLG03,cs,20260227-102349,1.0.2,20251105-084826,781,Practice,Both,1,Automatic,main,12,20260227-102458,local,local,750,S,H,A,A,A-S.png,A-H.png,sS,hH,mask-4.png,mask-4.png,h,0,0.620431200004532,s,0,0.001000199990812689,0.04748960000870284,0.04808429999684449,0.10052760000689887,0.10024850000627339,0.7500254000042332
RSVPLG03,cs,20260227-102349,1.0.2,20251105-084826,781,Practice,Both,1,Automatic,main,13,20260227-102503,global,local,750,S,H,E,A,S-E.png,A-H.png,sS,hH,mask-3.png,mask-4.png,s,1,0.5072104999999283,s,0,0.10327120000147261,0.046440100006293505,0.0475360999989789,0.10026279999874532,0.09978370000317227,0.749833399997442
RSVPLG03,cs,20260227-102349,1.0.2,20251105-084826,781,Practice,Both,1,Automatic,main,14,20260227-102508,global,local,750,S,S,E,E,S-E.png,E-S.png,sS,sS,mask-1.png,mask-1.png,s,1,0.5326526000135345,s,1,0.35666370000399183,0.04727140000613872,0.048649200005456805,0.09982689999742433,0.09988450001401361,0.7514152999938233
RSVPLG03,cs,20260227-102349,1.0.2,20251105-084826,781,Practice,Both,1,Automatic,main,15,20260227-102513,global,global,300,S,H,A,A,S-A.png,H-A.png,sS,hH,mask-4.png,mask-2.png,s,1,0.6672322000085842,h,1,0.11238229999435134,0.04866319999564439,0.04659230000106618,0.10115619999123737,0.10065999999642372,0.3019144999998389
RSVPLG03,cs,20260227-102349,1.0.2,20251105-084826,781,Practice,Both,1,Automatic,main,16,20260227-102517,local,global,300,S,H,E,E,E-S.png,H-E.png,sS,hH,mask-1.png,mask-2.png,s,1,0.8302556999988155,h,1,0.3433761000051163,0.045869699999457225,0.04737490000843536,0.09869329999492038,0.09921770000073593,0.2998144999874057
RSVPLG03,cs,20260227-102640,1.0.2,20251105-084826,781,Experiment,Both,1,Automatic,warmup,1,20260227-102702,local,global,750,S,S,E,A,E-S.png,S-A.png,sS,sS,mask-3.png,mask-2.png,s,1,0.21588960000372026,s,1,0.07434039999498054,0.041115300002275035,0.0465602000040235,0.09301359999517445,0.09846870000183117,0.7403604999999516
RSVPLG03,cs,20260227-102640,1.0.2,20251105-084826,781,Experiment,Both,1,Automatic,warmup,2,20260227-102707,global,global,750,H,H,A,E,H-A.png,H-E.png,hH,hH,mask-1.png,mask-2.png,h,1,0.27594089999911375,s,0,0.4680420999939088,0.047697299989522435,0.04809430000022985,0.09989630000200123,0.10000620000937488,0.7460504999908153
RSVPLG03,cs,20260227-102640,1.0.2,20251105-084826,781,Experiment,Both,1,Automatic,warmup,3,20260227-102711,local,global,300,S,S,E,E,E-S.png,S-E.png,sS,sS,mask-3.png,mask-3.png,s,1,0.28499549999833107,s,1,0.05890449999424163,0.04674969999177847,0.04659019999962766,0.10098239999206271,0.09907070000190288,0.2995980999985477
RSVPLG03,cs,20260227-102640,1.0.2,20251105-084826,781,Experiment,Both,1,Automatic,warmup,4,20260227-102715,global,local,300,S,S,A,E,S-A.png,E-S.png,sS,sS,mask-3.png,mask-2.png,s,1,0.23889039999630768,s,1,0.09182240000518505,0.04870369999844115,0.04649989999597892,0.10088880000694189,0.09789689999888651,0.29955160000827163
RSVPLG03,cs,20260227-102640,1.0.2,20251105-084826,781,Experiment,Both,1,Automatic,main,5,20260227-102719,local,local,300,H,S,E,A,E-H.png,A-S.png,hH,sS,mask-3.png,mask-2.png,s,0,0.2080534999986412,s,1,0.059113700001034886,0.04732230000081472,0.04657240000960883,0.0985136999952374,0.09958960000949446,0.2994528999988688
RSVPLG03,cs,20260227-102640,1.0.2,20251105-084826,781,Experiment,Both,1,Automatic,main,6,20260227-102724,local,global,750,H,S,A,A,A-H.png,S-A.png,hH,sS,mask-1.png,mask-4.png,h,1,0.3941309999936493,s,1,0.029737000004388392,0.04739740000513848,0.04876649999641813,0.09943020000355318,0.09999270000844263,0.7466629999980796
RSVPLG03,cs,20260227-102640,1.0.2,20251105-084826,781,Experiment,Both,1,Automatic,main,7,20260227-102728,local,local,750,S,S,E,E,E-S.png,E-S.png,sS,sS,mask-2.png,mask-2.png,s,1,0.2943297000019811,s,1,0.09125560001120903,0.04838870000094175,0.047594300005584955,0.100534900004277,0.10066729999380186,0.7457667999988189
RSVPLG03,cs,20260227-102640,1.0.2,20251105-084826,781,Experiment,Both,1,Automatic,main,8,20260227-102733,local,global,750,H,H,A,A,A-H.png,H-A.png,hH,hH,mask-3.png,mask-1.png,h,1,0.18470090000482742,h,1,0.10453340000822209,0.047498200001427904,0.048578700007055886,0.10048929999175016,0.1009221999993315,0.7457430999929784
RSVPLG03,cs,20260227-102640,1.0.2,20251105-084826,781,Experiment,Both,1,Automatic,main,9,20260227-102737,global,global,750,H,H,A,E,H-A.png,H-E.png,hH,hH,mask-2.png,mask-4.png,h,1,0.26922540001396555,h,1,0.10233539999171626,0.04845729999942705,0.04752069999813102,0.10128350000013597,0.09950120000576135,0.7472577000007732
RSVPLG03,cs,20260227-102640,1.0.2,20251105-084826,781,Experiment,Both,1,Automatic,main,10,20260227-102742,local,local,750,S,H,A,E,A-S.png,E-H.png,sS,hH,mask-1.png,mask-4.png,s,1,0.4863917000038782,h,1,0.6305507999932161,0.047486199997365475,0.04774669998732861,0.09946209999907296,0.09882469999138266,0.7473003000050085
RSVPLG03,cs,20260227-102640,1.0.2,20251105-084826,781,Experiment,Both,1,Automatic,main,11,20260227-102746,local,global,300,H,S,E,A,E-H.png,S-A.png,hH,sS,mask-1.png,mask-1.png,h,1,0.31887809999170713,s,1,0.023412399998051114,0.04774800001177937,0.04657099999894854,0.10091150000516791,0.09781609999481589,0.30029720001039095
RSVPLG03,cs,20260227-102640,1.0.2,20251105-084826,781,Experiment,Both,1,Automatic,main,12,20260227-102750,local,local,750,H,S,A,A,A-H.png,A-S.png,hH,sS,mask-4.png,mask-3.png,h,1,0.35343920000013895,h,0,0.20346420000714716,0.04555110000364948,0.04573159999563359,0.09853930000099353,0.09780550000141375,0.7465363000083016
RSVPLG03,cs,20260227-102640,1.0.2,20251105-084826,781,Experiment,Both,1,Automatic,main,13,20260227-102755,local,global,750,S,H,E,A,E-S.png,H-A.png,sS,hH,mask-2.png,mask-4.png,s,1,0.4685940999916056,s,0,0.04129559999273624,0.0475843000021996,0.04810520001046825,0.09961920000205282,0.10135120000632014,0.7459645999915665
RSVPLG03,cs,20260227-102640,1.0.2,20251105-084826,781,Experiment,Both,1,Automatic,main,14,20260227-102800,global,global,300,H,S,A,E,H-A.png,S-E.png,hH,sS,mask-2.png,mask-2.png,h,1,0.35908460000064224,s,1,0.6953001000074437,0.04655379999894649,0.04767030000220984,0.0988731999968877,0.10016090000863187,0.29742149999947287
RSVPLG03,cs,20260227-102640,1.0.2,20251105-084826,781,Experiment,Both,1,Automatic,main,15,20260227-102805,global,global,300,H,S,E,E,H-E.png,S-E.png,hH,sS,mask-4.png,mask-4.png,h,1,0.30068860000756104,s,1,0.23528110000188462,0.04550760000711307,0.04825739999068901,0.09857659999397583,0.10026629999629222,0.2974776000046404
RSVPLG03,cs,20260227-102640,1.0.2,20251105-084826,781,Experiment,Both,1,Automatic,main,16,20260227-102809,local,global,300,H,H,A,A,A-H.png,H-A.png,hH,hH,mask-4.png,mask-3.png,h,1,0.33571939999819733,s,0,0.15839409999898635,0.04655240000283811,0.048434600001201034,0.09960580000188202,0.10079379999660887,0.29869500000495464
RSVPLG03,cs,20260227-102640,1.0.2,20251105-084826,781,Experiment,Both,1,Automatic,main,17,20260227-102813,global,local,750,S,S,A,A,S-A.png,A-S.png,sS,sS,mask-2.png,mask-2.png,s,1,0.9553556999890134,h,0,0.10859390000405256,0.04652210000494961,0.04755029999068938,0.09851569999591447,0.09855319999041967,0.7463622000068426
RSVPLG03,cs,20260227-102640,1.0.2,20251105-084826,781,Experiment,Both,1,Automatic,main,18,20260227-102818,local,local,300,S,H,E,A,E-S.png,A-H.png,sS,hH,mask-3.png,mask-4.png,h,0,0.47715610000886954,s,0,0.28360999999858905,0.0464778000023216,0.0454914000001736,0.0994700000010198,0.09949150000466034,0.2997076999890851
RSVPLG03,cs,20260227-102640,1.0.2,20251105-084826,781,Experiment,Both,1,Automatic,main,19,20260227-102823,local,local,300,H,S,A,E,A-H.png,E-S.png,hH,sS,mask-1.png,mask-4.png,h,1,0.27971299999626353,s,1,0.10746610000205692,0.04652139999961946,0.04753979999804869,0.09855799999786541,0.09995600000547711,0.29745919999550097
RSVPLG03,cs,20260227-102640,1.0.2,20251105-084826,781,Experiment,Both,1,Automatic,main,20,20260227-102827,global,local,750,S,S,A,E,S-A.png,E-S.png,sS,sS,mask-4.png,mask-3.png,s,1,0.43487379999714904,s,1,0.26595329999690875,0.04749640000227373,0.04747979999228846,0.0996414000110235,0.09947729999839794,0.7455081000080099
RSVPLG03,cs,20260227-102640,1.0.2,20251105-084826,781,Experiment,Both,1,Automatic,main,21,20260227-102832,local,global,300,S,H,A,A,A-S.png,H-A.png,sS,hH,mask-1.png,mask-3.png,h,0,0.33066549999057315,s,0,0.10653470001125243,0.04724250000435859,0.04576720000477508,0.09933530000853352,0.0987407000066014,0.2988052000000607
RSVPLG03,cs,20260227-102640,1.0.2,20251105-084826,781,Experiment,Both,1,Automatic,main,22,20260227-102836,global,global,300,H,S,A,E,H-A.png,S-E.png,hH,sS,mask-4.png,mask-4.png,h,1,0.12704969999322202,s,1,0.12055669999972451,0.04841560000204481,0.047483200003625825,0.10028420000162441,0.10041810000257101,0.2984159999905387
RSVPLG03,cs,20260227-102640,1.0.2,20251105-084826,781,Experiment,Both,1,Automatic,main,23,20260227-102840,local,local,750,H,H,E,E,E-H.png,E-H.png,hH,hH,mask-3.png,mask-2.png,s,0,0.8525076000078116,s,0,0.2122152000083588,0.047652900000684895,0.04758569999830797,0.09938149999652524,0.09975759999360889,0.7460926000057952
RSVPLG03,cs,20260227-102640,1.0.2,20251105-084826,781,Experiment,Both,1,Automatic,main,24,20260227-102846,local,global,750,S,H,E,A,E-S.png,H-A.png,sS,hH,mask-1.png,mask-2.png,h,0,0.54070430000138,s,0,0.5557228999969084,0.04752379999263212,0.047486999988905154,0.09858259999600705,0.09878279999247752,0.7461402000044473
RSVPLG03,cs,20260227-102640,1.0.2,20251105-084826,781,Experiment,Both,1,Automatic,main,25,20260227-102851,local,global,300,H,H,E,A,E-H.png,H-A.png,hH,hH,mask-3.png,mask-3.png,h,1,0.3211071000114316,s,0,0.05050610000034794,0.04650849998870399,0.04907590000948403,0.09960570000112057,0.09994909999659285,0.29789239999081474
RSVPLG03,cs,20260227-102640,1.0.2,20251105-084826,781,Experiment,Both,1,Automatic,main,26,20260227-102933,global,local,750,S,H,E,E,S-E.png,E-H.png,sS,hH,mask-4.png,mask-4.png,s,1,0.3145775000011781,s,0,0.16603989999566693,0.046232799999415874,0.04756180000549648,0.0993025000061607,0.10055190000275616,0.7456164000032004
RSVPLG03,cs,20260227-102640,1.0.2,20251105-084826,781,Experiment,Both,1,Automatic,main,27,20260227-102937,local,global,300,H,H,E,E,E-H.png,H-E.png,hH,hH,mask-4.png,mask-4.png,s,0,0.2670953999913763,h,1,0.4432961999991676,0.04657500000030268,0.04635159998724703,0.09830339999462012,0.10019659998943098,0.2981920000020182
RSVPLG03,cs,20260227-102640,1.0.2,20251105-084826,781,Experiment,Both,1,Automatic,main,28,20260227-102941,global,local,300,S,S,A,E,S-A.png,E-S.png,sS,sS,mask-4.png,mask-1.png,h,0,0.37325409999175463,s,1,0.48579840001184493,0.04643689999647904,0.04747579999093432,0.09951919999730308,0.10052199999336153,0.2970980999962194
RSVPLG03,cs,20260227-102640,1.0.2,20251105-084826,781,Experiment,Both,1,Automatic,main,29,20260227-102946,local,local,300,S,H,A,A,A-S.png,A-H.png,sS,hH,mask-2.png,mask-2.png,s,1,0.6300606000004336,h,1,0.013047100001131184,0.04643030000443105,0.04840929999772925,0.10045040000113659,0.09970989999419544,0.2978482000035001
RSVPLG03,cs,20260227-102640,1.0.2,20251105-084826,781,Experiment,Both,1,Automatic,main,30,20260227-102951,local,global,750,S,S,E,A,E-S.png,S-A.png,sS,sS,mask-3.png,mask-1.png,h,0,0.30847249999351334,s,1,0.16948799999954645,0.047649400003138,0.047672300002886914,0.09973909999825992,0.09988880000310019,0.7459151999937603
RSVPLG03,cs,20260227-102640,1.0.2,20251105-084826,781,Experiment,Both,1,Automatic,main,31,20260227-102955,global,global,750,H,H,E,E,H-E.png,H-E.png,hH,hH,mask-2.png,mask-3.png,h,1,0.22624139999970794,h,1,0.14768540000659414,0.04768650000914931,0.04765749999205582,0.09987700000056066,0.09988239999802317,0.7461065000097733
RSVPLG03,cs,20260227-102640,1.0.2,20251105-084826,781,Experiment,Both,1,Automatic,main,32,20260227-103000,local,global,300,S,H,E,A,E-S.png,H-A.png,sS,hH,mask-1.png,mask-1.png,h,0,0.36222369999450166,s,0,0.4589331999886781,0.04705470000044443,0.04854410000552889,0.09868879998975899,0.09976450000249315,0.29828299999644514
RSVPLG03,cs,20260227-102640,1.0.2,20251105-084826,781,Experiment,Both,1,Automatic,main,33,20260227-103004,global,local,300,H,S,A,E,H-A.png,E-S.png,hH,sS,mask-4.png,mask-4.png,h,1,0.12235540000256151,s,1,0.2668495999969309,0.04767859999265056,0.04675850000057835,0.09902249999868218,0.09775770000123885,0.2997486999956891
RSVPLG03,cs,20260227-102640,1.0.2,20251105-084826,781,Experiment,Both,1,Automatic,main,34,20260227-103008,global,global,300,S,S,E,A,S-E.png,S-A.png,sS,sS,mask-2.png,mask-3.png,h,0,0.14824290000251494,s,1,0.22867480000422802,0.047487600008025765,0.046479199998429976,0.10048140000435524,0.09906960000807885,0.29871170000114944
RSVPLG03,cs,20260227-102640,1.0.2,20251105-084826,781,Experiment,Both,1,Automatic,main,35,20260227-103012,local,local,300,H,S,E,E,E-H.png,E-S.png,hH,sS,mask-4.png,mask-2.png,s,0,0.5889068999968003,s,1,0.12153010000474751,0.04849999998987187,0.04688229999737814,0.10053389999666251,0.09992670000065118,0.2987756999937119
RSVPLG03,cs,20260227-102640,1.0.2,20251105-084826,781,Experiment,Both,1,Automatic,main,36,20260227-103016,local,global,750,H,S,A,E,A-H.png,S-E.png,hH,sS,mask-2.png,mask-4.png,h,1,0.384854699994321,s,1,0.10892530001001433,0.048635800005286,0.04647250000562053,0.09985909999522846,0.0995013000065228,0.7482471999974223
RSVPLG03,cs,20260227-102640,1.0.2,20251105-084826,781,Experiment,Both,1,Automatic,main,37,20260227-103021,global,local,300,S,H,A,E,S-A.png,E-H.png,sS,hH,mask-1.png,mask-2.png,h,0,0.4347825000004377,s,0,0.15910730000177864,0.04757170000812039,0.047155600012047216,0.09879830000863876,0.10015290000592358,0.298161099999561
RSVPLG03,cs,20260227-102640,1.0.2,20251105-084826,781,Experiment,Both,1,Automatic,main,38,20260227-103026,global,local,300,H,H,E,E,H-E.png,E-H.png,hH,hH,mask-2.png,mask-4.png,h,1,0.2898824000003515,h,1,0.31059670000104234,0.04769190000661183,0.04773219999333378,0.10089159999915864,0.09992619999684393,0.2983362000086345
RSVPLG03,cs,20260227-102640,1.0.2,20251105-084826,781,Experiment,Both,1,Automatic,main,39,20260227-103030,local,global,750,H,S,E,E,E-H.png,S-E.png,hH,sS,mask-2.png,mask-4.png,s,0,0.5640300000086427,h,0,0.2472103999898536,0.046113999997032806,0.04765979999501724,0.10044979999656789,0.09971189999487251,0.7464525999967009
RSVPLG03,cs,20260227-102640,1.0.2,20251105-084826,781,Experiment,Both,1,Automatic,main,40,20260227-103035,global,global,750,H,H,E,E,H-E.png,H-E.png,hH,hH,mask-2.png,mask-1.png,h,1,0.4184384999971371,s,0,0.15311560001282487,0.04819319999660365,0.046633300007670186,0.10041220000130124,0.09969590000400785,0.7468437999923481
RSVPLG03,cs,20260227-102640,1.0.2,20251105-084826,781,Experiment,Both,1,Automatic,main,41,20260227-103040,global,local,300,H,S,A,E,H-A.png,E-S.png,hH,sS,mask-3.png,mask-2.png,h,1,0.11788799999339972,s,1,0.024575799994636327,0.04695529998571146,0.04745790000015404,0.10007509999559261,0.09959120000712574,0.2986339999915799
RSVPLG03,cs,20260227-102640,1.0.2,20251105-084826,781,Experiment,Both,1,Automatic,main,42,20260227-103044,global,local,750,H,H,E,A,H-E.png,A-H.png,hH,hH,mask-3.png,mask-1.png,h,1,0.29470290000608657,h,1,0.10054050000326242,0.04745920001005288,0.04736070000217296,0.09948160000203643,0.10015640000347048,0.7460319000092568
RSVPLG03,cs,20260227-102640,1.0.2,20251105-084826,781,Experiment,Both,1,Automatic,main,43,20260227-103048,local,local,300,H,S,E,E,E-H.png,E-S.png,hH,sS,mask-2.png,mask-1.png,h,1,0.278430100006517,s,1,0.09262880000460427,0.04634549999900628,0.0473708999925293,0.09916830000292975,0.09846059999836143,0.2992279000027338
RSVPLG03,cs,20260227-102640,1.0.2,20251105-084826,781,Experiment,Both,1,Automatic,main,44,20260227-103052,local,local,750,H,H,E,E,E-H.png,E-H.png,hH,hH,mask-1.png,mask-2.png,h,1,0.3080493000015849,h,1,0.13572230000863783,0.0484199000056833,0.04752550000557676,0.10135139999329112,0.09951960000034887,0.7472585999930743
RSVPLG03,cs,20260227-102640,1.0.2,20251105-084826,781,Experiment,Both,1,Automatic,main,45,20260227-103057,local,global,300,H,H,E,A,E-H.png,H-A.png,hH,hH,mask-2.png,mask-4.png,s,0,0.7293250000075204,s,0,0.12580399999569636,0.04732569999760017,0.04774219999671914,0.09934549999888986,0.1007716000021901,0.2981071999965934
RSVPLG03,cs,20260227-102640,1.0.2,20251105-084826,781,Experiment,Both,1,Automatic,main,46,20260227-103101,global,global,300,S,S,E,A,S-E.png,S-A.png,sS,sS,mask-3.png,mask-3.png,h,0,0.1220506999961799,s,1,0.1073684000002686,0.04786299999977928,0.04767840000567958,0.09997129999101162,0.09888449999561999,0.2996355999930529
RSVPLG03,cs,20260227-102640,1.0.2,20251105-084826,781,Experiment,Both,1,Automatic,main,47,20260227-103105,local,local,300,H,S,E,E,E-H.png,E-S.png,hH,sS,mask-2.png,mask-3.png,s,0,0.32250749999366235,s,1,0.08458339999197051,0.045815700010280125,0.04868370000622235,0.09833160000562202,0.09997420001309365,0.29704510000010487
RSVPLG03,cs,20260227-102640,1.0.2,20251105-084826,781,Experiment,Both,1,Automatic,main,48,20260227-103110,local,global,750,S,S,E,A,E-S.png,S-A.png,sS,sS,mask-2.png,mask-4.png,s,1,0.5121428999991622,s,1,0.05579079999006353,0.045697699999436736,0.047123299998929724,0.09877539999433793,0.1002264999988256,0.7452045999962138
RSVPLG03,cs,20260227-102640,1.0.2,20251105-084826,781,Experiment,Both,1,Automatic,main,49,20260227-103114,global,global,750,S,S,E,E,S-E.png,S-E.png,sS,sS,mask-2.png,mask-2.png,s,1,0.47480799999902956,h,0,0.007066699996357784,0.04867489999742247,0.04681719999643974,0.10170509999443311,0.10031470000103582,0.7475310000008903
RSVPLG03,cs,20260227-102640,1.0.2,20251105-084826,781,Experiment,Both,1,Automatic,main,50,20260227-103119,local,global,300,H,S,A,A,A-H.png,S-A.png,hH,sS,mask-4.png,mask-4.png,s,0,0.5782389000087278,h,0,0.7222344000037992,0.04652669999632053,0.046542399999452755,0.09952920000068843,0.09867710000253282,0.29799029999412596
RSVPLG03,cs,20260227-102640,1.0.2,20251105-084826,781,Experiment,Both,1,Automatic,main,51,20260227-103200,global,local,750,S,H,E,A,S-E.png,A-H.png,sS,hH,mask-3.png,mask-2.png,s,1,0.2506076999998186,h,1,0.42661779999616556,0.04624499999044929,0.045686299999943,0.09942439998849295,0.09816480000154115,0.747334999992745
RSVPLG03,cs,20260227-102640,1.0.2,20251105-084826,781,Experiment,Both,1,Automatic,main,52,20260227-103205,global,global,750,H,S,A,A,H-A.png,S-A.png,hH,sS,mask-1.png,mask-4.png,h,1,0.30997029998979997,s,1,0.47054719999141525,0.04614429999492131,0.046816299989586696,0.09940929998992942,0.09892079999553971,0.7462521999987075
RSVPLG03,cs,20260227-102640,1.0.2,20251105-084826,781,Experiment,Both,1,Automatic,main,53,20260227-103209,global,global,750,S,S,E,A,S-E.png,S-A.png,sS,sS,mask-4.png,mask-3.png,s,1,0.2695421000098577,s,1,0.06538739999814425,0.04754070000490174,0.04697989999840502,0.10057390001020394,0.09872749999340158,0.7463984000060009
RSVPLG03,cs,20260227-102640,1.0.2,20251105-084826,781,Experiment,Both,1,Automatic,main,54,20260227-103214,local,local,300,H,H,E,A,E-H.png,A-H.png,hH,hH,mask-4.png,mask-2.png,h,1,0.29966390000481624,s,0,0.13945889999740757,0.046331999998074025,0.04753730000811629,0.10038180000265129,0.09845550000318326,0.2995605999894906
RSVPLG03,cs,20260227-102640,1.0.2,20251105-084826,781,Experiment,Both,1,Automatic,main,55,20260227-103218,local,global,300,H,H,E,E,E-H.png,H-E.png,hH,hH,mask-4.png,mask-1.png,s,0,0.2918892999878153,s,0,0.07090140000218526,0.04653150000376627,0.0465286999969976,0.10053409999818541,0.09858390000590589,0.2995833000022685
RSVPLG03,cs,20260227-102640,1.0.2,20251105-084826,781,Experiment,Both,1,Automatic,main,56,20260227-103222,global,global,300,H,S,A,A,H-A.png,S-A.png,hH,sS,mask-4.png,mask-4.png,h,1,0.21032330000889488,s,1,0.0367404999997234,0.04744939999363851,0.0460324000014225,0.10065469999972265,0.0991914999904111,0.2990116000000853
RSVPLG03,cs,20260227-102640,1.0.2,20251105-084826,781,Experiment,Both,1,Automatic,main,57,20260227-103226,global,global,300,S,H,E,E,S-E.png,H-E.png,sS,hH,mask-3.png,mask-2.png,s,1,0.15884550000191666,h,1,0.14788429999316577,0.04736310000589583,0.04543539999576751,0.09858800000802148,0.0984930999984499,0.29989300000306685
RSVPLG03,cs,20260227-102640,1.0.2,20251105-084826,781,Experiment,Both,1,Automatic,main,58,20260227-103230,local,local,750,S,S,A,A,A-S.png,A-S.png,sS,sS,mask-3.png,mask-4.png,s,1,0.25054459999955725,s,1,0.060219999999389984,0.046719599995412864,0.04782179999165237,0.10001829999964684,0.10002299999177922,0.7454652000014903
RSVPLG03,cs,20260227-102640,1.0.2,20251105-084826,781,Experiment,Both,1,Automatic,main,59,20260227-103235,global,local,300,S,S,E,A,S-E.png,A-S.png,sS,sS,mask-3.png,mask-2.png,h,0,0.3607138999941526,s,1,0.29264660000626463,0.04810400000133086,0.04609240000718273,0.09912800000165589,0.0989800999959698,0.2997135000041453
RSVPLG03,cs,20260227-102640,1.0.2,20251105-084826,781,Experiment,Both,1,Automatic,main,60,20260227-103239,global,global,300,H,S,E,A,H-E.png,S-A.png,hH,sS,mask-1.png,mask-4.png,h,1,0.1641998999984935,s,1,0.07556120000663213,0.0463618000067072,0.04694709999603219,0.09957770000619348,0.09995649999473244,0.29812600000877865
RSVPLG03,cs,20260227-102640,1.0.2,20251105-084826,781,Experiment,Both,1,Automatic,main,61,20260227-103243,local,local,300,H,S,A,A,A-H.png,A-S.png,hH,sS,mask-4.png,mask-2.png,s,0,0.2166371000057552,s,1,0.10357659999863245,0.04683889998705126,0.04769910000322852,0.10003859999414999,0.09989960001257714,0.29761879998841323
RSVPLG03,cs,20260227-102640,1.0.2,20251105-084826,781,Experiment,Both,1,Automatic,main,62,20260227-103247,global,global,750,S,H,E,E,S-E.png,H-E.png,sS,hH,mask-4.png,mask-3.png,s,1,0.5004675000091083,h,1,0.02265800000168383,0.04750869999406859,0.04569330000958871,0.09851029999845196,0.09783640000387095,0.7467728999909014
RSVPLG03,cs,20260227-102640,1.0.2,20251105-084826,781,Experiment,Both,1,Automatic,main,63,20260227-103252,global,global,300,H,H,A,A,H-A.png,H-A.png,hH,hH,mask-1.png,mask-2.png,h,1,0.16124619999027345,h,1,0.09237549999670591,0.04652989999158308,0.04752839999855496,0.10034789999190252,0.09973380000155885,0.2983630999951856
RSVPLG03,cs,20260227-102640,1.0.2,20251105-084826,781,Experiment,Both,1,Automatic,main,64,20260227-103256,local,local,750,H,S,E,E,E-H.png,E-S.png,hH,sS,mask-4.png,mask-2.png,s,0,0.3428330000024289,s,1,0.11727390000305604,0.047422399991774,0.045949799998197705,0.09918740000284743,0.09858609999355394,0.747746900000493
RSVPLG03,cs,20260227-102640,1.0.2,20251105-084826,781,Experiment,Both,1,Automatic,main,65,20260227-103300,global,global,300,S,S,E,A,S-E.png,S-A.png,sS,sS,mask-1.png,mask-1.png,s,1,0.43161179999879096,h,0,0.5435942000040086,0.046754800001508556,0.04796520000672899,0.09885450000001583,0.10083989999839105,0.29758649998984765
RSVPLG03,cs,20260227-102640,1.0.2,20251105-084826,781,Experiment,Both,1,Automatic,main,66,20260227-103305,global,local,750,S,S,E,E,S-E.png,E-S.png,sS,sS,mask-2.png,mask-2.png,s,1,0.3708961999946041,s,1,0.05309790000319481,0.04623189999256283,0.047642700010328554,0.09945019999577198,0.09966250001161825,0.7472448999906192
RSVPLG03,cs,20260227-102640,1.0.2,20251105-084826,781,Experiment,Both,1,Automatic,main,67,20260227-103309,local,global,750,S,H,E,E,E-S.png,H-E.png,sS,hH,mask-1.png,mask-3.png,s,1,0.36024510000424925,h,1,0.07531879999442026,0.046841600007610396,0.04853099999309052,0.09905810000782367,0.10060539998812601,0.744912000009208
RSVPLG03,cs,20260227-102640,1.0.2,20251105-084826,781,Experiment,Both,1,Automatic,main,68,20260227-103314,local,local,300,S,S,A,E,A-S.png,E-S.png,sS,sS,mask-3.png,mask-1.png,s,1,0.34521030000178143,s,1,0.08596399999805726,0.04753359999449458,0.047577400007867254,0.10058919999573845,0.09959660000458825,0.30019009999523405
RSVPLG03,cs,20260227-102640,1.0.2,20251105-084826,781,Experiment,Both,1,Automatic,main,69,20260227-103318,global,local,750,H,S,A,A,H-A.png,A-S.png,hH,sS,mask-3.png,mask-1.png,h,1,0.32202459999825805,h,0,0.15522929999860935,0.047934199988958426,0.047669000006862916,0.09852079999109264,0.09987760000512935,0.7462434999906691
RSVPLG03,cs,20260227-102640,1.0.2,20251105-084826,781,Experiment,Both,1,Automatic,main,70,20260227-103323,global,global,750,H,S,A,E,H-A.png,S-E.png,hH,sS,mask-1.png,mask-3.png,h,1,0.30263180000474676,s,1,0.03935340000316501,0.04762939999636728,0.04668719999608584,0.0996925000072224,0.09983769999234937,0.7462171000079252
RSVPLG03,cs,20260227-102640,1.0.2,20251105-084826,781,Experiment,Both,1,Automatic,main,71,20260227-103327,local,local,300,S,S,E,A,E-S.png,A-S.png,sS,sS,mask-3.png,mask-1.png,h,0,0.338668600001256,s,1,0.1804580000025453,0.04852109999046661,0.04760950000490993,0.10143309998966288,0.10002759999770205,0.3000638999947114
RSVPLG03,cs,20260227-102640,1.0.2,20251105-084826,781,Experiment,Both,1,Automatic,main,72,20260227-103331,local,global,300,S,S,E,A,E-S.png,S-A.png,sS,sS,mask-2.png,mask-3.png,s,1,0.3394092999951681,s,1,0.07276679998904001,0.04653690000122879,0.04766070000187028,0.09970859999884851,0.09955040000204463,0.29858400000375696
RSVPLG03,cs,20260227-102640,1.0.2,20251105-084826,781,Experiment,Both,1,Automatic,main,73,20260227-103336,local,local,750,H,H,A,A,A-H.png,A-H.png,hH,hH,mask-2.png,mask-3.png,s,0,0.585900699996273,s,0,0.2304500000027474,0.04722290000063367,0.046689900002093054,0.1003086999990046,0.09885720000602305,0.7469043999881251
RSVPLG03,cs,20260227-102640,1.0.2,20251105-084826,781,Experiment,Both,1,Automatic,main,74,20260227-103341,global,local,300,H,H,E,A,H-E.png,A-H.png,hH,hH,mask-2.png,mask-2.png,h,1,0.2041417000000365,h,1,0.06340330000966787,0.047205299997585826,0.04756170000473503,0.10019610000017565,0.09909269999479875,0.29800219999742694
RSVPLG03,cs,20260227-102640,1.0.2,20251105-084826,781,Experiment,Both,1,Automatic,main,75,20260227-103345,global,local,750,S,S,E,E,S-E.png,E-S.png,sS,sS,mask-1.png,mask-1.png,s,1,0.30837460000475403,s,1,0.05500810001103673,0.04856729999301024,0.04772130001219921,0.10155510000186041,0.09973890001128893,0.7481619999889517
RSVPLG03,cs,20260227-102640,1.0.2,20251105-084826,781,Experiment,Both,1,Automatic,main,76,20260227-103426,global,global,750,S,S,E,E,S-E.png,S-E.png,sS,sS,mask-4.png,mask-4.png,s,1,0.25136619999830145,s,1,0.03768990001117345,0.047261100000469014,0.04751979999127798,0.1002983999933349,0.10055479999573436,0.7459823999961372
RSVPLG03,cs,20260227-102640,1.0.2,20251105-084826,781,Experiment,Both,1,Automatic,main,77,20260227-103430,global,local,750,S,H,A,E,S-A.png,E-H.png,sS,hH,mask-1.png,mask-2.png,s,1,0.27707310000550933,h,1,0.45276539999758825,0.0468066000030376,0.04833150000195019,0.09903450000274461,0.1011960000032559,0.7458820000028936
RSVPLG03,cs,20260227-102640,1.0.2,20251105-084826,781,Experiment,Both,1,Automatic,main,78,20260227-103435,local,global,750,H,S,A,E,A-H.png,S-E.png,hH,sS,mask-2.png,mask-1.png,s,0,0.3902801000076579,h,0,0.5825678000110202,0.047558000005665235,0.047640799995861016,0.09966990000975784,0.09915910000563599,0.7469217000034405
RSVPLG03,cs,20260227-102640,1.0.2,20251105-084826,781,Experiment,Both,1,Automatic,main,79,20260227-103439,local,local,750,S,S,A,A,A-S.png,A-S.png,sS,sS,mask-2.png,mask-1.png,s,1,0.14014220000535715,s,1,0.07158499999786727,0.04633389999798965,0.04742180000175722,0.09927750000497326,0.09937390001141466,0.7471941999974661
RSVPLG03,cs,20260227-102640,1.0.2,20251105-084826,781,Experiment,Both,1,Automatic,main,80,20260227-103444,global,local,300,H,S,A,A,H-A.png,A-S.png,hH,sS,mask-3.png,mask-4.png,s,0,0.3150844000047073,s,1,0.06136500000138767,0.04814739999710582,0.04749989999982063,0.10017269999661949,0.09847449998778757,0.2997054000006756
RSVPLG03,cs,20260227-102640,1.0.2,20251105-084826,781,Experiment,Both,1,Automatic,main,81,20260227-103448,local,global,750,H,H,A,A,A-H.png,H-A.png,hH,hH,mask-4.png,mask-2.png,s,0,0.24298309998994227,s,0,0.07502499999827705,0.04783569999563042,0.04666510000242852,0.09928389999549836,0.09877670000423677,0.74710779999441
RSVPLG03,cs,20260227-102640,1.0.2,20251105-084826,781,Experiment,Both,1,Automatic,main,82,20260227-103452,global,local,300,S,H,A,A,S-A.png,A-H.png,sS,hH,mask-3.png,mask-1.png,s,1,0.22984279999218415,h,1,0.13701310000033118,0.04845970000314992,0.04781679999723565,0.10045589999936055,0.0999976000020979,0.2990967000077944
RSVPLG03,cs,20260227-102640,1.0.2,20251105-084826,781,Experiment,Both,1,Automatic,main,83,20260227-103456,local,global,750,S,S,A,A,A-S.png,S-A.png,sS,sS,mask-3.png,mask-1.png,s,1,0.34958380000898615,s,1,0.12524280000070576,0.04650749999564141,0.04834179999306798,0.09959830000298098,0.10110010000062175,0.7450925000011921
RSVPLG03,cs,20260227-102640,1.0.2,20251105-084826,781,Experiment,Both,1,Automatic,main,84,20260227-103501,local,local,750,H,S,A,E,A-H.png,E-S.png,hH,sS,mask-1.png,mask-3.png,s,0,0.35351519999676384,s,1,0.09999970000353642,0.047313700008089654,0.045809000002918765,0.10030700000061188,0.09991740000259597,0.7473663999990094
RSVPLG03,cs,20260227-102640,1.0.2,20251105-084826,781,Experiment,Both,1,Automatic,main,85,20260227-103506,global,local,750,H,S,E,E,H-E.png,E-S.png,hH,sS,mask-3.png,mask-4.png,h,1,0.3582553000014741,s,1,0.07361110000056215,0.04749949999677483,0.0471864999999525,0.09950820000085514,0.09920870000496507,0.7470106999971904
RSVPLG03,cs,20260227-102640,1.0.2,20251105-084826,781,Experiment,Both,1,Automatic,main,86,20260227-103510,local,local,300,H,S,E,A,E-H.png,A-S.png,hH,sS,mask-1.png,mask-3.png,s,0,0.5098453999962658,s,1,0.36307599999418017,0.0476522999961162,0.04717069999605883,0.09965969999029767,0.09885089998715557,0.29966350000177044
RSVPLG03,cs,20260227-102640,1.0.2,20251105-084826,781,Experiment,Both,1,Automatic,main,87,20260227-103515,global,local,300,S,H,E,E,S-E.png,E-H.png,sS,hH,mask-3.png,mask-2.png,h,0,0.2712030999973649,s,0,0.025154000002657995,0.046908299991628155,0.04866739999852143,0.09974449999572244,0.1002130999986548,0.29729410000436474
RSVPLG03,cs,20260227-102640,1.0.2,20251105-084826,781,Experiment,Both,1,Automatic,main,88,20260227-103519,global,global,750,S,H,E,E,S-E.png,H-E.png,sS,hH,mask-4.png,mask-4.png,s,1,0.21589870000025257,h,1,0.02655320000485517,0.04549550000228919,0.04755210000439547,0.09949490000144579,0.09961119999934454,0.7454858999990392
RSVPLG03,cs,20260227-102640,1.0.2,20251105-084826,781,Experiment,Both,1,Automatic,main,89,20260227-103523,global,global,300,S,S,A,A,S-A.png,S-A.png,sS,sS,mask-4.png,mask-2.png,s,1,0.2970352999982424,h,0,0.14948369999183342,0.04854589999013115,0.047515699989162385,0.10056979999353644,0.10034479999740142,0.2991718999983277
RSVPLG03,cs,20260227-102640,1.0.2,20251105-084826,781,Experiment,Both,1,Automatic,main,90,20260227-103528,global,global,750,S,H,E,E,S-E.png,H-E.png,sS,hH,mask-3.png,mask-1.png,s,1,0.2970824999938486,h,1,0.1403022000013152,0.04709310000180267,0.04863920000207145,0.09902970000985079,0.09965970000484958,0.7464955000032205
RSVPLG03,cs,20260227-102640,1.0.2,20251105-084826,781,Experiment,Both,1,Automatic,main,91,20260227-103532,local,global,300,S,S,E,A,E-S.png,S-A.png,sS,sS,mask-3.png,mask-1.png,s,1,0.3473621000011917,s,1,0.08557790001214016,0.04753730000811629,0.04748960000870284,0.09865880000870675,0.10048340000503231,0.2980046000011498
RSVPLG03,cs,20260227-102640,1.0.2,20251105-084826,781,Experiment,Both,1,Automatic,main,92,20260227-103536,local,global,300,S,H,E,A,E-S.png,H-A.png,sS,hH,mask-3.png,mask-2.png,s,1,0.2474544999859063,h,1,0.10806959999899846,0.04755679999652784,0.04751150000083726,0.09858459999668412,0.10018140000465792,0.29809240000031423
RSVPLG03,cs,20260227-102640,1.0.2,20251105-084826,781,Experiment,Both,1,Automatic,main,93,20260227-103541,global,local,750,S,H,E,E,S-E.png,E-H.png,sS,hH,mask-4.png,mask-4.png,s,1,0.3836287000012817,h,1,0.6241198999923654,0.04750119999516755,0.04864520000410266,0.09955790000094566,0.09971190000942443,0.7462056999938795
RSVPLG03,cs,20260227-102640,1.0.2,20251105-084826,781,Experiment,Both,1,Automatic,main,94,20260227-103545,local,local,750,S,S,A,E,A-S.png,E-S.png,sS,sS,mask-1.png,mask-2.png,s,1,0.34237310000753496,s,1,0.09306140000990126,0.04651620000367984,0.048453600000357255,0.09915680000267457,0.1002108000102453,0.7466258999920683
RSVPLG03,cs,20260227-102640,1.0.2,20251105-084826,781,Experiment,Both,1,Automatic,main,95,20260227-103550,global,local,300,S,H,E,E,S-E.png,E-H.png,sS,hH,mask-3.png,mask-4.png,s,1,0.2575765999936266,h,1,0.023972700000740588,0.04747620000853203,0.047415699998964556,0.09943890001159161,0.09875199999078177,0.2981068000080995
RSVPLG03,cs,20260227-102640,1.0.2,20251105-084826,781,Experiment,Both,1,Automatic,main,96,20260227-103554,global,global,750,H,H,A,A,H-A.png,H-A.png,hH,hH,mask-3.png,mask-1.png,h,1,0.2212121000047773,h,1,0.07418239999969956,0.047585299995262176,0.047519300002022646,0.09963979999884032,0.10055350000038743,0.7458615999930771
RSVPLG03,cs,20260227-102640,1.0.2,20251105-084826,781,Experiment,Both,1,Automatic,main,97,20260227-103558,global,local,300,S,S,E,A,S-E.png,A-S.png,sS,sS,mask-4.png,mask-1.png,h,0,0.2701375000033295,s,1,0.00832750000699889,0.04574869999487419,0.04757919999246951,0.09981699999480043,0.09858199999143835,0.29936459999589715
RSVPLG03,cs,20260227-102640,1.0.2,20251105-084826,781,Experiment,Both,1,Automatic,main,98,20260227-103602,global,local,750,H,S,A,E,H-A.png,E-S.png,hH,sS,mask-1.png,mask-4.png,h,1,0.259068200000911,s,1,0.06312789999356028,0.047409700011485256,0.04652989999158308,0.10043240000959486,0.09854099999938626,0.7473508000111906
RSVPLG03,cs,20260227-102640,1.0.2,20251105-084826,781,Experiment,Both,1,Automatic,main,99,20260227-103607,local,local,750,H,S,A,E,A-H.png,E-S.png,hH,sS,mask-2.png,mask-4.png,h,1,0.33309689999441616,s,1,0.024457200008328073,0.046989599999506027,0.046598100001574494,0.09922399999049958,0.0979485999996541,0.7461868999962462
RSVPLG03,cs,20260227-102640,1.0.2,20251105-084826,781,Experiment,Both,1,Automatic,main,100,20260227-103612,global,global,300,S,S,A,A,S-A.png,S-A.png,sS,sS,mask-4.png,mask-4.png,h,0,0.44995700000436045,s,1,0.5886791000084486,0.04562029999215156,0.047634199989261106,0.09967899999173824,0.10077619999356102,0.29751370000303723
RSVPLG03,cs,20260227-103649,1.0.2,20251105-084826,781,Experiment,Both,1,Automatic,warmup,1,20260227-103708,global,global,750,H,H,E,A,H-E.png,H-A.png,hH,hH,mask-4.png,mask-3.png,h,1,0.11605039999994915,h,1,0.049903499995707534,0.040038200007984415,0.046831900006509386,0.09313010000914801,0.0989735000039218,0.7445326000015484
RSVPLG03,cs,20260227-103649,1.0.2,20251105-084826,781,Experiment,Both,1,Automatic,warmup,2,20260227-103713,local,global,300,S,S,A,A,A-S.png,S-A.png,sS,sS,mask-1.png,mask-2.png,h,0,0.2627238999994006,s,1,0.40639550000196323,0.048531599997659214,0.04750830000557471,0.10157100000651553,0.09794550000515301,0.30184339999686927
RSVPLG03,cs,20260227-103649,1.0.2,20251105-084826,781,Experiment,Both,1,Automatic,warmup,3,20260227-103717,local,local,300,H,S,A,A,A-H.png,A-S.png,hH,sS,mask-4.png,mask-1.png,s,0,0.30915810000442434,s,1,0.04278390000399668,0.04954629999701865,0.04749539999465924,0.10163839999586344,0.0995346999989124,0.3009230000025127
RSVPLG03,cs,20260227-103649,1.0.2,20251105-084826,781,Experiment,Both,1,Automatic,warmup,4,20260227-103721,global,local,750,H,S,E,A,H-E.png,A-S.png,hH,sS,mask-4.png,mask-3.png,h,1,0.2723571999958949,h,0,0.07143020001240075,0.04714350000722334,0.04774799999722745,0.1000110000022687,0.09982519999903161,0.7504330000083428
RSVPLG03,cs,20260227-103649,1.0.2,20251105-084826,781,Experiment,Both,1,Automatic,main,5,20260227-103726,global,global,300,S,S,A,E,S-A.png,S-E.png,sS,sS,mask-4.png,mask-1.png,h,0,0.29509820000384934,s,1,0.40708140000060666,0.04566230000637006,0.04867750000266824,0.09983280001324601,0.10087059999932535,0.2987366000015754
RSVPLG03,cs,20260227-103649,1.0.2,20251105-084826,781,Experiment,Both,1,Automatic,main,6,20260227-103730,local,global,300,H,H,E,A,E-H.png,H-A.png,hH,hH,mask-3.png,mask-3.png,s,0,0.31659440000657924,s,0,0.057659500002046116,0.04705100000137463,0.04710579999664333,0.09950740000931546,0.09920079998846631,0.2999804000137374
RSVPLG03,cs,20260227-103649,1.0.2,20251105-084826,781,Experiment,Both,1,Automatic,main,7,20260227-103734,global,local,300,H,H,E,A,H-E.png,A-H.png,hH,hH,mask-2.png,mask-3.png,h,1,0.09880449999764096,h,1,0.08019729999068659,0.047488299998803996,0.04777069999545347,0.10052269999869168,0.10081429999263491,0.29872639999666717
RSVPLG03,cs,20260227-103649,1.0.2,20251105-084826,781,Experiment,Both,1,Automatic,main,8,20260227-103738,global,local,300,S,H,E,A,S-E.png,A-H.png,sS,hH,mask-4.png,mask-4.png,h,0,0.18603559999610297,s,0,0.012482799997087568,0.04542719999153633,0.04829809999500867,0.09932470000057947,0.10033840000687633,0.29864229999657255
RSVPLG03,cs,20260227-103649,1.0.2,20251105-084826,781,Experiment,Both,1,Automatic,main,9,20260227-103742,local,global,300,H,H,A,A,A-H.png,H-A.png,hH,hH,mask-4.png,mask-4.png,h,1,0.24341850000200793,s,0,0.04033760000311304,0.04649549999157898,0.04618330000084825,0.09881830000085756,0.09929080000438262,0.3004835999890929
RSVPLG03,cs,20260227-103649,1.0.2,20251105-084826,781,Experiment,Both,1,Automatic,main,10,20260227-103746,global,local,300,S,H,E,A,S-E.png,A-H.png,sS,hH,mask-1.png,mask-4.png,s,1,0.26023510000959504,h,1,0.16199609999603126,0.04768329999933485,0.04671889999008272,0.09987380000529811,0.09921239998948295,0.301101800010656
RSVPLG03,cs,20260227-103649,1.0.2,20251105-084826,781,Experiment,Both,1,Automatic,main,11,20260227-103750,global,global,300,H,S,E,E,H-E.png,S-E.png,hH,sS,mask-2.png,mask-3.png,s,0,0.36548550000588875,h,0,0.47731950000161305,0.047112800006289035,0.04749420000007376,0.10048370000731666,0.10047629999462515,0.29889070001081564
RSVPLG03,cs,20260227-103649,1.0.2,20251105-084826,781,Experiment,Both,1,Automatic,main,12,20260227-103754,global,local,300,S,S,A,E,S-A.png,E-S.png,sS,sS,mask-2.png,mask-4.png,h,0,0.11560659999668133,s,1,0.07544590000179596,0.04717019999225158,0.047575999997206964,0.09886270000424702,0.10107920000154991,0.2989277000015136
RSVPLG03,cs,20260227-103649,1.0.2,20251105-084826,781,Experiment,Both,1,Automatic,main,13,20260227-103758,local,global,750,H,S,E,A,E-H.png,S-A.png,hH,sS,mask-3.png,mask-4.png,s,0,0.4019987000065157,s,1,0.07729070000641514,0.04615609999746084,0.04866669999319129,0.09845580000546761,0.1016920999973081,0.7488110999984201
RSVPLG03,cs,20260227-103649,1.0.2,20251105-084826,781,Experiment,Both,1,Automatic,main,14,20260227-103803,local,global,300,H,S,A,E,A-H.png,S-E.png,hH,sS,mask-4.png,mask-3.png,s,0,0.23946609999984503,s,1,0.13554629999271128,0.04754040000261739,0.047557900004903786,0.10057009999582078,0.099671899995883,0.30170929999439977
RSVPLG03,cs,20260227-103649,1.0.2,20251105-084826,781,Experiment,Both,1,Automatic,main,15,20260227-103807,global,local,300,H,S,A,A,H-A.png,A-S.png,hH,sS,mask-4.png,mask-1.png,h,1,0.2371564000059152,h,0,0.09847630000149366,0.045712000006460585,0.04751070000929758,0.09943690001091454,0.10055699999793433,0.2997880000039004
RSVPLG03,cs,20260227-103649,1.0.2,20251105-084826,781,Experiment,Both,1,Automatic,main,16,20260227-103811,global,local,300,S,H,A,A,S-A.png,A-H.png,sS,hH,mask-4.png,mask-4.png,s,1,0.2705936999991536,h,1,0.2363578999938909,0.04855099999986123,0.04875539999920875,0.10158220000448637,0.10184630000730976,0.29996570000366773
RSVPLG03,cs,20260227-103649,1.0.2,20251105-084826,781,Experiment,Both,1,Automatic,main,17,20260227-103816,global,local,750,S,H,A,A,S-A.png,A-H.png,sS,hH,mask-1.png,mask-3.png,h,0,0.27295679999224376,h,1,0.0826326000096742,0.04751180000312161,0.04674180000438355,0.09951270000601653,0.09984870000334922,0.7494862000021385
RSVPLG03,cs,20260227-103649,1.0.2,20251105-084826,781,Experiment,Both,1,Automatic,main,18,20260227-103820,local,global,750,H,S,E,A,E-H.png,S-A.png,hH,sS,mask-4.png,mask-2.png,s,0,0.33666749999974854,s,1,0.0704970999940997,0.04748690000269562,0.04664030000276398,0.09948069999518339,0.10079719999339432,0.7504151000030106
RSVPLG03,cs,20260227-103649,1.0.2,20251105-084826,781,Experiment,Both,1,Automatic,main,19,20260227-103825,local,global,300,H,S,E,A,E-H.png,S-A.png,hH,sS,mask-3.png,mask-1.png,h,1,0.24388789999647997,s,1,0.08418140000139829,0.04750730001251213,0.04896910001116339,0.09955950001312885,0.10206760000437498,0.29915900000196416
RSVPLG03,cs,20260227-103649,1.0.2,20251105-084826,781,Experiment,Both,1,Automatic,main,20,20260227-103829,global,global,750,H,H,A,A,H-A.png,H-A.png,hH,hH,mask-1.png,mask-2.png,h,1,0.20300639999913983,h,1,0.09521030000178143,0.047481799992965534,0.045923099998617545,0.09967840000172146,0.09933799999998882,0.7509424000018043
RSVPLG03,cs,20260227-103649,1.0.2,20251105-084826,781,Experiment,Both,1,Automatic,main,21,20260227-103833,local,local,750,H,S,A,A,A-H.png,A-S.png,hH,sS,mask-2.png,mask-4.png,h,1,0.2221882000012556,s,1,0.1372791000030702,0.047512899996945634,0.047657500006607734,0.10068279999541119,0.0992646000086097,0.7510301999864168
RSVPLG03,cs,20260227-103649,1.0.2,20251105-084826,781,Experiment,Both,1,Automatic,main,22,20260227-103838,local,global,750,S,H,A,E,A-S.png,H-E.png,sS,hH,mask-3.png,mask-1.png,s,1,0.3340491999988444,h,1,0.09047619999910239,0.04769230000965763,0.04671579999558162,0.09918170000310056,0.09987159998854622,0.7508418000070378
RSVPLG03,cs,20260227-103649,1.0.2,20251105-084826,781,Experiment,Both,1,Automatic,main,23,20260227-103843,local,local,750,H,H,E,E,E-H.png,E-H.png,hH,hH,mask-4.png,mask-2.png,s,0,0.3645260000048438,h,1,0.5566139000002295,0.047679299997980706,0.04766929999459535,0.09804399999848101,0.09971900000527967,0.7495048999990104
RSVPLG03,cs,20260227-103649,1.0.2,20251105-084826,781,Experiment,Both,1,Automatic,main,24,20260227-103847,global,local,300,S,S,A,A,S-A.png,A-S.png,sS,sS,mask-4.png,mask-2.png,h,0,0.22423400000843685,s,1,0.06254350001108833,0.04706880000594538,0.047594300005584955,0.09877560001041275,0.1018947999982629,0.29841010000382084
RSVPLG03,cs,20260227-103649,1.0.2,20251105-084826,781,Experiment,Both,1,Automatic,main,25,20260227-103851,local,local,300,H,S,A,A,A-H.png,A-S.png,hH,sS,mask-4.png,mask-2.png,s,0,0.41246020000835415,h,0,0.1372578999871621,0.04700859999866225,0.047004799998831004,0.09938139999576379,0.10057730000698939,0.29922289999376517
RSVPLG03,cs,20260227-103649,1.0.2,20251105-084826,781,Experiment,Both,1,Automatic,main,26,20260227-104112,local,global,300,S,S,A,E,A-S.png,S-E.png,sS,sS,mask-3.png,mask-3.png,s,1,0.09652819999610074,s,1,0.09225200000219047,0.047532699987641536,0.04768049999256618,0.09865429998899344,0.09984399999666493,0.2993461000005482
RSVPLG03,cs,20260227-103649,1.0.2,20251105-084826,781,Experiment,Both,1,Automatic,main,27,20260227-104116,local,global,750,H,S,A,E,A-H.png,S-E.png,hH,sS,mask-3.png,mask-4.png,h,1,0.16631790000246838,s,1,0.02736060001188889,0.04858460000832565,0.04768150000018068,0.10179349999816623,0.09986970000318252,0.7519184999982826
RSVPLG03,cs,20260227-103649,1.0.2,20251105-084826,781,Experiment,Both,1,Automatic,main,28,20260227-104120,local,local,750,S,S,A,E,A-S.png,E-S.png,sS,sS,mask-2.png,mask-3.png,s,1,0.1943877000012435,s,1,0.04415380000136793,0.04745149999507703,0.046905299997888505,0.09955739999713842,0.10033729999850038,0.7498612999916077
RSVPLG03,cs,20260227-103649,1.0.2,20251105-084826,781,Experiment,Both,1,Automatic,main,29,20260227-104125,global,local,750,S,H,E,E,S-E.png,E-H.png,sS,hH,mask-1.png,mask-2.png,s,1,0.30441159999463707,s,0,0.006653999997070059,0.046813499997369945,0.04922600000281818,0.09985110000707209,0.10116649999690708,0.7491114000004018
RSVPLG03,cs,20260227-103649,1.0.2,20251105-084826,781,Experiment,Both,1,Automatic,main,30,20260227-104129,local,local,300,H,H,E,E,E-H.png,E-H.png,hH,hH,mask-3.png,mask-4.png,h,1,0.16317359999811742,h,1,0.07042299999739043,0.04763030000322033,0.047683900003903545,0.09984860000258777,0.0998976999981096,0.2998758000030648
RSVPLG03,cs,20260227-103649,1.0.2,20251105-084826,781,Experiment,Both,1,Automatic,main,31,20260227-104133,local,global,750,H,S,E,E,E-H.png,S-E.png,hH,sS,mask-2.png,mask-3.png,h,1,0.3088261000084458,s,1,0.03401279999525286,0.048666400005458854,0.04769259999739006,0.09975130000384524,0.09977440000511706,0.7514891000028001
RSVPLG03,cs,20260227-103649,1.0.2,20251105-084826,781,Experiment,Both,1,Automatic,main,32,20260227-104138,global,local,750,S,S,E,A,S-E.png,A-S.png,sS,sS,mask-4.png,mask-4.png,h,0,0.10185759999149013,s,1,0.1979086999926949,0.04767610000271816,0.04862860000866931,0.09898159999283962,0.10170810000272468,0.7488836999982595
RSVPLG03,cs,20260227-103649,1.0.2,20251105-084826,781,Experiment,Both,1,Automatic,main,33,20260227-104142,global,global,300,H,H,A,E,H-A.png,H-E.png,hH,hH,mask-1.png,mask-2.png,h,1,0.2548139999998966,h,1,0.07023809998645447,0.046109200004138984,0.04644150000240188,0.10012499999720603,0.09781059999659192,0.29995850000705104
RSVPLG03,cs,20260227-103649,1.0.2,20251105-084826,781,Experiment,Both,1,Automatic,main,34,20260227-104146,global,global,750,H,H,E,E,H-E.png,H-E.png,hH,hH,mask-4.png,mask-3.png,h,1,0.2123989999963669,h,1,0.07047470001270995,0.04719100000511389,0.04667229999904521,0.10000540000328328,0.09875010000541806,0.750973400005023
RSVPLG03,cs,20260227-103649,1.0.2,20251105-084826,781,Experiment,Both,1,Automatic,main,35,20260227-104150,local,global,750,H,S,E,A,E-H.png,S-A.png,hH,sS,mask-4.png,mask-1.png,h,1,0.2751695000042673,s,1,0.115300199991907,0.048582499992335215,0.04651709999598097,0.10158429999137297,0.0996681999968132,0.7518168999959016
RSVPLG03,cs,20260227-103649,1.0.2,20251105-084826,781,Experiment,Both,1,Automatic,main,36,20260227-104155,local,local,300,H,S,E,E,E-H.png,E-S.png,hH,sS,mask-1.png,mask-3.png,h,1,0.8775471999979345,s,1,0.051270399999339134,0.048695899997255765,0.046812900007353164,0.09989459998905659,0.09833860000071581,0.3014964999892982
RSVPLG03,cs,20260227-103649,1.0.2,20251105-084826,781,Experiment,Both,1,Automatic,main,37,20260227-104200,local,local,300,S,H,A,A,A-S.png,A-H.png,sS,hH,mask-4.png,mask-1.png,h,0,0.24996119999559596,s,0,0.0578213999979198,0.04718890000367537,0.04620019999856595,0.09938509999483358,0.09937740000896156,0.2999629999976605
RSVPLG03,cs,20260227-103649,1.0.2,20251105-084826,781,Experiment,Both,1,Automatic,main,38,20260227-104204,global,local,750,S,S,A,A,S-A.png,A-S.png,sS,sS,mask-3.png,mask-3.png,s,1,0.2549754999927245,h,0,0.1355755999975372,0.04672559999744408,0.04671450000023469,0.10001189999456983,0.09985719999531284,0.7500028000067687
RSVPLG03,cs,20260227-103649,1.0.2,20251105-084826,781,Experiment,Both,1,Automatic,main,39,20260227-104208,local,local,300,S,H,A,E,A-S.png,E-H.png,sS,hH,mask-2.png,mask-2.png,h,0,0.2747593000094639,s,0,0.11526740000408608,0.04750879999483004,0.04750430000422057,0.10068909999972675,0.10054050000326242,0.3005464000016218
RSVPLG03,cs,20260227-103649,1.0.2,20251105-084826,781,Experiment,Both,1,Automatic,main,40,20260227-104213,local,global,750,S,S,A,E,A-S.png,S-E.png,sS,sS,mask-4.png,mask-2.png,h,0,0.1972020999965025,s,1,0.09101950000331271,0.047609999994165264,0.048429999995278195,0.10063610000361223,0.09946569999738131,0.7503350000042701
RSVPLG03,cs,20260227-103649,1.0.2,20251105-084826,781,Experiment,Both,1,Automatic,main,41,20260227-104217,local,local,300,S,S,A,E,A-S.png,E-S.png,sS,sS,mask-4.png,mask-2.png,s,1,0.3244957999995677,s,1,0.05147710000164807,0.04851359999156557,0.04752140000346117,0.10112219999427907,0.09901970000646543,0.3014763999963179
RSVPLG03,cs,20260227-103649,1.0.2,20251105-084826,781,Experiment,Both,1,Automatic,main,42,20260227-104221,local,global,300,H,S,A,A,A-H.png,S-A.png,hH,sS,mask-4.png,mask-3.png,s,0,0.21220950000861194,s,1,0.10858149999694433,0.04666820001148153,0.04785390000324696,0.0987955000018701,0.09937060000083875,0.2989631000091322
RSVPLG03,cs,20260227-103649,1.0.2,20251105-084826,781,Experiment,Both,1,Automatic,main,43,20260227-104226,global,local,750,H,S,E,A,H-E.png,A-S.png,hH,sS,mask-4.png,mask-3.png,h,1,0.19107520001125522,h,0,0.10622719999810215,0.04691180000372697,0.04750019998755306,0.0991929000010714,0.1005717999942135,0.750441200012574
RSVPLG03,cs,20260227-103649,1.0.2,20251105-084826,781,Experiment,Both,1,Automatic,main,44,20260227-104230,global,local,750,H,S,A,E,H-A.png,E-S.png,hH,sS,mask-4.png,mask-1.png,h,1,0.12018629998783581,s,1,0.18706989999918733,0.04750580000109039,0.047526700000162236,0.1005213000025833,0.09982090000994503,0.7500490999955218
RSVPLG03,cs,20260227-103649,1.0.2,20251105-084826,781,Experiment,Both,1,Automatic,main,45,20260227-104234,local,local,750,H,H,E,A,E-H.png,A-H.png,hH,hH,mask-4.png,mask-3.png,h,1,0.1935788999981014,h,1,0.09332390000054147,0.04676399999880232,0.04767679999349639,0.09998590000031982,0.10073879999981727,0.749923299998045
RSVPLG03,cs,20260227-103649,1.0.2,20251105-084826,781,Experiment,Both,1,Automatic,main,46,20260227-104239,local,global,300,S,H,A,E,A-S.png,H-E.png,sS,hH,mask-4.png,mask-3.png,h,0,0.1787925999960862,s,0,0.06051080000179354,0.047707700010505505,0.04766489999019541,0.09994510000979062,0.10085839999374002,0.29952550001326017
RSVPLG03,cs,20260227-103649,1.0.2,20251105-084826,781,Experiment,Both,1,Automatic,main,47,20260227-104243,global,local,750,H,H,E,A,H-E.png,A-H.png,hH,hH,mask-2.png,mask-3.png,h,1,0.21164439999847673,h,1,0.08102949999738485,0.047737200002302416,0.04772499999671709,0.09998590000031982,0.10016909999831114,0.7493370000011055
RSVPLG03,cs,20260227-103649,1.0.2,20251105-084826,781,Experiment,Both,1,Automatic,main,48,20260227-104247,global,global,300,S,S,E,E,S-E.png,S-E.png,sS,sS,mask-3.png,mask-4.png,h,0,0.192985999994562,s,1,0.15593199999420904,0.04667120000522118,0.04768880001211073,0.10013510000135284,0.09984920000715647,0.29994949999672826
RSVPLG03,cs,20260227-103649,1.0.2,20251105-084826,781,Experiment,Both,1,Automatic,main,49,20260227-104251,local,global,300,S,S,A,E,A-S.png,S-E.png,sS,sS,mask-3.png,mask-4.png,s,1,0.14854950000881217,s,1,0.18697680000332184,0.046535200002836064,0.048530500003835186,0.09957770000619348,0.09927209999295883,0.29935630000545643
RSVPLG03,cs,20260227-103649,1.0.2,20251105-084826,781,Experiment,Both,1,Automatic,main,50,20260227-104255,local,local,300,H,H,A,A,A-H.png,A-H.png,hH,hH,mask-3.png,mask-3.png,h,1,0.5044871000136482,h,1,0.083385999998427,0.04681980000168551,0.04698389999975916,0.10002509999321774,0.10026369999104645,0.2996776000072714
RSVPLG03,cs,20260227-103649,1.0.2,20251105-084826,781,Experiment,Both,1,Automatic,main,51,20260227-104350,local,local,750,S,S,A,A,A-S.png,A-S.png,sS,sS,mask-4.png,mask-4.png,s,1,0.1270524999999907,s,1,0.041504699998768046,0.04755979999026749,0.04877249999844935,0.10059390000242274,0.10153980000177398,0.7496727999969153
RSVPLG03,cs,20260227-103649,1.0.2,20251105-084826,781,Experiment,Both,1,Automatic,main,52,20260227-104354,global,global,750,S,S,E,E,S-E.png,S-E.png,sS,sS,mask-3.png,mask-1.png,s,1,0.14597330000833608,s,1,0.05697409999265801,0.047689899991382845,0.048330599995097145,0.09988609999709297,0.09934699999575969,0.7497906999924453
RSVPLG03,cs,20260227-103649,1.0.2,20251105-084826,781,Experiment,Both,1,Automatic,main,53,20260227-104358,local,global,300,H,H,A,A,A-H.png,H-A.png,hH,hH,mask-2.png,mask-3.png,h,1,0.21975709999969695,s,0,0.38015729999460746,0.04653409999446012,0.047556499994243495,0.0996690000029048,0.10059019998880103,0.30001950000587385
RSVPLG03,cs,20260227-103649,1.0.2,20251105-084826,781,Experiment,Both,1,Automatic,main,54,20260227-104402,local,global,750,S,S,E,A,E-S.png,S-A.png,sS,sS,mask-1.png,mask-1.png,s,1,0.354010199996992,h,0,0.48202859998855274,0.047708300000522286,0.048797299998113886,0.09914299999945797,0.10099300000001676,0.7487832000042545
RSVPLG03,cs,20260227-103649,1.0.2,20251105-084826,781,Experiment,Both,1,Automatic,main,55,20260227-104407,global,local,300,S,S,E,A,S-E.png,A-S.png,sS,sS,mask-1.png,mask-2.png,s,1,0.25787770000169985,h,0,0.433857199997874,0.04702810000162572,0.04674380000506062,0.1002847999916412,0.09891970000171568,0.30119359999662265
RSVPLG03,cs,20260227-103649,1.0.2,20251105-084826,781,Experiment,Both,1,Automatic,main,56,20260227-104411,local,local,300,H,H,A,A,A-H.png,A-H.png,hH,hH,mask-4.png,mask-2.png,s,0,0.21669400000246242,h,1,0.360662000006414,0.04699239999172278,0.04751170000236016,0.10011079999094363,0.09856060000311118,0.30040459999872837
RSVPLG03,cs,20260227-103649,1.0.2,20251105-084826,781,Experiment,Both,1,Automatic,main,57,20260227-104415,local,global,750,H,H,E,A,E-H.png,H-A.png,hH,hH,mask-3.png,mask-2.png,s,0,0.24219620000803843,h,1,0.4022999000007985,0.0477143000025535,0.047892100003082305,0.09991780000564177,0.10116440001002047,0.7500445000041509
RSVPLG03,cs,20260227-103649,1.0.2,20251105-084826,781,Experiment,Both,1,Automatic,main,58,20260227-104419,local,global,750,H,H,A,E,A-H.png,H-E.png,hH,hH,mask-4.png,mask-2.png,s,0,0.1963155999983428,h,1,0.7011171000049217,0.04769079999823589,0.04770529999223072,0.09990780000225641,0.09992919999058358,0.7497216000047047
RSVPLG03,cs,20260227-103649,1.0.2,20251105-084826,781,Experiment,Both,1,Automatic,main,59,20260227-104424,local,global,300,S,H,E,A,E-S.png,H-A.png,sS,hH,mask-4.png,mask-2.png,s,1,0.2779276000073878,s,0,0.03793679999944288,0.04611020001175348,0.04711440000392031,0.09823600000527222,0.09831699999631383,0.29981080000288785
RSVPLG03,cs,20260227-103649,1.0.2,20251105-084826,781,Experiment,Both,1,Automatic,main,60,20260227-104428,global,global,750,S,S,E,A,S-E.png,S-A.png,sS,sS,mask-4.png,mask-4.png,s,1,0.21943119999195915,s,1,0.05031649999727961,0.046576599997933954,0.04769500000111293,0.09915979999641422,0.099757399992086,0.7503243999963161
RSVPLG03,cs,20260227-103649,1.0.2,20251105-084826,781,Experiment,Both,1,Automatic,main,61,20260227-104433,global,local,750,H,H,A,E,H-A.png,E-H.png,hH,hH,mask-2.png,mask-4.png,s,0,0.20953959999314975,s,0,0.0621260999905644,0.04755440000735689,0.046925899994676,0.09880350000457838,0.09954199999629054,0.7495537000067998
RSVPLG03,cs,20260227-103649,1.0.2,20251105-084826,781,Experiment,Both,1,Automatic,main,62,20260227-104437,local,global,750,S,H,A,E,A-S.png,H-E.png,sS,hH,mask-1.png,mask-3.png,s,1,0.192423599990434,s,0,0.04234339999675285,0.04778369999257848,0.046565799988457,0.10003679999499582,0.09936119998747017,0.7502335000026505
RSVPLG03,cs,20260227-103649,1.0.2,20251105-084826,781,Experiment,Both,1,Automatic,main,63,20260227-104442,global,local,300,S,S,A,E,S-A.png,E-S.png,sS,sS,mask-2.png,mask-4.png,s,1,0.2392111999943154,s,1,0.055452600005082786,0.04768829999375157,0.04662090000056196,0.10016010000254028,0.10007229998882394,0.3005635000008624
RSVPLG03,cs,20260227-103649,1.0.2,20251105-084826,781,Experiment,Both,1,Automatic,main,64,20260227-104446,global,local,300,H,H,E,A,H-E.png,A-H.png,hH,hH,mask-2.png,mask-3.png,s,0,0.27377150001120754,h,1,0.46560730000783224,0.04766889999154955,0.04768879999755882,0.09912279999116436,0.09980989999894518,0.30038770000101067
RSVPLG03,cs,20260227-103649,1.0.2,20251105-084826,781,Experiment,Both,1,Automatic,main,65,20260227-104450,global,local,750,H,S,E,A,H-E.png,A-S.png,hH,sS,mask-1.png,mask-1.png,h,1,0.2211910999903921,h,0,0.06600089999847114,0.048397999998996966,0.0475047999934759,0.10020810000423808,0.09899869999208022,0.7502052000054391
RSVPLG03,cs,20260227-103649,1.0.2,20251105-084826,781,Experiment,Both,1,Automatic,main,66,20260227-104454,local,global,750,S,S,A,E,A-S.png,S-E.png,sS,sS,mask-4.png,mask-1.png,s,1,0.10795400000642985,h,0,0.2681056000001263,0.04710419999901205,0.04688009999517817,0.10017279999738093,0.099890499986941,0.7509510000090813
RSVPLG03,cs,20260227-103649,1.0.2,20251105-084826,781,Experiment,Both,1,Automatic,main,67,20260227-104459,global,global,300,S,S,A,A,S-A.png,S-A.png,sS,sS,mask-4.png,mask-4.png,s,1,0.2909203000017442,s,1,0.040140199998859316,0.0464747000078205,0.047037900003488176,0.10053630000038538,0.09949849999975413,0.3004908000002615
RSVPLG03,cs,20260227-103649,1.0.2,20251105-084826,781,Experiment,Both,1,Automatic,main,68,20260227-104503,local,local,750,H,S,E,A,E-H.png,A-S.png,hH,sS,mask-2.png,mask-3.png,s,0,0.28688460000557825,h,0,0.06137019999732729,0.04878110000572633,0.04763340001227334,0.10096490000432823,0.10171830000763293,0.7501393999991706
RSVPLG03,cs,20260227-103649,1.0.2,20251105-084826,781,Experiment,Both,1,Automatic,main,69,20260227-104507,global,global,300,H,H,A,E,H-A.png,H-E.png,hH,hH,mask-1.png,mask-1.png,h,1,0.23240369999257382,h,1,0.06116760001168586,0.047071900000446476,0.047737300003063865,0.10014949999458622,0.09817100000509527,0.29982419998850673
RSVPLG03,cs,20260227-103649,1.0.2,20251105-084826,781,Experiment,Both,1,Automatic,main,70,20260227-104511,local,global,300,H,H,A,E,A-H.png,H-E.png,hH,hH,mask-4.png,mask-2.png,s,0,0.28704960001050495,s,0,0.0426210000005085,0.04766689999087248,0.048582699993858114,0.09989949999726377,0.0996171000006143,0.2999485000036657
RSVPLG03,cs,20260227-103649,1.0.2,20251105-084826,781,Experiment,Both,1,Automatic,main,71,20260227-104515,global,global,750,S,S,A,A,S-A.png,S-A.png,sS,sS,mask-4.png,mask-3.png,s,1,0.19677389999560546,s,1,0.12163009999494534,0.04755899999872781,0.046220000003813766,0.10059250000631437,0.0991269999940414,0.7508473000052618
RSVPLG03,cs,20260227-103649,1.0.2,20251105-084826,781,Experiment,Both,1,Automatic,main,72,20260227-104520,local,local,750,H,S,E,E,E-H.png,E-S.png,hH,sS,mask-3.png,mask-1.png,s,0,0.30727950000436977,s,1,0.07557999998971354,0.04763180000009015,0.04755829999339767,0.10065429999667685,0.10056140000233427,0.7499290999985533
RSVPLG03,cs,20260227-103649,1.0.2,20251105-084826,781,Experiment,Both,1,Automatic,main,73,20260227-104525,global,local,300,S,H,A,A,S-A.png,A-H.png,sS,hH,mask-4.png,mask-3.png,s,1,0.3069621000031475,h,1,0.45104410000203643,0.0466904000059003,0.047700800001621246,0.09993320000648964,0.10089589998824522,0.299602800005232
RSVPLG03,cs,20260227-103649,1.0.2,20251105-084826,781,Experiment,Both,1,Automatic,main,74,20260227-104529,local,local,750,S,H,E,E,E-S.png,E-H.png,sS,hH,mask-2.png,mask-4.png,s,1,0.25429630000144243,h,1,0.43044159999408294,0.045825900000636466,0.04848959999799263,0.09850120000191964,0.09894890000578016,0.7493523000011919
RSVPLG03,cs,20260227-103649,1.0.2,20251105-084826,781,Experiment,Both,1,Automatic,main,75,20260227-104533,global,global,300,S,S,A,E,S-A.png,S-E.png,sS,sS,mask-4.png,mask-4.png,s,1,0.22715790000802372,s,1,0.07339029999275226,0.04851609999604989,0.04946100000233855,0.09952669999620412,0.10034689999883994,0.2991984999971464
RSVPLG03,cs,20260227-103649,1.0.2,20251105-084826,781,Experiment,Both,1,Automatic,main,76,20260227-104604,global,global,750,H,S,A,E,H-A.png,S-E.png,hH,sS,mask-4.png,mask-4.png,h,1,0.126119499997003,h,0,0.018974699996761046,0.04752320000261534,0.04776099999435246,0.098969800004852,0.09820769999350887,0.7504787000070792
RSVPLG03,cs,20260227-103649,1.0.2,20251105-084826,781,Experiment,Both,1,Automatic,main,77,20260227-104608,global,global,750,H,H,A,E,H-A.png,H-E.png,hH,hH,mask-3.png,mask-1.png,h,1,0.19367329998931382,h,1,0.06724400000530295,0.0479775999992853,0.04748390000895597,0.09982069999387022,0.09975649999978486,0.7510560999944573
RSVPLG03,cs,20260227-103649,1.0.2,20251105-084826,781,Experiment,Both,1,Automatic,main,78,20260227-104612,global,global,300,H,H,E,A,H-E.png,H-A.png,hH,hH,mask-4.png,mask-3.png,h,1,0.2762459000077797,h,1,0.08127490000333637,0.04751419999229256,0.04750239998975303,0.10050619998946786,0.09886139999434818,0.300757999997586
RSVPLG03,cs,20260227-103649,1.0.2,20251105-084826,781,Experiment,Both,1,Automatic,main,79,20260227-104616,global,global,300,S,H,E,A,S-E.png,H-A.png,sS,hH,mask-4.png,mask-3.png,h,0,0.19829150001169182,h,1,0.053830899996683,0.04697019999730401,0.04768590000458062,0.09834589999809396,0.0991208000050392,0.29994849998911377
RSVPLG03,cs,20260227-103649,1.0.2,20251105-084826,781,Experiment,Both,1,Automatic,main,80,20260227-104620,local,local,750,S,S,A,E,A-S.png,E-S.png,sS,sS,mask-4.png,mask-3.png,s,1,0.19113029999425635,s,1,0.057138700009090826,0.04579100001137704,0.04693550000956748,0.0999630000005709,0.10009760000684764,0.7489735999988625
RSVPLG03,cs,20260227-103649,1.0.2,20251105-084826,781,Experiment,Both,1,Automatic,main,81,20260227-104625,global,global,300,H,H,E,A,H-E.png,H-A.png,hH,hH,mask-2.png,mask-3.png,h,1,0.13329820000217296,h,1,0.07661770000413526,0.04749360001005698,0.047033399998326786,0.1005190000141738,0.10073650001140777,0.2999693000019761
RSVPLG03,cs,20260227-103649,1.0.2,20251105-084826,781,Experiment,Both,1,Automatic,main,82,20260227-104629,local,local,300,H,S,E,A,E-H.png,A-S.png,hH,sS,mask-2.png,mask-3.png,s,0,0.35581129998899996,h,0,0.5160287999897264,0.04684660000202712,0.04620989999966696,0.09987560000445228,0.09929240000201389,0.30043750000186265
RSVPLG03,cs,20260227-103649,1.0.2,20251105-084826,781,Experiment,Both,1,Automatic,main,83,20260227-104633,global,global,750,S,S,E,A,S-E.png,S-A.png,sS,sS,mask-2.png,mask-3.png,s,1,0.2536870000039926,s,1,0.039414600003510714,0.04769610000948887,0.047699000002467074,0.09993330000725109,0.09991509999963455,0.7509279000078095
RSVPLG03,cs,20260227-103649,1.0.2,20251105-084826,781,Experiment,Both,1,Automatic,main,84,20260227-104637,global,global,750,S,H,A,A,S-A.png,H-A.png,sS,hH,mask-2.png,mask-1.png,s,1,0.2667685999913374,h,1,0.030222400004277006,0.04688229999737814,0.04653880000114441,0.10014680000313092,0.09909269999479875,0.7498565999994753
RSVPLG03,cs,20260227-103649,1.0.2,20251105-084826,781,Experiment,Both,1,Automatic,main,85,20260227-104642,global,local,750,S,S,A,A,S-A.png,A-S.png,sS,sS,mask-4.png,mask-2.png,s,1,0.3639531000080751,s,1,0.6454557999968529,0.04749729999457486,0.04850319999968633,0.100901600002544,0.10052409999480005,0.7510762000019895
RSVPLG03,cs,20260227-103649,1.0.2,20251105-084826,781,Experiment,Both,1,Automatic,main,86,20260227-104647,local,local,750,S,S,A,A,A-S.png,A-S.png,sS,sS,mask-1.png,mask-1.png,s,1,0.2700918000045931,s,1,0.036849700001766905,0.047815099998842925,0.04869340000732336,0.10204680000606459,0.09992459999921266,0.7508407999994233
RSVPLG03,cs,20260227-103649,1.0.2,20251105-084826,781,Experiment,Both,1,Automatic,main,87,20260227-104652,global,local,750,H,H,A,E,H-A.png,E-H.png,hH,hH,mask-2.png,mask-4.png,h,1,0.2064533999946434,h,1,0.09889239999756683,0.046897899999748915,0.04760530000203289,0.1012361999892164,0.10065909998957068,0.7504797000001417
RSVPLG03,cs,20260227-103649,1.0.2,20251105-084826,781,Experiment,Both,1,Automatic,main,88,20260227-104656,global,global,750,H,H,A,A,H-A.png,H-A.png,hH,hH,mask-3.png,mask-3.png,h,1,0.08727839999482967,h,1,0.05430240000714548,0.04656039999099448,0.047698100010165945,0.09960929999942891,0.09954480000305921,0.7506312999903457
RSVPLG03,cs,20260227-103649,1.0.2,20251105-084826,781,Experiment,Both,1,Automatic,main,89,20260227-104700,local,local,300,H,S,E,A,E-H.png,A-S.png,hH,sS,mask-1.png,mask-2.png,s,0,0.3876514000003226,h,0,0.18709140000282787,0.047657300005084835,0.04866660000698175,0.09996720000344794,0.10087860000203364,0.2992283000057796
RSVPLG03,cs,20260227-103649,1.0.2,20251105-084826,781,Experiment,Both,1,Automatic,main,90,20260227-104705,local,global,300,H,S,E,E,E-H.png,S-E.png,hH,sS,mask-1.png,mask-2.png,s,0,0.34883499999705236,s,1,0.053460099996300414,0.04668640000454616,0.047698000009404495,0.0983362999977544,0.09978309999860357,0.29989009999553673
RSVPLG03,cs,20260227-103649,1.0.2,20251105-084826,781,Experiment,Both,1,Automatic,main,91,20260227-104709,global,global,750,H,S,E,E,H-E.png,S-E.png,hH,sS,mask-3.png,mask-1.png,h,1,0.08145320000767242,s,1,0.2961871000006795,0.0495946000010008,0.047432799998205155,0.10168370000610594,0.10053440000046976,0.7516845000063768
RSVPLG03,cs,20260227-103649,1.0.2,20251105-084826,781,Experiment,Both,1,Automatic,main,92,20260227-104713,global,global,300,S,H,A,E,S-A.png,H-E.png,sS,hH,mask-3.png,mask-4.png,h,0,0.23611450000316836,s,0,0.010229499996057712,0.04765849999967031,0.04759129999729339,0.10105200001271442,0.10121149999031331,0.2996626000094693
RSVPLG03,cs,20260227-103649,1.0.2,20251105-084826,781,Experiment,Both,1,Automatic,main,93,20260227-104717,global,local,300,S,S,E,A,S-E.png,A-S.png,sS,sS,mask-2.png,mask-2.png,s,1,0.1942479999997886,s,1,0.10557579998567235,0.046711999995750375,0.04757120000431314,0.09986629999184515,0.09970350000367034,0.29940969999006484
RSVPLG03,cs,20260227-103649,1.0.2,20251105-084826,781,Experiment,Both,1,Automatic,main,94,20260227-104722,local,local,300,S,S,E,A,E-S.png,A-S.png,sS,sS,mask-2.png,mask-4.png,s,1,0.21910039999056607,s,1,0.05557339999359101,0.04635229999257717,0.0483408000000054,0.09921099999337457,0.09948889999941457,0.2993602000060491
RSVPLG03,cs,20260227-103649,1.0.2,20251105-084826,781,Experiment,Both,1,Automatic,main,95,20260227-104726,local,local,300,H,S,E,A,E-H.png,A-S.png,hH,sS,mask-2.png,mask-3.png,h,1,0.6126927000004798,h,0,0.07062320000841282,0.04570060000696685,0.047670799991465174,0.10008790000574663,0.09993509999185335,0.2997064000082901
RSVPLG03,cs,20260227-103649,1.0.2,20251105-084826,781,Experiment,Both,1,Automatic,main,96,20260227-104730,global,global,750,S,H,A,A,S-A.png,H-A.png,sS,hH,mask-4.png,mask-4.png,h,0,0.22574179999355692,s,0,0.005466100003104657,0.045771799996146,0.04772420000517741,0.09989710000809282,0.09984199999598786,0.7501800000027288
RSVPLG03,cs,20260227-103649,1.0.2,20251105-084826,781,Experiment,Both,1,Automatic,main,97,20260227-104734,local,local,750,S,S,E,A,E-S.png,A-S.png,sS,sS,mask-1.png,mask-2.png,s,1,0.28131029999349266,s,1,0.07961659999273252,0.04858409998996649,0.04757320000499021,0.09961699999985285,0.09957999999460299,0.7514554999943357
RSVPLG03,cs,20260227-103649,1.0.2,20251105-084826,781,Experiment,Both,1,Automatic,main,98,20260227-104739,global,local,750,S,S,E,A,S-E.png,A-S.png,sS,sS,mask-1.png,mask-2.png,h,0,0.2345445000100881,h,0,0.17017090000445023,0.0476146000000881,0.04786479999893345,0.10063380000065081,0.09992959999362938,0.7506989000103204
RSVPLG03,cs,20260227-103649,1.0.2,20251105-084826,781,Experiment,Both,1,Automatic,main,99,20260227-104744,global,global,300,S,S,E,A,S-E.png,S-A.png,sS,sS,mask-3.png,mask-3.png,h,0,0.2727692000044044,s,1,0.03677530000277329,0.04669829999329522,0.047520199994323775,0.09947899999679066,0.10006729999440722,0.2992361999931745
RSVPLG03,cs,20260227-103649,1.0.2,20251105-084826,781,Experiment,Both,1,Automatic,main,100,20260227-104748,local,local,750,S,S,A,A,A-S.png,A-S.png,sS,sS,mask-1.png,mask-1.png,s,1,0.18263140000635758,s,1,0.698445999994874,0.04617839999264106,0.047667499995441176,0.0990410999947926,0.09983140000258572,0.7501905999961309
