exp,exp_initials,runtime,ver,modtime,sub,blocktype,targets,cuetype,mode,trialtype,trial,trialtime,t1_level,t2_level,t2_lag,t1,t2,distractor1,distractor2,stimfile1,stimfile2,t1_corr,t2_corr,maskfile1,maskfile2,t1_resp,t1_acc,t1_rt,t2_resp,t2_acc,t2_rt,t1_dur,t2_dur,t1mask_soa,t2mask_soa,t1t2_soa
RSVPLG03,km,20251202-101126,1.0.2,20251202-094321,754,Introduction,T1,1,Automatic,main,1,20251202-101150,global,local,750,H,S,A,A,H-A.png,A-S.png,hH,sS,mask-2.png,mask-3.png,h,1,4.969478199956939,none,-5,0,0.09893930004909635,0.10133640002459288,0.19999790005385876,0.20055960002355278,0.7484202000778168
RSVPLG03,km,20251202-101126,1.0.2,20251202-094321,754,Introduction,T1,1,Automatic,main,2,20251202-101159,local,global,750,H,S,A,E,A-H.png,S-E.png,hH,sS,mask-3.png,mask-3.png,h,1,3.040096400072798,none,-5,0,0.09899910003878176,0.10039349994622171,0.20322129991836846,0.20039090001955628,0.7482509000692517
RSVPLG03,km,20251202-101126,1.0.2,20251202-094321,754,Introduction,T1,1,Automatic,main,3,20251202-101207,local,global,750,H,H,A,E,A-H.png,H-E.png,hH,hH,mask-3.png,mask-1.png,s,0,4.2869060998782516,none,-5,0,0.09891470009461045,0.0989977999124676,0.19820019998587668,0.19995729997754097,0.7483099000528455
RSVPLG03,km,20251202-101126,1.0.2,20251202-094321,754,Introduction,T1,1,Automatic,main,4,20251202-101215,global,global,750,H,S,A,E,H-A.png,S-E.png,hH,sS,mask-3.png,mask-4.png,h,1,1.3205395999830216,none,-5,0,0.0992081998847425,0.1002666000276804,0.19817129988223314,0.20071889995597303,0.7479924999643117
RSVPLG03,km,20251202-101126,1.0.2,20251202-094321,754,Introduction,T1,1,Automatic,main,5,20251202-101221,local,global,750,S,H,A,A,A-S.png,H-A.png,sS,hH,mask-4.png,mask-4.png,s,1,5.282189199933782,none,-5,0,0.09670660016126931,0.10103890020400286,0.1964575001038611,0.20052760001271963,0.7457282999530435
RSVPLG03,km,20251202-101126,1.0.2,20251202-094321,754,Introduction,T1,1,Automatic,main,6,20251202-101230,global,local,750,H,S,A,A,H-A.png,A-S.png,hH,sS,mask-2.png,mask-2.png,h,1,1.5834874999709427,none,-5,0,0.09946510009467602,0.09718249994330108,0.19894289993681014,0.1969010999891907,0.7514335999730974
RSVPLG03,km,20251202-101126,1.0.2,20251202-094321,754,Introduction,T1,1,Automatic,main,7,20251202-101236,local,global,750,S,S,E,A,E-S.png,S-A.png,sS,sS,mask-1.png,mask-1.png,s,1,1.6506159000564367,none,-5,0,0.09971329988911748,0.09988069999963045,0.19981559994630516,0.19903640006668866,0.7490034999791533
RSVPLG03,km,20251202-101126,1.0.2,20251202-094321,754,Introduction,T1,1,Automatic,main,8,20251202-101241,global,local,750,H,H,A,A,H-A.png,A-H.png,hH,hH,mask-3.png,mask-4.png,h,1,0.7364602999296039,none,-5,0,0.10078389989212155,0.09826819994486868,0.200125299859792,0.20009829988703132,0.7503364000003785
RSVPLG03,km,20251202-101126,1.0.2,20251202-094321,754,Introduction,T1,1,Automatic,main,9,20251202-101246,local,local,750,H,S,A,E,A-H.png,E-S.png,hH,sS,mask-1.png,mask-4.png,s,0,3.4427133998833597,none,-5,0,0.10104719991795719,0.09990209992974997,0.19991259998641908,0.19963139994069934,0.7495794999413192
RSVPLG03,km,20251202-101126,1.0.2,20251202-094321,754,Introduction,T1,1,Automatic,main,10,20251202-101254,global,global,750,S,H,A,E,S-A.png,H-E.png,sS,hH,mask-4.png,mask-1.png,s,1,0.6663633999414742,none,-5,0,0.09900430007837713,0.09907640004530549,0.2004267000593245,0.19934950000606477,0.7490970999933779
RSVPLG03,km,20251202-101126,1.0.2,20251202-094321,754,Introduction,T1,1,Automatic,main,11,20251202-101259,local,local,750,S,H,A,E,A-S.png,E-H.png,sS,hH,mask-3.png,mask-3.png,none,-6,0,none,-5,0,0.0996781000867486,0.10024480009451509,0.20125180017203093,0.1985758999362588,0.7492460000794381
RSVPLG03,km,20251202-101313,1.0.2,20251202-094321,754,Practice,T1,1,Automatic,main,1,20251202-101331,local,global,750,S,H,E,A,E-S.png,H-A.png,sS,hH,mask-4.png,mask-4.png,s,1,1.9002386999782175,none,-5,0,0.045878699980676174,0.05216470011509955,0.09583809995092452,0.10063320002518594,0.7470593999605626
RSVPLG03,km,20251202-101313,1.0.2,20251202-094321,754,Practice,T1,1,Automatic,main,2,20251202-101337,global,global,300,H,S,E,E,H-E.png,S-E.png,hH,sS,mask-2.png,mask-4.png,h,1,1.1636071000248194,none,-5,0,0.048948199953883886,0.048452100018039346,0.10072499979287386,0.10025270003825426,0.3008998997975141
RSVPLG03,km,20251202-101313,1.0.2,20251202-094321,754,Practice,T1,1,Automatic,main,3,20251202-101341,global,local,300,H,H,E,E,H-E.png,E-H.png,hH,hH,mask-1.png,mask-3.png,h,1,0.7294973998796195,none,-5,0,0.05071580014191568,0.04818439995869994,0.10039290017448366,0.09929160005412996,0.3019008000846952
RSVPLG03,km,20251202-101313,1.0.2,20251202-094321,754,Practice,T1,1,Automatic,main,4,20251202-101345,local,local,750,H,H,E,E,E-H.png,E-H.png,hH,hH,mask-3.png,mask-2.png,s,0,1.3949843000154942,none,-5,0,0.04997740010730922,0.04956079996190965,0.1011270999442786,0.09950190014205873,0.7530827999580652
RSVPLG03,km,20251202-101313,1.0.2,20251202-094321,754,Practice,T1,1,Automatic,main,5,20251202-101351,local,global,300,S,H,A,E,A-S.png,H-E.png,sS,hH,mask-4.png,mask-2.png,h,0,2.551331999944523,none,-5,0,0.05001589981839061,0.04905119980685413,0.09992940002121031,0.09961159992963076,0.3005898999981582
RSVPLG03,km,20251202-101313,1.0.2,20251202-094321,754,Practice,T1,1,Automatic,main,6,20251202-101357,global,local,750,S,H,E,E,S-E.png,E-H.png,sS,hH,mask-1.png,mask-1.png,s,1,1.2932895000558347,none,-5,0,0.0485359001904726,0.049823000095784664,0.09911920013837516,0.10219989996403456,0.7490650000981987
RSVPLG03,km,20251202-101313,1.0.2,20251202-094321,754,Practice,T1,1,Automatic,main,7,20251202-101402,global,global,300,H,S,A,E,H-A.png,S-E.png,hH,sS,mask-2.png,mask-3.png,h,1,0.8516792000737041,none,-5,0,0.050692399963736534,0.051382899982854724,0.09910640004090965,0.1019164000172168,0.29929469991475344
RSVPLG03,km,20251202-101313,1.0.2,20251202-094321,754,Practice,T1,1,Automatic,main,8,20251202-101406,local,local,750,S,H,E,E,E-S.png,E-H.png,sS,hH,mask-4.png,mask-3.png,s,1,1.196106299990788,none,-5,0,0.049813199788331985,0.048150100046768785,0.10145269986242056,0.1014328000601381,0.7527265998069197
RSVPLG03,km,20251202-101313,1.0.2,20251202-094321,754,Practice,T1,1,Automatic,main,9,20251202-101412,local,local,300,S,S,A,E,A-S.png,E-S.png,sS,sS,mask-2.png,mask-4.png,s,1,0.4755792999640107,none,-5,0,0.05031049996614456,0.04991029994562268,0.09755620011128485,0.09997079987078905,0.299292900133878
RSVPLG03,km,20251202-101313,1.0.2,20251202-094321,754,Practice,T1,1,Automatic,main,10,20251202-101416,local,global,750,H,H,E,A,E-H.png,H-A.png,hH,hH,mask-2.png,mask-4.png,h,1,0.26843190006911755,none,-5,0,0.04861559998244047,0.05110929999500513,0.09877200005576015,0.10177119984291494,0.7502483001444489
RSVPLG03,km,20251202-101313,1.0.2,20251202-094321,754,Practice,T1,1,Automatic,main,11,20251202-101420,global,local,300,S,H,A,A,S-A.png,A-H.png,sS,hH,mask-2.png,mask-3.png,s,1,0.8396960999816656,none,-5,0,0.05089080007746816,0.048802699893713,0.10156680014915764,0.09892689995467663,0.302531500114128
RSVPLG03,km,20251202-101313,1.0.2,20251202-094321,754,Practice,T1,1,Automatic,main,12,20251202-101424,local,global,300,S,S,E,E,E-S.png,S-E.png,sS,sS,mask-1.png,mask-1.png,s,1,0.830509299878031,none,-5,0,0.04943160014227033,0.04957340005785227,0.09850200009532273,0.09989459998905659,0.29954060004092753
RSVPLG03,km,20251202-101313,1.0.2,20251202-094321,754,Practice,T1,1,Automatic,main,13,20251202-101429,global,global,750,H,S,A,A,H-A.png,S-A.png,hH,sS,mask-3.png,mask-4.png,h,1,0.6766282999888062,none,-5,0,0.053331300150603056,0.05093449982814491,0.09998019994236529,0.09946609986945987,0.7527698001358658
RSVPLG03,km,20251202-101313,1.0.2,20251202-094321,754,Practice,T1,1,Automatic,main,14,20251202-101433,global,local,750,S,S,A,E,S-A.png,E-S.png,sS,sS,mask-1.png,mask-4.png,s,1,0.2812948999926448,none,-5,0,0.04976970003917813,0.048751499969512224,0.09964239993132651,0.10067700012587011,0.751576199894771
RSVPLG03,km,20251202-101313,1.0.2,20251202-094321,754,Practice,T1,1,Automatic,main,15,20251202-101438,global,global,750,S,S,A,E,S-A.png,S-E.png,sS,sS,mask-2.png,mask-3.png,s,1,0.34859840013086796,none,-5,0,0.04879919998347759,0.04980539996176958,0.09969519986771047,0.09943649987690151,0.75093730003573
RSVPLG03,km,20251202-101313,1.0.2,20251202-094321,754,Practice,T1,1,Automatic,main,16,20251202-101442,local,local,300,H,S,E,E,E-H.png,E-S.png,hH,sS,mask-2.png,mask-2.png,h,1,1.3260675000492483,none,-5,0,0.05008150008507073,0.04983769985847175,0.10100030014291406,0.09922529989853501,0.30249480018392205
RSVPLG03,km,20251202-101521,1.0.2,20251202-094321,754,Introduction,Both,1,Automatic,main,1,20251202-101540,local,global,750,H,S,A,A,A-H.png,S-A.png,hH,sS,mask-3.png,mask-1.png,h,1,2.501812000060454,s,1,3.1297997999936342,0.09607130009680986,0.09649179992266,0.19499380001798272,0.19888069992884994,0.7482025001663715
RSVPLG03,km,20251202-101521,1.0.2,20251202-094321,754,Introduction,Both,1,Automatic,main,2,20251202-101549,global,global,750,S,H,A,A,S-A.png,H-A.png,sS,hH,mask-1.png,mask-4.png,s,1,2.0906219999305904,h,1,0.9086136999540031,0.09570629987865686,0.09888789989054203,0.19704760005697608,0.19825290003791451,0.7478010000195354
RSVPLG03,km,20251202-101521,1.0.2,20251202-094321,754,Introduction,Both,1,Automatic,main,3,20251202-101557,global,local,750,H,H,E,E,H-E.png,E-H.png,hH,hH,mask-3.png,mask-4.png,h,1,3.1930897999554873,h,1,1.7878238998819143,0.10028359992429614,0.10056650009937584,0.20078379986807704,0.20001030014827847,0.7500210998114198
RSVPLG03,km,20251202-101521,1.0.2,20251202-094321,754,Introduction,Both,1,Automatic,main,4,20251202-101606,global,local,750,H,H,E,A,H-E.png,A-H.png,hH,hH,mask-3.png,mask-3.png,h,1,1.729609499918297,h,1,0.3107170998118818,0.09938609995879233,0.10099090007133782,0.19944870006293058,0.19927149987779558,0.7508562000002712
RSVPLG03,km,20251202-101521,1.0.2,20251202-094321,754,Introduction,Both,1,Automatic,main,5,20251202-101612,local,global,750,S,H,E,A,E-S.png,H-A.png,sS,hH,mask-4.png,mask-2.png,s,1,4.179061299888417,s,0,0.5476985999848694,0.10118910018354654,0.1002458999864757,0.20110599999316037,0.199221899965778,0.7501481000799686
RSVPLG03,km,20251202-101521,1.0.2,20251202-094321,754,Introduction,Both,1,Automatic,main,6,20251202-101621,global,global,750,S,H,E,A,S-E.png,H-A.png,sS,hH,mask-3.png,mask-2.png,s,1,1.0475545001681894,h,1,0.25690110004507005,0.09917980013415217,0.09796790010295808,0.19930630014277995,0.19723869999870658,0.7505504000000656
RSVPLG03,km,20251202-101521,1.0.2,20251202-094321,754,Introduction,Both,1,Automatic,main,7,20251202-101627,global,global,750,S,H,E,A,S-E.png,H-A.png,sS,hH,mask-4.png,mask-1.png,s,1,0.8699376001022756,h,1,0.180253200000152,0.09856299986131489,0.09992269985377789,0.19895890005864203,0.19978939997963607,0.7488599000498652
RSVPLG03,km,20251202-101521,1.0.2,20251202-094321,754,Introduction,Both,1,Automatic,main,8,20251202-101632,local,local,750,H,S,A,A,A-H.png,A-S.png,hH,sS,mask-4.png,mask-4.png,none,-6,0,none,-6,0,0.09746229997836053,0.09926829999312758,0.1966329999268055,0.2000164999626577,0.7473293000366539
RSVPLG03,km,20251202-101647,1.0.2,20251202-094321,754,Practice,Both,1,Automatic,main,1,20251202-101705,global,global,750,H,S,A,E,H-A.png,S-E.png,hH,sS,mask-2.png,mask-4.png,h,1,1.9127933999989182,s,1,0.43021910008974373,0.037469099974259734,0.05252679996192455,0.08823550003580749,0.10229209996759892,0.7427026000805199
RSVPLG03,km,20251202-101647,1.0.2,20251202-094321,754,Practice,Both,1,Automatic,main,2,20251202-101711,global,global,300,S,S,E,E,S-E.png,S-E.png,sS,sS,mask-2.png,mask-2.png,s,1,1.1417090001050383,s,1,0.30734890000894666,0.04938190011307597,0.05217749997973442,0.10104710003361106,0.10194030008278787,0.3011767000425607
RSVPLG03,km,20251202-101647,1.0.2,20251202-094321,754,Practice,Both,1,Automatic,main,3,20251202-101716,local,local,750,H,S,A,E,A-H.png,E-S.png,hH,sS,mask-1.png,mask-1.png,h,1,0.9027630998753011,s,1,0.27578569995239377,0.04967959993518889,0.051793500082567334,0.10100629995577037,0.09980820002965629,0.7558571000117809
RSVPLG03,km,20251202-101647,1.0.2,20251202-094321,754,Practice,Both,1,Automatic,main,4,20251202-101722,global,global,750,H,S,E,A,H-E.png,S-A.png,hH,sS,mask-3.png,mask-3.png,h,1,0.9049319999758154,s,1,0.14718600013293326,0.04959050007164478,0.049762000096961856,0.09986700001172721,0.10090270009823143,0.7562756999395788
RSVPLG03,km,20251202-101647,1.0.2,20251202-094321,754,Practice,Both,1,Automatic,main,5,20251202-101727,global,local,300,S,H,E,E,S-E.png,E-H.png,sS,hH,mask-2.png,mask-1.png,s,1,2.196633599931374,s,0,0.5636852001771331,0.04977380018681288,0.04992859996855259,0.1024621999822557,0.1002040000166744,0.3031609000172466
RSVPLG03,km,20251202-101647,1.0.2,20251202-094321,754,Practice,Both,1,Automatic,main,6,20251202-101733,local,global,750,S,S,E,E,E-S.png,S-E.png,sS,sS,mask-1.png,mask-1.png,s,1,2.019368699984625,s,1,0.16550900018773973,0.050351599929854274,0.05098159983754158,0.1001995000988245,0.10129959997721016,0.7560827000997961
RSVPLG03,km,20251202-101647,1.0.2,20251202-094321,754,Practice,Both,1,Automatic,main,7,20251202-101739,local,local,750,H,H,A,E,A-H.png,E-H.png,hH,hH,mask-4.png,mask-2.png,h,1,0.7815680000931025,h,1,0.08037909981794655,0.05004450003616512,0.050182699924334884,0.0996014999691397,0.10180709999985993,0.7551766999531537
RSVPLG03,km,20251202-101647,1.0.2,20251202-094321,754,Practice,Both,1,Automatic,main,8,20251202-101744,global,local,300,S,S,E,E,S-E.png,E-S.png,sS,sS,mask-3.png,mask-1.png,s,1,1.8838033999782056,s,1,0.1624757000245154,0.0499887999612838,0.050265099853277206,0.1011307998560369,0.10193259990774095,0.3023306999821216
RSVPLG03,km,20251202-101647,1.0.2,20251202-094321,754,Practice,Both,1,Automatic,main,9,20251202-101750,local,global,300,H,S,A,E,A-H.png,S-E.png,hH,sS,mask-2.png,mask-3.png,h,1,1.8818572000600398,h,0,0.06913609988987446,0.049899599980562925,0.05024979985319078,0.10090540000237525,0.10063459980301559,0.3042033000383526
RSVPLG03,km,20251202-101647,1.0.2,20251202-094321,754,Practice,Both,1,Automatic,main,10,20251202-101756,global,local,750,S,H,A,E,S-A.png,E-H.png,sS,hH,mask-1.png,mask-1.png,s,1,2.6589549998752773,h,1,0.015244800131767988,0.0486971999052912,0.05106250010430813,0.09873539977706969,0.10101490002125502,0.755035099806264
RSVPLG03,km,20251202-101647,1.0.2,20251202-094321,754,Practice,Both,1,Automatic,main,11,20251202-101802,local,global,750,S,S,A,E,A-S.png,S-E.png,sS,sS,mask-3.png,mask-3.png,s,1,3.0172033000271767,s,1,0.08976200013421476,0.05111979995854199,0.048928000032901764,0.10111319995485246,0.10048940009437501,0.757463299902156
RSVPLG03,km,20251202-101647,1.0.2,20251202-094321,754,Practice,Both,1,Automatic,main,12,20251202-101810,local,local,300,H,S,E,E,E-H.png,E-S.png,hH,sS,mask-3.png,mask-1.png,s,0,3.778483400121331,h,0,3.8741314001381397,0.04999720002524555,0.050126299960538745,0.10191359999589622,0.10184779996052384,0.30221919994801283
RSVPLG03,km,20251202-101647,1.0.2,20251202-094321,754,Practice,Both,1,Automatic,main,13,20251202-101817,global,local,750,H,S,E,A,H-E.png,A-S.png,hH,sS,mask-1.png,mask-4.png,h,1,1.467351899947971,h,0,2.2047782000154257,0.04973119986243546,0.04916880000382662,0.1012043000664562,0.10091519984416664,0.7566217000130564
RSVPLG03,km,20251202-101647,1.0.2,20251202-094321,754,Practice,Both,1,Automatic,main,14,20251202-101825,local,global,300,H,H,A,A,A-H.png,H-A.png,hH,hH,mask-4.png,mask-1.png,h,1,1.7703499000053853,h,1,0.30791680002585053,0.048604599898681045,0.050132300006225705,0.10024819988757372,0.09962540003471076,0.3019186998717487
RSVPLG03,km,20251202-101647,1.0.2,20251202-094321,754,Practice,Both,1,Automatic,main,15,20251202-101830,global,global,300,S,H,A,E,S-A.png,H-E.png,sS,hH,mask-3.png,mask-4.png,s,1,0.8471472000237554,s,0,0.34727080003358424,0.05127189983613789,0.05136439995840192,0.10035389987751842,0.10131619987078011,0.30240199994295835
RSVPLG03,km,20251202-101647,1.0.2,20251202-094321,754,Practice,Both,1,Automatic,main,16,20251202-101835,local,local,300,H,H,E,E,E-H.png,E-H.png,hH,hH,mask-2.png,mask-3.png,h,1,1.1619780000764877,h,1,0.23757859994657338,0.05084299994632602,0.051141100004315376,0.10057089990004897,0.10231119999662042,0.3028891000431031
RSVPLG03,km,20251202-101933,1.0.2,20251202-094321,754,Experiment,Both,1,Automatic,warmup,1,20251202-102016,global,local,300,S,S,A,E,S-A.png,E-S.png,sS,sS,mask-1.png,mask-4.png,s,1,3.148635500110686,h,0,1.1624151999130845,0.04523810022510588,0.049982599914073944,0.09503720002248883,0.10074429982341826,0.2950668002013117
RSVPLG03,km,20251202-101933,1.0.2,20251202-094321,754,Experiment,Both,1,Automatic,warmup,2,20251202-102023,global,global,300,H,H,E,E,H-E.png,H-E.png,hH,hH,mask-1.png,mask-3.png,h,1,1.8965620000381023,h,1,0.1721892999485135,0.05183249991387129,0.05300999991595745,0.10249720001593232,0.10024199984036386,0.301533600082621
RSVPLG03,km,20251202-101933,1.0.2,20251202-094321,754,Experiment,Both,1,Automatic,warmup,3,20251202-102029,local,global,750,S,H,A,E,A-S.png,H-E.png,sS,hH,mask-1.png,mask-1.png,s,1,2.755947400117293,h,1,0.46153159998357296,0.0487660001963377,0.04853180004283786,0.0991711001843214,0.09750809986144304,0.7525405001360923
RSVPLG03,km,20251202-101933,1.0.2,20251202-094321,754,Experiment,Both,1,Automatic,warmup,4,20251202-102036,global,local,750,H,S,A,A,H-A.png,A-S.png,hH,sS,mask-3.png,mask-1.png,h,1,1.4268889999948442,s,1,0.15510430000722408,0.05156829999759793,0.05040519987232983,0.10062209982424974,0.10001789988018572,0.7506641999352723
RSVPLG03,km,20251202-101933,1.0.2,20251202-094321,754,Experiment,Both,1,Automatic,main,5,20251202-102042,local,local,300,S,H,E,A,E-S.png,A-H.png,sS,hH,mask-2.png,mask-3.png,s,1,1.4834139000158757,h,1,0.0374310000333935,0.04986310005187988,0.05091010010801256,0.10024830000475049,0.10040090000256896,0.30039480002596974
RSVPLG03,km,20251202-101933,1.0.2,20251202-094321,754,Experiment,Both,1,Automatic,main,6,20251202-102047,local,global,300,H,H,E,E,E-H.png,H-E.png,hH,hH,mask-2.png,mask-1.png,h,1,2.551916299853474,s,0,0.045622200006619096,0.05119100003503263,0.04975599981844425,0.10402829991653562,0.09917229996062815,0.3019634000957012
RSVPLG03,km,20251202-101933,1.0.2,20251202-094321,754,Experiment,Both,1,Automatic,main,7,20251202-102053,local,global,750,S,H,E,E,E-S.png,H-E.png,sS,hH,mask-3.png,mask-4.png,s,1,1.0715319998562336,h,1,0.02256050007417798,0.049339900026097894,0.04938670014962554,0.10073090018704534,0.09881520015187562,0.7512890000361949
RSVPLG03,km,20251202-101933,1.0.2,20251202-094321,754,Experiment,Both,1,Automatic,main,8,20251202-102059,global,local,750,S,S,A,A,S-A.png,A-S.png,sS,sS,mask-4.png,mask-2.png,h,0,1.7370718999300152,s,1,0.04588979994878173,0.04975040000863373,0.05101250018924475,0.098798300139606,0.10073840012773871,0.7502983999438584
RSVPLG03,km,20251202-101933,1.0.2,20251202-094321,754,Experiment,Both,1,Automatic,main,9,20251202-102104,local,global,750,S,S,E,E,E-S.png,S-E.png,sS,sS,mask-2.png,mask-1.png,s,1,0.9061960000544786,s,1,0.05807560007087886,0.05094180000014603,0.051186100114136934,0.1005347000900656,0.10033040004782379,0.7506933000404388
RSVPLG03,km,20251202-101933,1.0.2,20251202-094321,754,Experiment,Both,1,Automatic,main,10,20251202-102109,global,global,300,S,H,E,A,S-E.png,H-A.png,sS,hH,mask-4.png,mask-4.png,s,1,2.319645900046453,s,0,0.0804720998276025,0.04952010000124574,0.051869000075384974,0.10002650017850101,0.10118510015308857,0.29909510002471507
RSVPLG03,km,20251202-101933,1.0.2,20251202-094321,754,Experiment,Both,1,Automatic,main,11,20251202-102115,global,local,300,H,H,E,A,H-E.png,A-H.png,hH,hH,mask-1.png,mask-4.png,h,1,0.6519273999147117,h,1,0.06329410010948777,0.0490945999044925,0.05066230008378625,0.10038580000400543,0.101994400145486,0.2985908999107778
RSVPLG03,km,20251202-101933,1.0.2,20251202-094321,754,Experiment,Both,1,Automatic,main,12,20251202-102120,global,local,750,S,S,E,A,S-E.png,A-S.png,sS,sS,mask-1.png,mask-1.png,s,1,2.423901099944487,s,1,0.0436172999907285,0.04920460004359484,0.049552900018170476,0.10081169987097383,0.10126339993439615,0.7522710000630468
RSVPLG03,km,20251202-101933,1.0.2,20251202-094321,754,Experiment,Both,1,Automatic,main,13,20251202-102126,local,global,300,H,H,E,A,E-H.png,H-A.png,hH,hH,mask-4.png,mask-3.png,h,1,4.019815400009975,s,0,0.034643399994820356,0.05234379996545613,0.05017849989235401,0.10310199996456504,0.10122609999962151,0.3024459001608193
RSVPLG03,km,20251202-101933,1.0.2,20251202-094321,754,Experiment,Both,1,Automatic,main,14,20251202-102134,local,local,750,S,H,E,A,E-S.png,A-H.png,sS,hH,mask-4.png,mask-3.png,s,1,1.9165167999453843,h,1,0.012967800023034215,0.05096310004591942,0.050107300048694015,0.10090869991108775,0.10394640010781586,0.7506099999882281
RSVPLG03,km,20251202-101933,1.0.2,20251202-094321,754,Experiment,Both,1,Automatic,main,15,20251202-102140,global,local,750,S,S,A,A,S-A.png,A-S.png,sS,sS,mask-3.png,mask-3.png,s,1,1.8572903000749648,s,1,0.09047710010781884,0.04879490006715059,0.04988529998809099,0.0985526000149548,0.09830100019462407,0.7520598999690264
RSVPLG03,km,20251202-101933,1.0.2,20251202-094321,754,Experiment,Both,1,Automatic,main,16,20251202-102146,local,local,300,S,S,E,E,E-S.png,E-S.png,sS,sS,mask-4.png,mask-4.png,s,1,1.6977052001748234,h,0,0.004501599818468094,0.050688100047409534,0.05104890000075102,0.09767960011959076,0.10030919988639653,0.29978070012293756
RSVPLG03,km,20251202-101933,1.0.2,20251202-094321,754,Experiment,Both,1,Automatic,main,17,20251202-102151,local,global,300,S,S,E,E,E-S.png,S-E.png,sS,sS,mask-1.png,mask-4.png,s,1,0.66217409982346,s,1,0.04547939985059202,0.050982499960809946,0.05104449996724725,0.09934920002706349,0.10124400001950562,0.2998849998693913
RSVPLG03,km,20251202-101933,1.0.2,20251202-094321,754,Experiment,Both,1,Automatic,main,18,20251202-102155,local,global,750,S,S,A,E,A-S.png,S-E.png,sS,sS,mask-1.png,mask-4.png,s,1,0.6290910998359323,s,1,0.05281040002591908,0.05128840007819235,0.04966329992748797,0.10021549998782575,0.0997438000049442,0.75190500007011
RSVPLG03,km,20251202-101933,1.0.2,20251202-094321,754,Experiment,Both,1,Automatic,main,19,20251202-102200,local,local,300,H,H,A,E,A-H.png,E-H.png,hH,hH,mask-3.png,mask-3.png,h,1,0.4468439999036491,h,1,0.06130509986542165,0.05088509991765022,0.04978189989924431,0.1000208999030292,0.09888439998030663,0.30189929995685816
RSVPLG03,km,20251202-101933,1.0.2,20251202-094321,754,Experiment,Both,1,Automatic,main,20,20251202-102204,local,local,750,H,H,A,A,A-H.png,A-H.png,hH,hH,mask-1.png,mask-3.png,h,1,0.5000340999104083,h,1,0.05944609991274774,0.04939899989403784,0.050420300103724,0.09999720007181168,0.10079170018434525,0.7502579998690635
RSVPLG03,km,20251202-101933,1.0.2,20251202-094321,754,Experiment,Both,1,Automatic,main,21,20251202-102209,local,global,300,S,H,A,A,A-S.png,H-A.png,sS,hH,mask-4.png,mask-1.png,s,1,0.7632426999043673,h,1,0.01990730012767017,0.04986659996211529,0.04920140001922846,0.09955649985931814,0.09968149987980723,0.30066399998031557
RSVPLG03,km,20251202-101933,1.0.2,20251202-094321,754,Experiment,Both,1,Automatic,main,22,20251202-102213,local,global,300,H,H,E,E,E-H.png,H-E.png,hH,hH,mask-2.png,mask-1.png,h,1,1.0367123999167234,s,0,0.028058300027623773,0.04962379997596145,0.05030200001783669,0.10017119999974966,0.10041920002549887,0.29984620003961027
RSVPLG03,km,20251202-101933,1.0.2,20251202-094321,754,Experiment,Both,1,Automatic,main,23,20251202-102218,global,global,300,S,S,A,A,S-A.png,S-A.png,sS,sS,mask-4.png,mask-1.png,s,1,0.5268381999339908,s,1,0.2094907001592219,0.0485876000020653,0.05015089991502464,0.09888049983419478,0.10058289999142289,0.298923599999398
RSVPLG03,km,20251202-101933,1.0.2,20251202-094321,754,Experiment,Both,1,Automatic,main,24,20251202-102222,local,local,300,H,H,E,A,E-H.png,A-H.png,hH,hH,mask-3.png,mask-4.png,h,1,0.537787799956277,h,1,0.08338589989580214,0.048978500068187714,0.049607899971306324,0.09983620001003146,0.10080140014179051,0.2999273999594152
RSVPLG03,km,20251202-101933,1.0.2,20251202-094321,754,Experiment,Both,1,Automatic,main,25,20251202-102226,global,local,300,H,S,E,A,H-E.png,A-S.png,hH,sS,mask-3.png,mask-3.png,h,1,0.536391899921,h,0,0.1134226000867784,0.05165640008635819,0.05085300002247095,0.10144320013932884,0.10039740009233356,0.3008574000559747
RSVPLG03,km,20251202-101933,1.0.2,20251202-094321,754,Experiment,Both,1,Automatic,main,26,20251202-102257,local,global,750,H,H,A,E,A-H.png,H-E.png,hH,hH,mask-4.png,mask-1.png,s,0,1.702889199834317,h,1,0.04781120014376938,0.049929500091820955,0.050089600030332804,0.10052260011434555,0.101667599985376,0.7515185000374913
RSVPLG03,km,20251202-101933,1.0.2,20251202-094321,754,Experiment,Both,1,Automatic,main,27,20251202-102303,global,local,750,S,S,E,A,S-E.png,A-S.png,sS,sS,mask-1.png,mask-3.png,h,0,0.5298564999829978,h,0,0.09925099997781217,0.051137500209733844,0.05078739998862147,0.1009116000495851,0.09990619984455407,0.7510749001521617
RSVPLG03,km,20251202-101933,1.0.2,20251202-094321,754,Experiment,Both,1,Automatic,main,28,20251202-102308,local,local,750,H,S,E,A,E-H.png,A-S.png,hH,sS,mask-4.png,mask-4.png,s,0,0.9991788999177516,h,0,0.014005100121721625,0.050954399863258004,0.04877709993161261,0.100461799884215,0.10005759983323514,0.7519223999697715
RSVPLG03,km,20251202-101933,1.0.2,20251202-094321,754,Experiment,Both,1,Automatic,main,29,20251202-102313,global,global,750,S,H,A,A,S-A.png,H-A.png,sS,hH,mask-3.png,mask-3.png,s,1,2.387622300069779,h,1,0.050727499881759286,0.049259799998253584,0.049535400001332164,0.09844889980740845,0.09962789993733168,0.7505190998781472
RSVPLG03,km,20251202-101933,1.0.2,20251202-094321,754,Experiment,Both,1,Automatic,main,30,20251202-102319,local,global,300,S,S,E,E,E-S.png,S-E.png,sS,sS,mask-1.png,mask-2.png,s,1,0.7937082999851555,h,0,0.011141899973154068,0.05141000007279217,0.04969629994593561,0.1015002999920398,0.10008380003273487,0.29957580007612705
RSVPLG03,km,20251202-101933,1.0.2,20251202-094321,754,Experiment,Both,1,Automatic,main,31,20251202-102324,global,local,750,S,H,A,E,S-A.png,E-H.png,sS,hH,mask-4.png,mask-3.png,s,1,1.0018872001674026,h,1,0.03883110010065138,0.049667099956423044,0.05007939995266497,0.09885920002125204,0.10077939997427166,0.7497388001065701
RSVPLG03,km,20251202-101933,1.0.2,20251202-094321,754,Experiment,Both,1,Automatic,main,32,20251202-102329,global,local,750,H,S,A,A,H-A.png,A-S.png,hH,sS,mask-3.png,mask-3.png,h,1,0.9542956000659615,s,1,0.05383040010929108,0.0517790000885725,0.05053450004197657,0.1000171999912709,0.10046830005012453,0.7527054999954998
RSVPLG03,km,20251202-101933,1.0.2,20251202-094321,754,Experiment,Both,1,Automatic,main,33,20251202-102334,global,global,300,S,S,A,E,S-A.png,S-E.png,sS,sS,mask-3.png,mask-1.png,s,1,1.7560521000996232,s,1,0.08545730006881058,0.05014299997128546,0.05156379984691739,0.10051609994843602,0.1018727000337094,0.30089340009726584
RSVPLG03,km,20251202-101933,1.0.2,20251202-094321,754,Experiment,Both,1,Automatic,main,34,20251202-102339,global,local,750,S,S,A,E,S-A.png,E-S.png,sS,sS,mask-1.png,mask-2.png,s,1,0.47617719997651875,s,1,0.10706850001588464,0.05049289995804429,0.04907949990592897,0.10069240001030266,0.09914099983870983,0.7526337001472712
RSVPLG03,km,20251202-101933,1.0.2,20251202-094321,754,Experiment,Both,1,Automatic,main,35,20251202-102344,local,global,300,S,S,E,A,E-S.png,S-A.png,sS,sS,mask-2.png,mask-2.png,h,0,1.1279386000242084,s,1,0.02959050005301833,0.0474738001357764,0.04992110002785921,0.09842779999598861,0.10093489987775683,0.2991041000932455
RSVPLG03,km,20251202-101933,1.0.2,20251202-094321,754,Experiment,Both,1,Automatic,main,36,20251202-102349,global,local,750,S,S,A,E,S-A.png,E-S.png,sS,sS,mask-1.png,mask-1.png,s,1,1.4938307998236269,h,0,0.050724499858915806,0.05019400012679398,0.04926329990848899,0.09910360001958907,0.09940089983865619,0.7503818001132458
RSVPLG03,km,20251202-101933,1.0.2,20251202-094321,754,Experiment,Both,1,Automatic,main,37,20251202-102354,local,local,750,H,S,A,A,A-H.png,A-S.png,hH,sS,mask-3.png,mask-1.png,s,0,0.583107499871403,h,0,0.7733249999582767,0.04897770006209612,0.05175650003366172,0.09928510012105107,0.09998290007933974,0.7507207000162452
RSVPLG03,km,20251202-101933,1.0.2,20251202-094321,754,Experiment,Both,1,Automatic,main,38,20251202-102400,local,global,750,S,S,E,E,E-S.png,S-E.png,sS,sS,mask-1.png,mask-1.png,s,1,0.781122799962759,s,1,0.5370545000769198,0.04967269999906421,0.04950960003770888,0.10112349991686642,0.10017529991455376,0.7503386000171304
RSVPLG03,km,20251202-101933,1.0.2,20251202-094321,754,Experiment,Both,1,Automatic,main,39,20251202-102405,local,global,300,S,H,A,A,A-S.png,H-A.png,sS,hH,mask-1.png,mask-2.png,s,1,1.023577000014484,s,0,0.05975000001490116,0.050158699974417686,0.04862889996729791,0.10025819996371865,0.10105259995907545,0.3015691000036895
RSVPLG03,km,20251202-101933,1.0.2,20251202-094321,754,Experiment,Both,1,Automatic,main,40,20251202-102410,global,local,750,S,S,A,A,S-A.png,A-S.png,sS,sS,mask-4.png,mask-1.png,s,1,2.1441514999605715,h,0,0.04527510004118085,0.049840199993923306,0.04945010016672313,0.10028299991972744,0.09906539996154606,0.7521025999449193
RSVPLG03,km,20251202-101933,1.0.2,20251202-094321,754,Experiment,Both,1,Automatic,main,41,20251202-102416,global,local,300,S,S,A,E,S-A.png,E-S.png,sS,sS,mask-4.png,mask-4.png,s,1,0.6908525000326335,h,0,0.25369520019739866,0.047290500020608306,0.05086089996621013,0.09879119996912777,0.10108770010992885,0.29832750000059605
RSVPLG03,km,20251202-101933,1.0.2,20251202-094321,754,Experiment,Both,1,Automatic,main,42,20251202-102421,global,global,300,H,H,E,A,H-E.png,H-A.png,hH,hH,mask-4.png,mask-1.png,h,1,0.5123175999615341,h,1,0.12511779996566474,0.047729199985042214,0.050030099926516414,0.09880400006659329,0.09898060001432896,0.29955950006842613
RSVPLG03,km,20251202-101933,1.0.2,20251202-094321,754,Experiment,Both,1,Automatic,main,43,20251202-102425,local,local,750,S,H,A,A,A-S.png,A-H.png,sS,hH,mask-1.png,mask-4.png,s,1,1.858563199872151,s,0,0.12609919998794794,0.049093900015577674,0.050997900078073144,0.10012179985642433,0.10058360011316836,0.7496151998639107
RSVPLG03,km,20251202-101933,1.0.2,20251202-094321,754,Experiment,Both,1,Automatic,main,44,20251202-102431,local,global,750,H,S,A,A,A-H.png,S-A.png,hH,sS,mask-4.png,mask-1.png,h,1,3.4865180999040604,s,1,0.046857599867507815,0.049495100043714046,0.049681900069117546,0.10078660002909601,0.09955490007996559,0.7502627999056131
RSVPLG03,km,20251202-101933,1.0.2,20251202-094321,754,Experiment,Both,1,Automatic,main,45,20251202-102438,local,local,300,S,H,E,E,E-S.png,E-H.png,sS,hH,mask-1.png,mask-3.png,s,1,1.1602974000852555,h,1,0.4900722000747919,0.050404799869284034,0.05076910019852221,0.10070759989321232,0.10057220002636313,0.3001227998174727
RSVPLG03,km,20251202-101933,1.0.2,20251202-094321,754,Experiment,Both,1,Automatic,main,46,20251202-102444,local,global,750,S,S,E,A,E-S.png,S-A.png,sS,sS,mask-4.png,mask-2.png,s,1,1.2503158999606967,s,1,2.238057600101456,0.05127390008419752,0.0498172000516206,0.10003599990159273,0.10017609992064536,0.7509963000193238
RSVPLG03,km,20251202-101933,1.0.2,20251202-094321,754,Experiment,Both,1,Automatic,main,47,20251202-102451,global,local,750,H,S,A,A,H-A.png,A-S.png,hH,sS,mask-1.png,mask-4.png,h,1,1.0667332999873906,h,0,0.08644199999980628,0.04852099996060133,0.0484520997852087,0.09902490000240505,0.09835559991188347,0.750187500147149
RSVPLG03,km,20251202-101933,1.0.2,20251202-094321,754,Experiment,Both,1,Automatic,main,48,20251202-102457,global,local,750,S,S,E,A,S-E.png,A-S.png,sS,sS,mask-3.png,mask-3.png,s,1,1.423513000132516,s,1,0.06114270002581179,0.04974329983815551,0.04855499998666346,0.09997319988906384,0.09978760010562837,0.7517183998133987
RSVPLG03,km,20251202-101933,1.0.2,20251202-094321,754,Experiment,Both,1,Automatic,main,49,20251202-102502,local,local,750,H,S,A,A,A-H.png,A-S.png,hH,sS,mask-3.png,mask-3.png,h,1,0.4981623999774456,s,1,0.03761070012114942,0.050722100073471665,0.05146829993464053,0.10116679989732802,0.1003517999779433,0.7509955000132322
RSVPLG03,km,20251202-101933,1.0.2,20251202-094321,754,Experiment,Both,1,Automatic,main,50,20251202-102507,local,global,300,S,S,A,E,A-S.png,S-E.png,sS,sS,mask-2.png,mask-2.png,s,1,0.6633839001879096,s,1,0.20525650004856288,0.04923590016551316,0.04880689992569387,0.09922059997916222,0.09975069994106889,0.3000213000923395
RSVPLG03,km,20251202-101933,1.0.2,20251202-094321,754,Experiment,Both,1,Automatic,main,51,20251202-102540,global,global,750,H,S,E,E,H-E.png,S-E.png,hH,sS,mask-4.png,mask-4.png,h,1,1.404808099847287,s,1,0.03401530021801591,0.051464700140058994,0.048520300071686506,0.10291620017960668,0.09891940001398325,0.7523753000423312
RSVPLG03,km,20251202-101933,1.0.2,20251202-094321,754,Experiment,Both,1,Automatic,main,52,20251202-102546,local,local,750,H,H,A,E,A-H.png,E-H.png,hH,hH,mask-1.png,mask-4.png,h,1,0.47149470006115735,h,1,0.06545259989798069,0.05111239990219474,0.04955110000446439,0.10019899997860193,0.10108410008251667,0.7504823999479413
RSVPLG03,km,20251202-101933,1.0.2,20251202-094321,754,Experiment,Both,1,Automatic,main,53,20251202-102550,local,local,300,S,H,A,A,A-S.png,A-H.png,sS,hH,mask-1.png,mask-1.png,s,1,1.4773693999741226,s,0,0.06719040009193122,0.05026809987612069,0.04940079990774393,0.100437399931252,0.09992539999075234,0.30095609999261796
RSVPLG03,km,20251202-101933,1.0.2,20251202-094321,754,Experiment,Both,1,Automatic,main,54,20251202-102555,global,global,750,S,H,A,E,S-A.png,H-E.png,sS,hH,mask-2.png,mask-3.png,s,1,1.1791411999147385,h,1,0.04538300004787743,0.050900000147521496,0.04990199999883771,0.10149300005286932,0.10117179993540049,0.7513949000276625
RSVPLG03,km,20251202-101933,1.0.2,20251202-094321,754,Experiment,Both,1,Automatic,main,55,20251202-102601,local,local,300,H,S,A,A,A-H.png,A-S.png,hH,sS,mask-2.png,mask-2.png,h,1,0.9472608000505716,s,1,0.05260170018300414,0.04986510006710887,0.05024160002358258,0.10036260006017983,0.10076529998332262,0.3006112000439316
RSVPLG03,km,20251202-101933,1.0.2,20251202-094321,754,Experiment,Both,1,Automatic,main,56,20251202-102605,global,local,300,H,S,E,A,H-E.png,A-S.png,hH,sS,mask-4.png,mask-2.png,h,1,2.96912520006299,s,1,0.01933040004223585,0.0508838000241667,0.04946690006181598,0.10156839992851019,0.10033920011483133,0.30029439995996654
RSVPLG03,km,20251202-101933,1.0.2,20251202-094321,754,Experiment,Both,1,Automatic,main,57,20251202-102612,global,local,300,S,S,A,A,S-A.png,A-S.png,sS,sS,mask-4.png,mask-4.png,s,1,1.5915288999676704,h,0,0.021635800134390593,0.04987380001693964,0.04844829998910427,0.1001564001198858,0.09808060014620423,0.3006094000302255
RSVPLG03,km,20251202-101933,1.0.2,20251202-094321,754,Experiment,Both,1,Automatic,main,58,20251202-102617,global,global,750,S,H,E,E,S-E.png,H-E.png,sS,hH,mask-1.png,mask-1.png,h,0,0.7417913998942822,h,1,0.06100530014373362,0.04885259992443025,0.04960540006868541,0.09951930004172027,0.10132690006867051,0.7507460999768227
RSVPLG03,km,20251202-101933,1.0.2,20251202-094321,754,Experiment,Both,1,Automatic,main,59,20251202-102622,global,global,750,S,H,A,E,S-A.png,H-E.png,sS,hH,mask-3.png,mask-3.png,s,1,1.000109100015834,h,1,0.004008700139820576,0.05091960006393492,0.04927950003184378,0.09985860018059611,0.09957039984874427,0.7528008001390845
RSVPLG03,km,20251202-101933,1.0.2,20251202-094321,754,Experiment,Both,1,Automatic,main,60,20251202-102627,local,global,750,S,H,A,E,A-S.png,H-E.png,sS,hH,mask-1.png,mask-2.png,s,1,1.3286468998994678,s,0,0.1691010999493301,0.04926889995113015,0.04957030015066266,0.09936279989778996,0.1010833999607712,0.7507908998522907
RSVPLG03,km,20251202-101933,1.0.2,20251202-094321,754,Experiment,Both,1,Automatic,main,61,20251202-102632,local,global,750,H,S,E,A,E-H.png,S-A.png,hH,sS,mask-2.png,mask-4.png,h,1,1.2320159000810236,h,0,0.07325819996185601,0.05093310005031526,0.05021290015429258,0.1002188001293689,0.10041230008937418,0.7515201999340206
RSVPLG03,km,20251202-101933,1.0.2,20251202-094321,754,Experiment,Both,1,Automatic,main,62,20251202-102638,global,global,300,S,H,A,A,S-A.png,H-A.png,sS,hH,mask-3.png,mask-3.png,s,1,0.725348399952054,h,1,0.025057599879801273,0.051528200041502714,0.050403499975800514,0.1008935000281781,0.1032797999214381,0.30147110018879175
RSVPLG03,km,20251202-101933,1.0.2,20251202-094321,754,Experiment,Both,1,Automatic,main,63,20251202-102642,global,global,300,H,H,E,A,H-E.png,H-A.png,hH,hH,mask-3.png,mask-1.png,h,1,0.487209300044924,h,1,0.07465450000017881,0.049280800158157945,0.04976740013808012,0.09976530005224049,0.09935190016403794,0.29880560003221035
RSVPLG03,km,20251202-101933,1.0.2,20251202-094321,754,Experiment,Both,1,Automatic,main,64,20251202-102646,local,local,750,H,S,E,E,E-H.png,E-S.png,hH,sS,mask-2.png,mask-4.png,h,1,1.000058100093156,s,1,0.03674100013449788,0.048343899892643094,0.04960160003975034,0.09863909985870123,0.10066290013492107,0.7492944998666644
RSVPLG03,km,20251202-101933,1.0.2,20251202-094321,754,Experiment,Both,1,Automatic,main,65,20251202-102651,local,global,300,S,H,A,E,A-S.png,H-E.png,sS,hH,mask-4.png,mask-2.png,s,1,1.1976207001134753,h,1,0.012181800091639161,0.04955210001207888,0.04884560010395944,0.10053159995004535,0.09999710018746555,0.3005142998881638
RSVPLG03,km,20251202-101933,1.0.2,20251202-094321,754,Experiment,Both,1,Automatic,main,66,20251202-102656,global,local,300,S,H,E,E,S-E.png,E-H.png,sS,hH,mask-4.png,mask-3.png,s,1,1.0791122999507934,h,1,0.043574600014835596,0.04897910007275641,0.04917849996127188,0.10093690012581646,0.0989550999365747,0.30150040006265044
RSVPLG03,km,20251202-101933,1.0.2,20251202-094321,754,Experiment,Both,1,Automatic,main,67,20251202-102701,local,local,300,H,H,A,A,A-H.png,A-H.png,hH,hH,mask-1.png,mask-4.png,h,1,0.8949377001263201,h,1,0.06575049995444715,0.04960089991800487,0.050459800055250525,0.09965260000899434,0.09959160001017153,0.29970670002512634
RSVPLG03,km,20251202-101933,1.0.2,20251202-094321,754,Experiment,Both,1,Automatic,main,68,20251202-102705,global,global,300,S,H,E,A,S-E.png,H-A.png,sS,hH,mask-3.png,mask-3.png,s,1,0.38493210007436574,h,1,0.042771700071170926,0.05035020015202463,0.050235799979418516,0.0997549002058804,0.09954009996727109,0.29908140003681183
RSVPLG03,km,20251202-101933,1.0.2,20251202-094321,754,Experiment,Both,1,Automatic,main,69,20251202-102710,local,local,300,H,H,E,A,E-H.png,A-H.png,hH,hH,mask-3.png,mask-2.png,h,1,0.43669670005328953,h,1,0.06406840006820858,0.049608200090005994,0.050386999966576695,0.10149400006048381,0.10061209998093545,0.3000062999781221
RSVPLG03,km,20251202-101933,1.0.2,20251202-094321,754,Experiment,Both,1,Automatic,main,70,20251202-102714,global,global,300,H,S,A,A,H-A.png,S-A.png,hH,sS,mask-2.png,mask-2.png,h,1,1.533527199877426,s,1,0.050232799956575036,0.049904400017112494,0.04818579996936023,0.09801839990541339,0.1004684001673013,0.29956449987366796
RSVPLG03,km,20251202-101933,1.0.2,20251202-094321,754,Experiment,Both,1,Automatic,main,71,20251202-102719,local,global,750,S,H,E,A,E-S.png,H-A.png,sS,hH,mask-2.png,mask-1.png,s,1,2.6390180999878794,h,1,0.02968979999423027,0.049723099917173386,0.05085869994945824,0.1001649999525398,0.09973219991661608,0.7499023000709713
RSVPLG03,km,20251202-101933,1.0.2,20251202-094321,754,Experiment,Both,1,Automatic,main,72,20251202-102725,global,local,300,S,S,E,A,S-E.png,A-S.png,sS,sS,mask-1.png,mask-2.png,s,1,1.1077934999484569,s,1,0.11004019994288683,0.04873459995724261,0.05015140003524721,0.10088979988358915,0.09809740004129708,0.301222899928689
RSVPLG03,km,20251202-101933,1.0.2,20251202-094321,754,Experiment,Both,1,Automatic,main,73,20251202-102730,global,local,300,S,S,A,A,S-A.png,A-S.png,sS,sS,mask-4.png,mask-4.png,s,1,0.9632708998396993,s,1,0.05531639978289604,0.05007850006222725,0.047554400051012635,0.09871669998392463,0.09832970006391406,0.30137669993564487
RSVPLG03,km,20251202-101933,1.0.2,20251202-094321,754,Experiment,Both,1,Automatic,main,74,20251202-102735,local,global,300,S,H,E,A,E-S.png,H-A.png,sS,hH,mask-2.png,mask-2.png,h,0,1.1310962999705225,s,0,0.03272209991700947,0.048908500000834465,0.050197199918329716,0.09589629992842674,0.09953659982420504,0.29713369999080896
RSVPLG03,km,20251202-101933,1.0.2,20251202-094321,754,Experiment,Both,1,Automatic,main,75,20251202-102740,local,local,750,H,S,A,E,A-H.png,E-S.png,hH,sS,mask-1.png,mask-4.png,h,1,0.30527079990133643,s,1,0.03690230008214712,0.04883480002172291,0.04979710001498461,0.09976720018312335,0.10001030005514622,0.7506560001056641
RSVPLG03,km,20251202-101933,1.0.2,20251202-094321,754,Experiment,Both,1,Automatic,main,76,20251202-102747,global,global,750,S,S,A,E,S-A.png,S-E.png,sS,sS,mask-2.png,mask-2.png,s,1,0.8747962999623269,s,1,0.05418510013259947,0.049459900008514524,0.04933699988760054,0.10106350015848875,0.0985194998793304,0.7508160001598299
RSVPLG03,km,20251202-101933,1.0.2,20251202-094321,754,Experiment,Both,1,Automatic,main,77,20251202-102752,local,local,750,H,S,A,A,A-H.png,A-S.png,hH,sS,mask-1.png,mask-3.png,h,1,1.030631999950856,s,1,0.02166499989107251,0.049943000078201294,0.047890399815514684,0.10046759992837906,0.10043949983082712,0.7530495000537485
RSVPLG03,km,20251202-101933,1.0.2,20251202-094321,754,Experiment,Both,1,Automatic,main,78,20251202-102757,global,global,300,H,H,A,A,H-A.png,H-A.png,hH,hH,mask-2.png,mask-1.png,h,1,1.2953023998998106,h,1,0.07537829992361367,0.05014630011282861,0.04923089989461005,0.10071110003627837,0.09872119990177453,0.30090950010344386
RSVPLG03,km,20251202-101933,1.0.2,20251202-094321,754,Experiment,Both,1,Automatic,main,79,20251202-102802,local,local,300,H,S,A,A,A-H.png,A-S.png,hH,sS,mask-2.png,mask-4.png,h,1,0.6266988001298159,s,1,0.04402340017259121,0.049013299867510796,0.05074940016493201,0.09883949998766184,0.10006700013764203,0.2988888998515904
RSVPLG03,km,20251202-101933,1.0.2,20251202-094321,754,Experiment,Both,1,Automatic,main,80,20251202-102806,local,local,750,H,H,E,E,E-H.png,E-H.png,hH,hH,mask-2.png,mask-1.png,h,1,0.7203635000623763,h,1,0.07126009999774396,0.051237500039860606,0.04945180006325245,0.1018387998919934,0.10013330006040633,0.7513907998800278
RSVPLG03,km,20251202-101933,1.0.2,20251202-094321,754,Experiment,Both,1,Automatic,main,81,20251202-102811,global,local,300,S,S,E,A,S-E.png,A-S.png,sS,sS,mask-4.png,mask-3.png,s,1,1.1733454999048263,s,1,0.06129719992168248,0.050468700006604195,0.04928830009885132,0.10047710011713207,0.10001950012519956,0.3009003000333905
RSVPLG03,km,20251202-101933,1.0.2,20251202-094321,754,Experiment,Both,1,Automatic,main,82,20251202-102816,local,global,750,H,S,A,E,A-H.png,S-E.png,hH,sS,mask-4.png,mask-1.png,h,1,1.0038175999652594,h,0,0.0848507999908179,0.0512659999076277,0.05004070000723004,0.10066089988686144,0.09996260004118085,0.7516023998614401
RSVPLG03,km,20251202-101933,1.0.2,20251202-094321,754,Experiment,Both,1,Automatic,main,83,20251202-102821,global,local,300,S,H,E,A,S-E.png,A-H.png,sS,hH,mask-1.png,mask-2.png,h,0,1.9889289001002908,s,0,0.03050630004145205,0.04941369988955557,0.04991959990002215,0.09899879992008209,0.09947969997301698,0.29987050010822713
RSVPLG03,km,20251202-101933,1.0.2,20251202-094321,754,Experiment,Both,1,Automatic,main,84,20251202-102826,local,local,750,H,S,E,E,E-H.png,E-S.png,hH,sS,mask-4.png,mask-3.png,h,1,0.4614581000059843,s,1,0.03148099989630282,0.04911100002937019,0.051225199829787016,0.10067750001326203,0.10037509980611503,0.7495854001026601
RSVPLG03,km,20251202-101933,1.0.2,20251202-094321,754,Experiment,Both,1,Automatic,main,85,20251202-102831,global,global,750,H,H,E,A,H-E.png,H-A.png,hH,hH,mask-4.png,mask-3.png,h,1,1.1805220998357981,h,1,0.06175499991513789,0.05229340004734695,0.050358499865978956,0.10173360002227128,0.09901509992778301,0.7539768000133336
RSVPLG03,km,20251202-101933,1.0.2,20251202-094321,754,Experiment,Both,1,Automatic,main,86,20251202-102836,local,local,300,H,S,A,A,A-H.png,A-S.png,hH,sS,mask-1.png,mask-4.png,h,1,1.9618781001772732,s,1,0.00820220005698502,0.04943979997187853,0.05014760000631213,0.1007252000272274,0.10131180007010698,0.30034059984609485
RSVPLG03,km,20251202-101933,1.0.2,20251202-094321,754,Experiment,Both,1,Automatic,main,87,20251202-102842,global,global,750,H,H,A,A,H-A.png,H-A.png,hH,hH,mask-2.png,mask-2.png,h,1,0.438562799943611,h,1,0.07387629989534616,0.053705899976193905,0.05089040007442236,0.09944009990431368,0.10011129989288747,0.7510128999128938
RSVPLG03,km,20251202-101933,1.0.2,20251202-094321,754,Experiment,Both,1,Automatic,main,88,20251202-102846,global,global,300,H,H,A,A,H-A.png,H-A.png,hH,hH,mask-2.png,mask-1.png,h,1,0.5813570998143405,h,1,0.06386750005185604,0.049002200132235885,0.04992439993657172,0.10124670015648007,0.10004920000210404,0.30022120010107756
RSVPLG03,km,20251202-101933,1.0.2,20251202-094321,754,Experiment,Both,1,Automatic,main,89,20251202-102850,global,local,750,H,S,E,A,H-E.png,A-S.png,hH,sS,mask-1.png,mask-1.png,h,1,0.8413408999331295,h,0,0.07407009997405112,0.05297259986400604,0.04995410004630685,0.10162659990601242,0.10042929998598993,0.7516340999864042
RSVPLG03,km,20251202-101933,1.0.2,20251202-094321,754,Experiment,Both,1,Automatic,main,90,20251202-102855,local,global,300,S,S,A,E,A-S.png,S-E.png,sS,sS,mask-2.png,mask-2.png,s,1,0.7413180998992175,s,1,0.04562600003555417,0.050945299910381436,0.052068799966946244,0.09942679991945624,0.1006048999261111,0.2991687001194805
RSVPLG03,km,20251202-101933,1.0.2,20251202-094321,754,Experiment,Both,1,Automatic,main,91,20251202-102900,global,global,750,S,H,E,A,S-E.png,H-A.png,sS,hH,mask-3.png,mask-2.png,h,0,0.4661641998682171,h,1,0.06990140001289546,0.04937330004759133,0.050160299986600876,0.1003952999599278,0.09993639984168112,0.7512264000251889
RSVPLG03,km,20251202-101933,1.0.2,20251202-094321,754,Experiment,Both,1,Automatic,main,92,20251202-102904,global,global,300,S,S,E,E,S-E.png,S-E.png,sS,sS,mask-1.png,mask-4.png,s,1,0.5580724999308586,s,1,0.07670459989458323,0.049933499889448285,0.049790099961683154,0.10115569992922246,0.09841760015115142,0.301471299957484
RSVPLG03,km,20251202-101933,1.0.2,20251202-094321,754,Experiment,Both,1,Automatic,main,93,20251202-102909,global,global,750,S,S,A,A,S-A.png,S-A.png,sS,sS,mask-4.png,mask-1.png,s,1,1.8101493001449853,s,1,0.05979259987361729,0.04987500002607703,0.05036989995278418,0.09995970013551414,0.1031076000072062,0.7506030001677573
RSVPLG03,km,20251202-101933,1.0.2,20251202-094321,754,Experiment,Both,1,Automatic,main,94,20251202-102914,local,global,750,S,S,E,A,E-S.png,S-A.png,sS,sS,mask-2.png,mask-2.png,s,1,1.0741463999729604,s,1,0.06070170016027987,0.04962010006420314,0.04981129989027977,0.09864920005202293,0.09960040007717907,0.7504131000023335
RSVPLG03,km,20251202-101933,1.0.2,20251202-094321,754,Experiment,Both,1,Automatic,main,95,20251202-102920,global,global,750,H,S,A,E,H-A.png,S-E.png,hH,sS,mask-2.png,mask-4.png,h,1,1.1725757999811321,s,1,0.003811099799349904,0.048691799864172935,0.05232129991054535,0.10006289999000728,0.10046279989182949,0.7508632999379188
RSVPLG03,km,20251202-101933,1.0.2,20251202-094321,754,Experiment,Both,1,Automatic,main,96,20251202-102925,local,local,300,H,H,E,E,E-H.png,E-H.png,hH,hH,mask-2.png,mask-3.png,h,1,0.8300674001220614,h,1,0.056510499911382794,0.050473400158807635,0.04991629999130964,0.10025610006414354,0.09990560007281601,0.300155800068751
RSVPLG03,km,20251202-101933,1.0.2,20251202-094321,754,Experiment,Both,1,Automatic,main,97,20251202-102929,global,global,750,S,S,A,E,S-A.png,S-E.png,sS,sS,mask-1.png,mask-1.png,s,1,0.8461144000757486,s,1,0.06810370017774403,0.05064160004258156,0.05236960016191006,0.10064269998110831,0.10130540002137423,0.7495659999549389
RSVPLG03,km,20251202-101933,1.0.2,20251202-094321,754,Experiment,Both,1,Automatic,main,98,20251202-102934,global,global,300,S,H,E,A,S-E.png,H-A.png,sS,hH,mask-2.png,mask-3.png,s,1,1.790059900144115,h,1,0.012525300029665232,0.05069479998201132,0.051970999920740724,0.1002470999956131,0.09989349986426532,0.3011618999298662
RSVPLG03,km,20251202-101933,1.0.2,20251202-094321,754,Experiment,Both,1,Automatic,main,99,20251202-102940,global,local,300,S,H,E,E,S-E.png,E-H.png,sS,hH,mask-4.png,mask-3.png,s,1,0.36779520008713007,s,0,0.06511050020344555,0.04713740013539791,0.048948700074106455,0.09721860010176897,0.10044630011543632,0.299265299923718
RSVPLG03,km,20251202-101933,1.0.2,20251202-094321,754,Experiment,Both,1,Automatic,main,100,20251202-102944,global,local,300,S,S,E,A,S-E.png,A-S.png,sS,sS,mask-2.png,mask-2.png,s,1,0.6564849000424147,h,0,0.02944949991069734,0.048661400098353624,0.05134449992328882,0.09751400002278388,0.09992399998009205,0.2976033000741154
RSVPLG03,km,20251202-103023,1.0.2,20251202-094321,754,Experiment,Both,1,Automatic,warmup,1,20251202-103052,local,global,300,H,S,E,E,E-H.png,S-E.png,hH,sS,mask-4.png,mask-3.png,h,1,0.7486564998980612,h,0,0.06783039984293282,0.045378000009804964,0.049687999999150634,0.09434589999727905,0.10009579989127815,0.29571190010756254
RSVPLG03,km,20251202-103023,1.0.2,20251202-094321,754,Experiment,Both,1,Automatic,warmup,2,20251202-103057,local,local,750,H,H,A,E,A-H.png,E-H.png,hH,hH,mask-4.png,mask-3.png,h,1,1.3301318001467735,h,1,0.06110149994492531,0.04975209990516305,0.04932109988294542,0.09966160007752478,0.09941989998333156,0.7502770000137389
RSVPLG03,km,20251202-103023,1.0.2,20251202-094321,754,Experiment,Both,1,Automatic,warmup,3,20251202-103102,local,global,750,H,H,E,A,E-H.png,H-A.png,hH,hH,mask-2.png,mask-4.png,h,1,0.9685829000081867,h,1,0.08208300010301173,0.04925619997084141,0.048909900011494756,0.09908929979428649,0.09804449998773634,0.7507087998092175
RSVPLG03,km,20251202-103023,1.0.2,20251202-094321,754,Experiment,Both,1,Automatic,warmup,4,20251202-103107,global,global,300,S,S,E,E,S-E.png,S-E.png,sS,sS,mask-3.png,mask-3.png,s,1,0.5165403001010418,s,1,0.06835620012134314,0.048696700017899275,0.048915599938482046,0.09918320016004145,0.09957719990052283,0.2996539000887424
RSVPLG03,km,20251202-103023,1.0.2,20251202-094321,754,Experiment,Both,1,Automatic,main,5,20251202-103111,global,local,300,S,S,E,E,S-E.png,E-S.png,sS,sS,mask-3.png,mask-1.png,s,1,1.2158441001083702,h,0,0.020082100061699748,0.05024410015903413,0.046768599888309836,0.10061940015293658,0.09867689991369843,0.30323250009678304
RSVPLG03,km,20251202-103023,1.0.2,20251202-094321,754,Experiment,Both,1,Automatic,main,6,20251202-103116,global,global,300,S,H,A,E,S-A.png,H-E.png,sS,hH,mask-4.png,mask-1.png,s,1,0.43381839990615845,h,1,0.020442399894818664,0.050004599848762155,0.05027549993246794,0.09941129991784692,0.10131659987382591,0.29878870001994073
RSVPLG03,km,20251202-103023,1.0.2,20251202-094321,754,Experiment,Both,1,Automatic,main,7,20251202-103120,local,global,750,H,S,A,E,A-H.png,S-E.png,hH,sS,mask-2.png,mask-4.png,h,1,1.4280459000729024,h,0,0.0746993999928236,0.047797200037166476,0.05128689995035529,0.09880520007573068,0.09995359997265041,0.748230200028047
RSVPLG03,km,20251202-103023,1.0.2,20251202-094321,754,Experiment,Both,1,Automatic,main,8,20251202-103126,local,global,300,S,H,A,E,A-S.png,H-E.png,sS,hH,mask-1.png,mask-3.png,s,1,0.44117289991118014,h,1,-3.6999117583036423e-06,0.05044389981776476,0.04846050008200109,0.09792410000227392,0.0986780000384897,0.2997879998292774
RSVPLG03,km,20251202-103023,1.0.2,20251202-094321,754,Experiment,Both,1,Automatic,main,9,20251202-103130,global,local,750,S,S,A,E,S-A.png,E-S.png,sS,sS,mask-1.png,mask-3.png,h,0,2.1203326999675483,s,1,0.04045209987089038,0.05099070002324879,0.05050019989721477,0.10110519989393651,0.10053559998050332,0.7518259000498801
RSVPLG03,km,20251202-103023,1.0.2,20251202-094321,754,Experiment,Both,1,Automatic,main,10,20251202-103136,global,local,750,S,H,E,A,S-E.png,A-H.png,sS,hH,mask-3.png,mask-1.png,s,1,1.1035559000447392,h,1,0.018576700007542968,0.05063370009884238,0.051304300082847476,0.09984370018355548,0.10088289994746447,0.7500207000412047
RSVPLG03,km,20251202-103023,1.0.2,20251202-094321,754,Experiment,Both,1,Automatic,main,11,20251202-103141,local,local,300,S,S,A,A,A-S.png,A-S.png,sS,sS,mask-1.png,mask-1.png,s,1,1.901605400023982,h,0,0.027842000126838684,0.050687599927186966,0.04967710003256798,0.10141339991241693,0.10038059996441007,0.3011173999402672
RSVPLG03,km,20251202-103023,1.0.2,20251202-094321,754,Experiment,Both,1,Automatic,main,12,20251202-103147,local,local,750,S,H,A,A,A-S.png,A-H.png,sS,hH,mask-1.png,mask-1.png,s,1,1.2247309000231326,h,1,0.01346439984627068,0.050388399977236986,0.05094429990276694,0.10008880007080734,0.10091109992936254,0.7510963000822812
RSVPLG03,km,20251202-103023,1.0.2,20251202-094321,754,Experiment,Both,1,Automatic,main,13,20251202-103152,global,global,750,H,H,A,E,H-A.png,H-E.png,hH,hH,mask-3.png,mask-4.png,h,1,1.3267155000939965,h,1,0.06528769992291927,0.049916400108486414,0.04883009986951947,0.09954269998706877,0.09824469988234341,0.7505710001569241
RSVPLG03,km,20251202-103023,1.0.2,20251202-094321,754,Experiment,Both,1,Automatic,main,14,20251202-103157,local,global,750,S,H,A,E,A-S.png,H-E.png,sS,hH,mask-2.png,mask-3.png,s,1,0.9393861999269575,h,1,0.020264800172299147,0.05195130011998117,0.050891200080513954,0.10070600011385977,0.10145019995979965,0.7506512999534607
RSVPLG03,km,20251202-103023,1.0.2,20251202-094321,754,Experiment,Both,1,Automatic,main,15,20251202-103202,global,local,750,H,H,A,E,H-A.png,E-H.png,hH,hH,mask-4.png,mask-2.png,h,1,0.8066779000218958,h,1,0.049677700037136674,0.05027009989134967,0.0495062000118196,0.10037779994308949,0.10145929991267622,0.7501087998971343
RSVPLG03,km,20251202-103023,1.0.2,20251202-094321,754,Experiment,Both,1,Automatic,main,16,20251202-103207,global,local,300,S,S,A,A,S-A.png,A-S.png,sS,sS,mask-4.png,mask-4.png,s,1,0.5648097000084817,h,0,0.01361330016516149,0.049237199826166034,0.051016899989917874,0.09792739991098642,0.1010402999818325,0.2978374999947846
RSVPLG03,km,20251202-103023,1.0.2,20251202-094321,754,Experiment,Both,1,Automatic,main,17,20251202-103212,global,local,750,H,S,E,A,H-E.png,A-S.png,hH,sS,mask-1.png,mask-2.png,h,1,0.5700540000107139,h,0,0.06899910001084208,0.04952640016563237,0.049040199955925345,0.09969060006551445,0.09871940012089908,0.75075350003317
RSVPLG03,km,20251202-103023,1.0.2,20251202-094321,754,Experiment,Both,1,Automatic,main,18,20251202-103216,global,global,750,S,H,A,E,S-A.png,H-E.png,sS,hH,mask-1.png,mask-4.png,s,1,0.4013783000409603,h,1,0.05267450003884733,0.04981510015204549,0.049572400050237775,0.1003089000005275,0.10056769987568259,0.7500214001629502
RSVPLG03,km,20251202-103023,1.0.2,20251202-094321,754,Experiment,Both,1,Automatic,main,19,20251202-103221,local,local,750,H,H,E,E,E-H.png,E-H.png,hH,hH,mask-1.png,mask-4.png,s,0,1.0023028999567032,h,1,0.008766900049522519,0.049772800179198384,0.049231400014832616,0.09992579999379814,0.10003919992595911,0.7512909001670778
RSVPLG03,km,20251202-103023,1.0.2,20251202-094321,754,Experiment,Both,1,Automatic,main,20,20251202-103226,local,local,750,S,H,A,E,A-S.png,E-H.png,sS,hH,mask-2.png,mask-4.png,s,1,0.9968610000796616,s,0,0.04490590002387762,0.05018579983152449,0.0507315001450479,0.1000694998074323,0.09830650012008846,0.753299499861896
RSVPLG03,km,20251202-103023,1.0.2,20251202-094321,754,Experiment,Both,1,Automatic,main,21,20251202-103231,global,local,750,S,H,E,E,S-E.png,E-H.png,sS,hH,mask-1.png,mask-4.png,s,1,1.6960384999401867,h,1,0.017609699862077832,0.049107500119134784,0.048570699989795685,0.10035930015146732,0.09525129990652204,0.7542938000988215
RSVPLG03,km,20251202-103023,1.0.2,20251202-094321,754,Experiment,Both,1,Automatic,main,22,20251202-103237,global,global,750,S,S,A,A,S-A.png,S-A.png,sS,sS,mask-2.png,mask-4.png,s,1,0.9442668999545276,s,1,0.04232700006105006,0.04674080014228821,0.04732669983059168,0.0967499001417309,0.09865389997139573,0.7483714001718909
RSVPLG03,km,20251202-103023,1.0.2,20251202-094321,754,Experiment,Both,1,Automatic,main,23,20251202-103242,local,local,750,S,H,E,A,E-S.png,A-H.png,sS,hH,mask-1.png,mask-3.png,h,0,1.152405799832195,s,0,0.02938760002143681,0.050100799882784486,0.051221099914982915,0.10163809987716377,0.09990439983084798,0.7501427000388503
RSVPLG03,km,20251202-103023,1.0.2,20251202-094321,754,Experiment,Both,1,Automatic,main,24,20251202-103247,global,local,300,H,S,E,E,H-E.png,E-S.png,hH,sS,mask-3.png,mask-4.png,h,1,1.7789239999838173,h,0,0.08136610011570156,0.04943300015293062,0.04967479989863932,0.09974650014191866,0.09976039989851415,0.30001240014098585
RSVPLG03,km,20251202-103023,1.0.2,20251202-094321,754,Experiment,Both,1,Automatic,main,25,20251202-103252,local,global,750,S,H,A,A,A-S.png,H-A.png,sS,hH,mask-4.png,mask-1.png,s,1,0.8311249001417309,h,1,0.013456200016662478,0.04968590009957552,0.050414999946951866,0.09985190001316369,0.10008200001902878,0.7493598000146449
RSVPLG03,km,20251202-103023,1.0.2,20251202-094321,754,Experiment,Both,1,Automatic,main,26,20251202-103258,global,local,300,H,H,A,E,H-A.png,E-H.png,hH,hH,mask-3.png,mask-1.png,h,1,2.12092290003784,h,1,0.20512249995954335,0.05009280005469918,0.04919690010137856,0.10080120014026761,0.10023250011727214,0.300818599993363
RSVPLG03,km,20251202-103023,1.0.2,20251202-094321,754,Experiment,Both,1,Automatic,main,27,20251202-103304,local,global,750,H,H,A,A,A-H.png,H-A.png,hH,hH,mask-2.png,mask-2.png,h,1,1.2625416999217123,h,1,0.08413169998675585,0.049841800006106496,0.048598899971693754,0.0999088000971824,0.09957069996744394,0.7523302000481635
RSVPLG03,km,20251202-103023,1.0.2,20251202-094321,754,Experiment,Both,1,Automatic,main,28,20251202-103310,global,global,750,H,S,A,A,H-A.png,S-A.png,hH,sS,mask-2.png,mask-1.png,h,1,1.2650412998627871,s,1,0.2755265000741929,0.04956099996343255,0.047755599953234196,0.10109839984215796,0.09912990010343492,0.7518402999266982
RSVPLG03,km,20251202-103023,1.0.2,20251202-094321,754,Experiment,Both,1,Automatic,main,29,20251202-103315,global,local,300,S,S,E,E,S-E.png,E-S.png,sS,sS,mask-2.png,mask-2.png,h,0,2.6788663999177516,s,1,0.0355513000395149,0.049950600136071444,0.048794700065627694,0.10255619999952614,0.09930730005726218,0.3019348999951035
RSVPLG03,km,20251202-103023,1.0.2,20251202-094321,754,Experiment,Both,1,Automatic,main,30,20251202-103322,local,global,300,H,H,E,A,E-H.png,H-A.png,hH,hH,mask-3.png,mask-4.png,h,1,0.8970834999345243,h,1,0.07750110002234578,0.04998390004038811,0.05000729998573661,0.10112650017254055,0.10072319977916777,0.3013177001848817
RSVPLG03,km,20251202-103023,1.0.2,20251202-094321,754,Experiment,Both,1,Automatic,main,31,20251202-103326,local,local,750,H,S,A,A,A-H.png,A-S.png,hH,sS,mask-1.png,mask-3.png,h,1,1.038422199897468,h,0,0.0646724000107497,0.050787300104275346,0.05073449993506074,0.09986179997213185,0.1021465000230819,0.7505665000062436
RSVPLG03,km,20251202-103023,1.0.2,20251202-094321,754,Experiment,Both,1,Automatic,main,32,20251202-103331,global,local,300,S,H,E,A,S-E.png,A-H.png,sS,hH,mask-4.png,mask-4.png,s,1,0.7719356000889093,h,1,0.002306499984115362,0.05085769994184375,0.049296499928459525,0.10124070011079311,0.09949379996396601,0.30053930007852614
RSVPLG03,km,20251202-103023,1.0.2,20251202-094321,754,Experiment,Both,1,Automatic,main,33,20251202-103336,local,global,750,S,H,A,E,A-S.png,H-E.png,sS,hH,mask-2.png,mask-2.png,s,1,1.7379435000475496,s,0,0.061469800071790814,0.0488516001496464,0.05131989996880293,0.09882180020213127,0.10110650002025068,0.7481601000763476
RSVPLG03,km,20251202-103023,1.0.2,20251202-094321,754,Experiment,Both,1,Automatic,main,34,20251202-103341,local,local,750,S,H,A,A,A-S.png,A-H.png,sS,hH,mask-4.png,mask-2.png,s,1,0.8250313000753522,s,0,0.0611801000777632,0.050760700134560466,0.050560700008645654,0.10060290014371276,0.10045329993590713,0.7509117000736296
RSVPLG03,km,20251202-103023,1.0.2,20251202-094321,754,Experiment,Both,1,Automatic,main,35,20251202-103346,global,global,750,S,H,E,A,S-E.png,H-A.png,sS,hH,mask-1.png,mask-1.png,s,1,0.9100358998402953,h,1,0.01124110003001988,0.04932109988294542,0.050722600193694234,0.10011409991420805,0.10083100013434887,0.749250799883157
RSVPLG03,km,20251202-103023,1.0.2,20251202-094321,754,Experiment,Both,1,Automatic,main,36,20251202-103351,global,global,300,S,H,A,A,S-A.png,H-A.png,sS,hH,mask-3.png,mask-2.png,s,1,0.6013064999133348,h,1,0.001861700089648366,0.049976800102740526,0.05018200003542006,0.10018240008503199,0.10062979999929667,0.30016639991663396
RSVPLG03,km,20251202-103023,1.0.2,20251202-094321,754,Experiment,Both,1,Automatic,main,37,20251202-103356,global,global,300,H,H,A,A,H-A.png,H-A.png,hH,hH,mask-4.png,mask-3.png,h,1,1.2829235000535846,h,1,0.0610321001149714,0.05058289994485676,0.05028300010599196,0.09997459989972413,0.10034040012396872,0.30060589988715947
RSVPLG03,km,20251202-103023,1.0.2,20251202-094321,754,Experiment,Both,1,Automatic,main,38,20251202-103401,global,local,300,S,H,A,E,S-A.png,E-H.png,sS,hH,mask-1.png,mask-2.png,s,1,1.2176403000485152,s,0,0.077718400163576,0.05153910000808537,0.05063649988733232,0.1012091999873519,0.10042889998294413,0.30114160012453794
RSVPLG03,km,20251202-103023,1.0.2,20251202-094321,754,Experiment,Both,1,Automatic,main,39,20251202-103405,global,global,300,H,S,E,A,H-E.png,S-A.png,hH,sS,mask-2.png,mask-2.png,h,1,3.6013627001084387,s,1,3.261471299920231,0.04993580002337694,0.04937450005672872,0.10074599995277822,0.09986539999954402,0.30118760000914335
RSVPLG03,km,20251202-103023,1.0.2,20251202-094321,754,Experiment,Both,1,Automatic,main,40,20251202-103416,local,local,300,H,H,E,A,E-H.png,A-H.png,hH,hH,mask-2.png,mask-2.png,s,0,2.0131657999008894,h,1,0.3247567000798881,0.05011219996958971,0.04854039987549186,0.10068770009092987,0.09763139998540282,0.3024681000970304
RSVPLG03,km,20251202-103023,1.0.2,20251202-094321,754,Experiment,Both,1,Automatic,main,41,20251202-103422,local,local,300,S,H,E,A,E-S.png,A-H.png,sS,hH,mask-1.png,mask-3.png,s,1,2.5722773000597954,h,1,0.49194410000927746,0.0503243999555707,0.04939950001426041,0.10037959995679557,0.09820380015298724,0.3023986998014152
RSVPLG03,km,20251202-103023,1.0.2,20251202-094321,754,Experiment,Both,1,Automatic,main,42,20251202-103428,local,local,300,H,H,A,A,A-H.png,A-H.png,hH,hH,mask-4.png,mask-4.png,h,1,0.8114307001233101,h,1,0.2226736000739038,0.04918960016220808,0.04860419989563525,0.09913360001519322,0.09855629992671311,0.3011299001518637
RSVPLG03,km,20251202-103023,1.0.2,20251202-094321,754,Experiment,Both,1,Automatic,main,43,20251202-103433,local,local,300,H,H,A,A,A-H.png,A-H.png,hH,hH,mask-2.png,mask-2.png,h,1,0.46032349998131394,h,1,0.07550300005823374,0.051086500054225326,0.04985289997421205,0.10084159998223186,0.09923859988339245,0.3010011001024395
RSVPLG03,km,20251202-103023,1.0.2,20251202-094321,754,Experiment,Both,1,Automatic,main,44,20251202-103437,global,global,750,S,S,A,A,S-A.png,S-A.png,sS,sS,mask-1.png,mask-4.png,s,1,1.085971600143239,s,1,0.11108970013447106,0.051108199870213866,0.049661200027912855,0.10084139998070896,0.09873279999010265,0.7504941998049617
RSVPLG03,km,20251202-103023,1.0.2,20251202-094321,754,Experiment,Both,1,Automatic,main,45,20251202-103442,local,local,300,H,H,A,E,A-H.png,E-H.png,hH,hH,mask-3.png,mask-4.png,h,1,0.7012545999605209,h,1,0.08081629988737404,0.050130699994042516,0.05029579997062683,0.10010830010287464,0.09970059990882874,0.29919670009985566
RSVPLG03,km,20251202-103023,1.0.2,20251202-094321,754,Experiment,Both,1,Automatic,main,46,20251202-103447,global,global,300,S,S,E,E,S-E.png,S-E.png,sS,sS,mask-1.png,mask-1.png,s,1,0.5328190999571234,s,1,0.06006760010495782,0.048972199903801084,0.04851210000924766,0.09991459990851581,0.09870089986361563,0.3010440000798553
RSVPLG03,km,20251202-103023,1.0.2,20251202-094321,754,Experiment,Both,1,Automatic,main,47,20251202-103451,local,global,750,H,S,A,E,A-H.png,S-E.png,hH,sS,mask-1.png,mask-4.png,h,1,1.0093829000834376,h,0,0.8973815001081675,0.050674600061029196,0.04958170000463724,0.10061200009658933,0.10061670001596212,0.7520269001834095
RSVPLG03,km,20251202-103023,1.0.2,20251202-094321,754,Experiment,Both,1,Automatic,main,48,20251202-103457,local,local,300,H,H,E,A,E-H.png,A-H.png,hH,hH,mask-4.png,mask-4.png,h,1,1.4750963000115007,s,0,0.12508970010094345,0.04954999987967312,0.049664999824017286,0.09913220000453293,0.10101009998470545,0.3004642000887543
RSVPLG03,km,20251202-103023,1.0.2,20251202-094321,754,Experiment,Both,1,Automatic,main,49,20251202-103502,global,global,300,S,S,A,A,S-A.png,S-A.png,sS,sS,mask-2.png,mask-1.png,s,1,1.5730151999741793,s,1,0.0631311999168247,0.049758899956941605,0.050560399889945984,0.10024970001541078,0.10051209991797805,0.3005872000940144
RSVPLG03,km,20251202-103023,1.0.2,20251202-094321,754,Experiment,Both,1,Automatic,main,50,20251202-103507,global,global,750,S,S,A,A,S-A.png,S-A.png,sS,sS,mask-1.png,mask-4.png,s,1,0.7477915999479592,s,1,0.45627899980172515,0.05087160016410053,0.048521599965170026,0.09975489997304976,0.09881339990533888,0.7516612000763416
RSVPLG03,km,20251202-103023,1.0.2,20251202-094321,754,Experiment,Both,1,Automatic,main,51,20251202-103514,local,global,750,S,H,E,E,E-S.png,H-E.png,sS,hH,mask-4.png,mask-4.png,s,1,1.3139963999856263,h,1,1.058200600091368,0.05124880000948906,0.05006100004538894,0.10119579988531768,0.1022908000741154,0.74999829987064
RSVPLG03,km,20251202-103023,1.0.2,20251202-094321,754,Experiment,Both,1,Automatic,main,52,20251202-103521,global,local,300,H,H,E,A,H-E.png,A-H.png,hH,hH,mask-4.png,mask-2.png,h,1,0.9838248000014573,s,0,0.03822499979287386,0.050899799913167953,0.0524528999812901,0.10113229998387396,0.10013479995541275,0.2995070000179112
RSVPLG03,km,20251202-103023,1.0.2,20251202-094321,754,Experiment,Both,1,Automatic,main,53,20251202-103525,local,global,300,H,S,A,A,A-H.png,S-A.png,hH,sS,mask-1.png,mask-3.png,h,1,1.825789599912241,h,0,0.2530276000034064,0.050124899949878454,0.05016129999421537,0.1009976000059396,0.09970939997583628,0.3008034999947995
RSVPLG03,km,20251202-103023,1.0.2,20251202-094321,754,Experiment,Both,1,Automatic,main,54,20251202-103531,global,local,300,S,S,E,A,S-E.png,A-S.png,sS,sS,mask-4.png,mask-3.png,s,1,0.4773134000133723,h,0,0.02157370001077652,0.04886640002951026,0.05030620004981756,0.1000357000157237,0.10069070011377335,0.30060319998301566
RSVPLG03,km,20251202-103023,1.0.2,20251202-094321,754,Experiment,Both,1,Automatic,main,55,20251202-103535,local,local,750,H,S,A,A,A-H.png,A-S.png,hH,sS,mask-3.png,mask-4.png,h,1,0.8011763000395149,s,1,0.05042059998959303,0.0496308000292629,0.04975080001167953,0.10074210003949702,0.09939899994060397,0.7505002999678254
RSVPLG03,km,20251202-103023,1.0.2,20251202-094321,754,Experiment,Both,1,Automatic,main,56,20251202-103540,global,local,750,H,S,A,E,H-A.png,E-S.png,hH,sS,mask-1.png,mask-1.png,h,1,0.5350186000578105,s,1,0.012196799973025918,0.049114400055259466,0.05005640001036227,0.09870390011928976,0.10127850016579032,0.7497829999774694
RSVPLG03,km,20251202-103023,1.0.2,20251202-094321,754,Experiment,Both,1,Automatic,main,57,20251202-103545,local,global,300,H,S,A,A,A-H.png,S-A.png,hH,sS,mask-1.png,mask-1.png,h,1,1.4573407000862062,s,1,0.5243073001038283,0.0501219998113811,0.049645100021734834,0.09993639984168112,0.09937050007283688,0.3007018999196589
RSVPLG03,km,20251202-103023,1.0.2,20251202-094321,754,Experiment,Both,1,Automatic,main,58,20251202-103550,global,local,750,S,S,A,E,S-A.png,E-S.png,sS,sS,mask-1.png,mask-1.png,s,1,0.7347149001434445,s,1,0.062072700122371316,0.050831699976697564,0.049774999963119626,0.0998454000800848,0.10011349990963936,0.7490932000800967
RSVPLG03,km,20251202-103023,1.0.2,20251202-094321,754,Experiment,Both,1,Automatic,main,59,20251202-103555,global,global,300,H,H,E,E,H-E.png,H-E.png,hH,hH,mask-4.png,mask-4.png,h,1,0.4050986000802368,h,1,0.07738939998671412,0.04979950003325939,0.050011200131848454,0.10108629986643791,0.10105070006102324,0.3010543999262154
RSVPLG03,km,20251202-103023,1.0.2,20251202-094321,754,Experiment,Both,1,Automatic,main,60,20251202-103559,local,global,750,S,S,E,E,E-S.png,S-E.png,sS,sS,mask-2.png,mask-3.png,s,1,0.9483880999032408,h,0,0.034493599785491824,0.05013220012187958,0.050407799892127514,0.10111650009639561,0.10196139989420772,0.7505221001338214
RSVPLG03,km,20251202-103023,1.0.2,20251202-094321,754,Experiment,Both,1,Automatic,main,61,20251202-103604,global,local,300,H,H,A,A,H-A.png,A-H.png,hH,hH,mask-4.png,mask-4.png,h,1,0.503605900099501,h,1,0.07749860011972487,0.05105930007994175,0.049462199909612536,0.09984589996747673,0.10001239995472133,0.3016975000500679
RSVPLG03,km,20251202-103023,1.0.2,20251202-094321,754,Experiment,Both,1,Automatic,main,62,20251202-103608,local,local,750,H,H,A,E,A-H.png,E-H.png,hH,hH,mask-2.png,mask-2.png,s,0,1.61032610014081,h,1,0.21219669980928302,0.05078190006315708,0.0499505999032408,0.1024567000567913,0.09985590004362166,0.751347600016743
RSVPLG03,km,20251202-103023,1.0.2,20251202-094321,754,Experiment,Both,1,Automatic,main,63,20251202-103614,global,global,750,S,S,E,E,S-E.png,S-E.png,sS,sS,mask-3.png,mask-2.png,s,1,2.8538142999168485,s,1,0.0860466999001801,0.049068500055000186,0.04894499992951751,0.0993815001565963,0.09916749992407858,0.7497406001202762
RSVPLG03,km,20251202-103023,1.0.2,20251202-094321,754,Experiment,Both,1,Automatic,main,64,20251202-103621,global,local,750,H,S,A,A,H-A.png,A-S.png,hH,sS,mask-4.png,mask-2.png,h,1,1.5516995000652969,h,0,0.08434359985403717,0.05089149996638298,0.050756500102579594,0.10042440006509423,0.0992374001070857,0.7502214999403805
RSVPLG03,km,20251202-103023,1.0.2,20251202-094321,754,Experiment,Both,1,Automatic,main,65,20251202-103627,local,local,300,H,H,A,E,A-H.png,E-H.png,hH,hH,mask-4.png,mask-4.png,s,0,1.3328801000025123,h,1,0.16738910018466413,0.05019109998829663,0.05060330010019243,0.09937270008958876,0.09994240012019873,0.30022750003263354
RSVPLG03,km,20251202-103023,1.0.2,20251202-094321,754,Experiment,Both,1,Automatic,main,66,20251202-103632,local,local,750,S,S,A,E,A-S.png,E-S.png,sS,sS,mask-2.png,mask-1.png,s,1,0.7072964999824762,s,1,0.06705720000900328,0.04944930016063154,0.05043209996074438,0.0998216001316905,0.10089410003274679,0.749005600111559
RSVPLG03,km,20251202-103023,1.0.2,20251202-094321,754,Experiment,Both,1,Automatic,main,67,20251202-103637,local,global,750,H,S,E,E,E-H.png,S-E.png,hH,sS,mask-2.png,mask-4.png,h,1,0.5873586998786777,h,0,0.05497649987228215,0.051194499945268035,0.04899420007131994,0.10007619997486472,0.09760410012677312,0.7527163999620825
RSVPLG03,km,20251202-103023,1.0.2,20251202-094321,754,Experiment,Both,1,Automatic,main,68,20251202-103642,local,global,300,S,S,E,E,E-S.png,S-E.png,sS,sS,mask-3.png,mask-3.png,s,1,0.42802280001342297,s,1,0.07726459996774793,0.04912539990618825,0.04870930011384189,0.09976549982093275,0.0998649001121521,0.29972999985329807
RSVPLG03,km,20251202-103023,1.0.2,20251202-094321,754,Experiment,Both,1,Automatic,main,69,20251202-103646,local,local,750,H,H,E,E,E-H.png,E-H.png,hH,hH,mask-4.png,mask-4.png,h,1,1.725964300101623,h,1,0.0771447999868542,0.05013150000013411,0.04955090000294149,0.10032230010256171,0.09986459999345243,0.7500291999895126
RSVPLG03,km,20251202-103023,1.0.2,20251202-094321,754,Experiment,Both,1,Automatic,main,70,20251202-103652,local,global,300,S,H,E,A,E-S.png,H-A.png,sS,hH,mask-2.png,mask-4.png,s,1,0.4121626999694854,s,0,0.06815829989500344,0.04830849985592067,0.050203399965539575,0.10058939992450178,0.10141979996114969,0.3003219000529498
RSVPLG03,km,20251202-103023,1.0.2,20251202-094321,754,Experiment,Both,1,Automatic,main,71,20251202-103656,global,local,750,H,S,E,E,H-E.png,E-S.png,hH,sS,mask-3.png,mask-2.png,s,0,1.368817799957469,h,0,0.028040899895131588,0.05045139999128878,0.04919190006330609,0.10043069999665022,0.099307999946177,0.7514748000539839
RSVPLG03,km,20251202-103023,1.0.2,20251202-094321,754,Experiment,Both,1,Automatic,main,72,20251202-103701,local,global,750,S,S,E,A,E-S.png,S-A.png,sS,sS,mask-2.png,mask-3.png,s,1,0.6152534000575542,h,0,0.04440149990841746,0.04797279997728765,0.04999339999631047,0.09801159985363483,0.10191299999132752,0.7492955999914557
RSVPLG03,km,20251202-103023,1.0.2,20251202-094321,754,Experiment,Both,1,Automatic,main,73,20251202-103706,global,global,300,S,S,A,A,S-A.png,S-A.png,sS,sS,mask-2.png,mask-3.png,s,1,0.9886461000423878,s,1,0.0577587999869138,0.04958009999245405,0.04768319986760616,0.10089970007538795,0.10055089998058975,0.3022502001840621
RSVPLG03,km,20251202-103023,1.0.2,20251202-094321,754,Experiment,Both,1,Automatic,main,74,20251202-103710,global,local,750,H,H,A,A,H-A.png,A-H.png,hH,hH,mask-3.png,mask-1.png,h,1,0.9014049000106752,h,1,0.07902950001880527,0.0519934999756515,0.04824410006403923,0.1011065999045968,0.0994140999391675,0.7521353999618441
RSVPLG03,km,20251202-103023,1.0.2,20251202-094321,754,Experiment,Both,1,Automatic,main,75,20251202-103715,global,local,300,H,H,E,E,H-E.png,E-H.png,hH,hH,mask-4.png,mask-2.png,h,1,0.6497731998097152,s,0,0.07754720002412796,0.04975709994323552,0.05149850016459823,0.1001257998868823,0.10083899996243417,0.29937909985892475
RSVPLG03,km,20251202-103023,1.0.2,20251202-094321,754,Experiment,Both,1,Automatic,main,76,20251202-103722,global,local,750,H,S,A,A,H-A.png,A-S.png,hH,sS,mask-4.png,mask-2.png,h,1,0.9494521000888199,s,1,0.02592219994403422,0.04977030004374683,0.04964959993958473,0.09981889999471605,0.0986633999273181,0.7501145000569522
RSVPLG03,km,20251202-103023,1.0.2,20251202-094321,754,Experiment,Both,1,Automatic,main,77,20251202-103727,local,global,750,S,H,E,E,E-S.png,H-E.png,sS,hH,mask-3.png,mask-3.png,s,1,0.8986864001490176,h,1,0.07739549991674721,0.04754880000837147,0.049515699967741966,0.0984668000601232,0.1007920999545604,0.7481076000258327
RSVPLG03,km,20251202-103023,1.0.2,20251202-094321,754,Experiment,Both,1,Automatic,main,78,20251202-103732,local,local,300,S,S,E,A,E-S.png,A-S.png,sS,sS,mask-1.png,mask-4.png,s,1,1.1243193000555038,h,0,0.022005599923431873,0.05102630006149411,0.05057580000720918,0.09961729985661805,0.10121300001628697,0.29927139985375106
RSVPLG03,km,20251202-103023,1.0.2,20251202-094321,754,Experiment,Both,1,Automatic,main,79,20251202-103737,local,global,300,H,S,A,A,A-H.png,S-A.png,hH,sS,mask-2.png,mask-2.png,h,1,1.3069552998058498,s,1,0.001527199987322092,0.05008229985833168,0.049907000036910176,0.09940169984474778,0.10057209990918636,0.29908269993029535
RSVPLG03,km,20251202-103023,1.0.2,20251202-094321,754,Experiment,Both,1,Automatic,main,80,20251202-103742,global,global,750,H,S,A,E,H-A.png,S-E.png,hH,sS,mask-1.png,mask-1.png,h,1,0.929479899816215,h,0,0.07688520010560751,0.05093939998187125,0.04956720001064241,0.10033160005696118,0.09944620006717741,0.7508590999059379
RSVPLG03,km,20251202-103023,1.0.2,20251202-094321,754,Experiment,Both,1,Automatic,main,81,20251202-103747,global,global,750,H,H,E,A,H-E.png,H-A.png,hH,hH,mask-3.png,mask-2.png,h,1,1.2037283000536263,s,0,1.27528619999066,0.04974350007250905,0.05000229994766414,0.09975910000503063,0.10010569985024631,0.7515875000972301
RSVPLG03,km,20251202-103023,1.0.2,20251202-094321,754,Experiment,Both,1,Automatic,main,82,20251202-103752,global,global,300,S,S,A,E,S-A.png,S-E.png,sS,sS,mask-1.png,mask-4.png,s,1,0.8182320001069456,h,0,0.9630289999768138,0.050889400066807866,0.049627200001850724,0.10223460011184216,0.10191019997000694,0.3007610000204295
RSVPLG03,km,20251202-103023,1.0.2,20251202-094321,754,Experiment,Both,1,Automatic,main,83,20251202-103756,global,global,750,S,H,A,A,S-A.png,H-A.png,sS,hH,mask-3.png,mask-4.png,s,1,1.0703137000091374,h,1,0.01001440011896193,0.04990349989384413,0.050609900150448084,0.10080399992875755,0.09939630003646016,0.7509901998564601
RSVPLG03,km,20251202-103023,1.0.2,20251202-094321,754,Experiment,Both,1,Automatic,main,84,20251202-103801,local,local,300,S,S,E,E,E-S.png,E-S.png,sS,sS,mask-4.png,mask-1.png,s,1,0.7916764998808503,s,1,0.06650249985978007,0.051063899882137775,0.049859399907290936,0.10036040004342794,0.10017149988561869,0.3009868999943137
RSVPLG03,km,20251202-103023,1.0.2,20251202-094321,754,Experiment,Both,1,Automatic,main,85,20251202-103806,global,local,750,S,H,A,E,S-A.png,E-H.png,sS,hH,mask-3.png,mask-4.png,s,1,1.028649700107053,s,0,0.058081099996343255,0.049987300066277385,0.05173419998027384,0.10031919996254146,0.10140540008433163,0.7488508999813348
RSVPLG03,km,20251202-103023,1.0.2,20251202-094321,754,Experiment,Both,1,Automatic,main,86,20251202-103811,local,local,750,S,S,E,E,E-S.png,E-S.png,sS,sS,mask-4.png,mask-3.png,s,1,1.175614200066775,h,0,0.08950940007343888,0.050286199897527695,0.05000409996137023,0.09900230006314814,0.10172139992937446,0.7492223000153899
RSVPLG03,km,20251202-103023,1.0.2,20251202-094321,754,Experiment,Both,1,Automatic,main,87,20251202-103816,local,global,750,S,S,E,E,E-S.png,S-E.png,sS,sS,mask-2.png,mask-2.png,s,1,0.44999850005842745,s,1,0.07712809997610748,0.04934030002914369,0.050606500124558806,0.10097880009561777,0.09957449999637902,0.7512540000025183
RSVPLG03,km,20251202-103023,1.0.2,20251202-094321,754,Experiment,Both,1,Automatic,main,88,20251202-103821,local,global,300,H,S,A,E,A-H.png,S-E.png,hH,sS,mask-4.png,mask-2.png,h,1,0.8876105998642743,s,1,0.05332210008054972,0.05086169997230172,0.05037739989347756,0.1007912999484688,0.10205310001038015,0.30094079999253154
RSVPLG03,km,20251202-103023,1.0.2,20251202-094321,754,Experiment,Both,1,Automatic,main,89,20251202-103825,local,local,300,H,H,A,E,A-H.png,E-H.png,hH,hH,mask-4.png,mask-4.png,h,1,0.48110929992981255,h,1,0.10986710013821721,0.04906310001388192,0.051349799847230315,0.09914759988896549,0.10041449987329543,0.3000195000786334
RSVPLG03,km,20251202-103023,1.0.2,20251202-094321,754,Experiment,Both,1,Automatic,main,90,20251202-103830,global,global,300,S,S,E,E,S-E.png,S-E.png,sS,sS,mask-2.png,mask-3.png,s,1,0.29111810005269945,s,1,0.06895229988731444,0.050315599888563156,0.050182299921289086,0.09966889978386462,0.10115480003878474,0.3007282998878509
RSVPLG03,km,20251202-103023,1.0.2,20251202-094321,754,Experiment,Both,1,Automatic,main,91,20251202-103834,local,local,300,H,H,E,E,E-H.png,E-H.png,hH,hH,mask-1.png,mask-3.png,h,1,0.404227799968794,s,0,0.40497189993038774,0.048889500088989735,0.050363600021228194,0.10022990009747446,0.10022790008224547,0.30004210001789033
RSVPLG03,km,20251202-103023,1.0.2,20251202-094321,754,Experiment,Both,1,Automatic,main,92,20251202-103838,global,local,300,S,H,A,A,S-A.png,A-H.png,sS,hH,mask-4.png,mask-2.png,s,1,1.2028636001050472,h,1,0.023002499947324395,0.04787479992955923,0.050117400009185076,0.0990124000236392,0.10006899992004037,0.29933229996822774
RSVPLG03,km,20251202-103023,1.0.2,20251202-094321,754,Experiment,Both,1,Automatic,main,93,20251202-103843,local,global,300,H,S,A,E,A-H.png,S-E.png,hH,sS,mask-2.png,mask-1.png,h,1,1.184313600184396,s,1,0.06788200000301003,0.05009549995884299,0.05000600009225309,0.10038239997811615,0.09993830020539463,0.3011630999390036
RSVPLG03,km,20251202-103023,1.0.2,20251202-094321,754,Experiment,Both,1,Automatic,main,94,20251202-103848,local,global,300,H,S,E,E,E-H.png,S-E.png,hH,sS,mask-3.png,mask-2.png,h,1,0.5485972999595106,s,1,0.0437183000613004,0.05104900011792779,0.04908689996227622,0.10078470013104379,0.10005479981191456,0.30139100016094744
RSVPLG03,km,20251202-103023,1.0.2,20251202-094321,754,Experiment,Both,1,Automatic,main,95,20251202-103852,local,global,300,S,H,E,E,E-S.png,H-E.png,sS,hH,mask-2.png,mask-4.png,s,1,0.502396099967882,h,1,0.01883539999835193,0.04939389997161925,0.049929399974644184,0.09978489996865392,0.10004430008120835,0.29976970003917813
RSVPLG03,km,20251202-103023,1.0.2,20251202-094321,754,Experiment,Both,1,Automatic,main,96,20251202-103856,global,global,300,S,S,A,E,S-A.png,S-E.png,sS,sS,mask-3.png,mask-2.png,s,1,1.4762283000163734,h,0,0.06109680002555251,0.050097799859941006,0.05108819995075464,0.10149619984440506,0.10016779997386038,0.30098359985277057
RSVPLG03,km,20251202-103023,1.0.2,20251202-094321,754,Experiment,Both,1,Automatic,main,97,20251202-103901,global,global,750,S,H,E,A,S-E.png,H-A.png,sS,hH,mask-4.png,mask-3.png,s,1,1.5199561000335962,h,1,0.02211000001989305,0.049643800128251314,0.049095400143414736,0.09872240014374256,0.09955279994755983,0.7507865000516176
RSVPLG03,km,20251202-103023,1.0.2,20251202-094321,754,Experiment,Both,1,Automatic,main,98,20251202-103907,local,global,300,S,S,E,A,E-S.png,S-A.png,sS,sS,mask-1.png,mask-3.png,s,1,1.2502392001915723,s,1,0.45008000009693205,0.048786799889057875,0.0500168998260051,0.0999980999622494,0.10020169988274574,0.30003560008481145
RSVPLG03,km,20251202-103023,1.0.2,20251202-094321,754,Experiment,Both,1,Automatic,main,99,20251202-103912,global,global,300,S,H,E,E,S-E.png,H-E.png,sS,hH,mask-2.png,mask-2.png,s,1,0.9893370000645518,h,1,0.025214500026777387,0.048597400076687336,0.04942530021071434,0.1005727001465857,0.10110840015113354,0.2991144999396056
RSVPLG03,km,20251202-103023,1.0.2,20251202-094321,754,Experiment,Both,1,Automatic,main,100,20251202-103917,local,local,750,H,S,E,E,E-H.png,E-S.png,hH,sS,mask-3.png,mask-4.png,s,0,0.7885006999131292,s,1,0.0860818000510335,0.04907199996523559,0.051323800114914775,0.09924650005996227,0.10118630016222596,0.7500104999635369
