exp,exp_initials,runtime,ver,modtime,sub,blocktype,targets,cuetype,mode,trialtype,trial,trialtime,t1_level,t2_level,t2_lag,t1,t2,distractor1,distractor2,stimfile1,stimfile2,t1_corr,t2_corr,maskfile1,maskfile2,t1_resp,t1_acc,t1_rt,t2_resp,t2_acc,t2_rt,t1_dur,t2_dur,t1mask_soa,t2mask_soa,t1t2_soa
RSVPLG03,si,20260409-152131,1.0.2,20260219-152011,818,Introduction,T1,1,Automatic,main,1,20260409-152150,global,global,750,S,H,E,A,S-E.png,H-A.png,sS,hH,mask-3.png,mask-1.png,s,1,10.483126599999991,none,-5,0,0.09425379999993311,0.10002589999999145,0.19377269999995406,0.20079530000009527,0.7457741999999143
RSVPLG03,si,20260409-152131,1.0.2,20260219-152011,818,Introduction,T1,1,Automatic,main,2,20260409-152205,global,local,750,S,H,A,E,S-A.png,E-H.png,sS,hH,mask-4.png,mask-3.png,s,1,1.2940858000000617,none,-5,0,0.10055720000002566,0.10139619999995375,0.2023040999999921,0.20119639999995798,0.7519713000000365
RSVPLG03,si,20260409-152131,1.0.2,20260219-152011,818,Introduction,T1,1,Automatic,main,3,20260409-152210,local,global,750,S,H,A,E,A-S.png,H-E.png,sS,hH,mask-4.png,mask-2.png,s,1,3.4211875000000873,none,-5,0,0.10169439999992846,0.099417399999993,0.20188999999993484,0.20087960000000749,0.7527655999999752
RSVPLG03,si,20260409-152131,1.0.2,20260219-152011,818,Introduction,T1,1,Automatic,main,4,20260409-152219,global,global,750,H,H,E,A,H-E.png,H-A.png,hH,hH,mask-4.png,mask-3.png,s,0,0.39165990000003603,none,-5,0,0.09890860000007251,0.09994810000000598,0.1990015000000085,0.19921659999999974,0.7520755000000463
RSVPLG03,si,20260409-152131,1.0.2,20260219-152011,818,Introduction,T1,1,Automatic,main,5,20260409-152223,local,local,750,H,H,E,A,E-H.png,A-H.png,hH,hH,mask-2.png,mask-4.png,s,0,1.0495334999999386,none,-5,0,0.09899080000002414,0.10256519999995817,0.1999993000000586,0.20155560000000605,0.749884800000018
RSVPLG03,si,20260409-152131,1.0.2,20260219-152011,818,Introduction,T1,1,Automatic,main,6,20260409-152228,local,global,750,H,H,A,E,A-H.png,H-E.png,hH,hH,mask-2.png,mask-4.png,h,1,0.30069849999995313,none,-5,0,0.09939269999995304,0.10001499999998487,0.2000677999999425,0.20025229999998828,0.7501465999999937
RSVPLG03,si,20260409-152131,1.0.2,20260219-152011,818,Introduction,T1,1,Automatic,main,7,20260409-152233,local,local,750,H,S,A,E,A-H.png,E-S.png,hH,sS,mask-1.png,mask-4.png,h,1,0.35563569999999345,none,-5,0,0.09970859999998538,0.10087469999996301,0.19887170000004062,0.2006212000000005,0.7506817000000865
RSVPLG03,si,20260409-152131,1.0.2,20260219-152011,818,Introduction,T1,1,Automatic,main,8,20260409-152237,local,global,750,H,H,E,A,E-H.png,H-A.png,hH,hH,mask-4.png,mask-3.png,h,1,0.4525797999999668,none,-5,0,0.09965799999997671,0.10057840000001761,0.20068639999999505,0.20149240000000646,0.7508949999999004
RSVPLG03,si,20260409-152131,1.0.2,20260219-152011,818,Introduction,T1,1,Automatic,main,9,20260409-152242,global,global,750,H,S,A,A,H-A.png,S-A.png,hH,sS,mask-1.png,mask-4.png,h,1,0.30600200000003497,none,-5,0,0.0989475000000084,0.10099860000002536,0.19966089999991254,0.20382400000005418,0.7504352999999355
RSVPLG03,si,20260409-152131,1.0.2,20260219-152011,818,Introduction,T1,1,Automatic,main,10,20260409-152246,global,local,750,S,H,A,E,S-A.png,E-H.png,sS,hH,mask-3.png,mask-3.png,s,1,0.6285040000000208,none,-5,0,0.09909779999998136,0.09886079999989761,0.19954899999993359,0.19962439999994785,0.7520647000000054
RSVPLG03,si,20260409-152131,1.0.2,20260219-152011,818,Introduction,T1,1,Automatic,main,11,20260409-152251,global,local,750,H,S,A,E,H-A.png,E-S.png,hH,sS,mask-4.png,mask-3.png,h,1,0.4836235000000215,none,-5,0,0.10078790000000026,0.10121159999994234,0.19905040000003282,0.20010689999992337,0.7500927000000956
RSVPLG03,si,20260409-152131,1.0.2,20260219-152011,818,Introduction,T1,1,Automatic,main,12,20260409-152256,local,global,750,H,H,A,E,A-H.png,H-E.png,hH,hH,mask-4.png,mask-4.png,h,1,0.35729079999998703,none,-5,0,0.09945830000003753,0.10101880000001984,0.2000009000000773,0.20074190000002545,0.7500943000000007
RSVPLG03,si,20260409-152131,1.0.2,20260219-152011,818,Introduction,T1,1,Automatic,main,13,20260409-152300,local,local,750,H,H,A,E,A-H.png,E-H.png,hH,hH,mask-1.png,mask-1.png,h,1,0.5137579999999389,none,-5,0,0.0997676000000638,0.10134350000009817,0.20000070000003234,0.20061870000006365,0.749535499999979
RSVPLG03,si,20260409-152131,1.0.2,20260219-152011,818,Introduction,T1,1,Automatic,main,14,20260409-152305,local,local,750,H,H,A,A,A-H.png,A-H.png,hH,hH,mask-2.png,mask-4.png,none,-6,0,none,-5,0,0.10153759999991507,0.09964869999998882,0.20243119999997816,0.2005424999999832,0.7519029999999702
RSVPLG03,si,20260409-152319,1.0.2,20260219-152011,818,Practice,T1,1,Automatic,main,1,20260409-152339,local,global,300,S,S,A,A,A-S.png,S-A.png,sS,sS,mask-3.png,mask-1.png,s,1,1.6466440000000375,none,-5,0,0.048909600000001774,0.04996470000003228,0.1001926999999796,0.10033020000003035,0.29866660000004686
RSVPLG03,si,20260409-152319,1.0.2,20260219-152011,818,Practice,T1,1,Automatic,main,2,20260409-152344,global,local,750,S,H,E,E,S-E.png,E-H.png,sS,hH,mask-4.png,mask-1.png,s,1,0.5918674000000692,none,-5,0,0.04822799999999461,0.049313900000015565,0.09932739999999285,0.09943889999999556,0.7494605000000547
RSVPLG03,si,20260409-152319,1.0.2,20260219-152011,818,Practice,T1,1,Automatic,main,3,20260409-152349,local,local,750,S,S,E,E,E-S.png,E-S.png,sS,sS,mask-1.png,mask-1.png,s,1,0.3830513999999994,none,-5,0,0.05010310000000118,0.04936069999996562,0.0999063000000433,0.09930280000003222,0.7496905000000424
RSVPLG03,si,20260409-152319,1.0.2,20260219-152011,818,Practice,T1,1,Automatic,main,4,20260409-152353,global,global,750,H,H,A,A,H-A.png,H-A.png,hH,hH,mask-1.png,mask-1.png,h,1,0.22871359999999186,none,-5,0,0.050174200000014935,0.05063630000006469,0.1007376000000022,0.09876370000006318,0.7504157999999279
RSVPLG03,si,20260409-152319,1.0.2,20260219-152011,818,Practice,T1,1,Automatic,main,5,20260409-152358,global,global,300,S,S,E,A,S-E.png,S-A.png,sS,sS,mask-1.png,mask-2.png,s,1,1.1997671999999966,none,-5,0,0.050402200000007724,0.049037500000054024,0.09894380000002911,0.09903440000005048,0.29988430000003063
RSVPLG03,si,20260409-152319,1.0.2,20260219-152011,818,Practice,T1,1,Automatic,main,6,20260409-152402,global,local,300,S,S,A,E,S-A.png,E-S.png,sS,sS,mask-1.png,mask-2.png,s,1,0.764026299999955,none,-5,0,0.04979660000003605,0.04868499999997766,0.09904260000007525,0.09923509999998714,0.2995762000000468
RSVPLG03,si,20260409-152319,1.0.2,20260219-152011,818,Practice,T1,1,Automatic,main,7,20260409-152406,local,global,750,H,S,E,E,E-H.png,S-E.png,hH,sS,mask-2.png,mask-3.png,h,1,0.6183823000000075,none,-5,0,0.04877109999995355,0.05001100000004044,0.09972790000006171,0.1004725000000235,0.7487095000000181
RSVPLG03,si,20260409-152319,1.0.2,20260219-152011,818,Practice,T1,1,Automatic,main,8,20260409-152411,global,global,300,H,S,E,E,H-E.png,S-E.png,hH,sS,mask-2.png,mask-4.png,h,1,1.3070096999999805,none,-5,0,0.04890019999993456,0.05039969999995719,0.10188189999996666,0.10073869999996532,0.29903379999996105
RSVPLG03,si,20260409-152319,1.0.2,20260219-152011,818,Practice,T1,1,Automatic,main,9,20260409-152416,global,global,750,S,H,A,E,S-A.png,H-E.png,sS,hH,mask-2.png,mask-1.png,h,0,0.8288760000000366,none,-5,0,0.050253399999974135,0.0493212000000085,0.10132269999996879,0.09968939999998838,0.7502866999999469
RSVPLG03,si,20260409-152319,1.0.2,20260219-152011,818,Practice,T1,1,Automatic,main,10,20260409-152421,local,local,750,S,S,A,E,A-S.png,E-S.png,sS,sS,mask-1.png,mask-2.png,s,1,0.534901600000012,none,-5,0,0.04965400000003228,0.05003769999996166,0.09969499999999698,0.10038320000001022,0.7472850999999991
RSVPLG03,si,20260409-152319,1.0.2,20260219-152011,818,Practice,T1,1,Automatic,main,11,20260409-152425,global,local,300,H,H,A,E,H-A.png,E-H.png,hH,hH,mask-2.png,mask-2.png,h,1,0.720872600000007,none,-5,0,0.05090580000000955,0.04945929999996679,0.09924739999996746,0.1003561999999647,0.299597800000015
RSVPLG03,si,20260409-152319,1.0.2,20260219-152011,818,Practice,T1,1,Automatic,main,12,20260409-152429,local,global,300,S,H,A,E,A-S.png,H-E.png,sS,hH,mask-2.png,mask-1.png,s,1,0.5113152999999784,none,-5,0,0.050098299999945084,0.04951070000004165,0.09885309999992842,0.09949390000008407,0.29874899999992977
RSVPLG03,si,20260409-152319,1.0.2,20260219-152011,818,Practice,T1,1,Automatic,main,13,20260409-152433,global,local,750,H,S,A,A,H-A.png,A-S.png,hH,sS,mask-4.png,mask-2.png,h,1,0.9321881999999277,none,-5,0,0.05065270000000055,0.049469000000044616,0.10130719999995108,0.09949119999998857,0.7503186000000142
RSVPLG03,si,20260409-152319,1.0.2,20260219-152011,818,Practice,T1,1,Automatic,main,14,20260409-152438,local,global,750,H,H,A,A,A-H.png,H-A.png,hH,hH,mask-1.png,mask-4.png,h,1,1.947012099999938,none,-5,0,0.04767759999992904,0.04897189999996954,0.098520199999939,0.10043509999991329,0.7477595999999949
RSVPLG03,si,20260409-152319,1.0.2,20260219-152011,818,Practice,T1,1,Automatic,main,15,20260409-152444,local,local,300,S,S,E,E,E-S.png,E-S.png,sS,sS,mask-3.png,mask-4.png,s,1,0.6259010999999646,none,-5,0,0.04910770000003595,0.04961579999996957,0.10043519999999262,0.10114790000000085,0.2991987999999992
RSVPLG03,si,20260409-152319,1.0.2,20260219-152011,818,Practice,T1,1,Automatic,main,16,20260409-152449,local,local,300,H,H,A,E,A-H.png,E-H.png,hH,hH,mask-1.png,mask-2.png,h,1,0.9714986999999837,none,-5,0,0.04920569999990221,0.04989920000002712,0.10108139999999821,0.09861189999992348,0.2997755999999754
RSVPLG03,si,20260409-152515,1.0.2,20260219-152011,818,Introduction,Both,1,Automatic,main,1,20260409-152536,global,global,750,H,H,A,A,H-A.png,H-A.png,hH,hH,mask-4.png,mask-1.png,h,1,1.130395099999987,s,0,1.4228471000000127,0.09836150000000998,0.098427700000002,0.19849030000000312,0.2004339999999729,0.7499998000000687
RSVPLG03,si,20260409-152515,1.0.2,20260219-152011,818,Introduction,Both,1,Automatic,main,2,20260409-152543,local,global,750,S,S,E,E,E-S.png,S-E.png,sS,sS,mask-3.png,mask-1.png,s,1,2.0664778999999953,s,1,1.162627900000075,0.09910760000002483,0.09849900000006073,0.19958780000001752,0.20044919999998,0.7509519000000182
RSVPLG03,si,20260409-152515,1.0.2,20260219-152011,818,Introduction,Both,1,Automatic,main,3,20260409-152551,global,local,750,H,H,A,A,H-A.png,A-H.png,hH,hH,mask-3.png,mask-3.png,h,1,0.4913810000000467,h,1,0.4327146000000539,0.1008391999999958,0.09872550000000047,0.2009243999999626,0.20004550000010113,0.7531954999999471
RSVPLG03,si,20260409-152515,1.0.2,20260219-152011,818,Introduction,Both,1,Automatic,main,4,20260409-152556,global,global,750,S,S,E,A,S-E.png,S-A.png,sS,sS,mask-2.png,mask-1.png,s,1,0.9953911000000062,s,1,0.6494081999999253,0.09855599999991682,0.0996084000000792,0.19890889999999217,0.2003310000000056,0.75078869999993
RSVPLG03,si,20260409-152515,1.0.2,20260219-152011,818,Introduction,Both,1,Automatic,main,5,20260409-152602,global,local,750,H,H,E,E,H-E.png,E-H.png,hH,hH,mask-4.png,mask-3.png,h,1,2.5072241000000304,s,0,1.6338752999999997,0.09999889999994593,0.10080519999996795,0.2022261999999273,0.19970469999998386,0.7521980999999869
RSVPLG03,si,20260409-152515,1.0.2,20260219-152011,818,Introduction,Both,1,Automatic,main,6,20260409-152610,global,global,750,S,S,E,A,S-E.png,S-A.png,sS,sS,mask-2.png,mask-3.png,s,1,0.5684754000000112,s,1,0.41081979999989926,0.09900040000002264,0.09989969999992354,0.20163370000000214,0.20110809999994217,0.7507044000000178
RSVPLG03,si,20260409-152515,1.0.2,20260219-152011,818,Introduction,Both,1,Automatic,main,7,20260409-152615,local,global,750,H,H,E,E,E-H.png,H-E.png,hH,hH,mask-1.png,mask-1.png,h,1,0.8131333999999697,h,1,0.42642270000010285,0.09996769999997923,0.09993499999995947,0.2011878999999226,0.1996703999999454,0.7527810999999929
RSVPLG03,si,20260409-152515,1.0.2,20260219-152011,818,Introduction,Both,1,Automatic,main,8,20260409-152621,local,global,750,H,H,A,A,A-H.png,H-A.png,hH,hH,mask-3.png,mask-1.png,h,1,1.6256558999999697,s,0,0.4172070999999278,0.10114510000005339,0.10066900000003898,0.20011329999999816,0.20054330000004938,0.7525421000000279
RSVPLG03,si,20260409-152515,1.0.2,20260219-152011,818,Introduction,Both,1,Automatic,main,9,20260409-152627,local,local,750,S,H,E,E,E-S.png,E-H.png,sS,hH,mask-3.png,mask-3.png,s,1,0.9202755000000025,h,1,0.45738070000004427,0.10079079999991336,0.09866339999996399,0.2016444999999294,0.19879140000000461,0.7537032999999838
RSVPLG03,si,20260409-152515,1.0.2,20260219-152011,818,Introduction,Both,1,Automatic,main,10,20260409-152633,global,global,750,H,S,E,E,H-E.png,S-E.png,hH,sS,mask-3.png,mask-1.png,h,1,0.8413487999999916,s,1,0.4378136999999924,0.09949579999999969,0.09890080000002399,0.19884830000000875,0.1999631999999565,0.7509952999999996
RSVPLG03,si,20260409-152515,1.0.2,20260219-152011,818,Introduction,Both,1,Automatic,main,11,20260409-152638,local,local,750,H,S,A,E,A-H.png,E-S.png,hH,sS,mask-4.png,mask-2.png,h,1,0.7206207000000404,s,1,0.3130651000000171,0.10253309999995963,0.10094209999999748,0.20034469999995963,0.1997923000000128,0.751586399999951
RSVPLG03,si,20260409-152515,1.0.2,20260219-152011,818,Introduction,Both,1,Automatic,main,12,20260409-152644,local,global,750,S,H,E,A,E-S.png,H-A.png,sS,hH,mask-3.png,mask-4.png,s,1,1.6125015000000076,h,1,1.2101896000000352,0.10087370000007922,0.09876950000000306,0.20225270000003093,0.19882729999994808,0.7532480000000987
RSVPLG03,si,20260409-152515,1.0.2,20260219-152011,818,Introduction,Both,1,Automatic,main,13,20260409-152651,local,local,750,S,S,E,A,E-S.png,A-S.png,sS,sS,mask-4.png,mask-2.png,s,1,0.847127099999966,s,1,0.9861670000000231,0.1012534000000187,0.10111110000002554,0.20124970000006215,0.20198149999998805,0.7517879000000676
RSVPLG03,si,20260409-152515,1.0.2,20260219-152011,818,Introduction,Both,1,Automatic,main,14,20260409-152657,global,local,750,H,S,E,A,H-E.png,A-S.png,hH,sS,mask-4.png,mask-4.png,h,1,1.3281299000000217,s,1,0.29863430000000335,0.1004649999999856,0.10018230000002859,0.20220689999996466,0.19952580000006037,0.7521383999999216
RSVPLG03,si,20260409-152515,1.0.2,20260219-152011,818,Introduction,Both,1,Automatic,main,15,20260409-152703,global,local,750,S,S,A,A,S-A.png,A-S.png,sS,sS,mask-4.png,mask-1.png,s,1,1.1657926999999972,h,0,5.097379799999999,0.09935559999996713,0.09997680000003584,0.2011621000000332,0.19965130000002773,0.7506174999999757
RSVPLG03,si,20260409-152515,1.0.2,20260219-152011,818,Introduction,Both,1,Automatic,main,16,20260409-152713,local,local,750,S,S,E,E,E-S.png,E-S.png,sS,sS,mask-2.png,mask-3.png,s,1,0.3911318000000392,s,1,0.2731753000000481,0.09843369999998686,0.09967419999998128,0.19729259999996884,0.2028038999999353,0.7492780000000039
RSVPLG03,si,20260409-152741,1.0.2,20260219-152011,818,Practice,Both,1,Automatic,main,1,20260409-152802,global,global,300,S,H,A,E,S-A.png,H-E.png,sS,hH,mask-2.png,mask-2.png,h,0,3.4636482999999316,h,1,1.7057105000000092,0.049782000000050175,0.048694899999986774,0.1005420999999842,0.09952220000002399,0.3010858999999755
RSVPLG03,si,20260409-152741,1.0.2,20260219-152011,818,Practice,Both,1,Automatic,main,2,20260409-152811,global,local,750,H,S,E,E,H-E.png,E-S.png,hH,sS,mask-4.png,mask-1.png,h,1,0.9757187000000158,s,1,0.08875019999993583,0.04857100000003811,0.050081700000077944,0.0986384000000271,0.10244250000005195,0.7494263999999475
RSVPLG03,si,20260409-152741,1.0.2,20260219-152011,818,Practice,Both,1,Automatic,main,3,20260409-152816,global,local,300,H,H,E,E,H-E.png,E-H.png,hH,hH,mask-3.png,mask-4.png,h,1,1.2862888999999313,s,0,0.3040003999999499,0.04948849999993854,0.049145500000008724,0.09896770000000288,0.10017019999997956,0.3003297999999859
RSVPLG03,si,20260409-152741,1.0.2,20260219-152011,818,Practice,Both,1,Automatic,main,4,20260409-152821,local,global,300,S,H,A,A,A-S.png,H-A.png,sS,hH,mask-2.png,mask-2.png,s,1,2.043080699999905,h,1,0.09724159999996118,0.05073349999997845,0.04971860000000561,0.10076339999989159,0.09992720000002464,0.30058169999995243
RSVPLG03,si,20260409-152741,1.0.2,20260219-152011,818,Practice,Both,1,Automatic,main,5,20260409-152827,local,local,300,H,S,E,A,E-H.png,A-S.png,hH,sS,mask-3.png,mask-1.png,h,1,1.5574796999999307,s,1,0.017795400000068184,0.04903159999992113,0.05018429999995533,0.09996489999991809,0.10079789999997502,0.2995555999999624
RSVPLG03,si,20260409-152741,1.0.2,20260219-152011,818,Practice,Both,1,Automatic,main,6,20260409-152832,global,global,300,S,S,E,E,S-E.png,S-E.png,sS,sS,mask-2.png,mask-4.png,s,1,0.9383675999999923,s,1,0.1625238999999965,0.05018519999998716,0.049831799999992654,0.10063869999999042,0.10028179999994791,0.30086519999997563
RSVPLG03,si,20260409-152741,1.0.2,20260219-152011,818,Practice,Both,1,Automatic,main,7,20260409-152837,global,global,750,S,H,A,E,S-A.png,H-E.png,sS,hH,mask-1.png,mask-2.png,s,1,0.7500284999999849,h,1,0.04846900000006826,0.05102550000003703,0.049655899999947906,0.10140550000005533,0.09969239999998081,0.7516707000000906
RSVPLG03,si,20260409-152741,1.0.2,20260219-152011,818,Practice,Both,1,Automatic,main,8,20260409-152842,local,local,750,H,S,E,A,E-H.png,A-S.png,hH,sS,mask-2.png,mask-4.png,h,1,0.6807644000000437,s,1,0.03909549999991668,0.051690000000007785,0.04951379999999972,0.09981050000010327,0.09922749999998359,0.7515434000000596
RSVPLG03,si,20260409-152741,1.0.2,20260219-152011,818,Practice,Both,1,Automatic,main,9,20260409-152847,local,local,750,S,S,E,A,E-S.png,A-S.png,sS,sS,mask-3.png,mask-2.png,s,1,1.3858359999999266,s,1,0.09635690000004615,0.04861829999993006,0.05028159999994841,0.0991810999998961,0.10023920000003272,0.7489286999999649
RSVPLG03,si,20260409-152741,1.0.2,20260219-152011,818,Practice,Both,1,Automatic,main,10,20260409-152852,local,local,300,H,H,E,A,E-H.png,A-H.png,hH,hH,mask-4.png,mask-4.png,s,0,1.4118817999999465,h,1,1.4998888999999735,0.04903250000006665,0.05106680000005781,0.09840389999999388,0.10009910000007949,0.29882789999999204
RSVPLG03,si,20260409-152741,1.0.2,20260219-152011,818,Practice,Both,1,Automatic,main,11,20260409-152857,local,global,750,H,H,E,A,E-H.png,H-A.png,hH,hH,mask-3.png,mask-4.png,s,0,0.5159134000000449,h,1,1.6318317000000206,0.05024850000006609,0.05014990000006492,0.10018109999998615,0.09949940000001334,0.7517507000000023
RSVPLG03,si,20260409-152741,1.0.2,20260219-152011,818,Practice,Both,1,Automatic,main,12,20260409-152904,local,global,300,H,H,E,E,E-H.png,H-E.png,hH,hH,mask-2.png,mask-1.png,h,1,1.3890779999999268,h,1,0.11402459999999337,0.05000330000007125,0.04995289999999386,0.10032720000003792,0.0999855000000025,0.3001421000000164
RSVPLG03,si,20260409-152741,1.0.2,20260219-152011,818,Practice,Both,1,Automatic,main,13,20260409-152909,global,local,750,H,S,A,E,H-A.png,E-S.png,hH,sS,mask-3.png,mask-4.png,h,1,1.4945165000000316,s,1,0.10617609999997057,0.051603200000045035,0.049561199999970995,0.10043080000002647,0.1009487999999692,0.7510657000000265
RSVPLG03,si,20260409-152741,1.0.2,20260219-152011,818,Practice,Both,1,Automatic,main,14,20260409-152915,global,local,300,S,S,A,E,S-A.png,E-S.png,sS,sS,mask-4.png,mask-2.png,s,1,0.8669842000000472,h,0,0.3149061999999958,0.048720199999934266,0.04885119999994458,0.09853109999994558,0.09903769999993983,0.29993130000002566
RSVPLG03,si,20260409-152741,1.0.2,20260219-152011,818,Practice,Both,1,Automatic,main,15,20260409-152920,local,global,750,H,H,E,A,E-H.png,H-A.png,hH,hH,mask-4.png,mask-1.png,s,0,0.5747307999999975,h,1,0.44996609999998327,0.05075499999998101,0.04987659999994776,0.10008029999994505,0.09995599999990645,0.7497243000000253
RSVPLG03,si,20260409-152741,1.0.2,20260219-152011,818,Practice,Both,1,Automatic,main,16,20260409-152925,global,global,750,H,S,E,A,H-E.png,S-A.png,hH,sS,mask-4.png,mask-2.png,h,1,0.9510548000000654,s,1,0.29004489999999805,0.051206299999989824,0.05004729999996016,0.10006490000000667,0.10011809999991783,0.7495462000000543
RSVPLG03,si,20260409-153032,1.0.2,20260219-152011,818,Experiment,Both,1,Automatic,warmup,1,20260409-153052,local,local,300,S,H,E,E,E-S.png,E-H.png,sS,hH,mask-2.png,mask-2.png,s,1,2.5843490999998266,h,1,0.05764819999990323,0.050631599999860555,0.0510269999999764,0.10026399999992464,0.10096569999996063,0.30021149999993213
RSVPLG03,si,20260409-153032,1.0.2,20260219-152011,818,Experiment,Both,1,Automatic,warmup,2,20260409-153058,global,local,750,S,H,E,E,S-E.png,E-H.png,sS,hH,mask-2.png,mask-1.png,s,1,0.66640150000012,s,0,0.13810659999990094,0.04875199999992219,0.049567899999829024,0.09827759999984664,0.10024069999985841,0.7500579000000016
RSVPLG03,si,20260409-153032,1.0.2,20260219-152011,818,Experiment,Both,1,Automatic,warmup,3,20260409-153103,local,global,750,S,H,E,E,E-S.png,H-E.png,sS,hH,mask-3.png,mask-1.png,s,1,0.5736839000001055,h,1,0.1293340999998236,0.04993999999987864,0.04998999999997977,0.10119299999996656,0.09897539999997207,0.7528886000000057
RSVPLG03,si,20260409-153032,1.0.2,20260219-152011,818,Experiment,Both,1,Automatic,warmup,4,20260409-153108,local,global,300,H,H,A,E,A-H.png,H-E.png,hH,hH,mask-4.png,mask-1.png,h,1,1.4713278000001537,s,0,0.03435239999998885,0.04900819999988926,0.04994380000016463,0.1004637000000912,0.0988558000001376,0.3008700999998837
RSVPLG03,si,20260409-153032,1.0.2,20260219-152011,818,Experiment,Both,1,Automatic,main,5,20260409-153113,local,local,300,S,H,A,E,A-S.png,E-H.png,sS,hH,mask-3.png,mask-1.png,s,1,0.5710610999999517,h,1,0.0421628999999939,0.04893020000008619,0.04956990000005135,0.10282839999990756,0.09817020000014054,0.30165949999991426
RSVPLG03,si,20260409-153032,1.0.2,20260219-152011,818,Experiment,Both,1,Automatic,main,6,20260409-153118,global,local,750,H,H,A,A,H-A.png,A-H.png,hH,hH,mask-3.png,mask-4.png,h,1,0.765741700000035,h,1,0.08871960000010404,0.049797800000078496,0.04992430000015702,0.10115530000007311,0.10214120000000548,0.7516293999999561
RSVPLG03,si,20260409-153032,1.0.2,20260219-152011,818,Experiment,Both,1,Automatic,main,7,20260409-153123,global,global,750,H,H,A,A,H-A.png,H-A.png,hH,hH,mask-2.png,mask-1.png,h,1,0.5773424000001341,h,1,0.09755970000014713,0.050962799999979325,0.04999279999992723,0.10197419999985868,0.09998849999988124,0.7523310999999921
RSVPLG03,si,20260409-153032,1.0.2,20260219-152011,818,Experiment,Both,1,Automatic,main,8,20260409-153127,local,global,300,S,S,E,E,E-S.png,S-E.png,sS,sS,mask-3.png,mask-1.png,s,1,0.6854044000001522,s,1,0.09799139999995532,0.050595199999861507,0.04976170000009006,0.10073859999988599,0.09992959999999584,0.30095329999994647
RSVPLG03,si,20260409-153032,1.0.2,20260219-152011,818,Experiment,Both,1,Automatic,main,9,20260409-153132,global,global,750,S,H,A,E,S-A.png,H-E.png,sS,hH,mask-3.png,mask-3.png,s,1,0.5388126999998804,h,1,0.025673099999949045,0.049754299999904106,0.04876650000005611,0.10093340000003082,0.09877400000004855,0.7534600999999839
RSVPLG03,si,20260409-153032,1.0.2,20260219-152011,818,Experiment,Both,1,Automatic,main,10,20260409-153136,local,global,300,S,H,E,A,E-S.png,H-A.png,sS,hH,mask-4.png,mask-3.png,s,1,0.7487416999999823,h,1,0.09079840000003969,0.049585800000159,0.05030659999988529,0.10003040000015062,0.10134489999995822,0.2998583000000963
RSVPLG03,si,20260409-153032,1.0.2,20260219-152011,818,Experiment,Both,1,Automatic,main,11,20260409-153141,global,local,300,S,S,A,E,S-A.png,E-S.png,sS,sS,mask-2.png,mask-3.png,s,1,0.44298830000002454,h,0,0.002408500000001368,0.05133610000007138,0.048926499999879525,0.1009926000001542,0.09878489999982776,0.3021789000001718
RSVPLG03,si,20260409-153032,1.0.2,20260219-152011,818,Experiment,Both,1,Automatic,main,12,20260409-153145,global,global,750,S,S,E,A,S-E.png,S-A.png,sS,sS,mask-4.png,mask-1.png,s,1,0.6016779000001407,s,1,0.08913140000004205,0.049867500000118525,0.05041339999979755,0.10069539999994959,0.09990659999994023,0.7519856000001255
RSVPLG03,si,20260409-153032,1.0.2,20260219-152011,818,Experiment,Both,1,Automatic,main,13,20260409-153150,local,global,750,H,S,A,A,A-H.png,S-A.png,hH,sS,mask-3.png,mask-4.png,h,1,0.7037775999999667,h,0,0.07393070000011903,0.05035339999994903,0.05025430000000597,0.10040440000011586,0.10095449999994344,0.7512197000000924
RSVPLG03,si,20260409-153032,1.0.2,20260219-152011,818,Experiment,Both,1,Automatic,main,14,20260409-153155,global,local,750,H,S,E,A,H-E.png,A-S.png,hH,sS,mask-1.png,mask-4.png,h,1,0.5682484000001295,h,0,0.0773105000000669,0.04975169999988793,0.0511880999999903,0.09969159999991462,0.10001839999995354,0.7509062999999969
RSVPLG03,si,20260409-153032,1.0.2,20260219-152011,818,Experiment,Both,1,Automatic,main,15,20260409-153159,local,global,750,H,S,A,A,A-H.png,S-A.png,hH,sS,mask-4.png,mask-4.png,s,0,1.3262640999998894,h,0,1.4302827999999863,0.05094250000001921,0.04986980000012409,0.09991430000013679,0.10078889999999774,0.7514949999999772
RSVPLG03,si,20260409-153032,1.0.2,20260219-152011,818,Experiment,Both,1,Automatic,main,16,20260409-153205,global,global,750,S,S,E,E,S-E.png,S-E.png,sS,sS,mask-1.png,mask-3.png,h,0,0.5945294000000558,s,1,0.04751310000006015,0.05009769999992386,0.04936459999998988,0.0988356999998814,0.09861829999999827,0.7508910999999898
RSVPLG03,si,20260409-153032,1.0.2,20260219-152011,818,Experiment,Both,1,Automatic,main,17,20260409-153210,local,global,300,H,S,E,E,E-H.png,S-E.png,hH,sS,mask-2.png,mask-1.png,s,0,7.124328400000195,s,1,0.27315329999987625,0.04777450000005956,0.051056100000096194,0.0975025000000187,0.10096150000003945,0.2979788999998618
RSVPLG03,si,20260409-153032,1.0.2,20260219-152011,818,Experiment,Both,1,Automatic,main,18,20260409-153221,local,local,300,S,H,A,A,A-S.png,A-H.png,sS,hH,mask-2.png,mask-4.png,s,1,1.243595900000173,h,1,0.6416733000000931,0.050046399999928326,0.04995910000002368,0.10068059999980505,0.10070760000007795,0.300184199999876
RSVPLG03,si,20260409-153032,1.0.2,20260219-152011,818,Experiment,Both,1,Automatic,main,19,20260409-153226,global,local,300,S,S,E,A,S-E.png,A-S.png,sS,sS,mask-4.png,mask-4.png,s,1,0.7851852999999664,s,1,1.4176637000000483,0.05222549999984949,0.04971339999997326,0.10210529999994833,0.09979500000008557,0.3014650999998594
RSVPLG03,si,20260409-153032,1.0.2,20260219-152011,818,Experiment,Both,1,Automatic,main,20,20260409-153232,local,local,750,H,S,A,A,A-H.png,A-S.png,hH,sS,mask-4.png,mask-4.png,s,0,0.4842905000000428,s,1,0.11402909999992517,0.04999419999990096,0.049913800000013,0.10004529999991973,0.10149430000001303,0.7511248999999225
RSVPLG03,si,20260409-153032,1.0.2,20260219-152011,818,Experiment,Both,1,Automatic,main,21,20260409-153237,local,local,300,H,H,E,A,E-H.png,A-H.png,hH,hH,mask-3.png,mask-3.png,s,0,1.9886192000001301,h,1,2.1725112000001445,0.0490941999998995,0.05186819999994441,0.09918389999984356,0.10160479999990457,0.29956719999995585
RSVPLG03,si,20260409-153032,1.0.2,20260219-152011,818,Experiment,Both,1,Automatic,main,22,20260409-153243,global,global,300,H,S,E,E,H-E.png,S-E.png,hH,sS,mask-1.png,mask-2.png,h,1,0.8587175000000116,h,0,0.11440749999997024,0.050679600000194114,0.05099989999985155,0.10013980000007905,0.09984269999995377,0.3002445000001899
RSVPLG03,si,20260409-153032,1.0.2,20260219-152011,818,Experiment,Both,1,Automatic,main,23,20260409-153247,local,global,750,S,S,E,A,E-S.png,S-A.png,sS,sS,mask-2.png,mask-1.png,s,1,0.8778590000001714,h,0,0.10602610000000823,0.05001940000011018,0.050027000000000044,0.10016240000004473,0.09994530000017221,0.7521403999999166
RSVPLG03,si,20260409-153032,1.0.2,20260219-152011,818,Experiment,Both,1,Automatic,main,24,20260409-153253,global,local,300,H,H,E,E,H-E.png,E-H.png,hH,hH,mask-2.png,mask-1.png,h,1,1.0802051999999094,s,0,0.03435280000007879,0.048745499999995445,0.04881730000010975,0.10002269999995406,0.09984660000009171,0.30113269999992553
RSVPLG03,si,20260409-153032,1.0.2,20260219-152011,818,Experiment,Both,1,Automatic,main,25,20260409-153257,global,local,300,H,S,A,A,H-A.png,A-S.png,hH,sS,mask-4.png,mask-1.png,h,1,0.547770600000149,h,0,0.0809219000000212,0.04867200000012417,0.050447000000076514,0.10018730000001597,0.10117510000009133,0.29880980000007185
RSVPLG03,si,20260409-153032,1.0.2,20260219-152011,818,Experiment,Both,1,Automatic,main,26,20260409-153309,local,global,300,S,S,A,E,A-S.png,S-E.png,sS,sS,mask-3.png,mask-3.png,s,1,0.8801481999998941,h,0,0.2015016000000287,0.05065200000012737,0.04982449999988603,0.09978510000019014,0.10101099999997132,0.30084270000020297
RSVPLG03,si,20260409-153032,1.0.2,20260219-152011,818,Experiment,Both,1,Automatic,main,27,20260409-153314,local,local,300,H,H,A,A,A-H.png,A-H.png,hH,hH,mask-4.png,mask-3.png,s,0,1.489565900000116,s,0,0.09039090000010219,0.05055430000015804,0.051399199999877965,0.10079240000004575,0.10017130000005636,0.30110030000014376
RSVPLG03,si,20260409-153032,1.0.2,20260219-152011,818,Experiment,Both,1,Automatic,main,28,20260409-153319,local,global,300,H,H,A,A,A-H.png,H-A.png,hH,hH,mask-3.png,mask-4.png,h,1,0.8415912999998909,h,1,0.07378129999983685,0.04992549999997209,0.05107470000007197,0.09996580000006361,0.10090029999992112,0.30055480000009993
RSVPLG03,si,20260409-153032,1.0.2,20260219-152011,818,Experiment,Both,1,Automatic,main,29,20260409-153324,global,local,750,S,S,A,A,S-A.png,A-S.png,sS,sS,mask-1.png,mask-3.png,h,0,1.2647320999999465,h,0,0.06364270000017314,0.0500377999999273,0.05161580000003596,0.10018749999994725,0.10007610000002387,0.7515402999999878
RSVPLG03,si,20260409-153032,1.0.2,20260219-152011,818,Experiment,Both,1,Automatic,main,30,20260409-153329,local,local,300,S,S,A,E,A-S.png,E-S.png,sS,sS,mask-3.png,mask-1.png,s,1,0.7631751000001259,h,0,0.9230519000000186,0.050255900000138354,0.04950700000017605,0.09825950000004013,0.09992360000001099,0.29966699999999946
RSVPLG03,si,20260409-153032,1.0.2,20260219-152011,818,Experiment,Both,1,Automatic,main,31,20260409-153334,local,local,300,H,S,A,A,A-H.png,A-S.png,hH,sS,mask-1.png,mask-1.png,s,0,4.83168969999997,h,0,0.16075100000011844,0.05076039999994464,0.051038500000004206,0.10077010000009068,0.10108439999999064,0.3003094999999121
RSVPLG03,si,20260409-153032,1.0.2,20260219-152011,818,Experiment,Both,1,Automatic,main,32,20260409-153342,local,local,300,S,H,E,A,E-S.png,A-H.png,sS,hH,mask-1.png,mask-1.png,h,0,2.1163779999999406,s,0,0.02650069999981497,0.05122370000003684,0.05003539999984241,0.10074379999991834,0.09978149999983543,0.30209830000012516
RSVPLG03,si,20260409-153032,1.0.2,20260219-152011,818,Experiment,Both,1,Automatic,main,33,20260409-153348,local,local,750,S,S,E,A,E-S.png,A-S.png,sS,sS,mask-1.png,mask-2.png,s,1,3.971686699999964,s,1,0.09732610000014574,0.04909539999994195,0.050061100000220904,0.1005380999999943,0.10100099999999657,0.7503816999999344
RSVPLG03,si,20260409-153032,1.0.2,20260219-152011,818,Experiment,Both,1,Automatic,main,34,20260409-153357,global,local,300,S,H,E,A,S-E.png,A-H.png,sS,hH,mask-4.png,mask-3.png,s,1,0.6602837999998883,h,1,0.05103380000014113,0.04923940000003313,0.049585999999862906,0.0992642999999589,0.09953169999994316,0.3006358000000091
RSVPLG03,si,20260409-153032,1.0.2,20260219-152011,818,Experiment,Both,1,Automatic,main,35,20260409-153401,global,global,750,H,H,E,A,H-E.png,H-A.png,hH,hH,mask-4.png,mask-1.png,h,1,1.1384928999998465,h,1,0.09852109999997083,0.049644299999954455,0.05093340000007629,0.0997176999999283,0.09986890000004678,0.7507863999999245
RSVPLG03,si,20260409-153032,1.0.2,20260219-152011,818,Experiment,Both,1,Automatic,main,36,20260409-153406,local,local,750,H,S,E,A,E-H.png,A-S.png,hH,sS,mask-4.png,mask-3.png,s,0,0.6868144999998549,s,1,0.08940809999990051,0.05061159999991105,0.049500599999873884,0.10062650000008944,0.10081669999999576,0.7518611000000419
RSVPLG03,si,20260409-153032,1.0.2,20260219-152011,818,Experiment,Both,1,Automatic,main,37,20260409-153411,global,global,300,H,H,E,A,H-E.png,H-A.png,hH,hH,mask-1.png,mask-3.png,h,1,2.2446941999999126,h,1,0.10617030000003069,0.049354600000015125,0.050622599999996964,0.0993313000001308,0.1005824000001212,0.2999064000000544
RSVPLG03,si,20260409-153032,1.0.2,20260219-152011,818,Experiment,Both,1,Automatic,main,38,20260409-153417,local,global,750,H,S,E,A,E-H.png,S-A.png,hH,sS,mask-4.png,mask-2.png,h,1,0.6841554999998607,s,1,0.7721884999998565,0.049951199999895834,0.048940700000002835,0.10088360000008834,0.09928649999983463,0.7514980000000833
RSVPLG03,si,20260409-153032,1.0.2,20260219-152011,818,Experiment,Both,1,Automatic,main,39,20260409-153422,global,global,750,S,S,A,E,S-A.png,S-E.png,sS,sS,mask-4.png,mask-4.png,h,0,7.114606399999957,s,1,7.178579199999831,0.05014569999980267,0.04985639999995328,0.10011179999992237,0.10054409999997915,0.7502019999999447
RSVPLG03,si,20260409-153032,1.0.2,20260219-152011,818,Experiment,Both,1,Automatic,main,40,20260409-153433,local,global,750,H,H,A,E,A-H.png,H-E.png,hH,hH,mask-2.png,mask-3.png,h,1,0.6174894999999196,h,1,0.08176649999995789,0.05163689999994858,0.04981849999990118,0.100318100000095,0.09860009999988506,0.7525318000000425
RSVPLG03,si,20260409-153032,1.0.2,20260219-152011,818,Experiment,Both,1,Automatic,main,41,20260409-153438,global,local,750,S,H,E,E,S-E.png,E-H.png,sS,hH,mask-4.png,mask-4.png,s,1,0.4154654000001301,s,0,0.08887960000015482,0.05042849999995269,0.05069340000000011,0.09887189999994916,0.10134130000005825,0.7505462999999963
RSVPLG03,si,20260409-153032,1.0.2,20260219-152011,818,Experiment,Both,1,Automatic,main,42,20260409-153443,global,global,750,S,S,A,E,S-A.png,S-E.png,sS,sS,mask-4.png,mask-3.png,s,1,0.6996635999998944,s,1,0.1143366999999671,0.048877500000116925,0.05015159999993557,0.09934760000010101,0.09992599999986851,0.7502541000001202
RSVPLG03,si,20260409-153032,1.0.2,20260219-152011,818,Experiment,Both,1,Automatic,main,43,20260409-153447,local,local,750,S,H,E,A,E-S.png,A-H.png,sS,hH,mask-1.png,mask-2.png,s,1,0.8246261999997841,h,1,0.0262915000000703,0.04999739999993835,0.050895200000013574,0.10052550000000338,0.10091469999997571,0.7524687999998605
RSVPLG03,si,20260409-153032,1.0.2,20260219-152011,818,Experiment,Both,1,Automatic,main,44,20260409-153452,local,local,750,S,H,E,E,E-S.png,E-H.png,sS,hH,mask-1.png,mask-2.png,s,1,0.4610488999999234,h,1,0.1468861000000743,0.05008259999999609,0.048091299999896364,0.10014269999987846,0.09926069999983156,0.7527273000000605
RSVPLG03,si,20260409-153032,1.0.2,20260219-152011,818,Experiment,Both,1,Automatic,main,45,20260409-153457,local,global,750,S,S,A,A,A-S.png,S-A.png,sS,sS,mask-3.png,mask-4.png,s,1,0.9309063000000606,s,1,0.0971234999999524,0.04994190000002163,0.04945309999993697,0.0990935999998328,0.10061900000005153,0.7504974999999376
RSVPLG03,si,20260409-153032,1.0.2,20260219-152011,818,Experiment,Both,1,Automatic,main,46,20260409-153502,local,global,750,S,H,E,E,E-S.png,H-E.png,sS,hH,mask-3.png,mask-4.png,s,1,0.46405929999991713,h,1,0.06599640000013096,0.04985549999992145,0.051631399999905625,0.10139170000002196,0.10061580000001413,0.7518993000001046
RSVPLG03,si,20260409-153032,1.0.2,20260219-152011,818,Experiment,Both,1,Automatic,main,47,20260409-153507,local,local,750,S,S,E,E,E-S.png,E-S.png,sS,sS,mask-2.png,mask-3.png,s,1,0.4823068999999123,s,1,0.09679490000007718,0.05004559999997582,0.0518858000000364,0.09926279999990584,0.10114770000018325,0.7502781999999115
RSVPLG03,si,20260409-153032,1.0.2,20260219-152011,818,Experiment,Both,1,Automatic,main,48,20260409-153512,local,local,300,S,H,A,A,A-S.png,A-H.png,sS,hH,mask-1.png,mask-2.png,s,1,0.5053499000000556,h,1,0.08925509999994574,0.04932239999993726,0.049995000000080836,0.0994149999999081,0.100178299999925,0.299451099999942
RSVPLG03,si,20260409-153032,1.0.2,20260219-152011,818,Experiment,Both,1,Automatic,main,49,20260409-153516,global,global,750,S,H,E,E,S-E.png,H-E.png,sS,hH,mask-1.png,mask-1.png,s,1,0.5000957999998263,s,0,0.1026944000000185,0.050481199999921955,0.050020300000142015,0.1012994999998682,0.09956400000010035,0.7519791999998233
RSVPLG03,si,20260409-153032,1.0.2,20260219-152011,818,Experiment,Both,1,Automatic,main,50,20260409-153521,global,local,750,S,S,E,A,S-E.png,A-S.png,sS,sS,mask-2.png,mask-2.png,s,1,0.5552611000000525,h,0,0.05716589999997268,0.04993160000003627,0.05005039999991823,0.10019179999994776,0.10005699999987883,0.750885000000153
RSVPLG03,si,20260409-153032,1.0.2,20260219-152011,818,Experiment,Both,1,Automatic,main,51,20260409-153547,local,global,750,S,S,E,E,E-S.png,S-E.png,sS,sS,mask-2.png,mask-4.png,s,1,0.5643158999998832,s,1,0.06664759999989656,0.04876930000000357,0.04966089999993528,0.0983658000000105,0.09980829999994967,0.7498679000000266
RSVPLG03,si,20260409-153032,1.0.2,20260219-152011,818,Experiment,Both,1,Automatic,main,52,20260409-153552,local,global,300,S,H,A,E,A-S.png,H-E.png,sS,hH,mask-1.png,mask-3.png,s,1,0.6109132000001409,h,1,0.017620400000168956,0.05020420000005288,0.04967880000003788,0.10022690000005241,0.10031180000009954,0.30016520000003766
RSVPLG03,si,20260409-153032,1.0.2,20260219-152011,818,Experiment,Both,1,Automatic,main,53,20260409-153556,global,local,300,H,S,A,A,H-A.png,A-S.png,hH,sS,mask-1.png,mask-3.png,h,1,0.5441588000001047,h,0,0.057837699999936376,0.050694199999952616,0.05007009999985712,0.10098930000003747,0.09973079999986112,0.3012433000001238
RSVPLG03,si,20260409-153032,1.0.2,20260219-152011,818,Experiment,Both,1,Automatic,main,54,20260409-153600,local,global,750,H,H,A,A,A-H.png,H-A.png,hH,hH,mask-4.png,mask-3.png,h,1,0.7695737999999892,h,1,0.06676710000010644,0.05201360000000932,0.04897749999986445,0.1013014000000112,0.09902499999998327,0.7530821000000287
RSVPLG03,si,20260409-153032,1.0.2,20260219-152011,818,Experiment,Both,1,Automatic,main,55,20260409-153605,local,global,750,S,H,E,A,E-S.png,H-A.png,sS,hH,mask-2.png,mask-2.png,h,0,0.36020970000004127,h,1,0.07397050000008676,0.050991699999940465,0.048869400000057794,0.09974299999998948,0.09888890000001993,0.7523386000000301
RSVPLG03,si,20260409-153032,1.0.2,20260219-152011,818,Experiment,Both,1,Automatic,main,56,20260409-153610,global,global,750,H,S,A,A,H-A.png,S-A.png,hH,sS,mask-1.png,mask-2.png,h,1,1.1603368999999475,h,0,0.09055689999991046,0.04997519999983524,0.0508778999999322,0.10174219999998968,0.09920809999994162,0.7517700999999306
RSVPLG03,si,20260409-153032,1.0.2,20260219-152011,818,Experiment,Both,1,Automatic,main,57,20260409-153615,local,local,750,H,S,A,A,A-H.png,A-S.png,hH,sS,mask-4.png,mask-4.png,h,1,0.9274644000001899,s,1,0.04326179999998203,0.05065229999991061,0.05033010000011018,0.10037310000006983,0.1012789999999768,0.7508864999999787
RSVPLG03,si,20260409-153032,1.0.2,20260219-152011,818,Experiment,Both,1,Automatic,main,58,20260409-153620,global,local,300,S,S,A,A,S-A.png,A-S.png,sS,sS,mask-1.png,mask-1.png,h,0,2.3545564000000923,h,0,0.08063060000017686,0.04943660000003547,0.04950730000018666,0.09949140000003354,0.09972820000007232,0.30027099999983875
RSVPLG03,si,20260409-153032,1.0.2,20260219-152011,818,Experiment,Both,1,Automatic,main,59,20260409-153626,global,local,300,S,H,A,A,S-A.png,A-H.png,sS,hH,mask-2.png,mask-3.png,h,0,0.6416243999999551,h,1,0.07163519999994605,0.05099889999996776,0.05001680000009401,0.1011465000001408,0.09978320000004715,0.30040299999996023
RSVPLG03,si,20260409-153032,1.0.2,20260219-152011,818,Experiment,Both,1,Automatic,main,60,20260409-153630,local,global,300,H,S,E,E,E-H.png,S-E.png,hH,sS,mask-2.png,mask-2.png,h,1,0.5954369000000952,s,1,0.0027030999999624328,0.04964369999993323,0.05021699999997509,0.0996288999999706,0.09914019999996526,0.3007941999999275
RSVPLG03,si,20260409-153032,1.0.2,20260219-152011,818,Experiment,Both,1,Automatic,main,61,20260409-153635,global,local,750,H,H,A,E,H-A.png,E-H.png,hH,hH,mask-4.png,mask-1.png,h,1,0.7863801000000876,h,1,0.0811969000001227,0.050014600000167775,0.049817000000075495,0.09998960000007173,0.09953919999998107,0.7521134000000984
RSVPLG03,si,20260409-153032,1.0.2,20260219-152011,818,Experiment,Both,1,Automatic,main,62,20260409-153640,global,global,300,S,H,A,A,S-A.png,H-A.png,sS,hH,mask-3.png,mask-4.png,h,0,0.6869368000000122,s,0,0.03449410000007447,0.05088389999991705,0.04910719999998037,0.10067209999988336,0.10014870000009068,0.30161869999983537
RSVPLG03,si,20260409-153032,1.0.2,20260219-152011,818,Experiment,Both,1,Automatic,main,63,20260409-153644,global,global,300,H,S,E,A,H-E.png,S-A.png,hH,sS,mask-3.png,mask-3.png,h,1,1.5813266000000112,s,1,0.03422069999987798,0.050371499999982916,0.05025989999990088,0.10100310000007084,0.10121479999997973,0.3003339000001688
RSVPLG03,si,20260409-153032,1.0.2,20260219-152011,818,Experiment,Both,1,Automatic,main,64,20260409-153649,local,local,300,H,S,A,E,A-H.png,E-S.png,hH,sS,mask-2.png,mask-3.png,h,1,1.3742412999999942,s,1,0.0012936000000536296,0.05017959999986488,0.05093110000007073,0.10055749999992258,0.10067460000004758,0.3008215999998356
RSVPLG03,si,20260409-153032,1.0.2,20260219-152011,818,Experiment,Both,1,Automatic,main,65,20260409-153654,local,global,300,S,H,E,A,E-S.png,H-A.png,sS,hH,mask-4.png,mask-2.png,h,0,0.8991751999999451,s,0,0.08953969999993205,0.05462130000000798,0.0501213000000007,0.10159599999997226,0.10013630000003104,0.2999807999999575
RSVPLG03,si,20260409-153032,1.0.2,20260219-152011,818,Experiment,Both,1,Automatic,main,66,20260409-153659,global,global,750,H,H,E,A,H-E.png,H-A.png,hH,hH,mask-1.png,mask-4.png,h,1,0.6917070000001786,s,0,0.08222129999990102,0.05072219999988192,0.05138629999987643,0.10003669999991871,0.10131979999982832,0.750891700000011
RSVPLG03,si,20260409-153032,1.0.2,20260219-152011,818,Experiment,Both,1,Automatic,main,67,20260409-153704,local,local,750,H,H,E,E,E-H.png,E-H.png,hH,hH,mask-3.png,mask-2.png,h,1,0.5689623000000665,h,1,0.07348100000012892,0.05005999999980304,0.050458700000035606,0.10011169999984304,0.10021110000002409,0.7526345999999648
RSVPLG03,si,20260409-153032,1.0.2,20260219-152011,818,Experiment,Both,1,Automatic,main,68,20260409-153709,global,local,750,H,H,A,E,H-A.png,E-H.png,hH,hH,mask-3.png,mask-1.png,h,1,0.44876780000004146,h,1,0.09774469999979374,0.04894019999983357,0.050957400000015696,0.0993753000000197,0.10017910000010488,0.7503744999999071
RSVPLG03,si,20260409-153032,1.0.2,20260219-152011,818,Experiment,Both,1,Automatic,main,69,20260409-153713,global,local,750,S,H,A,E,S-A.png,E-H.png,sS,hH,mask-2.png,mask-4.png,h,0,0.38020819999997,h,1,0.10282959999995,0.048793299999942974,0.0500641999999516,0.10011090000011791,0.1011790000000019,0.7501323000001321
RSVPLG03,si,20260409-153032,1.0.2,20260219-152011,818,Experiment,Both,1,Automatic,main,70,20260409-153718,local,local,300,H,S,A,E,A-H.png,E-S.png,hH,sS,mask-4.png,mask-1.png,h,1,0.43887629999994715,s,1,0.0009892999999010499,0.0504631999999674,0.049941099999841754,0.10055790000001252,0.10077069999988453,0.29956080000010843
RSVPLG03,si,20260409-153032,1.0.2,20260219-152011,818,Experiment,Both,1,Automatic,main,71,20260409-153722,global,local,300,H,S,E,A,H-E.png,A-S.png,hH,sS,mask-2.png,mask-1.png,h,1,0.4516605999999683,h,0,0.08999849999986509,0.04868000000010397,0.04915030000006482,0.09879350000005616,0.10038250000002336,0.3001469000000725
RSVPLG03,si,20260409-153032,1.0.2,20260219-152011,818,Experiment,Both,1,Automatic,main,72,20260409-153726,global,global,750,H,H,E,E,H-E.png,H-E.png,hH,hH,mask-1.png,mask-3.png,h,1,0.5067219000000023,h,1,0.09732340000005024,0.05047930000000633,0.04974560000005113,0.10112219999996341,0.10001529999999548,0.7519047999999202
RSVPLG03,si,20260409-153032,1.0.2,20260219-152011,818,Experiment,Both,1,Automatic,main,73,20260409-153731,local,global,750,S,H,E,E,E-S.png,H-E.png,sS,hH,mask-2.png,mask-3.png,s,1,0.44134909999979755,h,1,0.02593339999998534,0.04996979999987161,0.04979139999977633,0.10115719999998873,0.09928279999985534,0.7518032000000403
RSVPLG03,si,20260409-153032,1.0.2,20260219-152011,818,Experiment,Both,1,Automatic,main,74,20260409-153735,global,global,300,H,H,A,E,H-A.png,H-E.png,hH,hH,mask-3.png,mask-2.png,h,1,1.217435499999965,h,1,0.07208809999997356,0.049172199999929944,0.05161009999983435,0.10155389999999898,0.10123869999983981,0.3002099000000271
RSVPLG03,si,20260409-153032,1.0.2,20260219-152011,818,Experiment,Both,1,Automatic,main,75,20260409-153740,local,global,300,H,S,A,A,A-H.png,S-A.png,hH,sS,mask-4.png,mask-2.png,h,1,0.4950163999999404,s,1,0.01798640000015439,0.0513252000000648,0.04990810000003876,0.10037899999997535,0.10003549999987627,0.3009104000000207
RSVPLG03,si,20260409-153032,1.0.2,20260219-152011,818,Experiment,Both,1,Automatic,main,76,20260409-153746,local,local,750,H,S,E,E,E-H.png,E-S.png,hH,sS,mask-3.png,mask-4.png,h,1,1.1990573999999015,s,1,0.09808169999996608,0.050207300000010946,0.04893889999993917,0.09996720000003734,0.09909330000004957,0.7516046000000642
RSVPLG03,si,20260409-153032,1.0.2,20260219-152011,818,Experiment,Both,1,Automatic,main,77,20260409-153752,global,global,300,H,S,E,E,H-E.png,S-E.png,hH,sS,mask-4.png,mask-2.png,h,1,0.6320966000000681,s,1,0.02534949999994751,0.04842710000002626,0.05013140000005478,0.09911190000002534,0.10007730000006632,0.2987677999999505
RSVPLG03,si,20260409-153032,1.0.2,20260219-152011,818,Experiment,Both,1,Automatic,main,78,20260409-153756,global,local,300,S,S,A,A,S-A.png,A-S.png,sS,sS,mask-2.png,mask-3.png,h,0,0.4308183000000554,s,1,0.566857999999911,0.051926400000184,0.05249839999987671,0.10093510000001515,0.10105670000007194,0.3006342000001041
RSVPLG03,si,20260409-153032,1.0.2,20260219-152011,818,Experiment,Both,1,Automatic,main,79,20260409-153800,global,global,300,H,S,E,E,H-E.png,S-E.png,hH,sS,mask-1.png,mask-3.png,h,1,0.483530299999984,s,1,0.06460900000001857,0.04950729999995929,0.050767899999982546,0.10026020000009339,0.10036919999993188,0.30012970000007044
RSVPLG03,si,20260409-153032,1.0.2,20260219-152011,818,Experiment,Both,1,Automatic,main,80,20260409-153805,global,local,300,S,H,E,A,S-E.png,A-H.png,sS,hH,mask-4.png,mask-2.png,s,1,0.6154373000001669,s,0,0.09915079999996124,0.04898900000011963,0.05031269999994947,0.09845799999993687,0.10072709999985818,0.29920190000007096
RSVPLG03,si,20260409-153032,1.0.2,20260219-152011,818,Experiment,Both,1,Automatic,main,81,20260409-153809,local,local,750,S,H,A,A,A-S.png,A-H.png,sS,hH,mask-1.png,mask-3.png,s,1,0.5132595999998557,h,1,1.0240697000001546,0.0511761000000206,0.05057510000006005,0.10079679999989821,0.10124590000009448,0.7515063999999256
RSVPLG03,si,20260409-153032,1.0.2,20260219-152011,818,Experiment,Both,1,Automatic,main,82,20260409-153815,local,local,750,S,S,A,A,A-S.png,A-S.png,sS,sS,mask-3.png,mask-1.png,s,1,0.3489545999998427,s,1,0.0694887000001927,0.04931710000005296,0.04981069999985266,0.10019639999995889,0.09877799999981107,0.7526274000001649
RSVPLG03,si,20260409-153032,1.0.2,20260219-152011,818,Experiment,Both,1,Automatic,main,83,20260409-153819,global,local,300,H,H,E,E,H-E.png,E-H.png,hH,hH,mask-3.png,mask-3.png,h,1,0.5005051999999068,s,0,0.03821349999998347,0.05012409999994816,0.05153659999996307,0.09988889999999628,0.10021159999996598,0.2999984000000495
RSVPLG03,si,20260409-153032,1.0.2,20260219-152011,818,Experiment,Both,1,Automatic,main,84,20260409-153823,global,local,750,S,S,E,E,S-E.png,E-S.png,sS,sS,mask-1.png,mask-4.png,s,1,0.530780600000071,s,1,0.07358309999995072,0.04957390000004125,0.05144850000010592,0.09890569999993204,0.09962719999998626,0.7504601999999068
RSVPLG03,si,20260409-153032,1.0.2,20260219-152011,818,Experiment,Both,1,Automatic,main,85,20260409-153828,global,global,300,H,H,E,A,H-E.png,H-A.png,hH,hH,mask-4.png,mask-3.png,h,1,0.5017785999998523,h,1,0.08046439999998256,0.049212099999977,0.05033539999999448,0.10035840000000462,0.09960219999993569,0.2998803999998927
RSVPLG03,si,20260409-153032,1.0.2,20260219-152011,818,Experiment,Both,1,Automatic,main,86,20260409-153832,global,global,300,S,H,E,A,S-E.png,H-A.png,sS,hH,mask-1.png,mask-4.png,h,0,0.6794294999999693,h,1,0.08204950000003919,0.04944490000002588,0.050243599999930666,0.0991762999999537,0.10106980000000476,0.299053400000048
RSVPLG03,si,20260409-153032,1.0.2,20260219-152011,818,Experiment,Both,1,Automatic,main,87,20260409-153837,local,global,300,S,H,E,E,E-S.png,H-E.png,sS,hH,mask-2.png,mask-1.png,h,0,0.5840193999999883,h,1,0.09023089999982403,0.04959340000004886,0.05020590000003722,0.0996588000000429,0.09979090000001634,0.30085060000010344
RSVPLG03,si,20260409-153032,1.0.2,20260219-152011,818,Experiment,Both,1,Automatic,main,88,20260409-153841,global,global,300,H,S,E,E,H-E.png,S-E.png,hH,sS,mask-2.png,mask-3.png,h,1,0.9362762999999177,s,1,1.0403923999999733,0.051056000000016866,0.0501709000000119,0.0999946000001728,0.10063579999996364,0.30111250000004475
RSVPLG03,si,20260409-153032,1.0.2,20260219-152011,818,Experiment,Both,1,Automatic,main,89,20260409-153846,global,local,750,S,S,A,E,S-A.png,E-S.png,sS,sS,mask-3.png,mask-4.png,h,0,0.49876289999997425,s,1,0.04145490000018981,0.04996589999996104,0.048918500000127096,0.10126650000006521,0.10033820000012383,0.753054499999962
RSVPLG03,si,20260409-153032,1.0.2,20260219-152011,818,Experiment,Both,1,Automatic,main,90,20260409-153850,local,local,750,S,H,E,A,E-S.png,A-H.png,sS,hH,mask-1.png,mask-1.png,s,1,0.10328819999995176,h,1,0.15164069999991625,0.050180400000044756,0.04962230000001,0.10068220000016481,0.09986890000004678,0.7502065999999559
RSVPLG03,si,20260409-153032,1.0.2,20260219-152011,818,Experiment,Both,1,Automatic,main,91,20260409-153855,local,global,300,S,S,E,E,E-S.png,S-E.png,sS,sS,mask-2.png,mask-2.png,s,1,0.5481819999999971,h,0,0.6843203000000813,0.051022999999986496,0.04961180000009335,0.1010822000000644,0.09942270000010467,0.30107380000004014
RSVPLG03,si,20260409-153032,1.0.2,20260219-152011,818,Experiment,Both,1,Automatic,main,92,20260409-153859,local,local,300,H,S,E,E,E-H.png,E-S.png,hH,sS,mask-2.png,mask-4.png,h,1,0.4931616999999733,h,0,0.08185649999995803,0.05056579999995847,0.05093180000017128,0.10096060000000762,0.10090040000000045,0.30037419999985104
RSVPLG03,si,20260409-153032,1.0.2,20260219-152011,818,Experiment,Both,1,Automatic,main,93,20260409-153903,local,global,300,H,H,E,E,E-H.png,H-E.png,hH,hH,mask-3.png,mask-2.png,h,1,0.4292688000000453,s,0,0.5492675000000418,0.04899299999988216,0.04879419999997481,0.09881679999989501,0.10041000000001077,0.3011994999999388
RSVPLG03,si,20260409-153032,1.0.2,20260219-152011,818,Experiment,Both,1,Automatic,main,94,20260409-153907,global,global,300,S,H,E,E,S-E.png,H-E.png,sS,hH,mask-2.png,mask-3.png,h,0,0.6686065000001236,h,1,0.07962130000009893,0.049823299999843584,0.0512112999999772,0.10087609999982305,0.10070889999997235,0.2997043999998823
RSVPLG03,si,20260409-153032,1.0.2,20260219-152011,818,Experiment,Both,1,Automatic,main,95,20260409-153911,local,local,300,S,H,A,E,A-S.png,E-H.png,sS,hH,mask-1.png,mask-4.png,h,0,0.5231277000000318,h,1,0.09766880000006495,0.048305000000027576,0.05097239999986414,0.10000330000002577,0.1005301000000145,0.2990763000000243
RSVPLG03,si,20260409-153032,1.0.2,20260219-152011,818,Experiment,Both,1,Automatic,main,96,20260409-153916,global,local,750,S,H,A,E,S-A.png,E-H.png,sS,hH,mask-1.png,mask-3.png,s,1,0.5695069000000785,s,0,0.06573969999999463,0.04924469999991743,0.050473099999862825,0.09932430000003478,0.0989463999999316,0.7519996000000901
RSVPLG03,si,20260409-153032,1.0.2,20260219-152011,818,Experiment,Both,1,Automatic,main,97,20260409-153920,global,global,300,H,S,E,A,H-E.png,S-A.png,hH,sS,mask-3.png,mask-2.png,h,1,0.5620567999999366,s,1,0.004571299999952316,0.04991700000005039,0.05018389999986539,0.10099179999997432,0.10008609999999862,0.299004400000058
RSVPLG03,si,20260409-153032,1.0.2,20260219-152011,818,Experiment,Both,1,Automatic,main,98,20260409-153925,global,local,750,S,H,E,E,S-E.png,E-H.png,sS,hH,mask-3.png,mask-2.png,h,0,0.8170818999999483,h,1,0.11350040000002082,0.05118189999984679,0.0458810000000085,0.1008408000000145,0.09764350000000377,0.7556941000000279
RSVPLG03,si,20260409-153032,1.0.2,20260219-152011,818,Experiment,Both,1,Automatic,main,99,20260409-153930,global,global,750,S,S,E,A,S-E.png,S-A.png,sS,sS,mask-4.png,mask-2.png,h,0,0.5473746000000119,s,1,0.8571873999999298,0.050772600000073,0.05062320000001819,0.10071190000007846,0.10141790000011497,0.7517978999999286
RSVPLG03,si,20260409-153032,1.0.2,20260219-152011,818,Experiment,Both,1,Automatic,main,100,20260409-153935,local,global,750,S,S,A,E,A-S.png,S-E.png,sS,sS,mask-4.png,mask-2.png,s,1,0.6730018999999174,h,0,0.023343299999851297,0.05080279999992854,0.048783399999820176,0.10037309999984245,0.09868839999990087,0.752614900000026
RSVPLG03,si,20260409-154028,1.0.2,20260219-152011,818,Experiment,Both,1,Automatic,warmup,1,20260409-154055,global,global,300,H,H,A,A,H-A.png,H-A.png,hH,hH,mask-1.png,mask-2.png,h,1,0.6706790000000638,h,1,0.07253229999992072,0.049591399999826535,0.04873989999987316,0.09787549999987277,0.09924630000000434,0.29780159999995703
RSVPLG03,si,20260409-154028,1.0.2,20260219-152011,818,Experiment,Both,1,Automatic,warmup,2,20260409-154100,local,global,750,S,H,A,A,A-S.png,H-A.png,sS,hH,mask-3.png,mask-1.png,s,1,0.5400981999998749,h,1,0.040775300000177594,0.049850999999989654,0.04922479999981988,0.10086709999995946,0.09918439999978546,0.7481245000001309
RSVPLG03,si,20260409-154028,1.0.2,20260219-152011,818,Experiment,Both,1,Automatic,warmup,3,20260409-154104,local,local,750,H,S,E,A,E-H.png,A-S.png,hH,sS,mask-4.png,mask-2.png,h,1,0.4636739000000034,s,1,0.07482270000014069,0.04916230000003452,0.05073109999989356,0.09884600000009414,0.0994869999999537,0.7475984000000153
RSVPLG03,si,20260409-154028,1.0.2,20260219-152011,818,Experiment,Both,1,Automatic,warmup,4,20260409-154109,local,local,300,H,S,A,E,A-H.png,E-S.png,hH,sS,mask-1.png,mask-4.png,h,1,0.5521581999998944,s,1,0.09012120000011237,0.04957680000006803,0.050037400000064736,0.09928489999992962,0.10092870000016774,0.2982039999999415
RSVPLG03,si,20260409-154028,1.0.2,20260219-152011,818,Experiment,Both,1,Automatic,main,5,20260409-154114,global,global,300,S,S,A,A,S-A.png,S-A.png,sS,sS,mask-3.png,mask-2.png,s,1,0.5499963999998272,s,1,0.09057260000008682,0.049998299999970186,0.04822590000003402,0.09902240000019447,0.09905939999998736,0.2992713000001004
RSVPLG03,si,20260409-154028,1.0.2,20260219-152011,818,Experiment,Both,1,Automatic,main,6,20260409-154118,local,global,300,S,H,E,E,E-S.png,H-E.png,sS,hH,mask-4.png,mask-4.png,s,1,0.5630333000001428,h,1,0.09744980000004944,0.04815140000005158,0.04885219999982837,0.09934950000001663,0.09985789999996086,0.29927120000002105
RSVPLG03,si,20260409-154028,1.0.2,20260219-152011,818,Experiment,Both,1,Automatic,main,7,20260409-154122,global,global,750,H,H,A,E,H-A.png,H-E.png,hH,hH,mask-4.png,mask-3.png,h,1,0.6298452999999427,h,1,0.09543359999997847,0.049021799999991345,0.0513823000001139,0.09886180000012246,0.09863730000006399,0.7473101000000497
RSVPLG03,si,20260409-154028,1.0.2,20260219-152011,818,Experiment,Both,1,Automatic,main,8,20260409-154127,local,global,750,H,H,E,E,E-H.png,H-E.png,hH,hH,mask-2.png,mask-3.png,h,1,0.5934906999998475,h,1,0.09513670000001184,0.048860199999808174,0.048861700000088604,0.09813499999995656,0.09886970000002293,0.7481160999998338
RSVPLG03,si,20260409-154028,1.0.2,20260219-152011,818,Experiment,Both,1,Automatic,main,9,20260409-154132,local,local,300,H,H,A,A,A-H.png,A-H.png,hH,hH,mask-1.png,mask-2.png,h,1,0.626443499999823,h,1,0.0902950999998211,0.049518499999976484,0.05028900000002068,0.09924309999996694,0.09954450000009274,0.2978456999999253
RSVPLG03,si,20260409-154028,1.0.2,20260219-152011,818,Experiment,Both,1,Automatic,main,10,20260409-154136,global,global,300,S,S,E,A,S-E.png,S-A.png,sS,sS,mask-2.png,mask-1.png,s,1,0.6613971000001584,s,1,0.07324660000017502,0.049157100000002174,0.05058209999992869,0.10008900000002541,0.09823780000010629,0.2995456999999533
RSVPLG03,si,20260409-154028,1.0.2,20260219-152011,818,Experiment,Both,1,Automatic,main,11,20260409-154141,local,local,750,H,S,A,E,A-H.png,E-S.png,hH,sS,mask-2.png,mask-3.png,s,0,2.690613199999916,h,0,0.009735799999816663,0.04923630000007506,0.04836520000003475,0.09938810000016929,0.09925990000010643,0.7480628000000706
RSVPLG03,si,20260409-154028,1.0.2,20260219-152011,818,Experiment,Both,1,Automatic,main,12,20260409-154147,global,local,300,S,S,A,E,S-A.png,E-S.png,sS,sS,mask-1.png,mask-4.png,h,0,0.6891656000000239,s,1,1.1695268000000851,0.04964240000003883,0.04905559999997422,0.09996270000010554,0.09904529999994338,0.30064690000017436
RSVPLG03,si,20260409-154028,1.0.2,20260219-152011,818,Experiment,Both,1,Automatic,main,13,20260409-154153,global,local,750,H,S,E,A,H-E.png,A-S.png,hH,sS,mask-3.png,mask-4.png,h,1,1.3640176000001247,s,1,0.08113479999997253,0.04948859999990418,0.04968330000019705,0.09966289999988476,0.09935140000015963,0.7467764999998963
RSVPLG03,si,20260409-154028,1.0.2,20260219-152011,818,Experiment,Both,1,Automatic,main,14,20260409-154158,global,global,300,H,H,A,A,H-A.png,H-A.png,hH,hH,mask-1.png,mask-2.png,h,1,2.3617134000000988,s,0,0.4252277000000504,0.048417999999855965,0.05008100000009108,0.0991191999999046,0.09996530000012172,0.2976942999998755
RSVPLG03,si,20260409-154028,1.0.2,20260219-152011,818,Experiment,Both,1,Automatic,main,15,20260409-154205,local,local,300,S,S,E,E,E-S.png,E-S.png,sS,sS,mask-3.png,mask-1.png,s,1,1.4663527999998678,s,1,0.12156690000006165,0.0496906000000763,0.04965470000001915,0.09992560000000594,0.09991050000007817,0.2991428000000269
RSVPLG03,si,20260409-154028,1.0.2,20260219-152011,818,Experiment,Both,1,Automatic,main,16,20260409-154210,global,global,750,H,S,A,E,H-A.png,S-E.png,hH,sS,mask-4.png,mask-2.png,h,1,0.9455476000000544,s,1,0.01874299999985851,0.04869149999990441,0.04994029999988925,0.0984121999999843,0.09899209999980485,0.7471797000000606
RSVPLG03,si,20260409-154028,1.0.2,20260219-152011,818,Experiment,Both,1,Automatic,main,17,20260409-154215,local,global,750,H,H,A,E,A-H.png,H-E.png,hH,hH,mask-3.png,mask-2.png,h,1,0.7992217999999411,s,0,0.003831700000091587,0.04960819999996602,0.05002820000004249,0.1008911999999782,0.1000011999999515,0.7490823000000546
RSVPLG03,si,20260409-154028,1.0.2,20260219-152011,818,Experiment,Both,1,Automatic,main,18,20260409-154220,global,global,750,S,H,A,E,S-A.png,H-E.png,sS,hH,mask-2.png,mask-2.png,s,1,0.6725430000001325,h,1,0.6891680000001088,0.050653499999953056,0.04936940000015966,0.09977700000013101,0.09809430000018438,0.7494521999999506
RSVPLG03,si,20260409-154028,1.0.2,20260219-152011,818,Experiment,Both,1,Automatic,main,19,20260409-154226,local,local,750,S,H,E,A,E-S.png,A-H.png,sS,hH,mask-1.png,mask-1.png,s,1,1.0669946000000436,h,1,0.17223349999994753,0.04858149999995476,0.049085399999967194,0.0995700000000852,0.10088969999992514,0.7465460000000803
RSVPLG03,si,20260409-154028,1.0.2,20260219-152011,818,Experiment,Both,1,Automatic,main,20,20260409-154231,global,global,750,H,H,E,E,H-E.png,H-E.png,hH,hH,mask-4.png,mask-4.png,h,1,0.8150958000001083,s,0,0.0741769999999633,0.04947660000016185,0.05098380000003999,0.09999100000004546,0.10067679999997381,0.7479550000000472
RSVPLG03,si,20260409-154028,1.0.2,20260219-152011,818,Experiment,Both,1,Automatic,main,21,20260409-154236,local,local,750,S,H,A,E,A-S.png,E-H.png,sS,hH,mask-3.png,mask-1.png,s,1,1.2732974999998987,h,1,0.20605079999995723,0.05083790000003319,0.04822639999997591,0.10030230000006668,0.09727629999997589,0.7503489000000627
RSVPLG03,si,20260409-154028,1.0.2,20260219-152011,818,Experiment,Both,1,Automatic,main,22,20260409-154242,local,global,300,S,H,E,E,E-S.png,H-E.png,sS,hH,mask-4.png,mask-2.png,s,1,1.298536600000034,s,0,0.12174959999993007,0.05060939999998482,0.0503783999999996,0.10010680000004868,0.10068989999990663,0.29914910000002237
RSVPLG03,si,20260409-154028,1.0.2,20260219-152011,818,Experiment,Both,1,Automatic,main,23,20260409-154247,local,global,300,S,S,A,E,A-S.png,S-E.png,sS,sS,mask-1.png,mask-1.png,s,1,0.5426056000001154,h,0,0.12786269999992328,0.05017079999993257,0.049619800000073155,0.1007288000000699,0.1006884999999329,0.29936610000004293
RSVPLG03,si,20260409-154028,1.0.2,20260219-152011,818,Experiment,Both,1,Automatic,main,24,20260409-154252,local,local,750,S,H,A,A,A-S.png,A-H.png,sS,hH,mask-1.png,mask-2.png,s,1,0.28240790000018023,h,1,0.7118743999999424,0.050224500000012995,0.048663299999816445,0.09905370000001312,0.09957039999994777,0.749022800000148
RSVPLG03,si,20260409-154028,1.0.2,20260219-152011,818,Experiment,Both,1,Automatic,main,25,20260409-154257,global,local,750,H,H,E,A,H-E.png,A-H.png,hH,hH,mask-4.png,mask-2.png,h,1,0.341180599999916,h,1,0.08276530000011917,0.05107090000001335,0.04897080000000642,0.09999339999990298,0.09825799999998708,0.7492084000000432
RSVPLG03,si,20260409-154028,1.0.2,20260219-152011,818,Experiment,Both,1,Automatic,main,26,20260409-154313,local,global,750,H,H,A,E,A-H.png,H-E.png,hH,hH,mask-3.png,mask-2.png,h,1,0.4655680000000757,h,1,0.10625029999982871,0.049013100000138365,0.049063799999885305,0.09900980000020354,0.09819869999978437,0.7490223000002061
RSVPLG03,si,20260409-154028,1.0.2,20260219-152011,818,Experiment,Both,1,Automatic,main,27,20260409-154317,local,local,300,H,S,E,E,E-H.png,E-S.png,hH,sS,mask-1.png,mask-2.png,h,1,0.8088916000001518,s,1,0.0658555999998498,0.04873930000007931,0.04966080000008333,0.09980360000008659,0.10362269999995988,0.2988546999999926
RSVPLG03,si,20260409-154028,1.0.2,20260219-152011,818,Experiment,Both,1,Automatic,main,28,20260409-154322,local,global,750,S,H,E,E,E-S.png,H-E.png,sS,hH,mask-3.png,mask-3.png,s,1,0.48195799999984956,h,1,0.2165213999999196,0.04894660000013573,0.05005000000005566,0.09852430000000822,0.09861270000010336,0.7474899999999707
RSVPLG03,si,20260409-154028,1.0.2,20260219-152011,818,Experiment,Both,1,Automatic,main,29,20260409-154327,local,local,750,S,H,E,E,E-S.png,E-H.png,sS,hH,mask-1.png,mask-2.png,s,1,0.48609190000001945,h,1,0.21714010000005146,0.04985809999993762,0.05095789999995759,0.09890900000004876,0.0994685999999092,0.7477509000000282
RSVPLG03,si,20260409-154028,1.0.2,20260219-152011,818,Experiment,Both,1,Automatic,main,30,20260409-154332,local,local,750,S,H,A,A,A-S.png,A-H.png,sS,hH,mask-4.png,mask-3.png,h,0,0.640167799999972,h,1,0.08888320000005479,0.05046800000013718,0.048906100000067454,0.10014210000008461,0.09921770000005381,0.7484744000000774
RSVPLG03,si,20260409-154028,1.0.2,20260219-152011,818,Experiment,Both,1,Automatic,main,31,20260409-154337,global,global,750,S,S,E,A,S-E.png,S-A.png,sS,sS,mask-2.png,mask-1.png,s,1,0.4641898999998375,s,1,0.11361959999999272,0.05008249999991676,0.05059179999989283,0.10170949999996992,0.09985229999983858,0.7484411000000364
RSVPLG03,si,20260409-154028,1.0.2,20260219-152011,818,Experiment,Both,1,Automatic,main,32,20260409-154341,local,global,300,H,S,E,E,E-H.png,S-E.png,hH,sS,mask-4.png,mask-3.png,h,1,0.9004400000001169,h,0,0.08931480000001102,0.04851480000002084,0.048974100000123144,0.09701719999998204,0.09906160000014097,0.2973397999999179
RSVPLG03,si,20260409-154028,1.0.2,20260219-152011,818,Experiment,Both,1,Automatic,main,33,20260409-154346,local,local,750,H,H,E,E,E-H.png,E-H.png,hH,hH,mask-3.png,mask-3.png,h,1,0.5460026999999172,h,1,0.08880189999990762,0.051131500000110464,0.048876299999847106,0.09907530000009501,0.09796879999998964,0.7490219000001161
RSVPLG03,si,20260409-154028,1.0.2,20260219-152011,818,Experiment,Both,1,Automatic,main,34,20260409-154351,global,global,300,H,S,A,E,H-A.png,S-E.png,hH,sS,mask-3.png,mask-2.png,h,1,0.5999879999999393,s,1,0.08900180000000546,0.050031700000090495,0.05092919999992773,0.09978650000016387,0.10094029999982013,0.29881220000015674
RSVPLG03,si,20260409-154028,1.0.2,20260219-152011,818,Experiment,Both,1,Automatic,main,35,20260409-154355,global,global,750,S,H,E,A,S-E.png,H-A.png,sS,hH,mask-2.png,mask-1.png,s,1,0.7589672999999948,s,0,0.138205699999844,0.05016399999999521,0.050138599999854705,0.10016569999993408,0.09856909999984964,0.7482502000000295
RSVPLG03,si,20260409-154028,1.0.2,20260219-152011,818,Experiment,Both,1,Automatic,main,36,20260409-154400,global,global,300,H,H,E,A,H-E.png,H-A.png,hH,hH,mask-4.png,mask-4.png,h,1,0.5107190999999602,h,1,0.09033649999992122,0.04953120000004674,0.048809500000061234,0.09858759999997346,0.09993150000013884,0.29878659999985757
RSVPLG03,si,20260409-154028,1.0.2,20260219-152011,818,Experiment,Both,1,Automatic,main,37,20260409-154404,local,local,750,H,H,A,E,A-H.png,E-H.png,hH,hH,mask-2.png,mask-1.png,h,1,0.5453033999999661,h,1,0.09739560000002712,0.04855160000010983,0.049767399999836925,0.10008900000002541,0.09791709999990417,0.7485461000001123
RSVPLG03,si,20260409-154028,1.0.2,20260219-152011,818,Experiment,Both,1,Automatic,main,38,20260409-154409,global,local,300,H,S,E,E,H-E.png,E-S.png,hH,sS,mask-2.png,mask-2.png,h,1,0.42753510000011374,h,0,0.07391560000019126,0.04909840000004806,0.049074000000018714,0.09976929999993445,0.09923650000018824,0.29914609999991626
RSVPLG03,si,20260409-154028,1.0.2,20260219-152011,818,Experiment,Both,1,Automatic,main,39,20260409-154413,local,global,750,S,H,A,A,A-S.png,H-A.png,sS,hH,mask-3.png,mask-2.png,s,1,0.48482899999999063,h,1,0.032902500000091095,0.048404899999923146,0.05000900000004549,0.09982229999991432,0.10036300000001575,0.7462966999999026
RSVPLG03,si,20260409-154028,1.0.2,20260219-152011,818,Experiment,Both,1,Automatic,main,40,20260409-154418,global,local,750,H,H,E,A,H-E.png,A-H.png,hH,hH,mask-1.png,mask-4.png,h,1,0.6493542000000616,h,1,0.07412350000004153,0.051371899999821835,0.04988200000002507,0.10115479999990384,0.1000590999999531,0.7480390999999145
RSVPLG03,si,20260409-154028,1.0.2,20260219-152011,818,Experiment,Both,1,Automatic,main,41,20260409-154422,local,local,300,H,S,A,E,A-H.png,E-S.png,hH,sS,mask-1.png,mask-2.png,s,0,0.4630381000001762,h,0,0.07204719999981535,0.04997449999996206,0.048743800000011106,0.09957200000008015,0.09874940000008792,0.30027799999993476
RSVPLG03,si,20260409-154028,1.0.2,20260219-152011,818,Experiment,Both,1,Automatic,main,42,20260409-154427,global,global,750,H,H,E,A,H-E.png,H-A.png,hH,hH,mask-1.png,mask-2.png,h,1,0.5841605000000527,h,1,0.08095769999999902,0.0510330999998132,0.04881599999998798,0.09995089999983975,0.09855919999995422,0.7489886999999271
RSVPLG03,si,20260409-154028,1.0.2,20260219-152011,818,Experiment,Both,1,Automatic,main,43,20260409-154431,local,local,750,H,S,E,A,E-H.png,A-S.png,hH,sS,mask-1.png,mask-3.png,h,1,0.5471792999999252,h,0,0.08864599999992606,0.04977710000002844,0.050557400000116104,0.10044440000001487,0.09967980000010357,0.7492589999999382
RSVPLG03,si,20260409-154028,1.0.2,20260219-152011,818,Experiment,Both,1,Automatic,main,44,20260409-154436,global,local,750,S,H,A,E,S-A.png,E-H.png,sS,hH,mask-2.png,mask-1.png,s,1,0.4757076999999299,s,0,0.09687140000005456,0.04863470000009329,0.05122099999994134,0.09870300000011412,0.10003179999989698,0.7470233000001372
RSVPLG03,si,20260409-154028,1.0.2,20260219-152011,818,Experiment,Both,1,Automatic,main,45,20260409-154441,global,local,750,S,S,A,E,S-A.png,E-S.png,sS,sS,mask-4.png,mask-4.png,s,1,0.3782178000001295,s,1,0.13862640000002102,0.04930819999981395,0.05041710000000421,0.09891539999989618,0.10101339999982883,0.7465409999999792
RSVPLG03,si,20260409-154028,1.0.2,20260219-152011,818,Experiment,Both,1,Automatic,main,46,20260409-154445,local,local,300,H,H,E,E,E-H.png,E-H.png,hH,hH,mask-2.png,mask-1.png,s,0,1.2366101000000072,h,1,1.396680300000071,0.05212060000008023,0.05029060000015306,0.1009647999999288,0.1002941000001556,0.3001575999999204
RSVPLG03,si,20260409-154028,1.0.2,20260219-152011,818,Experiment,Both,1,Automatic,main,47,20260409-154450,global,global,750,H,S,A,A,H-A.png,S-A.png,hH,sS,mask-1.png,mask-2.png,h,1,1.4426932000001216,s,1,0.05788280000001578,0.048868400000174006,0.05118240000001606,0.09817120000002433,0.100527399999919,0.7459327000001394
RSVPLG03,si,20260409-154028,1.0.2,20260219-152011,818,Experiment,Both,1,Automatic,main,48,20260409-154456,global,global,300,H,S,A,A,H-A.png,S-A.png,hH,sS,mask-2.png,mask-3.png,h,1,0.5703262000001814,s,1,0.8479707999999846,0.04939009999998234,0.05110839999997552,0.1004937999998674,0.10051999999996042,0.29833910000002106
RSVPLG03,si,20260409-154028,1.0.2,20260219-152011,818,Experiment,Both,1,Automatic,main,49,20260409-154501,global,local,750,H,H,E,A,H-E.png,A-H.png,hH,hH,mask-4.png,mask-4.png,h,1,0.5878169000000071,h,1,0.08165110000004461,0.04983930000003056,0.04898189999994429,0.10002979999990202,0.09896410000010292,0.7477037999999538
RSVPLG03,si,20260409-154028,1.0.2,20260219-152011,818,Experiment,Both,1,Automatic,main,50,20260409-154506,global,local,300,H,S,E,A,H-E.png,A-S.png,hH,sS,mask-4.png,mask-2.png,h,1,0.8066112999999859,h,0,0.07224449999989702,0.05124860000000808,0.05142030000001796,0.10013520000006793,0.1000602000001436,0.2990085999999792
RSVPLG03,si,20260409-154028,1.0.2,20260219-152011,818,Experiment,Both,1,Automatic,main,51,20260409-154514,local,global,300,S,H,A,E,A-S.png,H-E.png,sS,hH,mask-1.png,mask-1.png,s,1,0.5802300999998806,h,1,0.12064109999982975,0.049799800000073446,0.05016449999993711,0.09904809999989084,0.10112230000004274,0.2987623999999869
RSVPLG03,si,20260409-154028,1.0.2,20260219-152011,818,Experiment,Both,1,Automatic,main,52,20260409-154519,global,local,300,H,S,E,A,H-E.png,A-S.png,hH,sS,mask-2.png,mask-2.png,h,1,0.43706390000011197,s,1,0.08016160000011041,0.05000190000009752,0.04870770000002267,0.09898380000004181,0.0989007999999103,0.299943500000154
RSVPLG03,si,20260409-154028,1.0.2,20260219-152011,818,Experiment,Both,1,Automatic,main,53,20260409-154523,local,local,750,H,S,A,E,A-H.png,E-S.png,hH,sS,mask-3.png,mask-4.png,s,0,0.6717823999999837,h,0,0.007888800000046103,0.04818109999996523,0.050658899999916684,0.09816649999993388,0.09956400000010035,0.7464402999999038
RSVPLG03,si,20260409-154028,1.0.2,20260219-152011,818,Experiment,Both,1,Automatic,main,54,20260409-154528,global,local,750,S,H,A,A,S-A.png,A-H.png,sS,hH,mask-3.png,mask-2.png,s,1,0.46910730000013245,h,1,0.6327153999998245,0.047897500000090076,0.05064899999979389,0.09795240000016747,0.099921699999868,0.7452205000001868
RSVPLG03,si,20260409-154028,1.0.2,20260219-152011,818,Experiment,Both,1,Automatic,main,55,20260409-154533,global,global,300,H,H,E,E,H-E.png,H-E.png,hH,hH,mask-4.png,mask-2.png,h,1,0.653469800000039,h,1,0.08122880000018995,0.04993689999992057,0.048874399999931484,0.09972340000012991,0.09974710000005871,0.3001706000000013
RSVPLG03,si,20260409-154028,1.0.2,20260219-152011,818,Experiment,Both,1,Automatic,main,56,20260409-154537,local,global,750,S,S,A,A,A-S.png,S-A.png,sS,sS,mask-2.png,mask-1.png,h,0,1.211258300000054,s,1,0.05737750000002961,0.049505700000054276,0.05055580000021109,0.10058440000011615,0.1007488000000194,0.7479049999999461
RSVPLG03,si,20260409-154028,1.0.2,20260219-152011,818,Experiment,Both,1,Automatic,main,57,20260409-154543,global,local,300,H,H,A,A,H-A.png,A-H.png,hH,hH,mask-2.png,mask-2.png,h,1,0.9501256000000922,h,1,0.05608729999994466,0.0491233000000193,0.04971739999996316,0.09928599999989274,0.09956999999985783,0.29868499999997766
RSVPLG03,si,20260409-154028,1.0.2,20260219-152011,818,Experiment,Both,1,Automatic,main,58,20260409-154547,local,global,300,S,S,A,E,A-S.png,S-E.png,sS,sS,mask-1.png,mask-1.png,s,1,1.2706018999999742,h,0,1.3585926000000654,0.049451200000021345,0.048357500000065556,0.10086040000010144,0.0991910000000189,0.30030340000007527
RSVPLG03,si,20260409-154028,1.0.2,20260219-152011,818,Experiment,Both,1,Automatic,main,59,20260409-154552,local,global,750,H,S,A,E,A-H.png,S-E.png,hH,sS,mask-2.png,mask-3.png,h,1,0.3293979000000036,s,1,0.0897707999999966,0.049994599999990896,0.049550200000112454,0.09982399999989866,0.09844100000009348,0.7485168999999132
RSVPLG03,si,20260409-154028,1.0.2,20260219-152011,818,Experiment,Both,1,Automatic,main,60,20260409-154557,global,global,750,H,S,A,E,H-A.png,S-E.png,hH,sS,mask-2.png,mask-2.png,h,1,0.6452050999998846,s,1,0.13029389999996965,0.04805799999985538,0.05037270000002536,0.09974669999996877,0.0994321000000582,0.7466653999999835
RSVPLG03,si,20260409-154028,1.0.2,20260219-152011,818,Experiment,Both,1,Automatic,main,61,20260409-154602,local,global,300,H,H,E,E,E-H.png,H-E.png,hH,hH,mask-4.png,mask-1.png,s,0,1.5856043999999656,h,1,0.02502619999995659,0.04678820000003725,0.049788100000114355,0.09871509999993577,0.09975250000002234,0.2977237000000059
RSVPLG03,si,20260409-154028,1.0.2,20260219-152011,818,Experiment,Both,1,Automatic,main,62,20260409-154607,global,global,300,S,H,E,E,S-E.png,H-E.png,sS,hH,mask-1.png,mask-1.png,h,0,1.0994215999999142,h,1,0.07491540000000896,0.0504055999999764,0.049062499999990905,0.09953620000010233,0.09839480000005096,0.2998290000000452
RSVPLG03,si,20260409-154028,1.0.2,20260219-152011,818,Experiment,Both,1,Automatic,main,63,20260409-154612,global,local,750,H,S,E,E,H-E.png,E-S.png,hH,sS,mask-4.png,mask-2.png,h,1,2.3996628999998393,s,1,0.8242204000000584,0.049987400000190974,0.050789600000143764,0.09954170000014528,0.10044300000004114,0.7471384000000398
RSVPLG03,si,20260409-154028,1.0.2,20260219-152011,818,Experiment,Both,1,Automatic,main,64,20260409-154619,local,local,750,H,S,E,E,E-H.png,E-S.png,hH,sS,mask-1.png,mask-4.png,h,1,0.39790160000006836,s,1,0.0969943999998577,0.04987230000006093,0.04972520000001168,0.09897590000014134,0.09946239999999307,0.7478152000001046
RSVPLG03,si,20260409-154028,1.0.2,20260219-152011,818,Experiment,Both,1,Automatic,main,65,20260409-154624,global,global,300,S,S,E,E,S-E.png,S-E.png,sS,sS,mask-4.png,mask-2.png,h,0,0.6375031000000035,h,0,0.0756659999999556,0.05257979999987583,0.050203600000031656,0.09902250000004642,0.09903799999983676,0.2982718000000659
RSVPLG03,si,20260409-154028,1.0.2,20260219-152011,818,Experiment,Both,1,Automatic,main,66,20260409-154628,local,local,300,H,S,E,E,E-H.png,E-S.png,hH,sS,mask-1.png,mask-3.png,h,1,0.707989199999929,s,1,0.5135234000001674,0.04908599999998842,0.05056940000008581,0.09900210000000698,0.09975989999998092,0.2979915999999321
RSVPLG03,si,20260409-154028,1.0.2,20260219-152011,818,Experiment,Both,1,Automatic,main,67,20260409-154633,local,global,300,S,S,A,A,A-S.png,S-A.png,sS,sS,mask-2.png,mask-2.png,s,1,0.6375227000000905,h,0,0.45794279999995524,0.049018400000022666,0.049776600000086546,0.09907210000005762,0.10100959999999759,0.29803850000007515
RSVPLG03,si,20260409-154028,1.0.2,20260219-152011,818,Experiment,Both,1,Automatic,main,68,20260409-154638,global,global,300,H,S,E,A,H-E.png,S-A.png,hH,sS,mask-2.png,mask-1.png,h,1,1.4126578000000336,s,1,0.20008469999993395,0.05089179999981752,0.0484268999998676,0.10118360000001303,0.09900949999996556,0.3000211999999465
RSVPLG03,si,20260409-154028,1.0.2,20260219-152011,818,Experiment,Both,1,Automatic,main,69,20260409-154643,global,local,300,S,H,E,E,S-E.png,E-H.png,sS,hH,mask-4.png,mask-1.png,s,1,0.6408491000001959,h,1,0.08866320000015548,0.049829699999918375,0.04989149999983056,0.09887660000003962,0.09980069999983243,0.29769179999993867
RSVPLG03,si,20260409-154028,1.0.2,20260219-152011,818,Experiment,Both,1,Automatic,main,70,20260409-154648,local,local,300,S,H,E,A,E-S.png,A-H.png,sS,hH,mask-3.png,mask-3.png,s,1,0.6907295000000886,h,1,0.009639099999731116,0.04982749999999214,0.050513499999851774,0.09998940000014045,0.10032499999988431,0.29837210000005143
RSVPLG03,si,20260409-154028,1.0.2,20260219-152011,818,Experiment,Both,1,Automatic,main,71,20260409-154652,local,global,750,S,H,E,E,E-S.png,H-E.png,sS,hH,mask-3.png,mask-2.png,s,1,0.6195347000002585,h,1,0.21854239999993297,0.04895459999988816,0.04981950000001234,0.09905209999988074,0.09999900000002526,0.7467892999998185
RSVPLG03,si,20260409-154028,1.0.2,20260219-152011,818,Experiment,Both,1,Automatic,main,72,20260409-154657,global,local,300,H,H,A,E,H-A.png,E-H.png,hH,hH,mask-2.png,mask-3.png,h,1,0.44303990000025806,h,1,0.10427900000013324,0.05094069999995554,0.0503908999999112,0.0998208999999406,0.10027360000003682,0.29847339999969336
RSVPLG03,si,20260409-154028,1.0.2,20260219-152011,818,Experiment,Both,1,Automatic,main,73,20260409-154701,local,global,750,H,S,E,A,E-H.png,S-A.png,hH,sS,mask-4.png,mask-1.png,h,1,0.3617426999999225,s,1,0.04956679999986591,0.04816690000006929,0.05021040000019639,0.09700590000011289,0.09976700000015626,0.7457506000000649
RSVPLG03,si,20260409-154028,1.0.2,20260219-152011,818,Experiment,Both,1,Automatic,main,74,20260409-154706,global,local,750,S,S,E,E,S-E.png,E-S.png,sS,sS,mask-2.png,mask-1.png,s,1,1.5907018000002608,s,1,0.12238290000004781,0.04841450000003533,0.05048299999998562,0.0972977000001265,0.10088790000008885,0.7461643000001459
RSVPLG03,si,20260409-154028,1.0.2,20260219-152011,818,Experiment,Both,1,Automatic,main,75,20260409-154712,global,local,300,S,H,A,E,S-A.png,E-H.png,sS,hH,mask-3.png,mask-1.png,s,1,0.5954105000000709,h,1,0.0351543000001584,0.050390800000059244,0.05114499999990585,0.10007260000020324,0.10057609999967099,0.29823520000036297
RSVPLG03,si,20260409-154028,1.0.2,20260219-152011,818,Experiment,Both,1,Automatic,main,76,20260409-154717,global,local,300,H,S,A,A,H-A.png,A-S.png,hH,sS,mask-4.png,mask-3.png,h,1,0.8625302000000374,s,1,0.9827226999996128,0.04963319999978921,0.05093459999989136,0.09940460000007079,0.10048209999968094,0.29861250000021755
RSVPLG03,si,20260409-154028,1.0.2,20260219-152011,818,Experiment,Both,1,Automatic,main,77,20260409-154722,local,global,750,S,H,E,E,E-S.png,H-E.png,sS,hH,mask-2.png,mask-2.png,s,1,0.7438200000001416,h,1,0.13781499999959124,0.04824589999998352,0.0514631000000918,0.09972870000001421,0.09883160000026692,0.7466157999997449
RSVPLG03,si,20260409-154028,1.0.2,20260219-152011,818,Experiment,Both,1,Automatic,main,78,20260409-154727,local,local,300,H,H,E,E,E-H.png,E-H.png,hH,hH,mask-3.png,mask-4.png,h,1,0.712285300000076,h,1,0.08184059999985038,0.04918969999971523,0.04859749999968699,0.09874419999960082,0.09659059999967212,0.3004138999999668
RSVPLG03,si,20260409-154028,1.0.2,20260219-152011,818,Experiment,Both,1,Automatic,main,79,20260409-154731,local,local,300,H,H,A,E,A-H.png,E-H.png,hH,hH,mask-4.png,mask-1.png,h,1,0.5405918000001293,h,1,0.07301129999996192,0.05068429999982982,0.0490935000002537,0.10056080000003931,0.0992722999999387,0.29895529999976134
RSVPLG03,si,20260409-154028,1.0.2,20260219-152011,818,Experiment,Both,1,Automatic,main,80,20260409-154735,global,global,300,S,S,A,A,S-A.png,S-A.png,sS,sS,mask-1.png,mask-1.png,h,0,0.6924443000002611,h,0,0.09770839999964664,0.049438699999882374,0.04866429999992761,0.09923079999998663,0.09868959999994331,0.29998040000009496
RSVPLG03,si,20260409-154028,1.0.2,20260219-152011,818,Experiment,Both,1,Automatic,main,81,20260409-154740,global,local,300,H,H,A,A,H-A.png,A-H.png,hH,hH,mask-3.png,mask-1.png,s,0,1.3139140000002953,h,1,0.025365599999986443,0.04920490000040445,0.04986090000011245,0.09898200000043289,0.09916320000002088,0.29896080000025904
RSVPLG03,si,20260409-154028,1.0.2,20260219-152011,818,Experiment,Both,1,Automatic,main,82,20260409-154745,local,local,300,S,H,A,A,A-S.png,A-H.png,sS,hH,mask-1.png,mask-2.png,h,0,0.7076907000000574,h,1,0.07163700000000972,0.04907419999972262,0.051141699999789125,0.09917109999969398,0.09946630000013101,0.29864309999993566
RSVPLG03,si,20260409-154028,1.0.2,20260219-152011,818,Experiment,Both,1,Automatic,main,83,20260409-154749,local,global,300,S,S,A,A,A-S.png,S-A.png,sS,sS,mask-1.png,mask-4.png,s,1,0.7325629000001754,h,0,0.6554767000002357,0.05101630000035584,0.05031879999978628,0.10071430000016335,0.09827529999984108,0.30011210000020583
RSVPLG03,si,20260409-154028,1.0.2,20260219-152011,818,Experiment,Both,1,Automatic,main,84,20260409-154754,global,local,750,H,H,E,A,H-E.png,A-H.png,hH,hH,mask-1.png,mask-3.png,h,1,1.1618048000000272,h,1,0.07175330000018221,0.04610060000004523,0.049443800000062765,0.09711940000033792,0.10004750000007334,0.7451882000000296
RSVPLG03,si,20260409-154028,1.0.2,20260219-152011,818,Experiment,Both,1,Automatic,main,85,20260409-154800,global,local,300,S,H,E,A,S-E.png,A-H.png,sS,hH,mask-4.png,mask-4.png,s,1,1.0697210000002997,h,1,0.10496199999988676,0.04985110000006898,0.04911790000005567,0.09997589999966294,0.09907470000007379,0.2994128999998793
RSVPLG03,si,20260409-154028,1.0.2,20260219-152011,818,Experiment,Both,1,Automatic,main,86,20260409-154805,global,global,300,H,S,E,A,H-E.png,S-A.png,hH,sS,mask-2.png,mask-2.png,h,1,0.7757652000000235,s,1,0.12186770000016622,0.04853800000000774,0.05066850000002887,0.09886439999991126,0.10133649999988847,0.2980140999998184
RSVPLG03,si,20260409-154028,1.0.2,20260219-152011,818,Experiment,Both,1,Automatic,main,87,20260409-154809,local,global,750,S,H,E,E,E-S.png,H-E.png,sS,hH,mask-4.png,mask-1.png,s,1,0.946458899999925,h,1,0.09747070000003077,0.050096400000256835,0.05017839999982243,0.0996780000000399,0.10093760000017937,0.7476537000002281
RSVPLG03,si,20260409-154028,1.0.2,20260219-152011,818,Experiment,Both,1,Automatic,main,88,20260409-154814,local,local,750,S,H,E,A,E-S.png,A-H.png,sS,hH,mask-2.png,mask-2.png,h,0,0.7371329000002333,h,1,0.0737610000001041,0.0476832999997896,0.05014690000007249,0.09818379999978788,0.1008801000002677,0.746126799999729
RSVPLG03,si,20260409-154028,1.0.2,20260219-152011,818,Experiment,Both,1,Automatic,main,89,20260409-154819,local,local,300,H,S,E,A,E-H.png,A-S.png,hH,sS,mask-1.png,mask-2.png,h,1,1.055411699999695,s,1,0.010300100000222301,0.04887600000029124,0.04961039999989225,0.10016800000039439,0.10030809999989287,0.29933740000024045
RSVPLG03,si,20260409-154028,1.0.2,20260219-152011,818,Experiment,Both,1,Automatic,main,90,20260409-154824,global,local,750,H,S,E,A,H-E.png,A-S.png,hH,sS,mask-2.png,mask-4.png,h,1,1.0653517999999167,s,1,1.185080199999902,0.04963110000016968,0.0500993999999082,0.09967210000013438,0.09975279999980557,0.7461040000002868
RSVPLG03,si,20260409-154028,1.0.2,20260219-152011,818,Experiment,Both,1,Automatic,main,91,20260409-154829,local,global,300,S,S,A,A,A-S.png,S-A.png,sS,sS,mask-4.png,mask-2.png,h,0,1.2238852999998926,s,1,0.3929520000001503,0.04993209999975079,0.05047800000011193,0.10036319999971965,0.10010580000016489,0.2988327999996727
RSVPLG03,si,20260409-154028,1.0.2,20260219-152011,818,Experiment,Both,1,Automatic,main,92,20260409-154835,global,global,750,H,H,E,E,H-E.png,H-E.png,hH,hH,mask-1.png,mask-3.png,h,1,1.3291661000002932,s,0,0.025960699999814096,0.04826739999998608,0.05014600000004066,0.09743539999999484,0.09992370000009032,0.7453845000000001
RSVPLG03,si,20260409-154028,1.0.2,20260219-152011,818,Experiment,Both,1,Automatic,main,93,20260409-154840,global,local,300,S,H,A,A,S-A.png,A-H.png,sS,hH,mask-3.png,mask-3.png,h,0,0.5484498999999232,h,1,0.07391240000015387,0.04951279999977487,0.04952959999991435,0.09873539999989589,0.10138499999993655,0.2980293000000529
RSVPLG03,si,20260409-154028,1.0.2,20260219-152011,818,Experiment,Both,1,Automatic,main,94,20260409-154844,local,local,300,H,S,A,E,A-H.png,E-S.png,hH,sS,mask-2.png,mask-4.png,h,1,0.5741877999998906,s,1,0.7025148000002446,0.05052660000001197,0.04959240000016507,0.09972620000007737,0.09906270000010409,0.2994408999998086
RSVPLG03,si,20260409-154028,1.0.2,20260219-152011,818,Experiment,Both,1,Automatic,main,95,20260409-154849,local,global,750,S,S,A,A,A-S.png,S-A.png,sS,sS,mask-4.png,mask-4.png,s,1,0.27840100000003076,h,0,0.025419000000056258,0.05039390000001731,0.05108609999979308,0.09981540000035238,0.09994479999977557,0.7480303000002095
RSVPLG03,si,20260409-154028,1.0.2,20260219-152011,818,Experiment,Both,1,Automatic,main,96,20260409-154853,global,global,750,S,S,A,E,S-A.png,S-E.png,sS,sS,mask-1.png,mask-4.png,s,1,0.33860520000007455,s,1,0.07972530000006373,0.05066690000012386,0.05232339999975011,0.10129730000016934,0.10062239999979283,0.747291099999984
RSVPLG03,si,20260409-154028,1.0.2,20260219-152011,818,Experiment,Both,1,Automatic,main,97,20260409-154858,local,global,300,S,H,A,A,A-S.png,H-A.png,sS,hH,mask-2.png,mask-3.png,s,1,0.505705499999749,h,1,0.04149069999994026,0.05118380000021716,0.04878610000014305,0.10055490000013378,0.09933600000022125,0.29992089999996097
RSVPLG03,si,20260409-154028,1.0.2,20260219-152011,818,Experiment,Both,1,Automatic,main,98,20260409-154902,global,local,750,S,S,A,E,S-A.png,E-S.png,sS,sS,mask-1.png,mask-4.png,s,1,0.2896107999999913,s,1,0.10465960000010455,0.05043909999994867,0.04865890000019135,0.10123139999996056,0.09934259999999995,0.7488657999997486
RSVPLG03,si,20260409-154028,1.0.2,20260219-152011,818,Experiment,Both,1,Automatic,main,99,20260409-154906,global,global,750,S,H,A,A,S-A.png,H-A.png,sS,hH,mask-2.png,mask-1.png,s,1,0.3755854000000909,h,1,0.08219809999991412,0.04741809999995894,0.04954490000000078,0.0984096000001955,0.09962249999989581,0.746016900000086
RSVPLG03,si,20260409-154028,1.0.2,20260219-152011,818,Experiment,Both,1,Automatic,main,100,20260409-154911,local,global,300,H,S,A,A,A-H.png,S-A.png,hH,sS,mask-2.png,mask-2.png,h,1,0.4985426999996889,h,0,0.08279330000004848,0.04889920000005077,0.05023959999971339,0.09870109999974375,0.09929969999984678,0.2982824000000619
