exp,exp_initials,runtime,ver,modtime,sub,blocktype,targets,cuetype,mode,trialtype,trial,trialtime,t1_level,t2_level,t2_lag,t1,t2,distractor1,distractor2,stimfile1,stimfile2,t1_corr,t2_corr,maskfile1,maskfile2,t1_resp,t1_acc,t1_rt,t2_resp,t2_acc,t2_rt,t1_dur,t2_dur,t1mask_soa,t2mask_soa,t1t2_soa
RSVPLG03,si,20260305-151426,1.0.2,20260219-152011,787,Introduction,T1,1,Automatic,main,1,20260305-151527,global,global,750,H,H,E,A,H-E.png,H-A.png,hH,hH,mask-3.png,mask-1.png,h,1,2.644313900003908,none,-5,0,0.09075649999431334,0.09993850000319071,0.19200139999156818,0.20199739999952726,0.7440025999967474
RSVPLG03,si,20260305-151426,1.0.2,20260219-152011,787,Introduction,T1,1,Automatic,main,2,20260305-151534,global,local,750,S,S,A,A,S-A.png,A-S.png,sS,sS,mask-2.png,mask-2.png,s,1,1.0470376999874134,none,-5,0,0.10117159999208525,0.10053009999683127,0.2014785000064876,0.19984560000011697,0.7552619999914896
RSVPLG03,si,20260305-151426,1.0.2,20260219-152011,787,Introduction,T1,1,Automatic,main,3,20260305-151539,local,local,750,H,H,A,A,A-H.png,A-H.png,hH,hH,mask-1.png,mask-3.png,h,1,0.5368757999967784,none,-5,0,0.10137829999439418,0.09807939999154769,0.20002560000284575,0.19937980000395328,0.7559783000033349
RSVPLG03,si,20260305-151426,1.0.2,20260219-152011,787,Introduction,T1,1,Automatic,main,4,20260305-151544,local,local,750,S,H,E,A,E-S.png,A-H.png,sS,hH,mask-3.png,mask-2.png,s,1,0.9188649999850895,none,-5,0,0.10045800000079907,0.10221159999491647,0.20212449997779913,0.2008198999974411,0.7540383999876212
RSVPLG03,si,20260305-151426,1.0.2,20260219-152011,787,Introduction,T1,1,Automatic,main,5,20260305-151549,local,local,750,H,H,E,A,E-H.png,A-H.png,hH,hH,mask-4.png,mask-3.png,h,1,0.8006982000079006,none,-5,0,0.1005730000033509,0.0976960000116378,0.20068069998524152,0.1987370999995619,0.7573105999908876
RSVPLG03,si,20260305-151426,1.0.2,20260219-152011,787,Introduction,T1,1,Automatic,main,6,20260305-151554,global,local,750,H,S,A,E,H-A.png,E-S.png,hH,sS,mask-3.png,mask-3.png,s,0,0.7027266999939457,none,-5,0,0.10013549998984672,0.0996230999880936,0.20024089998332784,0.20071659999666736,0.7545758000051137
RSVPLG03,si,20260305-151426,1.0.2,20260219-152011,787,Introduction,T1,1,Automatic,main,7,20260305-151559,local,global,750,S,H,A,A,A-S.png,H-A.png,sS,hH,mask-4.png,mask-4.png,h,0,0.8628663999843411,none,-5,0,0.10043939997558482,0.1000151000043843,0.20363809997797944,0.20013630000175908,0.75466329997289
RSVPLG03,si,20260305-151426,1.0.2,20260219-152011,787,Introduction,T1,1,Automatic,main,8,20260305-151604,local,global,750,S,S,A,E,A-S.png,S-E.png,sS,sS,mask-2.png,mask-3.png,s,1,1.9042012999998406,none,-5,0,0.09914849998313002,0.1007151999801863,0.2015899999823887,0.20114639998064376,0.7529051000019535
RSVPLG03,si,20260305-151426,1.0.2,20260219-152011,787,Introduction,T1,1,Automatic,main,9,20260305-151610,local,global,750,S,S,E,E,E-S.png,S-E.png,sS,sS,mask-2.png,mask-2.png,s,1,1.4857128000003286,none,-5,0,0.10187099999166094,0.0992234000004828,0.20178169998689555,0.2006905000016559,0.755896099988604
RSVPLG03,si,20260305-151426,1.0.2,20260219-152011,787,Introduction,T1,1,Automatic,main,10,20260305-151616,global,local,750,H,S,E,E,H-E.png,E-S.png,hH,sS,mask-3.png,mask-3.png,h,1,0.590654400002677,none,-5,0,0.09942780001438223,0.102164099982474,0.20074729999760166,0.19928380000055768,0.7547225000162143
RSVPLG03,si,20260305-151426,1.0.2,20260219-152011,787,Introduction,T1,1,Automatic,main,11,20260305-151621,local,global,750,H,S,A,A,A-H.png,S-A.png,hH,sS,mask-1.png,mask-3.png,h,1,0.493024700001115,none,-5,0,0.10137769998982549,0.10003010000218637,0.20017399999778718,0.2010854000109248,0.754384800005937
RSVPLG03,si,20260305-151426,1.0.2,20260219-152011,787,Introduction,T1,1,Automatic,main,12,20260305-151625,global,global,750,H,H,E,E,H-E.png,H-E.png,hH,hH,mask-4.png,mask-2.png,h,1,0.5164050000021234,none,-5,0,0.09979549999115989,0.09808789999806322,0.19994839999708347,0.20038960000965744,0.7550222999998368
RSVPLG03,si,20260305-151426,1.0.2,20260219-152011,787,Introduction,T1,1,Automatic,main,13,20260305-151630,global,global,750,S,S,A,E,S-A.png,S-E.png,sS,sS,mask-1.png,mask-3.png,s,1,0.32952890000888146,none,-5,0,0.09789000000455417,0.10085809999145567,0.19840059999842197,0.20232829998712987,0.7525864999915939
RSVPLG03,si,20260305-151426,1.0.2,20260219-152011,787,Introduction,T1,1,Automatic,main,14,20260305-151635,local,local,750,S,S,E,A,E-S.png,A-S.png,sS,sS,mask-1.png,mask-2.png,s,1,0.9353244999947492,none,-5,0,0.10168469999916852,0.10034840001026168,0.20231140000396408,0.20079919998534024,0.7548504000005778
RSVPLG03,si,20260305-151426,1.0.2,20260219-152011,787,Introduction,T1,1,Automatic,main,15,20260305-151640,global,local,750,H,H,A,A,H-A.png,A-H.png,hH,hH,mask-2.png,mask-4.png,h,1,0.5627267000090797,none,-5,0,0.09977279999293387,0.10053190001053736,0.20073410001350567,0.201538299996173,0.7526027999992948
RSVPLG03,si,20260305-151426,1.0.2,20260219-152011,787,Introduction,T1,1,Automatic,main,16,20260305-151644,global,global,750,S,S,E,A,S-E.png,S-A.png,sS,sS,mask-1.png,mask-1.png,s,1,0.43659490000572987,none,-5,0,0.09862549998797476,0.1018509000132326,0.19956559999263845,0.20095990001573227,0.7524361999821849
RSVPLG03,si,20260305-151718,1.0.2,20260219-152011,787,Practice,T1,1,Automatic,main,1,20260305-151744,global,global,300,H,H,E,A,H-E.png,H-A.png,hH,hH,mask-4.png,mask-2.png,h,1,0.6801352000038605,none,-5,0,0.04517090000445023,0.05010480000055395,0.09567370000877418,0.09883570001693442,0.2966383000020869
RSVPLG03,si,20260305-151718,1.0.2,20260219-152011,787,Practice,T1,1,Automatic,main,2,20260305-151748,local,local,750,S,S,E,A,E-S.png,A-S.png,sS,sS,mask-2.png,mask-4.png,s,1,0.7122458000085317,none,-5,0,0.04941159998998046,0.04988149998825975,0.09935350000159815,0.10015309997834265,0.7499781000078656
RSVPLG03,si,20260305-151718,1.0.2,20260219-152011,787,Practice,T1,1,Automatic,main,3,20260305-151753,local,local,300,S,H,A,A,A-S.png,A-H.png,sS,hH,mask-4.png,mask-1.png,h,0,0.674083599995356,none,-5,0,0.05060129999765195,0.05225760000757873,0.09869750001234934,0.10012000001734123,0.29933159999200143
RSVPLG03,si,20260305-151718,1.0.2,20260219-152011,787,Practice,T1,1,Automatic,main,4,20260305-151757,local,local,750,S,S,E,E,E-S.png,E-S.png,sS,sS,mask-2.png,mask-1.png,s,1,0.41860770000494085,none,-5,0,0.05048840001109056,0.05086970000411384,0.10121829999843612,0.10138279999955557,0.7507857999880798
RSVPLG03,si,20260305-151718,1.0.2,20260219-152011,787,Practice,T1,1,Automatic,main,5,20260305-151801,global,global,750,S,H,E,E,S-E.png,H-E.png,sS,hH,mask-3.png,mask-4.png,s,1,0.5898773000226356,none,-5,0,0.049176500004250556,0.05128400001558475,0.09972359999665059,0.10207350002019666,0.7493216999864671
RSVPLG03,si,20260305-151718,1.0.2,20260219-152011,787,Practice,T1,1,Automatic,main,6,20260305-151806,local,global,300,S,H,A,A,A-S.png,H-A.png,sS,hH,mask-4.png,mask-3.png,h,0,0.931987099989783,none,-5,0,0.05123129999265075,0.05111789997317828,0.10059650000766851,0.1003521999809891,0.29920000000856817
RSVPLG03,si,20260305-151718,1.0.2,20260219-152011,787,Practice,T1,1,Automatic,main,7,20260305-151810,local,local,300,H,H,E,E,E-H.png,E-H.png,hH,hH,mask-3.png,mask-3.png,h,1,1.1200090000056662,none,-5,0,0.04983059997903183,0.04918750000069849,0.10004259998095222,0.09993389999726787,0.3012241999967955
RSVPLG03,si,20260305-151718,1.0.2,20260219-152011,787,Practice,T1,1,Automatic,main,8,20260305-151815,global,local,300,H,S,E,E,H-E.png,E-S.png,hH,sS,mask-4.png,mask-2.png,h,1,0.7030115000088699,none,-5,0,0.04936440000892617,0.04928980002296157,0.09794630002579652,0.09903340000892058,0.3004376000026241
RSVPLG03,si,20260305-151718,1.0.2,20260219-152011,787,Practice,T1,1,Automatic,main,9,20260305-151819,global,local,750,H,H,A,A,H-A.png,A-H.png,hH,hH,mask-3.png,mask-4.png,h,1,0.5625963999773376,none,-5,0,0.04991830000653863,0.05093760002637282,0.10016010000254028,0.09909950001747347,0.7506669999856967
RSVPLG03,si,20260305-151718,1.0.2,20260219-152011,787,Practice,T1,1,Automatic,main,10,20260305-151824,local,global,750,S,H,E,E,E-S.png,H-E.png,sS,hH,mask-4.png,mask-1.png,s,1,0.3740715000021737,none,-5,0,0.05099210000480525,0.05112429999280721,0.10135569999692962,0.1002034000121057,0.7505255999858491
RSVPLG03,si,20260305-151718,1.0.2,20260219-152011,787,Practice,T1,1,Automatic,main,11,20260305-151828,global,local,300,S,H,A,A,S-A.png,A-H.png,sS,hH,mask-2.png,mask-2.png,s,1,1.3617051999899559,none,-5,0,0.04989910000585951,0.04872900000191294,0.09937229999923147,0.09923190000699833,0.3003743999870494
RSVPLG03,si,20260305-151718,1.0.2,20260219-152011,787,Practice,T1,1,Automatic,main,12,20260305-151833,local,global,750,H,S,E,A,E-H.png,S-A.png,hH,sS,mask-2.png,mask-1.png,s,0,0.5824548000236973,none,-5,0,0.05017939998651855,0.04846370001905598,0.10108029999537393,0.10005280000041239,0.7519400999881327
RSVPLG03,si,20260305-151718,1.0.2,20260219-152011,787,Practice,T1,1,Automatic,main,13,20260305-151838,local,global,300,S,S,E,A,E-S.png,S-A.png,sS,sS,mask-3.png,mask-3.png,s,1,0.5383084999921266,none,-5,0,0.0500336000113748,0.0480974999954924,0.09994200000073761,0.09959550001076423,0.3016263000026811
RSVPLG03,si,20260305-151718,1.0.2,20260219-152011,787,Practice,T1,1,Automatic,main,14,20260305-151842,global,local,750,S,H,E,A,S-E.png,A-H.png,sS,hH,mask-4.png,mask-4.png,s,1,0.5630825000116602,none,-5,0,0.050751600007060915,0.05052369998884387,0.10068750000209548,0.1002781999995932,0.7507802000036463
RSVPLG03,si,20260305-151718,1.0.2,20260219-152011,787,Practice,T1,1,Automatic,main,15,20260305-151847,global,global,750,S,H,E,E,S-E.png,H-E.png,sS,hH,mask-4.png,mask-3.png,s,1,0.5622086999937892,none,-5,0,0.04845999999088235,0.04965410000295378,0.09866620000684634,0.1009718999848701,0.7507609000022057
RSVPLG03,si,20260305-151718,1.0.2,20260219-152011,787,Practice,T1,1,Automatic,main,16,20260305-151851,global,global,300,S,S,A,A,S-A.png,S-A.png,sS,sS,mask-3.png,mask-3.png,s,1,0.4585139999981038,none,-5,0,0.04941340000368655,0.051162100018700585,0.09998309999355115,0.1006346000067424,0.2997116999758873
RSVPLG03,si,20260305-151949,1.0.2,20260219-152011,787,Practice,Both,1,Automatic,main,1,20260305-152017,global,local,750,S,S,E,E,S-E.png,E-S.png,sS,sS,mask-1.png,mask-4.png,s,1,0.674636100011412,h,0,0.7510808999941219,0.042477000009967014,0.05114229998434894,0.09410139999818057,0.10105999998631887,0.7429853000212461
RSVPLG03,si,20260305-151949,1.0.2,20260219-152011,787,Practice,Both,1,Automatic,main,2,20260305-152022,local,local,750,S,H,E,A,E-S.png,A-H.png,sS,hH,mask-2.png,mask-4.png,s,1,0.6289613000117242,h,1,0.22990320000099018,0.04965110000921413,0.04950359999202192,0.0988581000128761,0.09849209999083541,0.7504369000089355
RSVPLG03,si,20260305-151949,1.0.2,20260219-152011,787,Practice,Both,1,Automatic,main,3,20260305-152027,local,local,300,H,H,A,E,A-H.png,E-H.png,hH,hH,mask-3.png,mask-1.png,h,1,0.6166907000006177,s,0,0.07281420001527295,0.04911779999383725,0.04792989999987185,0.09897940000519156,0.09877149999374524,0.30039610000676475
RSVPLG03,si,20260305-151949,1.0.2,20260219-152011,787,Practice,Both,1,Automatic,main,4,20260305-152032,local,local,750,H,S,E,E,E-H.png,E-S.png,hH,sS,mask-1.png,mask-2.png,h,1,0.9100929999840446,s,1,0.14423750000423752,0.05095350000192411,0.051360499986913055,0.09996229998068884,0.09965970000484958,0.7505153999954928
RSVPLG03,si,20260305-151949,1.0.2,20260219-152011,787,Practice,Both,1,Automatic,main,5,20260305-152037,local,global,750,H,H,E,E,E-H.png,H-E.png,hH,hH,mask-1.png,mask-1.png,h,1,0.623721799987834,h,1,0.7205352000019047,0.050187299988465384,0.04953459999524057,0.10081309999804944,0.09935930001665838,0.7508439999946859
RSVPLG03,si,20260305-151949,1.0.2,20260219-152011,787,Practice,Both,1,Automatic,main,6,20260305-152043,global,local,300,H,H,A,A,H-A.png,A-H.png,hH,hH,mask-4.png,mask-3.png,h,1,0.6429360000183806,s,0,0.2242454000224825,0.048413900018204004,0.05039129999931902,0.09849600002053194,0.10039879998657852,0.29864350002026185
RSVPLG03,si,20260305-151949,1.0.2,20260219-152011,787,Practice,Both,1,Automatic,main,7,20260305-152047,global,local,750,H,H,E,E,H-E.png,E-H.png,hH,hH,mask-2.png,mask-1.png,h,1,0.4465720999869518,h,1,0.12896480000927113,0.050332200014963746,0.04916140000568703,0.10040440000011586,0.09784329999820329,0.7514099999971222
RSVPLG03,si,20260305-151949,1.0.2,20260219-152011,787,Practice,Both,1,Automatic,main,8,20260305-152052,local,global,300,H,H,A,A,A-H.png,H-A.png,hH,hH,mask-2.png,mask-2.png,h,1,1.1641309000260662,s,0,0.2098843999847304,0.05000300001120195,0.04968289998942055,0.10123090000706725,0.09912480000639334,0.300975100020878
RSVPLG03,si,20260305-151949,1.0.2,20260219-152011,787,Practice,Both,1,Automatic,main,9,20260305-152057,local,global,300,H,H,A,E,A-H.png,H-E.png,hH,hH,mask-3.png,mask-1.png,s,0,1.0083016999997199,h,1,0.09765860001789406,0.049434399988967925,0.04899090001708828,0.0999774000083562,0.09939250000752509,0.29967549999128096
RSVPLG03,si,20260305-151949,1.0.2,20260219-152011,787,Practice,Both,1,Automatic,main,10,20260305-152102,global,local,300,S,S,A,A,S-A.png,A-S.png,sS,sS,mask-2.png,mask-3.png,s,1,0.6445302999927662,h,0,0.1858104999992065,0.05008959997212514,0.04947660001926124,0.09951769997132942,0.0995497000112664,0.2999376999796368
RSVPLG03,si,20260305-151949,1.0.2,20260219-152011,787,Practice,Both,1,Automatic,main,11,20260305-152107,global,global,750,H,S,A,E,H-A.png,S-E.png,hH,sS,mask-1.png,mask-1.png,h,1,0.6361833999981172,h,0,0.2322416999959387,0.0493698000209406,0.050829899992095307,0.09957060002489015,0.10075559999677353,0.7488724000286311
RSVPLG03,si,20260305-151949,1.0.2,20260219-152011,787,Practice,Both,1,Automatic,main,12,20260305-152112,global,global,750,S,H,A,E,S-A.png,H-E.png,sS,hH,mask-3.png,mask-1.png,s,1,0.8147860000026412,h,1,0.13771509999060072,0.04908440000144765,0.05032899999059737,0.10085200000321493,0.09993549998034723,0.7495889000128955
RSVPLG03,si,20260305-151949,1.0.2,20260219-152011,787,Practice,Both,1,Automatic,main,13,20260305-152117,local,global,750,H,S,E,A,E-H.png,S-A.png,hH,sS,mask-1.png,mask-3.png,h,1,0.5805020999978296,h,0,0.13002630000119098,0.05139239999698475,0.051153300009900704,0.1013888000161387,0.10063950001494959,0.7494839999999385
RSVPLG03,si,20260305-151949,1.0.2,20260219-152011,787,Practice,Both,1,Automatic,main,14,20260305-152122,global,global,300,S,H,E,E,S-E.png,H-E.png,sS,hH,mask-2.png,mask-4.png,s,1,0.8928163000091445,h,1,0.16955449999659322,0.05123440001625568,0.05041460000211373,0.09979980002390221,0.10068149998551235,0.29991670002345927
RSVPLG03,si,20260305-151949,1.0.2,20260219-152011,787,Practice,Both,1,Automatic,main,15,20260305-152127,global,global,300,H,H,A,E,H-A.png,H-E.png,hH,hH,mask-4.png,mask-4.png,s,0,0.5322487000084948,h,1,0.09574780002003536,0.04955080000218004,0.049352900008670986,0.09903280000435188,0.09932880001724698,0.3010403999942355
RSVPLG03,si,20260305-151949,1.0.2,20260219-152011,787,Practice,Both,1,Automatic,main,16,20260305-152131,local,local,300,H,S,A,A,A-H.png,A-S.png,hH,sS,mask-2.png,mask-2.png,s,0,0.8063342999957968,h,0,0.3038904999848455,0.05058959999587387,0.04977189999772236,0.10345679998863488,0.09977139998227358,0.3004419000062626
RSVPLG03,si,20260305-152203,1.0.2,20260219-152011,787,Practice,Both,1,Automatic,main,1,20260305-152222,local,local,300,S,H,A,A,A-S.png,A-H.png,sS,hH,mask-3.png,mask-2.png,s,1,0.3555608999740798,h,1,0.11860660000820644,0.05004870000993833,0.05149889999302104,0.09960460002184846,0.10161949999746867,0.29982070002006367
RSVPLG03,si,20260305-152203,1.0.2,20260219-152011,787,Practice,Both,1,Automatic,main,2,20260305-152226,global,global,300,H,H,A,A,H-A.png,H-A.png,hH,hH,mask-4.png,mask-3.png,h,1,0.6251777999859769,h,1,0.11822500001289882,0.04964069998823106,0.0475674000044819,0.0995824999990873,0.09772600000724196,0.3030216999759432
RSVPLG03,si,20260305-152203,1.0.2,20260219-152011,787,Practice,Both,1,Automatic,main,3,20260305-152231,global,local,300,H,S,A,E,H-A.png,E-S.png,hH,sS,mask-3.png,mask-1.png,h,1,0.4718220999930054,s,1,0.07288240001071244,0.04970899998443201,0.05074800000875257,0.10045579998404719,0.09917110000969842,0.30130609998013824
RSVPLG03,si,20260305-152203,1.0.2,20260219-152011,787,Practice,Both,1,Automatic,main,4,20260305-152235,local,global,750,S,H,A,E,A-S.png,H-E.png,sS,hH,mask-2.png,mask-2.png,s,1,0.44029670002055354,h,1,0.06211180001264438,0.05019479998736642,0.05024730000877753,0.09887940000044182,0.10008509998442605,0.7504443000070751
RSVPLG03,si,20260305-152203,1.0.2,20260219-152011,787,Practice,Both,1,Automatic,main,5,20260305-152240,local,global,300,S,H,A,E,A-S.png,H-E.png,sS,hH,mask-4.png,mask-4.png,s,1,0.360478000016883,h,1,0.5443559999985155,0.05076400001416914,0.050836200010962784,0.10132149999844842,0.10176230000797659,0.3001339999900665
RSVPLG03,si,20260305-152203,1.0.2,20260219-152011,787,Practice,Both,1,Automatic,main,6,20260305-152244,global,local,750,H,H,E,E,H-E.png,E-H.png,hH,hH,mask-4.png,mask-3.png,h,1,0.39423720000195317,s,0,0.1288615000084974,0.0501386999967508,0.0503288000181783,0.10006890000659041,0.10215030002291314,0.7511482999834698
RSVPLG03,si,20260305-152203,1.0.2,20260219-152011,787,Practice,Both,1,Automatic,main,7,20260305-152249,global,local,750,S,H,E,A,S-E.png,A-H.png,sS,hH,mask-3.png,mask-2.png,s,1,0.48312350001651794,s,0,0.10431190000963397,0.049481900001410395,0.04970459998003207,0.10065219999523833,0.09910219997982495,0.7519271000055596
RSVPLG03,si,20260305-152203,1.0.2,20260219-152011,787,Practice,Both,1,Automatic,main,8,20260305-152254,global,local,300,H,H,A,A,H-A.png,A-H.png,hH,hH,mask-3.png,mask-4.png,s,0,0.6720345999929123,h,1,0.08040949999121949,0.049905699997907504,0.05230959999607876,0.10010730000794865,0.10200289997737855,0.2992380000068806
RSVPLG03,si,20260305-152203,1.0.2,20260219-152011,787,Practice,Both,1,Automatic,main,9,20260305-152258,local,global,300,S,S,E,A,E-S.png,S-A.png,sS,sS,mask-2.png,mask-1.png,s,1,0.35060409997822717,h,0,0.06370909998076968,0.05090659999405034,0.049927599990041927,0.10082259998307563,0.0997571999905631,0.30188769998494536
RSVPLG03,si,20260305-152203,1.0.2,20260219-152011,787,Practice,Both,1,Automatic,main,10,20260305-152302,local,local,750,S,H,E,E,E-S.png,E-H.png,sS,hH,mask-1.png,mask-1.png,s,1,0.760482099984074,h,1,0.05827490001684055,0.048562000010861084,0.05108760000439361,0.0998461999988649,0.09861129999626428,0.7510640000109561
RSVPLG03,si,20260305-152203,1.0.2,20260219-152011,787,Practice,Both,1,Automatic,main,11,20260305-152307,local,local,750,S,H,E,E,E-S.png,E-H.png,sS,hH,mask-4.png,mask-3.png,s,1,0.3506403999926988,h,1,0.08151739998720586,0.04974740001489408,0.048868700017919764,0.10091910001938231,0.09997959999600425,0.7510127999994438
RSVPLG03,si,20260305-152203,1.0.2,20260219-152011,787,Practice,Both,1,Automatic,main,12,20260305-152312,local,local,300,H,H,A,A,A-H.png,A-H.png,hH,hH,mask-2.png,mask-3.png,h,1,0.5697344999935012,h,1,0.08842970000114292,0.05076400001416914,0.050003600015770644,0.10253800000646152,0.09965590000501834,0.30175439998856746
RSVPLG03,si,20260305-152203,1.0.2,20260219-152011,787,Practice,Both,1,Automatic,main,13,20260305-152316,local,global,750,H,S,A,A,A-H.png,S-A.png,hH,sS,mask-1.png,mask-2.png,h,1,0.52799239999149,h,0,0.09633799997391179,0.05068419998860918,0.05000519999885,0.10107999999308959,0.09911349997855723,0.7519377999997232
RSVPLG03,si,20260305-152203,1.0.2,20260219-152011,787,Practice,Both,1,Automatic,main,14,20260305-152321,global,global,750,S,H,E,E,S-E.png,H-E.png,sS,hH,mask-1.png,mask-3.png,s,1,0.5845437999814749,h,1,0.0011452999897301197,0.05051679999451153,0.049616800009971485,0.09923120000166818,0.09952210000483319,0.7521927999914624
RSVPLG03,si,20260305-152203,1.0.2,20260219-152011,787,Practice,Both,1,Automatic,main,15,20260305-152326,global,global,300,S,S,A,A,S-A.png,S-A.png,sS,sS,mask-1.png,mask-1.png,s,1,0.3951021999819204,h,0,0.12546340000699274,0.0496733000036329,0.04987119999714196,0.10078540001995862,0.09935750000295229,0.30043950001709163
RSVPLG03,si,20260305-152203,1.0.2,20260219-152011,787,Practice,Both,1,Automatic,main,16,20260305-152330,global,global,750,S,H,E,A,S-E.png,H-A.png,sS,hH,mask-3.png,mask-2.png,s,1,0.4200964999909047,s,0,0.19133649999275804,0.050292100000660866,0.05029429998830892,0.10081240002182312,0.10231190000195056,0.7512896000116598
RSVPLG03,si,20260305-152508,1.0.2,20260219-152011,787,Practice,Both,1,Automatic,main,1,20260305-152528,global,global,750,H,H,E,A,H-E.png,H-A.png,hH,hH,mask-4.png,mask-1.png,s,0,0.3551926999934949,h,1,0.20105170001625083,0.051571000018157065,0.04901869999594055,0.10091999999713153,0.09957930000382476,0.7489568000019062
RSVPLG03,si,20260305-152508,1.0.2,20260219-152011,787,Practice,Both,1,Automatic,main,2,20260305-152533,global,local,300,H,S,E,E,H-E.png,E-S.png,hH,sS,mask-2.png,mask-2.png,h,1,0.37823740000021644,h,0,0.10569140000734478,0.04970669999602251,0.05059199998504482,0.10004060002393089,0.1017983999918215,0.2988257000106387
RSVPLG03,si,20260305-152508,1.0.2,20260219-152011,787,Practice,Both,1,Automatic,main,3,20260305-152537,local,global,300,S,S,A,E,A-S.png,S-E.png,sS,sS,mask-1.png,mask-2.png,s,1,0.5679060000111349,h,0,0.1924132999847643,0.049182599992491305,0.052053999999770895,0.09882429998833686,0.09937020001234487,0.29947729999548756
RSVPLG03,si,20260305-152508,1.0.2,20260219-152011,787,Practice,Both,1,Automatic,main,4,20260305-152541,global,local,750,S,H,E,A,S-E.png,A-H.png,sS,hH,mask-4.png,mask-3.png,s,1,0.31165250000776723,h,1,0.22458219999680296,0.050139900005888194,0.04922670000814833,0.09917979998863302,0.10012469999492168,0.7493036999949254
RSVPLG03,si,20260305-152508,1.0.2,20260219-152011,787,Practice,Both,1,Automatic,main,5,20260305-152546,local,local,300,S,S,A,E,A-S.png,E-S.png,sS,sS,mask-1.png,mask-3.png,s,1,0.4280334999784827,h,0,0.6497142000007443,0.0487178000039421,0.04961570000159554,0.09865689999423921,0.10102810000535101,0.29825809999601915
RSVPLG03,si,20260305-152508,1.0.2,20260219-152011,787,Practice,Both,1,Automatic,main,6,20260305-152551,global,global,300,S,S,E,E,S-E.png,S-E.png,sS,sS,mask-4.png,mask-4.png,s,1,0.5342335999885108,s,1,0.14574290000018664,0.05051949998596683,0.05032229999778792,0.10004709998611361,0.09901710000121966,0.2995613999955822
RSVPLG03,si,20260305-152508,1.0.2,20260219-152011,787,Practice,Both,1,Automatic,main,7,20260305-152555,local,global,750,S,S,A,E,A-S.png,S-E.png,sS,sS,mask-3.png,mask-4.png,s,1,0.44188530000974424,s,1,0.12434099998790771,0.0494126999983564,0.050276199996005744,0.09891530001186766,0.09972930001094937,0.7488306000013836
RSVPLG03,si,20260305-152508,1.0.2,20260219-152011,787,Practice,Both,1,Automatic,main,8,20260305-152600,global,local,300,S,S,A,A,S-A.png,A-S.png,sS,sS,mask-3.png,mask-4.png,s,1,0.3858591000025626,h,0,0.07385379998595454,0.04970070000854321,0.05337290000170469,0.10003540001343936,0.10105749999638647,0.29988659999798983
RSVPLG03,si,20260305-152508,1.0.2,20260219-152011,787,Practice,Both,1,Automatic,main,9,20260305-152604,local,global,300,H,H,E,E,E-H.png,H-E.png,hH,hH,mask-2.png,mask-1.png,h,1,0.31288880002102815,h,1,0.11951320001389831,0.049399100011214614,0.04982510002446361,0.10053080000216141,0.10056869999971241,0.30018039999413304
RSVPLG03,si,20260305-152508,1.0.2,20260219-152011,787,Practice,Both,1,Automatic,main,10,20260305-152608,local,local,750,S,H,E,A,E-S.png,A-H.png,sS,hH,mask-1.png,mask-1.png,h,0,0.3667704999970738,s,0,0.06439559999853373,0.050483300001360476,0.04895820000092499,0.10018440001294948,0.10000590002164245,0.7502524000010453
RSVPLG03,si,20260305-152508,1.0.2,20260219-152011,787,Practice,Both,1,Automatic,main,11,20260305-152613,global,local,750,S,H,A,A,S-A.png,A-H.png,sS,hH,mask-4.png,mask-1.png,s,1,0.16921150000416674,h,1,0.06604109998443164,0.04878160002408549,0.0516957999789156,0.09824300001491793,0.10123509998084046,0.7461699000268709
RSVPLG03,si,20260305-152508,1.0.2,20260219-152011,787,Practice,Both,1,Automatic,main,12,20260305-152617,global,global,750,H,H,E,A,H-E.png,H-A.png,hH,hH,mask-3.png,mask-4.png,h,1,0.46705190002103336,h,1,0.025813599990215153,0.04984320001676679,0.050789999979315326,0.10068490001140162,0.10081849998096004,0.749307400023099
RSVPLG03,si,20260305-152508,1.0.2,20260219-152011,787,Practice,Both,1,Automatic,main,13,20260305-152622,local,global,750,H,S,E,A,E-H.png,S-A.png,hH,sS,mask-4.png,mask-2.png,h,1,0.34920559998136014,s,1,0.13707669998984784,0.050126399990404025,0.04981500000576489,0.09899739999673329,0.10127799998736009,0.7478237999894191
RSVPLG03,si,20260305-152508,1.0.2,20260219-152011,787,Practice,Both,1,Automatic,main,14,20260305-152626,local,local,750,S,H,E,A,E-S.png,A-H.png,sS,hH,mask-4.png,mask-1.png,h,0,0.37358789998688735,s,0,0.0932166000129655,0.05081789998803288,0.05044610000913963,0.10205539999878965,0.10016020000330172,0.7485485999786761
RSVPLG03,si,20260305-152508,1.0.2,20260219-152011,787,Practice,Both,1,Automatic,main,15,20260305-152631,global,global,300,H,H,E,E,H-E.png,H-E.png,hH,hH,mask-1.png,mask-2.png,h,1,0.7767045999935362,h,1,0.048867100005736575,0.05066599999554455,0.048932000005152076,0.10059889999683946,0.1002071000111755,0.30069159998674877
RSVPLG03,si,20260305-152508,1.0.2,20260219-152011,787,Practice,Both,1,Automatic,main,16,20260305-152636,local,local,300,H,H,A,A,A-H.png,A-H.png,hH,hH,mask-2.png,mask-2.png,h,1,0.41577210000832565,h,1,0.08673100001760758,0.04975520001607947,0.051640399993630126,0.10054200000013225,0.10041020001517609,0.2987338000093587
RSVPLG03,si,20260305-152714,1.0.2,20260219-152011,787,Experiment,Both,1,Automatic,warmup,1,20260305-152737,global,local,300,H,S,A,A,H-A.png,A-S.png,hH,sS,mask-4.png,mask-3.png,h,1,0.6711348999815527,s,1,0.030727999983355403,0.04877769999438897,0.04916569998022169,0.10046689998125657,0.09941319999052212,0.3001886999991257
RSVPLG03,si,20260305-152714,1.0.2,20260219-152011,787,Experiment,Both,1,Automatic,warmup,2,20260305-152742,global,global,750,H,H,A,E,H-A.png,H-E.png,hH,hH,mask-1.png,mask-4.png,s,0,0.9372971999982838,h,1,0.24113159999251366,0.04955660001724027,0.050124700006563216,0.10077570000430569,0.10160239998367615,0.7509307000145782
RSVPLG03,si,20260305-152714,1.0.2,20260219-152011,787,Experiment,Both,1,Automatic,warmup,3,20260305-152747,local,global,750,S,H,E,A,E-S.png,H-A.png,sS,hH,mask-4.png,mask-1.png,s,1,1.0705457000003662,h,1,0.2000774000189267,0.04970589998993091,0.048449099995195866,0.10004920000210404,0.09828409997862764,0.7519096000178251
RSVPLG03,si,20260305-152714,1.0.2,20260219-152011,787,Experiment,Both,1,Automatic,warmup,4,20260305-152753,local,local,750,H,S,E,A,E-H.png,A-S.png,hH,sS,mask-1.png,mask-2.png,h,1,0.4081845000036992,s,1,0.20111069999984466,0.04907169999205507,0.050817000010283664,0.09960260000661947,0.10008840000955388,0.7496401999960653
RSVPLG03,si,20260305-152714,1.0.2,20260219-152011,787,Experiment,Both,1,Automatic,main,5,20260305-152757,global,global,750,S,S,E,E,S-E.png,S-E.png,sS,sS,mask-3.png,mask-4.png,s,1,0.5439171999751125,s,1,0.16058799999882467,0.04873029998270795,0.04827679999289103,0.1006751999957487,0.09870349999982864,0.7514822999946773
RSVPLG03,si,20260305-152714,1.0.2,20260219-152011,787,Experiment,Both,1,Automatic,main,6,20260305-152802,local,global,750,H,H,A,A,A-H.png,H-A.png,hH,hH,mask-1.png,mask-2.png,h,1,0.38472250002087094,h,1,0.09052900000824593,0.04940700001316145,0.04952359999879263,0.10162930001388304,0.1005697000073269,0.7505115999956615
RSVPLG03,si,20260305-152714,1.0.2,20260219-152011,787,Experiment,Both,1,Automatic,main,7,20260305-152807,global,global,750,H,S,E,A,H-E.png,S-A.png,hH,sS,mask-1.png,mask-4.png,h,1,0.2889660999935586,s,1,0.09048909999546595,0.050029900012305006,0.049369399988790974,0.10245920001761988,0.0994281999883242,0.7522082000214141
RSVPLG03,si,20260305-152714,1.0.2,20260219-152011,787,Experiment,Both,1,Automatic,main,8,20260305-152811,global,local,300,H,S,A,A,H-A.png,A-S.png,hH,sS,mask-1.png,mask-2.png,s,0,0.4510786999890115,h,0,0.0547153000079561,0.048449199995957315,0.04846520000137389,0.10064439999405295,0.09870750000118278,0.3007301000179723
RSVPLG03,si,20260305-152714,1.0.2,20260219-152011,787,Experiment,Both,1,Automatic,main,9,20260305-152816,global,global,750,S,S,E,A,S-E.png,S-A.png,sS,sS,mask-1.png,mask-1.png,s,1,0.2911292999924626,s,1,0.09594190001371317,0.04754440000397153,0.04903219998232089,0.09914769997703843,0.09915519997593947,0.7496984000026714
RSVPLG03,si,20260305-152714,1.0.2,20260219-152011,787,Experiment,Both,1,Automatic,main,10,20260305-152820,local,global,300,H,S,E,E,E-H.png,S-E.png,hH,sS,mask-1.png,mask-1.png,s,0,0.5790258999913931,h,0,0.1288164000143297,0.0498778999899514,0.04996450000908226,0.10003669999423437,0.09991990000708029,0.3005727999843657
RSVPLG03,si,20260305-152714,1.0.2,20260219-152011,787,Experiment,Both,1,Automatic,main,11,20260305-152825,global,local,750,S,S,E,A,S-E.png,A-S.png,sS,sS,mask-4.png,mask-4.png,s,1,0.3914580999989994,s,1,0.11442950001219288,0.04916429999866523,0.050740000006044284,0.10064790002070367,0.10068969998974353,0.7498377000156324
RSVPLG03,si,20260305-152714,1.0.2,20260219-152011,787,Experiment,Both,1,Automatic,main,12,20260305-152829,global,local,300,H,S,E,E,H-E.png,E-S.png,hH,sS,mask-4.png,mask-3.png,h,1,0.7046351000026334,s,1,0.08038549998309463,0.049016800010576844,0.04990469999029301,0.09950609999941662,0.10027659998741001,0.299235900019994
RSVPLG03,si,20260305-152714,1.0.2,20260219-152011,787,Experiment,Both,1,Automatic,main,13,20260305-152834,local,local,750,S,S,A,A,A-S.png,A-S.png,sS,sS,mask-1.png,mask-1.png,h,0,0.4696035000088159,h,0,0.28853700001491234,0.04964810001547448,0.049349799985066056,0.1015157000219915,0.0994842000072822,0.7506826000171714
RSVPLG03,si,20260305-152714,1.0.2,20260219-152011,787,Experiment,Both,1,Automatic,main,14,20260305-152839,global,local,750,S,H,A,A,S-A.png,A-H.png,sS,hH,mask-1.png,mask-4.png,s,1,0.43882189999567345,h,1,0.14583960000891238,0.048890799982473254,0.04969590000109747,0.09996699998737313,0.10144699999364093,0.7506285999843385
RSVPLG03,si,20260305-152714,1.0.2,20260219-152011,787,Experiment,Both,1,Automatic,main,15,20260305-152843,local,global,300,S,H,A,E,A-S.png,H-E.png,sS,hH,mask-1.png,mask-4.png,s,1,0.4016340999805834,h,1,0.21332609999808483,0.05083870000089519,0.049840400024550036,0.10042929998598993,0.100594200019259,0.2999497999844607
RSVPLG03,si,20260305-152714,1.0.2,20260219-152011,787,Experiment,Both,1,Automatic,main,16,20260305-152848,local,local,750,H,S,E,E,E-H.png,E-S.png,hH,sS,mask-3.png,mask-1.png,h,1,0.11507909998181276,s,1,0.08797609998146072,0.050936699990415946,0.04897119998349808,0.09938440000405535,0.09868349999305792,0.751453600008972
RSVPLG03,si,20260305-152714,1.0.2,20260219-152011,787,Experiment,Both,1,Automatic,main,17,20260305-152852,local,global,750,S,H,A,A,A-S.png,H-A.png,sS,hH,mask-1.png,mask-4.png,s,1,0.22864740001386963,h,1,0.024523800006136298,0.05120570000144653,0.050172300019767135,0.1007709999976214,0.09923170000547543,0.7525859999877866
RSVPLG03,si,20260305-152714,1.0.2,20260219-152011,787,Experiment,Both,1,Automatic,main,18,20260305-152857,local,local,300,S,H,A,A,A-S.png,A-H.png,sS,hH,mask-4.png,mask-3.png,h,0,0.30434400000376627,s,0,0.4000951000198256,0.04892370000015944,0.05054450000170618,0.09879190000356175,0.10075759998289868,0.30008270000689663
RSVPLG03,si,20260305-152714,1.0.2,20260219-152011,787,Experiment,Both,1,Automatic,main,19,20260305-152901,local,local,300,S,S,A,A,A-S.png,A-S.png,sS,sS,mask-4.png,mask-4.png,h,0,0.24228609999408945,s,1,0.015480700007174164,0.05101860000286251,0.04764390000491403,0.09993729999405332,0.09685140001238324,0.30287939999834634
RSVPLG03,si,20260305-152714,1.0.2,20260219-152011,787,Experiment,Both,1,Automatic,main,20,20260305-152905,global,local,300,H,S,A,A,H-A.png,A-S.png,hH,sS,mask-1.png,mask-3.png,h,1,0.32699599998886697,h,0,0.072134099988034,0.04873690000385977,0.050016599998343736,0.09884469999815337,0.10095510000246577,0.29797889999463223
RSVPLG03,si,20260305-152714,1.0.2,20260219-152011,787,Experiment,Both,1,Automatic,main,21,20260305-152909,local,global,750,S,H,E,A,E-S.png,H-A.png,sS,hH,mask-4.png,mask-1.png,s,1,0.3260502000048291,h,1,0.025151400011964142,0.04750359998433851,0.0485851000121329,0.09656479998375289,0.09965960000408813,0.7485376999829896
RSVPLG03,si,20260305-152714,1.0.2,20260219-152011,787,Experiment,Both,1,Automatic,main,22,20260305-152913,local,local,300,S,H,A,E,A-S.png,E-H.png,sS,hH,mask-2.png,mask-1.png,h,0,0.28761129998019896,s,0,0.3997598999994807,0.05002019999665208,0.04892709999694489,0.10195240000030026,0.10021529998630285,0.3018408000061754
RSVPLG03,si,20260305-152714,1.0.2,20260219-152011,787,Experiment,Both,1,Automatic,main,23,20260305-152917,local,global,750,S,H,E,A,E-S.png,H-A.png,sS,hH,mask-3.png,mask-3.png,s,1,0.20172610000008717,h,1,0.0532725999946706,0.04850370000349358,0.05044580000685528,0.09732410000287928,0.10076490000938065,0.7471182000008412
RSVPLG03,si,20260305-152714,1.0.2,20260219-152011,787,Experiment,Both,1,Automatic,main,24,20260305-152922,global,local,750,H,S,E,E,H-E.png,E-S.png,hH,sS,mask-3.png,mask-3.png,h,1,0.24972900000284426,s,1,0.04136339999968186,0.04919990000780672,0.050575300003401935,0.09897779999300838,0.09942009998485446,0.7498438000038732
RSVPLG03,si,20260305-152714,1.0.2,20260219-152011,787,Experiment,Both,1,Automatic,main,25,20260305-152926,global,global,750,S,H,E,A,S-E.png,H-A.png,sS,hH,mask-2.png,mask-1.png,s,1,0.2944345000141766,h,1,0.02037499999278225,0.050228800013428554,0.05011039998498745,0.10017039999365807,0.10094629999366589,0.7504220000118949
RSVPLG03,si,20260305-152714,1.0.2,20260219-152011,787,Experiment,Both,1,Automatic,main,26,20260305-152946,global,global,300,S,H,A,E,S-A.png,H-E.png,sS,hH,mask-1.png,mask-3.png,s,1,0.3824536000029184,h,1,0.027878199995029718,0.04878800001461059,0.0499372000049334,0.09996430002502166,0.10233250001328997,0.3004077000077814
RSVPLG03,si,20260305-152714,1.0.2,20260219-152011,787,Experiment,Both,1,Automatic,main,27,20260305-152951,global,local,750,S,H,E,E,S-E.png,E-H.png,sS,hH,mask-2.png,mask-2.png,s,1,0.25600279998616315,s,0,0.09388979998766445,0.050688000017544255,0.05009569998946972,0.09856870002113283,0.09941570000955835,0.7505787000118289
RSVPLG03,si,20260305-152714,1.0.2,20260219-152011,787,Experiment,Both,1,Automatic,main,28,20260305-152955,local,global,300,H,H,E,A,E-H.png,H-A.png,hH,hH,mask-2.png,mask-2.png,s,0,0.8234799999918323,h,1,0.06504529999801889,0.04867260000901297,0.04966809999314137,0.09886930001084693,0.10021780000533909,0.3004474999906961
RSVPLG03,si,20260305-152714,1.0.2,20260219-152011,787,Experiment,Both,1,Automatic,main,29,20260305-153000,local,global,750,H,S,E,A,E-H.png,S-A.png,hH,sS,mask-2.png,mask-3.png,h,1,0.3495833999768365,s,1,0.1298559999850113,0.050009500002488494,0.04979029999230988,0.10119829999166541,0.10037180001381785,0.7511332999856677
RSVPLG03,si,20260305-152714,1.0.2,20260219-152011,787,Experiment,Both,1,Automatic,main,30,20260305-153005,local,local,750,S,S,E,E,E-S.png,E-S.png,sS,sS,mask-4.png,mask-4.png,h,0,0.3078805999830365,h,0,1.5828510999854188,0.04985260000103153,0.048973900004057214,0.09987149998778477,0.09897920000366867,0.7504824999778066
RSVPLG03,si,20260305-152714,1.0.2,20260219-152011,787,Experiment,Both,1,Automatic,main,31,20260305-153011,global,local,750,H,S,A,A,H-A.png,A-S.png,hH,sS,mask-3.png,mask-2.png,h,1,0.3023731999855954,h,0,0.07235579998814501,0.050330900005064905,0.04969159999745898,0.10169670000323094,0.1008651000156533,0.7507800000021234
RSVPLG03,si,20260305-152714,1.0.2,20260219-152011,787,Experiment,Both,1,Automatic,main,32,20260305-153015,local,local,750,H,S,A,A,A-H.png,A-S.png,hH,sS,mask-1.png,mask-4.png,h,1,0.36237770001753233,s,1,0.9594941000104882,0.05191380000906065,0.05036599998129532,0.10180480001145042,0.10108180000679567,0.7505973000079393
RSVPLG03,si,20260305-152714,1.0.2,20260219-152011,787,Experiment,Both,1,Automatic,main,33,20260305-153021,local,global,750,S,H,A,A,A-S.png,H-A.png,sS,hH,mask-3.png,mask-3.png,s,1,0.30080210001324303,s,0,0.2249219999939669,0.05034980000345968,0.05046369999763556,0.10062709997873753,0.10086000000592321,0.7503875999827869
RSVPLG03,si,20260305-152714,1.0.2,20260219-152011,787,Experiment,Both,1,Automatic,main,34,20260305-153025,local,local,750,S,H,A,A,A-S.png,A-H.png,sS,hH,mask-3.png,mask-1.png,s,1,0.4554636999964714,h,1,0.20854630001122132,0.04893399999127723,0.050036200002068654,0.09929519999423064,0.09963770001195371,0.7490733999875374
RSVPLG03,si,20260305-152714,1.0.2,20260219-152011,787,Experiment,Both,1,Automatic,main,35,20260305-153030,local,local,300,S,H,A,E,A-S.png,E-H.png,sS,hH,mask-4.png,mask-2.png,h,0,0.30072329999529757,s,0,0.05721780000021681,0.05043119998299517,0.04997890000231564,0.10050050000427291,0.1009131999744568,0.2994597000069916
RSVPLG03,si,20260305-152714,1.0.2,20260219-152011,787,Experiment,Both,1,Automatic,main,36,20260305-153034,global,global,750,S,S,A,A,S-A.png,S-A.png,sS,sS,mask-4.png,mask-3.png,h,0,0.5480567000049632,s,1,0.7212430000072345,0.05118780001066625,0.0508276000036858,0.1010355000034906,0.10017460002563894,0.7514522999990731
RSVPLG03,si,20260305-152714,1.0.2,20260219-152011,787,Experiment,Both,1,Automatic,main,37,20260305-153040,global,local,750,H,H,A,A,H-A.png,A-H.png,hH,hH,mask-3.png,mask-3.png,h,1,0.3016226000036113,h,1,0.08171539998147637,0.05003499999293126,0.05073149999952875,0.09887740001431666,0.09890080001787283,0.7503241999947932
RSVPLG03,si,20260305-152714,1.0.2,20260219-152011,787,Experiment,Both,1,Automatic,main,38,20260305-153044,local,global,300,S,S,E,E,E-S.png,S-E.png,sS,sS,mask-4.png,mask-1.png,s,1,0.841992300003767,h,0,0.07331190002150834,0.05095629999414086,0.05064990001847036,0.10024659999180585,0.10085650000837632,0.3002600999898277
RSVPLG03,si,20260305-152714,1.0.2,20260219-152011,787,Experiment,Both,1,Automatic,main,39,20260305-153049,local,global,750,S,H,A,E,A-S.png,H-E.png,sS,hH,mask-4.png,mask-3.png,s,1,0.5792769999825396,s,0,0.20449030000600033,0.051375400013057515,0.04816730000311509,0.101268300000811,0.09917900001164526,0.752606599999126
RSVPLG03,si,20260305-152714,1.0.2,20260219-152011,787,Experiment,Both,1,Automatic,main,40,20260305-153054,global,global,300,H,S,A,E,H-A.png,S-E.png,hH,sS,mask-4.png,mask-4.png,h,1,0.5278854000207502,h,0,0.12181260000215843,0.0503284000151325,0.050403500004904345,0.10016450000694022,0.09844679999514483,0.30146800001966767
RSVPLG03,si,20260305-152714,1.0.2,20260219-152011,787,Experiment,Both,1,Automatic,main,41,20260305-153058,local,local,750,H,S,E,E,E-H.png,E-S.png,hH,sS,mask-2.png,mask-1.png,h,1,0.30948570001055487,s,1,0.076418399985414,0.049640300014289096,0.04928740000468679,0.10066290001850575,0.09948569998960011,0.7511522000131663
RSVPLG03,si,20260305-152714,1.0.2,20260219-152011,787,Experiment,Both,1,Automatic,main,42,20260305-153103,global,local,300,S,H,A,E,S-A.png,E-H.png,sS,hH,mask-1.png,mask-3.png,h,0,0.6916212000069208,s,0,0.18416659999638796,0.04948700001114048,0.05065889999968931,0.10002460001851432,0.10040100000333041,0.30074480001349
RSVPLG03,si,20260305-152714,1.0.2,20260219-152011,787,Experiment,Both,1,Automatic,main,43,20260305-153108,local,local,750,S,S,E,E,E-S.png,E-S.png,sS,sS,mask-2.png,mask-4.png,h,0,0.35945770001853816,h,0,0.4225910999812186,0.04958819999592379,0.04983469998114742,0.10067390001495369,0.0998832999903243,0.7505485000147019
RSVPLG03,si,20260305-152714,1.0.2,20260219-152011,787,Experiment,Both,1,Automatic,main,44,20260305-153112,global,local,750,S,H,A,E,S-A.png,E-H.png,sS,hH,mask-1.png,mask-3.png,s,1,0.42277659999672323,s,0,0.23377889997209422,0.05064249999122694,0.04865779998362996,0.1012951000011526,0.09940710000228137,0.7519614000048023
RSVPLG03,si,20260305-152714,1.0.2,20260219-152011,787,Experiment,Both,1,Automatic,main,45,20260305-153117,local,local,300,S,H,E,A,E-S.png,A-H.png,sS,hH,mask-4.png,mask-3.png,s,1,0.3395033000269905,h,1,0.1371326000080444,0.0498529999749735,0.047601900005247444,0.09987619999446906,0.09870370000135154,0.3024657999922056
RSVPLG03,si,20260305-152714,1.0.2,20260219-152011,787,Experiment,Both,1,Automatic,main,46,20260305-153122,local,global,300,H,S,E,A,E-H.png,S-A.png,hH,sS,mask-2.png,mask-2.png,s,0,0.4601597999862861,h,0,0.03409590001683682,0.05248980000033043,0.05041649998747744,0.09986010001739487,0.09950740000931546,0.3007707000069786
RSVPLG03,si,20260305-152714,1.0.2,20260219-152011,787,Experiment,Both,1,Automatic,main,47,20260305-153126,local,local,750,S,S,E,A,E-S.png,A-S.png,sS,sS,mask-1.png,mask-3.png,s,1,0.8466223000141326,h,0,0.1050128000206314,0.04837180001777597,0.04977290000533685,0.09977110000909306,0.10296580000431277,0.7484194000135176
RSVPLG03,si,20260305-152714,1.0.2,20260219-152011,787,Experiment,Both,1,Automatic,main,48,20260305-153131,local,global,300,H,H,E,E,E-H.png,H-E.png,hH,hH,mask-2.png,mask-4.png,h,1,0.39592650000122376,h,1,0.06788590000360273,0.049683499993989244,0.05008670000825077,0.09950880001997575,0.09906380000757053,0.30081290000816807
RSVPLG03,si,20260305-152714,1.0.2,20260219-152011,787,Experiment,Both,1,Automatic,main,49,20260305-153135,global,local,750,S,S,A,E,S-A.png,E-S.png,sS,sS,mask-1.png,mask-4.png,s,1,0.49521809999714606,s,1,0.19992119999369606,0.04956849999143742,0.050886599987279624,0.09940179999102838,0.09910759999183938,0.7511083999997936
RSVPLG03,si,20260305-152714,1.0.2,20260219-152011,787,Experiment,Both,1,Automatic,main,50,20260305-153140,global,global,300,S,S,E,E,S-E.png,S-E.png,sS,sS,mask-4.png,mask-4.png,s,1,0.42350279999664053,h,0,0.28079029999207705,0.05014209999353625,0.04889250002452172,0.10039109998615459,0.0998191999970004,0.30098159998306073
RSVPLG03,si,20260305-152714,1.0.2,20260219-152011,787,Experiment,Both,1,Automatic,main,51,20260305-153213,local,global,750,H,H,A,A,A-H.png,H-A.png,hH,hH,mask-4.png,mask-3.png,h,1,1.9843898999970406,s,0,0.21717619997798465,0.04993790001026355,0.04810139999608509,0.09946730002411641,0.09782729999278672,0.7502740000199992
RSVPLG03,si,20260305-152714,1.0.2,20260219-152011,787,Experiment,Both,1,Automatic,main,52,20260305-153220,local,local,750,H,S,E,A,E-H.png,A-S.png,hH,sS,mask-3.png,mask-3.png,h,1,0.8890155000262894,s,1,0.012697199999820441,0.04980389997945167,0.04855950002092868,0.0978099999774713,0.09942170002614148,0.7500423999736086
RSVPLG03,si,20260305-152714,1.0.2,20260219-152011,787,Experiment,Both,1,Automatic,main,53,20260305-153225,global,global,300,H,S,A,A,H-A.png,S-A.png,hH,sS,mask-3.png,mask-3.png,h,1,1.0709880000213161,s,1,0.20116009999765083,0.04789630000595935,0.047779400018043816,0.09840300001087599,0.0986921000003349,0.2991903999936767
RSVPLG03,si,20260305-152714,1.0.2,20260219-152011,787,Experiment,Both,1,Automatic,main,54,20260305-153230,global,local,300,S,S,E,A,S-E.png,A-S.png,sS,sS,mask-1.png,mask-4.png,s,1,1.1296290000027511,h,0,0.37721289999899454,0.05045119998976588,0.05057580000720918,0.1007392999890726,0.10001900000497699,0.2998936999938451
RSVPLG03,si,20260305-152714,1.0.2,20260219-152011,787,Experiment,Both,1,Automatic,main,55,20260305-153235,local,local,750,S,S,A,E,A-S.png,E-S.png,sS,sS,mask-4.png,mask-4.png,s,1,0.9784817000036128,s,1,0.1852247999922838,0.05053619999671355,0.048663900000974536,0.10073669999837875,0.09880669999984093,0.7520223000028636
RSVPLG03,si,20260305-152714,1.0.2,20260219-152011,787,Experiment,Both,1,Automatic,main,56,20260305-153240,global,global,300,S,H,E,A,S-E.png,H-A.png,sS,hH,mask-4.png,mask-1.png,s,1,0.8317665999929886,h,1,0.168290799978422,0.05047849999391474,0.04906960000516847,0.10044979999656789,0.09896109998226166,0.3008929000061471
RSVPLG03,si,20260305-152714,1.0.2,20260219-152011,787,Experiment,Both,1,Automatic,main,57,20260305-153245,global,global,750,H,H,E,E,H-E.png,H-E.png,hH,hH,mask-1.png,mask-3.png,s,0,0.6691068999934942,h,1,0.1563810000079684,0.05074639999656938,0.04915400000754744,0.09852390000014566,0.09901899998658337,0.7507297999982256
RSVPLG03,si,20260305-152714,1.0.2,20260219-152011,787,Experiment,Both,1,Automatic,main,58,20260305-153250,global,global,300,S,S,E,E,S-E.png,S-E.png,sS,sS,mask-4.png,mask-4.png,h,0,0.5855962999921758,s,1,0.1298086000024341,0.050770699977874756,0.04982679997920059,0.10001849997206591,0.09995489998254925,0.3010826999961864
RSVPLG03,si,20260305-152714,1.0.2,20260219-152011,787,Experiment,Both,1,Automatic,main,59,20260305-153255,global,local,750,H,H,A,A,H-A.png,A-H.png,hH,hH,mask-1.png,mask-4.png,h,1,0.4893982000066899,h,1,0.10445189999882132,0.04999250001856126,0.050079000007826835,0.10090600000694394,0.10030180000467226,0.7506526999932248
RSVPLG03,si,20260305-152714,1.0.2,20260219-152011,787,Experiment,Both,1,Automatic,main,60,20260305-153300,local,local,750,H,H,E,E,E-H.png,E-H.png,hH,hH,mask-3.png,mask-1.png,s,0,0.7438417999946978,h,1,0.16005169998970814,0.04936540001654066,0.05104439999558963,0.09895690000848845,0.10107600002083927,0.7495106999995187
RSVPLG03,si,20260305-152714,1.0.2,20260219-152011,787,Experiment,Both,1,Automatic,main,61,20260305-153305,local,global,300,S,S,A,E,A-S.png,S-E.png,sS,sS,mask-1.png,mask-4.png,h,0,0.49822919999132864,s,1,0.0007927000115159899,0.051102800003718585,0.048020799993537366,0.10083239999949001,0.09918950000428595,0.3017373000038788
RSVPLG03,si,20260305-152714,1.0.2,20260219-152011,787,Experiment,Both,1,Automatic,main,62,20260305-153309,local,global,750,S,H,E,A,E-S.png,H-A.png,sS,hH,mask-2.png,mask-1.png,h,0,0.5284801000088919,s,0,0.08970720000797883,0.04877900000428781,0.050124900008086115,0.09953160001896322,0.10078589999466203,0.7503232000162825
RSVPLG03,si,20260305-152714,1.0.2,20260219-152011,787,Experiment,Both,1,Automatic,main,63,20260305-153314,local,global,300,S,S,A,E,A-S.png,S-E.png,sS,sS,mask-3.png,mask-2.png,s,1,0.8894979999749921,h,0,0.12199140002485365,0.05091240000911057,0.050781099998857826,0.10144130000844598,0.10035929997684434,0.2993422000145074
RSVPLG03,si,20260305-152714,1.0.2,20260219-152011,787,Experiment,Both,1,Automatic,main,64,20260305-153319,global,global,300,S,H,A,A,S-A.png,H-A.png,sS,hH,mask-3.png,mask-4.png,s,1,0.6858181999996305,h,1,0.03083939998759888,0.05071979999775067,0.05012090000673197,0.09989050001604483,0.09942919999593869,0.29940620000706986
RSVPLG03,si,20260305-152714,1.0.2,20260219-152011,787,Experiment,Both,1,Automatic,main,65,20260305-153323,global,global,750,H,S,E,E,H-E.png,S-E.png,hH,sS,mask-3.png,mask-3.png,h,1,0.3162705000140704,s,1,0.12234149998403154,0.049637499992968515,0.051526600000215694,0.09917800000403076,0.10045470000477508,0.7480908999859821
RSVPLG03,si,20260305-152714,1.0.2,20260219-152011,787,Experiment,Both,1,Automatic,main,66,20260305-153328,local,global,750,S,H,E,A,E-S.png,H-A.png,sS,hH,mask-1.png,mask-4.png,s,1,0.6495653000019956,s,0,0.10607479998725466,0.0494071000139229,0.05089439998846501,0.09947479999391362,0.1000550999888219,0.7488508000096772
RSVPLG03,si,20260305-152714,1.0.2,20260219-152011,787,Experiment,Both,1,Automatic,main,67,20260305-153333,global,global,300,H,S,E,A,H-E.png,S-A.png,hH,sS,mask-1.png,mask-1.png,h,1,0.7624913000036031,s,1,0.21126889999140985,0.049662399978842586,0.049246099981246516,0.0980103999900166,0.09966829998302273,0.2999089999939315
RSVPLG03,si,20260305-152714,1.0.2,20260219-152011,787,Experiment,Both,1,Automatic,main,68,20260305-153338,local,local,300,H,H,A,E,A-H.png,E-H.png,hH,hH,mask-1.png,mask-4.png,h,1,0.46734610002022237,s,0,0.12115970000741072,0.049615199997788295,0.04837330000009388,0.10068289999617264,0.09954440000001341,0.3014458999969065
RSVPLG03,si,20260305-152714,1.0.2,20260219-152011,787,Experiment,Both,1,Automatic,main,69,20260305-153342,local,global,750,S,S,E,E,E-S.png,S-E.png,sS,sS,mask-1.png,mask-3.png,s,1,0.31642899999860674,h,0,0.15962469999794848,0.047404700017068535,0.050459800026146695,0.09723710000980645,0.10090500002843328,0.7478439999977127
RSVPLG03,si,20260305-152714,1.0.2,20260219-152011,787,Experiment,Both,1,Automatic,main,70,20260305-153347,local,local,300,S,S,A,A,A-S.png,A-S.png,sS,sS,mask-1.png,mask-1.png,s,1,0.6282681000011507,s,1,0.14379079997888766,0.050021400005789474,0.04981789999874309,0.10036369998124428,0.09949860000051558,0.30058229999849573
RSVPLG03,si,20260305-152714,1.0.2,20260219-152011,787,Experiment,Both,1,Automatic,main,71,20260305-153351,local,global,750,S,S,E,E,E-S.png,S-E.png,sS,sS,mask-1.png,mask-1.png,h,0,0.9135963000007905,s,1,0.04976399999577552,0.05090639999252744,0.05077410000376403,0.10155210000812076,0.09963449998758733,0.7508910000033211
RSVPLG03,si,20260305-152714,1.0.2,20260219-152011,787,Experiment,Both,1,Automatic,main,72,20260305-153356,local,global,300,S,S,E,A,E-S.png,S-A.png,sS,sS,mask-2.png,mask-2.png,s,1,0.40476089998264797,s,1,0.23709509999025613,0.04891539999516681,0.04837610002141446,0.09904989998904057,0.09887590000289492,0.30001499998616055
RSVPLG03,si,20260305-152714,1.0.2,20260219-152011,787,Experiment,Both,1,Automatic,main,73,20260305-153401,local,global,300,H,S,E,E,E-H.png,S-E.png,hH,sS,mask-1.png,mask-2.png,h,1,0.2788822000147775,s,1,0.042063399974722415,0.05081729998346418,0.04771769998478703,0.10012779998942278,0.09804429998621345,0.3018556000024546
RSVPLG03,si,20260305-152714,1.0.2,20260219-152011,787,Experiment,Both,1,Automatic,main,74,20260305-153405,local,local,300,H,H,E,E,E-H.png,E-H.png,hH,hH,mask-2.png,mask-4.png,h,1,0.5789966000011191,h,1,0.16039200001978315,0.049671399989165366,0.049360600009094924,0.09930649999296293,0.09970729998894967,0.29889299999922514
RSVPLG03,si,20260305-152714,1.0.2,20260219-152011,787,Experiment,Both,1,Automatic,main,75,20260305-153409,local,local,750,S,S,A,A,A-S.png,A-S.png,sS,sS,mask-4.png,mask-1.png,s,1,0.8010883000097238,s,1,0.17011289999936707,0.049009299982571974,0.05153610001434572,0.10049099999014288,0.10116009999183007,0.7504083999956492
RSVPLG03,si,20260305-152714,1.0.2,20260219-152011,787,Experiment,Both,1,Automatic,main,76,20260305-153447,local,global,300,S,H,E,A,E-S.png,H-A.png,sS,hH,mask-3.png,mask-1.png,s,1,0.5523435999930371,s,0,0.10309060002327897,0.05041329999221489,0.048266800004057586,0.09922800000640564,0.09925529998145066,0.30101460000150837
RSVPLG03,si,20260305-152714,1.0.2,20260219-152011,787,Experiment,Both,1,Automatic,main,77,20260305-153451,global,global,300,H,S,E,A,H-E.png,S-A.png,hH,sS,mask-4.png,mask-2.png,h,1,1.5439669999759644,s,1,0.10467979998793453,0.04982319998089224,0.0501413999882061,0.10059869999531657,0.09915819999878295,0.3006576999905519
RSVPLG03,si,20260305-152714,1.0.2,20260219-152011,787,Experiment,Both,1,Automatic,main,78,20260305-153457,global,global,300,S,S,A,E,S-A.png,S-E.png,sS,sS,mask-2.png,mask-4.png,h,0,0.9851361999753863,s,1,1.1052650999918114,0.050502800004323944,0.049053800001274794,0.10147349999169819,0.09937939999508671,0.30218140000943094
RSVPLG03,si,20260305-152714,1.0.2,20260219-152011,787,Experiment,Both,1,Automatic,main,79,20260305-153501,global,global,750,S,H,E,E,S-E.png,H-E.png,sS,hH,mask-2.png,mask-4.png,s,1,0.45840770000359043,h,1,0.10522170001058839,0.050015199987683445,0.04920669997227378,0.10170699999434873,0.09901079998235218,0.7513807000068482
RSVPLG03,si,20260305-152714,1.0.2,20260219-152011,787,Experiment,Both,1,Automatic,main,80,20260305-153506,global,local,300,S,H,A,A,S-A.png,A-H.png,sS,hH,mask-1.png,mask-1.png,s,1,0.49573310001869686,h,1,0.05395669999415986,0.05091260001063347,0.05045050001353957,0.10167709999950603,0.10002869999152608,0.2995277000009082
RSVPLG03,si,20260305-152714,1.0.2,20260219-152011,787,Experiment,Both,1,Automatic,main,81,20260305-153510,global,global,750,S,S,E,E,S-E.png,S-E.png,sS,sS,mask-3.png,mask-3.png,s,1,0.30568160000257194,s,1,0.07045729999663308,0.05058599999756552,0.049298300000373274,0.10085789998993278,0.10026120001566596,0.7505551999784075
RSVPLG03,si,20260305-152714,1.0.2,20260219-152011,787,Experiment,Both,1,Automatic,main,82,20260305-153515,local,local,300,H,H,A,A,A-H.png,A-H.png,hH,hH,mask-3.png,mask-1.png,h,1,0.5046115999866743,s,0,0.04113989998586476,0.053062899998622015,0.04906319998553954,0.09956659999443218,0.09764859999995679,0.3023956000106409
RSVPLG03,si,20260305-152714,1.0.2,20260219-152011,787,Experiment,Both,1,Automatic,main,83,20260305-153519,global,local,300,H,S,A,A,H-A.png,A-S.png,hH,sS,mask-1.png,mask-2.png,h,1,0.44282270001713187,s,1,0.5866673999989871,0.049874600023031235,0.050312599982135,0.09908750001341105,0.10037989998818375,0.2990486000198871
RSVPLG03,si,20260305-152714,1.0.2,20260219-152011,787,Experiment,Both,1,Automatic,main,84,20260305-153523,global,global,750,S,H,A,E,S-A.png,H-E.png,sS,hH,mask-1.png,mask-1.png,s,1,0.3350229999923613,h,1,0.025326299975859,0.051619599980767816,0.050003299984382465,0.09989909999421798,0.09994029998779297,0.7502017999941017
RSVPLG03,si,20260305-152714,1.0.2,20260219-152011,787,Experiment,Both,1,Automatic,main,85,20260305-153528,global,global,750,H,H,A,A,H-A.png,H-A.png,hH,hH,mask-1.png,mask-2.png,h,1,0.2396168999839574,h,1,0.033894099993631244,0.049938199983444065,0.04992679998395033,0.10016859997995198,0.10142979997908697,0.7498813999991398
RSVPLG03,si,20260305-152714,1.0.2,20260219-152011,787,Experiment,Both,1,Automatic,main,86,20260305-153532,global,global,300,S,H,E,E,S-E.png,H-E.png,sS,hH,mask-4.png,mask-3.png,s,1,0.8205644999979995,h,1,0.03893850001622923,0.05024809998576529,0.05009010000503622,0.10086609999416396,0.1001696000166703,0.3003964999807067
RSVPLG03,si,20260305-152714,1.0.2,20260219-152011,787,Experiment,Both,1,Automatic,main,87,20260305-153537,global,local,750,H,S,E,A,H-E.png,A-S.png,hH,sS,mask-3.png,mask-2.png,h,1,0.4521080999984406,h,0,0.0798106000002008,0.048932300007436424,0.04946030001156032,0.09899480000603944,0.09952039999188855,0.750281000015093
RSVPLG03,si,20260305-152714,1.0.2,20260219-152011,787,Experiment,Both,1,Automatic,main,88,20260305-153542,global,local,750,H,H,E,A,H-E.png,A-H.png,hH,hH,mask-3.png,mask-1.png,h,1,0.5174809000163805,h,1,0.09704990001046099,0.05045790001167916,0.05070349999004975,0.10054939999827184,0.09971730000688694,0.7507030999986455
RSVPLG03,si,20260305-152714,1.0.2,20260219-152011,787,Experiment,Both,1,Automatic,main,89,20260305-153546,global,local,300,H,H,A,A,H-A.png,A-H.png,hH,hH,mask-4.png,mask-1.png,s,0,0.43543029998545535,h,1,0.025433800008613616,0.04828429999179207,0.04913709999527782,0.09789380000438541,0.10125460001290776,0.2977907999884337
RSVPLG03,si,20260305-152714,1.0.2,20260219-152011,787,Experiment,Both,1,Automatic,main,90,20260305-153551,global,local,300,S,H,E,E,S-E.png,E-H.png,sS,hH,mask-2.png,mask-1.png,s,1,0.5519826999807265,h,1,0.05762430001050234,0.04673010000260547,0.05007080000359565,0.09868819999974221,0.1006729000073392,0.2971320999786258
RSVPLG03,si,20260305-152714,1.0.2,20260219-152011,787,Experiment,Both,1,Automatic,main,91,20260305-153555,local,local,300,S,H,E,E,E-S.png,E-H.png,sS,hH,mask-3.png,mask-1.png,h,0,0.5188689000206068,h,1,0.6164678999921307,0.04864660001476295,0.04973170001176186,0.09860190001199953,0.10070619999896735,0.2993754000053741
RSVPLG03,si,20260305-152714,1.0.2,20260219-152011,787,Experiment,Both,1,Automatic,main,92,20260305-153600,global,local,300,S,H,A,E,S-A.png,E-H.png,sS,hH,mask-1.png,mask-3.png,s,1,0.3044771999993827,h,1,0.0016781000012997538,0.05289739998988807,0.050043199997162446,0.10140660000615753,0.10152300001936965,0.3011844999855384
RSVPLG03,si,20260305-152714,1.0.2,20260219-152011,787,Experiment,Both,1,Automatic,main,93,20260305-153604,global,local,750,H,S,A,A,H-A.png,A-S.png,hH,sS,mask-1.png,mask-3.png,h,1,0.3400682999927085,h,0,0.07038290001219139,0.049843500019051135,0.050386999995680526,0.099292200000491,0.09975160000612959,0.7493238000024576
RSVPLG03,si,20260305-152714,1.0.2,20260219-152011,787,Experiment,Both,1,Automatic,main,94,20260305-153608,global,local,300,S,H,A,A,S-A.png,A-H.png,sS,hH,mask-3.png,mask-2.png,s,1,0.6526736000087112,s,0,0.18681620000279509,0.04971050002495758,0.048492200003238395,0.10061370002222247,0.09932999999728054,0.301502900023479
RSVPLG03,si,20260305-152714,1.0.2,20260219-152011,787,Experiment,Both,1,Automatic,main,95,20260305-153613,global,local,300,H,S,A,A,H-A.png,A-S.png,hH,sS,mask-3.png,mask-1.png,h,1,0.5591894999961369,s,1,0.2009146999916993,0.05000139999901876,0.05049569997936487,0.09882369998376817,0.10063249999075197,0.3000250000040978
RSVPLG03,si,20260305-152714,1.0.2,20260219-152011,787,Experiment,Both,1,Automatic,main,96,20260305-153617,local,local,300,H,H,A,A,A-H.png,A-H.png,hH,hH,mask-2.png,mask-4.png,h,1,0.5211966999922879,s,0,0.17815180000616238,0.0487522000039462,0.04982809998909943,0.09913560000131838,0.10003410000354052,0.29962910001631826
RSVPLG03,si,20260305-152714,1.0.2,20260219-152011,787,Experiment,Both,1,Automatic,main,97,20260305-153622,local,global,300,S,S,A,A,A-S.png,S-A.png,sS,sS,mask-4.png,mask-1.png,h,0,0.4733838999818545,s,1,0.06398810000973754,0.04937789999530651,0.05048410000745207,0.09862169998814352,0.09963529999367893,0.2994307999906596
RSVPLG03,si,20260305-152714,1.0.2,20260219-152011,787,Experiment,Both,1,Automatic,main,98,20260305-153626,global,global,300,H,H,A,A,H-A.png,H-A.png,hH,hH,mask-3.png,mask-3.png,s,0,0.4738800000050105,h,1,0.0009286999993491918,0.05229300001519732,0.048592999984975904,0.10187790001509711,0.09893079998437315,0.30200690001947805
RSVPLG03,si,20260305-152714,1.0.2,20260219-152011,787,Experiment,Both,1,Automatic,main,99,20260305-153630,global,global,750,H,S,A,E,H-A.png,S-E.png,hH,sS,mask-3.png,mask-2.png,h,1,0.41321940001216717,h,0,0.06998569998540916,0.052702699991641566,0.05161649998626672,0.09987039997940883,0.09998460000497289,0.750488999998197
RSVPLG03,si,20260305-152714,1.0.2,20260219-152011,787,Experiment,Both,1,Automatic,main,100,20260305-153635,local,local,300,H,S,E,E,E-H.png,E-S.png,hH,sS,mask-1.png,mask-1.png,h,1,0.3366476999945007,s,1,0.9623981000040658,0.05004410000401549,0.05046369999763556,0.10144460000446998,0.10035550000611693,0.3000086999963969
RSVPLG03,si,20260305-153707,1.0.2,20260219-152011,787,Experiment,Both,1,Automatic,warmup,1,20260305-153937,global,global,750,H,H,A,E,H-A.png,H-E.png,hH,hH,mask-3.png,mask-3.png,h,1,0.5524446000054013,s,0,0.7991677000245545,0.0492083000135608,0.048304199997801334,0.09936540000489913,0.09838619999936782,0.7456036000221502
RSVPLG03,si,20260305-153707,1.0.2,20260219-152011,787,Experiment,Both,1,Automatic,warmup,2,20260305-153943,local,local,300,H,S,E,A,E-H.png,A-S.png,hH,sS,mask-4.png,mask-4.png,h,1,2.774966700002551,s,1,0.33538750000298023,0.04880799999227747,0.04958789999363944,0.09878229998867027,0.09944170000380836,0.2972460000019055
RSVPLG03,si,20260305-153707,1.0.2,20260219-152011,787,Experiment,Both,1,Automatic,warmup,3,20260305-153950,local,global,750,H,S,A,A,A-H.png,S-A.png,hH,sS,mask-4.png,mask-4.png,s,0,0.7419078999955673,s,1,1.1392594999924768,0.0494133000029251,0.04918510001152754,0.10015169999678619,0.09948909998638555,0.7465340000053402
RSVPLG03,si,20260305-153707,1.0.2,20260219-152011,787,Experiment,Both,1,Automatic,warmup,4,20260305-153956,global,local,750,S,S,E,A,S-E.png,A-S.png,sS,sS,mask-1.png,mask-2.png,s,1,0.8971609000000171,h,0,0.2543426000047475,0.04972460001590662,0.04896580000058748,0.10058790000039153,0.09775559999980032,0.7475304000254255
RSVPLG03,si,20260305-153707,1.0.2,20260219-152011,787,Experiment,Both,1,Automatic,main,5,20260305-154001,local,global,750,S,S,E,E,E-S.png,S-E.png,sS,sS,mask-3.png,mask-2.png,s,1,0.5614110000024084,h,0,0.18732699999236502,0.05108250002376735,0.05100690000108443,0.09979050001129508,0.10086939999018796,0.7474984000145923
RSVPLG03,si,20260305-153707,1.0.2,20260219-152011,787,Experiment,Both,1,Automatic,main,6,20260305-154006,local,local,300,S,S,A,E,A-S.png,E-S.png,sS,sS,mask-4.png,mask-1.png,h,0,0.47349219999159686,s,1,0.13981359999161214,0.048500999982934445,0.048867000004975125,0.09910749999107793,0.09816750002210028,0.29924229998141527
RSVPLG03,si,20260305-153707,1.0.2,20260219-152011,787,Experiment,Both,1,Automatic,main,7,20260305-154011,local,global,750,S,S,A,A,A-S.png,S-A.png,sS,sS,mask-4.png,mask-4.png,h,0,0.28236260000267066,h,0,0.41718600000604056,0.04834919999120757,0.05000840002321638,0.10008500001276843,0.1009634000074584,0.7448390999925323
RSVPLG03,si,20260305-153707,1.0.2,20260219-152011,787,Experiment,Both,1,Automatic,main,8,20260305-154016,global,local,750,S,H,A,E,S-A.png,E-H.png,sS,hH,mask-3.png,mask-3.png,s,1,0.7065811999782454,h,1,0.3692103000066709,0.04947979998541996,0.05037919999449514,0.09954349999316037,0.10333509999327362,0.7463044000032824
RSVPLG03,si,20260305-153707,1.0.2,20260219-152011,787,Experiment,Both,1,Automatic,main,9,20260305-154021,global,global,750,H,H,E,E,H-E.png,H-E.png,hH,hH,mask-4.png,mask-3.png,s,0,0.820060400001239,s,0,0.23323589999927208,0.05161779999616556,0.048761799989733845,0.09911720000673085,0.09890230000019073,0.7475477000116371
RSVPLG03,si,20260305-153707,1.0.2,20260219-152011,787,Experiment,Both,1,Automatic,main,10,20260305-154026,global,global,750,H,H,A,E,H-A.png,H-E.png,hH,hH,mask-4.png,mask-3.png,s,0,0.36012879997724667,h,1,0.14465490001020953,0.05030449997866526,0.04984379999223165,0.09983439999632537,0.09999210000387393,0.7476913999998942
RSVPLG03,si,20260305-153707,1.0.2,20260219-152011,787,Experiment,Both,1,Automatic,main,11,20260305-154031,global,local,300,S,S,A,A,S-A.png,A-S.png,sS,sS,mask-1.png,mask-2.png,s,1,0.4918739999993704,h,0,0.1211102000088431,0.04955669998889789,0.05101899997680448,0.10104270000010729,0.10095419999561273,0.2981910000089556
RSVPLG03,si,20260305-153707,1.0.2,20260219-152011,787,Experiment,Both,1,Automatic,main,12,20260305-154035,global,global,300,S,H,E,E,S-E.png,H-E.png,sS,hH,mask-2.png,mask-1.png,s,1,0.843824699986726,h,1,0.18518390000099316,0.04843359999358654,0.05055549999815412,0.0992538999998942,0.09993540000868961,0.2976992999901995
RSVPLG03,si,20260305-153707,1.0.2,20260219-152011,787,Experiment,Both,1,Automatic,main,13,20260305-154040,global,local,300,H,S,E,A,H-E.png,A-S.png,hH,sS,mask-2.png,mask-1.png,h,1,0.776173899997957,s,1,0.04249570000683889,0.05231539998203516,0.04982519999612123,0.09880869998596609,0.0989597000007052,0.2986699999892153
RSVPLG03,si,20260305-153707,1.0.2,20260219-152011,787,Experiment,Both,1,Automatic,main,14,20260305-154045,local,local,750,H,S,A,E,A-H.png,E-S.png,hH,sS,mask-1.png,mask-3.png,h,1,0.3455248000100255,s,1,0.47302740000304766,0.048508300009416416,0.05004120001103729,0.09949160000542179,0.10014360002242029,0.7448891999956686
RSVPLG03,si,20260305-153707,1.0.2,20260219-152011,787,Experiment,Both,1,Automatic,main,15,20260305-154049,local,global,300,S,S,A,E,A-S.png,S-E.png,sS,sS,mask-4.png,mask-2.png,s,1,0.24917009999626316,h,0,0.8006083999935072,0.05084439998609014,0.04939930001273751,0.09937049998552538,0.09952810002141632,0.2999986999784596
RSVPLG03,si,20260305-153707,1.0.2,20260219-152011,787,Experiment,Both,1,Automatic,main,16,20260305-154054,local,global,300,S,H,E,E,E-S.png,H-E.png,sS,hH,mask-3.png,mask-4.png,s,1,1.1961111999989953,h,1,0.11341559997526929,0.05002520000562072,0.04928810001001693,0.1001754000026267,0.10123150001163594,0.2988562999817077
RSVPLG03,si,20260305-153707,1.0.2,20260219-152011,787,Experiment,Both,1,Automatic,main,17,20260305-154059,local,local,750,S,H,A,E,A-S.png,E-H.png,sS,hH,mask-4.png,mask-2.png,h,0,0.43927610001992434,s,0,0.5751984000089578,0.04966530000092462,0.0486650999810081,0.0992942999873776,0.0985985999868717,0.746032600000035
RSVPLG03,si,20260305-153707,1.0.2,20260219-152011,787,Experiment,Both,1,Automatic,main,18,20260305-154104,local,local,300,S,S,A,A,A-S.png,A-S.png,sS,sS,mask-2.png,mask-2.png,s,1,0.1549564000160899,h,0,0.3309995000017807,0.050803499994799495,0.05064230001880787,0.10416439999244176,0.09925790000124834,0.29937719998997636
RSVPLG03,si,20260305-153707,1.0.2,20260219-152011,787,Experiment,Both,1,Automatic,main,19,20260305-154108,global,local,750,S,S,A,E,S-A.png,E-S.png,sS,sS,mask-3.png,mask-4.png,s,1,0.5532183000177611,h,0,0.054990300006465986,0.04971710001700558,0.04938609999953769,0.10066430000006221,0.10035490000154823,0.7468207000056282
RSVPLG03,si,20260305-153707,1.0.2,20260219-152011,787,Experiment,Both,1,Automatic,main,20,20260305-154112,local,global,750,H,H,E,A,E-H.png,H-A.png,hH,hH,mask-1.png,mask-2.png,s,0,0.1353878999943845,h,1,0.07296069999574684,0.047708600002806634,0.04988579999189824,0.0978608000150416,0.10060320000047795,0.7443330000096466
RSVPLG03,si,20260305-153707,1.0.2,20260219-152011,787,Experiment,Both,1,Automatic,main,21,20260305-154117,global,local,300,H,H,E,E,H-E.png,E-H.png,hH,hH,mask-4.png,mask-1.png,h,1,0.47577399999136105,s,0,0.04094659999827854,0.05207079998217523,0.050845099991420284,0.0995639999746345,0.10096260000136681,0.2989036999933887
RSVPLG03,si,20260305-153707,1.0.2,20260219-152011,787,Experiment,Both,1,Automatic,main,22,20260305-154121,global,global,750,S,H,A,E,S-A.png,H-E.png,sS,hH,mask-3.png,mask-2.png,s,1,0.557285699993372,h,1,0.1992720999987796,0.05018160000327043,0.04881450001266785,0.1000179999973625,0.09848509999574162,0.7473332999798004
RSVPLG03,si,20260305-153707,1.0.2,20260219-152011,787,Experiment,Both,1,Automatic,main,23,20260305-154126,global,global,300,H,H,A,A,H-A.png,H-A.png,hH,hH,mask-1.png,mask-1.png,h,1,0.4665642000036314,h,1,0.10622180000063963,0.05367880000267178,0.049813599995104596,0.1017271000018809,0.09927679999964312,0.3000735000241548
RSVPLG03,si,20260305-153707,1.0.2,20260219-152011,787,Experiment,Both,1,Automatic,main,24,20260305-154130,global,global,750,H,H,E,A,H-E.png,H-A.png,hH,hH,mask-2.png,mask-2.png,h,1,0.2606367999978829,h,1,0.07708270000875928,0.04844849999062717,0.04996369997388683,0.09681109999655746,0.10142979997908697,0.7438976000121329
RSVPLG03,si,20260305-153707,1.0.2,20260219-152011,787,Experiment,Both,1,Automatic,main,25,20260305-154135,local,local,300,S,S,A,E,A-S.png,E-S.png,sS,sS,mask-1.png,mask-4.png,s,1,0.6634322000027169,s,1,0.08142999999108724,0.048420899984193966,0.0497017000161577,0.0978762999875471,0.09880490001523867,0.29866989998845384
RSVPLG03,si,20260305-153707,1.0.2,20260219-152011,787,Experiment,Both,1,Automatic,main,26,20260305-154457,global,global,300,H,H,E,A,H-E.png,H-A.png,hH,hH,mask-4.png,mask-2.png,h,1,0.4007020000135526,h,1,0.10366399999475107,0.04930429998785257,0.051289299997733906,0.09955189999891445,0.09979559999192134,0.29904610000085086
RSVPLG03,si,20260305-153707,1.0.2,20260219-152011,787,Experiment,Both,1,Automatic,main,27,20260305-154501,local,global,300,H,H,E,E,E-H.png,H-E.png,hH,hH,mask-3.png,mask-4.png,s,0,0.3588700999971479,s,0,0.07449450000422075,0.05045929999323562,0.05034029998932965,0.10037510000984184,0.09964830000535585,0.2991796999995131
RSVPLG03,si,20260305-153707,1.0.2,20260219-152011,787,Experiment,Both,1,Automatic,main,28,20260305-154505,local,local,750,H,S,E,E,E-H.png,E-S.png,hH,sS,mask-2.png,mask-2.png,s,0,0.3415711999987252,s,1,0.06557480001356453,0.049520499975187704,0.04677990000345744,0.0981982999946922,0.09670739999273792,0.7467392999969888
RSVPLG03,si,20260305-153707,1.0.2,20260219-152011,787,Experiment,Both,1,Automatic,main,29,20260305-154510,local,global,300,S,H,A,E,A-S.png,H-E.png,sS,hH,mask-1.png,mask-3.png,s,1,0.27661390000139363,h,1,0.046071299992036074,0.05055280000669882,0.05038770000101067,0.09943090000888333,0.09892940000281669,0.298968099988997
RSVPLG03,si,20260305-153707,1.0.2,20260219-152011,787,Experiment,Both,1,Automatic,main,30,20260305-154514,local,local,300,H,S,A,A,A-H.png,A-S.png,hH,sS,mask-1.png,mask-3.png,h,1,0.34221139998408034,s,1,0.438576299988199,0.0484545000072103,0.0499777999939397,0.09911680000368506,0.09810640002251603,0.297519799991278
RSVPLG03,si,20260305-153707,1.0.2,20260219-152011,787,Experiment,Both,1,Automatic,main,31,20260305-154518,global,global,750,H,H,A,A,H-A.png,H-A.png,hH,hH,mask-1.png,mask-1.png,h,1,0.09650559999863617,h,1,0.07005139999091625,0.05027360000531189,0.04901869999594055,0.09995219999109395,0.09954309999011457,0.7472302000096533
RSVPLG03,si,20260305-153707,1.0.2,20260219-152011,787,Experiment,Both,1,Automatic,main,32,20260305-154522,global,global,300,H,H,A,A,H-A.png,H-A.png,hH,hH,mask-2.png,mask-3.png,h,1,0.3263085999933537,h,1,0.07945930000278167,0.05087830001139082,0.049590200011152774,0.09921429998939857,0.09866260000853799,0.29920579999452457
RSVPLG03,si,20260305-153707,1.0.2,20260219-152011,787,Experiment,Both,1,Automatic,main,33,20260305-154526,local,local,300,H,S,E,A,E-H.png,A-S.png,hH,sS,mask-4.png,mask-4.png,s,0,0.38966679997975007,h,0,0.10407450000639074,0.05094309998094104,0.051031799986958504,0.10005749997799285,0.10052700000233017,0.29889899998670444
RSVPLG03,si,20260305-153707,1.0.2,20260219-152011,787,Experiment,Both,1,Automatic,main,34,20260305-154530,global,global,300,S,H,E,A,S-E.png,H-A.png,sS,hH,mask-4.png,mask-2.png,h,0,0.3456093000131659,s,0,0.4475148000055924,0.05125119999866001,0.04898880000109784,0.09927779997815378,0.09900479999487288,0.29944249999243766
RSVPLG03,si,20260305-153707,1.0.2,20260219-152011,787,Experiment,Both,1,Automatic,main,35,20260305-154535,global,local,300,S,S,E,A,S-E.png,A-S.png,sS,sS,mask-2.png,mask-1.png,s,1,0.9372460999875329,s,1,0.0968091000104323,0.05087969999294728,0.04966950000380166,0.09986579997348599,0.09997219999786466,0.2974607999785803
RSVPLG03,si,20260305-153707,1.0.2,20260219-152011,787,Experiment,Both,1,Automatic,main,36,20260305-154539,local,local,750,S,S,E,E,E-S.png,E-S.png,sS,sS,mask-4.png,mask-1.png,s,1,0.3520925999910105,s,1,0.013117900001816452,0.04903630001354031,0.04800280000199564,0.09894490000442602,0.09669219999341294,0.7480911000166088
RSVPLG03,si,20260305-153707,1.0.2,20260219-152011,787,Experiment,Both,1,Automatic,main,37,20260305-154544,local,global,750,S,H,E,A,E-S.png,H-A.png,sS,hH,mask-4.png,mask-2.png,s,1,0.09538509999401867,h,1,0.026163100003032014,0.04849280000780709,0.049191400001291186,0.09927760000573471,0.0991199999989476,0.7448873000103049
RSVPLG03,si,20260305-153707,1.0.2,20260219-152011,787,Experiment,Both,1,Automatic,main,38,20260305-154548,local,local,300,H,H,A,A,A-H.png,A-H.png,hH,hH,mask-2.png,mask-4.png,h,1,0.45200499999918975,s,0,0.004024800000479445,0.047719999973196536,0.052245200000470504,0.09992199999396689,0.09934960000100546,0.29654659997322597
RSVPLG03,si,20260305-153707,1.0.2,20260219-152011,787,Experiment,Both,1,Automatic,main,39,20260305-154552,local,global,300,S,S,E,E,E-S.png,S-E.png,sS,sS,mask-1.png,mask-2.png,s,1,0.48547869999310933,s,1,0.6821545999846421,0.04852690000552684,0.04927369998767972,0.10042450000764802,0.09905409999191761,0.2982792000111658
RSVPLG03,si,20260305-153707,1.0.2,20260219-152011,787,Experiment,Both,1,Automatic,main,40,20260305-154557,global,global,300,S,S,A,E,S-A.png,S-E.png,sS,sS,mask-1.png,mask-1.png,s,1,0.3333293000177946,s,1,0.07346610000240617,0.05041349999373779,0.05102339998120442,0.09934309998061508,0.09853580000344664,0.298831699998118
RSVPLG03,si,20260305-153707,1.0.2,20260219-152011,787,Experiment,Both,1,Automatic,main,41,20260305-154601,global,local,750,S,S,A,A,S-A.png,A-S.png,sS,sS,mask-2.png,mask-4.png,s,1,0.27526109997415915,s,1,0.06796230000327341,0.04983509998419322,0.051773900020634755,0.09919589999481104,0.10109720000764355,0.746313099982217
RSVPLG03,si,20260305-153707,1.0.2,20260219-152011,787,Experiment,Both,1,Automatic,main,42,20260305-154606,global,local,750,H,S,A,E,H-A.png,E-S.png,hH,sS,mask-4.png,mask-4.png,s,0,0.1842909000115469,s,1,0.11538770000333898,0.049823899986222386,0.050114599987864494,0.0994831999996677,0.09887089999392629,0.7463121000037063
RSVPLG03,si,20260305-153707,1.0.2,20260219-152011,787,Experiment,Both,1,Automatic,main,43,20260305-154610,global,local,750,H,H,E,A,H-E.png,A-H.png,hH,hH,mask-3.png,mask-2.png,h,1,0.5381042000080924,h,1,0.08106409999891184,0.049681899981806055,0.049472999991849065,0.09940929998992942,0.09947089999332093,0.7473034999857191
RSVPLG03,si,20260305-153707,1.0.2,20260219-152011,787,Experiment,Both,1,Automatic,main,44,20260305-154615,local,global,300,H,S,E,A,E-H.png,S-A.png,hH,sS,mask-1.png,mask-1.png,h,1,0.9273471999913454,s,1,0.17797759998939,0.05050889999256469,0.05108589999144897,0.10151040001073852,0.09835230000317097,0.299855999997817
RSVPLG03,si,20260305-153707,1.0.2,20260219-152011,787,Experiment,Both,1,Automatic,main,45,20260305-154620,global,local,300,H,S,E,E,H-E.png,E-S.png,hH,sS,mask-2.png,mask-3.png,h,1,0.39170179999200627,s,1,0.10300519998418167,0.04978489998029545,0.04985430001397617,0.10082259998307563,0.09904470000765286,0.29900449997512624
RSVPLG03,si,20260305-153707,1.0.2,20260219-152011,787,Experiment,Both,1,Automatic,main,46,20260305-154624,local,local,300,S,S,E,E,E-S.png,E-S.png,sS,sS,mask-4.png,mask-1.png,s,1,0.3066521000000648,s,1,0.08902230000239797,0.04971410002326593,0.04946370000834577,0.09993019999819808,0.10118759999750182,0.29936150001594797
RSVPLG03,si,20260305-153707,1.0.2,20260219-152011,787,Experiment,Both,1,Automatic,main,47,20260305-154628,local,local,750,H,S,E,E,E-H.png,E-S.png,hH,sS,mask-3.png,mask-2.png,s,0,0.27762919999076985,s,1,0.1226666999864392,0.04865129999234341,0.0490845000022091,0.09918079999624752,0.0988997999811545,0.7452204000146594
RSVPLG03,si,20260305-153707,1.0.2,20260219-152011,787,Experiment,Both,1,Automatic,main,48,20260305-154633,local,global,750,H,S,A,E,A-H.png,S-E.png,hH,sS,mask-2.png,mask-3.png,h,1,0.3525729999819305,h,0,0.07791209997958504,0.050400300009641796,0.049545699992449954,0.10005750000709668,0.10177789998124354,0.7467762000160292
RSVPLG03,si,20260305-153707,1.0.2,20260219-152011,787,Experiment,Both,1,Automatic,main,49,20260305-154637,local,global,300,S,H,E,A,E-S.png,H-A.png,sS,hH,mask-2.png,mask-4.png,h,0,0.39291560000856407,s,0,0.05750409999745898,0.04977139999391511,0.048383999994257465,0.09887459999299608,0.09788739998475648,0.29906479999772273
RSVPLG03,si,20260305-153707,1.0.2,20260219-152011,787,Experiment,Both,1,Automatic,main,50,20260305-154641,local,global,750,S,S,E,A,E-S.png,S-A.png,sS,sS,mask-3.png,mask-4.png,s,1,0.5380509000096936,s,1,0.12887890002457425,0.04944599998998456,0.050132100004702806,0.09903750001103617,0.09902880000299774,0.747095900005661
RSVPLG03,si,20260305-153707,1.0.2,20260219-152011,787,Experiment,Both,1,Automatic,main,51,20260305-154942,global,local,300,S,H,E,A,S-E.png,A-H.png,sS,hH,mask-4.png,mask-3.png,s,1,0.3976000000257045,h,1,0.04039569999440573,0.04949189999024384,0.05056599999079481,0.10045309999259189,0.09977569998591207,0.2988547999993898
RSVPLG03,si,20260305-153707,1.0.2,20260219-152011,787,Experiment,Both,1,Automatic,main,52,20260305-154946,local,global,750,H,H,A,E,A-H.png,H-E.png,hH,hH,mask-2.png,mask-3.png,h,1,0.4547401999880094,s,0,0.01575550000416115,0.05082459998084232,0.052015599998412654,0.09919019998051226,0.10080970000126399,0.7459421999810729
RSVPLG03,si,20260305-153707,1.0.2,20260219-152011,787,Experiment,Both,1,Automatic,main,53,20260305-154951,local,local,750,H,H,A,E,A-H.png,E-H.png,hH,hH,mask-2.png,mask-2.png,h,1,0.4277285000134725,h,1,0.07319500000448897,0.0482272999943234,0.04859989997930825,0.09907840000232682,0.09860059997299686,0.7457690000010189
RSVPLG03,si,20260305-153707,1.0.2,20260219-152011,787,Experiment,Both,1,Automatic,main,54,20260305-154955,global,local,300,S,H,A,E,S-A.png,E-H.png,sS,hH,mask-4.png,mask-3.png,s,1,0.619462399976328,h,1,0.1454669999948237,0.050674600002821535,0.048458100005518645,0.09981729998253286,0.09980409999843687,0.2990791999909561
RSVPLG03,si,20260305-153707,1.0.2,20260219-152011,787,Experiment,Both,1,Automatic,main,55,20260305-155000,global,local,300,S,S,A,A,S-A.png,A-S.png,sS,sS,mask-1.png,mask-4.png,s,1,0.5487731999892276,s,1,0.10099149998859502,0.04893730001640506,0.049013499985449016,0.09923120000166818,0.09959669999079779,0.29924980000942014
RSVPLG03,si,20260305-153707,1.0.2,20260219-152011,787,Experiment,Both,1,Automatic,main,56,20260305-155004,local,global,300,H,S,E,E,E-H.png,S-E.png,hH,sS,mask-4.png,mask-1.png,s,0,1.1408796999894548,h,0,0.3693739000009373,0.05013479999615811,0.04992270001093857,0.09943699999712408,0.09923170000547543,0.29936209999141283
RSVPLG03,si,20260305-153707,1.0.2,20260219-152011,787,Experiment,Both,1,Automatic,main,57,20260305-155009,global,local,750,H,H,E,A,H-E.png,A-H.png,hH,hH,mask-1.png,mask-4.png,s,0,0.00047339999582618475,h,1,0.3025359000021126,0.04938460001721978,0.049407999991672114,0.09993140000733547,0.09741059999214485,0.7473129000281915
RSVPLG03,si,20260305-153707,1.0.2,20260219-152011,787,Experiment,Both,1,Automatic,main,58,20260305-155014,global,global,300,S,H,E,A,S-E.png,H-A.png,sS,hH,mask-1.png,mask-4.png,s,1,0.4262827000056859,s,0,0.09811089999857359,0.04801270001917146,0.049462800001492724,0.09856820001732558,0.10133309999946505,0.29542579999542795
RSVPLG03,si,20260305-153707,1.0.2,20260219-152011,787,Experiment,Both,1,Automatic,main,59,20260305-155018,local,local,300,S,S,A,A,A-S.png,A-S.png,sS,sS,mask-3.png,mask-3.png,s,1,0.436232200008817,h,0,0.1285440999781713,0.04894449998391792,0.05097199999727309,0.09934289997909218,0.10057209999649785,0.2983527999895159
RSVPLG03,si,20260305-153707,1.0.2,20260219-152011,787,Experiment,Both,1,Automatic,main,60,20260305-155022,global,local,750,H,H,A,E,H-A.png,E-H.png,hH,hH,mask-3.png,mask-1.png,h,1,0.27080349999596365,s,0,0.05385729999397881,0.05033470000489615,0.04825009999331087,0.1000046000117436,0.09850500000175089,0.7482185999979265
RSVPLG03,si,20260305-153707,1.0.2,20260219-152011,787,Experiment,Both,1,Automatic,main,61,20260305-155027,local,local,300,H,H,A,A,A-H.png,A-H.png,hH,hH,mask-4.png,mask-2.png,s,0,0.19421119999606162,h,1,0.055574300000444055,0.05020699999295175,0.05007040000054985,0.10098109999671578,0.10009120000177063,0.29789879999589175
RSVPLG03,si,20260305-153707,1.0.2,20260219-152011,787,Experiment,Both,1,Automatic,main,62,20260305-155031,global,global,750,H,S,A,E,H-A.png,S-E.png,hH,sS,mask-3.png,mask-2.png,s,0,0.23942320002242923,s,1,0.10913190001156181,0.0492456000065431,0.04983839998021722,0.09926789999008179,0.09808840000187047,0.7475290000147652
RSVPLG03,si,20260305-153707,1.0.2,20260219-152011,787,Experiment,Both,1,Automatic,main,63,20260305-155035,global,local,300,H,S,A,E,H-A.png,E-S.png,hH,sS,mask-1.png,mask-3.png,h,1,0.410024999990128,h,0,0.18177719999221154,0.04893600000650622,0.04973989998688921,0.09942620000219904,0.09935659999609925,0.2978966000082437
RSVPLG03,si,20260305-153707,1.0.2,20260219-152011,787,Experiment,Both,1,Automatic,main,64,20260305-155040,local,local,300,H,S,A,E,A-H.png,E-S.png,hH,sS,mask-3.png,mask-4.png,h,1,0.2589019000006374,s,1,0.1298700000043027,0.04843840000103228,0.04996420000679791,0.09935160001623444,0.09849999999278225,0.29823620000388473
RSVPLG03,si,20260305-153707,1.0.2,20260219-152011,787,Experiment,Both,1,Automatic,main,65,20260305-155044,local,global,750,S,S,A,E,A-S.png,S-E.png,sS,sS,mask-4.png,mask-4.png,s,1,0.3149619000032544,h,0,0.3747950000106357,0.051801900001009926,0.05055970000103116,0.10083039998426102,0.09984089998761192,0.7464674999937415
RSVPLG03,si,20260305-153707,1.0.2,20260219-152011,787,Experiment,Both,1,Automatic,main,66,20260305-155048,local,local,750,S,H,A,A,A-S.png,A-H.png,sS,hH,mask-4.png,mask-3.png,s,1,0.341024399996968,s,0,0.1379861000168603,0.04972430001362227,0.04955930000869557,0.09731420001480728,0.09947829999146052,0.7450133000093047
RSVPLG03,si,20260305-153707,1.0.2,20260219-152011,787,Experiment,Both,1,Automatic,main,67,20260305-155053,global,local,750,S,S,E,A,S-E.png,A-S.png,sS,sS,mask-3.png,mask-3.png,s,1,0.21719570001005195,h,0,0.05288089998066425,0.04862940000020899,0.048160100006498396,0.09810470000957139,0.09739249999984168,0.7467478000035044
RSVPLG03,si,20260305-153707,1.0.2,20260219-152011,787,Experiment,Both,1,Automatic,main,68,20260305-155058,global,global,300,H,H,A,E,H-A.png,H-E.png,hH,hH,mask-3.png,mask-3.png,h,1,0.29862230000435375,h,1,0.1048231000022497,0.04890059999888763,0.04890019999584183,0.09960359998513013,0.0989558000001125,0.29934239998692647
RSVPLG03,si,20260305-153707,1.0.2,20260219-152011,787,Experiment,Both,1,Automatic,main,69,20260305-155102,global,global,300,S,H,E,E,S-E.png,H-E.png,sS,hH,mask-1.png,mask-3.png,s,1,0.3469582000107039,h,1,0.025904900016030297,0.05150780000258237,0.04930350001086481,0.09983180000563152,0.10058369999751449,0.299566000001505
RSVPLG03,si,20260305-153707,1.0.2,20260219-152011,787,Experiment,Both,1,Automatic,main,70,20260305-155106,global,global,750,H,H,E,E,H-E.png,H-E.png,hH,hH,mask-3.png,mask-1.png,s,0,0.2919823999982327,h,1,0.0735141999903135,0.050819600000977516,0.04819540001335554,0.10004790002130903,0.0989203000208363,0.7475650999986101
RSVPLG03,si,20260305-153707,1.0.2,20260219-152011,787,Experiment,Both,1,Automatic,main,71,20260305-155110,local,global,300,S,S,A,E,A-S.png,S-E.png,sS,sS,mask-3.png,mask-3.png,h,0,0.3629517999943346,s,1,0.037008199986303225,0.04848950001178309,0.05194629999459721,0.09781100001418963,0.10133879998466,0.2961006000114139
RSVPLG03,si,20260305-153707,1.0.2,20260219-152011,787,Experiment,Both,1,Automatic,main,72,20260305-155115,global,global,300,H,S,E,E,H-E.png,S-E.png,hH,sS,mask-1.png,mask-1.png,h,1,0.453950299997814,h,0,0.0258107999979984,0.046619600005215034,0.05107260000659153,0.09758299999521114,0.10227679999661632,0.29463920000125654
RSVPLG03,si,20260305-153707,1.0.2,20260219-152011,787,Experiment,Both,1,Automatic,main,73,20260305-155119,global,global,300,S,H,E,E,S-E.png,H-E.png,sS,hH,mask-1.png,mask-3.png,h,0,0.3907458999892697,s,0,0.06384789998992346,0.049117300019133836,0.049385699996491894,0.1003006000246387,0.09983479999937117,0.29911400002310984
RSVPLG03,si,20260305-153707,1.0.2,20260219-152011,787,Experiment,Both,1,Automatic,main,74,20260305-155123,local,global,750,S,H,E,A,E-S.png,H-A.png,sS,hH,mask-4.png,mask-4.png,s,1,0.39795859999139793,s,0,0.08909489997313358,0.05047089999425225,0.049871399998664856,0.10261229999014176,0.10019060000195168,0.7467150999873411
RSVPLG03,si,20260305-153707,1.0.2,20260219-152011,787,Experiment,Both,1,Automatic,main,75,20260305-155128,global,local,300,H,H,A,A,H-A.png,A-H.png,hH,hH,mask-1.png,mask-4.png,s,0,0.45232949999626726,h,1,0.08169660001294687,0.05103790000430308,0.0493506999919191,0.10129630001029,0.09741610000492074,0.29989799999748357
RSVPLG03,si,20260305-153707,1.0.2,20260219-152011,787,Experiment,Both,1,Automatic,main,76,20260305-155133,global,local,750,H,H,A,A,H-A.png,A-H.png,hH,hH,mask-3.png,mask-1.png,s,0,0.9800427999871317,h,1,0.10766750000766478,0.050221299985423684,0.05003039998700842,0.09928469997248612,0.09913779998896644,0.7452988000004552
RSVPLG03,si,20260305-153707,1.0.2,20260219-152011,787,Experiment,Both,1,Automatic,main,77,20260305-155139,local,local,300,H,S,E,E,E-H.png,E-S.png,hH,sS,mask-3.png,mask-3.png,h,1,0.1959089000010863,h,0,0.07398259997717105,0.05044839999754913,0.05104530000244267,0.09957399999257177,0.09841490001417696,0.29967099998611957
RSVPLG03,si,20260305-153707,1.0.2,20260219-152011,787,Experiment,Both,1,Automatic,main,78,20260305-155142,local,global,750,H,H,A,E,A-H.png,H-E.png,hH,hH,mask-2.png,mask-3.png,h,1,0.40312609999091364,h,1,0.06912159998319112,0.048110000003362074,0.04971249998197891,0.09822990000247955,0.09958999999798834,0.7449758000147995
RSVPLG03,si,20260305-153707,1.0.2,20260219-152011,787,Experiment,Both,1,Automatic,main,79,20260305-155147,local,global,300,S,H,E,E,E-S.png,H-E.png,sS,hH,mask-1.png,mask-2.png,s,1,0.4211442000232637,h,1,0.6834941999986768,0.04798599999048747,0.050198899989482015,0.09851049998542294,0.09872479998739436,0.299041499994928
RSVPLG03,si,20260305-153707,1.0.2,20260219-152011,787,Experiment,Both,1,Automatic,main,80,20260305-155152,local,local,300,S,S,E,E,E-S.png,E-S.png,sS,sS,mask-4.png,mask-2.png,s,1,0.34489659999962896,s,1,0.06065339999622665,0.048749899986432865,0.05039540000143461,0.09793029999127612,0.10013440001057461,0.2954533000010997
RSVPLG03,si,20260305-153707,1.0.2,20260219-152011,787,Experiment,Both,1,Automatic,main,81,20260305-155156,global,global,300,H,S,E,E,H-E.png,S-E.png,hH,sS,mask-1.png,mask-1.png,h,1,0.30406489997403696,s,1,0.12621749998652376,0.04923259999486618,0.050544300000183284,0.10033279997878708,0.09826699999393895,0.2993934999976773
RSVPLG03,si,20260305-153707,1.0.2,20260219-152011,787,Experiment,Both,1,Automatic,main,82,20260305-155200,global,global,750,H,H,A,A,H-A.png,H-A.png,hH,hH,mask-3.png,mask-1.png,h,1,0.36981410000589676,h,1,0.02330239998991601,0.05034899999736808,0.04965860000811517,0.09963800001423806,0.09937849998823367,0.7471809000126086
RSVPLG03,si,20260305-153707,1.0.2,20260219-152011,787,Experiment,Both,1,Automatic,main,83,20260305-155205,global,local,750,S,H,E,A,S-E.png,A-H.png,sS,hH,mask-3.png,mask-3.png,s,1,0.25374899999587797,h,1,0.43739750000531785,0.04994160000933334,0.048690800002077594,0.09892379998927936,0.09946900000795722,0.7465899999951944
RSVPLG03,si,20260305-153707,1.0.2,20260219-152011,787,Experiment,Both,1,Automatic,main,84,20260305-155209,global,global,750,S,H,A,A,S-A.png,H-A.png,sS,hH,mask-4.png,mask-3.png,s,1,0.3575076000124682,h,1,0.10448780001024716,0.04751089998171665,0.0479609000030905,0.0989306999836117,0.09873100000550039,0.7470591999881435
RSVPLG03,si,20260305-153707,1.0.2,20260219-152011,787,Experiment,Both,1,Automatic,main,85,20260305-155214,global,local,300,H,S,A,A,H-A.png,A-S.png,hH,sS,mask-1.png,mask-1.png,s,0,0.814798300008988,s,1,0.07409690000349656,0.050362200010567904,0.049111599975731224,0.100069700012682,0.09934559999965131,0.2991628000163473
RSVPLG03,si,20260305-153707,1.0.2,20260219-152011,787,Experiment,Both,1,Automatic,main,86,20260305-155218,global,global,750,S,H,E,E,S-E.png,H-E.png,sS,hH,mask-2.png,mask-1.png,h,0,0.40505770000163466,h,1,0.07204830000409856,0.051204799994593486,0.049901000020327047,0.09971129999030381,0.09844610001891851,0.7474264999909792
RSVPLG03,si,20260305-153707,1.0.2,20260219-152011,787,Experiment,Both,1,Automatic,main,87,20260305-155223,global,global,750,H,S,A,A,H-A.png,S-A.png,hH,sS,mask-1.png,mask-1.png,h,1,0.2074397999967914,s,1,0.14980949999880977,0.04857119999360293,0.04999079997651279,0.09877839998807758,0.09799239999847487,0.7462598000129219
RSVPLG03,si,20260305-153707,1.0.2,20260219-152011,787,Experiment,Both,1,Automatic,main,88,20260305-155228,local,local,750,S,H,A,E,A-S.png,E-H.png,sS,hH,mask-2.png,mask-2.png,s,1,0.26627699998789467,h,1,0.02653129998361692,0.050028700003167614,0.04990749998250976,0.09776000000420026,0.09893119998741895,0.7453093000221997
RSVPLG03,si,20260305-153707,1.0.2,20260219-152011,787,Experiment,Both,1,Automatic,main,89,20260305-155232,local,local,750,H,S,E,A,E-H.png,A-S.png,hH,sS,mask-4.png,mask-3.png,h,1,0.1326229999831412,h,0,0.08013419999042526,0.05112620000727475,0.04986790000111796,0.09994049998931587,0.09893639999791048,0.7473646000144072
RSVPLG03,si,20260305-153707,1.0.2,20260219-152011,787,Experiment,Both,1,Automatic,main,90,20260305-155236,local,global,750,H,H,E,E,E-H.png,H-E.png,hH,hH,mask-2.png,mask-3.png,h,1,0.12691029999405146,h,1,0.08987930000876077,0.04977869999129325,0.04961879999609664,0.09901989999343641,0.09842160000698641,0.7469987999938894
RSVPLG03,si,20260305-153707,1.0.2,20260219-152011,787,Experiment,Both,1,Automatic,main,91,20260305-155241,global,local,750,S,S,E,E,S-E.png,E-S.png,sS,sS,mask-3.png,mask-3.png,s,1,0.30771459999959916,s,1,0.0813520000083372,0.05064600001787767,0.04759659999399446,0.0999405000184197,0.0977794999780599,0.7490814000193495
RSVPLG03,si,20260305-153707,1.0.2,20260219-152011,787,Experiment,Both,1,Automatic,main,92,20260305-155245,local,local,750,S,S,E,A,E-S.png,A-S.png,sS,sS,mask-1.png,mask-2.png,s,1,0.26066800000262447,s,1,0.08021870002266951,0.04958020002231933,0.05062319998978637,0.10040749999461696,0.09991600000648759,0.7466879000130575
RSVPLG03,si,20260305-153707,1.0.2,20260219-152011,787,Experiment,Both,1,Automatic,main,93,20260305-155250,global,global,750,S,S,E,A,S-E.png,S-A.png,sS,sS,mask-4.png,mask-2.png,s,1,0.21011140002519824,s,1,0.21402549999766052,0.04813690000446513,0.04884289999608882,0.09812650000094436,0.10045239998726174,0.745334900013404
RSVPLG03,si,20260305-153707,1.0.2,20260219-152011,787,Experiment,Both,1,Automatic,main,94,20260305-155255,local,global,300,S,H,E,A,E-S.png,H-A.png,sS,hH,mask-3.png,mask-1.png,s,1,0.38447660001111217,h,1,0.8408181999984663,0.04847800001152791,0.04897730000084266,0.09914690000005066,0.10068390000378713,0.29792060001636855
RSVPLG03,si,20260305-153707,1.0.2,20260219-152011,787,Experiment,Both,1,Automatic,main,95,20260305-155259,local,global,750,S,H,A,E,A-S.png,H-E.png,sS,hH,mask-3.png,mask-1.png,s,1,0.8159738999966066,h,1,1.0243056000035722,0.049886500026332214,0.051640599995153025,0.09857460000785068,0.10093710001092404,0.7454987000091933
RSVPLG03,si,20260305-153707,1.0.2,20260219-152011,787,Experiment,Both,1,Automatic,main,96,20260305-155305,global,local,300,S,S,E,A,S-E.png,A-S.png,sS,sS,mask-4.png,mask-4.png,s,1,0.38050379999913275,s,1,0.32100029999855906,0.049120399984531105,0.05124679999426007,0.09858439999516122,0.09957029999350198,0.29598699999041855
RSVPLG03,si,20260305-153707,1.0.2,20260219-152011,787,Experiment,Both,1,Automatic,main,97,20260305-155309,local,local,750,S,S,E,E,E-S.png,E-S.png,sS,sS,mask-1.png,mask-2.png,s,1,0.45803710000473075,h,0,0.040332799981115386,0.05094340001232922,0.04976529997657053,0.09960320001118816,0.0996504999930039,0.7476483000209555
RSVPLG03,si,20260305-153707,1.0.2,20260219-152011,787,Experiment,Both,1,Automatic,main,98,20260305-155314,local,local,750,S,H,E,E,E-S.png,E-H.png,sS,hH,mask-2.png,mask-3.png,s,1,0.3087232999969274,h,1,0.5007323000172619,0.049730700004147366,0.049966499995207414,0.09924479998880997,0.10136979998787865,0.7457699000078719
RSVPLG03,si,20260305-153707,1.0.2,20260219-152011,787,Experiment,Both,1,Automatic,main,99,20260305-155318,local,global,300,H,S,E,A,E-H.png,S-A.png,hH,sS,mask-4.png,mask-1.png,h,1,0.29388080001808703,h,0,0.07369469999684952,0.05018150000250898,0.0503741999855265,0.1009321000019554,0.10024840000551194,0.30046739999670535
RSVPLG03,si,20260305-153707,1.0.2,20260219-152011,787,Experiment,Both,1,Automatic,main,100,20260305-155322,global,local,750,S,H,E,E,S-E.png,E-H.png,sS,hH,mask-3.png,mask-2.png,s,1,0.180474900000263,h,1,0.017904500011354685,0.05038510001031682,0.04953409999143332,0.1010637000144925,0.09882099999231286,0.7475819000101183
