exp,exp_initials,runtime,ver,modtime,sub,blocktype,targets,cuetype,mode,trialtype,trial,trialtime,t1_level,t2_level,t2_lag,t1,t2,distractor1,distractor2,stimfile1,stimfile2,t1_corr,t2_corr,maskfile1,maskfile2,t1_resp,t1_acc,t1_rt,t2_resp,t2_acc,t2_rt,t1_dur,t2_dur,t1mask_soa,t2mask_soa,t1t2_soa
RSVPLG03,km,20260219-153326,1.0.2,20251113-095759,770,Introduction,T1,1,Automatic,main,1,20260219-153357,global,global,750,S,H,A,A,S-A.png,H-A.png,sS,hH,mask-2.png,mask-4.png,s,1,2.9401246000779793,none,-5,0,0.09250689996406436,0.09837760007940233,0.192120699910447,0.1974552000174299,0.7417348999297246
RSVPLG03,km,20260219-153326,1.0.2,20251113-095759,770,Introduction,T1,1,Automatic,main,2,20260219-153404,local,local,750,H,S,E,E,E-H.png,E-S.png,hH,sS,mask-4.png,mask-3.png,h,1,2.550951899960637,none,-5,0,0.1017487000208348,0.09949399996548891,0.20079679996706545,0.200425099930726,0.7483354000141844
RSVPLG03,km,20260219-153326,1.0.2,20251113-095759,770,Introduction,T1,1,Automatic,main,3,20260219-153411,local,local,750,S,H,E,E,E-S.png,E-H.png,sS,hH,mask-3.png,mask-2.png,s,1,1.8086516000330448,none,-5,0,0.0990394001128152,0.09962260001339018,0.1992160000372678,0.197974200011231,0.7477641000878066
RSVPLG03,km,20260219-153326,1.0.2,20251113-095759,770,Introduction,T1,1,Automatic,main,4,20260219-153417,local,local,750,S,S,E,A,E-S.png,A-S.png,sS,sS,mask-3.png,mask-4.png,s,1,2.3590168999508023,none,-5,0,0.09925730002578348,0.09855919994879514,0.199857100029476,0.19792910001706332,0.7498303999891505
RSVPLG03,km,20260219-153326,1.0.2,20251113-095759,770,Introduction,T1,1,Automatic,main,5,20260219-153423,local,local,750,S,H,A,A,A-S.png,A-H.png,sS,hH,mask-4.png,mask-4.png,h,0,1.5557624000357464,none,-5,0,0.09897509997244924,0.09782900009304285,0.19893409998621792,0.19812200008891523,0.7489829999394715
RSVPLG03,km,20260219-153326,1.0.2,20251113-095759,770,Introduction,T1,1,Automatic,main,6,20260219-153429,global,global,750,S,H,E,E,S-E.png,H-E.png,sS,hH,mask-4.png,mask-2.png,s,1,3.667129500070587,none,-5,0,0.10199849994387478,0.09650280000641942,0.2003010999178514,0.19762490002904087,0.7508663999615237
RSVPLG03,km,20260219-153326,1.0.2,20251113-095759,770,Introduction,T1,1,Automatic,main,7,20260219-153437,local,global,750,S,H,E,A,E-S.png,H-A.png,sS,hH,mask-2.png,mask-1.png,s,1,2.3290448000188917,none,-5,0,0.099576500011608,0.10080700006801635,0.19980639999266714,0.20044679997954518,0.7483351000119001
RSVPLG03,km,20260219-153326,1.0.2,20251113-095759,770,Introduction,T1,1,Automatic,main,8,20260219-153444,local,global,750,S,S,A,E,A-S.png,S-E.png,sS,sS,mask-2.png,mask-2.png,s,1,2.4672430000500754,none,-5,0,0.09896520001348108,0.09920920000877231,0.19783570000436157,0.19948529999237508,0.7480964999413118
RSVPLG03,km,20260219-153326,1.0.2,20251113-095759,770,Introduction,T1,1,Automatic,main,9,20260219-153450,global,global,750,S,S,A,E,S-A.png,S-E.png,sS,sS,mask-3.png,mask-3.png,s,1,1.2338067999808118,none,-5,0,0.10127869993448257,0.09970180003438145,0.19958589994348586,0.2018155000405386,0.7478478999109939
RSVPLG03,km,20260219-153326,1.0.2,20251113-095759,770,Introduction,T1,1,Automatic,main,10,20260219-153456,local,global,750,H,S,E,E,E-H.png,S-E.png,hH,sS,mask-2.png,mask-1.png,none,-6,0,none,-5,0,0.0994098000228405,0.0983047999907285,0.19888330006506294,0.19888879999052733,0.748442200012505
RSVPLG03,km,20260219-153512,1.0.2,20251113-095759,770,Practice,T1,1,Automatic,main,1,20260219-153532,local,global,750,S,H,A,E,A-S.png,H-E.png,sS,hH,mask-4.png,mask-1.png,s,1,2.4387658999767154,none,-5,0,0.05174769996665418,0.05029070004820824,0.10173439991194755,0.0999234999762848,0.7498231999343261
RSVPLG03,km,20260219-153512,1.0.2,20251113-095759,770,Practice,T1,1,Automatic,main,2,20260219-153539,local,global,300,S,S,E,A,E-S.png,S-A.png,sS,sS,mask-1.png,mask-4.png,s,1,1.321981000015512,none,-5,0,0.05029399995692074,0.05012999998871237,0.10090029996354133,0.09957859991118312,0.3001835000468418
RSVPLG03,km,20260219-153512,1.0.2,20251113-095759,770,Practice,T1,1,Automatic,main,3,20260219-153543,local,global,750,H,S,A,A,A-H.png,S-A.png,hH,sS,mask-4.png,mask-4.png,h,1,2.4798343000002205,none,-5,0,0.05066349997650832,0.049407699960283935,0.10069029999431223,0.09870989993214607,0.7515080000739545
RSVPLG03,km,20260219-153512,1.0.2,20251113-095759,770,Practice,T1,1,Automatic,main,4,20260219-153550,global,global,750,H,H,A,E,H-A.png,H-E.png,hH,hH,mask-2.png,mask-2.png,h,1,2.9437004000646994,none,-5,0,0.05015349993482232,0.048441599938087165,0.10035730001982301,0.09864949993789196,0.7503050999948755
RSVPLG03,km,20260219-153512,1.0.2,20251113-095759,770,Practice,T1,1,Automatic,main,5,20260219-153557,global,local,750,S,H,E,A,S-E.png,A-H.png,sS,hH,mask-1.png,mask-3.png,h,0,1.5826058000093326,none,-5,0,0.04918940004426986,0.051369299995712936,0.10001789999660105,0.10245910007506609,0.747627199976705
RSVPLG03,km,20260219-153512,1.0.2,20251113-095759,770,Practice,T1,1,Automatic,main,6,20260219-153603,global,global,300,H,S,E,E,H-E.png,S-E.png,hH,sS,mask-4.png,mask-2.png,s,0,4.058403699891642,none,-5,0,0.05156990000978112,0.05218480003532022,0.10182480001822114,0.10137839999515563,0.2994716999819502
RSVPLG03,km,20260219-153512,1.0.2,20251113-095759,770,Practice,T1,1,Automatic,main,7,20260219-153610,global,local,300,H,S,E,A,H-E.png,A-S.png,hH,sS,mask-2.png,mask-1.png,h,1,2.9323326000012457,none,-5,0,0.04962059995159507,0.0504369999980554,0.09792780003044754,0.09955579997040331,0.299326500040479
RSVPLG03,km,20260219-153512,1.0.2,20251113-095759,770,Practice,T1,1,Automatic,main,8,20260219-153617,local,local,750,H,S,E,E,E-H.png,E-S.png,hH,sS,mask-3.png,mask-1.png,s,0,1.635246100020595,none,-5,0,0.050179699901491404,0.05036290001589805,0.10188579990062863,0.10074900009203702,0.7498935998883098
RSVPLG03,km,20260219-153512,1.0.2,20251113-095759,770,Practice,T1,1,Automatic,main,9,20260219-153622,local,local,750,S,H,E,E,E-S.png,E-H.png,sS,hH,mask-2.png,mask-1.png,s,1,0.8621136000147089,none,-5,0,0.04957320005632937,0.04878189996816218,0.1007804999826476,0.10046689992304891,0.7498098000651225
RSVPLG03,km,20260219-153512,1.0.2,20251113-095759,770,Practice,T1,1,Automatic,main,10,20260219-153627,local,local,300,S,H,E,E,E-S.png,E-H.png,sS,hH,mask-1.png,mask-2.png,s,1,1.0882457999978215,none,-5,0,0.04966630006674677,0.04940879996865988,0.0997751000104472,0.09933750005438924,0.30019740003626794
RSVPLG03,km,20260219-153512,1.0.2,20251113-095759,770,Practice,T1,1,Automatic,main,11,20260219-153632,global,local,300,H,S,E,A,H-E.png,A-S.png,hH,sS,mask-3.png,mask-1.png,s,0,1.079718100023456,none,-5,0,0.04824310005642474,0.05079710006248206,0.1019277999876067,0.10055630002170801,0.2981578999897465
RSVPLG03,km,20260219-153512,1.0.2,20251113-095759,770,Practice,T1,1,Automatic,main,12,20260219-153637,global,local,750,H,H,E,A,H-E.png,A-H.png,hH,hH,mask-4.png,mask-4.png,h,1,1.7505490999901667,none,-5,0,0.04904389998409897,0.0497791999951005,0.09882889990694821,0.09839980001561344,0.7494703999254853
RSVPLG03,km,20260219-153512,1.0.2,20251113-095759,770,Practice,T1,1,Automatic,main,13,20260219-153643,global,global,300,H,S,E,E,H-E.png,S-E.png,hH,sS,mask-4.png,mask-4.png,s,0,3.4743295999942347,none,-5,0,0.05068009998649359,0.050283399992622435,0.09973840008024126,0.09996919997502118,0.29932700004428625
RSVPLG03,km,20260219-153512,1.0.2,20251113-095759,770,Practice,T1,1,Automatic,main,14,20260219-153650,local,local,300,S,S,E,A,E-S.png,A-S.png,sS,sS,mask-1.png,mask-1.png,s,1,2.4085636000381783,none,-5,0,0.0507831999566406,0.05162369995377958,0.09930779994465411,0.10198679997120053,0.2990655000321567
RSVPLG03,km,20260219-153512,1.0.2,20251113-095759,770,Practice,T1,1,Automatic,main,15,20260219-153656,global,global,750,S,H,A,E,S-A.png,H-E.png,sS,hH,mask-1.png,mask-3.png,h,0,3.041683599934913,none,-5,0,0.04858459997922182,0.05153880000580102,0.09786360000725836,0.10187220002990216,0.7473851999966428
RSVPLG03,km,20260219-153512,1.0.2,20251113-095759,770,Practice,T1,1,Automatic,main,16,20260219-153703,local,global,300,S,S,E,E,E-S.png,S-E.png,sS,sS,mask-3.png,mask-1.png,s,1,2.0080241999821737,none,-5,0,0.05036860005930066,0.05009500007145107,0.09887750004418194,0.09973160002846271,0.2989728000247851
RSVPLG03,km,20260219-153725,1.0.2,20251113-095759,770,Practice,T1,1,Automatic,main,1,20260219-153740,local,global,300,S,S,E,A,E-S.png,S-A.png,sS,sS,mask-2.png,mask-4.png,s,1,0.6649206000147387,none,-5,0,0.04874230001587421,0.051068700035102665,0.0989067000336945,0.10137169994413853,0.29840720002539456
RSVPLG03,km,20260219-153725,1.0.2,20251113-095759,770,Practice,T1,1,Automatic,main,2,20260219-153744,local,global,750,S,S,E,A,E-S.png,S-A.png,sS,sS,mask-2.png,mask-1.png,s,1,1.1803270999807864,none,-5,0,0.04733160010073334,0.049625499988906085,0.09821160009596497,0.10049780004192144,0.7500512000406161
RSVPLG03,km,20260219-153725,1.0.2,20251113-095759,770,Practice,T1,1,Automatic,main,3,20260219-153750,local,local,750,H,S,A,E,A-H.png,E-S.png,hH,sS,mask-2.png,mask-2.png,h,1,1.984555699978955,none,-5,0,0.049868699978105724,0.04891479993239045,0.10096870001871139,0.09879299998283386,0.7529585000593215
RSVPLG03,km,20260219-153725,1.0.2,20251113-095759,770,Practice,T1,1,Automatic,main,4,20260219-153756,global,global,300,S,S,E,A,S-E.png,S-A.png,sS,sS,mask-1.png,mask-2.png,h,0,1.9795845999615267,none,-5,0,0.049951800028793514,0.04923370003234595,0.10134920000564307,0.09996340004727244,0.30084709997754544
RSVPLG03,km,20260219-153725,1.0.2,20251113-095759,770,Practice,T1,1,Automatic,main,5,20260219-153801,global,global,750,S,S,E,E,S-E.png,S-E.png,sS,sS,mask-2.png,mask-1.png,s,1,3.6385376999387518,none,-5,0,0.04978960007429123,0.05125949997454882,0.10087520000524819,0.10147290001623333,0.751287900027819
RSVPLG03,km,20260219-153725,1.0.2,20251113-095759,770,Practice,T1,1,Automatic,main,6,20260219-153809,local,global,300,H,H,E,A,E-H.png,H-A.png,hH,hH,mask-3.png,mask-4.png,h,1,2.825525699998252,none,-5,0,0.05118029995355755,0.0512614999897778,0.1024117999477312,0.1000901999650523,0.3002840999979526
RSVPLG03,km,20260219-153725,1.0.2,20251113-095759,770,Practice,T1,1,Automatic,main,7,20260219-153815,global,global,300,H,H,E,E,H-E.png,H-E.png,hH,hH,mask-1.png,mask-1.png,h,1,2.433379100053571,none,-5,0,0.04892440000548959,0.049493499915115535,0.09922530001495034,0.09892749995924532,0.30121180007699877
RSVPLG03,km,20260219-153725,1.0.2,20251113-095759,770,Practice,T1,1,Automatic,main,8,20260219-153821,global,local,300,H,H,E,E,H-E.png,E-H.png,hH,hH,mask-1.png,mask-3.png,h,1,1.9796567999292165,none,-5,0,0.05111969995778054,0.05022950004786253,0.10090329998638481,0.1000474999891594,0.30063469999004155
RSVPLG03,km,20260219-153725,1.0.2,20251113-095759,770,Practice,T1,1,Automatic,main,9,20260219-153827,local,local,300,H,S,A,E,A-H.png,E-S.png,hH,sS,mask-2.png,mask-3.png,s,0,1.3067380000138655,none,-5,0,0.05179689999204129,0.050570999970659614,0.09959350002463907,0.10010769998189062,0.30180290003772825
RSVPLG03,km,20260219-153725,1.0.2,20251113-095759,770,Practice,T1,1,Automatic,main,10,20260219-153832,local,local,750,S,S,E,E,E-S.png,E-S.png,sS,sS,mask-4.png,mask-1.png,s,1,1.04632429999765,none,-5,0,0.05126029998064041,0.05004859995096922,0.09962410002481192,0.1024193000048399,0.7505807999987155
RSVPLG03,km,20260219-153725,1.0.2,20251113-095759,770,Practice,T1,1,Automatic,main,11,20260219-153837,global,local,750,S,S,E,E,S-E.png,E-S.png,sS,sS,mask-4.png,mask-3.png,s,1,1.0515119000338018,none,-5,0,0.0504369999980554,0.04982830001972616,0.10035550000611693,0.0988148000324145,0.7527886000461876
RSVPLG03,km,20260219-153725,1.0.2,20251113-095759,770,Practice,T1,1,Automatic,main,12,20260219-153842,global,local,750,H,S,E,A,H-E.png,A-S.png,hH,sS,mask-1.png,mask-4.png,h,1,2.0932034000288695,none,-5,0,0.04989000002387911,0.04856539994943887,0.09961830009706318,0.10046190000139177,0.7526215000543743
RSVPLG03,km,20260219-153725,1.0.2,20251113-095759,770,Practice,T1,1,Automatic,main,13,20260219-153848,global,global,750,H,S,E,E,H-E.png,S-E.png,hH,sS,mask-1.png,mask-1.png,h,1,1.5592677999520674,none,-5,0,0.05027100001461804,0.04930790001526475,0.09934060007799417,0.10049560002516955,0.7510328000644222
RSVPLG03,km,20260219-153725,1.0.2,20251113-095759,770,Practice,T1,1,Automatic,main,14,20260219-153854,local,local,300,H,S,E,E,E-H.png,E-S.png,hH,sS,mask-4.png,mask-1.png,s,0,0.7210616000229493,none,-5,0,0.04999099997803569,0.04921159998048097,0.10080700006801635,0.09973080002237111,0.3004697000142187
RSVPLG03,km,20260219-153725,1.0.2,20251113-095759,770,Practice,T1,1,Automatic,main,15,20260219-153858,local,global,750,S,H,E,E,E-S.png,H-E.png,sS,hH,mask-1.png,mask-3.png,h,0,1.6953814999433234,none,-5,0,0.04899709997698665,0.0502617999445647,0.09910919994581491,0.10024209995754063,0.7512971999822184
RSVPLG03,km,20260219-153725,1.0.2,20251113-095759,770,Practice,T1,1,Automatic,main,16,20260219-153904,global,local,300,H,H,E,A,H-E.png,A-H.png,hH,hH,mask-2.png,mask-3.png,h,1,0.7623537000035867,none,-5,0,0.04897250002250075,0.05032570008188486,0.09867819992359728,0.10189550009090453,0.2988686999306083
RSVPLG03,km,20260219-153934,1.0.2,20251113-095759,770,Practice,T1,1,Automatic,main,1,20260219-153951,global,global,750,S,H,E,A,S-E.png,H-A.png,sS,hH,mask-2.png,mask-2.png,h,0,1.7012614000122994,none,-5,0,0.048902499955147505,0.05073420004919171,0.09893079998437315,0.09987679996993393,0.7498629000037909
RSVPLG03,km,20260219-153934,1.0.2,20251113-095759,770,Practice,T1,1,Automatic,main,2,20260219-153957,local,local,300,S,S,A,A,A-S.png,A-S.png,sS,sS,mask-4.png,mask-2.png,s,1,1.8470580999273807,none,-5,0,0.05094230000395328,0.05113600008189678,0.09985989995766431,0.10062200005631894,0.30082619993481785
RSVPLG03,km,20260219-153934,1.0.2,20251113-095759,770,Practice,T1,1,Automatic,main,3,20260219-154002,local,global,300,H,H,A,E,A-H.png,H-E.png,hH,hH,mask-3.png,mask-4.png,s,0,3.5337591000134125,none,-5,0,0.049446300021372736,0.0489845999982208,0.09851629997137934,0.09832069999538362,0.3016802000347525
RSVPLG03,km,20260219-153934,1.0.2,20251113-095759,770,Practice,T1,1,Automatic,main,4,20260219-154010,local,global,750,S,S,A,E,A-S.png,S-E.png,sS,sS,mask-1.png,mask-4.png,s,1,1.6589974999660626,none,-5,0,0.05155510001350194,0.05040439998265356,0.09975729999132454,0.10126339993439615,0.7501550000160933
RSVPLG03,km,20260219-153934,1.0.2,20251113-095759,770,Practice,T1,1,Automatic,main,5,20260219-154015,global,local,300,S,S,A,A,S-A.png,A-S.png,sS,sS,mask-4.png,mask-2.png,s,1,1.6578622999368235,none,-5,0,0.05108460003975779,0.04986579995602369,0.10109160002321005,0.09700299997348338,0.3026084000011906
RSVPLG03,km,20260219-153934,1.0.2,20251113-095759,770,Practice,T1,1,Automatic,main,6,20260219-154021,local,local,750,S,S,E,A,E-S.png,A-S.png,sS,sS,mask-4.png,mask-1.png,h,0,2.3029030999168754,none,-5,0,0.05006459995638579,0.05042039998807013,0.09961649996694177,0.10044970002491027,0.7502752000000328
RSVPLG03,km,20260219-153934,1.0.2,20251113-095759,770,Practice,T1,1,Automatic,main,7,20260219-154027,global,local,750,H,S,E,E,H-E.png,E-S.png,hH,sS,mask-4.png,mask-3.png,h,1,1.0088413000339642,none,-5,0,0.050603599986061454,0.05228460009675473,0.10086999996565282,0.1019481000257656,0.7493188999360427
RSVPLG03,km,20260219-153934,1.0.2,20251113-095759,770,Practice,T1,1,Automatic,main,8,20260219-154032,local,local,750,S,S,E,E,E-S.png,E-S.png,sS,sS,mask-2.png,mask-1.png,s,1,1.2147546999622136,none,-5,0,0.05060990003403276,0.05067280004732311,0.10184939997270703,0.10104119998868555,0.7503454999532551
RSVPLG03,km,20260219-153934,1.0.2,20251113-095759,770,Practice,T1,1,Automatic,main,9,20260219-154037,global,global,300,H,S,A,A,H-A.png,S-A.png,hH,sS,mask-4.png,mask-2.png,h,1,1.300539099960588,none,-5,0,0.050959000014699996,0.04960499994922429,0.10014290001709014,0.10134369996376336,0.3005333000328392
RSVPLG03,km,20260219-153934,1.0.2,20251113-095759,770,Practice,T1,1,Automatic,main,10,20260219-154042,global,global,750,S,S,A,E,S-A.png,S-E.png,sS,sS,mask-2.png,mask-4.png,s,1,1.6894040999468416,none,-5,0,0.049659900018014014,0.050833299988880754,0.0993912999983877,0.10196200001519173,0.749258300056681
RSVPLG03,km,20260219-153934,1.0.2,20251113-095759,770,Practice,T1,1,Automatic,main,11,20260219-154048,local,global,750,S,H,E,A,E-S.png,H-A.png,sS,hH,mask-4.png,mask-4.png,s,1,2.188602600013837,none,-5,0,0.05083530000410974,0.04885869997087866,0.10024679999332875,0.09865269996225834,0.7513007000088692
RSVPLG03,km,20260219-153934,1.0.2,20251113-095759,770,Practice,T1,1,Automatic,main,12,20260219-154054,global,global,300,S,S,A,A,S-A.png,S-A.png,sS,sS,mask-3.png,mask-1.png,s,1,1.5411175999324769,none,-5,0,0.0503359999274835,0.05102680006530136,0.09908109996467829,0.1004139999859035,0.2992665999336168
RSVPLG03,km,20260219-153934,1.0.2,20251113-095759,770,Practice,T1,1,Automatic,main,13,20260219-154059,global,local,750,S,S,E,E,S-E.png,E-S.png,sS,sS,mask-1.png,mask-3.png,s,1,0.7621851000003517,none,-5,0,0.05082040000706911,0.04823949991259724,0.10182939993683249,0.09929549996741116,0.7516181999817491
RSVPLG03,km,20260219-153934,1.0.2,20251113-095759,770,Practice,T1,1,Automatic,main,14,20260219-154104,global,local,300,S,H,A,A,S-A.png,A-H.png,sS,hH,mask-2.png,mask-3.png,s,1,0.6988962000468746,none,-5,0,0.04879510006867349,0.04938530002254993,0.09889800008386374,0.09930030000396073,0.30070680007338524
RSVPLG03,km,20260219-153934,1.0.2,20251113-095759,770,Practice,T1,1,Automatic,main,15,20260219-154108,local,local,300,H,S,E,A,E-H.png,A-S.png,hH,sS,mask-2.png,mask-1.png,s,0,1.0774166999617592,none,-5,0,0.05013420002069324,0.04891370004042983,0.10081879992503673,0.09886610007379204,0.3005233999574557
RSVPLG03,km,20260219-153934,1.0.2,20251113-095759,770,Practice,T1,1,Automatic,main,16,20260219-154113,local,global,300,H,H,A,A,A-H.png,H-A.png,hH,hH,mask-4.png,mask-3.png,h,1,0.6234882000135258,none,-5,0,0.051826799986884,0.05123499990440905,0.1010494000511244,0.09949779999442399,0.30137620004825294
RSVPLG03,km,20260219-154216,1.0.2,20251113-095759,770,Introduction,Both,1,Automatic,main,1,20260219-154246,local,global,750,H,H,E,A,E-H.png,H-A.png,hH,hH,mask-4.png,mask-4.png,s,0,3.9633067999966443,h,1,1.3894417999545112,0.09994940005708486,0.10012790001928806,0.20081680000294,0.20176740002352744,0.7504625000292435
RSVPLG03,km,20260219-154216,1.0.2,20251113-095759,770,Introduction,Both,1,Automatic,main,2,20260219-154256,global,local,750,H,S,A,A,H-A.png,A-S.png,hH,sS,mask-2.png,mask-2.png,h,1,3.194309400045313,h,0,1.7681268999585882,0.0997571999905631,0.10045060003176332,0.19989519997034222,0.2017970000160858,0.7509712999453768
RSVPLG03,km,20260219-154216,1.0.2,20251113-095759,770,Introduction,Both,1,Automatic,main,3,20260219-154305,local,local,750,H,S,A,A,A-H.png,A-S.png,hH,sS,mask-2.png,mask-1.png,h,1,1.9294090999756008,s,1,0.6158186999382451,0.10047119995579123,0.09935440006665885,0.2014977999497205,0.2010572999715805,0.7535597999813035
RSVPLG03,km,20260219-154216,1.0.2,20251113-095759,770,Introduction,Both,1,Automatic,main,4,20260219-154312,global,global,750,H,H,A,A,H-A.png,H-A.png,hH,hH,mask-2.png,mask-3.png,h,1,2.008786999969743,h,1,0.42486899998039007,0.09966619999613613,0.09924079990014434,0.19989620009437203,0.19980830000713468,0.7527948000933975
RSVPLG03,km,20260219-154216,1.0.2,20251113-095759,770,Introduction,Both,1,Automatic,main,5,20260219-154319,local,global,750,S,S,E,A,E-S.png,S-A.png,sS,sS,mask-3.png,mask-2.png,s,1,1.563277899986133,s,1,0.43229400005657226,0.10063869995065033,0.10127010010182858,0.20067589997779578,0.2001120001077652,0.751490099937655
RSVPLG03,km,20260219-154216,1.0.2,20251113-095759,770,Introduction,Both,1,Automatic,main,6,20260219-154325,local,local,750,S,S,A,A,A-S.png,A-S.png,sS,sS,mask-2.png,mask-1.png,h,0,2.0544355999445543,h,0,0.38567350001540035,0.0988178999396041,0.09922450000885874,0.1988045999314636,0.19957920000888407,0.7523736999137327
RSVPLG03,km,20260219-154216,1.0.2,20251113-095759,770,Introduction,Both,1,Automatic,main,7,20260219-154332,global,local,750,H,S,E,A,H-E.png,A-S.png,hH,sS,mask-2.png,mask-2.png,h,1,1.2202094999374822,s,1,0.32063009997364134,0.10185129998717457,0.09885830001439899,0.20277430000714958,0.1993392000440508,0.7544794999994338
RSVPLG03,km,20260219-154216,1.0.2,20251113-095759,770,Introduction,Both,1,Automatic,main,8,20260219-154338,global,local,750,H,S,A,A,H-A.png,A-S.png,hH,sS,mask-3.png,mask-4.png,h,1,1.3140818000538275,h,0,0.3434401999693364,0.10048630007077008,0.10167829995043576,0.19994489999953657,0.20195349992718548,0.7505332001019269
RSVPLG03,km,20260219-154216,1.0.2,20251113-095759,770,Introduction,Both,1,Automatic,main,9,20260219-154344,global,global,750,S,H,E,E,S-E.png,H-E.png,sS,hH,mask-2.png,mask-3.png,s,1,1.6851763000013307,h,1,0.4332342999987304,0.09998780000023544,0.10044459998607635,0.19955479993950576,0.20034229999873787,0.7516041999915615
RSVPLG03,km,20260219-154216,1.0.2,20251113-095759,770,Introduction,Both,1,Automatic,main,10,20260219-154350,global,local,750,S,S,E,A,S-E.png,A-S.png,sS,sS,mask-1.png,mask-3.png,s,1,3.241781699936837,h,0,0.36035159998573363,0.0984832999529317,0.10017650004010648,0.19906349992379546,0.2017162999836728,0.750791999977082
RSVPLG03,km,20260219-154216,1.0.2,20251113-095759,770,Introduction,Both,1,Automatic,main,11,20260219-154358,global,global,750,S,H,A,E,S-A.png,H-E.png,sS,hH,mask-1.png,mask-2.png,s,1,1.777568099903874,h,1,0.3937666999408975,0.10111519997008145,0.09969750000163913,0.20152740005869418,0.19831819995306432,0.7533968000207096
RSVPLG03,km,20260219-154216,1.0.2,20251113-095759,770,Introduction,Both,1,Automatic,main,12,20260219-154405,local,global,750,H,H,A,A,A-H.png,H-A.png,hH,hH,mask-2.png,mask-3.png,h,1,3.762376599945128,s,0,1.378151800017804,0.10002110002096742,0.1000446000834927,0.20156000007409602,0.1994160000467673,0.7530583000043407
RSVPLG03,km,20260219-154216,1.0.2,20251113-095759,770,Introduction,Both,1,Automatic,main,13,20260219-154414,local,local,750,H,S,A,A,A-H.png,A-S.png,hH,sS,mask-1.png,mask-4.png,s,0,3.9057597999926656,h,0,0.4716736999107525,0.10067039995919913,0.10238210007082671,0.20165699999779463,0.20156479999423027,0.7511831999290735
RSVPLG03,km,20260219-154216,1.0.2,20251113-095759,770,Introduction,Both,1,Automatic,main,14,20260219-154423,global,global,750,S,H,E,A,S-E.png,H-A.png,sS,hH,mask-4.png,mask-2.png,h,0,0.8653806999791414,s,0,0.3697577000129968,0.1001304000383243,0.1014384999871254,0.20013250003103167,0.20024189993273467,0.7524375000502914
RSVPLG03,km,20260219-154216,1.0.2,20251113-095759,770,Introduction,Both,1,Automatic,main,15,20260219-154429,local,global,750,S,S,A,A,A-S.png,S-A.png,sS,sS,mask-3.png,mask-3.png,s,1,4.629992800066248,s,1,0.2568930999841541,0.09805759997107089,0.10028889996465296,0.19892029999755323,0.20073659997433424,0.7516054000006989
RSVPLG03,km,20260219-154216,1.0.2,20251113-095759,770,Introduction,Both,1,Automatic,main,16,20260219-154438,local,local,750,S,H,A,A,A-S.png,A-H.png,sS,hH,mask-4.png,mask-2.png,s,1,1.4276406000135466,h,1,0.4457253000000492,0.10124890005681664,0.09940710000228137,0.20238230004906654,0.2002409000415355,0.7525702000129968
RSVPLG03,km,20260219-154459,1.0.2,20251113-095759,770,Practice,Both,1,Automatic,main,1,20260219-154525,global,local,300,H,S,E,A,H-E.png,A-S.png,hH,sS,mask-3.png,mask-3.png,s,0,1.4240602999925613,h,0,0.6792835999513045,0.05193910002708435,0.048816499998793006,0.100215999991633,0.10008060000836849,0.2995558000402525
RSVPLG03,km,20260219-154459,1.0.2,20251113-095759,770,Practice,Both,1,Automatic,main,2,20260219-154531,global,local,750,H,S,A,E,H-A.png,E-S.png,hH,sS,mask-3.png,mask-4.png,s,0,0.7577386000193655,h,0,0.2959456000244245,0.05029789998661727,0.050189899979159236,0.09956650005187839,0.09987259993795305,0.7478097000857815
RSVPLG03,km,20260219-154459,1.0.2,20251113-095759,770,Practice,Both,1,Automatic,main,3,20260219-154536,local,global,300,S,S,A,E,A-S.png,S-E.png,sS,sS,mask-4.png,mask-2.png,s,1,2.016904400079511,h,0,1.6532013000687584,0.049259499995969236,0.050900899921543896,0.0994522999972105,0.10059689998161048,0.29853380005806684
RSVPLG03,km,20260219-154459,1.0.2,20251113-095759,770,Practice,Both,1,Automatic,main,4,20260219-154544,local,global,750,S,H,A,A,A-S.png,H-A.png,sS,hH,mask-4.png,mask-1.png,s,1,1.228924100054428,s,0,0.6692579999798909,0.0488480000058189,0.05070030002389103,0.098985799937509,0.0998458000831306,0.7480948999291286
RSVPLG03,km,20260219-154459,1.0.2,20251113-095759,770,Practice,Both,1,Automatic,main,5,20260219-154550,global,global,300,S,H,E,A,S-E.png,H-A.png,sS,hH,mask-1.png,mask-1.png,s,1,3.7038260000990704,h,1,2.1346583000849932,0.05203240003902465,0.04850020003505051,0.10161919996608049,0.09880420006811619,0.30112419999204576
RSVPLG03,km,20260219-154459,1.0.2,20251113-095759,770,Practice,Both,1,Automatic,main,6,20260219-154600,global,global,750,H,H,A,E,H-A.png,H-E.png,hH,hH,mask-2.png,mask-4.png,h,1,2.034297499922104,h,1,0.3870623999973759,0.0499032000079751,0.04948010004591197,0.09969099995214492,0.10023189999628812,0.7485444999765605
RSVPLG03,km,20260219-154459,1.0.2,20251113-095759,770,Practice,Both,1,Automatic,main,7,20260219-154606,global,global,300,H,S,E,E,H-E.png,S-E.png,hH,sS,mask-1.png,mask-2.png,h,1,1.2559596000937745,s,1,0.3221513000316918,0.05010939994826913,0.04970879992470145,0.09973100002389401,0.10081009997520596,0.3001821000361815
RSVPLG03,km,20260219-154459,1.0.2,20251113-095759,770,Practice,Both,1,Automatic,main,8,20260219-154611,local,global,750,S,S,E,A,E-S.png,S-A.png,sS,sS,mask-4.png,mask-2.png,s,1,2.1359561999561265,h,0,0.32017600000835955,0.050052199978381395,0.050572500098496675,0.10052189999260008,0.0999704001005739,0.7490110999206081
RSVPLG03,km,20260219-154459,1.0.2,20251113-095759,770,Practice,Both,1,Automatic,main,9,20260219-154618,local,local,300,S,S,A,A,A-S.png,A-S.png,sS,sS,mask-3.png,mask-2.png,s,1,1.4038960000034422,s,1,0.19285830005537719,0.050169300055131316,0.05115850002039224,0.09965510002803057,0.10098790004849434,0.298512400011532
RSVPLG03,km,20260219-154459,1.0.2,20251113-095759,770,Practice,Both,1,Automatic,main,10,20260219-154623,local,local,300,S,S,A,A,A-S.png,A-S.png,sS,sS,mask-2.png,mask-4.png,s,1,1.4372072000987828,s,1,0.2404726999811828,0.05120460002217442,0.049699700088240206,0.10019989998545498,0.10066650004591793,0.3007680999580771
RSVPLG03,km,20260219-154459,1.0.2,20251113-095759,770,Practice,Both,1,Automatic,main,11,20260219-154629,global,local,750,H,H,A,E,H-A.png,E-H.png,hH,hH,mask-1.png,mask-3.png,s,0,2.552663299953565,s,0,0.6573932999745011,0.049615500029176474,0.0495377000188455,0.09964939998462796,0.10051310004200786,0.7488376999972388
RSVPLG03,km,20260219-154459,1.0.2,20251113-095759,770,Practice,Both,1,Automatic,main,12,20260219-154636,local,local,750,S,H,A,A,A-S.png,A-H.png,sS,hH,mask-2.png,mask-4.png,h,0,5.578996800002642,s,0,0.6426358999451622,0.04902639996726066,0.04894010000862181,0.10012139996979386,0.10004839999601245,0.7484546999912709
RSVPLG03,km,20260219-154459,1.0.2,20251113-095759,770,Practice,Both,1,Automatic,main,13,20260219-154647,global,local,300,H,H,A,E,H-A.png,E-H.png,hH,hH,mask-2.png,mask-3.png,h,1,1.1743635999737307,s,0,0.7535879999632016,0.049751700018532574,0.05037919990718365,0.10065700008999556,0.10140579997096211,0.29816970007959753
RSVPLG03,km,20260219-154459,1.0.2,20251113-095759,770,Practice,Both,1,Automatic,main,14,20260219-154652,local,local,750,S,H,E,A,E-S.png,A-H.png,sS,hH,mask-1.png,mask-3.png,s,1,1.522548699984327,h,1,0.1771329001057893,0.04901309998240322,0.049951700028032064,0.09903039992786944,0.09976000001188368,0.7482674999628216
RSVPLG03,km,20260219-154459,1.0.2,20251113-095759,770,Practice,Both,1,Automatic,main,15,20260219-154658,global,global,750,H,H,E,A,H-E.png,H-A.png,hH,hH,mask-2.png,mask-1.png,h,1,1.3917071000905707,h,1,0.5086804999737069,0.048801700002513826,0.04662200005259365,0.09998929989524186,0.09716780006419867,0.7511339999036863
RSVPLG03,km,20260219-154459,1.0.2,20251113-095759,770,Practice,Both,1,Automatic,main,16,20260219-154704,local,global,300,H,S,E,A,E-H.png,S-A.png,hH,sS,mask-1.png,mask-3.png,h,1,1.2350308999884874,s,1,1.538170799962245,0.05149660003371537,0.0498485000571236,0.0994285000488162,0.09958280005957931,0.3003755999961868
RSVPLG03,km,20260219-154727,1.0.2,20251113-095759,770,Practice,Both,1,Automatic,main,1,20260219-154746,global,global,300,S,S,A,A,S-A.png,S-A.png,sS,sS,mask-4.png,mask-1.png,s,1,0.6746000000275671,s,1,2.3848037999123335,0.041555300005711615,0.04917479993309826,0.09239400003571063,0.09869739995338023,0.29034830001182854
RSVPLG03,km,20260219-154727,1.0.2,20251113-095759,770,Practice,Both,1,Automatic,main,2,20260219-154752,global,local,300,H,H,A,A,H-A.png,A-H.png,hH,hH,mask-4.png,mask-2.png,h,1,0.9016494998941198,s,0,1.297269899980165,0.048294999985955656,0.048846399993635714,0.0993908999953419,0.09843000001274049,0.29855170007795095
RSVPLG03,km,20260219-154727,1.0.2,20251113-095759,770,Practice,Both,1,Automatic,main,3,20260219-154758,local,global,300,S,S,A,E,A-S.png,S-E.png,sS,sS,mask-1.png,mask-4.png,s,1,1.3770552999339998,s,1,0.799090399988927,0.05040389997884631,0.050444799941033125,0.09843379992526025,0.09953499992843717,0.2973348000086844
RSVPLG03,km,20260219-154727,1.0.2,20251113-095759,770,Practice,Both,1,Automatic,main,4,20260219-154804,global,local,750,H,S,A,A,H-A.png,A-S.png,hH,sS,mask-3.png,mask-1.png,h,1,1.4793630000203848,s,1,0.39829710009507835,0.04832860000897199,0.04774970002472401,0.09878840006422251,0.09837250004056841,0.7458176000509411
RSVPLG03,km,20260219-154727,1.0.2,20251113-095759,770,Practice,Both,1,Automatic,main,5,20260219-154810,local,global,750,H,S,E,A,E-H.png,S-A.png,hH,sS,mask-1.png,mask-3.png,s,0,1.771701900055632,h,0,0.37910360004752874,0.04991689999587834,0.048830000101588666,0.10033970000222325,0.09765700006391853,0.7464640999678522
RSVPLG03,km,20260219-154727,1.0.2,20251113-095759,770,Practice,Both,1,Automatic,main,6,20260219-154816,global,global,300,S,S,E,A,S-E.png,S-A.png,sS,sS,mask-3.png,mask-2.png,h,0,1.2890655000228435,s,1,0.3053680999437347,0.04870480007957667,0.04977639997377992,0.09923370007891208,0.10039319994393736,0.29766300006303936
RSVPLG03,km,20260219-154727,1.0.2,20251113-095759,770,Practice,Both,1,Automatic,main,7,20260219-154822,global,global,750,H,H,E,E,H-E.png,H-E.png,hH,hH,mask-2.png,mask-3.png,h,1,0.9493325999937952,h,1,0.35907360003329813,0.04851410002447665,0.050364800030365586,0.09852749994024634,0.10011650004889816,0.7438952999655157
RSVPLG03,km,20260219-154727,1.0.2,20251113-095759,770,Practice,Both,1,Automatic,main,8,20260219-154827,local,local,750,S,H,E,A,E-S.png,A-H.png,sS,hH,mask-4.png,mask-2.png,s,1,1.3276457999600098,h,1,0.41340580000542104,0.048150200047530234,0.04827530006878078,0.09977279999293387,0.09805630007758737,0.7452073999447748
RSVPLG03,km,20260219-154727,1.0.2,20251113-095759,770,Practice,Both,1,Automatic,main,9,20260219-154833,local,global,300,H,H,E,A,E-H.png,H-A.png,hH,hH,mask-1.png,mask-2.png,h,1,1.2301755000371486,h,1,0.3612004000460729,0.05233920004684478,0.04956600000150502,0.10050800000317395,0.09858830005396158,0.29939669999293983
RSVPLG03,km,20260219-154727,1.0.2,20251113-095759,770,Practice,Both,1,Automatic,main,10,20260219-154839,local,local,750,S,H,E,E,E-S.png,E-H.png,sS,hH,mask-2.png,mask-3.png,s,1,1.100683700060472,h,1,0.27418569999281317,0.049846400041133165,0.04976299998816103,0.10053669998887926,0.09839309996459633,0.746222999994643
RSVPLG03,km,20260219-154727,1.0.2,20251113-095759,770,Practice,Both,1,Automatic,main,11,20260219-154844,local,local,300,S,H,A,A,A-S.png,A-H.png,sS,hH,mask-3.png,mask-4.png,s,1,2.4744945999700576,h,1,0.3836527999956161,0.05044999998062849,0.05010949994903058,0.10063829994760454,0.09908439998980612,0.29840430000331253
RSVPLG03,km,20260219-154727,1.0.2,20251113-095759,770,Practice,Both,1,Automatic,main,12,20260219-154851,local,local,300,H,S,E,E,E-H.png,E-S.png,hH,sS,mask-3.png,mask-4.png,h,1,1.2845009999582544,s,1,0.36839870002586395,0.04936020006425679,0.048947200062684715,0.09846930007915944,0.09889520006254315,0.2975754999788478
RSVPLG03,km,20260219-154727,1.0.2,20251113-095759,770,Practice,Both,1,Automatic,main,13,20260219-154856,local,global,750,S,S,A,E,A-S.png,S-E.png,sS,sS,mask-4.png,mask-2.png,s,1,2.642092499998398,s,1,0.32803930004592985,0.050221199984662235,0.050862899981439114,0.09953379991929978,0.10098829993512481,0.7446222000289708
RSVPLG03,km,20260219-154727,1.0.2,20251113-095759,770,Practice,Both,1,Automatic,main,14,20260219-154903,global,local,300,H,S,E,A,H-E.png,A-S.png,hH,sS,mask-1.png,mask-3.png,s,0,1.87736969999969,h,0,0.2688039999920875,0.0526159000582993,0.050562000018544495,0.10122990002855659,0.09857390006072819,0.2996545999776572
RSVPLG03,km,20260219-154727,1.0.2,20251113-095759,770,Practice,Both,1,Automatic,main,15,20260219-154909,global,local,750,S,S,E,E,S-E.png,E-S.png,sS,sS,mask-2.png,mask-3.png,s,1,2.5161722999764606,s,1,0.36863819998688996,0.047481799963861704,0.05012760008685291,0.0974980000173673,0.09998370008543134,0.7437299999874085
RSVPLG03,km,20260219-154727,1.0.2,20251113-095759,770,Practice,Both,1,Automatic,main,16,20260219-154916,global,global,750,S,H,E,E,S-E.png,H-E.png,sS,hH,mask-3.png,mask-4.png,s,1,0.8866443000733852,h,1,0.443196399952285,0.05029619997367263,0.049941199948079884,0.09883289993740618,0.10006850003264844,0.7438206999795511
RSVPLG03,km,20260219-155017,1.0.2,20251113-095759,770,Experiment,Both,1,Automatic,warmup,1,20260219-155123,local,local,300,S,H,E,A,E-S.png,A-H.png,sS,hH,mask-3.png,mask-1.png,s,1,1.5223348999861628,h,1,0.35383969999384135,0.03812949999701232,0.047949900035746396,0.08919910003896803,0.09904090000782162,0.28917580004781485
RSVPLG03,km,20260219-155017,1.0.2,20251113-095759,770,Experiment,Both,1,Automatic,warmup,2,20260219-155129,global,global,750,H,H,A,E,H-A.png,H-E.png,hH,hH,mask-3.png,mask-2.png,h,1,1.6329871999332681,h,1,0.40134729992132634,0.05104599997866899,0.049865699955262244,0.10086259990930557,0.10016889998223633,0.7486343999626115
RSVPLG03,km,20260219-155017,1.0.2,20251113-095759,770,Experiment,Both,1,Automatic,warmup,3,20260219-155135,global,local,750,S,H,E,E,S-E.png,E-H.png,sS,hH,mask-3.png,mask-3.png,s,1,0.9264284999808297,s,0,0.2399638999486342,0.04782780003733933,0.04946589993778616,0.09914050006773323,0.10059980000369251,0.746335000032559
RSVPLG03,km,20260219-155017,1.0.2,20251113-095759,770,Experiment,Both,1,Automatic,warmup,4,20260219-155140,local,global,300,S,S,E,E,E-S.png,S-E.png,sS,sS,mask-2.png,mask-2.png,s,1,1.1577345000114292,h,0,0.35077569994609803,0.05167640000581741,0.049179699970409274,0.10043389990460128,0.09945750003680587,0.3007333999266848
RSVPLG03,km,20260219-155017,1.0.2,20251113-095759,770,Experiment,Both,1,Automatic,main,5,20260219-155145,local,global,750,S,S,E,A,E-S.png,S-A.png,sS,sS,mask-4.png,mask-2.png,s,1,1.7853860999457538,h,0,0.840507399989292,0.050045000039972365,0.0488876000745222,0.10252110008150339,0.097724600112997,0.7508248999947682
RSVPLG03,km,20260219-155017,1.0.2,20251113-095759,770,Experiment,Both,1,Automatic,main,6,20260219-155152,local,global,300,H,H,E,E,E-H.png,H-E.png,hH,hH,mask-1.png,mask-4.png,h,1,2.4786146000260487,h,1,0.3805130000691861,0.04956680000759661,0.05060610000509769,0.10033639997709543,0.10165780002716929,0.29919729998800904
RSVPLG03,km,20260219-155017,1.0.2,20251113-095759,770,Experiment,Both,1,Automatic,main,7,20260219-155159,global,global,750,H,S,A,E,H-A.png,S-E.png,hH,sS,mask-4.png,mask-2.png,h,1,0.9148060999577865,s,1,0.37044450000394136,0.049963400000706315,0.04992460005450994,0.10047780000604689,0.09951980004552752,0.7498315999982879
RSVPLG03,km,20260219-155017,1.0.2,20251113-095759,770,Experiment,Both,1,Automatic,main,8,20260219-155204,local,local,300,S,S,E,E,E-S.png,E-S.png,sS,sS,mask-1.png,mask-3.png,s,1,0.9051822000183165,s,1,0.2653606999665499,0.04996820003725588,0.04947069997433573,0.09950110001955181,0.09816890000365674,0.3001847000559792
RSVPLG03,km,20260219-155017,1.0.2,20251113-095759,770,Experiment,Both,1,Automatic,main,9,20260219-155209,global,local,300,S,H,E,E,S-E.png,E-H.png,sS,hH,mask-2.png,mask-4.png,s,1,1.5960779000306502,s,0,0.8005808000452816,0.050717299920506775,0.05107980000320822,0.1001101000001654,0.10022340004798025,0.29938599991146475
RSVPLG03,km,20260219-155017,1.0.2,20251113-095759,770,Experiment,Both,1,Automatic,main,10,20260219-155215,global,local,750,S,S,A,A,S-A.png,A-S.png,sS,sS,mask-2.png,mask-1.png,s,1,0.9334065999137238,s,1,0.24203029996715486,0.04864799999631941,0.05070739996153861,0.09962280001491308,0.10112730006221682,0.7475523999892175
RSVPLG03,km,20260219-155017,1.0.2,20251113-095759,770,Experiment,Both,1,Automatic,main,11,20260219-155221,local,local,750,H,H,A,A,A-H.png,A-H.png,hH,hH,mask-1.png,mask-4.png,h,1,0.8301308000227436,h,1,0.24136049998924136,0.049954399932175875,0.049899599980562925,0.10070929990615696,0.10074150003492832,0.7488046999787912
RSVPLG03,km,20260219-155017,1.0.2,20251113-095759,770,Experiment,Both,1,Automatic,main,12,20260219-155226,global,global,300,H,S,A,E,H-A.png,S-E.png,hH,sS,mask-3.png,mask-4.png,h,1,0.7477422000374645,s,1,0.30382040003314614,0.05054509988985956,0.04971809999551624,0.10005589993670583,0.10115419991780072,0.29892370000015944
RSVPLG03,km,20260219-155017,1.0.2,20251113-095759,770,Experiment,Both,1,Automatic,main,13,20260219-155231,local,local,750,H,S,A,A,A-H.png,A-S.png,hH,sS,mask-3.png,mask-2.png,h,1,0.9982176000485197,h,0,0.35281920002307743,0.05186479992698878,0.050673100049607456,0.10212809999939054,0.09882750001270324,0.7495507999556139
RSVPLG03,km,20260219-155017,1.0.2,20251113-095759,770,Experiment,Both,1,Automatic,main,14,20260219-155236,local,local,750,H,S,E,A,E-H.png,A-S.png,hH,sS,mask-2.png,mask-3.png,h,1,0.815959700034,s,1,0.24630849994719028,0.05018540006130934,0.04816110001411289,0.10000730003230274,0.09917050006333739,0.7501967999851331
RSVPLG03,km,20260219-155017,1.0.2,20251113-095759,770,Experiment,Both,1,Automatic,main,15,20260219-155241,global,local,300,S,S,A,E,S-A.png,E-S.png,sS,sS,mask-2.png,mask-3.png,s,1,0.7924086999846622,s,1,0.12224149995017797,0.05096729996148497,0.05162609997205436,0.09986529999878258,0.10108910000417382,0.2985294000245631
RSVPLG03,km,20260219-155017,1.0.2,20251113-095759,770,Experiment,Both,1,Automatic,main,16,20260219-155246,local,global,300,S,S,E,E,E-S.png,S-E.png,sS,sS,mask-3.png,mask-4.png,s,1,1.331289800000377,h,0,0.8621617000317201,0.05062670004554093,0.04879349994007498,0.10047340008895844,0.09889419993851334,0.2997408000519499
RSVPLG03,km,20260219-155017,1.0.2,20251113-095759,770,Experiment,Both,1,Automatic,main,17,20260219-155252,local,global,750,S,H,E,A,E-S.png,H-A.png,sS,hH,mask-1.png,mask-1.png,s,1,1.1538455999689177,s,0,0.5906704999506474,0.05182910000439733,0.05003420007415116,0.10028160002548248,0.10165860003326088,0.7482548999832943
RSVPLG03,km,20260219-155017,1.0.2,20251113-095759,770,Experiment,Both,1,Automatic,main,18,20260219-155258,global,local,300,H,S,E,A,H-E.png,A-S.png,hH,sS,mask-1.png,mask-2.png,h,1,0.8739975000498816,h,0,0.28632690000813454,0.050314599997363985,0.05014820001088083,0.0984834999544546,0.10000039997976273,0.299804599955678
RSVPLG03,km,20260219-155017,1.0.2,20251113-095759,770,Experiment,Both,1,Automatic,main,19,20260219-155303,global,global,750,S,S,A,A,S-A.png,S-A.png,sS,sS,mask-3.png,mask-4.png,s,1,0.8005296000046656,s,1,0.23844039998948574,0.04891580005642027,0.048607900040224195,0.09865470009390265,0.0996582000516355,0.7498072000453249
RSVPLG03,km,20260219-155017,1.0.2,20251113-095759,770,Experiment,Both,1,Automatic,main,20,20260219-155308,global,global,300,H,S,A,A,H-A.png,S-A.png,hH,sS,mask-3.png,mask-2.png,s,0,0.9532666999148205,s,1,1.2008396999444813,0.049258199986070395,0.04988579999189824,0.09924480004701763,0.09969760000240058,0.3000984999816865
RSVPLG03,km,20260219-155017,1.0.2,20251113-095759,770,Experiment,Both,1,Automatic,main,21,20260219-155314,local,global,300,H,S,E,A,E-H.png,S-A.png,hH,sS,mask-4.png,mask-3.png,h,1,1.9768135000485927,s,1,0.9357838000869378,0.049182499991729856,0.04878199996892363,0.09941819997038692,0.09981289994902909,0.29958980006631464
RSVPLG03,km,20260219-155017,1.0.2,20251113-095759,770,Experiment,Both,1,Automatic,main,22,20260219-155320,global,global,300,H,H,E,A,H-E.png,H-A.png,hH,hH,mask-2.png,mask-1.png,h,1,1.0250196000561118,h,1,0.3030106999212876,0.050108800060115755,0.0501564999576658,0.10119010007474571,0.1047582000028342,0.29923650005366653
RSVPLG03,km,20260219-155017,1.0.2,20251113-095759,770,Experiment,Both,1,Automatic,main,23,20260219-155325,global,global,750,S,S,E,A,S-E.png,S-A.png,sS,sS,mask-1.png,mask-2.png,s,1,1.6367242999840528,s,1,0.31713640002999455,0.04997890000231564,0.04913709999527782,0.10010480007622391,0.09887119999621063,0.7493221000768244
RSVPLG03,km,20260219-155017,1.0.2,20251113-095759,770,Experiment,Both,1,Automatic,main,24,20260219-155331,local,local,750,S,H,E,A,E-S.png,A-H.png,sS,hH,mask-4.png,mask-2.png,s,1,4.3215055000036955,h,1,0.4707136999350041,0.04967640002723783,0.05024850007612258,0.09987599996384233,0.09950570005457848,0.7489076999481767
RSVPLG03,km,20260219-155017,1.0.2,20251113-095759,770,Experiment,Both,1,Automatic,main,25,20260219-155340,local,global,300,S,S,A,A,A-S.png,S-A.png,sS,sS,mask-2.png,mask-1.png,s,1,2.0340974000282586,h,0,0.4499121999833733,0.0484552999259904,0.049547200091183186,0.10006609989795834,0.09820930007845163,0.29945919988676906
RSVPLG03,km,20260219-155017,1.0.2,20251113-095759,770,Experiment,Both,1,Automatic,main,26,20260219-155409,local,local,750,H,H,E,E,E-H.png,E-H.png,hH,hH,mask-4.png,mask-4.png,h,1,0.6985600999323651,h,1,0.24617459997534752,0.050806500017642975,0.049428400001488626,0.10034400003496557,0.10128529998473823,0.7487228000536561
RSVPLG03,km,20260219-155017,1.0.2,20251113-095759,770,Experiment,Both,1,Automatic,main,27,20260219-155414,local,local,300,H,S,E,A,E-H.png,A-S.png,hH,sS,mask-1.png,mask-4.png,h,1,0.822678100084886,s,1,0.3063434000359848,0.04919920000247657,0.04920849995687604,0.0982110999757424,0.09975819999817759,0.29878119996283203
RSVPLG03,km,20260219-155017,1.0.2,20251113-095759,770,Experiment,Both,1,Automatic,main,28,20260219-155419,global,local,300,H,H,A,A,H-A.png,A-H.png,hH,hH,mask-2.png,mask-3.png,h,1,1.604488999932073,s,0,0.31269300007261336,0.050181200029328465,0.05070779996458441,0.10104810004122555,0.09955629997421056,0.2998652000678703
RSVPLG03,km,20260219-155017,1.0.2,20251113-095759,770,Experiment,Both,1,Automatic,main,29,20260219-155425,local,global,750,H,S,A,A,A-H.png,S-A.png,hH,sS,mask-3.png,mask-2.png,h,1,1.5899057999486104,h,0,0.3207719000056386,0.049424100085161626,0.051665800041519105,0.10010000003967434,0.10090130008757114,0.7478577999863774
RSVPLG03,km,20260219-155017,1.0.2,20251113-095759,770,Experiment,Both,1,Automatic,main,30,20260219-155431,global,global,750,S,H,A,A,S-A.png,H-A.png,sS,hH,mask-1.png,mask-2.png,h,0,0.6690933000063524,h,1,1.0089295000070706,0.05041780008468777,0.04978779994416982,0.09942490002140403,0.09979619993828237,0.7499192000832409
RSVPLG03,km,20260219-155017,1.0.2,20251113-095759,770,Experiment,Both,1,Automatic,main,31,20260219-155437,local,local,300,H,S,E,A,E-H.png,A-S.png,hH,sS,mask-1.png,mask-4.png,h,1,0.8806202000705525,s,1,0.13123339996673167,0.049853499978780746,0.04856859997380525,0.10031920007895678,0.09976159990765154,0.3009844000916928
RSVPLG03,km,20260219-155017,1.0.2,20251113-095759,770,Experiment,Both,1,Automatic,main,32,20260219-155441,local,local,750,S,S,A,A,A-S.png,A-S.png,sS,sS,mask-1.png,mask-3.png,s,1,0.533549299929291,s,1,0.1447213999927044,0.05121790000703186,0.0497165999840945,0.10113920003641397,0.09931050008162856,0.7507734999526292
RSVPLG03,km,20260219-155017,1.0.2,20251113-095759,770,Experiment,Both,1,Automatic,main,33,20260219-155446,global,local,750,S,S,E,E,S-E.png,E-S.png,sS,sS,mask-1.png,mask-2.png,s,1,0.7241474000038579,s,1,0.3181346000637859,0.05020609998609871,0.04948970000259578,0.100370500003919,0.09926709998399019,0.7503751000622287
RSVPLG03,km,20260219-155017,1.0.2,20251113-095759,770,Experiment,Both,1,Automatic,main,34,20260219-155451,global,local,750,S,S,A,E,S-A.png,E-S.png,sS,sS,mask-3.png,mask-3.png,s,1,0.507293300004676,s,1,0.20924590004142374,0.050153100048191845,0.04960249993018806,0.10159920004662126,0.09873149998020381,0.7498232000507414
RSVPLG03,km,20260219-155017,1.0.2,20251113-095759,770,Experiment,Both,1,Automatic,main,35,20260219-155456,local,local,750,S,S,A,A,A-S.png,A-S.png,sS,sS,mask-1.png,mask-4.png,s,1,0.4515210000099614,s,1,0.2503026999766007,0.04986200004350394,0.049556800047867,0.09991200000513345,0.10070850001648068,0.7489425999810919
RSVPLG03,km,20260219-155017,1.0.2,20251113-095759,770,Experiment,Both,1,Automatic,main,36,20260219-155501,local,local,300,H,S,E,E,E-H.png,E-S.png,hH,sS,mask-1.png,mask-1.png,h,1,1.2451223999960348,s,1,0.2884313000831753,0.04989190003834665,0.05038240004796535,0.10033099993597716,0.10064470011275262,0.2986849999288097
RSVPLG03,km,20260219-155017,1.0.2,20251113-095759,770,Experiment,Both,1,Automatic,main,37,20260219-155507,global,global,750,H,S,A,E,H-A.png,S-E.png,hH,sS,mask-1.png,mask-3.png,h,1,0.995159599930048,s,1,0.21542100002989173,0.04992700007278472,0.04952239990234375,0.10015549999661744,0.09874519996810704,0.7493682000786066
RSVPLG03,km,20260219-155017,1.0.2,20251113-095759,770,Experiment,Both,1,Automatic,main,38,20260219-155512,local,global,750,H,S,A,A,A-H.png,S-A.png,hH,sS,mask-4.png,mask-2.png,h,1,3.765450100065209,s,1,0.9075006999773905,0.050133600016124547,0.05101579998154193,0.09887710004113615,0.10058799991384149,0.7479782000882551
RSVPLG03,km,20260219-155017,1.0.2,20251113-095759,770,Experiment,Both,1,Automatic,main,39,20260219-155521,local,global,750,H,H,A,A,A-H.png,H-A.png,hH,hH,mask-4.png,mask-3.png,h,1,2.351066599949263,s,0,0.40018780005630106,0.05107679998036474,0.0510159000987187,0.10032650001812726,0.1000666000181809,0.7478683999506757
RSVPLG03,km,20260219-155017,1.0.2,20251113-095759,770,Experiment,Both,1,Automatic,main,40,20260219-155528,global,global,300,H,H,A,E,H-A.png,H-E.png,hH,hH,mask-3.png,mask-1.png,h,1,1.7046533999964595,h,1,0.9276108000194654,0.05122219992335886,0.05135359999258071,0.10020260000601411,0.10090560000389814,0.2996137000154704
RSVPLG03,km,20260219-155017,1.0.2,20251113-095759,770,Experiment,Both,1,Automatic,main,41,20260219-155534,global,global,300,S,H,A,E,S-A.png,H-E.png,sS,hH,mask-3.png,mask-4.png,s,1,1.3050020000664517,s,0,0.2990429999772459,0.05007350002415478,0.049462700029835105,0.09893839992582798,0.09941359993536025,0.2999324999982491
RSVPLG03,km,20260219-155017,1.0.2,20251113-095759,770,Experiment,Both,1,Automatic,main,42,20260219-155539,local,local,300,S,S,E,A,E-S.png,A-S.png,sS,sS,mask-2.png,mask-3.png,s,1,0.5975878000026569,s,1,0.12024139997083694,0.05010459991171956,0.04908530006650835,0.10161249991506338,0.10107189998961985,0.30055199994239956
RSVPLG03,km,20260219-155017,1.0.2,20251113-095759,770,Experiment,Both,1,Automatic,main,43,20260219-155544,local,local,750,H,S,A,E,A-H.png,E-S.png,hH,sS,mask-1.png,mask-3.png,h,1,0.9552123999455944,s,1,0.07460639998316765,0.049202100024558604,0.051375700044445693,0.0990118000190705,0.10052179999183863,0.74783310003113
RSVPLG03,km,20260219-155017,1.0.2,20251113-095759,770,Experiment,Both,1,Automatic,main,44,20260219-155549,local,local,300,H,S,E,E,E-H.png,E-S.png,hH,sS,mask-1.png,mask-1.png,h,1,1.1388343001017347,s,1,0.24164729996118695,0.049739800044335425,0.05308159999549389,0.10024379997048527,0.10217470000497997,0.2983276000013575
RSVPLG03,km,20260219-155017,1.0.2,20251113-095759,770,Experiment,Both,1,Automatic,main,45,20260219-155554,local,local,300,S,S,E,A,E-S.png,A-S.png,sS,sS,mask-3.png,mask-2.png,s,1,0.5847331999102607,s,1,0.1593538000015542,0.05020459997467697,0.05014240008313209,0.09861579991411418,0.0990363999735564,0.2991134999319911
RSVPLG03,km,20260219-155017,1.0.2,20251113-095759,770,Experiment,Both,1,Automatic,main,46,20260219-155558,local,local,750,S,H,A,E,A-S.png,E-H.png,sS,hH,mask-3.png,mask-4.png,s,1,0.8038688000524417,h,1,0.24138569994829595,0.05113800009712577,0.04940310004167259,0.10117080004420131,0.10023790004197508,0.7499682999914512
RSVPLG03,km,20260219-155017,1.0.2,20251113-095759,770,Experiment,Both,1,Automatic,main,47,20260219-155604,local,global,300,H,S,A,A,A-H.png,S-A.png,hH,sS,mask-1.png,mask-3.png,h,1,1.219916500034742,s,1,0.43873239995446056,0.050075899926014245,0.05177600006572902,0.09887549991253763,0.09967969998251647,0.2984261999372393
RSVPLG03,km,20260219-155017,1.0.2,20251113-095759,770,Experiment,Both,1,Automatic,main,48,20260219-155609,local,local,300,S,S,E,E,E-S.png,E-S.png,sS,sS,mask-1.png,mask-3.png,s,1,1.149381999974139,s,1,0.25482629996258765,0.04902949999086559,0.049348299973644316,0.09907640004530549,0.09921739995479584,0.3003813000395894
RSVPLG03,km,20260219-155017,1.0.2,20251113-095759,770,Experiment,Both,1,Automatic,main,49,20260219-155614,global,local,300,S,H,A,E,S-A.png,E-H.png,sS,hH,mask-4.png,mask-2.png,s,1,0.6576962000690401,h,1,0.5135585999814793,0.047779700020328164,0.049468599958345294,0.09869799995794892,0.09834529994986951,0.2991442000493407
RSVPLG03,km,20260219-155017,1.0.2,20251113-095759,770,Experiment,Both,1,Automatic,main,50,20260219-155619,local,global,300,H,H,A,A,A-H.png,H-A.png,hH,hH,mask-4.png,mask-2.png,h,1,1.255865899962373,h,1,0.692632400081493,0.049958799965679646,0.04894160002004355,0.10029540001414716,0.09891840000636876,0.30144640000071377
RSVPLG03,km,20260219-155017,1.0.2,20251113-095759,770,Experiment,Both,1,Automatic,main,51,20260219-155640,local,global,750,H,S,A,E,A-H.png,S-E.png,hH,sS,mask-2.png,mask-3.png,h,1,1.5708338000113145,h,0,0.44208359997719526,0.05032229993958026,0.050428600050508976,0.10116799990646541,0.10013300005812198,0.7498179998947307
RSVPLG03,km,20260219-155017,1.0.2,20251113-095759,770,Experiment,Both,1,Automatic,main,52,20260219-155646,local,global,300,S,S,E,A,E-S.png,S-A.png,sS,sS,mask-1.png,mask-3.png,s,1,1.0062183000845835,h,0,0.657746099983342,0.05157220002729446,0.04934469994623214,0.10020390001591295,0.09886659996118397,0.3002044000895694
RSVPLG03,km,20260219-155017,1.0.2,20251113-095759,770,Experiment,Both,1,Automatic,main,53,20260219-155652,global,global,750,S,S,E,A,S-E.png,S-A.png,sS,sS,mask-4.png,mask-2.png,s,1,0.4539033999899402,s,1,0.12908730003982782,0.04816370003391057,0.04902919998858124,0.09759100002702326,0.10057519993279129,0.747982700006105
RSVPLG03,km,20260219-155017,1.0.2,20251113-095759,770,Experiment,Both,1,Automatic,main,54,20260219-155657,global,global,750,H,S,E,A,H-E.png,S-A.png,hH,sS,mask-4.png,mask-2.png,h,1,2.4097882999340072,s,1,0.29652570001780987,0.049708800041116774,0.05127080006059259,0.09835109999403358,0.09898969996720552,0.7484440000262111
RSVPLG03,km,20260219-155017,1.0.2,20251113-095759,770,Experiment,Both,1,Automatic,main,55,20260219-155703,local,local,300,H,S,E,E,E-H.png,E-S.png,hH,sS,mask-1.png,mask-4.png,h,1,3.014357200008817,h,0,0.31878270010929555,0.04937880008947104,0.050263999961316586,0.09843330003786832,0.10091859998647124,0.2981229000724852
RSVPLG03,km,20260219-155017,1.0.2,20251113-095759,770,Experiment,Both,1,Automatic,main,56,20260219-155711,global,global,750,H,S,A,A,H-A.png,S-A.png,hH,sS,mask-1.png,mask-2.png,h,1,0.6226305000018328,s,1,0.08737899991683662,0.049576399964280427,0.048517300048843026,0.10115549992769957,0.10014230001252145,0.7506172999273986
RSVPLG03,km,20260219-155017,1.0.2,20251113-095759,770,Experiment,Both,1,Automatic,main,57,20260219-155715,global,local,300,H,S,E,E,H-E.png,E-S.png,hH,sS,mask-4.png,mask-2.png,s,0,0.8538905000314116,s,1,0.40904189995490015,0.04950939991977066,0.05211549997329712,0.09856369998306036,0.10098920005839318,0.29868609993718565
RSVPLG03,km,20260219-155017,1.0.2,20251113-095759,770,Experiment,Both,1,Automatic,main,58,20260219-155720,global,global,300,H,S,A,E,H-A.png,S-E.png,hH,sS,mask-4.png,mask-3.png,h,1,0.6442876999499276,s,1,0.5128364000702277,0.05099100002553314,0.04872110008727759,0.10088079993147403,0.0996826000045985,0.3010559999383986
RSVPLG03,km,20260219-155017,1.0.2,20251113-095759,770,Experiment,Both,1,Automatic,main,59,20260219-155725,local,global,300,H,S,E,E,E-H.png,S-E.png,hH,sS,mask-4.png,mask-1.png,s,0,1.697352800052613,s,1,0.14549700007773936,0.04878749989438802,0.04904830001760274,0.10066099988762289,0.09901790006551892,0.30031679989770055
RSVPLG03,km,20260219-155017,1.0.2,20251113-095759,770,Experiment,Both,1,Automatic,main,60,20260219-155731,global,local,300,S,S,A,E,S-A.png,E-S.png,sS,sS,mask-2.png,mask-3.png,s,1,0.7035332000814378,s,1,1.2819366999901831,0.04892830003518611,0.050052099977619946,0.10000490001402795,0.10122699989005923,0.2979855000739917
RSVPLG03,km,20260219-155017,1.0.2,20251113-095759,770,Experiment,Both,1,Automatic,main,61,20260219-155737,local,global,750,S,H,A,E,A-S.png,H-E.png,sS,hH,mask-1.png,mask-3.png,s,1,1.5432675000047311,h,1,0.91328999993857,0.050752999959513545,0.04968280007597059,0.0999242999823764,0.09940840001218021,0.747801199904643
RSVPLG03,km,20260219-155017,1.0.2,20251113-095759,770,Experiment,Both,1,Automatic,main,62,20260219-155743,local,global,300,H,H,A,E,A-H.png,H-E.png,hH,hH,mask-3.png,mask-4.png,h,1,0.844125899951905,h,1,0.30214820010587573,0.04881279997061938,0.050255400012247264,0.09893909993115813,0.09984769998118281,0.2981294000055641
RSVPLG03,km,20260219-155017,1.0.2,20251113-095759,770,Experiment,Both,1,Automatic,main,63,20260219-155748,local,global,750,H,S,A,E,A-H.png,S-E.png,hH,sS,mask-2.png,mask-1.png,h,1,0.8249159000115469,h,0,0.2501870000269264,0.05005109997000545,0.049235900049097836,0.10027789999730885,0.09957409999333322,0.7488794999662787
RSVPLG03,km,20260219-155017,1.0.2,20251113-095759,770,Experiment,Both,1,Automatic,main,64,20260219-155753,local,global,750,S,S,A,A,A-S.png,S-A.png,sS,sS,mask-4.png,mask-2.png,h,0,0.9471921999938786,s,1,0.37349160003941506,0.049043199978768826,0.049950200016610324,0.09874950000084937,0.10063899995293468,0.7480177000397816
RSVPLG03,km,20260219-155017,1.0.2,20251113-095759,770,Experiment,Both,1,Automatic,main,65,20260219-155759,global,local,300,H,H,A,A,H-A.png,A-H.png,hH,hH,mask-1.png,mask-4.png,s,0,1.03515020001214,s,0,0.5151473999721929,0.049981300020590425,0.04964109999127686,0.09922740003094077,0.09900819999165833,0.30057490000035614
RSVPLG03,km,20260219-155017,1.0.2,20251113-095759,770,Experiment,Both,1,Automatic,main,66,20260219-155804,local,global,300,S,H,E,E,E-S.png,H-E.png,sS,hH,mask-1.png,mask-3.png,s,1,1.1809749999083579,h,1,0.5140473000938073,0.048040200024843216,0.05001030000858009,0.09941940009593964,0.1004650000249967,0.2988621999975294
RSVPLG03,km,20260219-155017,1.0.2,20251113-095759,770,Experiment,Both,1,Automatic,main,67,20260219-155810,local,local,300,S,H,A,E,A-S.png,E-H.png,sS,hH,mask-1.png,mask-2.png,s,1,1.7297265999950469,h,1,0.9062850000336766,0.050678999978117645,0.04955029999837279,0.10054649994708598,0.09931930003222078,0.30082639993634075
RSVPLG03,km,20260219-155017,1.0.2,20251113-095759,770,Experiment,Both,1,Automatic,main,68,20260219-155816,local,global,750,H,S,E,A,E-H.png,S-A.png,hH,sS,mask-1.png,mask-4.png,h,1,1.9574643999803811,s,1,0.4068547000642866,0.04995710006915033,0.05003200005739927,0.10034990007989109,0.10195850010495633,0.7469550999812782
RSVPLG03,km,20260219-155017,1.0.2,20251113-095759,770,Experiment,Both,1,Automatic,main,69,20260219-155822,global,global,750,S,H,A,E,S-A.png,H-E.png,sS,hH,mask-1.png,mask-2.png,s,1,0.5289974000770599,s,0,0.3204006999731064,0.049271500087343156,0.04895660001784563,0.09856830001808703,0.09956910007167608,0.7483643000014126
RSVPLG03,km,20260219-155017,1.0.2,20251113-095759,770,Experiment,Both,1,Automatic,main,70,20260219-155828,global,local,750,H,S,E,E,H-E.png,E-S.png,hH,sS,mask-4.png,mask-2.png,h,1,0.2993181999772787,h,0,0.8082922999747097,0.04962770000565797,0.050137899932451546,0.1009116000495851,0.10160119994543493,0.7481607000809163
RSVPLG03,km,20260219-155017,1.0.2,20251113-095759,770,Experiment,Both,1,Automatic,main,71,20260219-155833,local,local,750,S,H,A,A,A-S.png,A-H.png,sS,hH,mask-2.png,mask-4.png,h,0,0.6733875999925658,s,0,0.14497230004053563,0.05118040007073432,0.04764360003173351,0.10178240004461259,0.09840730007272214,0.7510881000198424
RSVPLG03,km,20260219-155017,1.0.2,20251113-095759,770,Experiment,Both,1,Automatic,main,72,20260219-155838,local,local,300,H,H,A,A,A-H.png,A-H.png,hH,hH,mask-2.png,mask-1.png,s,0,2.098110699909739,s,0,0.4647584999911487,0.048365000053308904,0.04910930001642555,0.09717270010150969,0.09815829992294312,0.2990893000969663
RSVPLG03,km,20260219-155017,1.0.2,20251113-095759,770,Experiment,Both,1,Automatic,main,73,20260219-155844,global,local,300,H,S,E,A,H-E.png,A-S.png,hH,sS,mask-1.png,mask-4.png,h,1,1.1049569000024348,h,0,0.2561510999221355,0.05117559991776943,0.04925160005223006,0.1001096999971196,0.10012540000025183,0.2993866999167949
RSVPLG03,km,20260219-155017,1.0.2,20251113-095759,770,Experiment,Both,1,Automatic,main,74,20260219-155849,local,global,750,H,H,E,E,E-H.png,H-E.png,hH,hH,mask-3.png,mask-3.png,h,1,0.8149328000145033,h,1,0.33753490005619824,0.05195399990770966,0.048741000005975366,0.100737200002186,0.09978960000444204,0.7495549999875948
RSVPLG03,km,20260219-155017,1.0.2,20251113-095759,770,Experiment,Both,1,Automatic,main,75,20260219-155855,global,global,300,H,H,E,E,H-E.png,H-E.png,hH,hH,mask-2.png,mask-4.png,s,0,0.5511185000650585,h,1,0.8068215000675991,0.04827970010228455,0.04901329998392612,0.09844160010106862,0.09826620004605502,0.2992984000593424
RSVPLG03,km,20260219-155017,1.0.2,20251113-095759,770,Experiment,Both,1,Automatic,main,76,20260219-155934,local,local,750,H,S,A,E,A-H.png,E-S.png,hH,sS,mask-3.png,mask-4.png,h,1,1.0534606999717653,s,1,0.35332049999851733,0.049357400042936206,0.050622700015082955,0.09925069997552782,0.0996010999660939,0.7495163000421599
RSVPLG03,km,20260219-155017,1.0.2,20251113-095759,770,Experiment,Both,1,Automatic,main,77,20260219-155939,global,local,300,S,S,E,E,S-E.png,E-S.png,sS,sS,mask-2.png,mask-1.png,s,1,0.7516934999730438,s,1,0.27058600005693734,0.05077269999310374,0.04978909995406866,0.10102509998250753,0.09958669997286052,0.2988632000051439
RSVPLG03,km,20260219-155017,1.0.2,20251113-095759,770,Experiment,Both,1,Automatic,main,78,20260219-155944,global,local,750,S,S,E,A,S-E.png,A-S.png,sS,sS,mask-2.png,mask-2.png,s,1,0.4723318999167532,s,1,0.3058417000574991,0.04833699995651841,0.049690399901010096,0.09817519993521273,0.0991101999534294,0.7478645000373945
RSVPLG03,km,20260219-155017,1.0.2,20251113-095759,770,Experiment,Both,1,Automatic,main,79,20260219-155949,local,local,750,S,S,A,E,A-S.png,E-S.png,sS,sS,mask-2.png,mask-4.png,s,1,0.5442736999830231,s,1,0.2361191000090912,0.0492693999549374,0.053154900087974966,0.09900200006086379,0.0999009000370279,0.7486811999697238
RSVPLG03,km,20260219-155017,1.0.2,20251113-095759,770,Experiment,Both,1,Automatic,main,80,20260219-155954,global,local,300,H,S,A,A,H-A.png,A-S.png,hH,sS,mask-1.png,mask-2.png,h,1,0.5846013999544084,h,0,0.3337533000158146,0.050595699925906956,0.051120800082571805,0.10116820002440363,0.10194640001282096,0.29900549992453307
RSVPLG03,km,20260219-155017,1.0.2,20251113-095759,770,Experiment,Both,1,Automatic,main,81,20260219-155959,global,global,750,S,S,A,A,S-A.png,S-A.png,sS,sS,mask-2.png,mask-1.png,s,1,0.5308059001108631,s,1,0.2041838999139145,0.048714400036260486,0.050099499989300966,0.09901080001145601,0.09921199991367757,0.7476796000264585
RSVPLG03,km,20260219-155017,1.0.2,20251113-095759,770,Experiment,Both,1,Automatic,main,82,20260219-160003,global,global,750,S,H,A,A,S-A.png,H-A.png,sS,hH,mask-3.png,mask-1.png,s,1,1.1571392000187188,h,1,0.25831750000361353,0.048182600061409175,0.049006200046278536,0.09938410005997866,0.10012830002233386,0.7482551999855787
RSVPLG03,km,20260219-155017,1.0.2,20251113-095759,770,Experiment,Both,1,Automatic,main,83,20260219-160009,local,global,300,H,S,E,A,E-H.png,S-A.png,hH,sS,mask-1.png,mask-1.png,s,0,1.195094299968332,h,0,0.9298019000561908,0.049938200041651726,0.050446400069631636,0.10003810003399849,0.10046600003261119,0.2989395000040531
RSVPLG03,km,20260219-155017,1.0.2,20251113-095759,770,Experiment,Both,1,Automatic,main,84,20260219-160015,global,local,750,S,S,A,A,S-A.png,A-S.png,sS,sS,mask-3.png,mask-3.png,s,1,1.4566454000305384,s,1,0.44316270004492253,0.052422899985685945,0.05125000001862645,0.10098300001118332,0.10087449999991804,0.7491286000004038
RSVPLG03,km,20260219-155017,1.0.2,20251113-095759,770,Experiment,Both,1,Automatic,main,85,20260219-160021,global,local,750,S,S,E,A,S-E.png,A-S.png,sS,sS,mask-1.png,mask-3.png,s,1,1.2402197000337765,h,0,0.126773800002411,0.050299700000323355,0.050415300065651536,0.10154109995346516,0.09923749999143183,0.749806199921295
RSVPLG03,km,20260219-155017,1.0.2,20251113-095759,770,Experiment,Both,1,Automatic,main,86,20260219-160027,global,local,750,S,S,A,E,S-A.png,E-S.png,sS,sS,mask-4.png,mask-1.png,s,1,0.5047898000339046,s,1,0.27396899997256696,0.04985189996659756,0.05162470007780939,0.10012670001015067,0.10068540007341653,0.748589999973774
RSVPLG03,km,20260219-155017,1.0.2,20251113-095759,770,Experiment,Both,1,Automatic,main,87,20260219-160031,global,local,750,S,H,E,E,S-E.png,E-H.png,sS,hH,mask-3.png,mask-1.png,s,1,0.7124358000000939,h,1,0.38628720003180206,0.0499269999563694,0.050134000019170344,0.10036669997498393,0.09925149998161942,0.7496530999196693
RSVPLG03,km,20260219-155017,1.0.2,20251113-095759,770,Experiment,Both,1,Automatic,main,88,20260219-160037,local,local,300,S,H,A,A,A-S.png,A-H.png,sS,hH,mask-1.png,mask-1.png,s,1,2.0311325000366196,h,1,0.35365760000422597,0.0500637999502942,0.050909899990074337,0.10017849993892014,0.10000569990370423,0.29964350000955164
RSVPLG03,km,20260219-155017,1.0.2,20251113-095759,770,Experiment,Both,1,Automatic,main,89,20260219-160043,global,local,300,S,H,A,A,S-A.png,A-H.png,sS,hH,mask-4.png,mask-1.png,s,1,1.1711835999740288,h,1,0.3541510000359267,0.04839149990584701,0.05006320006214082,0.10033789998851717,0.10124830005224794,0.2977352999150753
RSVPLG03,km,20260219-155017,1.0.2,20251113-095759,770,Experiment,Both,1,Automatic,main,90,20260219-160048,global,global,300,S,H,A,E,S-A.png,H-E.png,sS,hH,mask-1.png,mask-4.png,s,1,1.2922394999768585,h,1,0.26425199990626425,0.04887209995649755,0.04757430008612573,0.09943039994686842,0.09726960002444685,0.3008593999547884
RSVPLG03,km,20260219-155017,1.0.2,20251113-095759,770,Experiment,Both,1,Automatic,main,91,20260219-160053,global,global,300,H,S,E,E,H-E.png,S-E.png,hH,sS,mask-3.png,mask-1.png,h,1,2.1394297999795526,h,0,0.5943269999697804,0.04896849999204278,0.04962179996073246,0.09794570005033165,0.10025280003901571,0.29796400002669543
RSVPLG03,km,20260219-155017,1.0.2,20251113-095759,770,Experiment,Both,1,Automatic,main,92,20260219-160100,global,local,750,H,H,E,E,H-E.png,E-H.png,hH,hH,mask-1.png,mask-1.png,h,1,0.8407612999435514,h,1,0.28902090003248304,0.05077759991399944,0.050163300009444356,0.10108509997371584,0.09885229996871203,0.7488507999805734
RSVPLG03,km,20260219-155017,1.0.2,20251113-095759,770,Experiment,Both,1,Automatic,main,93,20260219-160105,local,global,300,S,H,A,E,A-S.png,H-E.png,sS,hH,mask-1.png,mask-3.png,s,1,1.8804139000130817,s,0,0.5182895999168977,0.050459499936550856,0.05101489997468889,0.10040999995544553,0.09885309997480363,0.29870719998143613
RSVPLG03,km,20260219-155017,1.0.2,20251113-095759,770,Experiment,Both,1,Automatic,main,94,20260219-160111,global,global,300,H,S,A,A,H-A.png,S-A.png,hH,sS,mask-4.png,mask-1.png,h,1,1.5298086000839248,s,1,0.32806470000650734,0.0506154999602586,0.05080279998946935,0.09911519999150187,0.10233180003706366,0.2990758999949321
RSVPLG03,km,20260219-155017,1.0.2,20251113-095759,770,Experiment,Both,1,Automatic,main,95,20260219-160117,global,global,300,H,S,E,A,H-E.png,S-A.png,hH,sS,mask-2.png,mask-3.png,h,1,2.421452699927613,s,1,0.3416180000640452,0.04781469993758947,0.05012000002898276,0.09917009994387627,0.09877929999493062,0.2980944999726489
RSVPLG03,km,20260219-155017,1.0.2,20251113-095759,770,Experiment,Both,1,Automatic,main,96,20260219-160124,global,local,750,H,H,E,E,H-E.png,E-H.png,hH,hH,mask-3.png,mask-4.png,h,1,1.1278485999209806,h,1,0.2969449000665918,0.05129470000974834,0.04937590006738901,0.09931159997358918,0.09899740002583712,0.7505554999224842
RSVPLG03,km,20260219-155017,1.0.2,20251113-095759,770,Experiment,Both,1,Automatic,main,97,20260219-160129,global,global,750,H,H,E,E,H-E.png,H-E.png,hH,hH,mask-4.png,mask-3.png,h,1,0.7035804999759421,h,1,0.27295909996610135,0.048760199919342995,0.049555999925360084,0.09877799998503178,0.09855799993965775,0.7492056000046432
RSVPLG03,km,20260219-155017,1.0.2,20251113-095759,770,Experiment,Both,1,Automatic,main,98,20260219-160134,local,global,750,H,S,E,E,E-H.png,S-E.png,hH,sS,mask-4.png,mask-1.png,h,1,2.0003448000643402,h,0,0.27091699989978224,0.04946200002450496,0.049656499992124736,0.09825559996534139,0.10106869996525347,0.7474625000031665
RSVPLG03,km,20260219-155017,1.0.2,20251113-095759,770,Experiment,Both,1,Automatic,main,99,20260219-160141,global,global,300,H,H,A,E,H-A.png,H-E.png,hH,hH,mask-2.png,mask-3.png,h,1,0.77553840004839,s,0,0.7224872999358922,0.05079250002745539,0.048225099919363856,0.09937569999601692,0.09921339992433786,0.29952580004464835
RSVPLG03,km,20260219-155017,1.0.2,20251113-095759,770,Experiment,Both,1,Automatic,main,100,20260219-160146,global,local,750,H,H,A,E,H-A.png,E-H.png,hH,hH,mask-1.png,mask-3.png,h,1,0.6474107000976801,s,0,0.12836620002053678,0.04884740000125021,0.04964730003848672,0.09956739994231611,0.0981210001045838,0.7493034999351948
RSVPLG03,km,20260219-160640,1.0.2,20251113-095759,770,Experiment,Both,1,Automatic,warmup,1,20260219-160722,local,global,750,H,S,E,E,E-H.png,S-E.png,hH,sS,mask-1.png,mask-3.png,h,1,1.0800619999645278,s,1,0.30205030005890876,0.04881910001859069,0.04967670002952218,0.0992843999993056,0.09945010009687394,0.748256399994716
RSVPLG03,km,20260219-160640,1.0.2,20251113-095759,770,Experiment,Both,1,Automatic,warmup,2,20260219-160728,local,local,750,H,S,E,E,E-H.png,E-S.png,hH,sS,mask-3.png,mask-4.png,s,0,0.783172499970533,s,1,0.30153520009480417,0.04929889994673431,0.04972560005262494,0.0998533999081701,0.09957359998952597,0.7493191999383271
RSVPLG03,km,20260219-160640,1.0.2,20251113-095759,770,Experiment,Both,1,Automatic,warmup,3,20260219-160733,global,global,750,H,H,A,A,H-A.png,H-A.png,hH,hH,mask-3.png,mask-3.png,h,1,0.4601289000129327,h,1,0.3044372999574989,0.05068539991043508,0.04892430000472814,0.09902749990578741,0.09894020005594939,0.7501276999246329
RSVPLG03,km,20260219-160640,1.0.2,20251113-095759,770,Experiment,Both,1,Automatic,warmup,4,20260219-160738,local,global,300,S,H,A,E,A-S.png,H-E.png,sS,hH,mask-4.png,mask-4.png,s,1,2.3638406000100076,h,1,0.5760961999185383,0.04843700001947582,0.05044730007648468,0.09823889995459467,0.0999308000318706,0.2985288999043405
RSVPLG03,km,20260219-160640,1.0.2,20251113-095759,770,Experiment,Both,1,Automatic,main,5,20260219-160744,local,global,750,S,H,E,E,E-S.png,H-E.png,sS,hH,mask-2.png,mask-1.png,h,0,1.3901050999993458,s,0,0.26990409998688847,0.050053799990564585,0.0503894001012668,0.10043160000350326,0.10038820002228022,0.750942699960433
RSVPLG03,km,20260219-160640,1.0.2,20251113-095759,770,Experiment,Both,1,Automatic,main,6,20260219-160750,global,global,300,H,H,A,A,H-A.png,H-A.png,hH,hH,mask-3.png,mask-1.png,h,1,2.5372644999297336,h,1,0.28852060006465763,0.04804520006291568,0.048871399951167405,0.09801730001345277,0.0983781999675557,0.3007994000799954
RSVPLG03,km,20260219-160640,1.0.2,20251113-095759,770,Experiment,Both,1,Automatic,main,7,20260219-160757,local,local,300,S,S,E,A,E-S.png,A-S.png,sS,sS,mask-4.png,mask-3.png,s,1,0.9366265001008287,s,1,0.2417468000203371,0.04843889991752803,0.04939550010021776,0.09845149994362146,0.10086370003409684,0.29820819990709424
RSVPLG03,km,20260219-160640,1.0.2,20251113-095759,770,Experiment,Both,1,Automatic,main,8,20260219-160802,local,global,750,S,H,A,A,A-S.png,H-A.png,sS,hH,mask-1.png,mask-3.png,s,1,2.6322793000144884,h,1,0.2693451000377536,0.05027500004507601,0.04936599999200553,0.09875600005034357,0.0997480999212712,0.7485999000491574
RSVPLG03,km,20260219-160640,1.0.2,20251113-095759,770,Experiment,Both,1,Automatic,main,9,20260219-160809,local,local,750,S,H,A,E,A-S.png,E-H.png,sS,hH,mask-3.png,mask-1.png,s,1,0.4608056000433862,h,1,0.22121240000706166,0.049461100017651916,0.05077269999310374,0.09944060002453625,0.10060739994514734,0.7484123000176623
RSVPLG03,km,20260219-160640,1.0.2,20251113-095759,770,Experiment,Both,1,Automatic,main,10,20260219-160814,global,local,300,S,H,E,A,S-E.png,A-H.png,sS,hH,mask-4.png,mask-3.png,s,1,0.8176569999195635,s,0,0.46283889992628247,0.04991239996161312,0.048695000004954636,0.10044730000663549,0.09993430005852133,0.300954099977389
RSVPLG03,km,20260219-160640,1.0.2,20251113-095759,770,Experiment,Both,1,Automatic,main,11,20260219-160819,global,global,750,S,H,E,E,S-E.png,H-E.png,sS,hH,mask-1.png,mask-4.png,h,0,0.8189787999726832,h,1,0.3167746999533847,0.04996229999233037,0.04914810007903725,0.09977480000816286,0.09947700006887317,0.7479966999962926
RSVPLG03,km,20260219-160640,1.0.2,20251113-095759,770,Experiment,Both,1,Automatic,main,12,20260219-160824,global,global,300,H,S,A,A,H-A.png,S-A.png,hH,sS,mask-3.png,mask-3.png,h,1,0.8899078000104055,s,1,0.11181300005409867,0.04981560003943741,0.04922509996686131,0.09988250001333654,0.09856009995564818,0.30055829999037087
RSVPLG03,km,20260219-160640,1.0.2,20251113-095759,770,Experiment,Both,1,Automatic,main,13,20260219-160829,global,local,750,H,H,A,A,H-A.png,A-H.png,hH,hH,mask-4.png,mask-3.png,h,1,0.9611001000739634,h,1,0.3048033000668511,0.05071890004910529,0.05135349999181926,0.09927980008069426,0.09994219988584518,0.7490802000975236
RSVPLG03,km,20260219-160640,1.0.2,20251113-095759,770,Experiment,Both,1,Automatic,main,14,20260219-160834,local,global,300,H,S,A,E,A-H.png,S-E.png,hH,sS,mask-4.png,mask-4.png,h,1,0.9638414999935776,s,1,0.6074426000704989,0.0487664999673143,0.04894929996225983,0.09974209999199957,0.09888039994984865,0.300118500017561
RSVPLG03,km,20260219-160640,1.0.2,20251113-095759,770,Experiment,Both,1,Automatic,main,15,20260219-160839,global,global,750,S,S,E,E,S-E.png,S-E.png,sS,sS,mask-4.png,mask-2.png,s,1,0.8353949999436736,s,1,0.4623364999424666,0.049237399944104254,0.04983060003723949,0.09947889996692538,0.09815370000433177,0.7502341999206692
RSVPLG03,km,20260219-160640,1.0.2,20251113-095759,770,Experiment,Both,1,Automatic,main,16,20260219-160845,local,local,300,S,H,A,A,A-S.png,A-H.png,sS,hH,mask-2.png,mask-2.png,s,1,2.0213317000307143,h,1,0.32053070003166795,0.049028699984773993,0.051766699994914234,0.09869100002106279,0.10121340001933277,0.29710199998226017
RSVPLG03,km,20260219-160640,1.0.2,20251113-095759,770,Experiment,Both,1,Automatic,main,17,20260219-160851,global,global,300,S,S,E,E,S-E.png,S-E.png,sS,sS,mask-2.png,mask-3.png,s,1,0.9825218999758363,s,1,0.35051389993168414,0.04712090000975877,0.04869160009548068,0.09998960001394153,0.09919840004295111,0.29872409999370575
RSVPLG03,km,20260219-160640,1.0.2,20251113-095759,770,Experiment,Both,1,Automatic,main,18,20260219-160856,global,local,750,S,H,E,E,S-E.png,E-H.png,sS,hH,mask-1.png,mask-2.png,s,1,0.990910500055179,s,0,0.44928479997906834,0.05085670005064458,0.04956980003044009,0.10140000004321337,0.09927599993534386,0.7508794000605121
RSVPLG03,km,20260219-160640,1.0.2,20251113-095759,770,Experiment,Both,1,Automatic,main,19,20260219-160902,global,local,300,H,H,E,A,H-E.png,A-H.png,hH,hH,mask-3.png,mask-3.png,h,1,0.8124965999741107,h,1,0.25469250010792166,0.04882009990978986,0.0501763999927789,0.10135219991207123,0.09995040006469935,0.29988989990670234
RSVPLG03,km,20260219-160640,1.0.2,20251113-095759,770,Experiment,Both,1,Automatic,main,20,20260219-160907,global,global,750,S,H,E,E,S-E.png,H-E.png,sS,hH,mask-4.png,mask-3.png,s,1,1.0051806999836117,h,1,0.3346068999962881,0.05000399996060878,0.0476651000790298,0.09906489995773882,0.10018539999146014,0.7497047999640927
RSVPLG03,km,20260219-160640,1.0.2,20251113-095759,770,Experiment,Both,1,Automatic,main,21,20260219-160912,global,local,300,S,S,A,E,S-A.png,E-S.png,sS,sS,mask-1.png,mask-3.png,s,1,0.6248960000229999,s,1,0.2407468999736011,0.05111399991437793,0.048665099893696606,0.10087309998925775,0.09994139999616891,0.3000250000040978
RSVPLG03,km,20260219-160640,1.0.2,20251113-095759,770,Experiment,Both,1,Automatic,main,22,20260219-160917,global,global,300,S,S,A,E,S-A.png,S-E.png,sS,sS,mask-2.png,mask-3.png,s,1,0.9461654999759048,s,1,0.28524610004387796,0.05002600001171231,0.049705800018273294,0.09917890001088381,0.0985601000720635,0.3001397999469191
RSVPLG03,km,20260219-160640,1.0.2,20251113-095759,770,Experiment,Both,1,Automatic,main,23,20260219-160922,global,global,300,S,S,A,E,S-A.png,S-E.png,sS,sS,mask-4.png,mask-3.png,s,1,0.8304466999834403,s,1,0.3207190999528393,0.04825400002300739,0.05101709999144077,0.0984527999535203,0.10083580005448312,0.2976045999675989
RSVPLG03,km,20260219-160640,1.0.2,20251113-095759,770,Experiment,Both,1,Automatic,main,24,20260219-160927,global,global,750,S,S,A,E,S-A.png,S-E.png,sS,sS,mask-2.png,mask-4.png,s,1,0.5185247000772506,s,1,0.35413100000005215,0.05073300004005432,0.05008259997703135,0.09851450007408857,0.10090960003435612,0.7485202000243589
RSVPLG03,km,20260219-160640,1.0.2,20251113-095759,770,Experiment,Both,1,Automatic,main,25,20260219-160932,global,local,750,S,S,A,A,S-A.png,A-S.png,sS,sS,mask-3.png,mask-1.png,s,1,0.556010999949649,s,1,0.7671850000042468,0.050480299978516996,0.05021489993669093,0.09955120005179197,0.098129199934192,0.7495916000334546
RSVPLG03,km,20260219-160640,1.0.2,20251113-095759,770,Experiment,Both,1,Automatic,main,26,20260219-160950,global,global,750,S,S,A,A,S-A.png,S-A.png,sS,sS,mask-3.png,mask-3.png,s,1,0.4672864000312984,s,1,0.25565499998629093,0.050953199970535934,0.048437199904583395,0.10105910000856966,0.10043609992135316,0.7495157000375912
RSVPLG03,km,20260219-160640,1.0.2,20251113-095759,770,Experiment,Both,1,Automatic,main,27,20260219-160955,global,local,750,S,S,E,E,S-E.png,E-S.png,sS,sS,mask-4.png,mask-1.png,s,1,0.35151830001268536,s,1,0.29011289996560663,0.0484821000136435,0.049178400076925755,0.09868729999288917,0.09926370007451624,0.7498135999776423
RSVPLG03,km,20260219-160640,1.0.2,20251113-095759,770,Experiment,Both,1,Automatic,main,28,20260219-161000,global,local,750,H,S,E,E,H-E.png,E-S.png,hH,sS,mask-1.png,mask-2.png,h,1,0.9769981999415904,s,1,0.3503252000082284,0.048565100063569844,0.04969849996268749,0.09924490004777908,0.09845779999159276,0.7498225000454113
RSVPLG03,km,20260219-160640,1.0.2,20251113-095759,770,Experiment,Both,1,Automatic,main,29,20260219-161006,global,local,750,S,S,E,A,S-E.png,A-S.png,sS,sS,mask-1.png,mask-2.png,s,1,0.8238283999962732,s,1,0.30357770004775375,0.05003100004978478,0.05024699994828552,0.10091690008994192,0.10057979996781796,0.7501933000748977
RSVPLG03,km,20260219-160640,1.0.2,20251113-095759,770,Experiment,Both,1,Automatic,main,30,20260219-161011,local,local,750,S,S,A,A,A-S.png,A-S.png,sS,sS,mask-2.png,mask-3.png,s,1,0.608235799940303,s,1,0.2889833999797702,0.04978609993122518,0.04922459996305406,0.10033079993445426,0.09854309994261712,0.7504694999661297
RSVPLG03,km,20260219-160640,1.0.2,20251113-095759,770,Experiment,Both,1,Automatic,main,31,20260219-161016,global,global,300,S,S,A,A,S-A.png,S-A.png,sS,sS,mask-1.png,mask-2.png,s,1,1.0206436000298709,s,1,0.25468500005081296,0.04931679996661842,0.050047599943354726,0.0989498000126332,0.09934479999355972,0.30009150004480034
RSVPLG03,km,20260219-160640,1.0.2,20251113-095759,770,Experiment,Both,1,Automatic,main,32,20260219-161021,global,global,300,H,S,A,A,H-A.png,S-A.png,hH,sS,mask-4.png,mask-2.png,h,1,1.0230838999850675,h,0,0.8789501000428572,0.05093699996359646,0.04913399997167289,0.10106629994697869,0.09977349999826401,0.2990707999560982
RSVPLG03,km,20260219-160640,1.0.2,20251113-095759,770,Experiment,Both,1,Automatic,main,33,20260219-161027,global,local,300,H,H,A,A,H-A.png,A-H.png,hH,hH,mask-1.png,mask-2.png,h,1,0.6192135999444872,h,1,0.1911536999978125,0.04878279997501522,0.04971920000389218,0.09922960004769266,0.09851239994168282,0.2999379000393674
RSVPLG03,km,20260219-160640,1.0.2,20251113-095759,770,Experiment,Both,1,Automatic,main,34,20260219-161031,local,global,750,H,H,A,A,A-H.png,H-A.png,hH,hH,mask-1.png,mask-3.png,h,1,1.326597600011155,s,0,0.4315751000540331,0.04989259992726147,0.05012630007695407,0.10160319996066391,0.0999868999933824,0.750252699945122
RSVPLG03,km,20260219-160640,1.0.2,20251113-095759,770,Experiment,Both,1,Automatic,main,35,20260219-161037,local,local,300,S,S,E,E,E-S.png,E-S.png,sS,sS,mask-2.png,mask-2.png,s,1,1.3859481000108644,h,0,0.24030289996881038,0.04959229996893555,0.04898179997690022,0.0985763999633491,0.09961679996922612,0.29893280006945133
RSVPLG03,km,20260219-160640,1.0.2,20251113-095759,770,Experiment,Both,1,Automatic,main,36,20260219-161043,global,global,750,S,S,A,A,S-A.png,S-A.png,sS,sS,mask-2.png,mask-1.png,s,1,0.5337232999736443,s,1,0.24261890002526343,0.04975319991353899,0.04954309994354844,0.09883339994121343,0.09923769999295473,0.7501789999660105
RSVPLG03,km,20260219-160640,1.0.2,20251113-095759,770,Experiment,Both,1,Automatic,main,37,20260219-161048,global,global,300,S,H,E,A,S-E.png,H-A.png,sS,hH,mask-3.png,mask-1.png,s,1,0.8029737999895588,h,1,0.1889824999962002,0.05024829995818436,0.04992249992210418,0.10052330000326037,0.09770329995080829,0.3016625000163913
RSVPLG03,km,20260219-160640,1.0.2,20251113-095759,770,Experiment,Both,1,Automatic,main,38,20260219-161052,local,local,750,H,H,E,E,E-H.png,E-H.png,hH,hH,mask-3.png,mask-2.png,h,1,0.8628618000075221,h,1,0.27245639998000115,0.05076450004708022,0.049522899906151,0.10024440009146929,0.09994849993381649,0.749339000089094
RSVPLG03,km,20260219-160640,1.0.2,20251113-095759,770,Experiment,Both,1,Automatic,main,39,20260219-161058,local,global,750,H,S,A,A,A-H.png,S-A.png,hH,sS,mask-2.png,mask-3.png,h,1,0.7941228999989107,s,1,0.7655538000399247,0.05104170006234199,0.05036580003798008,0.09926500008441508,0.1010610000230372,0.7488086000084877
RSVPLG03,km,20260219-160640,1.0.2,20251113-095759,770,Experiment,Both,1,Automatic,main,40,20260219-161103,local,global,750,S,H,A,A,A-S.png,H-A.png,sS,hH,mask-1.png,mask-2.png,h,0,1.6143805000465363,s,0,0.33409850008320063,0.050162100000306964,0.04938650003168732,0.09953800006769598,0.09930980007629842,0.7492461999645457
RSVPLG03,km,20260219-160640,1.0.2,20251113-095759,770,Experiment,Both,1,Automatic,main,41,20260219-161110,local,local,750,S,S,A,E,A-S.png,E-S.png,sS,sS,mask-3.png,mask-4.png,s,1,0.6376339999260381,s,1,0.23992570000700653,0.04949810006655753,0.049650799948722124,0.10014510003384203,0.09864579990971833,0.7503348001046106
RSVPLG03,km,20260219-160640,1.0.2,20251113-095759,770,Experiment,Both,1,Automatic,main,42,20260219-161115,global,global,750,S,H,E,E,S-E.png,H-E.png,sS,hH,mask-4.png,mask-4.png,s,1,1.4670205999864265,h,1,0.4342276999959722,0.05097570002544671,0.049711600062437356,0.09982500004116446,0.0999316000379622,0.7505630999803543
RSVPLG03,km,20260219-160640,1.0.2,20251113-095759,770,Experiment,Both,1,Automatic,main,43,20260219-161121,local,global,300,S,H,E,A,E-S.png,H-A.png,sS,hH,mask-3.png,mask-3.png,s,1,2.78589300008025,s,0,0.21018120006192476,0.05152239999733865,0.05070459994021803,0.10007749998476356,0.10164529993198812,0.30010150000452995
RSVPLG03,km,20260219-160640,1.0.2,20251113-095759,770,Experiment,Both,1,Automatic,main,44,20260219-161128,local,local,300,S,H,E,A,E-S.png,A-H.png,sS,hH,mask-3.png,mask-1.png,s,1,1.227342400001362,h,1,0.41498749994207174,0.0499505999032408,0.0505187000380829,0.10001829999964684,0.10136960004456341,0.2978736999211833
RSVPLG03,km,20260219-160640,1.0.2,20251113-095759,770,Experiment,Both,1,Automatic,main,45,20260219-161133,local,global,750,S,S,A,E,A-S.png,S-E.png,sS,sS,mask-4.png,mask-3.png,s,1,3.528308999957517,h,0,0.3691287999972701,0.05038710008375347,0.049640399985946715,0.10036490007769316,0.1001033999491483,0.7494410000508651
RSVPLG03,km,20260219-160640,1.0.2,20251113-095759,770,Experiment,Both,1,Automatic,main,46,20260219-161141,global,global,300,H,H,E,A,H-E.png,H-A.png,hH,hH,mask-4.png,mask-4.png,h,1,0.8768413999350742,h,1,0.2550319000147283,0.051101300050504506,0.049990199971944094,0.10085739998612553,0.10056759999133646,0.3004321000771597
RSVPLG03,km,20260219-160640,1.0.2,20251113-095759,770,Experiment,Both,1,Automatic,main,47,20260219-161146,local,global,300,H,H,A,A,A-H.png,H-A.png,hH,hH,mask-2.png,mask-3.png,h,1,1.7825337001122534,h,1,0.8961562999757007,0.05012630007695407,0.04872289998456836,0.10090030007995665,0.09866289992351085,0.3013798000756651
RSVPLG03,km,20260219-160640,1.0.2,20251113-095759,770,Experiment,Both,1,Automatic,main,48,20260219-161152,local,local,300,S,S,A,E,A-S.png,E-S.png,sS,sS,mask-4.png,mask-2.png,s,1,0.9089488999452442,h,0,0.4021182000869885,0.04887349996715784,0.050197600037790835,0.0991530999308452,0.10002220002934337,0.2985668999608606
RSVPLG03,km,20260219-160640,1.0.2,20251113-095759,770,Experiment,Both,1,Automatic,main,49,20260219-161157,local,global,300,H,H,A,E,A-H.png,H-E.png,hH,hH,mask-2.png,mask-1.png,s,0,0.5843477000016719,h,1,0.7045951000181958,0.04862160002812743,0.050380999920889735,0.09937000006902963,0.10008090001065284,0.2991598000517115
RSVPLG03,km,20260219-160640,1.0.2,20251113-095759,770,Experiment,Both,1,Automatic,main,50,20260219-161203,local,global,300,S,S,A,E,A-S.png,S-E.png,sS,sS,mask-2.png,mask-3.png,s,1,0.7454494000412524,h,0,0.2536601999308914,0.048465300002135336,0.05078009993303567,0.09925790003035218,0.10019559995271266,0.29865500004962087
RSVPLG03,km,20260219-160640,1.0.2,20251113-095759,770,Experiment,Both,1,Automatic,main,51,20260219-161241,local,local,750,H,S,A,E,A-H.png,E-S.png,hH,sS,mask-3.png,mask-4.png,h,1,1.1402785000391304,s,1,0.2551337000913918,0.0499777999939397,0.050447899964638054,0.09792199998628348,0.10169020004104823,0.7475953999673948
RSVPLG03,km,20260219-160640,1.0.2,20251113-095759,770,Experiment,Both,1,Automatic,main,52,20260219-161247,local,local,300,H,H,A,A,A-H.png,A-H.png,hH,hH,mask-1.png,mask-2.png,h,1,1.010552900028415,h,1,0.25598110002465546,0.05077109998092055,0.04936129995621741,0.10074689995963126,0.09879069996532053,0.3012000999879092
RSVPLG03,km,20260219-160640,1.0.2,20251113-095759,770,Experiment,Both,1,Automatic,main,53,20260219-161252,local,global,300,H,H,A,A,A-H.png,H-A.png,hH,hH,mask-2.png,mask-2.png,h,1,0.9889113999670371,s,0,0.2896692000795156,0.04938300000503659,0.04943050001747906,0.10001240007113665,0.1004951000213623,0.3005029000341892
RSVPLG03,km,20260219-160640,1.0.2,20251113-095759,770,Experiment,Both,1,Automatic,main,54,20260219-161257,local,global,300,S,S,E,E,E-S.png,S-E.png,sS,sS,mask-4.png,mask-1.png,h,0,0.84992800001055,h,0,1.2780049999710172,0.05010019999463111,0.04915059998165816,0.09940649999771267,0.09911429998464882,0.3010636999970302
RSVPLG03,km,20260219-160640,1.0.2,20251113-095759,770,Experiment,Both,1,Automatic,main,55,20260219-161302,global,local,300,H,H,E,E,H-E.png,E-H.png,hH,hH,mask-1.png,mask-2.png,h,1,0.8706957999384031,s,0,0.04600380000192672,0.04970350000075996,0.04833219991996884,0.10010739997960627,0.09820499992929399,0.2999697000486776
RSVPLG03,km,20260219-160640,1.0.2,20251113-095759,770,Experiment,Both,1,Automatic,main,56,20260219-161307,local,local,300,S,S,E,A,E-S.png,A-S.png,sS,sS,mask-3.png,mask-2.png,s,1,0.9786815999541432,s,1,0.12774210004135966,0.05193790001794696,0.049524800037033856,0.10182730003725737,0.09914599999319762,0.3013051999732852
RSVPLG03,km,20260219-160640,1.0.2,20251113-095759,770,Experiment,Both,1,Automatic,main,57,20260219-161312,local,global,750,H,H,E,E,E-H.png,H-E.png,hH,hH,mask-3.png,mask-3.png,h,1,1.0410617999732494,h,1,0.6530591000337154,0.05034030007664114,0.050541500095278025,0.09976960008498281,0.10015110007952899,0.7487318000057712
RSVPLG03,km,20260219-160640,1.0.2,20251113-095759,770,Experiment,Both,1,Automatic,main,58,20260219-161318,global,local,300,H,H,E,A,H-E.png,A-H.png,hH,hH,mask-4.png,mask-1.png,h,1,0.6680999000091106,h,1,0.15795680007431656,0.05134080001153052,0.05108270002529025,0.1003896000329405,0.09921519993804395,0.3003764000022784
RSVPLG03,km,20260219-160640,1.0.2,20251113-095759,770,Experiment,Both,1,Automatic,main,59,20260219-161322,local,global,750,H,S,A,E,A-H.png,S-E.png,hH,sS,mask-1.png,mask-3.png,h,1,0.8183553999988362,s,1,0.546870999969542,0.049622499966062605,0.05059130000881851,0.10088419995736331,0.09993630007375032,0.7497769999317825
RSVPLG03,km,20260219-160640,1.0.2,20251113-095759,770,Experiment,Both,1,Automatic,main,60,20260219-161328,global,local,750,H,S,A,E,H-A.png,E-S.png,hH,sS,mask-1.png,mask-3.png,h,1,1.4693408999592066,s,1,0.4955098000355065,0.04942169995047152,0.04899860010482371,0.09955070004798472,0.09942760004196316,0.7506511999526992
RSVPLG03,km,20260219-160640,1.0.2,20251113-095759,770,Experiment,Both,1,Automatic,main,61,20260219-161334,global,global,750,S,H,A,E,S-A.png,H-E.png,sS,hH,mask-2.png,mask-4.png,s,1,0.9084049001103267,h,1,0.15721870004199445,0.04964230000041425,0.04865460004657507,0.09808579995296896,0.0993852000683546,0.7485271999612451
RSVPLG03,km,20260219-160640,1.0.2,20251113-095759,770,Experiment,Both,1,Automatic,main,62,20260219-161339,local,local,750,S,H,A,E,A-S.png,E-H.png,sS,hH,mask-4.png,mask-2.png,s,1,2.1787506999680772,h,1,0.29015740007162094,0.049915799987502396,0.048441699938848615,0.09894280007574707,0.09886149992235005,0.7494434000691399
RSVPLG03,km,20260219-160640,1.0.2,20251113-095759,770,Experiment,Both,1,Automatic,main,63,20260219-161346,local,local,750,S,S,E,E,E-S.png,E-S.png,sS,sS,mask-2.png,mask-3.png,s,1,0.9633113000309095,s,1,0.16256550000980496,0.05001320003066212,0.04850759997498244,0.0997687999624759,0.09939629992004484,0.7505873000482097
RSVPLG03,km,20260219-160640,1.0.2,20251113-095759,770,Experiment,Both,1,Automatic,main,64,20260219-161351,local,global,300,S,S,A,A,A-S.png,S-A.png,sS,sS,mask-4.png,mask-3.png,s,1,2.12312020000536,s,1,0.2734185999725014,0.050168000045232475,0.050309799960814416,0.09973140002693981,0.10027669998817146,0.29899180005304515
RSVPLG03,km,20260219-160640,1.0.2,20251113-095759,770,Experiment,Both,1,Automatic,main,65,20260219-161357,local,global,750,S,S,A,E,A-S.png,S-E.png,sS,sS,mask-2.png,mask-3.png,s,1,1.6721855000359938,s,1,0.4141124999150634,0.049403399927541614,0.050886400043964386,0.09912769997026771,0.10064880002755672,0.7489372999407351
RSVPLG03,km,20260219-160640,1.0.2,20251113-095759,770,Experiment,Both,1,Automatic,main,66,20260219-161404,local,global,300,H,H,A,E,A-H.png,H-E.png,hH,hH,mask-3.png,mask-3.png,h,1,1.0086909999372438,h,1,0.272019200026989,0.049929399974644184,0.05065029999241233,0.10127919993828982,0.10027870000340044,0.29930919990874827
RSVPLG03,km,20260219-160640,1.0.2,20251113-095759,770,Experiment,Both,1,Automatic,main,67,20260219-161409,local,global,300,H,H,A,E,A-H.png,H-E.png,hH,hH,mask-1.png,mask-4.png,h,1,0.7052597999572754,h,1,0.4974186000181362,0.05087929998990148,0.05049170006532222,0.09997789992485195,0.1004654000280425,0.3004133999347687
RSVPLG03,km,20260219-160640,1.0.2,20251113-095759,770,Experiment,Both,1,Automatic,main,68,20260219-161414,global,local,750,H,H,A,E,H-A.png,E-H.png,hH,hH,mask-3.png,mask-2.png,s,0,2.4020444999914616,h,1,0.1750166000565514,0.05011710000690073,0.04982040007598698,0.10085119993891567,0.1007378000067547,0.7481432999484241
RSVPLG03,km,20260219-160640,1.0.2,20251113-095759,770,Experiment,Both,1,Automatic,main,69,20260219-161420,local,local,300,S,H,A,A,A-S.png,A-H.png,sS,hH,mask-3.png,mask-4.png,s,1,0.8102366999955848,s,0,0.1567051000893116,0.05036410002503544,0.04876850009895861,0.100842299987562,0.09903260006103665,0.29980449995491654
RSVPLG03,km,20260219-160640,1.0.2,20251113-095759,770,Experiment,Both,1,Automatic,main,70,20260219-161425,global,local,300,H,S,A,E,H-A.png,E-S.png,hH,sS,mask-4.png,mask-2.png,h,1,0.8653143999399617,s,1,0.06288159999530762,0.048588600009679794,0.05010669992771,0.09836970001924783,0.10127899993676692,0.2978725000284612
RSVPLG03,km,20260219-160640,1.0.2,20251113-095759,770,Experiment,Both,1,Automatic,main,71,20260219-161430,global,local,300,H,H,E,E,H-E.png,E-H.png,hH,hH,mask-3.png,mask-1.png,h,1,0.8707555999280885,h,1,0.14243460004217923,0.04859759996179491,0.05044000002089888,0.09906040003988892,0.09872730006463826,0.2999596999725327
RSVPLG03,km,20260219-160640,1.0.2,20251113-095759,770,Experiment,Both,1,Automatic,main,72,20260219-161434,global,global,300,H,H,E,A,H-E.png,H-A.png,hH,hH,mask-2.png,mask-1.png,h,1,0.5573306999867782,h,1,0.19198759994469583,0.050695099984295666,0.04768089996650815,0.10161070001777261,0.09764819999691099,0.30125140002928674
RSVPLG03,km,20260219-160640,1.0.2,20251113-095759,770,Experiment,Both,1,Automatic,main,73,20260219-161439,local,local,300,H,H,E,E,E-H.png,E-H.png,hH,hH,mask-2.png,mask-4.png,h,1,1.255768800037913,h,1,0.401868199929595,0.04889750003349036,0.049184000003151596,0.09996430005412549,0.10048569994978607,0.2989767000544816
RSVPLG03,km,20260219-160640,1.0.2,20251113-095759,770,Experiment,Both,1,Automatic,main,74,20260219-161444,local,local,750,H,S,A,E,A-H.png,E-S.png,hH,sS,mask-4.png,mask-2.png,s,0,0.6919197000097483,s,1,0.36654140008613467,0.04889039997942746,0.048868700047023594,0.09866510005667806,0.09825269994325936,0.7491903000045568
RSVPLG03,km,20260219-160640,1.0.2,20251113-095759,770,Experiment,Both,1,Automatic,main,75,20260219-161449,global,global,750,S,S,E,A,S-E.png,S-A.png,sS,sS,mask-4.png,mask-1.png,h,0,1.7355271999258548,s,1,0.33576829999219626,0.049174000043421984,0.04862170002888888,0.1011762999696657,0.09941110003273934,0.7501208999892697
RSVPLG03,km,20260219-160640,1.0.2,20251113-095759,770,Experiment,Both,1,Automatic,main,76,20260219-161504,local,global,300,H,H,A,E,A-H.png,H-E.png,hH,hH,mask-2.png,mask-4.png,h,1,0.9986289999214932,h,1,0.1460961999837309,0.049224300077185035,0.04878770001232624,0.09889180003665388,0.0999009000370279,0.298928500036709
RSVPLG03,km,20260219-160640,1.0.2,20251113-095759,770,Experiment,Both,1,Automatic,main,77,20260219-161509,global,global,750,S,S,A,A,S-A.png,S-A.png,sS,sS,mask-3.png,mask-3.png,s,1,0.6346181998960674,s,1,0.2411083000479266,0.04977569996844977,0.05052419996354729,0.09990599995944649,0.09908979991450906,0.7486297000432387
RSVPLG03,km,20260219-160640,1.0.2,20251113-095759,770,Experiment,Both,1,Automatic,main,78,20260219-161514,global,local,750,S,H,A,E,S-A.png,E-H.png,sS,hH,mask-3.png,mask-1.png,s,1,0.7416568000335246,s,0,0.162704800022766,0.04868280002847314,0.050486299907788634,0.09919820004142821,0.09900960000231862,0.7483601000858471
RSVPLG03,km,20260219-160640,1.0.2,20251113-095759,770,Experiment,Both,1,Automatic,main,79,20260219-161519,local,global,750,H,H,A,E,A-H.png,H-E.png,hH,hH,mask-2.png,mask-4.png,h,1,1.375277700019069,h,1,0.12633110000751913,0.051830200012773275,0.04945900000166148,0.10075490002054721,0.09997059998568147,0.7506746000144631
RSVPLG03,km,20260219-160640,1.0.2,20251113-095759,770,Experiment,Both,1,Automatic,main,80,20260219-161525,global,local,750,H,H,E,E,H-E.png,E-H.png,hH,hH,mask-2.png,mask-3.png,h,1,0.8915460000280291,s,0,0.18927189998794347,0.04825890006031841,0.04909330001100898,0.09834520006552339,0.10072159999981523,0.7481138000730425
RSVPLG03,km,20260219-160640,1.0.2,20251113-095759,770,Experiment,Both,1,Automatic,main,81,20260219-161530,local,local,750,S,S,E,E,E-S.png,E-S.png,sS,sS,mask-2.png,mask-4.png,s,1,0.6880688000237569,s,1,0.1415932000381872,0.05078110005706549,0.04863330000080168,0.10057240002788603,0.09959770005661994,0.7495112000033259
RSVPLG03,km,20260219-160640,1.0.2,20251113-095759,770,Experiment,Both,1,Automatic,main,82,20260219-161535,local,global,300,H,H,A,A,A-H.png,H-A.png,hH,hH,mask-3.png,mask-2.png,h,1,1.1048259999370202,h,1,0.5277925999835134,0.0495997000252828,0.049290700000710785,0.09843569993972778,0.09871400007978082,0.30000009993091226
RSVPLG03,km,20260219-160640,1.0.2,20251113-095759,770,Experiment,Both,1,Automatic,main,83,20260219-161540,global,local,750,H,S,A,A,H-A.png,A-S.png,hH,sS,mask-4.png,mask-1.png,h,1,0.6268159999744967,h,0,0.25392619997728616,0.04974499996751547,0.05102090002037585,0.10098450002260506,0.09927469992544502,0.7499753000447527
RSVPLG03,km,20260219-160640,1.0.2,20251113-095759,770,Experiment,Both,1,Automatic,main,84,20260219-161546,global,local,300,S,S,A,E,S-A.png,E-S.png,sS,sS,mask-4.png,mask-2.png,s,1,0.7135996000142768,s,1,0.14359490002971143,0.04939980001654476,0.04995969997253269,0.0981061999918893,0.09953130001667887,0.3000707000028342
RSVPLG03,km,20260219-160640,1.0.2,20251113-095759,770,Experiment,Both,1,Automatic,main,85,20260219-161550,local,local,300,H,S,A,E,A-H.png,E-S.png,hH,sS,mask-1.png,mask-1.png,h,1,1.4339952999725938,s,1,0.20492659998126328,0.050913200015202165,0.0506272999336943,0.09998350008390844,0.10146929998882115,0.2997605000855401
RSVPLG03,km,20260219-160640,1.0.2,20251113-095759,770,Experiment,Both,1,Automatic,main,86,20260219-161555,global,local,300,S,H,A,E,S-A.png,E-H.png,sS,hH,mask-2.png,mask-1.png,s,1,1.6500896000070497,s,0,0.20939150010235608,0.05022480001207441,0.050071700010448694,0.09931560000404716,0.10072380001656711,0.29873669997323304
RSVPLG03,km,20260219-160640,1.0.2,20251113-095759,770,Experiment,Both,1,Automatic,main,87,20260219-161601,local,local,300,H,H,A,A,A-H.png,A-H.png,hH,hH,mask-1.png,mask-1.png,h,1,1.6263185000279918,h,1,0.22595519991591573,0.050353300059214234,0.05083560000639409,0.10121069999877363,0.10057320003397763,0.29974539997056127
RSVPLG03,km,20260219-160640,1.0.2,20251113-095759,770,Experiment,Both,1,Automatic,main,88,20260219-161607,local,local,750,H,S,A,E,A-H.png,E-S.png,hH,sS,mask-1.png,mask-3.png,h,1,0.5747005000011995,s,1,0.8624893999658525,0.04871120001189411,0.049455099971964955,0.1008384000742808,0.10075260000303388,0.7490874000359327
RSVPLG03,km,20260219-160640,1.0.2,20251113-095759,770,Experiment,Both,1,Automatic,main,89,20260219-161612,global,local,300,H,H,A,E,H-A.png,E-H.png,hH,hH,mask-1.png,mask-3.png,h,1,2.120118399965577,s,0,0.35446940001565963,0.04925190005451441,0.05123109999112785,0.0996163000818342,0.0994409000268206,0.29866470000706613
RSVPLG03,km,20260219-160640,1.0.2,20251113-095759,770,Experiment,Both,1,Automatic,main,90,20260219-161619,local,global,750,S,H,E,A,E-S.png,H-A.png,sS,hH,mask-3.png,mask-2.png,s,1,0.9639022999908775,h,1,0.2705395999364555,0.05054600001312792,0.050116200000047684,0.09955909999553114,0.0993642999092117,0.7494746000738814
RSVPLG03,km,20260219-160640,1.0.2,20251113-095759,770,Experiment,Both,1,Automatic,main,91,20260219-161624,global,global,300,H,H,E,E,H-E.png,H-E.png,hH,hH,mask-3.png,mask-2.png,h,1,1.1832862999290228,h,1,0.1923082999419421,0.05052160006016493,0.05153589998371899,0.09961020003538579,0.10138660005759448,0.29898329998832196
RSVPLG03,km,20260219-160640,1.0.2,20251113-095759,770,Experiment,Both,1,Automatic,main,92,20260219-161629,global,global,750,H,S,E,E,H-E.png,S-E.png,hH,sS,mask-4.png,mask-3.png,h,1,0.677475200034678,s,1,0.3039354000939056,0.04986939998343587,0.051218200009316206,0.10072490002494305,0.10107720002997667,0.7480572999920696
RSVPLG03,km,20260219-160640,1.0.2,20251113-095759,770,Experiment,Both,1,Automatic,main,93,20260219-161634,global,global,750,H,H,E,A,H-E.png,H-A.png,hH,hH,mask-3.png,mask-3.png,h,1,0.657545999973081,h,1,0.17529280006419867,0.0494126999983564,0.0489152999361977,0.09985350002534688,0.09904499992262572,0.7503586000530049
RSVPLG03,km,20260219-160640,1.0.2,20251113-095759,770,Experiment,Both,1,Automatic,main,94,20260219-161639,global,global,300,H,S,E,A,H-E.png,S-A.png,hH,sS,mask-1.png,mask-3.png,h,1,0.6723253999371082,s,1,0.07951960002537817,0.04987420001998544,0.04940680006984621,0.09912109992001206,0.09831859997939318,0.30056659993715584
RSVPLG03,km,20260219-160640,1.0.2,20251113-095759,770,Experiment,Both,1,Automatic,main,95,20260219-161644,local,local,750,H,H,A,E,A-H.png,E-H.png,hH,hH,mask-4.png,mask-3.png,h,1,0.5752058000070974,h,1,0.1462852000258863,0.05072069994639605,0.04863979993388057,0.10108569997828454,0.09861470002215356,0.7508846999844536
RSVPLG03,km,20260219-160640,1.0.2,20251113-095759,770,Experiment,Both,1,Automatic,main,96,20260219-161649,global,local,300,S,H,A,E,S-A.png,E-H.png,sS,hH,mask-1.png,mask-3.png,s,1,0.5101658999919891,s,0,0.09381330001633614,0.04789250006433576,0.04944850003812462,0.09806440002284944,0.09915660007391125,0.2994017000310123
RSVPLG03,km,20260219-160640,1.0.2,20251113-095759,770,Experiment,Both,1,Automatic,main,97,20260219-161653,local,local,750,H,S,E,E,E-H.png,E-S.png,hH,sS,mask-2.png,mask-3.png,h,1,2.8466499999631196,s,1,0.13006060000043362,0.048532199929468334,0.048409400042146444,0.09862599999178201,0.09860110003501177,0.748769799945876
RSVPLG03,km,20260219-160640,1.0.2,20251113-095759,770,Experiment,Both,1,Automatic,main,98,20260219-161700,global,local,750,S,S,A,E,S-A.png,E-S.png,sS,sS,mask-1.png,mask-2.png,s,1,0.3529582000337541,s,1,0.22577990009449422,0.05164840002544224,0.048583899973891675,0.10208420001436025,0.09936120000202209,0.7509515000274405
RSVPLG03,km,20260219-160640,1.0.2,20251113-095759,770,Experiment,Both,1,Automatic,main,99,20260219-161705,local,local,300,S,S,A,E,A-S.png,E-S.png,sS,sS,mask-3.png,mask-4.png,s,1,1.2300338000059128,s,1,0.1301380000077188,0.04890769999474287,0.048550200066529214,0.09957760001998395,0.09832240000832826,0.2998456999193877
RSVPLG03,km,20260219-160640,1.0.2,20251113-095759,770,Experiment,Both,1,Automatic,main,100,20260219-161710,local,global,750,S,H,A,A,A-S.png,H-A.png,sS,hH,mask-2.png,mask-3.png,s,1,1.3153254999779165,h,1,0.3986111000413075,0.050053799990564585,0.04989839997142553,0.09956629993394017,0.10000999993644655,0.7497909000376239
