exp,exp_initials,runtime,ver,modtime,sub,blocktype,targets,cuetype,mode,trialtype,trial,trialtime,t1_level,t2_level,t2_lag,t1,t2,distractor1,distractor2,stimfile1,stimfile2,t1_corr,t2_corr,maskfile1,maskfile2,t1_resp,t1_acc,t1_rt,t2_resp,t2_acc,t2_rt,t1_dur,t2_dur,t1mask_soa,t2mask_soa,t1t2_soa
RSVPLG03,cs,20251106-124537,1.0.2,20251105-084826,738,Introduction,T1,1,Automatic,main,1,20251106-124607,local,local,750,H,H,A,A,A-H.png,A-H.png,hH,hH,mask-3.png,mask-1.png,h,1,1.520429000025615,none,-5,0,0.09666030015796423,0.09645580011419952,0.20079130004160106,0.1993654000107199,0.7500851000659168
RSVPLG03,cs,20251106-124537,1.0.2,20251105-084826,738,Introduction,T1,1,Automatic,main,2,20251106-124612,global,local,750,S,H,E,E,S-E.png,E-H.png,sS,hH,mask-1.png,mask-2.png,h,0,28.610492500010878,none,-5,0,0.09737410000525415,0.09751929994672537,0.20145940012298524,0.19954800000414252,0.750969500048086
RSVPLG03,cs,20251106-124537,1.0.2,20251105-084826,738,Introduction,T1,1,Automatic,main,3,20251106-124645,local,global,750,S,H,E,E,E-S.png,H-E.png,sS,hH,mask-3.png,mask-4.png,s,1,0.9150046000722796,none,-5,0,0.09812860004603863,0.09653800004161894,0.20125250006094575,0.199599799932912,0.7511549000628293
RSVPLG03,cs,20251106-124537,1.0.2,20251105-084826,738,Introduction,T1,1,Automatic,main,4,20251106-124650,local,global,750,S,S,A,E,A-S.png,S-E.png,sS,sS,mask-2.png,mask-3.png,h,0,0.7174293000716716,none,-5,0,0.09645770001225173,0.09661639994010329,0.19934709998779,0.19963439996354282,0.7495663999579847
RSVPLG03,cs,20251106-124537,1.0.2,20251105-084826,738,Introduction,T1,1,Automatic,main,5,20251106-124655,local,local,750,S,S,A,A,A-S.png,A-S.png,sS,sS,mask-3.png,mask-2.png,h,0,1.6606015998404473,none,-5,0,0.0965643001254648,0.09768230002373457,0.19834100012667477,0.20005009998567402,0.7485627001151443
RSVPLG03,cs,20251106-124537,1.0.2,20251105-084826,738,Introduction,T1,1,Automatic,main,6,20251106-124701,global,global,750,S,H,A,A,S-A.png,H-A.png,sS,hH,mask-4.png,mask-1.png,s,1,3.656644100090489,none,-5,0,0.09841999993659556,0.09686210006475449,0.20025969995185733,0.1993640000000596,0.7507245000451803
RSVPLG03,cs,20251106-124537,1.0.2,20251105-084826,738,Introduction,T1,1,Automatic,main,7,20251106-124709,global,global,750,S,S,E,A,S-E.png,S-A.png,sS,sS,mask-4.png,mask-4.png,s,1,1.0041843000799417,none,-5,0,0.09793989988975227,0.09722710005007684,0.19929459993727505,0.19876820011995733,0.7510839998722076
RSVPLG03,cs,20251106-124537,1.0.2,20251105-084826,738,Introduction,T1,1,Automatic,main,8,20251106-124714,global,local,750,S,S,E,A,S-E.png,A-S.png,sS,sS,mask-1.png,mask-2.png,s,1,0.4486918000038713,none,-5,0,0.09648810001090169,0.09928189986385405,0.19874090002849698,0.2000191998668015,0.7486166001763195
RSVPLG03,cs,20251106-124537,1.0.2,20251105-084826,738,Introduction,T1,1,Automatic,main,9,20251106-124719,local,local,750,S,H,E,E,E-S.png,E-H.png,sS,hH,mask-1.png,mask-1.png,s,1,0.234477800084278,none,-5,0,0.09941719984635711,0.09639449999667704,0.200219799997285,0.19908940000459552,0.7509930999949574
RSVPLG03,cs,20251106-124537,1.0.2,20251105-084826,738,Introduction,T1,1,Automatic,main,10,20251106-124723,global,global,750,H,H,E,E,H-E.png,H-E.png,hH,hH,mask-1.png,mask-3.png,none,-6,0,none,-5,0,0.09831660008057952,0.09775929991155863,0.19989500008523464,0.1998910999391228,0.7496840001549572
RSVPLG03,cs,20251106-124735,1.0.2,20251105-084826,738,Practice,T1,1,Automatic,main,1,20251106-124755,global,local,300,S,H,E,E,S-E.png,E-H.png,sS,hH,mask-3.png,mask-1.png,s,1,0.40834970003925264,none,-5,0,0.04517400008626282,0.04749340005218983,0.09787499997764826,0.10067660012282431,0.29805550002492964
RSVPLG03,cs,20251106-124735,1.0.2,20251105-084826,738,Practice,T1,1,Automatic,main,2,20251106-124759,global,global,750,H,S,E,A,H-E.png,S-A.png,hH,sS,mask-4.png,mask-1.png,h,1,2.5080693000927567,none,-5,0,0.04732629982754588,0.04814500012435019,0.10027219983749092,0.10042420006357133,0.7498867998365313
RSVPLG03,cs,20251106-124735,1.0.2,20251105-084826,738,Practice,T1,1,Automatic,main,3,20251106-124805,local,global,300,S,H,E,E,E-S.png,H-E.png,sS,hH,mask-3.png,mask-3.png,s,1,0.34269220009446144,none,-5,0,0.04734160006046295,0.04651130014099181,0.09947110014036298,0.09956460003741086,0.30038239993155
RSVPLG03,cs,20251106-124735,1.0.2,20251105-084826,738,Practice,T1,1,Automatic,main,4,20251106-124809,local,local,300,H,S,E,E,E-H.png,E-S.png,hH,sS,mask-2.png,mask-3.png,s,0,0.351301500108093,none,-5,0,0.045783800072968006,0.04836519993841648,0.09929569996893406,0.10000770003534853,0.2993815999943763
RSVPLG03,cs,20251106-124735,1.0.2,20251105-084826,738,Practice,T1,1,Automatic,main,5,20251106-124813,local,global,750,S,H,E,E,E-S.png,H-E.png,sS,hH,mask-4.png,mask-2.png,s,1,0.36432529985904694,none,-5,0,0.04765389999374747,0.048080800101161,0.10016330005601048,0.10100410017184913,0.7502752000000328
RSVPLG03,cs,20251106-124735,1.0.2,20251105-084826,738,Practice,T1,1,Automatic,main,6,20251106-124817,global,global,300,S,S,A,E,S-A.png,S-E.png,sS,sS,mask-1.png,mask-4.png,s,1,0.4380854000337422,none,-5,0,0.04774569999426603,0.04828689992427826,0.10185800003819168,0.10094380006194115,0.29968430008739233
RSVPLG03,cs,20251106-124735,1.0.2,20251105-084826,738,Practice,T1,1,Automatic,main,7,20251106-124821,global,local,750,H,S,E,A,H-E.png,A-S.png,hH,sS,mask-4.png,mask-1.png,h,1,0.5627057000529021,none,-5,0,0.047143699834123254,0.04660040000453591,0.10067529999651015,0.10018649999983609,0.7500591999851167
RSVPLG03,cs,20251106-124735,1.0.2,20251105-084826,738,Practice,T1,1,Automatic,main,8,20251106-124826,global,local,750,H,S,E,A,H-E.png,A-S.png,hH,sS,mask-4.png,mask-3.png,h,1,0.3266115998849273,none,-5,0,0.048231199849396944,0.04698810004629195,0.09954249998554587,0.10077340016141534,0.7501629998441786
RSVPLG03,cs,20251106-124735,1.0.2,20251105-084826,738,Practice,T1,1,Automatic,main,9,20251106-124830,local,local,750,S,H,A,A,A-S.png,A-H.png,sS,hH,mask-4.png,mask-3.png,s,1,0.329585500061512,none,-5,0,0.0470428999979049,0.04721320001408458,0.09965170011855662,0.09814259991981089,0.7503498001024127
RSVPLG03,cs,20251106-124735,1.0.2,20251105-084826,738,Practice,T1,1,Automatic,main,10,20251106-124835,local,global,300,S,S,E,E,E-S.png,S-E.png,sS,sS,mask-2.png,mask-3.png,s,1,0.4718371001072228,none,-5,0,0.04729750007390976,0.048367399955168366,0.10022899997420609,0.10116579988971353,0.29996970016509295
RSVPLG03,cs,20251106-124735,1.0.2,20251105-084826,738,Practice,T1,1,Automatic,main,11,20251106-124839,global,global,750,H,S,A,A,H-A.png,S-A.png,hH,sS,mask-2.png,mask-4.png,h,1,0.6654771999455988,none,-5,0,0.04887529998086393,0.046258899848908186,0.10215390007942915,0.09941109991632402,0.7515513000544161
RSVPLG03,cs,20251106-124735,1.0.2,20251105-084826,738,Practice,T1,1,Automatic,main,12,20251106-124843,global,global,300,H,H,E,A,H-E.png,H-A.png,hH,hH,mask-1.png,mask-2.png,h,1,0.39377309987321496,none,-5,0,0.04726039990782738,0.04740680009126663,0.10108719998970628,0.1002235000487417,0.3003451998811215
RSVPLG03,cs,20251106-124735,1.0.2,20251105-084826,738,Practice,T1,1,Automatic,main,13,20251106-124847,local,global,750,H,H,E,E,E-H.png,H-E.png,hH,hH,mask-4.png,mask-3.png,s,0,0.2971268999390304,none,-5,0,0.04765109997242689,0.046426699962466955,0.10153109999373555,0.10006269998848438,0.7513001000043005
RSVPLG03,cs,20251106-124735,1.0.2,20251105-084826,738,Practice,T1,1,Automatic,main,14,20251106-124852,local,local,300,S,H,E,E,E-S.png,E-H.png,sS,hH,mask-4.png,mask-2.png,s,1,0.31113859987817705,none,-5,0,0.04611999983899295,0.04734250018373132,0.09881889983080328,0.10139690013602376,0.2984101998154074
RSVPLG03,cs,20251106-124735,1.0.2,20251105-084826,738,Practice,T1,1,Automatic,main,15,20251106-124856,local,local,750,H,S,E,E,E-H.png,E-S.png,hH,sS,mask-4.png,mask-3.png,h,1,0.4463088000193238,none,-5,0,0.04737089993432164,0.04736860003322363,0.09887870005331933,0.1001137001439929,0.7479924999643117
RSVPLG03,cs,20251106-124735,1.0.2,20251105-084826,738,Practice,T1,1,Automatic,main,16,20251106-124900,global,local,300,S,H,A,A,S-A.png,A-H.png,sS,hH,mask-2.png,mask-4.png,s,1,0.32877339981496334,none,-5,0,0.0487083001062274,0.04838469997048378,0.10112449992448092,0.10025270003825426,0.2995903000701219
RSVPLG03,cs,20251106-124932,1.0.2,20251105-084826,738,Practice,Both,1,Automatic,main,1,20251106-125013,global,global,300,S,S,A,A,S-A.png,S-A.png,sS,sS,mask-2.png,mask-3.png,s,1,2.372334999963641,h,0,2.4841986000537872,0.04591670003719628,0.048169700196012855,0.09973799996078014,0.10029250010848045,0.29814779991284013
RSVPLG03,cs,20251106-124932,1.0.2,20251105-084826,738,Practice,Both,1,Automatic,main,2,20251106-125019,local,global,300,S,S,A,A,A-S.png,S-A.png,sS,sS,mask-1.png,mask-2.png,s,1,0.7417860999703407,h,0,0.5494787998031825,0.046920299995690584,0.046311400132253766,0.09952390007674694,0.09998630010522902,0.3001319000031799
RSVPLG03,cs,20251106-124932,1.0.2,20251105-084826,738,Practice,Both,1,Automatic,main,3,20251106-125024,local,global,750,S,S,E,E,E-S.png,S-E.png,sS,sS,mask-2.png,mask-2.png,s,1,0.48480420000851154,s,1,0.21442359988577664,0.04837150010280311,0.049462700029835105,0.10014790017157793,0.10011070012114942,0.7496954000089318
RSVPLG03,cs,20251106-124932,1.0.2,20251105-084826,738,Practice,Both,1,Automatic,main,4,20251106-125029,global,global,300,H,S,E,E,H-E.png,S-E.png,hH,sS,mask-4.png,mask-4.png,h,1,0.9948086000513285,s,1,0.39739270019344985,0.047125799814239144,0.048024200135841966,0.099408800015226,0.09929660009220243,0.2989575997926295
RSVPLG03,cs,20251106-124932,1.0.2,20251105-084826,738,Practice,Both,1,Automatic,main,5,20251106-125034,global,global,750,S,H,A,E,S-A.png,H-E.png,sS,hH,mask-1.png,mask-4.png,s,1,1.0191674998495728,h,1,0.1769918999634683,0.047481700079515576,0.04724839981645346,0.09992760000750422,0.10109959985129535,0.7502668001689017
RSVPLG03,cs,20251106-124932,1.0.2,20251105-084826,738,Practice,Both,1,Automatic,main,6,20251106-125039,global,local,300,S,H,E,A,S-E.png,A-H.png,sS,hH,mask-1.png,mask-4.png,s,1,0.7473092000000179,h,1,0.3737032001372427,0.04738459992222488,0.04832499986514449,0.09891330008395016,0.10148010007105768,0.2983605000190437
RSVPLG03,cs,20251106-124932,1.0.2,20251105-084826,738,Practice,Both,1,Automatic,main,7,20251106-125044,global,local,750,S,H,E,E,S-E.png,E-H.png,sS,hH,mask-2.png,mask-1.png,s,1,0.8275359999388456,s,0,0.28667140007019043,0.04815819999203086,0.0476452000439167,0.10061089997179806,0.09970789984799922,0.7506932001560926
RSVPLG03,cs,20251106-124932,1.0.2,20251105-084826,738,Practice,Both,1,Automatic,main,8,20251106-125049,local,local,750,S,S,A,E,A-S.png,E-S.png,sS,sS,mask-3.png,mask-1.png,s,1,0.35203250008635223,s,1,0.25216689985245466,0.047546999994665384,0.047041699988767505,0.10024209995754063,0.09974039997905493,0.74998790002428
RSVPLG03,cs,20251106-124932,1.0.2,20251105-084826,738,Practice,Both,1,Automatic,main,9,20251106-125054,global,global,750,H,H,A,E,H-A.png,H-E.png,hH,hH,mask-4.png,mask-4.png,s,0,0.600018700119108,h,1,0.2628882999997586,0.04742610012181103,0.04939529998227954,0.09972420008853078,0.10132970008999109,0.7490594000555575
RSVPLG03,cs,20251106-124932,1.0.2,20251105-084826,738,Practice,Both,1,Automatic,main,10,20251106-125059,local,global,300,S,S,E,E,E-S.png,S-E.png,sS,sS,mask-1.png,mask-3.png,s,1,0.42635280010290444,s,1,0.26149690011516213,0.04901880002580583,0.046422400046139956,0.10061679990030825,0.0999897001311183,0.3015985998790711
RSVPLG03,cs,20251106-124932,1.0.2,20251105-084826,738,Practice,Both,1,Automatic,main,11,20251106-125103,global,local,300,H,H,E,E,H-E.png,E-H.png,hH,hH,mask-2.png,mask-2.png,h,1,0.35108209983445704,s,0,0.18315189983695745,0.04830490006133914,0.04649409977719188,0.10026019997894764,0.09806769993156195,0.30063610011711717
RSVPLG03,cs,20251106-124932,1.0.2,20251105-084826,738,Practice,Both,1,Automatic,main,12,20251106-125108,local,global,750,H,S,E,A,E-H.png,S-A.png,hH,sS,mask-3.png,mask-1.png,s,0,0.31715080002322793,s,1,0.15750880003906786,0.047129500191658735,0.04590709996409714,0.09988069999963045,0.09989680000580847,0.7503021000884473
RSVPLG03,cs,20251106-124932,1.0.2,20251105-084826,738,Practice,Both,1,Automatic,main,13,20251106-125112,local,local,300,S,H,E,E,E-S.png,E-H.png,sS,hH,mask-2.png,mask-1.png,h,0,0.41984190000221133,s,0,0.100806700065732,0.04718300001695752,0.04716810001991689,0.09989439998753369,0.09975310019217432,0.299966299906373
RSVPLG03,cs,20251106-124932,1.0.2,20251105-084826,738,Practice,Both,1,Automatic,main,14,20251106-125116,global,local,750,S,H,A,A,S-A.png,A-H.png,sS,hH,mask-2.png,mask-1.png,s,1,0.42500579985789955,s,0,0.1353400000371039,0.04783560009673238,0.04720910009928048,0.09986670012585819,0.09897950012236834,0.7500660999212414
RSVPLG03,cs,20251106-124932,1.0.2,20251105-084826,738,Practice,Both,1,Automatic,main,15,20251106-125121,local,local,300,H,S,E,A,E-H.png,A-S.png,hH,sS,mask-2.png,mask-4.png,s,0,0.38392639998346567,h,0,0.12480219989083707,0.04670589999295771,0.046145099913701415,0.10012060008011758,0.09976689983159304,0.2998159001581371
RSVPLG03,cs,20251106-124932,1.0.2,20251105-084826,738,Practice,Both,1,Automatic,main,16,20251106-125125,local,local,750,H,S,E,E,E-H.png,E-S.png,hH,sS,mask-3.png,mask-2.png,s,0,0.5216912000905722,s,1,0.20565810007974505,0.04731640010140836,0.04741059988737106,0.09924470004625618,0.10020159999839962,0.7494640001095831
RSVPLG03,cs,20251106-125145,1.0.2,20251105-084826,738,Practice,Both,1,Automatic,main,1,20251106-125220,local,global,300,H,S,A,A,A-H.png,S-A.png,hH,sS,mask-1.png,mask-2.png,s,0,0.40349830011837184,h,0,0.13829459995031357,0.041057800175622106,0.04760389984585345,0.09326560003682971,0.09967199992388487,0.2937365001998842
RSVPLG03,cs,20251106-125145,1.0.2,20251105-084826,738,Practice,Both,1,Automatic,main,2,20251106-125224,local,global,300,H,H,E,A,E-H.png,H-A.png,hH,hH,mask-4.png,mask-3.png,s,0,0.41051440010778606,h,1,0.6600805998314172,0.048680299893021584,0.047896699979901314,0.1000610999763012,0.09919740003533661,0.3007238998543471
RSVPLG03,cs,20251106-125145,1.0.2,20251105-084826,738,Practice,Both,1,Automatic,main,3,20251106-125229,local,global,750,H,H,E,A,E-H.png,H-A.png,hH,hH,mask-1.png,mask-2.png,h,1,0.547767800046131,s,0,0.20084020006470382,0.045749800046905875,0.04771700012497604,0.09997790004126728,0.09889160003513098,0.7495371999684721
RSVPLG03,cs,20251106-125145,1.0.2,20251105-084826,738,Practice,Both,1,Automatic,main,4,20251106-125234,global,local,750,S,S,E,A,S-E.png,A-S.png,sS,sS,mask-3.png,mask-1.png,s,1,0.36338719981722534,h,0,0.23273909999988973,0.04579650005325675,0.046946699963882565,0.1000946001149714,0.09909270005300641,0.7492911000736058
RSVPLG03,cs,20251106-125145,1.0.2,20251105-084826,738,Practice,Both,1,Automatic,main,5,20251106-125239,global,global,300,S,S,A,A,S-A.png,S-A.png,sS,sS,mask-4.png,mask-1.png,s,1,0.47441580006852746,s,1,0.26306469994597137,0.04657010012306273,0.046772100031375885,0.09895270015113056,0.0989316999912262,0.2999259000644088
RSVPLG03,cs,20251106-125145,1.0.2,20251105-084826,738,Practice,Both,1,Automatic,main,6,20251106-125243,global,global,750,S,H,A,A,S-A.png,H-A.png,sS,hH,mask-2.png,mask-1.png,s,1,0.6001904001459479,h,1,0.1394888001959771,0.047525300178676844,0.04746629996225238,0.10144610004499555,0.10047419997863472,0.7499599000439048
RSVPLG03,cs,20251106-125145,1.0.2,20251105-084826,738,Practice,Both,1,Automatic,main,7,20251106-125248,local,local,750,S,H,A,A,A-S.png,A-H.png,sS,hH,mask-4.png,mask-1.png,h,0,0.9735311998520046,h,1,0.15122320014052093,0.04855230008251965,0.0474976000841707,0.09960420010611415,0.10052499989978969,0.7493791000451893
RSVPLG03,cs,20251106-125145,1.0.2,20251105-084826,738,Practice,Both,1,Automatic,main,8,20251106-125254,global,local,300,H,H,E,A,H-E.png,A-H.png,hH,hH,mask-3.png,mask-3.png,s,0,0.4988061001058668,h,1,0.1361342000309378,0.04652799991890788,0.04743689997121692,0.098614800022915,0.10150510002858937,0.29871920007281005
RSVPLG03,cs,20251106-125145,1.0.2,20251105-084826,738,Practice,Both,1,Automatic,main,9,20251106-125258,global,local,300,S,S,A,A,S-A.png,A-S.png,sS,sS,mask-1.png,mask-2.png,s,1,0.4692544999998063,h,0,0.09043440013192594,0.046727600041776896,0.047692100051790476,0.09893269999884069,0.09975639986805618,0.29933009995147586
RSVPLG03,cs,20251106-125145,1.0.2,20251105-084826,738,Practice,Both,1,Automatic,main,10,20251106-125302,global,local,750,H,S,E,A,H-E.png,A-S.png,hH,sS,mask-3.png,mask-4.png,h,1,0.275372400181368,h,0,0.26250869990326464,0.04646780015900731,0.04716129996813834,0.10048909997567534,0.09819349995814264,0.7505040001124144
RSVPLG03,cs,20251106-125145,1.0.2,20251105-084826,738,Practice,Both,1,Automatic,main,11,20251106-125307,local,local,750,S,H,A,E,A-S.png,E-H.png,sS,hH,mask-3.png,mask-2.png,s,1,0.4551569998729974,h,1,0.09495890000835061,0.04801229992881417,0.04686149978078902,0.10044359997846186,0.0989981999155134,0.750613700132817
RSVPLG03,cs,20251106-125145,1.0.2,20251105-084826,738,Practice,Both,1,Automatic,main,12,20251106-125312,global,global,300,H,S,E,A,H-E.png,S-A.png,hH,sS,mask-4.png,mask-2.png,h,1,0.3598447002004832,s,1,0.10438450006768107,0.048829799983650446,0.04692000010982156,0.10114000015892088,0.09921879996545613,0.30070540006272495
RSVPLG03,cs,20251106-125145,1.0.2,20251105-084826,738,Practice,Both,1,Automatic,main,13,20251106-125316,global,global,750,S,H,A,A,S-A.png,H-A.png,sS,hH,mask-4.png,mask-4.png,s,1,0.4055576000828296,h,1,0.05906469980254769,0.047284499974921346,0.046946699963882565,0.10130420001223683,0.09825340006500483,0.7510802999604493
RSVPLG03,cs,20251106-125145,1.0.2,20251105-084826,738,Practice,Both,1,Automatic,main,14,20251106-125321,local,local,300,H,H,A,A,A-H.png,A-H.png,hH,hH,mask-1.png,mask-1.png,h,1,0.40245799999684095,h,1,0.12923389999195933,0.04701059986837208,0.04849880002439022,0.09908449999056756,0.1014468998182565,0.2993115000426769
RSVPLG03,cs,20251106-125145,1.0.2,20251105-084826,738,Practice,Both,1,Automatic,main,15,20251106-125325,local,local,300,H,H,A,E,A-H.png,E-H.png,hH,hH,mask-1.png,mask-1.png,h,1,0.4247528000269085,s,0,0.12121029989793897,0.04660660005174577,0.04797989991493523,0.09882199997082353,0.1009978000074625,0.29919830011203885
RSVPLG03,cs,20251106-125145,1.0.2,20251105-084826,738,Practice,Both,1,Automatic,main,16,20251106-125329,local,global,750,H,S,E,E,E-H.png,S-E.png,hH,sS,mask-2.png,mask-1.png,h,1,0.4384824000298977,h,0,0.15567989996634424,0.04884100006893277,0.048756000120192766,0.10126339993439615,0.10000979993492365,0.7506697999779135
RSVPLG03,cs,20251106-125351,1.0.2,20251105-084826,738,Practice,Both,1,Automatic,main,1,20251106-125413,local,global,750,S,S,E,A,E-S.png,S-A.png,sS,sS,mask-4.png,mask-3.png,s,1,0.3357073001097888,s,1,0.12302830000407994,0.0420091999694705,0.04768269998021424,0.0953148000407964,0.09986539999954402,0.7447035999502987
RSVPLG03,cs,20251106-125351,1.0.2,20251105-084826,738,Practice,Both,1,Automatic,main,2,20251106-125418,global,local,750,S,H,E,E,S-E.png,E-H.png,sS,hH,mask-2.png,mask-1.png,h,0,1.3734314001630992,s,0,0.07411469984799623,0.04892389988526702,0.04767069988884032,0.10118619981221855,0.09992759977467358,0.7517277000006288
RSVPLG03,cs,20251106-125351,1.0.2,20251105-084826,738,Practice,Both,1,Automatic,main,3,20251106-125423,global,local,300,S,S,A,A,S-A.png,A-S.png,sS,sS,mask-4.png,mask-1.png,s,1,1.117597799981013,h,0,0.06912979995831847,0.048595599830150604,0.0485646000597626,0.10074569983407855,0.09974059998057783,0.30063329986296594
RSVPLG03,cs,20251106-125351,1.0.2,20251105-084826,738,Practice,Both,1,Automatic,main,4,20251106-125428,global,local,750,S,H,A,A,S-A.png,A-H.png,sS,hH,mask-2.png,mask-4.png,s,1,0.43990200012922287,h,1,0.23548039980232716,0.047685000114142895,0.04767850018106401,0.0999121000058949,0.09985920018516481,0.7505552999209613
RSVPLG03,cs,20251106-125351,1.0.2,20251105-084826,738,Practice,Both,1,Automatic,main,5,20251106-125433,local,local,750,H,H,E,E,E-H.png,E-H.png,hH,hH,mask-2.png,mask-1.png,s,0,0.06748660001903772,h,1,0.7424794000107795,0.047642899909988046,0.047481700079515576,0.10054500005207956,0.09845390007831156,0.7520238999277353
RSVPLG03,cs,20251106-125351,1.0.2,20251105-084826,738,Practice,Both,1,Automatic,main,6,20251106-125438,local,global,300,S,H,A,A,A-S.png,H-A.png,sS,hH,mask-2.png,mask-1.png,h,0,0.40965960011817515,s,0,0.1557495000306517,0.047496499959379435,0.04751539998687804,0.10057629994116724,0.10055679990909994,0.2998255998827517
RSVPLG03,cs,20251106-125351,1.0.2,20251105-084826,738,Practice,Both,1,Automatic,main,7,20251106-125443,local,global,300,S,H,A,A,A-S.png,H-A.png,sS,hH,mask-3.png,mask-2.png,s,1,0.6360178999602795,h,1,0.18780150008387864,0.04749799985438585,0.04749369993805885,0.10050319996662438,0.10049199988134205,0.2997753999661654
RSVPLG03,cs,20251106-125351,1.0.2,20251105-084826,738,Practice,Both,1,Automatic,main,8,20251106-125447,local,local,300,H,S,E,A,E-H.png,A-S.png,hH,sS,mask-2.png,mask-1.png,s,0,0.16898060007952154,h,0,0.06486129993572831,0.04752130014821887,0.04722579987719655,0.10056730010546744,0.09915370005182922,0.3003166001290083
RSVPLG03,cs,20251106-125351,1.0.2,20251105-084826,738,Practice,Both,1,Automatic,main,9,20251106-125451,global,global,750,S,S,E,E,S-E.png,S-E.png,sS,sS,mask-3.png,mask-2.png,s,1,0.7004058000165969,h,0,0.11968989996239543,0.047509799944236875,0.04750950005836785,0.10048429993912578,0.09956789994612336,0.7507408000528812
RSVPLG03,cs,20251106-125351,1.0.2,20251105-084826,738,Practice,Both,1,Automatic,main,10,20251106-125456,local,local,300,S,S,E,E,E-S.png,E-S.png,sS,sS,mask-2.png,mask-2.png,s,1,0.28428860008716583,h,0,0.11260700016282499,0.04657580005005002,0.0476299999281764,0.09961250005289912,0.10072300001047552,0.2992072000633925
RSVPLG03,cs,20251106-125351,1.0.2,20251105-084826,738,Practice,Both,1,Automatic,main,11,20251106-125501,global,global,300,S,S,E,A,S-E.png,S-A.png,sS,sS,mask-2.png,mask-3.png,s,1,0.38589429995045066,h,0,0.06929380004294217,0.04824879998341203,0.04754880000837147,0.10030640009790659,0.09957919991575181,0.30064300005324185
RSVPLG03,cs,20251106-125351,1.0.2,20251105-084826,738,Practice,Both,1,Automatic,main,12,20251106-125505,global,global,750,H,H,A,E,H-A.png,H-E.png,hH,hH,mask-1.png,mask-3.png,s,0,0.01443550013937056,h,1,1.1784260000567883,0.047487600008025765,0.04860810004174709,0.10050239996053278,0.09964200016111135,0.7502219998277724
RSVPLG03,cs,20251106-125351,1.0.2,20251105-084826,738,Practice,Both,1,Automatic,main,13,20251106-125510,global,local,300,S,S,E,A,S-E.png,A-S.png,sS,sS,mask-4.png,mask-2.png,s,1,0.426578399958089,h,0,0.451908600050956,0.04653079994022846,0.04751799977384508,0.10053099994547665,0.10051669995300472,0.29914120002649724
RSVPLG03,cs,20251106-125351,1.0.2,20251105-084826,738,Practice,Both,1,Automatic,main,14,20251106-125515,local,local,750,S,S,A,E,A-S.png,E-S.png,sS,sS,mask-2.png,mask-3.png,s,1,0.43907000008039176,h,0,0.4086218001320958,0.047524800058454275,0.04655940015800297,0.09989539999514818,0.10014780005440116,0.7513387999497354
RSVPLG03,cs,20251106-125351,1.0.2,20251105-084826,738,Practice,Both,1,Automatic,main,15,20251106-125520,global,global,300,S,H,E,A,S-E.png,H-A.png,sS,hH,mask-2.png,mask-3.png,s,1,0.4021470998413861,h,1,0.14693139982409775,0.047493800055235624,0.047528000082820654,0.10053690010681748,0.0994240001309663,0.3001312999986112
RSVPLG03,cs,20251106-125351,1.0.2,20251105-084826,738,Practice,Both,1,Automatic,main,16,20251106-125524,local,global,750,S,H,E,E,E-S.png,H-E.png,sS,hH,mask-1.png,mask-4.png,s,1,0.4268839000724256,h,1,0.28444099985063076,0.04746320005506277,0.047409600112587214,0.1004723000805825,0.10145190008915961,0.7507923999801278
RSVPLG03,cs,20251106-125652,1.0.2,20251105-084826,738,Experiment,Both,1,Automatic,warmup,1,20251106-125716,global,global,750,S,H,E,E,S-E.png,H-E.png,sS,hH,mask-3.png,mask-1.png,h,0,0.5344475000165403,s,0,0.09424659982323647,0.0461281999014318,0.04569990001618862,0.09956769994460046,0.09896149998530746,0.7532494000624865
RSVPLG03,cs,20251106-125652,1.0.2,20251105-084826,738,Experiment,Both,1,Automatic,warmup,2,20251106-125721,local,global,750,H,S,A,E,A-H.png,S-E.png,hH,sS,mask-1.png,mask-1.png,h,1,0.3099285999778658,s,1,0.005858400138095021,0.04767500003799796,0.0467357998713851,0.1018686001189053,0.0999198998324573,0.7527022000867873
RSVPLG03,cs,20251106-125652,1.0.2,20251105-084826,738,Experiment,Both,1,Automatic,warmup,3,20251106-125725,local,local,300,S,S,E,E,E-S.png,E-S.png,sS,sS,mask-2.png,mask-3.png,s,1,0.236880199983716,s,1,0.05548939993605018,0.04597430001012981,0.047588600078597665,0.10006180009804666,0.0998454000800848,0.3006333000957966
RSVPLG03,cs,20251106-125652,1.0.2,20251105-084826,738,Experiment,Both,1,Automatic,warmup,4,20251106-125729,global,global,300,S,S,E,E,S-E.png,S-E.png,sS,sS,mask-4.png,mask-1.png,h,0,0.26762709999457,s,1,0.04062129999510944,0.04765550000593066,0.04766200017184019,0.09984169993549585,0.10087590012699366,0.3002644998487085
RSVPLG03,cs,20251106-125652,1.0.2,20251105-084826,738,Experiment,Both,1,Automatic,main,5,20251106-125733,global,local,300,H,S,A,E,H-A.png,E-S.png,hH,sS,mask-2.png,mask-3.png,s,0,0.40728679997846484,s,1,0.05088449991308153,0.0476693999953568,0.04765180009417236,0.099873699946329,0.0998446000739932,0.30042289989069104
RSVPLG03,cs,20251106-125652,1.0.2,20251105-084826,738,Experiment,Both,1,Automatic,main,6,20251106-125738,local,local,750,S,H,E,E,E-S.png,E-H.png,sS,hH,mask-2.png,mask-3.png,s,1,0.2890796000137925,s,0,0.12352090002968907,0.04658879991620779,0.047687900019809604,0.1007575998082757,0.09974580002017319,0.7512473999522626
RSVPLG03,cs,20251106-125652,1.0.2,20251105-084826,738,Experiment,Both,1,Automatic,main,7,20251106-125742,local,local,300,H,S,A,A,A-H.png,A-S.png,hH,sS,mask-4.png,mask-1.png,h,1,0.3310224001761526,s,1,0.2762394000310451,0.04772769985720515,0.04670679988339543,0.10091129993088543,0.09982809983193874,0.30223569995723665
RSVPLG03,cs,20251106-125652,1.0.2,20251105-084826,738,Experiment,Both,1,Automatic,main,8,20251106-125747,local,global,300,S,H,A,E,A-S.png,H-E.png,sS,hH,mask-1.png,mask-2.png,s,1,0.3505518001038581,h,1,0.06767729995772243,0.04769559996202588,0.047678499948233366,0.09986600000411272,0.10122499987483025,0.3004568999167532
RSVPLG03,cs,20251106-125652,1.0.2,20251105-084826,738,Experiment,Both,1,Automatic,main,9,20251106-125751,global,global,750,H,S,E,A,H-E.png,S-A.png,hH,sS,mask-2.png,mask-3.png,h,1,0.4304607000667602,s,1,0.1997243999503553,0.04869379987940192,0.048665399895980954,0.10018180008046329,0.10022509982809424,0.7518468000926077
RSVPLG03,cs,20251106-125652,1.0.2,20251105-084826,738,Experiment,Both,1,Automatic,main,10,20251106-125756,local,local,300,S,S,A,A,A-S.png,A-S.png,sS,sS,mask-4.png,mask-2.png,h,0,0.31492989999242127,s,1,0.10723929991945624,0.0477314000017941,0.04766709986142814,0.10199899994768202,0.09981929999776185,0.30208480008877814
RSVPLG03,cs,20251106-125652,1.0.2,20251105-084826,738,Experiment,Both,1,Automatic,main,11,20251106-125800,global,global,750,S,S,A,E,S-A.png,S-E.png,sS,sS,mask-4.png,mask-4.png,s,1,0.18406859994865954,s,1,0.053274699952453375,0.04751019994728267,0.04766050004400313,0.09959460003301501,0.09970390005037189,0.7509697999339551
RSVPLG03,cs,20251106-125652,1.0.2,20251105-084826,738,Experiment,Both,1,Automatic,main,12,20251106-125804,local,global,750,S,S,E,E,E-S.png,S-E.png,sS,sS,mask-1.png,mask-1.png,s,1,0.5033484001178294,s,1,0.08625759999267757,0.04745129984803498,0.04864919977262616,0.09860009979456663,0.09974219999276102,0.7505363000091165
RSVPLG03,cs,20251106-125652,1.0.2,20251105-084826,738,Experiment,Both,1,Automatic,main,13,20251106-125809,global,global,750,S,H,E,E,S-E.png,H-E.png,sS,hH,mask-1.png,mask-1.png,s,1,0.9040697000455111,h,1,0.12010370008647442,0.04870739998295903,0.04771180008538067,0.10108690010383725,0.10091429995372891,0.751276700058952
RSVPLG03,cs,20251106-125652,1.0.2,20251105-084826,738,Experiment,Both,1,Automatic,main,14,20251106-125814,global,local,750,S,H,A,A,S-A.png,A-H.png,sS,hH,mask-1.png,mask-3.png,s,1,1.2876696998719126,h,1,0.09067060006782413,0.047511500073596835,0.046515399822965264,0.10050789988599718,0.1005227998830378,0.7528884001076221
RSVPLG03,cs,20251106-125652,1.0.2,20251105-084826,738,Experiment,Both,1,Automatic,main,15,20251106-125820,local,global,300,H,H,E,E,E-H.png,H-E.png,hH,hH,mask-2.png,mask-4.png,s,0,0.8860974998679012,h,1,0.17046250007115304,0.04768269998021424,0.04590189992450178,0.10085569997318089,0.0999555999878794,0.3021734000649303
RSVPLG03,cs,20251106-125652,1.0.2,20251105-084826,738,Experiment,Both,1,Automatic,main,16,20251106-125825,local,global,750,H,S,A,E,A-H.png,S-E.png,hH,sS,mask-4.png,mask-3.png,h,1,0.405487900134176,s,1,0.18881629989482462,0.04875389998778701,0.04869060008786619,0.10097859986126423,0.1008896001148969,0.7525090998969972
RSVPLG03,cs,20251106-125652,1.0.2,20251105-084826,738,Experiment,Both,1,Automatic,main,17,20251106-125829,local,global,750,S,H,E,A,E-S.png,H-A.png,sS,hH,mask-3.png,mask-3.png,h,0,0.3187313999515027,h,1,0.1328838001936674,0.04788829991593957,0.04717590007930994,0.10086619993671775,0.10149340005591512,0.7509715999476612
RSVPLG03,cs,20251106-125652,1.0.2,20251105-084826,738,Experiment,Both,1,Automatic,main,18,20251106-125834,global,local,750,S,S,A,E,S-A.png,E-S.png,sS,sS,mask-2.png,mask-3.png,s,1,0.3919522000942379,h,0,0.05684900004416704,0.04684989992529154,0.047694699838757515,0.10003530001267791,0.09968019998632371,0.7517212000675499
RSVPLG03,cs,20251106-125652,1.0.2,20251105-084826,738,Experiment,Both,1,Automatic,main,19,20251106-125839,global,global,300,S,H,A,A,S-A.png,H-A.png,sS,hH,mask-2.png,mask-2.png,s,1,0.37669159984216094,h,1,0.11530339997261763,0.04850099980831146,0.04769619996659458,0.10049069998785853,0.1018542000092566,0.3007232998497784
RSVPLG03,cs,20251106-125652,1.0.2,20251105-084826,738,Experiment,Both,1,Automatic,main,20,20251106-125843,local,global,300,S,S,A,A,A-S.png,S-A.png,sS,sS,mask-3.png,mask-4.png,s,1,0.3302388000302017,h,0,0.01170630007982254,0.0475598000921309,0.04757360019721091,0.10054960008710623,0.101529500214383,0.29990209988318384
RSVPLG03,cs,20251106-125652,1.0.2,20251105-084826,738,Experiment,Both,1,Automatic,main,21,20251106-125847,local,global,750,H,S,A,E,A-H.png,S-E.png,hH,sS,mask-1.png,mask-1.png,h,1,0.24712399998679757,s,1,0.189859600039199,0.04857439990155399,0.04770900006406009,0.10055109998211265,0.09959340002387762,0.7529656998813152
RSVPLG03,cs,20251106-125652,1.0.2,20251105-084826,738,Experiment,Both,1,Automatic,main,22,20251106-125851,local,global,300,S,S,A,A,A-S.png,S-A.png,sS,sS,mask-2.png,mask-3.png,s,1,0.3806719998829067,s,1,0.10137580009177327,0.04738290002569556,0.04838600009679794,0.1002509999088943,0.10138340014964342,0.29937889985740185
RSVPLG03,cs,20251106-125652,1.0.2,20251105-084826,738,Experiment,Both,1,Automatic,main,23,20251106-125855,local,local,300,H,S,A,E,A-H.png,E-S.png,hH,sS,mask-2.png,mask-4.png,h,1,0.17096549994312227,s,1,0.13388680014759302,0.046741899801418185,0.0477167998906225,0.10074369981884956,0.10042949998751283,0.2998822999652475
RSVPLG03,cs,20251106-125652,1.0.2,20251105-084826,738,Experiment,Both,1,Automatic,main,24,20251106-125859,local,global,300,S,S,A,E,A-S.png,S-E.png,sS,sS,mask-4.png,mask-2.png,h,0,0.5927070002071559,s,1,0.054283699952065945,0.04651520005427301,0.04751489986665547,0.10058269998989999,0.09953629993833601,0.30086840013973415
RSVPLG03,cs,20251106-125652,1.0.2,20251105-084826,738,Experiment,Both,1,Automatic,main,25,20251106-125904,global,global,300,S,S,E,A,S-E.png,S-A.png,sS,sS,mask-1.png,mask-4.png,h,0,0.32894510007463396,s,1,0.018240900011733174,0.04770739981904626,0.04636109992861748,0.09987169993110001,0.09929109993390739,0.30068719992414117
RSVPLG03,cs,20251106-125652,1.0.2,20251105-084826,738,Experiment,Both,1,Automatic,main,26,20251106-125909,local,global,300,H,S,E,E,E-H.png,S-E.png,hH,sS,mask-1.png,mask-2.png,h,1,0.13440899993292987,s,1,0.21434980002231896,0.048508499981835485,0.04780229995958507,0.10153720015659928,0.10000970005057752,0.30106230010278523
RSVPLG03,cs,20251106-125652,1.0.2,20251105-084826,738,Experiment,Both,1,Automatic,main,27,20251106-125913,global,global,300,S,S,A,E,S-A.png,S-E.png,sS,sS,mask-2.png,mask-3.png,s,1,0.19256380014121532,h,0,0.576989300083369,0.048190000001341105,0.0480899999383837,0.10124940006062388,0.10030569997616112,0.3010722000617534
RSVPLG03,cs,20251106-125652,1.0.2,20251105-084826,738,Experiment,Both,1,Automatic,main,28,20251106-125918,global,global,300,S,S,A,A,S-A.png,S-A.png,sS,sS,mask-4.png,mask-2.png,s,1,0.44556930009275675,s,1,0.0652135000564158,0.04739520000293851,0.04750439990311861,0.0996195999905467,0.1005670998711139,0.30085440003313124
RSVPLG03,cs,20251106-125652,1.0.2,20251105-084826,738,Experiment,Both,1,Automatic,main,29,20251106-125922,global,local,750,S,H,E,A,S-E.png,A-H.png,sS,hH,mask-1.png,mask-1.png,s,1,0.4090909000951797,s,0,0.08675340004265308,0.0467038000933826,0.048423900036141276,0.09990900009870529,0.10054909996688366,0.7512256000190973
RSVPLG03,cs,20251106-125652,1.0.2,20251105-084826,738,Experiment,Both,1,Automatic,main,30,20251106-125927,global,global,300,S,H,A,E,S-A.png,H-E.png,sS,hH,mask-4.png,mask-2.png,s,1,0.5167859999928623,h,1,0.009646899998188019,0.04771489999257028,0.0487042001914233,0.09979050001129508,0.10002510016784072,0.3002597999293357
RSVPLG03,cs,20251106-125652,1.0.2,20251105-084826,738,Experiment,Both,1,Automatic,main,31,20251106-125931,local,global,300,H,S,E,A,E-H.png,S-A.png,hH,sS,mask-2.png,mask-2.png,s,0,0.521290099946782,s,1,0.06654129992239177,0.04868269991129637,0.04755789996124804,0.10006369999609888,0.09964630007743835,0.30150089995004237
RSVPLG03,cs,20251106-125652,1.0.2,20251105-084826,738,Experiment,Both,1,Automatic,main,32,20251106-125935,global,local,300,H,S,E,A,H-E.png,A-S.png,hH,sS,mask-3.png,mask-1.png,h,1,0.8402315001003444,s,1,0.12074750009924173,0.04765959992073476,0.04756199987605214,0.10062610008753836,0.0999635998159647,0.30055900011211634
RSVPLG03,cs,20251106-125652,1.0.2,20251105-084826,738,Experiment,Both,1,Automatic,main,33,20251106-125940,local,local,300,H,H,A,A,A-H.png,A-H.png,hH,hH,mask-1.png,mask-3.png,s,0,1.0629375998396426,h,1,0.06813609995879233,0.04747939994558692,0.04749699984677136,0.10051020001992583,0.0994724000338465,0.30056390003301203
RSVPLG03,cs,20251106-125652,1.0.2,20251105-084826,738,Experiment,Both,1,Automatic,main,34,20251106-125945,global,local,300,H,S,A,A,H-A.png,A-S.png,hH,sS,mask-2.png,mask-1.png,h,1,0.8539742999710143,s,1,0.12415539985522628,0.047756899846717715,0.047492700163275,0.09976709983311594,0.09954500012099743,0.3010216997936368
RSVPLG03,cs,20251106-125652,1.0.2,20251105-084826,738,Experiment,Both,1,Automatic,main,35,20251106-125949,local,global,750,H,H,E,E,E-H.png,H-E.png,hH,hH,mask-3.png,mask-2.png,s,0,0.5338798000011593,h,1,0.08903590007685125,0.04671499994583428,0.047704300144687295,0.09993009991012514,0.09989860001951456,0.7512725999113172
RSVPLG03,cs,20251106-125652,1.0.2,20251105-084826,738,Experiment,Both,1,Automatic,main,36,20251106-125954,global,global,300,H,S,A,A,H-A.png,S-A.png,hH,sS,mask-4.png,mask-1.png,h,1,0.3323178000282496,s,1,0.12553220009431243,0.04776700004003942,0.04755250015296042,0.09980729990638793,0.09974590013734996,0.30016599991358817
RSVPLG03,cs,20251106-125652,1.0.2,20251105-084826,738,Experiment,Both,1,Automatic,main,37,20251106-125958,local,local,750,S,S,E,A,E-S.png,A-S.png,sS,sS,mask-3.png,mask-3.png,s,1,0.3453757001552731,s,1,0.09969240007922053,0.048489300068467855,0.047687399899587035,0.10130929993465543,0.09989189985208213,0.7529661001171917
RSVPLG03,cs,20251106-125652,1.0.2,20251105-084826,738,Experiment,Both,1,Automatic,main,38,20251106-130003,global,local,300,H,S,A,A,H-A.png,A-S.png,hH,sS,mask-2.png,mask-1.png,h,1,0.6520945001393557,s,1,0.12333810003474355,0.046736299991607666,0.047673300141468644,0.09992159996181726,0.09958870010450482,0.30152929993346334
RSVPLG03,cs,20251106-125652,1.0.2,20251105-084826,738,Experiment,Both,1,Automatic,main,39,20251106-130008,local,global,750,H,H,E,E,E-H.png,H-E.png,hH,hH,mask-4.png,mask-3.png,s,0,0.2777747998479754,h,1,0.18022199999541044,0.047432599822059274,0.04768369998782873,0.09962269989773631,0.10187150002457201,0.7511584998574108
RSVPLG03,cs,20251106-125652,1.0.2,20251105-084826,738,Experiment,Both,1,Automatic,main,40,20251106-130012,local,local,750,S,H,E,E,E-S.png,E-H.png,sS,hH,mask-4.png,mask-1.png,s,1,0.3290856000967324,s,0,0.12050909991376102,0.04770549992099404,0.047542099840939045,0.09992409986443818,0.10073559987358749,0.7514512999914587
RSVPLG03,cs,20251106-125652,1.0.2,20251105-084826,738,Experiment,Both,1,Automatic,main,41,20251106-130017,global,global,300,H,H,A,A,H-A.png,H-A.png,hH,hH,mask-2.png,mask-1.png,h,1,0.43972819996997714,s,0,0.10853009996935725,0.04753270000219345,0.04659350006841123,0.10080850007943809,0.09882450010627508,0.30229200003668666
RSVPLG03,cs,20251106-125652,1.0.2,20251105-084826,738,Experiment,Both,1,Automatic,main,42,20251106-130021,global,global,750,H,S,E,A,H-E.png,S-A.png,hH,sS,mask-3.png,mask-1.png,s,0,0.50098259979859,h,0,0.09106849995441735,0.04866899992339313,0.04768209997564554,0.10186609998345375,0.0991416999604553,0.7531991000287235
RSVPLG03,cs,20251106-125652,1.0.2,20251105-084826,738,Experiment,Both,1,Automatic,main,43,20251106-130026,global,local,300,H,H,E,E,H-E.png,E-H.png,hH,hH,mask-2.png,mask-1.png,h,1,0.3867556999903172,s,0,0.006983299972489476,0.0478210998699069,0.04776979982852936,0.10016059991903603,0.09995449986308813,0.30079080001451075
RSVPLG03,cs,20251106-125652,1.0.2,20251105-084826,738,Experiment,Both,1,Automatic,main,44,20251106-130030,local,global,300,S,S,A,A,A-S.png,S-A.png,sS,sS,mask-1.png,mask-2.png,s,1,0.3683175998739898,h,0,0.025579000124707818,0.04744970006868243,0.04773659980855882,0.09924770006909966,0.10127709992229939,0.2996305001433939
RSVPLG03,cs,20251106-125652,1.0.2,20251105-084826,738,Experiment,Both,1,Automatic,main,45,20251106-130034,local,local,750,H,S,E,A,E-H.png,A-S.png,hH,sS,mask-3.png,mask-3.png,h,1,0.3645911000203341,h,0,0.11970039992593229,0.04824709985405207,0.047524499939754605,0.10032099997624755,0.09947919985279441,0.7523626999463886
RSVPLG03,cs,20251106-125652,1.0.2,20251105-084826,738,Experiment,Both,1,Automatic,main,46,20251106-130039,global,global,750,S,H,E,E,S-E.png,H-E.png,sS,hH,mask-1.png,mask-1.png,s,1,0.5500101000070572,h,1,0.041195400059223175,0.047503900015726686,0.0475014999974519,0.10159259987995028,0.09950749995186925,0.7519404999911785
RSVPLG03,cs,20251106-125652,1.0.2,20251105-084826,738,Experiment,Both,1,Automatic,main,47,20251106-130044,global,local,750,S,S,E,A,S-E.png,A-S.png,sS,sS,mask-4.png,mask-2.png,s,1,0.16688269982114434,s,1,0.08976850006729364,0.04767620004713535,0.047689300030469894,0.0990758000407368,0.1017767998855561,0.7506353000644594
RSVPLG03,cs,20251106-125652,1.0.2,20251105-084826,738,Experiment,Both,1,Automatic,main,48,20251106-130048,global,local,300,H,S,A,A,H-A.png,A-S.png,hH,sS,mask-2.png,mask-3.png,h,1,0.33386969985440373,s,1,0.09623510017991066,0.046567700104787946,0.047618400072678924,0.10078360000625253,0.0998064000159502,0.29987059999257326
RSVPLG03,cs,20251106-125652,1.0.2,20251105-084826,738,Experiment,Both,1,Automatic,main,49,20251106-130052,global,global,300,H,H,E,E,H-E.png,H-E.png,hH,hH,mask-1.png,mask-2.png,h,1,0.16012490005232394,h,1,0.35883660009130836,0.04776500002481043,0.048034399980679154,0.09911860013380647,0.1003666000906378,0.2997723000589758
RSVPLG03,cs,20251106-125652,1.0.2,20251105-084826,738,Experiment,Both,1,Automatic,main,50,20251106-130056,local,local,750,H,S,E,E,E-H.png,E-S.png,hH,sS,mask-3.png,mask-3.png,h,1,0.05885230004787445,h,0,0.2754434999078512,0.04770569992251694,0.04771309997886419,0.09990629996173084,0.10091030015610158,0.7510422999039292
RSVPLG03,cs,20251106-125652,1.0.2,20251105-084826,738,Experiment,Both,1,Automatic,main,51,20251106-130103,global,global,750,S,S,A,A,S-A.png,S-A.png,sS,sS,mask-2.png,mask-4.png,s,1,0.518940299982205,s,1,0.01022719987668097,0.047362699871882796,0.04767660005018115,0.10208630003035069,0.10190290003083646,0.7519169999286532
RSVPLG03,cs,20251106-125652,1.0.2,20251105-084826,738,Experiment,Both,1,Automatic,main,52,20251106-130107,local,local,300,H,S,E,E,E-H.png,E-S.png,hH,sS,mask-1.png,mask-1.png,s,0,0.14546069991774857,s,1,0.32156700012274086,0.04774269997142255,0.04774469998665154,0.0999348999466747,0.10096949990838766,0.29993500001728535
RSVPLG03,cs,20251106-125652,1.0.2,20251105-084826,738,Experiment,Both,1,Automatic,main,53,20251106-130111,global,local,750,H,S,A,A,H-A.png,A-S.png,hH,sS,mask-4.png,mask-1.png,h,1,3.1747302999719977,h,0,0.39013620000332594,0.04766890010796487,0.04770349990576506,0.09989660000428557,0.09989929990842938,0.7517681000754237
RSVPLG03,cs,20251106-125652,1.0.2,20251105-084826,738,Experiment,Both,1,Automatic,main,54,20251106-130116,local,local,750,H,S,E,E,E-H.png,E-S.png,hH,sS,mask-4.png,mask-3.png,h,1,0.14748509996570647,h,0,0.36105599999427795,0.04768990003503859,0.047693599946796894,0.0998612002003938,0.09992669988423586,0.7520698001608253
RSVPLG03,cs,20251106-125652,1.0.2,20251105-084826,738,Experiment,Both,1,Automatic,main,55,20251106-130121,global,global,750,S,S,A,A,S-A.png,S-A.png,sS,sS,mask-4.png,mask-4.png,s,1,0.08962799981236458,s,1,0.23186539998278022,0.04762529977597296,0.04776300000958145,0.10078419977799058,0.09976379992440343,0.7525756999384612
RSVPLG03,cs,20251106-125652,1.0.2,20251105-084826,738,Experiment,Both,1,Automatic,main,56,20251106-130125,global,local,300,H,S,E,E,H-E.png,E-S.png,hH,sS,mask-4.png,mask-2.png,s,0,0.11823770008049905,s,1,1.2626058000605553,0.047726500080898404,0.04647250007838011,0.09993880009278655,0.09967470006085932,0.30059219989925623
RSVPLG03,cs,20251106-125652,1.0.2,20251105-084826,738,Experiment,Both,1,Automatic,main,57,20251106-130130,global,global,750,S,S,A,E,S-A.png,S-E.png,sS,sS,mask-3.png,mask-3.png,s,1,0.0706954998895526,s,1,0.27911369991488755,0.04697409993968904,0.047618099953979254,0.1000409999396652,0.09985979995690286,0.752715100068599
RSVPLG03,cs,20251106-125652,1.0.2,20251105-084826,738,Experiment,Both,1,Automatic,main,58,20251106-130135,global,local,300,H,H,E,A,H-E.png,A-H.png,hH,hH,mask-4.png,mask-4.png,h,1,0.08702780003659427,s,0,0.0812119001056999,0.0467312999535352,0.04855239996686578,0.10000750003382564,0.09981679986231029,0.2999857000540942
RSVPLG03,cs,20251106-125652,1.0.2,20251105-084826,738,Experiment,Both,1,Automatic,main,59,20251106-130139,global,local,300,S,H,A,E,S-A.png,E-H.png,sS,hH,mask-4.png,mask-1.png,s,1,0.10564860003069043,s,0,0.3932488998398185,0.04554090020246804,0.045743599999696016,0.09954710002057254,0.09888159995898604,0.3005258000921458
RSVPLG03,cs,20251106-125652,1.0.2,20251105-084826,738,Experiment,Both,1,Automatic,main,60,20251106-130143,global,global,750,S,S,E,A,S-E.png,S-A.png,sS,sS,mask-4.png,mask-4.png,s,1,0.27592269983142614,s,1,0.46953579992987216,0.04854610003530979,0.04667100007645786,0.10156959993764758,0.10068050003610551,0.7527487999759614
RSVPLG03,cs,20251106-125652,1.0.2,20251105-084826,738,Experiment,Both,1,Automatic,main,61,20251106-130148,global,local,300,H,H,A,E,H-A.png,E-H.png,hH,hH,mask-2.png,mask-2.png,h,1,0.3711334001272917,h,1,0.2748584998771548,0.04750000010244548,0.047448899829760194,0.10049280012026429,0.10042919986881316,0.3002925000619143
RSVPLG03,cs,20251106-125652,1.0.2,20251105-084826,738,Experiment,Both,1,Automatic,main,62,20251106-130152,global,local,750,S,H,E,A,S-E.png,A-H.png,sS,hH,mask-4.png,mask-4.png,s,1,0.04506210004910827,s,0,0.6267515998333693,0.047505199909210205,0.04825160000473261,0.10152169992215931,0.10027249995619059,0.7519100999925286
RSVPLG03,cs,20251106-125652,1.0.2,20251105-084826,738,Experiment,Both,1,Automatic,main,63,20251106-130157,global,local,750,S,H,E,A,S-E.png,A-H.png,sS,hH,mask-2.png,mask-3.png,s,1,0.14916800009086728,s,0,0.33456999994814396,0.04655220010317862,0.04767049988731742,0.0997358001768589,0.09986019995994866,0.7518176001030952
RSVPLG03,cs,20251106-125652,1.0.2,20251105-084826,738,Experiment,Both,1,Automatic,main,64,20251106-130202,local,global,300,S,S,E,A,E-S.png,S-A.png,sS,sS,mask-4.png,mask-4.png,s,1,0.07244899985380471,h,0,0.13848760002292693,0.04757419996894896,0.04781430005095899,0.09962190012447536,0.09926020004786551,0.29999620001763105
RSVPLG03,cs,20251106-125652,1.0.2,20251105-084826,738,Experiment,Both,1,Automatic,main,65,20251106-130206,global,local,300,S,H,A,E,S-A.png,E-H.png,sS,hH,mask-3.png,mask-1.png,s,1,0.34881190001033247,s,0,0.39766810019500554,0.04733689990825951,0.04770480003207922,0.10063709993846714,0.10189279983751476,0.3002806999720633
RSVPLG03,cs,20251106-125652,1.0.2,20251105-084826,738,Experiment,Both,1,Automatic,main,66,20251106-130210,local,local,300,S,H,A,E,A-S.png,E-H.png,sS,hH,mask-3.png,mask-2.png,s,1,0.08900330006144941,h,1,0.22931479988619685,0.046708800131455064,0.04785610013641417,0.10080830007791519,0.1018552000168711,0.2993636999744922
RSVPLG03,cs,20251106-125652,1.0.2,20251105-084826,738,Experiment,Both,1,Automatic,main,67,20251106-130214,global,global,750,S,S,E,A,S-E.png,S-A.png,sS,sS,mask-3.png,mask-1.png,s,1,0.3153751001227647,s,1,0.04386279988102615,0.047654799884185195,0.048862600000575185,0.09968369989655912,0.10005760006606579,0.7512519999872893
RSVPLG03,cs,20251106-125652,1.0.2,20251105-084826,738,Experiment,Both,1,Automatic,main,68,20251106-130218,global,global,750,S,H,E,E,S-E.png,H-E.png,sS,hH,mask-2.png,mask-2.png,s,1,0.12306499993428588,h,1,0.4754463001154363,0.04867609986104071,0.046682899817824364,0.10007349983789027,0.09986869990825653,0.7532114000059664
RSVPLG03,cs,20251106-125652,1.0.2,20251105-084826,738,Experiment,Both,1,Automatic,main,69,20251106-130223,local,global,750,H,H,E,A,E-H.png,H-A.png,hH,hH,mask-2.png,mask-3.png,s,0,0.2431663000024855,h,1,0.10215050005353987,0.047697899863123894,0.04861279996111989,0.09951759991236031,0.10067630000412464,0.7504392999690026
RSVPLG03,cs,20251106-125652,1.0.2,20251105-084826,738,Experiment,Both,1,Automatic,main,70,20251106-130228,local,local,750,S,H,A,E,A-S.png,E-H.png,sS,hH,mask-1.png,mask-1.png,s,1,0.2819701998960227,s,0,0.3098064998630434,0.048542500007897615,0.046488599851727486,0.10055670002475381,0.09871709998697042,0.7529967001173645
RSVPLG03,cs,20251106-125652,1.0.2,20251105-084826,738,Experiment,Both,1,Automatic,main,71,20251106-130232,local,global,300,H,S,A,A,A-H.png,S-A.png,hH,sS,mask-2.png,mask-2.png,s,0,0.08029539999552071,h,0,0.2751740999519825,0.04734140005894005,0.04825839982368052,0.10041329986415803,0.10030539985746145,0.3000660000834614
RSVPLG03,cs,20251106-125652,1.0.2,20251105-084826,738,Experiment,Both,1,Automatic,main,72,20251106-130236,local,local,750,S,H,E,E,E-S.png,E-H.png,sS,hH,mask-4.png,mask-2.png,s,1,0.3718866999261081,s,0,0.3214420999865979,0.046489700209349394,0.04758780007250607,0.10054850019514561,0.09957349998876452,0.7508572000078857
RSVPLG03,cs,20251106-125652,1.0.2,20251105-084826,738,Experiment,Both,1,Automatic,main,73,20251106-130241,global,local,750,H,H,A,A,H-A.png,A-H.png,hH,hH,mask-4.png,mask-4.png,h,1,0.07627630000934005,h,1,0.3564151998143643,0.04753450001589954,0.0475449999794364,0.10053710010834038,0.10156089998781681,0.7511281000915915
RSVPLG03,cs,20251106-125652,1.0.2,20251105-084826,738,Experiment,Both,1,Automatic,main,74,20251106-130246,local,global,750,H,H,E,E,E-H.png,H-E.png,hH,hH,mask-2.png,mask-3.png,h,1,0.10901529993861914,h,1,0.4592599000316113,0.04614849993959069,0.04766670009121299,0.09871749999001622,0.10188529989682138,0.7504646999295801
RSVPLG03,cs,20251106-125652,1.0.2,20251105-084826,738,Experiment,Both,1,Automatic,main,75,20251106-130250,local,global,750,H,S,A,E,A-H.png,S-E.png,hH,sS,mask-3.png,mask-1.png,h,1,0.06507660006172955,h,0,0.5194830000400543,0.04572540009394288,0.04756829980760813,0.09988799993880093,0.09960959991440177,0.7512076001148671
RSVPLG03,cs,20251106-125652,1.0.2,20251105-084826,738,Experiment,Both,1,Automatic,main,76,20251106-130258,local,global,300,H,S,E,A,E-H.png,S-A.png,hH,sS,mask-3.png,mask-1.png,s,0,0.2527630999684334,s,1,0.4747206000611186,0.04739459999836981,0.04780300008133054,0.10061239986680448,0.10045130015350878,0.3001969999168068
RSVPLG03,cs,20251106-125652,1.0.2,20251105-084826,738,Experiment,Both,1,Automatic,main,77,20251106-130303,local,local,750,S,H,E,E,E-S.png,E-H.png,sS,hH,mask-3.png,mask-3.png,h,0,4.694286800222471,s,0,0.12935560010373592,0.04689730005338788,0.04758409992791712,0.10012009995989501,0.10060069989413023,0.7513093000743538
RSVPLG03,cs,20251106-125652,1.0.2,20251105-084826,738,Experiment,Both,1,Automatic,main,78,20251106-130308,local,local,300,S,S,E,E,E-S.png,E-S.png,sS,sS,mask-3.png,mask-4.png,s,1,0.9358985000289977,h,0,0.8077787000220269,0.04769460018724203,0.04878460010513663,0.09988530003465712,0.1014954000711441,0.3002740000374615
RSVPLG03,cs,20251106-125652,1.0.2,20251105-084826,738,Experiment,Both,1,Automatic,main,79,20251106-130312,local,global,750,S,S,A,A,A-S.png,S-A.png,sS,sS,mask-3.png,mask-2.png,h,0,0.5573108000680804,h,0,0.24568619998171926,0.047720800153911114,0.0487790999468416,0.09993560006842017,0.10094709997065365,0.7508404001127928
RSVPLG03,cs,20251106-125652,1.0.2,20251105-084826,738,Experiment,Both,1,Automatic,main,80,20251106-130316,global,local,750,H,S,A,A,H-A.png,A-S.png,hH,sS,mask-3.png,mask-3.png,h,1,0.16078619984909892,h,0,0.7266583000309765,0.047008599853143096,0.047687500016763806,0.10025170003063977,0.09989499999210238,0.752022200031206
RSVPLG03,cs,20251106-125652,1.0.2,20251105-084826,738,Experiment,Both,1,Automatic,main,81,20251106-130321,global,global,300,H,H,E,A,H-E.png,H-A.png,hH,hH,mask-4.png,mask-1.png,h,1,0.08615089999511838,s,0,0.42872389988042414,0.04871680005453527,0.047517200000584126,0.10097160004079342,0.1004963000304997,0.30231820000335574
RSVPLG03,cs,20251106-125652,1.0.2,20251105-084826,738,Experiment,Both,1,Automatic,main,82,20251106-130326,global,global,300,H,S,E,E,H-E.png,S-E.png,hH,sS,mask-4.png,mask-2.png,h,1,0.7623787999618798,s,1,0.05150770000182092,0.04852809989824891,0.04653559997677803,0.10159839992411435,0.0995803999248892,0.3020339999347925
RSVPLG03,cs,20251106-125652,1.0.2,20251105-084826,738,Experiment,Both,1,Automatic,main,83,20251106-130330,local,global,750,H,S,E,E,E-H.png,S-E.png,hH,sS,mask-4.png,mask-1.png,s,0,0.024479700019583106,s,1,0.49479359993711114,0.04658149997703731,0.04758970020338893,0.09944480005651712,0.10160870011895895,0.7506613999139518
RSVPLG03,cs,20251106-125652,1.0.2,20251105-084826,738,Experiment,Both,1,Automatic,main,84,20251106-130335,local,global,300,S,H,A,E,A-S.png,H-E.png,sS,hH,mask-1.png,mask-4.png,h,0,0.5201236000284553,h,1,0.9402666999958456,0.04724360001273453,0.04664740012958646,0.10029440000653267,0.09965420002117753,0.3003634000197053
RSVPLG03,cs,20251106-125652,1.0.2,20251105-084826,738,Experiment,Both,1,Automatic,main,85,20251106-130339,global,local,750,S,S,E,A,S-E.png,A-S.png,sS,sS,mask-2.png,mask-1.png,s,1,0.06675850017927587,h,0,0.06919780001044273,0.046720500104129314,0.047093299916014075,0.09979479992762208,0.10020049987360835,0.7517337000463158
RSVPLG03,cs,20251106-125652,1.0.2,20251105-084826,738,Experiment,Both,1,Automatic,main,86,20251106-130344,global,local,300,H,H,E,A,H-E.png,A-H.png,hH,hH,mask-3.png,mask-4.png,h,1,0.006778700044378638,h,1,0.2898792999330908,0.04914670018479228,0.04770889994688332,0.10000910004600883,0.09966609999537468,0.30214190017431974
RSVPLG03,cs,20251106-125652,1.0.2,20251105-084826,738,Experiment,Both,1,Automatic,main,87,20251106-130348,local,local,300,S,H,A,A,A-S.png,A-H.png,sS,hH,mask-1.png,mask-2.png,h,0,0.05421360000036657,s,0,0.15978850005194545,0.047675800044089556,0.04758930020034313,0.09869210002943873,0.09977470012381673,0.3001166000030935
RSVPLG03,cs,20251106-125652,1.0.2,20251105-084826,738,Experiment,Both,1,Automatic,main,88,20251106-130352,local,local,750,S,H,A,E,A-S.png,E-H.png,sS,hH,mask-4.png,mask-1.png,h,0,0.3165068000089377,s,0,0.006551300175487995,0.0475096998270601,0.04778010002337396,0.10051220003515482,0.10040890006348491,0.7511268998496234
RSVPLG03,cs,20251106-125652,1.0.2,20251105-084826,738,Experiment,Both,1,Automatic,main,89,20251106-130356,global,local,750,H,H,A,E,H-A.png,E-H.png,hH,hH,mask-1.png,mask-1.png,s,0,0.0707914000377059,h,1,0.02139099990017712,0.04651489993557334,0.047325200168415904,0.09952989988960326,0.10034840018488467,0.7513618997763842
RSVPLG03,cs,20251106-125652,1.0.2,20251105-084826,738,Experiment,Both,1,Automatic,main,90,20251106-130400,global,global,300,S,H,E,A,S-E.png,H-A.png,sS,hH,mask-1.png,mask-1.png,h,0,0.37447419995442033,s,0,0.17435580003075302,0.047090900130569935,0.04774579987861216,0.0991601999849081,0.09956569992937148,0.3010049001313746
RSVPLG03,cs,20251106-125652,1.0.2,20251105-084826,738,Experiment,Both,1,Automatic,main,91,20251106-130404,local,global,750,H,S,E,A,E-H.png,S-A.png,hH,sS,mask-3.png,mask-1.png,s,0,0.33084710012190044,h,0,0.12410659994930029,0.04780150018632412,0.04612459987401962,0.099840700160712,0.09923990000970662,0.7518894001841545
RSVPLG03,cs,20251106-125652,1.0.2,20251105-084826,738,Experiment,Both,1,Automatic,main,92,20251106-130409,local,local,300,S,S,E,E,E-S.png,E-S.png,sS,sS,mask-1.png,mask-4.png,h,0,0.36306390003301203,h,0,0.00665850006043911,0.047660900047048926,0.047679000068455935,0.10073229996487498,0.10076709999702871,0.3003008000086993
RSVPLG03,cs,20251106-125652,1.0.2,20251105-084826,738,Experiment,Both,1,Automatic,main,93,20251106-130413,global,global,300,H,S,E,E,H-E.png,S-E.png,hH,sS,mask-2.png,mask-3.png,s,0,0.39607049990445375,h,0,0.5404256000183523,0.047809300012886524,0.0476110999006778,0.10005689994432032,0.09986059996299446,0.3007338000461459
RSVPLG03,cs,20251106-125652,1.0.2,20251105-084826,738,Experiment,Both,1,Automatic,main,94,20251106-130417,local,local,300,H,S,A,A,A-H.png,A-S.png,hH,sS,mask-1.png,mask-4.png,h,1,0.14782080007717013,s,1,0.20153180020861328,0.0485257999971509,0.04740789998322725,0.100584999890998,0.10052790003828704,0.3008437999524176
RSVPLG03,cs,20251106-125652,1.0.2,20251105-084826,738,Experiment,Both,1,Automatic,main,95,20251106-130421,local,local,300,H,H,A,E,A-H.png,E-H.png,hH,hH,mask-4.png,mask-4.png,h,1,0.17104130005463958,s,0,0.022032100008800626,0.04727069986984134,0.047143599949777126,0.10044069983996451,0.1014952000696212,0.300091499928385
RSVPLG03,cs,20251106-125652,1.0.2,20251105-084826,738,Experiment,Both,1,Automatic,main,96,20251106-130425,global,local,750,S,S,A,A,S-A.png,A-S.png,sS,sS,mask-3.png,mask-4.png,h,0,0.012219100026413798,s,1,0.12133700004778802,0.04899809998460114,0.04576469981111586,0.10022050002589822,0.09992379997856915,0.7533382000401616
RSVPLG03,cs,20251106-125652,1.0.2,20251105-084826,738,Experiment,Both,1,Automatic,main,97,20251106-130429,global,global,750,H,S,E,A,H-E.png,S-A.png,hH,sS,mask-2.png,mask-2.png,h,1,0.13413959997706115,s,1,0.09117490006610751,0.04748750012367964,0.04860560013912618,0.10072159999981523,0.09982719994150102,0.7506957000587136
RSVPLG03,cs,20251106-125652,1.0.2,20251105-084826,738,Experiment,Both,1,Automatic,main,98,20251106-130434,local,local,750,H,S,A,E,A-H.png,E-S.png,hH,sS,mask-2.png,mask-3.png,h,1,0.4026099001057446,s,1,0.004061999963596463,0.047046400140970945,0.046789699932560325,0.10020590014755726,0.09994530002586544,0.7521663000807166
RSVPLG03,cs,20251106-125652,1.0.2,20251105-084826,738,Experiment,Both,1,Automatic,main,99,20251106-130438,local,local,750,S,H,E,A,E-S.png,A-H.png,sS,hH,mask-1.png,mask-4.png,h,0,1.3196777999401093,h,1,0.0886311000213027,0.047715699998661876,0.048739399993792176,0.10013870010152459,0.10099190007895231,0.7506762000266463
RSVPLG03,cs,20251106-125652,1.0.2,20251105-084826,738,Experiment,Both,1,Automatic,main,100,20251106-130444,local,local,300,S,S,E,E,E-S.png,E-S.png,sS,sS,mask-1.png,mask-1.png,s,1,0.3595187000464648,s,1,0.05172750004567206,0.047686100006103516,0.04766030004248023,0.0998686000239104,0.10085560008883476,0.3001566999591887
RSVPLG03,cs,20251106-130525,1.0.2,20251105-084826,738,Experiment,Both,1,Automatic,warmup,1,20251106-130549,local,global,300,H,H,E,A,E-H.png,H-A.png,hH,hH,mask-3.png,mask-1.png,h,1,0.7238274000119418,h,1,0.5117419001180679,0.04001959995366633,0.04758049990050495,0.09247840009629726,0.09890089998953044,0.2926757000386715
RSVPLG03,cs,20251106-130525,1.0.2,20251105-084826,738,Experiment,Both,1,Automatic,warmup,2,20251106-130554,global,local,750,H,S,A,A,H-A.png,A-S.png,hH,sS,mask-2.png,mask-3.png,h,1,0.4156070000026375,h,0,0.11644720006734133,0.047482699854299426,0.04659330006688833,0.09933909983374178,0.09863010002300143,0.7488193998578936
RSVPLG03,cs,20251106-130525,1.0.2,20251105-084826,738,Experiment,Both,1,Automatic,warmup,3,20251106-130559,local,global,750,S,S,E,E,E-S.png,S-E.png,sS,sS,mask-1.png,mask-3.png,s,1,0.3245056001469493,h,0,0.15762539999559522,0.04849479999393225,0.04752869997173548,0.09938920009881258,0.09921959997154772,0.7477500999812037
RSVPLG03,cs,20251106-130525,1.0.2,20251105-084826,738,Experiment,Both,1,Automatic,warmup,4,20251106-130604,global,global,750,S,S,A,A,S-A.png,S-A.png,sS,sS,mask-3.png,mask-2.png,s,1,0.15558340004645288,s,1,0.05794219998642802,0.04843290010467172,0.04771879990585148,0.10132630006410182,0.10000770003534853,0.7491677000652999
RSVPLG03,cs,20251106-130525,1.0.2,20251105-084826,738,Experiment,Both,1,Automatic,main,5,20251106-130608,local,global,300,S,H,E,E,E-S.png,H-E.png,sS,hH,mask-2.png,mask-2.png,s,1,0.17765369988046587,h,1,0.05009900010190904,0.046549499966204166,0.04764409991912544,0.09981699986383319,0.09953439980745316,0.29938960005529225
RSVPLG03,cs,20251106-130525,1.0.2,20251105-084826,738,Experiment,Both,1,Automatic,main,6,20251106-130612,global,local,750,S,H,A,A,S-A.png,A-H.png,sS,hH,mask-2.png,mask-3.png,s,1,0.3277058000676334,s,0,0.058984499890357256,0.04868000000715256,0.04774699988774955,0.09979730006307364,0.0999735000077635,0.7482249999884516
RSVPLG03,cs,20251106-130525,1.0.2,20251105-084826,738,Experiment,Both,1,Automatic,main,7,20251106-130616,global,local,750,H,H,A,A,H-A.png,A-H.png,hH,hH,mask-4.png,mask-4.png,h,1,0.27891710004769266,s,0,0.12514949985779822,0.04752949997782707,0.047483199974521995,0.10058309999294579,0.09947489993646741,0.7484410000033677
RSVPLG03,cs,20251106-130525,1.0.2,20251105-084826,738,Experiment,Both,1,Automatic,main,8,20251106-130621,local,local,750,S,S,A,E,A-S.png,E-S.png,sS,sS,mask-4.png,mask-2.png,h,0,0.46768329991027713,h,0,0.13959080004133284,0.047540999948978424,0.04720149980857968,0.10033999988809228,0.1012364998459816,0.7476331000216305
RSVPLG03,cs,20251106-130525,1.0.2,20251105-084826,738,Experiment,Both,1,Automatic,main,9,20251106-130626,local,global,300,S,H,E,E,E-S.png,H-E.png,sS,hH,mask-1.png,mask-3.png,s,1,0.43114990019239485,s,0,0.05438350001350045,0.047325899824500084,0.04730500001460314,0.10034859995357692,0.10035039996728301,0.30008569988422096
RSVPLG03,cs,20251106-130525,1.0.2,20251105-084826,738,Experiment,Both,1,Automatic,main,10,20251106-130630,global,global,750,S,H,A,E,S-A.png,H-E.png,sS,hH,mask-4.png,mask-4.png,s,1,0.42225420009344816,h,1,0.057855899911373854,0.04869490000419319,0.04870899999514222,0.099903300171718,0.09990380005910993,0.7478599001187831
RSVPLG03,cs,20251106-130525,1.0.2,20251105-084826,738,Experiment,Both,1,Automatic,main,11,20251106-130634,global,global,750,H,H,E,A,H-E.png,H-A.png,hH,hH,mask-2.png,mask-3.png,h,1,0.47150139999575913,h,1,0.09360910020768642,0.04744860017672181,0.047520200023427606,0.09947890019975603,0.09954089997336268,0.7480777001474053
RSVPLG03,cs,20251106-130525,1.0.2,20251105-084826,738,Experiment,Both,1,Automatic,main,12,20251106-130639,local,global,300,S,H,A,A,A-S.png,H-A.png,sS,hH,mask-2.png,mask-4.png,s,1,0.5575910001061857,s,0,0.06848579994402826,0.047328999964520335,0.047432899940758944,0.10131619987078011,0.09942599991336465,0.3005713999737054
RSVPLG03,cs,20251106-130525,1.0.2,20251105-084826,738,Experiment,Both,1,Automatic,main,13,20251106-130643,global,local,750,H,S,A,E,H-A.png,E-S.png,hH,sS,mask-4.png,mask-1.png,h,1,0.36310939979739487,s,1,0.17280729999765754,0.04867650009691715,0.046688799979165196,0.09975200006738305,0.1009360000025481,0.7479372001253068
RSVPLG03,cs,20251106-130525,1.0.2,20251105-084826,738,Experiment,Both,1,Automatic,main,14,20251106-130648,global,global,750,H,H,E,E,H-E.png,H-E.png,hH,hH,mask-4.png,mask-3.png,h,1,1.1777204000391066,h,1,0.1329785999841988,0.04769079992547631,0.047688999911770225,0.1009018998593092,0.09989740001037717,0.7481847999151796
RSVPLG03,cs,20251106-130525,1.0.2,20251105-084826,738,Experiment,Both,1,Automatic,main,15,20251106-130653,local,global,300,H,H,E,E,E-H.png,H-E.png,hH,hH,mask-1.png,mask-4.png,s,0,0.4013043998274952,h,1,0.1532825999893248,0.04768819990567863,0.0475490998942405,0.09994839993305504,0.09995469986461103,0.299588399939239
RSVPLG03,cs,20251106-130525,1.0.2,20251105-084826,738,Experiment,Both,1,Automatic,main,16,20251106-130658,local,global,750,H,H,E,A,E-H.png,H-A.png,hH,hH,mask-4.png,mask-3.png,h,1,0.5460849998053163,h,1,0.08741540019400418,0.048856900073587894,0.04551039985381067,0.09897120017558336,0.09879509988240898,0.7493840001989156
RSVPLG03,cs,20251106-130525,1.0.2,20251105-084826,738,Experiment,Both,1,Automatic,main,17,20251106-130702,local,local,300,H,S,E,A,E-H.png,A-S.png,hH,sS,mask-4.png,mask-3.png,s,0,0.34689719998277724,h,0,0.08314610016532242,0.04770749993622303,0.04855400021187961,0.09994230000302196,0.09975930000655353,0.29956829990260303
RSVPLG03,cs,20251106-130525,1.0.2,20251105-084826,738,Experiment,Both,1,Automatic,main,18,20251106-130707,local,global,750,H,S,E,A,E-H.png,S-A.png,hH,sS,mask-4.png,mask-2.png,h,1,0.042656000005081296,s,1,0.4095637002028525,0.04872580012306571,0.047571999952197075,0.10090520000085235,0.10069019999355078,0.7471076000947505
RSVPLG03,cs,20251106-130525,1.0.2,20251105-084826,738,Experiment,Both,1,Automatic,main,19,20251106-130711,local,local,750,S,H,A,E,A-S.png,E-H.png,sS,hH,mask-2.png,mask-2.png,s,1,0.2856761999428272,h,1,0.505385700147599,0.047663799952715635,0.047522599808871746,0.09986030007712543,0.09884199989028275,0.7490086001344025
RSVPLG03,cs,20251106-130525,1.0.2,20251105-084826,738,Experiment,Both,1,Automatic,main,20,20251106-130716,global,local,750,H,S,E,E,H-E.png,E-S.png,hH,sS,mask-4.png,mask-4.png,h,1,0.41405749996192753,s,1,0.057076199911534786,0.04768369998782873,0.04668719996698201,0.09976420016027987,0.09989290009252727,0.7489823000505567
RSVPLG03,cs,20251106-130525,1.0.2,20251105-084826,738,Experiment,Both,1,Automatic,main,21,20251106-130720,global,local,300,H,H,A,A,H-A.png,A-H.png,hH,hH,mask-2.png,mask-2.png,h,1,0.13601920008659363,s,0,0.0122618000023067,0.047742499969899654,0.04777990002185106,0.09993470017798245,0.09997979993931949,0.2985676000826061
RSVPLG03,cs,20251106-130525,1.0.2,20251105-084826,738,Experiment,Both,1,Automatic,main,22,20251106-130724,global,local,300,S,S,E,A,S-E.png,A-S.png,sS,sS,mask-3.png,mask-3.png,h,0,0.2559120999649167,s,1,0.4835371000226587,0.04650900000706315,0.04773499979637563,0.09968560002744198,0.10000599990598857,0.2974951001815498
RSVPLG03,cs,20251106-130525,1.0.2,20251105-084826,738,Experiment,Both,1,Automatic,main,23,20251106-130728,local,local,300,S,S,A,A,A-S.png,A-S.png,sS,sS,mask-3.png,mask-2.png,s,1,0.3827686000149697,s,1,0.06995689985342324,0.047671400010585785,0.04694159980863333,0.09989640000276268,0.09915649984031916,0.29949690005742013
RSVPLG03,cs,20251106-130525,1.0.2,20251105-084826,738,Experiment,Both,1,Automatic,main,24,20251106-130732,global,global,300,H,S,A,E,H-A.png,S-E.png,hH,sS,mask-4.png,mask-3.png,h,1,0.38721449999138713,s,1,0.16114709991961718,0.047514700097963214,0.04706500004976988,0.09978109993971884,0.09953719982877374,0.29940730007365346
RSVPLG03,cs,20251106-130525,1.0.2,20251105-084826,738,Experiment,Both,1,Automatic,main,25,20251106-130736,global,local,300,H,S,E,A,H-E.png,A-S.png,hH,sS,mask-4.png,mask-4.png,h,1,0.4237329999450594,s,1,0.0865914998576045,0.04868630017153919,0.04669109988026321,0.09989070007577538,0.09794129990041256,0.3005018001422286
RSVPLG03,cs,20251106-130525,1.0.2,20251105-084826,738,Experiment,Both,1,Automatic,main,26,20251106-130741,local,global,750,S,S,E,E,E-S.png,S-E.png,sS,sS,mask-4.png,mask-1.png,s,1,0.24534899997524917,s,1,0.08801049995236099,0.046933300094679,0.04742940003052354,0.09996020002290606,0.10062550008296967,0.7480526000726968
RSVPLG03,cs,20251106-130525,1.0.2,20251105-084826,738,Experiment,Both,1,Automatic,main,27,20251106-130746,global,global,750,S,S,A,A,S-A.png,S-A.png,sS,sS,mask-1.png,mask-4.png,s,1,0.2578318000305444,s,1,0.18149450002238154,0.04772939998656511,0.04578300006687641,0.10008150013163686,0.09793430007994175,0.7492370000109076
RSVPLG03,cs,20251106-130525,1.0.2,20251105-084826,738,Experiment,Both,1,Automatic,main,28,20251106-130750,local,global,750,S,H,A,E,A-S.png,H-E.png,sS,hH,mask-4.png,mask-3.png,s,1,0.4085824000649154,h,1,1.8626835998147726,0.04753079987131059,0.04738739994354546,0.09966089995577931,0.10041590011678636,0.7476859998423606
RSVPLG03,cs,20251106-130525,1.0.2,20251105-084826,738,Experiment,Both,1,Automatic,main,29,20251106-130755,local,local,300,S,H,A,A,A-S.png,A-H.png,sS,hH,mask-2.png,mask-2.png,s,1,0.31138120009563863,s,0,0.08810569997876883,0.046508200000971556,0.04751339997164905,0.09953569993376732,0.09983190009370446,0.2988050999119878
RSVPLG03,cs,20251106-130525,1.0.2,20251105-084826,738,Experiment,Both,1,Automatic,main,30,20251106-130759,global,global,750,H,S,A,A,H-A.png,S-A.png,hH,sS,mask-4.png,mask-4.png,h,1,0.021434899885207415,h,0,0.2935373999644071,0.04883469990454614,0.0477076000533998,0.09985350002534688,0.09981140005402267,0.7479900999460369
RSVPLG03,cs,20251106-130525,1.0.2,20251105-084826,738,Experiment,Both,1,Automatic,main,31,20251106-130803,global,global,300,S,H,A,E,S-A.png,H-E.png,sS,hH,mask-2.png,mask-2.png,s,1,0.23061079997569323,s,0,0.07098439987748861,0.04767749994061887,0.04767540004104376,0.09993029991164804,0.09988720016553998,0.29937969986349344
RSVPLG03,cs,20251106-130525,1.0.2,20251105-084826,738,Experiment,Both,1,Automatic,main,32,20251106-130807,global,global,300,S,H,A,A,S-A.png,H-A.png,sS,hH,mask-2.png,mask-1.png,s,1,0.7311203998979181,h,1,0.10219469992443919,0.04793519992381334,0.04651340004056692,0.10043849982321262,0.09935100004076958,0.3009714998770505
RSVPLG03,cs,20251106-130525,1.0.2,20251105-084826,738,Experiment,Both,1,Automatic,main,33,20251106-130812,local,local,300,S,S,A,A,A-S.png,A-S.png,sS,sS,mask-4.png,mask-1.png,s,1,0.8593227001838386,s,1,0.09354549995623529,0.04640710004605353,0.04741599992848933,0.09836099995300174,0.09932740009389818,0.2985016000457108
RSVPLG03,cs,20251106-130525,1.0.2,20251105-084826,738,Experiment,Both,1,Automatic,main,34,20251106-130816,global,global,300,H,S,A,E,H-A.png,S-E.png,hH,sS,mask-3.png,mask-4.png,h,1,0.10259729996323586,s,1,0.04371009999886155,0.04764250013977289,0.048947100061923265,0.10072200000286102,0.09978950000368059,0.29880050010979176
RSVPLG03,cs,20251106-130525,1.0.2,20251105-084826,738,Experiment,Both,1,Automatic,main,35,20251106-130820,local,global,750,S,H,A,E,A-S.png,H-E.png,sS,hH,mask-1.png,mask-4.png,s,1,0.31607370008714497,h,1,0.2679638999979943,0.047690500039607286,0.04751499998383224,0.10015409998595715,0.09955559996888041,0.7477839000057429
RSVPLG03,cs,20251106-130525,1.0.2,20251105-084826,738,Experiment,Both,1,Automatic,main,36,20251106-130825,local,global,750,S,H,A,E,A-S.png,H-E.png,sS,hH,mask-4.png,mask-2.png,s,1,0.4509651998523623,h,1,0.26790429977700114,0.04752700007520616,0.047520099906250834,0.09954500012099743,0.1005233998876065,0.7472612001001835
RSVPLG03,cs,20251106-130525,1.0.2,20251105-084826,738,Experiment,Both,1,Automatic,main,37,20251106-130830,global,local,750,H,H,A,E,H-A.png,E-H.png,hH,hH,mask-4.png,mask-2.png,s,0,0.457757200114429,h,1,0.07485770015046,0.04652860015630722,0.04686010000295937,0.0995968000497669,0.09998399997130036,0.7474222001619637
RSVPLG03,cs,20251106-130525,1.0.2,20251105-084826,738,Experiment,Both,1,Automatic,main,38,20251106-130835,local,global,300,H,H,E,E,E-H.png,H-E.png,hH,hH,mask-1.png,mask-2.png,h,1,0.653740200214088,h,1,0.4444481001701206,0.04773849993944168,0.047689300030469894,0.09893689979799092,0.09990600007586181,0.2986107999458909
RSVPLG03,cs,20251106-130525,1.0.2,20251105-084826,738,Experiment,Both,1,Automatic,main,39,20251106-130839,global,local,750,S,H,E,A,S-E.png,A-H.png,sS,hH,mask-1.png,mask-4.png,s,1,0.3375240999739617,h,1,0.058644199976697564,0.04837810015305877,0.047554299933835864,0.10042730020359159,0.10066540003754199,0.7481104000471532
RSVPLG03,cs,20251106-130525,1.0.2,20251105-084826,738,Experiment,Both,1,Automatic,main,40,20251106-130844,global,global,750,S,H,E,E,S-E.png,H-E.png,sS,hH,mask-3.png,mask-1.png,s,1,0.5830578000750393,h,1,0.10656520002521574,0.047007800079882145,0.047562999883666635,0.09846560005098581,0.09977129986509681,0.7474648000206798
RSVPLG03,cs,20251106-130525,1.0.2,20251105-084826,738,Experiment,Both,1,Automatic,main,41,20251106-130848,global,global,750,S,S,A,A,S-A.png,S-A.png,sS,sS,mask-2.png,mask-2.png,s,1,0.3827604001853615,s,1,0.13502399995923042,0.046490499982610345,0.0477982999291271,0.09914580010809004,0.09995230007916689,0.7478410000912845
RSVPLG03,cs,20251106-130525,1.0.2,20251105-084826,738,Experiment,Both,1,Automatic,main,42,20251106-130853,global,global,750,S,H,A,A,S-A.png,H-A.png,sS,hH,mask-4.png,mask-1.png,s,1,0.4559214999899268,h,1,0.05686839995905757,0.04765630001202226,0.045744799776002765,0.09966620011255145,0.09983849991112947,0.7492427001707256
RSVPLG03,cs,20251106-130525,1.0.2,20251105-084826,738,Experiment,Both,1,Automatic,main,43,20251106-130857,local,local,750,H,S,A,A,A-H.png,A-S.png,hH,sS,mask-3.png,mask-4.png,s,0,0.4100975999608636,h,0,0.07384609989821911,0.04759370000101626,0.04668339993804693,0.10000189999118447,0.0999743000138551,0.7484333000611514
RSVPLG03,cs,20251106-130525,1.0.2,20251105-084826,738,Experiment,Both,1,Automatic,main,44,20251106-130902,local,global,750,H,H,A,E,A-H.png,H-E.png,hH,hH,mask-1.png,mask-4.png,s,0,0.47720230021514,h,1,0.005310700042173266,0.04768539988435805,0.048490900080651045,0.09992509987205267,0.09975729999132454,0.7479192998725921
RSVPLG03,cs,20251106-130525,1.0.2,20251105-084826,738,Experiment,Both,1,Automatic,main,45,20251106-130907,local,local,300,S,S,E,E,E-S.png,E-S.png,sS,sS,mask-1.png,mask-4.png,s,1,0.46464989986270666,s,1,0.08939149999059737,0.04868369991891086,0.047675800044089556,0.1008774999063462,0.09989399998448789,0.2995104999281466
RSVPLG03,cs,20251106-130525,1.0.2,20251105-084826,738,Experiment,Both,1,Automatic,main,46,20251106-130911,local,global,300,S,S,E,E,E-S.png,S-E.png,sS,sS,mask-2.png,mask-2.png,s,1,0.3813138999976218,s,1,0.08668210008181632,0.04678480001166463,0.04710570001043379,0.0998058000113815,0.09893659991212189,0.2994283000007272
RSVPLG03,cs,20251106-130525,1.0.2,20251105-084826,738,Experiment,Both,1,Automatic,main,47,20251106-130915,global,global,300,S,H,A,E,S-A.png,H-E.png,sS,hH,mask-1.png,mask-3.png,s,1,0.2988799000158906,h,1,0.016954800114035606,0.046479100128635764,0.04856049991212785,0.1000942001119256,0.09968529990874231,0.29873750009573996
RSVPLG03,cs,20251106-130525,1.0.2,20251105-084826,738,Experiment,Both,1,Automatic,main,48,20251106-130919,local,local,300,S,S,A,A,A-S.png,A-S.png,sS,sS,mask-3.png,mask-3.png,s,1,0.35495810001157224,s,1,0.1147243999876082,0.04666739981621504,0.046703899977728724,0.09869079990312457,0.098791099851951,0.2992134999949485
RSVPLG03,cs,20251106-130525,1.0.2,20251105-084826,738,Experiment,Both,1,Automatic,main,49,20251106-130923,local,local,750,S,S,E,A,E-S.png,A-S.png,sS,sS,mask-3.png,mask-1.png,s,1,0.3782631999347359,s,1,0.04416120005771518,0.046758699929341674,0.04717399994842708,0.10000770003534853,0.10040220012888312,0.7473806999623775
RSVPLG03,cs,20251106-130525,1.0.2,20251105-084826,738,Experiment,Both,1,Automatic,main,50,20251106-130927,global,local,300,S,H,E,A,S-E.png,A-H.png,sS,hH,mask-2.png,mask-3.png,s,1,0.295550299808383,s,0,0.05825240002013743,0.048356000101193786,0.04754259996116161,0.10033000004477799,0.09967019991017878,0.2993789000902325
RSVPLG03,cs,20251106-130525,1.0.2,20251105-084826,738,Experiment,Both,1,Automatic,main,51,20251106-130932,global,global,300,S,H,A,E,S-A.png,H-E.png,sS,hH,mask-1.png,mask-4.png,s,1,0.2784110000357032,h,1,1.6902471999637783,0.047508199932053685,0.047526099951937795,0.09956000000238419,0.09957890002988279,0.2998440000228584
RSVPLG03,cs,20251106-130525,1.0.2,20251105-084826,738,Experiment,Both,1,Automatic,main,52,20251106-130936,global,local,750,S,H,A,E,S-A.png,E-H.png,sS,hH,mask-3.png,mask-2.png,h,0,0.2603835999034345,h,1,0.054091999772936106,0.04655769979581237,0.047521499916911125,0.09956629993394017,0.10042799985967577,0.7474770999979228
RSVPLG03,cs,20251106-130525,1.0.2,20251105-084826,738,Experiment,Both,1,Automatic,main,53,20251106-130940,local,local,750,H,S,A,A,A-H.png,A-S.png,hH,sS,mask-3.png,mask-1.png,h,1,0.25218429998494685,h,0,0.10052719991654158,0.0487404998857528,0.04771790001541376,0.09976939996704459,0.09929520008154213,0.7486351998522878
RSVPLG03,cs,20251106-130525,1.0.2,20251105-084826,738,Experiment,Both,1,Automatic,main,54,20251106-130945,global,local,750,S,S,E,E,S-E.png,E-S.png,sS,sS,mask-4.png,mask-2.png,h,0,0.4422828999813646,h,0,0.05609349999576807,0.04669050010852516,0.04672249988652766,0.09872830007225275,0.09974609990604222,0.7474107001908123
RSVPLG03,cs,20251106-130525,1.0.2,20251105-084826,738,Experiment,Both,1,Automatic,main,55,20251106-130949,global,global,750,H,S,A,E,H-A.png,S-E.png,hH,sS,mask-2.png,mask-1.png,s,0,0.2716161001008004,h,0,0.02472530002705753,0.04755090014077723,0.048522100085392594,0.0996817999985069,0.10053710010834038,0.7467187000438571
RSVPLG03,cs,20251106-130525,1.0.2,20251105-084826,738,Experiment,Both,1,Automatic,main,56,20251106-130954,global,global,300,S,H,E,E,S-E.png,H-E.png,sS,hH,mask-4.png,mask-2.png,h,0,0.20212900009937584,s,0,0.01159090013243258,0.047531000105664134,0.04753000009804964,0.09956080000847578,0.09856650000438094,0.2998981000855565
RSVPLG03,cs,20251106-130525,1.0.2,20251105-084826,738,Experiment,Both,1,Automatic,main,57,20251106-130958,global,global,300,S,S,A,A,S-A.png,S-A.png,sS,sS,mask-2.png,mask-4.png,s,1,0.19967820006422698,h,0,0.052744700107723475,0.0477120999712497,0.04852300020866096,0.10049350000917912,0.10141580016352236,0.2988044999074191
RSVPLG03,cs,20251106-130525,1.0.2,20251105-084826,738,Experiment,Both,1,Automatic,main,58,20251106-131002,local,local,750,H,H,E,A,E-H.png,A-H.png,hH,hH,mask-1.png,mask-1.png,h,1,0.31491099996492267,s,0,0.062031400157138705,0.04880489991046488,0.04676699987612665,0.10033139982260764,0.09852799982763827,0.7492084000259638
RSVPLG03,cs,20251106-130525,1.0.2,20251105-084826,738,Experiment,Both,1,Automatic,main,59,20251106-131006,global,global,300,H,S,E,E,H-E.png,S-E.png,hH,sS,mask-2.png,mask-1.png,h,1,0.5149813001044095,h,0,0.1666989999357611,0.047689300030469894,0.04871590016409755,0.09975160006433725,0.1009313000831753,0.2992116999812424
RSVPLG03,cs,20251106-130525,1.0.2,20251105-084826,738,Experiment,Both,1,Automatic,main,60,20251106-131011,global,local,300,H,S,E,E,H-E.png,E-S.png,hH,sS,mask-2.png,mask-3.png,h,1,0.4204266001470387,s,1,0.04320909990929067,0.04654849995858967,0.04750719992443919,0.09872230002656579,0.1015431999694556,0.2978294000495225
RSVPLG03,cs,20251106-130525,1.0.2,20251105-084826,738,Experiment,Both,1,Automatic,main,61,20251106-131015,global,local,750,H,H,A,E,H-A.png,E-H.png,hH,hH,mask-1.png,mask-3.png,h,1,0.3567375000566244,s,0,0.11925099999643862,0.04854810005053878,0.04760929988697171,0.09955899999476969,0.09969519986771047,0.7477379001211375
RSVPLG03,cs,20251106-130525,1.0.2,20251105-084826,738,Experiment,Both,1,Automatic,main,62,20251106-131019,global,local,750,S,H,A,E,S-A.png,E-H.png,sS,hH,mask-4.png,mask-1.png,s,1,0.29982820013538003,s,0,0.06831429991871119,0.0475016999989748,0.04655470000579953,0.09957489999942482,0.0985332999844104,0.7484210000839084
RSVPLG03,cs,20251106-130525,1.0.2,20251105-084826,738,Experiment,Both,1,Automatic,main,63,20251106-131024,global,local,300,S,S,A,E,S-A.png,E-S.png,sS,sS,mask-4.png,mask-4.png,s,1,0.3445182000286877,s,1,0.07942190021276474,0.047566100023686886,0.045598800061270595,0.09962420002557337,0.09861649991944432,0.29989559995010495
RSVPLG03,cs,20251106-130525,1.0.2,20251105-084826,738,Experiment,Both,1,Automatic,main,64,20251106-131028,global,local,300,S,H,A,E,S-A.png,E-H.png,sS,hH,mask-3.png,mask-4.png,s,1,0.19321219995617867,h,1,0.03737149992957711,0.047647499945014715,0.0475531998090446,0.0997539998497814,0.10055199987255037,0.29935039998963475
RSVPLG03,cs,20251106-130525,1.0.2,20251105-084826,738,Experiment,Both,1,Automatic,main,65,20251106-131032,global,local,300,H,H,E,A,H-E.png,A-H.png,hH,hH,mask-1.png,mask-2.png,h,1,0.22877090005204082,s,0,0.007295400137081742,0.04672520002350211,0.047551600029692054,0.09960140008479357,0.0995732001028955,0.2979210000485182
RSVPLG03,cs,20251106-130525,1.0.2,20251105-084826,738,Experiment,Both,1,Automatic,main,66,20251106-131036,local,local,300,S,H,E,E,E-S.png,E-H.png,sS,hH,mask-2.png,mask-2.png,h,0,0.13851069984957576,h,1,0.10754649993032217,0.04750620014965534,0.04735459992662072,0.09948920016176999,0.09931039996445179,0.2991045000962913
RSVPLG03,cs,20251106-130525,1.0.2,20251105-084826,738,Experiment,Both,1,Automatic,main,67,20251106-131040,global,local,300,H,H,A,A,H-A.png,A-H.png,hH,hH,mask-1.png,mask-3.png,h,1,0.29973459988832474,h,1,0.07265880005434155,0.04751399997621775,0.047527199843898416,0.10055209998972714,0.09773439983837306,0.2998522000852972
RSVPLG03,cs,20251106-130525,1.0.2,20251105-084826,738,Experiment,Both,1,Automatic,main,68,20251106-131044,global,global,750,S,H,A,E,S-A.png,H-E.png,sS,hH,mask-1.png,mask-3.png,h,0,0.24838189990259707,h,1,0.07046269997954369,0.04652039986103773,0.04757430008612573,0.09956320002675056,0.0995537000708282,0.7471537999808788
RSVPLG03,cs,20251106-130525,1.0.2,20251105-084826,738,Experiment,Both,1,Automatic,main,69,20251106-131048,global,local,300,H,S,A,E,H-A.png,E-S.png,hH,sS,mask-4.png,mask-2.png,h,1,0.41242509987205267,s,1,0.09324409998953342,0.046649200143292546,0.04672969994135201,0.09895680006593466,0.09997290000319481,0.29865700006484985
RSVPLG03,cs,20251106-130525,1.0.2,20251105-084826,738,Experiment,Both,1,Automatic,main,70,20251106-131052,local,local,300,S,H,E,A,E-S.png,A-H.png,sS,hH,mask-3.png,mask-3.png,s,1,0.3533455999568105,h,1,0.04425129992887378,0.04699760000221431,0.04750300012528896,0.10082880011759698,0.09947560005821288,0.299883299972862
RSVPLG03,cs,20251106-130525,1.0.2,20251105-084826,738,Experiment,Both,1,Automatic,main,71,20251106-131056,local,local,300,H,S,E,E,E-H.png,E-S.png,hH,sS,mask-3.png,mask-1.png,h,1,0.01879649981856346,s,1,0.08019670005887747,0.0475795001257211,0.046701200073584914,0.09966890001669526,0.09980610013008118,0.3002591000404209
RSVPLG03,cs,20251106-130525,1.0.2,20251105-084826,738,Experiment,Both,1,Automatic,main,72,20251106-131100,local,global,300,H,H,E,E,E-H.png,H-E.png,hH,hH,mask-3.png,mask-4.png,s,0,0.5210158999543637,h,1,0.6483491000253707,0.04780850000679493,0.04770729993470013,0.1020213000010699,0.09992590011097491,0.30079180002212524
RSVPLG03,cs,20251106-130525,1.0.2,20251105-084826,738,Experiment,Both,1,Automatic,main,73,20251106-131104,global,local,750,H,S,E,E,H-E.png,E-S.png,hH,sS,mask-2.png,mask-2.png,s,0,0.5170974000357091,h,0,0.6651087000500411,0.0475063999183476,0.048690499970689416,0.09942669980227947,0.09989579999819398,0.746937699848786
RSVPLG03,cs,20251106-130525,1.0.2,20251105-084826,738,Experiment,Both,1,Automatic,main,74,20251106-131110,global,global,300,S,H,A,E,S-A.png,H-E.png,sS,hH,mask-2.png,mask-4.png,s,1,0.13456119992770255,h,1,0.4864352000877261,0.04661260009743273,0.04580500000156462,0.09857750008814037,0.09904729994013906,0.2990236000623554
RSVPLG03,cs,20251106-130525,1.0.2,20251105-084826,738,Experiment,Both,1,Automatic,main,75,20251106-131114,local,local,300,H,H,E,A,E-H.png,A-H.png,hH,hH,mask-3.png,mask-2.png,s,0,0.22015129984356463,h,1,0.5642373999580741,0.047529400093480945,0.04755189991556108,0.09955319995060563,0.09958270005881786,0.2998623000457883
RSVPLG03,cs,20251106-130525,1.0.2,20251105-084826,738,Experiment,Both,1,Automatic,main,76,20251106-131120,local,local,300,S,H,A,A,A-S.png,A-H.png,sS,hH,mask-4.png,mask-3.png,h,0,0.24938079994171858,h,1,0.11900630011223257,0.048681800020858645,0.047541300067678094,0.10057380003854632,0.09858550014905632,0.29981729993596673
RSVPLG03,cs,20251106-130525,1.0.2,20251105-084826,738,Experiment,Both,1,Automatic,main,77,20251106-131124,local,global,300,H,H,A,E,A-H.png,H-E.png,hH,hH,mask-1.png,mask-2.png,h,1,0.34831120003946126,h,1,0.09291399992071092,0.04672039998695254,0.045693600084632635,0.09994730004109442,0.09790520020760596,0.2996992999687791
RSVPLG03,cs,20251106-130525,1.0.2,20251105-084826,738,Experiment,Both,1,Automatic,main,78,20251106-131128,local,local,750,S,H,E,A,E-S.png,A-H.png,sS,hH,mask-3.png,mask-2.png,s,1,0.2897752998396754,s,0,0.0876413001678884,0.047758299857378006,0.04771430022083223,0.09834369993768632,0.09898710018023849,0.7483430998399854
RSVPLG03,cs,20251106-130525,1.0.2,20251105-084826,738,Experiment,Both,1,Automatic,main,79,20251106-131132,global,local,750,H,S,A,A,H-A.png,A-S.png,hH,sS,mask-2.png,mask-4.png,h,1,0.2224740998353809,multiple,-2,0.3407878000289202,0.04662030003964901,0.048860699869692326,0.09867770015262067,0.10107439989224076,0.7467301001306623
RSVPLG03,cs,20251106-130525,1.0.2,20251105-084826,738,Experiment,Both,1,Automatic,main,80,20251106-131137,local,local,750,S,H,E,A,E-S.png,A-H.png,sS,hH,mask-3.png,mask-2.png,s,1,0.3407878000289202,h,1,0.3530866000801325,0.047583699924871325,0.046715399948880076,0.09832129999995232,0.09999520005658269,0.7480150000192225
RSVPLG03,cs,20251106-130525,1.0.2,20251105-084826,738,Experiment,Both,1,Automatic,main,81,20251106-131142,local,global,300,H,H,E,A,E-H.png,H-A.png,hH,hH,mask-2.png,mask-2.png,s,0,0.4749665001872927,h,1,0.07451329985633492,0.04776240000501275,0.04675130010582507,0.10002050013281405,0.09801360010169446,0.30057920003309846
RSVPLG03,cs,20251106-130525,1.0.2,20251105-084826,738,Experiment,Both,1,Automatic,main,82,20251106-131146,local,local,750,S,S,E,E,E-S.png,E-S.png,sS,sS,mask-2.png,mask-2.png,s,1,0.23516619997099042,s,1,0.09299729997292161,0.04674930009059608,0.04825510014779866,0.09895589994266629,0.09956500004045665,0.7475952999666333
RSVPLG03,cs,20251106-130525,1.0.2,20251105-084826,738,Experiment,Both,1,Automatic,main,83,20251106-131150,global,local,300,H,S,A,A,H-A.png,A-S.png,hH,sS,mask-4.png,mask-4.png,h,1,0.7980021999683231,s,1,0.13765230006538332,0.04751090006902814,0.04679640009999275,0.09954160009510815,0.09977800003252923,0.299820699961856
RSVPLG03,cs,20251106-130525,1.0.2,20251105-084826,738,Experiment,Both,1,Automatic,main,84,20251106-131155,global,global,750,H,S,E,A,H-E.png,S-A.png,hH,sS,mask-4.png,mask-4.png,h,1,0.3594099001493305,s,1,0.09925299999304116,0.04683729982934892,0.04617600003257394,0.09893810003995895,0.09859870001673698,0.7479377998970449
RSVPLG03,cs,20251106-130525,1.0.2,20251105-084826,738,Experiment,Both,1,Automatic,main,85,20251106-131159,local,global,750,S,S,E,A,E-S.png,S-A.png,sS,sS,mask-4.png,mask-2.png,s,1,0.44941650005057454,s,1,0.005716599989682436,0.04750040010549128,0.047342299949377775,0.09935789997689426,0.0984251000918448,0.7489485000260174
RSVPLG03,cs,20251106-130525,1.0.2,20251105-084826,738,Experiment,Both,1,Automatic,main,86,20251106-131204,global,global,750,H,S,E,E,H-E.png,S-E.png,hH,sS,mask-1.png,mask-1.png,h,1,0.6925747999921441,s,1,0.18256719992496073,0.04688369994983077,0.048563400050625205,0.10113299987278879,0.1005778000690043,0.7468426998239011
RSVPLG03,cs,20251106-130525,1.0.2,20251105-084826,738,Experiment,Both,1,Automatic,main,87,20251106-131209,global,global,300,S,H,E,E,S-E.png,H-E.png,sS,hH,mask-4.png,mask-3.png,s,1,0.3499663998372853,s,0,0.07559580006636679,0.048522100085392594,0.04754739999771118,0.09885060018859804,0.09957160009071231,0.30025229998864233
RSVPLG03,cs,20251106-130525,1.0.2,20251105-084826,738,Experiment,Both,1,Automatic,main,88,20251106-131213,local,global,300,S,S,A,E,A-S.png,S-E.png,sS,sS,mask-3.png,mask-4.png,s,1,0.501802199985832,s,1,0.06873159995302558,0.04714599996805191,0.047551299910992384,0.09940559999085963,0.09886899986304343,0.2997296000830829
RSVPLG03,cs,20251106-130525,1.0.2,20251105-084826,738,Experiment,Both,1,Automatic,main,89,20251106-131217,local,global,750,H,S,A,A,A-H.png,S-A.png,hH,sS,mask-1.png,mask-2.png,s,0,0.33079009992070496,s,1,0.08007610007189214,0.04855960002169013,0.04865320003591478,0.09958770009689033,0.10066569992341101,0.7478646000381559
RSVPLG03,cs,20251106-130525,1.0.2,20251105-084826,738,Experiment,Both,1,Automatic,main,90,20251106-131222,local,local,750,S,H,E,E,E-S.png,E-H.png,sS,hH,mask-3.png,mask-1.png,s,1,0.41249390016309917,s,0,0.09007919998839498,0.04869910003617406,0.04629860003478825,0.09973739995621145,0.09831149992533028,0.7494399000424892
RSVPLG03,cs,20251106-130525,1.0.2,20251105-084826,738,Experiment,Both,1,Automatic,main,91,20251106-131226,local,local,750,H,S,A,A,A-H.png,A-S.png,hH,sS,mask-2.png,mask-4.png,h,1,0.5223506998736411,s,1,0.07411549985408783,0.04571949993260205,0.04767669993452728,0.09882259997539222,0.09985730005428195,0.746282400097698
RSVPLG03,cs,20251106-130525,1.0.2,20251105-084826,738,Experiment,Both,1,Automatic,main,92,20251106-131231,local,global,750,S,H,A,E,A-S.png,H-E.png,sS,hH,mask-1.png,mask-4.png,s,1,0.40939849987626076,h,1,0.06569839990697801,0.04769719997420907,0.04572549997828901,0.10030029993504286,0.09993340005166829,0.7493726999964565
RSVPLG03,cs,20251106-130525,1.0.2,20251105-084826,738,Experiment,Both,1,Automatic,main,93,20251106-131236,global,local,300,H,S,A,A,H-A.png,A-S.png,hH,sS,mask-3.png,mask-3.png,h,1,0.0736992999445647,h,0,0.10263159987516701,0.04672500002197921,0.046716999961063266,0.09921310003846884,0.09998130006715655,0.29807500005699694
RSVPLG03,cs,20251106-130525,1.0.2,20251105-084826,738,Experiment,Both,1,Automatic,main,94,20251106-131240,local,global,300,H,S,A,A,A-H.png,S-A.png,hH,sS,mask-3.png,mask-3.png,h,1,0.24274550005793571,s,1,0.020750500028952956,0.04767550015822053,0.04881530022248626,0.1003251001238823,0.10116380010731518,0.29874949995428324
RSVPLG03,cs,20251106-130525,1.0.2,20251105-084826,738,Experiment,Both,1,Automatic,main,95,20251106-131244,local,global,750,S,S,E,E,E-S.png,S-E.png,sS,sS,mask-1.png,mask-3.png,s,1,0.10814580018632114,h,0,0.05462369997985661,0.04578160005621612,0.045805899892002344,0.09977299999445677,0.09794329991564155,0.7479691000189632
RSVPLG03,cs,20251106-130525,1.0.2,20251105-084826,738,Experiment,Both,1,Automatic,main,96,20251106-131248,local,global,300,H,H,A,A,A-H.png,H-A.png,hH,hH,mask-4.png,mask-3.png,s,0,0.18883929983712733,h,1,0.038212599931284785,0.04760870011523366,0.048419199883937836,0.09774490003474057,0.09941999986767769,0.29792480007745326
RSVPLG03,cs,20251106-130525,1.0.2,20251105-084826,738,Experiment,Both,1,Automatic,main,97,20251106-131252,local,global,750,H,H,A,E,A-H.png,H-E.png,hH,hH,mask-2.png,mask-3.png,s,0,0.25871790014207363,h,1,0.08445429988205433,0.04752819985151291,0.047524800058454275,0.10060729994438589,0.1009776999708265,0.747887299861759
RSVPLG03,cs,20251106-130525,1.0.2,20251105-084826,738,Experiment,Both,1,Automatic,main,98,20251106-131256,local,local,750,S,S,A,A,A-S.png,A-S.png,sS,sS,mask-2.png,mask-1.png,s,1,0.36593379988335073,h,0,0.041424900060519576,0.046893199905753136,0.04670440009795129,0.10000599990598857,0.09797720005735755,0.7481362000107765
RSVPLG03,cs,20251106-130525,1.0.2,20251105-084826,738,Experiment,Both,1,Automatic,main,99,20251106-131301,local,local,300,H,S,A,E,A-H.png,E-S.png,hH,sS,mask-4.png,mask-3.png,s,0,0.1870176000520587,h,0,0.01273020007647574,0.04662309982813895,0.045686200028285384,0.09987579984590411,0.09789160010404885,0.2993744998238981
RSVPLG03,cs,20251106-130525,1.0.2,20251105-084826,738,Experiment,Both,1,Automatic,main,100,20251106-131305,global,global,300,H,S,A,A,H-A.png,S-A.png,hH,sS,mask-3.png,mask-2.png,s,0,0.28298830008134246,h,0,0.01021119998767972,0.04792489996179938,0.04704049997963011,0.09994310000911355,0.0984326999168843,0.30034870002418756
