exp,exp_initials,runtime,ver,modtime,sub,blocktype,targets,cuetype,mode,trialtype,trial,trialtime,t1_level,t2_level,t2_lag,t1,t2,distractor1,distractor2,stimfile1,stimfile2,t1_corr,t2_corr,maskfile1,maskfile2,t1_resp,t1_acc,t1_rt,t2_resp,t2_acc,t2_rt,t1_dur,t2_dur,t1mask_soa,t2mask_soa,t1t2_soa
RSVPLG03,JM,20260218-102155,1.0.2,20251105-084826,765,Practice,T1,1,Automatic,main,1,20260218-102233,global,global,300,S,S,E,A,S-E.png,S-A.png,sS,sS,mask-3.png,mask-1.png,s,1,3.2105425000190735,none,-5,0,0.04003329947590828,0.04750999994575977,0.09281609952449799,0.10195359960198402,0.2937628999352455
RSVPLG03,JM,20260218-102155,1.0.2,20251105-084826,765,Practice,T1,1,Automatic,main,2,20260218-102240,local,local,750,H,S,A,E,A-H.png,E-S.png,hH,sS,mask-3.png,mask-1.png,h,1,4.360230599530041,none,-5,0,0.047542099840939045,0.048234700225293636,0.09881259966641665,0.09928940050303936,0.7500412994995713
RSVPLG03,JM,20260218-102155,1.0.2,20251105-084826,765,Practice,T1,1,Automatic,main,3,20260218-102248,global,global,750,S,S,A,E,S-A.png,S-E.png,sS,sS,mask-3.png,mask-3.png,s,1,2.1556730000302196,none,-5,0,0.047670899890363216,0.047737100161612034,0.1003590002655983,0.09991460014134645,0.7515150001272559
RSVPLG03,JM,20260218-102155,1.0.2,20251105-084826,765,Practice,T1,1,Automatic,main,4,20260218-102255,global,local,750,S,H,E,E,S-E.png,E-H.png,sS,hH,mask-2.png,mask-2.png,h,0,3.192599100060761,none,-5,0,0.048425499349832535,0.04853630065917969,0.10029919911175966,0.1016779001802206,0.7507289992645383
RSVPLG03,JM,20260218-102155,1.0.2,20251105-084826,765,Practice,T1,1,Automatic,main,5,20260218-102302,local,global,300,S,H,E,A,E-S.png,H-A.png,sS,hH,mask-2.png,mask-2.png,s,1,1.8038528999313712,none,-5,0,0.04766810033470392,0.047405799850821495,0.09957689978182316,0.10037489980459213,0.3012760002166033
RSVPLG03,JM,20260218-102155,1.0.2,20251105-084826,765,Practice,T1,1,Automatic,main,6,20260218-102307,global,global,750,H,H,A,A,H-A.png,H-A.png,hH,hH,mask-1.png,mask-4.png,h,1,2.688690099865198,none,-5,0,0.04850409924983978,0.047504499554634094,0.09997129999101162,0.10075229965150356,0.7516604997217655
RSVPLG03,JM,20260218-102155,1.0.2,20251105-084826,765,Practice,T1,1,Automatic,main,7,20260218-102314,local,local,750,S,H,A,A,A-S.png,A-H.png,sS,hH,mask-3.png,mask-2.png,s,1,2.367326100356877,none,-5,0,0.047822000458836555,0.047694799490273,0.10041420068591833,0.09988920018076897,0.751315500587225
RSVPLG03,JM,20260218-102155,1.0.2,20251105-084826,765,Practice,T1,1,Automatic,main,8,20260218-102320,global,local,300,S,H,E,A,S-E.png,A-H.png,sS,hH,mask-2.png,mask-4.png,h,0,1.9263915996998549,none,-5,0,0.04776589944958687,0.047497800551354885,0.10000310000032187,0.09950949996709824,0.3006914993748069
RSVPLG03,JM,20260218-102155,1.0.2,20251105-084826,765,Practice,T1,1,Automatic,main,9,20260218-102326,global,local,750,H,S,E,A,H-E.png,A-S.png,hH,sS,mask-4.png,mask-3.png,s,0,0.9277838999405503,none,-5,0,0.048135800287127495,0.04768989980220795,0.1016245000064373,0.10090829990804195,0.7523035006597638
RSVPLG03,JM,20260218-102155,1.0.2,20251105-084826,765,Practice,T1,1,Automatic,main,10,20260218-102331,global,local,300,H,S,E,E,H-E.png,E-S.png,hH,sS,mask-3.png,mask-3.png,s,0,1.6092846998944879,none,-5,0,0.04769170004874468,0.0475212000310421,0.0998734999448061,0.09974449966102839,0.29964990075677633
RSVPLG03,JM,20260218-102155,1.0.2,20251105-084826,765,Practice,T1,1,Automatic,main,11,20260218-102336,local,global,750,H,S,E,E,E-H.png,S-E.png,hH,sS,mask-2.png,mask-1.png,s,0,0.7866821996867657,none,-5,0,0.04561049956828356,0.04850289970636368,0.09932160004973412,0.09950879961252213,0.7503474000841379
RSVPLG03,JM,20260218-102155,1.0.2,20251105-084826,765,Practice,T1,1,Automatic,main,12,20260218-102341,local,global,750,S,S,E,E,E-S.png,S-E.png,sS,sS,mask-3.png,mask-1.png,h,0,0.5399956004694104,none,-5,0,0.047503599897027016,0.0467119999229908,0.10000839922577143,0.10099940001964569,0.7517670998349786
RSVPLG03,JM,20260218-102155,1.0.2,20251105-084826,765,Practice,T1,1,Automatic,main,13,20260218-102346,local,global,300,H,H,A,A,A-H.png,H-A.png,hH,hH,mask-2.png,mask-1.png,s,0,1.0050395000725985,none,-5,0,0.04655090067535639,0.047295100055634975,0.09855470061302185,0.0993360998108983,0.29893690068274736
RSVPLG03,JM,20260218-102155,1.0.2,20251105-084826,765,Practice,T1,1,Automatic,main,14,20260218-102350,local,local,300,S,S,A,E,A-S.png,E-S.png,sS,sS,mask-1.png,mask-2.png,s,1,0.6179602993652225,none,-5,0,0.0486026993021369,0.04766929987818003,0.10060090012848377,0.10071820020675659,0.30072749964892864
RSVPLG03,JM,20260218-102155,1.0.2,20251105-084826,765,Practice,T1,1,Automatic,main,15,20260218-102354,global,global,300,H,H,A,E,H-A.png,H-E.png,hH,hH,mask-2.png,mask-1.png,h,1,0.6757407002151012,none,-5,0,0.04718200024217367,0.04773399978876114,0.10020040068775415,0.09935550019145012,0.2989434003829956
RSVPLG03,JM,20260218-102155,1.0.2,20251105-084826,765,Practice,T1,1,Automatic,main,16,20260218-102359,local,local,300,S,H,E,E,E-S.png,E-H.png,sS,hH,mask-1.png,mask-1.png,s,1,0.9307166999205947,none,-5,0,0.049582299776375294,0.04754250030964613,0.10163480043411255,0.09955090004950762,0.3020118996500969
RSVPLG03,JM,20260218-102430,1.0.2,20251105-084826,765,Practice,T1,1,Automatic,main,1,20260218-102449,local,global,750,H,S,E,E,E-H.png,S-E.png,hH,sS,mask-4.png,mask-1.png,s,0,1.0653603998944163,none,-5,0,0.046242899261415005,0.04706279933452606,0.09797369968146086,0.10014889948070049,0.7458653999492526
RSVPLG03,JM,20260218-102430,1.0.2,20251105-084826,765,Practice,T1,1,Automatic,main,2,20260218-102454,global,global,300,H,S,A,E,H-A.png,S-E.png,hH,sS,mask-1.png,mask-1.png,s,0,0.5807183999568224,none,-5,0,0.048200299963355064,0.047594000585377216,0.10030469950288534,0.0996769005432725,0.2999679995700717
RSVPLG03,JM,20260218-102430,1.0.2,20251105-084826,765,Practice,T1,1,Automatic,main,3,20260218-102458,local,global,300,S,S,E,A,E-S.png,S-A.png,sS,sS,mask-3.png,mask-3.png,s,1,0.46152339968830347,none,-5,0,0.04673539940267801,0.04840720072388649,0.10037979949265718,0.10014950018376112,0.2985176993533969
RSVPLG03,JM,20260218-102430,1.0.2,20251105-084826,765,Practice,T1,1,Automatic,main,4,20260218-102502,global,local,300,S,H,E,E,S-E.png,E-H.png,sS,hH,mask-3.png,mask-1.png,s,1,0.682328499853611,none,-5,0,0.046827999874949455,0.04707349929958582,0.0990100996568799,0.09930619969964027,0.2989018000662327
RSVPLG03,JM,20260218-102430,1.0.2,20251105-084826,765,Practice,T1,1,Automatic,main,5,20260218-102507,local,local,750,S,S,E,E,E-S.png,E-S.png,sS,sS,mask-3.png,mask-1.png,s,1,0.9722772995010018,none,-5,0,0.048540799878537655,0.046516699716448784,0.10064920037984848,0.09971069917082787,0.749315700493753
RSVPLG03,JM,20260218-102430,1.0.2,20251105-084826,765,Practice,T1,1,Automatic,main,6,20260218-102512,local,local,300,S,S,A,E,A-S.png,E-S.png,sS,sS,mask-4.png,mask-3.png,s,1,1.0346237001940608,none,-5,0,0.04862309992313385,0.04656029958277941,0.099621900357306,0.0986216003075242,0.30076870042830706
RSVPLG03,JM,20260218-102430,1.0.2,20251105-084826,765,Practice,T1,1,Automatic,main,7,20260218-102516,local,global,300,S,H,A,A,A-S.png,H-A.png,sS,hH,mask-4.png,mask-3.png,s,1,0.477369399741292,none,-5,0,0.047702400013804436,0.047535100020468235,0.09920969977974892,0.09957669954746962,0.29857620038092136
RSVPLG03,JM,20260218-102430,1.0.2,20251105-084826,765,Practice,T1,1,Automatic,main,8,20260218-102520,global,global,750,H,S,E,E,H-E.png,S-E.png,hH,sS,mask-1.png,mask-3.png,h,1,1.1521642999723554,none,-5,0,0.04564180038869381,0.04765170067548752,0.09912999998778105,0.09967770054936409,0.7474314998835325
RSVPLG03,JM,20260218-102430,1.0.2,20251105-084826,765,Practice,T1,1,Automatic,main,9,20260218-102526,global,global,750,H,S,A,A,H-A.png,S-A.png,hH,sS,mask-1.png,mask-1.png,s,0,1.1731926994398236,none,-5,0,0.04698530025780201,0.04842319991439581,0.10000790003687143,0.10063449945300817,0.7478403002023697
RSVPLG03,JM,20260218-102430,1.0.2,20251105-084826,765,Practice,T1,1,Automatic,main,10,20260218-102531,global,global,300,H,H,A,A,H-A.png,H-A.png,hH,hH,mask-3.png,mask-1.png,h,1,0.8246993003413081,none,-5,0,0.0476245004683733,0.04760820046067238,0.0997689999639988,0.09982299990952015,0.29937219992280006
RSVPLG03,JM,20260218-102430,1.0.2,20251105-084826,765,Practice,T1,1,Automatic,main,11,20260218-102535,global,local,750,S,H,A,A,S-A.png,A-H.png,sS,hH,mask-1.png,mask-1.png,s,1,2.0758926002308726,none,-5,0,0.0467915004119277,0.04791149962693453,0.09898409992456436,0.10004919953644276,0.7471518004313111
RSVPLG03,JM,20260218-102430,1.0.2,20251105-084826,765,Practice,T1,1,Automatic,main,12,20260218-102541,global,local,300,H,S,A,E,H-A.png,E-S.png,hH,sS,mask-2.png,mask-4.png,s,0,1.002806800417602,none,-5,0,0.0480644004419446,0.047015500254929066,0.09977170079946518,0.10032240021973848,0.2990094004198909
RSVPLG03,JM,20260218-102430,1.0.2,20251105-084826,765,Practice,T1,1,Automatic,main,13,20260218-102546,local,local,300,H,H,E,A,E-H.png,A-H.png,hH,hH,mask-3.png,mask-4.png,s,0,1.2020805003121495,none,-5,0,0.04505330044776201,0.0490920003503561,0.09831140004098415,0.10092730075120926,0.29684989992529154
RSVPLG03,JM,20260218-102430,1.0.2,20251105-084826,765,Practice,T1,1,Automatic,main,14,20260218-102551,local,global,750,S,H,E,E,E-S.png,H-E.png,sS,hH,mask-1.png,mask-4.png,s,1,1.2136033000424504,none,-5,0,0.046373200602829456,0.046304299496114254,0.09933890029788017,0.09906839951872826,0.7483640005812049
RSVPLG03,JM,20260218-102430,1.0.2,20251105-084826,765,Practice,T1,1,Automatic,main,15,20260218-102556,global,local,750,H,S,A,A,H-A.png,A-S.png,hH,sS,mask-4.png,mask-3.png,h,1,0.7732560997828841,none,-5,0,0.0475332997739315,0.04966240003705025,0.10075030010193586,0.10069769993424416,0.7475763000547886
RSVPLG03,JM,20260218-102430,1.0.2,20251105-084826,765,Practice,T1,1,Automatic,main,16,20260218-102601,local,local,750,S,S,E,A,E-S.png,A-S.png,sS,sS,mask-4.png,mask-2.png,s,1,0.6924387998878956,none,-5,0,0.045931700617074966,0.04769919998943806,0.09909200016409159,0.0997771006077528,0.7475934000685811
RSVPLG03,JM,20260218-102624,1.0.2,20251105-084826,765,Practice,T1,1,Automatic,main,1,20260218-102645,global,global,300,S,S,E,A,S-E.png,S-A.png,sS,sS,mask-2.png,mask-3.png,s,1,0.4980820994824171,none,-5,0,0.041014499962329865,0.048467399552464485,0.09285689983516932,0.0997759997844696,0.29335880000144243
RSVPLG03,JM,20260218-102624,1.0.2,20251105-084826,765,Practice,T1,1,Automatic,main,2,20260218-102649,global,local,300,H,H,E,A,H-E.png,A-H.png,hH,hH,mask-1.png,mask-2.png,h,1,0.4137907000258565,none,-5,0,0.04777679964900017,0.04659839998930693,0.09925849922001362,0.09927960019558668,0.3003474995493889
RSVPLG03,JM,20260218-102624,1.0.2,20251105-084826,765,Practice,T1,1,Automatic,main,3,20260218-102653,local,global,750,S,H,A,A,A-S.png,H-A.png,sS,hH,mask-1.png,mask-3.png,s,1,0.8521097004413605,none,-5,0,0.04772000014781952,0.04811479989439249,0.1001180000603199,0.10019609984010458,0.7488707005977631
RSVPLG03,JM,20260218-102624,1.0.2,20251105-084826,765,Practice,T1,1,Automatic,main,4,20260218-102658,global,global,750,S,H,E,E,S-E.png,H-E.png,sS,hH,mask-1.png,mask-4.png,h,0,0.779220700263977,none,-5,0,0.046351599507033825,0.0486420001834631,0.09939179942011833,0.10166320018470287,0.748489199206233
RSVPLG03,JM,20260218-102624,1.0.2,20251105-084826,765,Practice,T1,1,Automatic,main,5,20260218-102703,local,global,750,H,S,E,A,E-H.png,S-A.png,hH,sS,mask-2.png,mask-2.png,s,0,2.1121485996991396,none,-5,0,0.047047000378370285,0.04767770040780306,0.10022229980677366,0.10068809986114502,0.7511072000488639
RSVPLG03,JM,20260218-102624,1.0.2,20251105-084826,765,Practice,T1,1,Automatic,main,6,20260218-102709,global,global,300,H,S,E,E,H-E.png,S-E.png,hH,sS,mask-1.png,mask-2.png,h,1,0.7389748003333807,none,-5,0,0.04791670013219118,0.04750240035355091,0.0999588007107377,0.09848400019109249,0.3011894002556801
RSVPLG03,JM,20260218-102624,1.0.2,20251105-084826,765,Practice,T1,1,Automatic,main,7,20260218-102713,local,global,300,S,H,E,A,E-S.png,H-A.png,sS,hH,mask-2.png,mask-4.png,s,1,0.5663200998678803,none,-5,0,0.04660610016435385,0.04751639999449253,0.1008176002651453,0.09876460023224354,0.3003313997760415
RSVPLG03,JM,20260218-102624,1.0.2,20251105-084826,765,Practice,T1,1,Automatic,main,8,20260218-102717,global,global,750,S,H,A,A,S-A.png,H-A.png,sS,hH,mask-4.png,mask-1.png,s,1,0.6823875997215509,none,-5,0,0.04664230067282915,0.04774350021034479,0.09970830008387566,0.0992417000234127,0.7487780004739761
RSVPLG03,JM,20260218-102624,1.0.2,20251105-084826,765,Practice,T1,1,Automatic,main,9,20260218-102722,local,local,750,S,S,A,A,A-S.png,A-S.png,sS,sS,mask-2.png,mask-3.png,s,1,0.9134582998231053,none,-5,0,0.04655409976840019,0.04581649973988533,0.09856649953871965,0.09936050046235323,0.7503952998667955
RSVPLG03,JM,20260218-102624,1.0.2,20251105-084826,765,Practice,T1,1,Automatic,main,10,20260218-102727,global,local,300,S,S,E,E,S-E.png,E-S.png,sS,sS,mask-1.png,mask-1.png,s,1,0.47939599957317114,none,-5,0,0.048793899826705456,0.047703600488603115,0.10006560012698174,0.09993050061166286,0.3006635997444391
RSVPLG03,JM,20260218-102624,1.0.2,20251105-084826,765,Practice,T1,1,Automatic,main,11,20260218-102731,local,global,300,H,H,E,A,E-H.png,H-A.png,hH,hH,mask-4.png,mask-3.png,s,0,0.9596269996836782,none,-5,0,0.04876039922237396,0.046536000445485115,0.1008979994803667,0.09971350058913231,0.3015087991952896
RSVPLG03,JM,20260218-102624,1.0.2,20251105-084826,765,Practice,T1,1,Automatic,main,12,20260218-102736,global,local,750,H,S,E,A,H-E.png,A-S.png,hH,sS,mask-3.png,mask-4.png,h,1,0.4783744001761079,none,-5,0,0.04727640002965927,0.047193899750709534,0.0974961007013917,0.09851149935275316,0.7497954005375504
RSVPLG03,JM,20260218-102624,1.0.2,20251105-084826,765,Practice,T1,1,Automatic,main,13,20260218-102740,local,local,300,S,H,E,E,E-S.png,E-H.png,sS,hH,mask-3.png,mask-2.png,s,1,0.5123504996299744,none,-5,0,0.046608700416982174,0.04748700000345707,0.09965600073337555,0.09856710024178028,0.30027960054576397
RSVPLG03,JM,20260218-102624,1.0.2,20251105-084826,765,Practice,T1,1,Automatic,main,14,20260218-102744,local,local,750,H,S,E,E,E-H.png,E-S.png,hH,sS,mask-1.png,mask-1.png,h,1,0.8790148999541998,none,-5,0,0.04716699942946434,0.04722120054066181,0.1004666993394494,0.10144820064306259,0.7498336993157864
RSVPLG03,JM,20260218-102624,1.0.2,20251105-084826,765,Practice,T1,1,Automatic,main,15,20260218-102749,local,local,300,S,H,E,A,E-S.png,A-H.png,sS,hH,mask-1.png,mask-4.png,s,1,0.5304069994017482,none,-5,0,0.04756220057606697,0.046822099946439266,0.10055540036410093,0.09991060011088848,0.3018363006412983
RSVPLG03,JM,20260218-102624,1.0.2,20251105-084826,765,Practice,T1,1,Automatic,main,16,20260218-102754,global,local,750,S,S,A,A,S-A.png,A-S.png,sS,sS,mask-2.png,mask-2.png,h,0,0.9286601999774575,none,-5,0,0.04739909991621971,0.047889700159430504,0.10043810028582811,0.09920680057257414,0.7499665999785066
RSVPLG03,JM,20260218-102832,1.0.2,20251105-084826,765,Practice,Both,1,Automatic,main,1,20260218-102917,local,local,300,S,H,E,A,E-S.png,A-H.png,sS,hH,mask-2.png,mask-1.png,h,0,3.1151034999638796,s,0,1.6913528004661202,0.041950599290430546,0.04804779961705208,0.09520879946649075,0.10120279993861914,0.294242599979043
RSVPLG03,JM,20260218-102832,1.0.2,20251105-084826,765,Practice,Both,1,Automatic,main,2,20260218-102926,global,global,300,S,S,A,E,S-A.png,S-E.png,sS,sS,mask-2.png,mask-1.png,s,1,5.222199700772762,h,0,2.4228316992521286,0.047205100767314434,0.049277699552476406,0.10020020045340061,0.1012864001095295,0.2999308006837964
RSVPLG03,JM,20260218-102832,1.0.2,20251105-084826,765,Practice,Both,1,Automatic,main,3,20260218-102937,local,global,300,S,H,E,A,E-S.png,H-A.png,sS,hH,mask-2.png,mask-1.png,h,0,8.570482300594449,s,0,2.3797769006341696,0.0478862002491951,0.04750499967485666,0.10033790022134781,0.10081580001860857,0.3016849998384714
RSVPLG03,JM,20260218-102832,1.0.2,20251105-084826,765,Practice,Both,1,Automatic,main,4,20260218-102951,global,local,300,S,H,A,A,S-A.png,A-H.png,sS,hH,mask-1.png,mask-3.png,s,1,1.2288060998544097,h,1,0.4105161000043154,0.047507899813354015,0.048847099766135216,0.10155100002884865,0.1019286997616291,0.2999785002321005
RSVPLG03,JM,20260218-102832,1.0.2,20251105-084826,765,Practice,Both,1,Automatic,main,5,20260218-102957,global,global,750,S,S,E,A,S-E.png,S-A.png,sS,sS,mask-2.png,mask-3.png,h,0,1.332961100153625,s,1,0.1836067996919155,0.04862509947270155,0.04754200018942356,0.09980709943920374,0.10052679944783449,0.7533130999654531
RSVPLG03,JM,20260218-102832,1.0.2,20251105-084826,765,Practice,Both,1,Automatic,main,6,20260218-103003,global,global,750,H,H,E,A,H-E.png,H-A.png,hH,hH,mask-4.png,mask-4.png,s,0,2.0503227999433875,h,1,0.13365400023758411,0.04787749983370304,0.04773860052227974,0.09962629992514849,0.09999189991503954,0.7526391996070743
RSVPLG03,JM,20260218-102832,1.0.2,20251105-084826,765,Practice,Both,1,Automatic,main,7,20260218-103009,global,local,750,H,S,A,E,H-A.png,E-S.png,hH,sS,mask-1.png,mask-2.png,h,1,1.6326494999229908,s,1,0.16238560061901808,0.048507300205528736,0.046657999977469444,0.10089810006320477,0.09819979965686798,0.7541350005194545
RSVPLG03,JM,20260218-102832,1.0.2,20251105-084826,765,Practice,Both,1,Automatic,main,8,20260218-103015,global,local,300,S,H,E,A,S-E.png,A-H.png,sS,hH,mask-1.png,mask-4.png,h,0,1.3002921994775534,s,0,0.1570498002693057,0.048195899464190006,0.049721299670636654,0.10048280004411936,0.10118740051984787,0.29986059945076704
RSVPLG03,JM,20260218-102832,1.0.2,20251105-084826,765,Practice,Both,1,Automatic,main,9,20260218-103020,local,local,300,H,H,E,A,E-H.png,A-H.png,hH,hH,mask-1.png,mask-2.png,s,0,1.657336799427867,h,1,0.1536188004538417,0.04664550069719553,0.048084200359880924,0.09983210079371929,0.1006121002137661,0.29992640018463135
RSVPLG03,JM,20260218-102832,1.0.2,20251105-084826,765,Practice,Both,1,Automatic,main,10,20260218-103026,local,local,750,H,H,E,A,E-H.png,A-H.png,hH,hH,mask-3.png,mask-3.png,s,0,1.872100600041449,s,0,0.0861629992723465,0.048647500574588776,0.04857040010392666,0.10071170050650835,0.1004603998735547,0.7517121005803347
RSVPLG03,JM,20260218-102832,1.0.2,20251105-084826,765,Practice,Both,1,Automatic,main,11,20260218-103032,local,global,750,S,H,E,A,E-S.png,H-A.png,sS,hH,mask-1.png,mask-2.png,s,1,0.9390802001580596,s,0,0.10182039998471737,0.04570669960230589,0.047502100467681885,0.0982788996770978,0.10051640029996634,0.7510335994884372
RSVPLG03,JM,20260218-102832,1.0.2,20251105-084826,765,Practice,Both,1,Automatic,main,12,20260218-103037,local,global,300,H,H,E,A,E-H.png,H-A.png,hH,hH,mask-3.png,mask-4.png,s,0,1.8553363997489214,h,1,0.13066670019179583,0.046879700385034084,0.04670159984380007,0.09868940059095621,0.09993289969861507,0.30038970056921244
RSVPLG03,JM,20260218-102832,1.0.2,20251105-084826,765,Practice,Both,1,Automatic,main,13,20260218-103043,local,global,750,S,H,E,E,E-S.png,H-E.png,sS,hH,mask-2.png,mask-2.png,s,1,1.2066054996103048,s,0,0.13318470027297735,0.04681149963289499,0.04750420060008764,0.09977899957448244,0.10049710050225258,0.7521824995055795
RSVPLG03,JM,20260218-102832,1.0.2,20251105-084826,765,Practice,Both,1,Automatic,main,14,20260218-103049,global,global,300,S,H,A,A,S-A.png,H-A.png,sS,hH,mask-2.png,mask-3.png,s,1,1.105121599510312,h,1,0.07841259986162186,0.047508399933576584,0.046506499871611595,0.09949230030179024,0.09951169975101948,0.3007140001282096
RSVPLG03,JM,20260218-102832,1.0.2,20251105-084826,765,Practice,Both,1,Automatic,main,15,20260218-103054,global,local,750,H,S,A,E,H-A.png,E-S.png,hH,sS,mask-2.png,mask-2.png,h,1,1.00973470043391,s,1,0.15172680001705885,0.04798770043998957,0.04580859933048487,0.1010683998465538,0.09951139986515045,0.7526055006310344
RSVPLG03,JM,20260218-102832,1.0.2,20251105-084826,765,Practice,Both,1,Automatic,main,16,20260218-103059,local,local,750,S,S,A,E,A-S.png,E-S.png,sS,sS,mask-2.png,mask-2.png,s,1,0.9011903004720807,h,0,0.05124500021338463,0.04756310023367405,0.04849749989807606,0.10057479981333017,0.09979610051959753,0.7523870998993516
RSVPLG03,JM,20260218-103202,1.0.2,20251105-084826,765,Practice,Both,1,Automatic,main,1,20260218-103229,global,local,750,S,S,A,E,S-A.png,E-S.png,sS,sS,mask-4.png,mask-1.png,s,1,1.3362100003287196,h,0,1.3283018004149199,0.042059799656271935,0.04769879952073097,0.09413609933108091,0.09939519967883825,0.7465693997219205
RSVPLG03,JM,20260218-103202,1.0.2,20251105-084826,765,Practice,Both,1,Automatic,main,2,20260218-103235,global,global,750,H,S,A,E,H-A.png,S-E.png,hH,sS,mask-1.png,mask-4.png,h,1,0.6352655002847314,s,1,0.2983631007373333,0.047728199511766434,0.047808099538087845,0.09982000011950731,0.09922889992594719,0.7520409999415278
RSVPLG03,JM,20260218-103202,1.0.2,20251105-084826,765,Practice,Both,1,Automatic,main,3,20260218-103241,local,global,750,H,H,E,A,E-H.png,H-A.png,hH,hH,mask-1.png,mask-2.png,h,1,1.161778099834919,h,1,0.08755500055849552,0.048510899767279625,0.046703499741852283,0.10150499921292067,0.09811710007488728,0.7524763997644186
RSVPLG03,JM,20260218-103202,1.0.2,20251105-084826,765,Practice,Both,1,Automatic,main,4,20260218-103246,local,global,300,H,H,A,E,A-H.png,H-E.png,hH,hH,mask-4.png,mask-2.png,s,0,1.2213593004271388,s,0,0.15531739965081215,0.04738389980047941,0.047489400021731853,0.10023890063166618,0.09931390080600977,0.3004315998405218
RSVPLG03,JM,20260218-103202,1.0.2,20251105-084826,765,Practice,Both,1,Automatic,main,5,20260218-103251,local,local,300,H,H,E,A,E-H.png,A-H.png,hH,hH,mask-2.png,mask-3.png,h,1,1.4322851998731494,s,0,0.10517510026693344,0.0475703002884984,0.04753270000219345,0.10032870061695576,0.10044190008193254,0.30010470002889633
RSVPLG03,JM,20260218-103202,1.0.2,20251105-084826,765,Practice,Both,1,Automatic,main,6,20260218-103257,global,global,750,S,S,E,A,S-E.png,S-A.png,sS,sS,mask-2.png,mask-1.png,h,0,2.7890825998038054,h,0,0.10272379964590073,0.04785170033574104,0.04754540044814348,0.10013859998434782,0.10073470044881105,0.7515294998884201
RSVPLG03,JM,20260218-103202,1.0.2,20251105-084826,765,Practice,Both,1,Automatic,main,7,20260218-103304,global,global,300,S,H,A,A,S-A.png,H-A.png,sS,hH,mask-4.png,mask-3.png,s,1,1.0282546002417803,h,1,0.6685747997835279,0.04669870063662529,0.047606599517166615,0.10080969985574484,0.10060109943151474,0.3002815004438162
RSVPLG03,JM,20260218-103202,1.0.2,20251105-084826,765,Practice,Both,1,Automatic,main,8,20260218-103309,global,local,300,H,H,A,A,H-A.png,A-H.png,hH,hH,mask-1.png,mask-2.png,h,1,2.35624419990927,h,1,0.10702160000801086,0.047670199535787106,0.04666939936578274,0.09984399937093258,0.0998637992888689,0.30040539987385273
RSVPLG03,JM,20260218-103202,1.0.2,20251105-084826,765,Practice,Both,1,Automatic,main,9,20260218-103316,local,global,750,S,H,A,A,A-S.png,H-A.png,sS,hH,mask-1.png,mask-2.png,s,1,1.9565577004104853,h,1,0.3879364999011159,0.04802419990301132,0.047773499973118305,0.09889579936861992,0.10197459999471903,0.7496007001027465
RSVPLG03,JM,20260218-103202,1.0.2,20251105-084826,765,Practice,Both,1,Automatic,main,10,20260218-103322,local,local,300,H,S,E,E,E-H.png,E-S.png,hH,sS,mask-2.png,mask-1.png,h,1,3.2115748999640346,s,1,0.057702500373125076,0.047175800427794456,0.04608479980379343,0.10033380053937435,0.09935449995100498,0.3003112003207207
RSVPLG03,JM,20260218-103202,1.0.2,20251105-084826,765,Practice,Both,1,Automatic,main,11,20260218-103329,global,local,300,H,S,A,A,H-A.png,A-S.png,hH,sS,mask-1.png,mask-2.png,h,1,1.130473100580275,h,0,1.7783528994768858,0.04678909946233034,0.04869129974395037,0.09897589962929487,0.09977869968861341,0.2996014002710581
RSVPLG03,JM,20260218-103202,1.0.2,20251105-084826,765,Practice,Both,1,Automatic,main,12,20260218-103336,local,local,750,S,H,A,E,A-S.png,E-H.png,sS,hH,mask-2.png,mask-1.png,s,1,1.2946293000131845,h,1,0.04155910015106201,0.04817409999668598,0.047510700300335884,0.10099329985678196,0.10048750042915344,0.7516499999910593
RSVPLG03,JM,20260218-103202,1.0.2,20251105-084826,765,Practice,Both,1,Automatic,main,13,20260218-103342,global,global,300,S,H,E,E,S-E.png,H-E.png,sS,hH,mask-2.png,mask-2.png,s,1,1.1543326005339622,h,1,0.30215159989893436,0.047035399824380875,0.04953330010175705,0.10116070043295622,0.10059950035065413,0.29944629967212677
RSVPLG03,JM,20260218-103202,1.0.2,20251105-084826,765,Practice,Both,1,Automatic,main,14,20260218-103347,local,global,300,H,H,E,E,E-H.png,H-E.png,hH,hH,mask-3.png,mask-2.png,s,0,1.5139960004016757,h,1,0.14045750070363283,0.04853279981762171,0.047511800192296505,0.10056420043110847,0.1005536001175642,0.30082730017602444
RSVPLG03,JM,20260218-103202,1.0.2,20251105-084826,765,Practice,Both,1,Automatic,main,15,20260218-103352,global,local,750,H,S,E,E,H-E.png,E-S.png,hH,sS,mask-1.png,mask-4.png,h,1,0.6395009998232126,s,1,0.19921790063381195,0.04652730002999306,0.047648800536990166,0.09971440024673939,0.10204040072858334,0.7500531999394298
RSVPLG03,JM,20260218-103202,1.0.2,20251105-084826,765,Practice,Both,1,Automatic,main,16,20260218-103358,local,local,750,S,S,E,A,E-S.png,A-S.png,sS,sS,mask-1.png,mask-4.png,s,1,0.6395386001095176,s,1,0.07465059962123632,0.04656670056283474,0.04678010009229183,0.10065179970115423,0.09992050006985664,0.7502602003514767
RSVPLG03,JM,20260218-103435,1.0.2,20251105-084826,765,Practice,Both,1,Automatic,main,1,20260218-103452,local,local,750,H,S,A,E,A-H.png,E-S.png,hH,sS,mask-1.png,mask-1.png,h,1,0.7769157001748681,s,1,0.18475480005145073,0.03922540042549372,0.04869559966027737,0.09207220003008842,0.10078839957714081,0.7407446000725031
RSVPLG03,JM,20260218-103435,1.0.2,20251105-084826,765,Practice,Both,1,Automatic,main,2,20260218-103458,local,global,750,S,H,E,A,E-S.png,H-A.png,sS,hH,mask-2.png,mask-1.png,s,1,0.621725800447166,h,1,0.3943333998322487,0.04782800003886223,0.04765599966049194,0.1009974991902709,0.10083520039916039,0.7502817995846272
RSVPLG03,JM,20260218-103435,1.0.2,20251105-084826,765,Practice,Both,1,Automatic,main,3,20260218-103503,global,global,300,S,S,E,A,S-E.png,S-A.png,sS,sS,mask-2.png,mask-3.png,s,1,0.892064199782908,s,1,0.11575730051845312,0.048581999726593494,0.045665799640119076,0.10096940025687218,0.09888939931988716,0.30179090052843094
RSVPLG03,JM,20260218-103435,1.0.2,20251105-084826,765,Practice,Both,1,Automatic,main,4,20260218-103508,global,local,750,H,H,E,E,H-E.png,E-H.png,hH,hH,mask-1.png,mask-3.png,s,0,1.0215960992500186,s,0,0.09090720023959875,0.04775729961693287,0.04863310046494007,0.09988600015640259,0.09979410003870726,0.7487957999110222
RSVPLG03,JM,20260218-103435,1.0.2,20251105-084826,765,Practice,Both,1,Automatic,main,5,20260218-103513,global,global,300,S,S,A,A,S-A.png,S-A.png,sS,sS,mask-3.png,mask-4.png,s,1,0.5188133995980024,s,1,0.12437899969518185,0.04837660025805235,0.04803309962153435,0.1013495996594429,0.1011779997497797,0.30006759986281395
RSVPLG03,JM,20260218-103435,1.0.2,20251105-084826,765,Practice,Both,1,Automatic,main,6,20260218-103518,local,local,300,S,S,E,E,E-S.png,E-S.png,sS,sS,mask-2.png,mask-1.png,s,1,0.5648231999948621,s,1,0.0913453996181488,0.04702350031584501,0.04672580026090145,0.10035730060189962,0.10098470002412796,0.29994670022279024
RSVPLG03,JM,20260218-103435,1.0.2,20251105-084826,765,Practice,Both,1,Automatic,main,7,20260218-103522,local,global,750,S,H,A,A,A-S.png,H-A.png,sS,hH,mask-1.png,mask-2.png,s,1,1.0759052997455,h,1,0.06954469997435808,0.04655029997229576,0.04751139972358942,0.10059729963541031,0.0986438998952508,0.7500356994569302
RSVPLG03,JM,20260218-103435,1.0.2,20251105-084826,765,Practice,Both,1,Automatic,main,8,20260218-103527,local,local,300,S,H,E,E,E-S.png,E-H.png,sS,hH,mask-4.png,mask-2.png,s,1,0.9575201999396086,s,0,0.2093319008126855,0.04753880016505718,0.04856459982693195,0.10066510085016489,0.10123770032078028,0.29987340047955513
RSVPLG03,JM,20260218-103435,1.0.2,20251105-084826,765,Practice,Both,1,Automatic,main,9,20260218-103532,local,local,750,S,S,A,A,A-S.png,A-S.png,sS,sS,mask-3.png,mask-2.png,s,1,1.372801300138235,h,0,0.2349287997931242,0.04719880037009716,0.04753680061548948,0.09827290009707212,0.10152240004390478,0.7482276000082493
RSVPLG03,JM,20260218-103435,1.0.2,20251105-084826,765,Practice,Both,1,Automatic,main,10,20260218-103538,local,global,300,H,S,A,E,A-H.png,S-E.png,hH,sS,mask-4.png,mask-1.png,h,1,2.2988780001178384,s,1,0.09496199991554022,0.047619400545954704,0.04759240057319403,0.1006850004196167,0.09990030061453581,0.3001629998907447
RSVPLG03,JM,20260218-103435,1.0.2,20251105-084826,765,Practice,Both,1,Automatic,main,11,20260218-103544,global,local,300,S,H,A,E,S-A.png,E-H.png,sS,hH,mask-3.png,mask-2.png,s,1,0.7510305000469089,s,0,0.1371919997036457,0.047682599164545536,0.04665699973702431,0.10074039921164513,0.0986329996958375,0.3003426995128393
RSVPLG03,JM,20260218-103435,1.0.2,20251105-084826,765,Practice,Both,1,Automatic,main,12,20260218-103549,local,global,300,S,H,E,A,E-S.png,H-A.png,sS,hH,mask-2.png,mask-3.png,s,1,0.9102001003921032,h,1,0.12030099984258413,0.04749260004609823,0.04749630019068718,0.10151540022343397,0.10037610027939081,0.2998564997687936
RSVPLG03,JM,20260218-103435,1.0.2,20251105-084826,765,Practice,Both,1,Automatic,main,13,20260218-103554,global,local,300,S,H,A,E,S-A.png,E-H.png,sS,hH,mask-1.png,mask-1.png,s,1,1.0727233001962304,h,1,0.3167367000132799,0.04866719990968704,0.047675300389528275,0.09987739939242601,0.09914099983870983,0.3004936994984746
RSVPLG03,JM,20260218-103435,1.0.2,20251105-084826,765,Practice,Both,1,Automatic,main,14,20260218-103559,global,global,750,S,H,E,E,S-E.png,H-E.png,sS,hH,mask-3.png,mask-4.png,s,1,0.8804697003215551,h,1,0.07008789945393801,0.0477013997733593,0.047664700075984,0.09888469986617565,0.10188429988920689,0.7482650997117162
RSVPLG03,JM,20260218-103435,1.0.2,20251105-084826,765,Practice,Both,1,Automatic,main,15,20260218-103604,global,local,750,H,S,E,A,H-E.png,A-S.png,hH,sS,mask-4.png,mask-4.png,h,1,0.4165385002270341,s,1,0.11841659992933273,0.045524499379098415,0.046499500051140785,0.09956679958850145,0.09850100055336952,0.7494506994262338
RSVPLG03,JM,20260218-103435,1.0.2,20251105-084826,765,Practice,Both,1,Automatic,main,16,20260218-103609,global,global,750,S,S,E,A,S-E.png,S-A.png,sS,sS,mask-3.png,mask-2.png,s,1,0.921624899841845,s,1,0.14474630076438189,0.04812389984726906,0.04780540056526661,0.10132739972323179,0.10100960079580545,0.7498697992414236
RSVPLG03,JM,20260218-103816,1.0.2,20251105-084826,765,Experiment,T1,1,Automatic,warmup,1,20260218-103843,global,global,300,S,S,E,A,S-E.png,S-A.png,sS,sS,mask-1.png,mask-3.png,s,1,0.5634410995990038,none,-5,0,0.041010200046002865,0.04756989981979132,0.09271320048719645,0.10048099979758263,0.29335319995880127
RSVPLG03,JM,20260218-103816,1.0.2,20251105-084826,765,Experiment,T1,1,Automatic,warmup,2,20260218-103847,local,local,750,H,H,A,A,A-H.png,A-H.png,hH,hH,mask-4.png,mask-3.png,h,1,0.4860640997067094,none,-5,0,0.047714400105178356,0.04866649955511093,0.09987420029938221,0.10022049956023693,0.7503058006986976
RSVPLG03,JM,20260218-103816,1.0.2,20251105-084826,765,Experiment,T1,1,Automatic,warmup,3,20260218-103852,local,local,300,H,H,A,A,A-H.png,A-H.png,hH,hH,mask-3.png,mask-2.png,h,1,0.40156809985637665,none,-5,0,0.048713999800384045,0.04858750011771917,0.10091779939830303,0.10096080042421818,0.29982779920101166
RSVPLG03,JM,20260218-103816,1.0.2,20251105-084826,765,Experiment,T1,1,Automatic,warmup,4,20260218-103856,global,local,300,S,S,A,E,S-A.png,E-S.png,sS,sS,mask-2.png,mask-4.png,s,1,0.4175917999818921,none,-5,0,0.047609200701117516,0.047499299980700016,0.09904700051993132,0.10050960071384907,0.30041659995913506
RSVPLG03,JM,20260218-103816,1.0.2,20251105-084826,765,Experiment,T1,1,Automatic,main,5,20260218-103900,local,local,750,H,H,E,E,E-H.png,E-H.png,hH,hH,mask-1.png,mask-3.png,h,1,0.3849515002220869,none,-5,0,0.04789560008794069,0.04750850051641464,0.10008309967815876,0.09874300006777048,0.7508796993643045
RSVPLG03,JM,20260218-103816,1.0.2,20251105-084826,765,Experiment,T1,1,Automatic,main,6,20260218-103904,global,local,750,S,H,E,E,S-E.png,E-H.png,sS,hH,mask-4.png,mask-3.png,s,1,1.395834599621594,none,-5,0,0.04758689925074577,0.04777320008724928,0.09977989923208952,0.10072440002113581,0.750824399292469
RSVPLG03,JM,20260218-103816,1.0.2,20251105-084826,765,Experiment,T1,1,Automatic,main,7,20260218-103910,local,local,300,H,S,A,E,A-H.png,E-S.png,hH,sS,mask-3.png,mask-4.png,h,1,1.54914990067482,none,-5,0,0.047767799347639084,0.0477505000308156,0.10072459932416677,0.0988700008019805,0.30196069926023483
RSVPLG03,JM,20260218-103816,1.0.2,20251105-084826,765,Experiment,T1,1,Automatic,main,8,20260218-103915,local,local,750,S,S,A,A,A-S.png,A-S.png,sS,sS,mask-2.png,mask-4.png,s,1,1.6030810000374913,none,-5,0,0.046729800291359425,0.04651840031147003,0.10002120025455952,0.1005836995318532,0.7501544002443552
RSVPLG03,JM,20260218-103816,1.0.2,20251105-084826,765,Experiment,T1,1,Automatic,main,9,20260218-103921,local,global,750,S,S,A,A,A-S.png,S-A.png,sS,sS,mask-1.png,mask-2.png,s,1,0.6014721002429724,none,-5,0,0.04753910005092621,0.04827510006725788,0.10128020029515028,0.1007926007732749,0.7511286996304989
RSVPLG03,JM,20260218-103816,1.0.2,20251105-084826,765,Experiment,T1,1,Automatic,main,10,20260218-103926,global,global,750,S,S,A,E,S-A.png,S-E.png,sS,sS,mask-1.png,mask-2.png,s,1,0.8365460997447371,none,-5,0,0.04750869981944561,0.04851420037448406,0.10158530063927174,0.09973630029708147,0.7509963000193238
RSVPLG03,JM,20260218-103816,1.0.2,20251105-084826,765,Experiment,T1,1,Automatic,main,11,20260218-103931,global,global,300,H,S,E,E,H-E.png,S-E.png,hH,sS,mask-3.png,mask-4.png,s,0,0.688284800387919,none,-5,0,0.04772249981760979,0.04709460027515888,0.10131330043077469,0.10010750032961369,0.3016830999404192
RSVPLG03,JM,20260218-103816,1.0.2,20251105-084826,765,Experiment,T1,1,Automatic,main,12,20260218-103935,global,local,300,S,H,E,A,S-E.png,A-H.png,sS,hH,mask-2.png,mask-1.png,s,1,1.9187190998345613,none,-5,0,0.04762190021574497,0.04751839954406023,0.09962890017777681,0.10054230038076639,0.29987690038979053
RSVPLG03,JM,20260218-103816,1.0.2,20251105-084826,765,Experiment,T1,1,Automatic,main,13,20260218-103940,global,local,750,H,S,A,A,H-A.png,A-S.png,hH,sS,mask-3.png,mask-1.png,h,1,0.4426809996366501,none,-5,0,0.04649929981678724,0.04765230044722557,0.10058279987424612,0.0996714998036623,0.7508610999211669
RSVPLG03,JM,20260218-103816,1.0.2,20251105-084826,765,Experiment,T1,1,Automatic,main,14,20260218-103945,local,global,750,S,S,E,A,E-S.png,S-A.png,sS,sS,mask-1.png,mask-1.png,h,0,0.987508200109005,none,-5,0,0.0476970998570323,0.0474744001403451,0.09891089983284473,0.09886360075324774,0.7507227994501591
RSVPLG03,JM,20260218-103816,1.0.2,20251105-084826,765,Experiment,T1,1,Automatic,main,15,20260218-103950,global,local,300,S,H,A,E,S-A.png,E-H.png,sS,hH,mask-1.png,mask-3.png,s,1,0.36831909976899624,none,-5,0,0.0477407006546855,0.04654220025986433,0.09991210047155619,0.09918100014328957,0.30039350036531687
RSVPLG03,JM,20260218-103816,1.0.2,20251105-084826,765,Experiment,T1,1,Automatic,main,16,20260218-103954,global,local,750,S,H,E,E,S-E.png,E-H.png,sS,hH,mask-1.png,mask-4.png,s,1,1.6627141004428267,none,-5,0,0.04695330001413822,0.04667599964886904,0.1011218000203371,0.09808739926666021,0.7523594005033374
RSVPLG03,JM,20260218-103816,1.0.2,20251105-084826,765,Experiment,T1,1,Automatic,main,17,20260218-104000,global,global,300,H,S,E,A,H-E.png,S-A.png,hH,sS,mask-1.png,mask-1.png,s,0,1.8091104999184608,none,-5,0,0.04784910008311272,0.04668490029871464,0.10104530025273561,0.09890979994088411,0.3017057999968529
RSVPLG03,JM,20260218-103816,1.0.2,20251105-084826,765,Experiment,T1,1,Automatic,main,18,20260218-104005,local,local,750,S,H,E,A,E-S.png,A-H.png,sS,hH,mask-3.png,mask-4.png,s,1,1.4413487995043397,none,-5,0,0.0476342998445034,0.04691290017217398,0.09970839973539114,0.10110899992287159,0.7499310001730919
RSVPLG03,JM,20260218-103816,1.0.2,20251105-084826,765,Experiment,T1,1,Automatic,main,19,20260218-104011,local,global,300,S,H,A,A,A-S.png,H-A.png,sS,hH,mask-3.png,mask-4.png,s,1,1.025645500048995,none,-5,0,0.04856669995933771,0.04752190038561821,0.10063819959759712,0.0999565003439784,0.30088429991155863
RSVPLG03,JM,20260218-103816,1.0.2,20251105-084826,765,Experiment,T1,1,Automatic,main,20,20260218-104015,global,global,300,S,S,A,A,S-A.png,S-A.png,sS,sS,mask-4.png,mask-1.png,s,1,0.38366489950567484,none,-5,0,0.048749400302767754,0.04774929955601692,0.10019330028444529,0.09922139998525381,0.3009986001998186
RSVPLG03,JM,20260218-103816,1.0.2,20251105-084826,765,Experiment,T1,1,Automatic,main,21,20260218-104019,global,local,300,H,H,E,A,H-E.png,A-H.png,hH,hH,mask-2.png,mask-3.png,h,1,0.3675787001848221,none,-5,0,0.046542299911379814,0.048502800054848194,0.10059040039777756,0.10152989998459816,0.2988844998180866
RSVPLG03,JM,20260218-103816,1.0.2,20251105-084826,765,Experiment,T1,1,Automatic,main,22,20260218-104023,local,local,300,H,H,E,E,E-H.png,E-H.png,hH,hH,mask-1.png,mask-2.png,h,1,0.3895127000287175,none,-5,0,0.04815200064331293,0.046338300220668316,0.10025820042937994,0.1008129995316267,0.3000458003953099
RSVPLG03,JM,20260218-103816,1.0.2,20251105-084826,765,Experiment,T1,1,Automatic,main,23,20260218-104027,global,global,750,H,H,E,E,H-E.png,H-E.png,hH,hH,mask-2.png,mask-1.png,h,1,0.42272650077939034,none,-5,0,0.048595599830150604,0.048527199774980545,0.10047710034996271,0.09967510029673576,0.7510818000882864
RSVPLG03,JM,20260218-103816,1.0.2,20251105-084826,765,Experiment,T1,1,Automatic,main,24,20260218-104032,global,local,750,H,S,A,A,H-A.png,A-S.png,hH,sS,mask-3.png,mask-3.png,h,1,0.47489019948989153,none,-5,0,0.04754790011793375,0.047796400263905525,0.10072689969092607,0.10082519985735416,0.7500334996730089
RSVPLG03,JM,20260218-103816,1.0.2,20251105-084826,765,Experiment,T1,1,Automatic,main,25,20260218-104036,global,local,300,S,S,E,A,S-E.png,A-S.png,sS,sS,mask-3.png,mask-4.png,s,1,0.34122429974377155,none,-5,0,0.04768129996955395,0.04769240040332079,0.10191860049962997,0.09996969997882843,0.3016523001715541
RSVPLG03,JM,20260218-103816,1.0.2,20251105-084826,765,Experiment,T1,1,Automatic,main,26,20260218-104047,local,local,300,H,S,A,A,A-H.png,A-S.png,hH,sS,mask-3.png,mask-3.png,h,1,1.0429142992943525,none,-5,0,0.04909550026059151,0.047672600485384464,0.10137000028043985,0.10068520065397024,0.30096929986029863
RSVPLG03,JM,20260218-103816,1.0.2,20251105-084826,765,Experiment,T1,1,Automatic,main,27,20260218-104052,global,local,300,S,H,A,A,S-A.png,A-H.png,sS,hH,mask-2.png,mask-1.png,s,1,0.7138439994305372,none,-5,0,0.0469717001542449,0.04855989944189787,0.09894210007041693,0.10181260015815496,0.29882080014795065
RSVPLG03,JM,20260218-103816,1.0.2,20251105-084826,765,Experiment,T1,1,Automatic,main,28,20260218-104056,global,global,750,H,H,E,E,H-E.png,H-E.png,hH,hH,mask-2.png,mask-1.png,h,1,0.35793029982596636,none,-5,0,0.045614599250257015,0.04669199977070093,0.09975999966263771,0.09957659989595413,0.7502611000090837
RSVPLG03,JM,20260218-103816,1.0.2,20251105-084826,765,Experiment,T1,1,Automatic,main,29,20260218-104101,global,global,750,H,S,E,E,H-E.png,S-E.png,hH,sS,mask-4.png,mask-4.png,h,1,0.46222459990531206,none,-5,0,0.047633600421249866,0.04671980068087578,0.0998887000605464,0.0997958006337285,0.7522921999916434
RSVPLG03,JM,20260218-103816,1.0.2,20251105-084826,765,Experiment,T1,1,Automatic,main,30,20260218-104105,local,global,750,H,S,E,E,E-H.png,S-E.png,hH,sS,mask-1.png,mask-3.png,h,1,0.4899602001532912,none,-5,0,0.046702099964022636,0.04587629996240139,0.10016159992665052,0.10021529998630285,0.7516743000596762
RSVPLG03,JM,20260218-103816,1.0.2,20251105-084826,765,Experiment,T1,1,Automatic,main,31,20260218-104110,global,global,300,H,S,E,E,H-E.png,S-E.png,hH,sS,mask-1.png,mask-4.png,h,1,0.5897485995665193,none,-5,0,0.04678859934210777,0.048609199933707714,0.10009020008146763,0.09983049985021353,0.29984959959983826
RSVPLG03,JM,20260218-103816,1.0.2,20251105-084826,765,Experiment,T1,1,Automatic,main,32,20260218-104114,local,global,300,H,S,A,E,A-H.png,S-E.png,hH,sS,mask-2.png,mask-3.png,h,1,0.36953420005738735,none,-5,0,0.047362600453197956,0.04767240025103092,0.10085900034755468,0.0997248999774456,0.30092679988592863
RSVPLG03,JM,20260218-103816,1.0.2,20251105-084826,765,Experiment,T1,1,Automatic,main,33,20260218-104118,global,local,750,S,S,A,E,S-A.png,E-S.png,sS,sS,mask-2.png,mask-4.png,h,0,1.6274386998265982,none,-5,0,0.04651390016078949,0.047740500420331955,0.09956160001456738,0.10037900041788816,0.7498584995046258
RSVPLG03,JM,20260218-103816,1.0.2,20251105-084826,765,Experiment,T1,1,Automatic,main,34,20260218-104124,local,local,300,H,S,A,A,A-H.png,A-S.png,hH,sS,mask-3.png,mask-3.png,s,0,1.6849132999777794,none,-5,0,0.047567399218678474,0.048586299642920494,0.10160519927740097,0.10061000008136034,0.3011531997472048
RSVPLG03,JM,20260218-103816,1.0.2,20251105-084826,765,Experiment,T1,1,Automatic,main,35,20260218-104129,global,local,300,S,S,A,E,S-A.png,E-S.png,sS,sS,mask-4.png,mask-1.png,s,1,0.6524843005463481,none,-5,0,0.048580399714410305,0.046573800034821033,0.10170209966599941,0.10071020014584064,0.3009962998330593
RSVPLG03,JM,20260218-103816,1.0.2,20251105-084826,765,Experiment,T1,1,Automatic,main,36,20260218-104134,global,global,750,H,H,A,A,H-A.png,H-A.png,hH,hH,mask-2.png,mask-3.png,h,1,0.4627509005367756,none,-5,0,0.045811199583113194,0.046565799973905087,0.09940419998019934,0.09971550013870001,0.7507299995049834
RSVPLG03,JM,20260218-103816,1.0.2,20251105-084826,765,Experiment,T1,1,Automatic,main,37,20260218-104138,local,global,300,S,S,E,A,E-S.png,S-A.png,sS,sS,mask-2.png,mask-4.png,s,1,0.46750649996101856,none,-5,0,0.04852060042321682,0.047570000402629375,0.10032630059868097,0.099919100292027,0.30089309997856617
RSVPLG03,JM,20260218-103816,1.0.2,20251105-084826,765,Experiment,T1,1,Automatic,main,38,20260218-104142,global,local,300,S,H,A,A,S-A.png,A-H.png,sS,hH,mask-4.png,mask-4.png,s,1,0.47891939990222454,none,-5,0,0.047603500075638294,0.04850250016897917,0.09960579965263605,0.1005555996671319,0.2998564001172781
RSVPLG03,JM,20260218-103816,1.0.2,20251105-084826,765,Experiment,T1,1,Automatic,main,39,20260218-104146,local,local,300,S,H,A,A,A-S.png,A-H.png,sS,hH,mask-3.png,mask-1.png,s,1,3.117466200143099,none,-5,0,0.045902700163424015,0.04768200032413006,0.10027970001101494,0.09990369994193316,0.29989289958029985
RSVPLG03,JM,20260218-103816,1.0.2,20251105-084826,765,Experiment,T1,1,Automatic,main,40,20260218-104153,global,local,300,S,S,E,E,S-E.png,E-S.png,sS,sS,mask-1.png,mask-4.png,s,1,0.4396390002220869,none,-5,0,0.04788940027356148,0.04784610029309988,0.10004420019686222,0.09985850006341934,0.30006450042128563
RSVPLG03,JM,20260218-103816,1.0.2,20251105-084826,765,Experiment,T1,1,Automatic,main,41,20260218-104157,global,local,750,S,H,E,E,S-E.png,E-H.png,sS,hH,mask-4.png,mask-1.png,s,1,0.38423840049654245,none,-5,0,0.04749989975243807,0.04673549998551607,0.10060269944369793,0.09980349987745285,0.7519407998770475
RSVPLG03,JM,20260218-103816,1.0.2,20251105-084826,765,Experiment,T1,1,Automatic,main,42,20260218-104202,global,global,750,H,H,A,A,H-A.png,H-A.png,hH,hH,mask-1.png,mask-4.png,h,1,0.37967950012534857,none,-5,0,0.04894050024449825,0.048515900038182735,0.10114269983023405,0.10169100016355515,0.7516321996226907
RSVPLG03,JM,20260218-103816,1.0.2,20251105-084826,765,Experiment,T1,1,Automatic,main,43,20260218-104206,global,global,750,S,S,A,E,S-A.png,S-E.png,sS,sS,mask-4.png,mask-3.png,s,1,0.3889215998351574,none,-5,0,0.04967790003865957,0.048723299987614155,0.1014852998778224,0.10084789991378784,0.7512806002050638
RSVPLG03,JM,20260218-103816,1.0.2,20251105-084826,765,Experiment,T1,1,Automatic,main,44,20260218-104211,global,global,750,S,H,E,E,S-E.png,H-E.png,sS,hH,mask-4.png,mask-3.png,s,1,0.221101900562644,none,-5,0,0.04771979991346598,0.04644380044192076,0.09990559983998537,0.0986216003075242,0.7520443992689252
RSVPLG03,JM,20260218-103816,1.0.2,20251105-084826,765,Experiment,T1,1,Automatic,main,45,20260218-104215,global,global,750,H,S,E,E,H-E.png,S-E.png,hH,sS,mask-1.png,mask-4.png,h,1,0.6398355001583695,none,-5,0,0.04768010042607784,0.04666309989988804,0.09987409971654415,0.09806500002741814,0.751069700345397
RSVPLG03,JM,20260218-103816,1.0.2,20251105-084826,765,Experiment,T1,1,Automatic,main,46,20260218-104220,local,global,300,H,H,E,A,E-H.png,H-A.png,hH,hH,mask-1.png,mask-1.png,h,1,0.3538204999640584,none,-5,0,0.04680429957807064,0.04854460060596466,0.09950440004467964,0.10055950004607439,0.2999160997569561
RSVPLG03,JM,20260218-103816,1.0.2,20251105-084826,765,Experiment,T1,1,Automatic,main,47,20260218-104224,local,global,750,S,S,E,E,E-S.png,S-E.png,sS,sS,mask-2.png,mask-2.png,s,1,0.4978409996256232,none,-5,0,0.04858869966119528,0.046556999906897545,0.10059239994734526,0.09856500010937452,0.7519482001662254
RSVPLG03,JM,20260218-103816,1.0.2,20251105-084826,765,Experiment,T1,1,Automatic,main,48,20260218-104228,local,local,750,H,S,E,E,E-H.png,E-S.png,hH,sS,mask-3.png,mask-1.png,s,0,0.6230795001611114,none,-5,0,0.04770519956946373,0.048957400023937225,0.10090429987758398,0.10135640017688274,0.7498976998031139
RSVPLG03,JM,20260218-103816,1.0.2,20251105-084826,765,Experiment,T1,1,Automatic,main,49,20260218-104233,global,global,300,H,H,E,A,H-E.png,H-A.png,hH,hH,mask-2.png,mask-1.png,h,1,0.4652631999924779,none,-5,0,0.04689549934118986,0.04751120042055845,0.10003659967333078,0.09955070074647665,0.3008633991703391
RSVPLG03,JM,20260218-103816,1.0.2,20251105-084826,765,Experiment,T1,1,Automatic,main,50,20260218-104237,local,local,300,H,H,E,E,E-H.png,E-H.png,hH,hH,mask-3.png,mask-4.png,h,1,0.3235895000398159,none,-5,0,0.047573099844157696,0.04805600084364414,0.09882139973342419,0.10025570075958967,0.299652399495244
RSVPLG03,JM,20260218-103816,1.0.2,20251105-084826,765,Experiment,T1,1,Automatic,main,51,20260218-104246,local,global,750,H,S,A,A,A-H.png,S-A.png,hH,sS,mask-4.png,mask-1.png,h,1,0.4465920999646187,none,-5,0,0.04773250035941601,0.047337000258266926,0.09832850005477667,0.10169630032032728,0.7499567996710539
RSVPLG03,JM,20260218-103816,1.0.2,20251105-084826,765,Experiment,T1,1,Automatic,main,52,20260218-104251,local,global,750,H,S,E,E,E-H.png,S-E.png,hH,sS,mask-1.png,mask-2.png,h,1,0.32425159960985184,none,-5,0,0.04744280036538839,0.04571130033582449,0.10043920017778873,0.09999300073832273,0.7522460995242
RSVPLG03,JM,20260218-103816,1.0.2,20251105-084826,765,Experiment,T1,1,Automatic,main,53,20260218-104255,local,global,300,H,S,E,A,E-H.png,S-A.png,hH,sS,mask-1.png,mask-1.png,h,1,0.4779476001858711,none,-5,0,0.04656489938497543,0.046509500592947006,0.09973759949207306,0.09890180081129074,0.30029549915343523
RSVPLG03,JM,20260218-103816,1.0.2,20251105-084826,765,Experiment,T1,1,Automatic,main,54,20260218-104259,global,global,750,H,H,E,A,H-E.png,H-A.png,hH,hH,mask-3.png,mask-1.png,h,1,0.3995711002498865,none,-5,0,0.04730879981070757,0.04746629949659109,0.1013632994145155,0.10139109939336777,0.7514027999714017
RSVPLG03,JM,20260218-103816,1.0.2,20251105-084826,765,Experiment,T1,1,Automatic,main,55,20260218-104304,local,global,750,H,H,A,E,A-H.png,H-E.png,hH,hH,mask-3.png,mask-2.png,h,1,0.43349279928952456,none,-5,0,0.04766730032861233,0.04857149999588728,0.09884930029511452,0.10084819979965687,0.7506132004782557
RSVPLG03,JM,20260218-103816,1.0.2,20251105-084826,765,Experiment,T1,1,Automatic,main,56,20260218-104308,local,global,300,S,H,A,A,A-S.png,H-A.png,sS,hH,mask-3.png,mask-2.png,s,1,0.5080854995176196,none,-5,0,0.047681900672614574,0.046949099749326706,0.0998746007680893,0.09971239976584911,0.2995554003864527
RSVPLG03,JM,20260218-103816,1.0.2,20251105-084826,765,Experiment,T1,1,Automatic,main,57,20260218-104312,global,local,750,H,S,A,E,H-A.png,E-S.png,hH,sS,mask-2.png,mask-4.png,h,1,2.362860199995339,none,-5,0,0.046660699881613255,0.04766840022057295,0.0997966006398201,0.10089559946209192,0.7496570004150271
RSVPLG03,JM,20260218-103816,1.0.2,20251105-084826,765,Experiment,T1,1,Automatic,main,58,20260218-104319,local,global,750,S,S,A,A,A-S.png,S-A.png,sS,sS,mask-1.png,mask-3.png,s,1,1.5390552999451756,none,-5,0,0.04877590015530586,0.048498000018298626,0.10117030050605536,0.10054720006883144,0.7506239004433155
RSVPLG03,JM,20260218-103816,1.0.2,20251105-084826,765,Experiment,T1,1,Automatic,main,59,20260218-104324,local,global,300,S,H,E,A,E-S.png,H-A.png,sS,hH,mask-3.png,mask-1.png,s,1,0.3856130000203848,none,-5,0,0.04659829940646887,0.04861669987440109,0.10061269998550415,0.10168579965829849,0.29927279986441135
RSVPLG03,JM,20260218-103816,1.0.2,20251105-084826,765,Experiment,T1,1,Automatic,main,60,20260218-104328,local,local,750,S,H,A,E,A-S.png,E-H.png,sS,hH,mask-4.png,mask-1.png,s,1,0.4014318995177746,none,-5,0,0.0474701002240181,0.04649190045893192,0.09937800001353025,0.09853189997375011,0.7520113997161388
RSVPLG03,JM,20260218-103816,1.0.2,20251105-084826,765,Experiment,T1,1,Automatic,main,61,20260218-104333,local,local,750,S,H,A,E,A-S.png,E-H.png,sS,hH,mask-4.png,mask-3.png,s,1,0.42352019995450974,none,-5,0,0.046337700448930264,0.04650430008769035,0.09855130035430193,0.10053500067442656,0.7513520997017622
RSVPLG03,JM,20260218-103816,1.0.2,20251105-084826,765,Experiment,T1,1,Automatic,main,62,20260218-104337,global,local,750,S,H,E,A,S-E.png,A-H.png,sS,hH,mask-2.png,mask-3.png,s,1,0.3756258999928832,none,-5,0,0.048434399999678135,0.0483686001971364,0.09958729986101389,0.10152619984000921,0.7503257002681494
RSVPLG03,JM,20260218-103816,1.0.2,20251105-084826,765,Experiment,T1,1,Automatic,main,63,20260218-104342,local,global,300,S,S,A,A,A-S.png,S-A.png,sS,sS,mask-3.png,mask-2.png,s,1,0.4793114000931382,none,-5,0,0.04647060018032789,0.04750769957900047,0.09855950064957142,0.10075569991022348,0.2988279005512595
RSVPLG03,JM,20260218-103816,1.0.2,20251105-084826,765,Experiment,T1,1,Automatic,main,64,20260218-104346,local,local,750,H,H,A,E,A-H.png,E-H.png,hH,hH,mask-4.png,mask-2.png,h,1,0.5753030003979802,none,-5,0,0.04762890003621578,0.04851070046424866,0.09962209966033697,0.10111500043421984,0.7506601996719837
RSVPLG03,JM,20260218-103816,1.0.2,20251105-084826,765,Experiment,T1,1,Automatic,main,65,20260218-104351,global,local,300,S,S,E,E,S-E.png,E-S.png,sS,sS,mask-4.png,mask-2.png,s,1,1.439437000080943,none,-5,0,0.047557600773870945,0.04755489993840456,0.09972680080682039,0.09955140016973019,0.30105410050600767
RSVPLG03,JM,20260218-103816,1.0.2,20251105-084826,765,Experiment,T1,1,Automatic,main,66,20260218-104356,global,local,750,S,S,E,A,S-E.png,A-S.png,sS,sS,mask-2.png,mask-2.png,s,1,0.0014145001769065857,none,-5,0,0.04710770025849342,0.048268599435687065,0.09915489982813597,0.1002802001312375,0.7497610002756119
RSVPLG03,JM,20260218-103816,1.0.2,20251105-084826,765,Experiment,T1,1,Automatic,main,67,20260218-104400,global,global,300,S,H,A,E,S-A.png,H-E.png,sS,hH,mask-2.png,mask-2.png,h,0,1.8805885994806886,none,-5,0,0.04678819980472326,0.04774780012667179,0.09899469930678606,0.10000810027122498,0.2995272995904088
RSVPLG03,JM,20260218-103816,1.0.2,20251105-084826,765,Experiment,T1,1,Automatic,main,68,20260218-104405,local,local,300,H,S,A,A,A-H.png,A-S.png,hH,sS,mask-4.png,mask-3.png,s,0,0.5733936000615358,none,-5,0,0.04857899993658066,0.04564070049673319,0.1009630998596549,0.0994250001385808,0.3016877993941307
RSVPLG03,JM,20260218-103816,1.0.2,20251105-084826,765,Experiment,T1,1,Automatic,main,69,20260218-104409,local,global,300,S,S,E,E,E-S.png,S-E.png,sS,sS,mask-2.png,mask-1.png,s,1,0.3362584002315998,none,-5,0,0.04658700060099363,0.046750299632549286,0.09966700058430433,0.09944080002605915,0.2992972005158663
RSVPLG03,JM,20260218-103816,1.0.2,20251105-084826,765,Experiment,T1,1,Automatic,main,70,20260218-104413,global,local,300,H,H,A,E,H-A.png,E-H.png,hH,hH,mask-3.png,mask-1.png,h,1,0.41669060010463,none,-5,0,0.04695709981024265,0.04667150042951107,0.09886019956320524,0.09971179999411106,0.30017649941146374
RSVPLG03,JM,20260218-103816,1.0.2,20251105-084826,765,Experiment,T1,1,Automatic,main,71,20260218-104417,global,local,300,H,S,A,A,H-A.png,A-S.png,hH,sS,mask-3.png,mask-1.png,h,1,0.3181484006345272,none,-5,0,0.04880659934133291,0.047731999307870865,0.10110319964587688,0.09990209992974997,0.3011360000818968
RSVPLG03,JM,20260218-103816,1.0.2,20251105-084826,765,Experiment,T1,1,Automatic,main,72,20260218-104421,local,global,750,H,H,A,A,A-H.png,H-A.png,hH,hH,mask-3.png,mask-3.png,s,0,0.6564341997727752,none,-5,0,0.047675300389528275,0.04778680019080639,0.09981899987906218,0.09917480032891035,0.7519127996638417
RSVPLG03,JM,20260218-103816,1.0.2,20251105-084826,765,Experiment,T1,1,Automatic,main,73,20260218-104426,global,global,300,H,S,A,E,H-A.png,S-E.png,hH,sS,mask-2.png,mask-1.png,h,1,0.4070291994139552,none,-5,0,0.04863999970257282,0.04689889959990978,0.10064690001308918,0.10013530030846596,0.30017289984971285
RSVPLG03,JM,20260218-103816,1.0.2,20251105-084826,765,Experiment,T1,1,Automatic,main,74,20260218-104430,global,local,300,S,H,E,A,S-E.png,A-H.png,sS,hH,mask-3.png,mask-3.png,s,1,0.2902506999671459,none,-5,0,0.04756279941648245,0.04853940010070801,0.09857899975031614,0.10074380040168762,0.29882899951189756
RSVPLG03,JM,20260218-103816,1.0.2,20251105-084826,765,Experiment,T1,1,Automatic,main,75,20260218-104434,local,local,300,S,H,E,E,E-S.png,E-H.png,sS,hH,mask-2.png,mask-1.png,s,1,0.33089010044932365,none,-5,0,0.04641509987413883,0.048930599354207516,0.09891089983284473,0.10077729914337397,0.29837390035390854
RSVPLG03,JM,20260218-103816,1.0.2,20251105-084826,765,Experiment,T1,1,Automatic,main,76,20260218-104450,global,global,300,S,H,A,E,S-A.png,H-E.png,sS,hH,mask-4.png,mask-2.png,s,1,0.22068889997899532,none,-5,0,0.047598499804735184,0.046796499751508236,0.10011459980159998,0.1009349999949336,0.2998708998784423
RSVPLG03,JM,20260218-103816,1.0.2,20251105-084826,765,Experiment,T1,1,Automatic,main,77,20260218-104454,global,global,300,H,H,E,E,H-E.png,H-E.png,hH,hH,mask-3.png,mask-1.png,h,1,0.33866020012646914,none,-5,0,0.04710999969393015,0.045602899976074696,0.10005920007824898,0.0983252003788948,0.30184669978916645
RSVPLG03,JM,20260218-103816,1.0.2,20251105-084826,765,Experiment,T1,1,Automatic,main,78,20260218-104458,local,local,300,H,S,A,E,A-H.png,E-S.png,hH,sS,mask-2.png,mask-2.png,s,0,1.598412200808525,none,-5,0,0.04749580007046461,0.048531299456954,0.09939219988882542,0.09971119929105043,0.29899790044873953
RSVPLG03,JM,20260218-103816,1.0.2,20251105-084826,765,Experiment,T1,1,Automatic,main,79,20260218-104504,local,global,750,S,H,A,E,A-S.png,H-E.png,sS,hH,mask-4.png,mask-4.png,s,1,0.4009747998788953,none,-5,0,0.04857579991221428,0.04664129950106144,0.09973210003226995,0.09907749947160482,0.7517383005470037
RSVPLG03,JM,20260218-103816,1.0.2,20251105-084826,765,Experiment,T1,1,Automatic,main,80,20260218-104508,local,local,750,H,S,E,E,E-H.png,E-S.png,hH,sS,mask-4.png,mask-2.png,h,1,0.385682400316,none,-5,0,0.047570900060236454,0.04595219995826483,0.09955220017582178,0.09904619958251715,0.7508180001750588
RSVPLG03,JM,20260218-103816,1.0.2,20251105-084826,765,Experiment,T1,1,Automatic,main,81,20260218-104512,local,local,750,H,H,E,E,E-H.png,E-H.png,hH,hH,mask-3.png,mask-4.png,h,1,0.45049710012972355,none,-5,0,0.04751589987426996,0.04751120042055845,0.09945550002157688,0.1005048006772995,0.7497704001143575
RSVPLG03,JM,20260218-103816,1.0.2,20251105-084826,765,Experiment,T1,1,Automatic,main,82,20260218-104517,local,global,300,S,H,A,A,A-S.png,H-A.png,sS,hH,mask-3.png,mask-1.png,s,1,0.4304152997210622,none,-5,0,0.046464200131595135,0.04631370026618242,0.10011160001158714,0.10036140028387308,0.3005931004881859
RSVPLG03,JM,20260218-103816,1.0.2,20251105-084826,765,Experiment,T1,1,Automatic,main,83,20260218-104521,local,local,300,H,H,E,A,E-H.png,A-H.png,hH,hH,mask-2.png,mask-1.png,h,1,0.5692857997491956,none,-5,0,0.04717349912971258,0.04739820025861263,0.10018919967114925,0.10038719978183508,0.2992094997316599
RSVPLG03,JM,20260218-103816,1.0.2,20251105-084826,765,Experiment,T1,1,Automatic,main,84,20260218-104525,local,local,300,S,H,E,A,E-S.png,A-H.png,sS,hH,mask-4.png,mask-4.png,s,1,0.4045652002096176,none,-5,0,0.047558799386024475,0.04862309992313385,0.1005540993064642,0.09963049925863743,0.3009673999622464
RSVPLG03,JM,20260218-103816,1.0.2,20251105-084826,765,Experiment,T1,1,Automatic,main,85,20260218-104529,global,global,300,H,S,E,A,H-E.png,S-A.png,hH,sS,mask-4.png,mask-3.png,h,1,0.36285930033773184,none,-5,0,0.04758429992944002,0.04754959978163242,0.10156339965760708,0.0989886000752449,0.3018760997802019
RSVPLG03,JM,20260218-103816,1.0.2,20251105-084826,765,Experiment,T1,1,Automatic,main,86,20260218-104533,global,global,300,H,H,E,E,H-E.png,H-E.png,hH,hH,mask-3.png,mask-4.png,h,1,0.3169664004817605,none,-5,0,0.04682699963450432,0.047494400292634964,0.0996952997520566,0.10050259996205568,0.2999811992049217
RSVPLG03,JM,20260218-103816,1.0.2,20251105-084826,765,Experiment,T1,1,Automatic,main,87,20260218-104537,global,local,750,S,S,A,A,S-A.png,A-S.png,sS,sS,mask-3.png,mask-4.png,h,0,1.0392352994531393,none,-5,0,0.048901600763201714,0.04681370034813881,0.10198200028389692,0.10093060042709112,0.7520097000524402
RSVPLG03,JM,20260218-103816,1.0.2,20251105-084826,765,Experiment,T1,1,Automatic,main,88,20260218-104542,local,local,750,H,S,A,E,A-H.png,E-S.png,hH,sS,mask-2.png,mask-4.png,h,1,0.5324189998209476,none,-5,0,0.046688999980688095,0.04767830017954111,0.09887070022523403,0.0989484004676342,0.750054799951613
RSVPLG03,JM,20260218-103816,1.0.2,20251105-084826,765,Experiment,T1,1,Automatic,main,89,20260218-104547,local,global,750,S,H,E,A,E-S.png,H-A.png,sS,hH,mask-1.png,mask-3.png,h,0,0.4314214000478387,none,-5,0,0.047471500001847744,0.04861859977245331,0.0994881996884942,0.09962829947471619,0.7504778997972608
RSVPLG03,JM,20260218-103816,1.0.2,20251105-084826,765,Experiment,T1,1,Automatic,main,90,20260218-104551,global,local,750,H,H,A,E,H-A.png,E-H.png,hH,hH,mask-4.png,mask-3.png,h,1,0.44675569981336594,none,-5,0,0.04719489999115467,0.048504799604415894,0.09808470029383898,0.10051179956644773,0.7492808001115918
RSVPLG03,JM,20260218-103816,1.0.2,20251105-084826,765,Experiment,T1,1,Automatic,main,91,20260218-104556,local,global,300,S,S,A,E,A-S.png,S-E.png,sS,sS,mask-4.png,mask-1.png,s,1,1.2250101994723082,none,-5,0,0.04751740023493767,0.046972100622951984,0.09852560050785542,0.09925630036741495,0.29976699966937304
RSVPLG03,JM,20260218-103816,1.0.2,20251105-084826,765,Experiment,T1,1,Automatic,main,92,20260218-104601,global,global,300,H,S,A,A,H-A.png,S-A.png,hH,sS,mask-2.png,mask-4.png,h,1,0.3392441002652049,none,-5,0,0.04630239959806204,0.04752389993518591,0.09929519984871149,0.1006222004070878,0.3001465993002057
RSVPLG03,JM,20260218-103816,1.0.2,20251105-084826,765,Experiment,T1,1,Automatic,main,93,20260218-104605,global,global,750,H,S,E,A,H-E.png,S-A.png,hH,sS,mask-3.png,mask-2.png,h,1,0.5741616999730468,none,-5,0,0.04980629961937666,0.047814300283789635,0.10110499989241362,0.10102089960128069,0.7516650995239615
RSVPLG03,JM,20260218-103816,1.0.2,20251105-084826,765,Experiment,T1,1,Automatic,main,94,20260218-104609,global,local,750,S,S,E,A,S-E.png,A-S.png,sS,sS,mask-4.png,mask-1.png,s,1,0.37651799991726875,none,-5,0,0.04750309977680445,0.04667999967932701,0.09952179994434118,0.09960489999502897,0.7514760997146368
RSVPLG03,JM,20260218-103816,1.0.2,20251105-084826,765,Experiment,T1,1,Automatic,main,95,20260218-104614,local,local,750,S,H,A,A,A-S.png,A-H.png,sS,hH,mask-3.png,mask-1.png,s,1,0.6923734992742538,none,-5,0,0.04754009936004877,0.047578499652445316,0.09960819967091084,0.09995980001986027,0.7501924997195601
RSVPLG03,JM,20260218-103816,1.0.2,20251105-084826,765,Experiment,T1,1,Automatic,main,96,20260218-104619,global,global,750,S,H,E,A,S-E.png,H-A.png,sS,hH,mask-4.png,mask-1.png,s,1,0.41297269985079765,none,-5,0,0.04757419973611832,0.04821310006082058,0.09960249997675419,0.10082830023020506,0.7504514995962381
RSVPLG03,JM,20260218-103816,1.0.2,20251105-084826,765,Experiment,T1,1,Automatic,main,97,20260218-104623,local,global,300,S,H,A,E,A-S.png,H-E.png,sS,hH,mask-3.png,mask-3.png,s,1,0.40366100054234266,none,-5,0,0.046982199884951115,0.047698499634861946,0.10021619964390993,0.09987370017915964,0.3007209002971649
RSVPLG03,JM,20260218-103816,1.0.2,20251105-084826,765,Experiment,T1,1,Automatic,main,98,20260218-104627,local,local,300,S,H,A,E,A-S.png,E-H.png,sS,hH,mask-3.png,mask-3.png,s,1,0.38875639997422695,none,-5,0,0.04702799953520298,0.04785040020942688,0.10051009990274906,0.09986910037696362,0.30018419958651066
RSVPLG03,JM,20260218-103816,1.0.2,20251105-084826,765,Experiment,T1,1,Automatic,main,99,20260218-104631,local,global,750,S,H,A,E,A-S.png,H-E.png,sS,hH,mask-2.png,mask-3.png,h,0,1.5167136006057262,none,-5,0,0.0465446999296546,0.04869550000876188,0.09860530029982328,0.10083429981023073,0.7491878001019359
RSVPLG03,JM,20260218-103816,1.0.2,20251105-084826,765,Experiment,T1,1,Automatic,main,100,20260218-104637,local,local,750,H,S,E,E,E-H.png,E-S.png,hH,sS,mask-4.png,mask-1.png,s,0,0.5128496000543237,none,-5,0,0.0486517995595932,0.047609299421310425,0.09990349970757961,0.10002929996699095,0.7514033997431397
RSVPLG03,JM,20260218-104721,1.0.2,20251105-084826,765,Experiment,Both,1,Automatic,warmup,1,20260218-104753,global,local,300,H,H,E,A,H-E.png,A-H.png,hH,hH,mask-3.png,mask-2.png,h,1,1.2906069997698069,s,0,0.7360076000913978,0.040954699739813805,0.04769600089639425,0.09267659951001406,0.0991134000942111,0.2943833991885185
RSVPLG03,JM,20260218-104721,1.0.2,20251105-084826,765,Experiment,Both,1,Automatic,warmup,2,20260218-104759,global,local,750,H,S,A,E,H-A.png,E-S.png,hH,sS,mask-2.png,mask-1.png,h,1,0.816626500338316,s,1,0.3243554001674056,0.047518299892544746,0.04750720039010048,0.09952339995652437,0.09950810018926859,0.7522432003170252
RSVPLG03,JM,20260218-104721,1.0.2,20251105-084826,765,Experiment,Both,1,Automatic,warmup,3,20260218-104805,global,global,750,H,S,A,A,H-A.png,S-A.png,hH,sS,mask-3.png,mask-1.png,h,1,0.6372697995975614,s,1,0.17125209979712963,0.04901740048080683,0.047647600062191486,0.10205490048974752,0.09967330005019903,0.7533425996080041
RSVPLG03,JM,20260218-104721,1.0.2,20251105-084826,765,Experiment,Both,1,Automatic,warmup,4,20260218-104810,local,global,750,S,S,A,A,A-S.png,S-A.png,sS,sS,mask-3.png,mask-1.png,s,1,0.7142933001741767,s,1,0.24063050001859665,0.047526199370622635,0.04752289969474077,0.09986479952931404,0.09881320036947727,0.752611399628222
RSVPLG03,JM,20260218-104721,1.0.2,20251105-084826,765,Experiment,Both,1,Automatic,main,5,20260218-104815,global,local,300,S,H,A,A,S-A.png,A-H.png,sS,hH,mask-3.png,mask-2.png,s,1,2.4808612996712327,h,1,0.09235749952495098,0.04721840005367994,0.04886220023036003,0.09851970057934523,0.10086680017411709,0.30026450008153915
RSVPLG03,JM,20260218-104721,1.0.2,20251105-084826,765,Experiment,Both,1,Automatic,main,6,20260218-104822,local,local,300,S,H,E,A,E-S.png,A-H.png,sS,hH,mask-2.png,mask-3.png,s,1,0.5307408003136516,h,1,0.15015210025012493,0.04870310053229332,0.04759979993104935,0.10088129993528128,0.09964330028742552,0.3013249998912215
RSVPLG03,JM,20260218-104721,1.0.2,20251105-084826,765,Experiment,Both,1,Automatic,main,7,20260218-104826,global,local,750,S,H,E,A,S-E.png,A-H.png,sS,hH,mask-2.png,mask-3.png,s,1,0.8705234993249178,h,1,0.24587929993867874,0.04710349999368191,0.046558599919080734,0.1012224992737174,0.09952689986675978,0.7529879994690418
RSVPLG03,JM,20260218-104721,1.0.2,20251105-084826,765,Experiment,Both,1,Automatic,main,8,20260218-104832,local,local,300,H,H,E,E,E-H.png,E-H.png,hH,hH,mask-2.png,mask-3.png,h,1,0.5012734001502395,h,1,0.22200419940054417,0.047058699652552605,0.04729330074042082,0.10001670010387897,0.10059820022433996,0.2997904997318983
RSVPLG03,JM,20260218-104721,1.0.2,20251105-084826,765,Experiment,Both,1,Automatic,main,9,20260218-104836,global,global,750,H,H,E,A,H-E.png,H-A.png,hH,hH,mask-3.png,mask-2.png,h,1,1.2185268001630902,h,1,0.1398656005039811,0.047504300251603127,0.04743629973381758,0.10049569979310036,0.10042989999055862,0.7518902998417616
RSVPLG03,JM,20260218-104721,1.0.2,20251105-084826,765,Experiment,Both,1,Automatic,main,10,20260218-104842,local,local,300,H,H,E,A,E-H.png,A-H.png,hH,hH,mask-3.png,mask-2.png,h,1,0.7178303003311157,h,1,0.1672607995569706,0.04756470024585724,0.04823189973831177,0.10140000004321337,0.10132979974150658,0.3012006999924779
RSVPLG03,JM,20260218-104721,1.0.2,20251105-084826,765,Experiment,Both,1,Automatic,main,11,20260218-104846,global,local,300,S,H,A,E,S-A.png,E-H.png,sS,hH,mask-3.png,mask-4.png,s,1,2.072780800051987,s,0,0.40691309981048107,0.04816580004990101,0.04890870023518801,0.10136729944497347,0.10201440006494522,0.30086509976536036
RSVPLG03,JM,20260218-104721,1.0.2,20251105-084826,765,Experiment,Both,1,Automatic,main,12,20260218-104853,global,global,300,H,H,E,E,H-E.png,H-E.png,hH,hH,mask-3.png,mask-4.png,h,1,0.47802550066262484,h,1,0.15094960015267134,0.04735019989311695,0.04791389964520931,0.10034229978919029,0.09915069956332445,0.30078009981662035
RSVPLG03,JM,20260218-104721,1.0.2,20251105-084826,765,Experiment,Both,1,Automatic,main,13,20260218-104857,local,local,750,S,S,E,E,E-S.png,E-S.png,sS,sS,mask-4.png,mask-4.png,s,1,0.44259530026465654,s,1,0.1981608998030424,0.048653400503098965,0.04767649993300438,0.10153720062226057,0.10009360034018755,0.7514503002166748
RSVPLG03,JM,20260218-104721,1.0.2,20251105-084826,765,Experiment,Both,1,Automatic,main,14,20260218-104902,global,global,750,H,S,A,E,H-A.png,S-E.png,hH,sS,mask-3.png,mask-4.png,h,1,1.1642265003174543,s,1,0.12043190002441406,0.04787740018218756,0.04635139927268028,0.1001690998673439,0.09941499959677458,0.7532208003103733
RSVPLG03,JM,20260218-104721,1.0.2,20251105-084826,765,Experiment,Both,1,Automatic,main,15,20260218-104907,global,global,300,S,S,A,A,S-A.png,S-A.png,sS,sS,mask-4.png,mask-4.png,s,1,0.5365018993616104,s,1,0.1764946999028325,0.04895449988543987,0.04869790002703667,0.0998726999387145,0.09995350055396557,0.30065809935331345
RSVPLG03,JM,20260218-104721,1.0.2,20251105-084826,765,Experiment,Both,1,Automatic,main,16,20260218-104912,local,global,300,H,H,A,E,A-H.png,H-E.png,hH,hH,mask-1.png,mask-1.png,s,0,0.8471526000648737,h,1,0.05137629993259907,0.047823100350797176,0.048497000709176064,0.10093780048191547,0.10053660068660975,0.30117740016430616
RSVPLG03,JM,20260218-104721,1.0.2,20251105-084826,765,Experiment,Both,1,Automatic,main,17,20260218-104917,global,local,300,S,S,A,A,S-A.png,A-S.png,sS,sS,mask-3.png,mask-1.png,s,1,0.7005360005423427,s,1,0.18521570041775703,0.04862099979072809,0.04770249966531992,0.10083310026675463,0.0998301999643445,0.3014700999483466
RSVPLG03,JM,20260218-104721,1.0.2,20251105-084826,765,Experiment,Both,1,Automatic,main,18,20260218-104921,local,local,750,S,H,E,E,E-S.png,E-H.png,sS,hH,mask-4.png,mask-2.png,s,1,0.5512198004871607,h,1,0.15602540038526058,0.04679509997367859,0.047685000114142895,0.09992119949311018,0.09986549988389015,0.7515303995460272
RSVPLG03,JM,20260218-104721,1.0.2,20251105-084826,765,Experiment,Both,1,Automatic,main,19,20260218-104926,local,global,750,H,H,A,A,A-H.png,H-A.png,hH,hH,mask-1.png,mask-2.png,h,1,0.6784980995580554,h,1,0.14929019939154387,0.047548200003802776,0.04850059933960438,0.09877539984881878,0.10153119917958975,0.7509647002443671
RSVPLG03,JM,20260218-104721,1.0.2,20251105-084826,765,Experiment,Both,1,Automatic,main,20,20260218-104931,global,local,300,S,S,A,E,S-A.png,E-S.png,sS,sS,mask-2.png,mask-2.png,h,0,1.754547099582851,h,0,0.0994921000674367,0.046512299217283726,0.04750780016183853,0.09953619912266731,0.10148450080305338,0.29952449910342693
RSVPLG03,JM,20260218-104721,1.0.2,20251105-084826,765,Experiment,Both,1,Automatic,main,21,20260218-104937,global,global,750,H,S,A,A,H-A.png,S-A.png,hH,sS,mask-1.png,mask-4.png,h,1,1.2293404005467892,s,1,0.5393507005646825,0.04748900048434734,0.04881959967315197,0.0994710000231862,0.10201029945164919,0.7501629004254937
RSVPLG03,JM,20260218-104721,1.0.2,20251105-084826,765,Experiment,Both,1,Automatic,main,22,20260218-104943,local,local,750,S,H,E,E,E-S.png,E-H.png,sS,hH,mask-4.png,mask-1.png,s,1,0.5521972998976707,h,1,0.18219210021197796,0.04774769954383373,0.047661700285971165,0.10021740011870861,0.09914040006697178,0.7519031995907426
RSVPLG03,JM,20260218-104721,1.0.2,20251105-084826,765,Experiment,Both,1,Automatic,main,23,20260218-104948,local,global,300,H,S,E,A,E-H.png,S-A.png,hH,sS,mask-4.png,mask-3.png,s,0,0.9760455004870892,h,0,0.09258489962667227,0.047933599911630154,0.048504400067031384,0.09992950037121773,0.1005255002528429,0.3001894997432828
RSVPLG03,JM,20260218-104721,1.0.2,20251105-084826,765,Experiment,Both,1,Automatic,main,24,20260218-104953,global,local,750,S,H,E,A,S-E.png,A-H.png,sS,hH,mask-2.png,mask-2.png,h,0,1.656705099157989,s,0,0.10753150004893541,0.04584490042179823,0.04841409996151924,0.09992820024490356,0.10137099958956242,0.7504665004089475
RSVPLG03,JM,20260218-104721,1.0.2,20251105-084826,765,Experiment,Both,1,Automatic,main,25,20260218-104959,global,local,300,H,S,A,E,H-A.png,E-S.png,hH,sS,mask-3.png,mask-4.png,h,1,0.8074659006670117,s,1,0.15481949970126152,0.04752090014517307,0.04751159995794296,0.10155170038342476,0.09878099989145994,0.3018487999215722
RSVPLG03,JM,20260218-104721,1.0.2,20251105-084826,765,Experiment,Both,1,Automatic,main,26,20260218-105025,global,local,750,S,S,A,E,S-A.png,E-S.png,sS,sS,mask-1.png,mask-4.png,h,0,0.957200400531292,s,1,0.092871000058949,0.04757119994610548,0.04953779932111502,0.10053739976137877,0.10158389993011951,0.7513431003317237
RSVPLG03,JM,20260218-104721,1.0.2,20251105-084826,765,Experiment,Both,1,Automatic,main,27,20260218-105031,global,global,300,H,H,E,E,H-E.png,H-E.png,hH,hH,mask-2.png,mask-4.png,h,1,1.0829084999859333,h,1,0.1502778995782137,0.04846880026161671,0.048840600065886974,0.10146449971944094,0.10195100028067827,0.30068839993327856
RSVPLG03,JM,20260218-104721,1.0.2,20251105-084826,765,Experiment,Both,1,Automatic,main,28,20260218-105036,local,global,300,H,S,E,E,E-H.png,S-E.png,hH,sS,mask-3.png,mask-3.png,h,1,0.7216517999768257,s,1,0.1843945002183318,0.047400000505149364,0.046678400598466396,0.09975800011307001,0.10088639985769987,0.3012084001675248
RSVPLG03,JM,20260218-104721,1.0.2,20251105-084826,765,Experiment,Both,1,Automatic,main,29,20260218-105041,local,local,300,S,H,A,E,A-S.png,E-H.png,sS,hH,mask-2.png,mask-3.png,s,1,0.49276930000633,h,1,0.1618750998750329,0.04750689957290888,0.04762940015643835,0.0990623002871871,0.1008211001753807,0.3006737995892763
RSVPLG03,JM,20260218-104721,1.0.2,20251105-084826,765,Experiment,Both,1,Automatic,main,30,20260218-105045,local,global,750,H,H,E,A,E-H.png,H-A.png,hH,hH,mask-3.png,mask-1.png,s,0,0.7906611002981663,s,0,0.0817374000325799,0.04767780005931854,0.04876380041241646,0.09988079965114594,0.10094370041042566,0.7516052993014455
RSVPLG03,JM,20260218-104721,1.0.2,20251105-084826,765,Experiment,Both,1,Automatic,main,31,20260218-105050,local,local,300,H,H,E,E,E-H.png,E-H.png,hH,hH,mask-4.png,mask-2.png,h,1,0.4460757002234459,h,1,0.2137858998030424,0.04790200013667345,0.047214699909090996,0.10009519942104816,0.10023250058293343,0.29998889937996864
RSVPLG03,JM,20260218-104721,1.0.2,20251105-084826,765,Experiment,Both,1,Automatic,main,32,20260218-105055,global,global,750,S,H,E,E,S-E.png,H-E.png,sS,hH,mask-4.png,mask-4.png,h,0,1.433321699500084,s,0,0.10428179986774921,0.049173999577760696,0.047784799709916115,0.1010707002133131,0.09980819933116436,0.7531340001150966
RSVPLG03,JM,20260218-104721,1.0.2,20251105-084826,765,Experiment,Both,1,Automatic,main,33,20260218-105101,global,local,750,S,H,E,E,S-E.png,E-H.png,sS,hH,mask-3.png,mask-1.png,s,1,0.5837461994960904,h,1,0.16045839991420507,0.04902059957385063,0.047525400295853615,0.10208269953727722,0.1004635002464056,0.7520228000357747
RSVPLG03,JM,20260218-104721,1.0.2,20251105-084826,765,Experiment,Both,1,Automatic,main,34,20260218-105106,local,local,300,S,H,E,E,E-S.png,E-H.png,sS,hH,mask-3.png,mask-3.png,s,1,1.4551694998517632,h,1,0.13515620026737452,0.046072400175035,0.048795600421726704,0.10034599993377924,0.10099510010331869,0.29914959985762835
RSVPLG03,JM,20260218-104721,1.0.2,20251105-084826,765,Experiment,Both,1,Automatic,main,35,20260218-105111,local,local,750,S,S,E,E,E-S.png,E-S.png,sS,sS,mask-2.png,mask-3.png,s,1,0.4647573996335268,s,1,0.11985559947788715,0.047510599717497826,0.04590960033237934,0.10053359996527433,0.09943579975515604,0.7534499000757933
RSVPLG03,JM,20260218-104721,1.0.2,20251105-084826,765,Experiment,Both,1,Automatic,main,36,20260218-105116,global,global,750,H,S,A,E,H-A.png,S-E.png,hH,sS,mask-3.png,mask-1.png,h,1,0.5838254000991583,s,1,0.25610330048948526,0.04771739989519119,0.04728140030056238,0.10122859943658113,0.10037100035697222,0.7526480993255973
RSVPLG03,JM,20260218-104721,1.0.2,20251105-084826,765,Experiment,Both,1,Automatic,main,37,20260218-105121,global,global,750,H,S,A,E,H-A.png,S-E.png,hH,sS,mask-3.png,mask-2.png,h,1,0.4770854003727436,s,1,0.17938700038939714,0.04750529956072569,0.04766699951142073,0.10053330007940531,0.0996765997260809,0.7522638998925686
RSVPLG03,JM,20260218-104721,1.0.2,20251105-084826,765,Experiment,Both,1,Automatic,main,38,20260218-105126,local,local,750,H,S,A,E,A-H.png,E-S.png,hH,sS,mask-4.png,mask-4.png,h,1,0.5941076995804906,s,1,0.21374040003865957,0.04767279978841543,0.0474759005010128,0.09881530050188303,0.1017220001667738,0.7504861000925303
RSVPLG03,JM,20260218-104721,1.0.2,20251105-084826,765,Experiment,Both,1,Automatic,main,39,20260218-105131,global,local,300,S,S,E,A,S-E.png,A-S.png,sS,sS,mask-4.png,mask-2.png,s,1,0.47347909957170486,h,0,0.268079100176692,0.047521499916911125,0.047266099601984024,0.10053739976137877,0.09914369974285364,0.3017763998359442
RSVPLG03,JM,20260218-104721,1.0.2,20251105-084826,765,Experiment,Both,1,Automatic,main,40,20260218-105136,local,local,300,S,H,A,A,A-S.png,A-H.png,sS,hH,mask-3.png,mask-4.png,s,1,0.5379400998353958,h,1,0.3899112995713949,0.04760859999805689,0.04754310008138418,0.10089580062776804,0.10072419978678226,0.3015138003975153
RSVPLG03,JM,20260218-104721,1.0.2,20251105-084826,765,Experiment,Both,1,Automatic,main,41,20260218-105140,global,local,300,H,H,A,E,H-A.png,E-H.png,hH,hH,mask-1.png,mask-4.png,h,1,0.5207885000854731,h,1,0.11913080047816038,0.048579500056803226,0.04766950011253357,0.0996609004214406,0.0988731998950243,0.30152380000799894
RSVPLG03,JM,20260218-104721,1.0.2,20251105-084826,765,Experiment,Both,1,Automatic,main,42,20260218-105145,global,global,300,S,H,A,E,S-A.png,H-E.png,sS,hH,mask-4.png,mask-2.png,s,1,1.0016016997396946,h,1,0.09609009977430105,0.048753200098872185,0.04879289958626032,0.10094450041651726,0.09936089999973774,0.301044300198555
RSVPLG03,JM,20260218-104721,1.0.2,20251105-084826,765,Experiment,Both,1,Automatic,main,43,20260218-105150,local,local,300,S,H,E,A,E-S.png,A-H.png,sS,hH,mask-2.png,mask-4.png,s,1,0.4508144995197654,h,1,0.21436749957501888,0.04674229957163334,0.04751939978450537,0.10091289971023798,0.10149709973484278,0.3002244997769594
RSVPLG03,JM,20260218-104721,1.0.2,20251105-084826,765,Experiment,Both,1,Automatic,main,44,20260218-105154,local,global,750,H,H,E,A,E-H.png,H-A.png,hH,hH,mask-2.png,mask-4.png,s,0,1.3794003995135427,h,1,0.10470679961144924,0.04825199954211712,0.04653219971805811,0.09932789951562881,0.10060849972069263,0.751970199868083
RSVPLG03,JM,20260218-104721,1.0.2,20251105-084826,765,Experiment,Both,1,Automatic,main,45,20260218-105200,global,global,750,S,H,A,A,S-A.png,H-A.png,sS,hH,mask-4.png,mask-1.png,s,1,0.6065897000953555,h,1,0.13039529975503683,0.04809129983186722,0.04848660062998533,0.09969069994986057,0.10046400036662817,0.751303999684751
RSVPLG03,JM,20260218-104721,1.0.2,20251105-084826,765,Experiment,Both,1,Automatic,main,46,20260218-105205,local,global,300,S,H,E,A,E-S.png,H-A.png,sS,hH,mask-3.png,mask-3.png,s,1,0.7504463996738195,h,1,0.10093949921429157,0.0477165998890996,0.04760660044848919,0.10092340037226677,0.10060330014675856,0.3019166998565197
RSVPLG03,JM,20260218-104721,1.0.2,20251105-084826,765,Experiment,Both,1,Automatic,main,47,20260218-105210,local,local,750,H,H,E,A,E-H.png,A-H.png,hH,hH,mask-3.png,mask-1.png,h,1,0.5057380003854632,s,0,0.12817820068448782,0.047562500461936,0.04866919945925474,0.0986922001466155,0.10084559954702854,0.7508300002664328
RSVPLG03,JM,20260218-104721,1.0.2,20251105-084826,765,Experiment,Both,1,Automatic,main,48,20260218-105215,local,global,300,S,S,E,E,E-S.png,S-E.png,sS,sS,mask-2.png,mask-2.png,h,0,1.0362610993906856,s,1,0.10323930066078901,0.04869999922811985,0.04649810027331114,0.0998309999704361,0.0988255999982357,0.30128589924424887
RSVPLG03,JM,20260218-104721,1.0.2,20251105-084826,765,Experiment,Both,1,Automatic,main,49,20260218-105220,local,local,750,H,H,E,E,E-H.png,E-H.png,hH,hH,mask-4.png,mask-2.png,s,0,0.6260668002068996,h,1,0.10880829952657223,0.04851999972015619,0.04757609963417053,0.10154940001666546,0.10057649947702885,0.7525108000263572
RSVPLG03,JM,20260218-104721,1.0.2,20251105-084826,765,Experiment,Both,1,Automatic,main,50,20260218-105225,local,global,300,S,S,E,E,E-S.png,S-E.png,sS,sS,mask-4.png,mask-2.png,s,1,0.5875361002981663,h,0,0.1404838003218174,0.04751629941165447,0.04578009992837906,0.10054169967770576,0.09845810011029243,0.3008040999993682
RSVPLG03,JM,20260218-104721,1.0.2,20251105-084826,765,Experiment,Both,1,Automatic,main,51,20260218-105251,local,global,750,H,S,E,E,E-H.png,S-E.png,hH,sS,mask-3.png,mask-4.png,s,0,0.46081569977104664,s,1,1.5326215997338295,0.04871140047907829,0.04766919929534197,0.10090009961277246,0.09807369951158762,0.7527865003794432
RSVPLG03,JM,20260218-104721,1.0.2,20251105-084826,765,Experiment,Both,1,Automatic,main,52,20260218-105257,global,local,750,S,H,A,E,S-A.png,E-H.png,sS,hH,mask-2.png,mask-3.png,s,1,0.8369055995717645,s,0,0.1387791996821761,0.0467330003157258,0.04734609927982092,0.09990799985826015,0.09853229951113462,0.7523674005642533
RSVPLG03,JM,20260218-104721,1.0.2,20251105-084826,765,Experiment,Both,1,Automatic,main,53,20260218-105302,local,global,300,S,H,E,E,E-S.png,H-E.png,sS,hH,mask-4.png,mask-3.png,s,1,1.2391972001641989,s,0,0.42708800081163645,0.04857749957591295,0.047931200824677944,0.10144289955496788,0.10048000048846006,0.3013614993542433
RSVPLG03,JM,20260218-104721,1.0.2,20251105-084826,765,Experiment,Both,1,Automatic,main,54,20260218-105307,global,global,300,S,H,A,E,S-A.png,H-E.png,sS,hH,mask-1.png,mask-4.png,s,1,0.7677311999723315,h,1,0.1846885997802019,0.04766029957681894,0.04710979945957661,0.1008441997691989,0.1003387002274394,0.30171519983559847
RSVPLG03,JM,20260218-104721,1.0.2,20251105-084826,765,Experiment,Both,1,Automatic,main,55,20260218-105312,global,global,300,H,H,A,E,H-A.png,H-E.png,hH,hH,mask-2.png,mask-2.png,h,1,0.5085626002401114,h,1,0.1286404998973012,0.047576299868524075,0.0475254999473691,0.09958169981837273,0.09834140073508024,0.3018625993281603
RSVPLG03,JM,20260218-104721,1.0.2,20251105-084826,765,Experiment,Both,1,Automatic,main,56,20260218-105317,local,global,750,H,H,E,A,E-H.png,H-A.png,hH,hH,mask-3.png,mask-3.png,h,1,0.8447162993252277,h,1,0.09737090021371841,0.04752750042825937,0.04600830003619194,0.09953710064291954,0.10036319959908724,0.7519165007397532
RSVPLG03,JM,20260218-104721,1.0.2,20251105-084826,765,Experiment,Both,1,Automatic,main,57,20260218-105322,local,global,750,S,S,A,E,A-S.png,S-E.png,sS,sS,mask-3.png,mask-2.png,s,1,0.7147873006761074,h,0,0.18591209966689348,0.047760999761521816,0.04768240079283714,0.10081189963966608,0.10086390003561974,0.7512984992936254
RSVPLG03,JM,20260218-104721,1.0.2,20251105-084826,765,Experiment,Both,1,Automatic,main,58,20260218-105327,local,global,750,S,H,E,A,E-S.png,H-A.png,sS,hH,mask-3.png,mask-4.png,s,1,2.126163199543953,h,1,0.06373629998415709,0.04583190008997917,0.04752589948475361,0.09829489979892969,0.09955250006169081,0.7508918000385165
RSVPLG03,JM,20260218-104721,1.0.2,20251105-084826,765,Experiment,Both,1,Automatic,main,59,20260218-105333,local,global,750,H,H,E,A,E-H.png,H-A.png,hH,hH,mask-3.png,mask-2.png,h,1,0.7257440993562341,s,0,0.11927920021116734,0.0477103004232049,0.0484224995598197,0.09859880059957504,0.09951349999755621,0.7505309004336596
RSVPLG03,JM,20260218-104721,1.0.2,20251105-084826,765,Experiment,Both,1,Automatic,main,60,20260218-105339,local,local,300,H,S,A,E,A-H.png,E-S.png,hH,sS,mask-1.png,mask-4.png,h,1,0.7789369998499751,s,1,0.0565418004989624,0.04753859993070364,0.04880829993635416,0.0982351005077362,0.10112629923969507,0.29936720058321953
RSVPLG03,JM,20260218-104721,1.0.2,20251105-084826,765,Experiment,Both,1,Automatic,main,61,20260218-105343,local,global,750,S,H,E,A,E-S.png,H-A.png,sS,hH,mask-4.png,mask-3.png,s,1,0.5069101992994547,h,1,0.13574740011245012,0.04710100032389164,0.04868460074067116,0.10010620020329952,0.10175000037997961,0.7502389997243881
RSVPLG03,JM,20260218-104721,1.0.2,20251105-084826,765,Experiment,Both,1,Automatic,main,62,20260218-105348,global,local,300,H,S,A,A,H-A.png,A-S.png,hH,sS,mask-4.png,mask-1.png,h,1,1.2598967999219894,h,0,0.10234529990702868,0.047679100185632706,0.04673970025032759,0.0998715003952384,0.09981909953057766,0.30047590006142855
RSVPLG03,JM,20260218-104721,1.0.2,20251105-084826,765,Experiment,Both,1,Automatic,main,63,20260218-105353,local,global,300,S,H,A,E,A-S.png,H-E.png,sS,hH,mask-4.png,mask-3.png,s,1,0.4742112001404166,h,1,0.14979169983416796,0.047466499730944633,0.04732749983668327,0.09945459943264723,0.10029430035501719,0.30018499959260225
RSVPLG03,JM,20260218-104721,1.0.2,20251105-084826,765,Experiment,Both,1,Automatic,main,64,20260218-105358,local,global,300,H,H,A,E,A-H.png,H-E.png,hH,hH,mask-4.png,mask-1.png,h,1,0.7660924000665545,s,0,0.1360032008960843,0.04877190012484789,0.04766310006380081,0.10098730027675629,0.10082920081913471,0.30064400006085634
RSVPLG03,JM,20260218-104721,1.0.2,20251105-084826,765,Experiment,Both,1,Automatic,main,65,20260218-105403,global,global,300,H,S,A,A,H-A.png,S-A.png,hH,sS,mask-4.png,mask-2.png,h,1,0.5044866995885968,s,1,0.09973770007491112,0.047739299945533276,0.047698999755084515,0.10006120055913925,0.10081430058926344,0.2996629001572728
RSVPLG03,JM,20260218-104721,1.0.2,20251105-084826,765,Experiment,Both,1,Automatic,main,66,20260218-105407,global,global,300,S,H,E,E,S-E.png,H-E.png,sS,hH,mask-2.png,mask-4.png,s,1,0.6802433002740145,h,1,0.153137500397861,0.04767649993300438,0.04744989983737469,0.09989149961620569,0.10039130039513111,0.30152969993650913
RSVPLG03,JM,20260218-104721,1.0.2,20251105-084826,765,Experiment,Both,1,Automatic,main,67,20260218-105412,global,local,750,H,H,E,A,H-E.png,A-H.png,hH,hH,mask-3.png,mask-3.png,h,1,0.7306134002283216,s,0,0.05722790025174618,0.04750510025769472,0.04701630026102066,0.10152109991759062,0.10006870049983263,0.751847299747169
RSVPLG03,JM,20260218-104721,1.0.2,20251105-084826,765,Experiment,Both,1,Automatic,main,68,20260218-105417,global,local,300,S,H,A,E,S-A.png,E-H.png,sS,hH,mask-3.png,mask-1.png,s,1,0.44035750068724155,h,1,0.12218710035085678,0.048399000428617,0.04572660010308027,0.10086080059409142,0.09936510026454926,0.30247890017926693
RSVPLG03,JM,20260218-104721,1.0.2,20251105-084826,765,Experiment,Both,1,Automatic,main,69,20260218-105421,local,local,750,H,S,A,A,A-H.png,A-S.png,hH,sS,mask-1.png,mask-2.png,h,1,0.2445457000285387,s,1,0.22193099930882454,0.049596899189054966,0.046675899997353554,0.10204819962382317,0.09985059965401888,0.7539780996739864
RSVPLG03,JM,20260218-104721,1.0.2,20251105-084826,765,Experiment,Both,1,Automatic,main,70,20260218-105426,global,local,750,H,H,E,A,H-E.png,A-H.png,hH,hH,mask-4.png,mask-4.png,h,1,0.4877569004893303,h,1,0.11752690002322197,0.04751040041446686,0.047698100097477436,0.10068330075591803,0.0997639000415802,0.7528439005836844
RSVPLG03,JM,20260218-104721,1.0.2,20251105-084826,765,Experiment,Both,1,Automatic,main,71,20260218-105431,global,local,750,H,S,A,E,H-A.png,E-S.png,hH,sS,mask-3.png,mask-2.png,h,1,0.6250192001461983,s,1,0.15926089975982904,0.04861210007220507,0.046699000522494316,0.10260090045630932,0.09909310005605221,0.7530004000291228
RSVPLG03,JM,20260218-104721,1.0.2,20251105-084826,765,Experiment,Both,1,Automatic,main,72,20260218-105436,local,local,300,S,H,E,A,E-S.png,A-H.png,sS,hH,mask-3.png,mask-3.png,s,1,0.5964035000652075,h,1,0.11783939972519875,0.04750759992748499,0.04681809991598129,0.10048490017652512,0.10123569983989,0.29975169990211725
RSVPLG03,JM,20260218-104721,1.0.2,20251105-084826,765,Experiment,Both,1,Automatic,main,73,20260218-105441,global,local,750,S,H,E,A,S-E.png,A-H.png,sS,hH,mask-3.png,mask-1.png,s,1,0.860491500236094,h,1,0.10208209976553917,0.04770909994840622,0.04770070035010576,0.10083339922130108,0.10061889979988337,0.7511880993843079
RSVPLG03,JM,20260218-104721,1.0.2,20251105-084826,765,Experiment,Both,1,Automatic,main,74,20260218-105446,local,local,300,S,H,E,E,E-S.png,E-H.png,sS,hH,mask-1.png,mask-3.png,h,0,0.8787364000454545,h,1,0.3604370001703501,0.04656510055065155,0.048131899908185005,0.0996909998357296,0.10153730027377605,0.29961169976741076
RSVPLG03,JM,20260218-104721,1.0.2,20251105-084826,765,Experiment,Both,1,Automatic,main,75,20260218-105451,global,global,750,S,S,E,A,S-E.png,S-A.png,sS,sS,mask-3.png,mask-3.png,h,0,0.549198399297893,s,1,0.15277350042015314,0.04850060027092695,0.048500899225473404,0.09971910063177347,0.09971879981458187,0.7522188005968928
RSVPLG03,JM,20260218-104721,1.0.2,20251105-084826,765,Experiment,Both,1,Automatic,main,76,20260218-105519,global,global,300,S,S,E,A,S-E.png,S-A.png,sS,sS,mask-2.png,mask-3.png,s,1,0.46134750079363585,s,1,0.11731099989265203,0.04668220039457083,0.0469182999804616,0.0999074000865221,0.09941569995135069,0.3014909001067281
RSVPLG03,JM,20260218-104721,1.0.2,20251105-084826,765,Experiment,Both,1,Automatic,main,77,20260218-105523,global,local,750,H,S,E,E,H-E.png,E-S.png,hH,sS,mask-3.png,mask-1.png,h,1,0.47284469939768314,s,1,0.16516959946602583,0.04727409966289997,0.04674690030515194,0.10025869961827993,0.09811370074748993,0.7523134993389249
RSVPLG03,JM,20260218-104721,1.0.2,20251105-084826,765,Experiment,Both,1,Automatic,main,78,20260218-105528,global,global,750,H,H,A,A,H-A.png,H-A.png,hH,hH,mask-2.png,mask-2.png,h,1,0.4546093000099063,h,1,0.1096347002312541,0.047681999392807484,0.04767000023275614,0.09987400006502867,0.0998267000541091,0.7523218998685479
RSVPLG03,JM,20260218-104721,1.0.2,20251105-084826,765,Experiment,Both,1,Automatic,main,79,20260218-105533,global,global,300,H,H,A,A,H-A.png,H-A.png,hH,hH,mask-1.png,mask-3.png,h,1,0.44470909982919693,h,1,0.12588439974933863,0.048690599389374256,0.04769210051745176,0.09940179996192455,0.09973079990595579,0.30110999941825867
RSVPLG03,JM,20260218-104721,1.0.2,20251105-084826,765,Experiment,Both,1,Automatic,main,80,20260218-105537,local,local,750,S,H,E,E,E-S.png,E-H.png,sS,hH,mask-2.png,mask-1.png,s,1,0.4129892997443676,h,1,0.1851152004674077,0.050580100156366825,0.047675399109721184,0.1006316002458334,0.10140589997172356,0.7523509003221989
RSVPLG03,JM,20260218-104721,1.0.2,20251105-084826,765,Experiment,Both,1,Automatic,main,81,20260218-105542,global,global,750,H,H,E,A,H-E.png,H-A.png,hH,hH,mask-2.png,mask-3.png,h,1,0.5832406999543309,h,1,0.10276100039482117,0.04782839957624674,0.047673000022768974,0.10007339995354414,0.10083219967782497,0.7513351999223232
RSVPLG03,JM,20260218-104721,1.0.2,20251105-084826,765,Experiment,Both,1,Automatic,main,82,20260218-105547,global,local,300,S,S,E,E,S-E.png,E-S.png,sS,sS,mask-1.png,mask-2.png,s,1,0.5223644999787211,s,1,0.1330975005403161,0.048587700352072716,0.047554099932312965,0.10058020055294037,0.098386500030756,0.3028920004144311
RSVPLG03,JM,20260218-104721,1.0.2,20251105-084826,765,Experiment,Both,1,Automatic,main,83,20260218-105551,global,global,300,H,S,E,A,H-E.png,S-A.png,hH,sS,mask-1.png,mask-1.png,h,1,0.45667059998959303,s,1,0.18405879940837622,0.04757589939981699,0.048127999529242516,0.09958119969815016,0.10221580043435097,0.29978489968925714
RSVPLG03,JM,20260218-104721,1.0.2,20251105-084826,765,Experiment,Both,1,Automatic,main,84,20260218-105556,global,global,750,H,S,E,A,H-E.png,S-A.png,hH,sS,mask-2.png,mask-3.png,h,1,0.4641778999939561,s,1,0.1618907991796732,0.0474790008738637,0.04749630019068718,0.10049010068178177,0.10048060026019812,0.7522402005270123
RSVPLG03,JM,20260218-104721,1.0.2,20251105-084826,765,Experiment,Both,1,Automatic,main,85,20260218-105601,global,global,300,H,S,E,A,H-E.png,S-A.png,hH,sS,mask-4.png,mask-1.png,h,1,0.6131451996043324,s,1,0.1640702998265624,0.046511500142514706,0.046708300709724426,0.1006359001621604,0.09888670034706593,0.3011748995631933
RSVPLG03,JM,20260218-104721,1.0.2,20251105-084826,765,Experiment,Both,1,Automatic,main,86,20260218-105606,local,local,750,H,H,E,E,E-H.png,E-H.png,hH,hH,mask-1.png,mask-4.png,s,0,1.2264539999887347,s,0,0.08378900028765202,0.04835150018334389,0.04685130063444376,0.10007849987596273,0.09934750013053417,0.7528992993757129
RSVPLG03,JM,20260218-104721,1.0.2,20251105-084826,765,Experiment,Both,1,Automatic,main,87,20260218-105611,local,global,300,H,S,A,E,A-H.png,S-E.png,hH,sS,mask-4.png,mask-4.png,h,1,1.6554650999605656,h,0,0.10400769952684641,0.04769269935786724,0.04782749991863966,0.0998696992173791,0.09945700038224459,0.3002737993374467
RSVPLG03,JM,20260218-104721,1.0.2,20251105-084826,765,Experiment,Both,1,Automatic,main,88,20260218-105617,global,global,750,H,H,E,E,H-E.png,H-E.png,hH,hH,mask-4.png,mask-2.png,h,1,0.48646930046379566,h,1,0.1379712000489235,0.04757119994610548,0.04867039993405342,0.09968420024961233,0.1004487993195653,0.7506329007446766
RSVPLG03,JM,20260218-104721,1.0.2,20251105-084826,765,Experiment,Both,1,Automatic,main,89,20260218-105622,local,global,750,H,H,E,A,E-H.png,H-A.png,hH,hH,mask-4.png,mask-4.png,s,0,1.1919880993664265,s,0,0.1463198997080326,0.04752629995346069,0.04665539972484112,0.10067019984126091,0.09883810020983219,0.7532363999634981
RSVPLG03,JM,20260218-104721,1.0.2,20251105-084826,765,Experiment,Both,1,Automatic,main,90,20260218-105627,local,global,300,S,H,E,E,E-S.png,H-E.png,sS,hH,mask-3.png,mask-1.png,s,1,0.615361699834466,s,0,0.09177359938621521,0.047090500593185425,0.04743169993162155,0.10011380072683096,0.0997381005436182,0.2997936001047492
RSVPLG03,JM,20260218-104721,1.0.2,20251105-084826,765,Experiment,Both,1,Automatic,main,91,20260218-105631,global,local,300,H,S,E,A,H-E.png,A-S.png,hH,sS,mask-3.png,mask-3.png,h,1,0.8412734000012279,h,0,0.16516599990427494,0.047680399380624294,0.047635599970817566,0.10002269968390465,0.10062170028686523,0.3015957996249199
RSVPLG03,JM,20260218-104721,1.0.2,20251105-084826,765,Experiment,Both,1,Automatic,main,92,20260218-105636,global,local,750,H,S,A,E,H-A.png,E-S.png,hH,sS,mask-2.png,mask-1.png,h,1,0.6831362005323172,s,1,0.11861420050263405,0.04752320051193237,0.0475169001147151,0.10151629988104105,0.10151039995253086,0.7516355002298951
RSVPLG03,JM,20260218-104721,1.0.2,20251105-084826,765,Experiment,Both,1,Automatic,main,93,20260218-105641,global,local,300,S,H,A,E,S-A.png,E-H.png,sS,hH,mask-1.png,mask-1.png,s,1,0.7825786992907524,h,1,0.2154008001089096,0.04759739991277456,0.047523499466478825,0.10069630015641451,0.0995610998943448,0.30096920020878315
RSVPLG03,JM,20260218-104721,1.0.2,20251105-084826,765,Experiment,Both,1,Automatic,main,94,20260218-105646,local,global,300,S,H,E,E,E-S.png,H-E.png,sS,hH,mask-1.png,mask-2.png,s,1,1.0259929997846484,h,1,0.10578480083495378,0.04850869998335838,0.046941000036895275,0.10051790066063404,0.10002020001411438,0.30033749993890524
RSVPLG03,JM,20260218-104721,1.0.2,20251105-084826,765,Experiment,Both,1,Automatic,main,95,20260218-105651,local,local,750,H,H,E,A,E-H.png,A-H.png,hH,hH,mask-4.png,mask-1.png,h,1,1.062983199954033,s,0,0.47549720015376806,0.04945129994302988,0.0467424001544714,0.10067489929497242,0.09987669996917248,0.7535466998815536
RSVPLG03,JM,20260218-104721,1.0.2,20251105-084826,765,Experiment,Both,1,Automatic,main,96,20260218-105657,local,global,750,S,H,A,A,A-S.png,H-A.png,sS,hH,mask-3.png,mask-4.png,s,1,0.7615118995308876,s,0,0.10116330068558455,0.0484825000166893,0.04780310019850731,0.10069740004837513,0.09996599983423948,0.7530845003202558
RSVPLG03,JM,20260218-104721,1.0.2,20251105-084826,765,Experiment,Both,1,Automatic,main,97,20260218-105702,local,local,750,H,S,A,E,A-H.png,E-S.png,hH,sS,mask-1.png,mask-4.png,h,1,0.6507270997390151,s,1,0.16814889945089817,0.048825000412762165,0.04770120047032833,0.10058919992297888,0.09987610019743443,0.752709100022912
RSVPLG03,JM,20260218-104721,1.0.2,20251105-084826,765,Experiment,Both,1,Automatic,main,98,20260218-105707,global,local,750,S,S,E,E,S-E.png,E-S.png,sS,sS,mask-4.png,mask-2.png,s,1,0.4586439998820424,s,1,0.14780669938772917,0.047713699750602245,0.04768319986760616,0.10085820034146309,0.09985700063407421,0.7520452998578548
RSVPLG03,JM,20260218-104721,1.0.2,20251105-084826,765,Experiment,Both,1,Automatic,main,99,20260218-105712,local,local,300,H,S,E,E,E-H.png,E-S.png,hH,sS,mask-1.png,mask-2.png,h,1,0.7865679003298283,s,1,0.1505843000486493,0.04775490052998066,0.04787859972566366,0.09998199995607138,0.10131649952381849,0.29959680046886206
RSVPLG03,JM,20260218-104721,1.0.2,20251105-084826,765,Experiment,Both,1,Automatic,main,100,20260218-105717,local,global,750,H,S,E,E,E-H.png,S-E.png,hH,sS,mask-4.png,mask-3.png,h,1,0.6673852000385523,s,1,0.2604939006268978,0.04746420029550791,0.04879679996520281,0.10049640014767647,0.10096699930727482,0.7518319003283978
