exp,exp_initials,runtime,ver,modtime,sub,blocktype,targets,cuetype,mode,trialtype,trial,trialtime,t1_level,t2_level,t2_lag,t1,t2,distractor1,distractor2,stimfile1,stimfile2,t1_corr,t2_corr,maskfile1,maskfile2,t1_resp,t1_acc,t1_rt,t2_resp,t2_acc,t2_rt,t1_dur,t2_dur,t1mask_soa,t2mask_soa,t1t2_soa
RSVPLG03,si,20260416-161348,1.0.2,20260219-152011,824,Introduction,T1,1,Automatic,main,1,20260416-161439,local,global,750,S,S,E,A,E-S.png,S-A.png,sS,sS,mask-1.png,mask-2.png,s,1,2.85857310006395,none,-5,0,0.09808969998266548,0.09990669996477664,0.19846119999419898,0.19987270003184676,0.7489758000010625
RSVPLG03,si,20260416-161348,1.0.2,20260219-152011,824,Introduction,T1,1,Automatic,main,2,20260416-161446,global,local,750,S,S,A,A,S-A.png,A-S.png,sS,sS,mask-4.png,mask-3.png,s,1,0.45017720002215356,none,-5,0,0.09956290002446622,0.09840589994564652,0.20126030000392348,0.1982282999670133,0.7528631000313908
RSVPLG03,si,20260416-161348,1.0.2,20260219-152011,824,Introduction,T1,1,Automatic,main,3,20260416-161451,local,local,750,H,H,A,E,A-H.png,E-H.png,hH,hH,mask-4.png,mask-4.png,h,1,0.9190836999332532,none,-5,0,0.0975215999642387,0.10008260002359748,0.1988222999498248,0.2002502999966964,0.7496893999632448
RSVPLG03,si,20260416-161348,1.0.2,20260219-152011,824,Introduction,T1,1,Automatic,main,4,20260416-161456,global,global,750,S,H,A,E,S-A.png,H-E.png,sS,hH,mask-4.png,mask-2.png,s,1,1.703779200091958,none,-5,0,0.09817589994054288,0.10094499995466322,0.19846739992499352,0.20022640004754066,0.748236499959603
RSVPLG03,si,20260416-161348,1.0.2,20260219-152011,824,Introduction,T1,1,Automatic,main,5,20260416-161501,local,global,750,S,S,E,A,E-S.png,S-A.png,sS,sS,mask-3.png,mask-1.png,s,1,0.8717419999884441,none,-5,0,0.09947170002851635,0.10011699993629009,0.19952100003138185,0.19980900001246482,0.7510906000388786
RSVPLG03,si,20260416-161348,1.0.2,20260219-152011,824,Introduction,T1,1,Automatic,main,6,20260416-161507,global,local,750,S,H,A,E,S-A.png,E-H.png,sS,hH,mask-4.png,mask-4.png,s,1,0.7734941999660805,none,-5,0,0.09821959992405027,0.10073060006834567,0.19863919995259494,0.19955510005820543,0.7507060999050736
RSVPLG03,si,20260416-161348,1.0.2,20260219-152011,824,Introduction,T1,1,Automatic,main,7,20260416-161511,global,global,750,S,H,A,E,S-A.png,H-E.png,sS,hH,mask-3.png,mask-3.png,h,0,2.9092898999806494,none,-5,0,0.09841269999742508,0.09990299993660301,0.19831240002531558,0.19844970002304763,0.7517570999916643
RSVPLG03,si,20260416-161348,1.0.2,20260219-152011,824,Introduction,T1,1,Automatic,main,8,20260416-161518,global,local,750,H,H,E,A,H-E.png,A-H.png,hH,hH,mask-3.png,mask-4.png,h,1,0.7489880999783054,none,-5,0,0.10043540003243834,0.10002300003543496,0.20025660004466772,0.19999949994962662,0.7513346000341699
RSVPLG03,si,20260416-161348,1.0.2,20260219-152011,824,Introduction,T1,1,Automatic,main,9,20260416-161523,global,local,750,S,H,E,E,S-E.png,E-H.png,sS,hH,mask-4.png,mask-1.png,s,1,0.23303000000305474,none,-5,0,0.0997139000101015,0.09857859998010099,0.2001085999654606,0.2005354999564588,0.750660500023514
RSVPLG03,si,20260416-161348,1.0.2,20260219-152011,824,Introduction,T1,1,Automatic,main,10,20260416-161528,global,global,750,H,H,E,E,H-E.png,H-E.png,hH,hH,mask-4.png,mask-2.png,h,1,0.7398750999709591,none,-5,0,0.09932230005506426,0.10004649998154491,0.20094410004094243,0.19940389995463192,0.7517170000355691
RSVPLG03,si,20260416-161348,1.0.2,20260219-152011,824,Introduction,T1,1,Automatic,main,11,20260416-161532,local,local,750,S,S,E,A,E-S.png,A-S.png,sS,sS,mask-3.png,mask-1.png,s,1,0.4694864999037236,none,-5,0,0.10073880001436919,0.10032600001432002,0.2002028999850154,0.20061629998963326,0.7514006000710651
RSVPLG03,si,20260416-161348,1.0.2,20260219-152011,824,Introduction,T1,1,Automatic,main,12,20260416-161537,global,global,750,S,S,E,A,S-E.png,S-A.png,sS,sS,mask-1.png,mask-2.png,s,1,0.30464129999745637,none,-5,0,0.09968880005180836,0.10022860008757561,0.1994999999878928,0.1999748001107946,0.7496913999784738
RSVPLG03,si,20260416-161348,1.0.2,20260219-152011,824,Introduction,T1,1,Automatic,main,13,20260416-161541,local,local,750,S,S,A,A,A-S.png,A-S.png,sS,sS,mask-2.png,mask-4.png,s,1,0.5558695000363514,none,-5,0,0.10054419992957264,0.09864400001242757,0.1999849999556318,0.2002463999669999,0.7520122999558225
RSVPLG03,si,20260416-161348,1.0.2,20260219-152011,824,Introduction,T1,1,Automatic,main,14,20260416-161546,local,local,750,H,H,E,A,E-H.png,A-H.png,hH,hH,mask-1.png,mask-3.png,h,1,0.29226090002339333,none,-5,0,0.09952950000297278,0.09936879994347692,0.20027309993747622,0.19962430000305176,0.7514096000231802
RSVPLG03,si,20260416-161348,1.0.2,20260219-152011,824,Introduction,T1,1,Automatic,main,15,20260416-161551,local,global,750,S,H,E,A,E-S.png,H-A.png,sS,hH,mask-4.png,mask-4.png,s,1,0.3042368000606075,none,-5,0,0.10028130002319813,0.10134299995843321,0.19994439999572933,0.2002555999206379,0.7508746000239626
RSVPLG03,si,20260416-161348,1.0.2,20260219-152011,824,Introduction,T1,1,Automatic,main,16,20260416-161555,local,global,750,H,H,E,A,E-H.png,H-A.png,hH,hH,mask-2.png,mask-3.png,h,1,0.5041872999863699,none,-5,0,0.10099079995416105,0.10040820005815476,0.1991963000036776,0.20113200007472187,0.7507122999522835
RSVPLG03,si,20260416-161618,1.0.2,20260219-152011,824,Practice,T1,1,Automatic,main,1,20260416-161643,global,local,300,S,H,A,E,S-A.png,E-H.png,sS,hH,mask-4.png,mask-1.png,s,1,0.6424548999639228,none,-5,0,0.04619980009738356,0.05160450004041195,0.09436860005371273,0.10001119994558394,0.293962600058876
RSVPLG03,si,20260416-161618,1.0.2,20260219-152011,824,Practice,T1,1,Automatic,main,2,20260416-161647,global,local,750,S,H,E,E,S-E.png,E-H.png,sS,hH,mask-2.png,mask-1.png,h,0,3.8700384000549093,none,-5,0,0.05001139990054071,0.05109660001471639,0.09980599989648908,0.10123120003845543,0.7470827999059111
RSVPLG03,si,20260416-161618,1.0.2,20260219-152011,824,Practice,T1,1,Automatic,main,3,20260416-161655,local,global,750,S,S,E,A,E-S.png,S-A.png,sS,sS,mask-2.png,mask-1.png,s,1,0.4293216000078246,none,-5,0,0.050849199993535876,0.048767099971883,0.10022969997953624,0.09820160001982003,0.7491641000378877
RSVPLG03,si,20260416-161618,1.0.2,20260219-152011,824,Practice,T1,1,Automatic,main,4,20260416-161659,local,local,750,S,S,E,A,E-S.png,A-S.png,sS,sS,mask-1.png,mask-4.png,s,1,0.3287032999796793,none,-5,0,0.049646199913695455,0.04985449998639524,0.0974725999403745,0.10055430000647902,0.7463579999748617
RSVPLG03,si,20260416-161618,1.0.2,20260219-152011,824,Practice,T1,1,Automatic,main,5,20260416-161703,local,local,750,S,H,E,A,E-S.png,A-H.png,sS,hH,mask-4.png,mask-1.png,s,1,0.2936485999962315,none,-5,0,0.048034499981440604,0.04913999990094453,0.09835949994158,0.09934499999508262,0.7470531000290066
RSVPLG03,si,20260416-161618,1.0.2,20260219-152011,824,Practice,T1,1,Automatic,main,6,20260416-161708,global,local,750,H,S,A,A,H-A.png,A-S.png,hH,sS,mask-3.png,mask-3.png,s,0,0.850952300010249,none,-5,0,0.05062230001203716,0.0499967000214383,0.10034470004029572,0.09841320000123233,0.7483962000114843
RSVPLG03,si,20260416-161618,1.0.2,20260219-152011,824,Practice,T1,1,Automatic,main,7,20260416-161712,local,global,300,H,S,E,A,E-H.png,S-A.png,hH,sS,mask-1.png,mask-4.png,s,0,2.334895299980417,none,-5,0,0.049139800015836954,0.049237600062042475,0.09810229996219277,0.1002731000771746,0.2973894999595359
RSVPLG03,si,20260416-161618,1.0.2,20260219-152011,824,Practice,T1,1,Automatic,main,8,20260416-161718,local,local,300,H,H,A,E,A-H.png,E-H.png,hH,hH,mask-4.png,mask-4.png,h,1,0.9129084000596777,none,-5,0,0.048818000010214746,0.049988399958238006,0.09906520007643849,0.10046830005012453,0.2990200000349432
RSVPLG03,si,20260416-161618,1.0.2,20260219-152011,824,Practice,T1,1,Automatic,main,9,20260416-161723,global,global,300,H,S,A,A,H-A.png,S-A.png,hH,sS,mask-2.png,mask-1.png,h,1,1.1628012999426574,none,-5,0,0.04979800002183765,0.04895480000413954,0.09967719996348023,0.09854909998830408,0.2994071999564767
RSVPLG03,si,20260416-161618,1.0.2,20260219-152011,824,Practice,T1,1,Automatic,main,10,20260416-161727,global,global,300,H,H,E,A,H-E.png,H-A.png,hH,hH,mask-4.png,mask-3.png,s,0,0.6779375000623986,none,-5,0,0.04887359996791929,0.04899319994729012,0.0996006999630481,0.09883219993207604,0.29828420002013445
RSVPLG03,si,20260416-161618,1.0.2,20260219-152011,824,Practice,T1,1,Automatic,main,11,20260416-161731,local,global,300,S,S,A,E,A-S.png,S-E.png,sS,sS,mask-1.png,mask-2.png,s,1,1.9276043999707326,none,-5,0,0.04991689999587834,0.05101119994651526,0.0972489999840036,0.10048270004335791,0.297031500027515
RSVPLG03,si,20260416-161618,1.0.2,20260219-152011,824,Practice,T1,1,Automatic,main,12,20260416-161737,local,local,300,S,H,A,A,A-S.png,A-H.png,sS,hH,mask-4.png,mask-3.png,s,1,0.16561750008258969,none,-5,0,0.04881109995767474,0.049735700013116,0.09861619991715997,0.09989660000428557,0.2981672999449074
RSVPLG03,si,20260416-161618,1.0.2,20260219-152011,824,Practice,T1,1,Automatic,main,13,20260416-161741,local,global,750,H,H,A,E,A-H.png,H-E.png,hH,hH,mask-2.png,mask-4.png,h,1,0.5086068999953568,none,-5,0,0.04798579995986074,0.050539800082333386,0.10123679996468127,0.09910330001730472,0.7465990999480709
RSVPLG03,si,20260416-161618,1.0.2,20260219-152011,824,Practice,T1,1,Automatic,main,14,20260416-161745,global,global,750,H,H,A,A,H-A.png,H-A.png,hH,hH,mask-3.png,mask-2.png,h,1,1.8824727000901476,none,-5,0,0.05147489998489618,0.04984539991710335,0.10153400001581758,0.09992189996410161,0.7495133000193164
RSVPLG03,si,20260416-161618,1.0.2,20260219-152011,824,Practice,T1,1,Automatic,main,15,20260416-161751,global,local,300,H,S,E,E,H-E.png,E-S.png,hH,sS,mask-1.png,mask-3.png,h,1,0.17194439994636923,none,-5,0,0.05079639994073659,0.050188599969260395,0.10001169994939119,0.09967039991170168,0.30036310001742095
RSVPLG03,si,20260416-161618,1.0.2,20260219-152011,824,Practice,T1,1,Automatic,main,16,20260416-161754,global,global,750,S,S,A,E,S-A.png,S-E.png,sS,sS,mask-4.png,mask-4.png,s,1,0.026932999957352877,none,-5,0,0.05036839994136244,0.04964710003696382,0.09971149999182671,0.09862059995066375,0.746631299960427
RSVPLG03,si,20260416-161825,1.0.2,20260219-152011,824,Introduction,Both,1,Automatic,main,1,20260416-161902,local,global,750,S,H,A,A,A-S.png,H-A.png,sS,hH,mask-3.png,mask-2.png,s,1,0.4026132000144571,h,1,1.798658899962902,0.09010420006234199,0.09919380000792444,0.19046080007683486,0.20100959995761514,0.7428797000320628
RSVPLG03,si,20260416-161825,1.0.2,20260219-152011,824,Introduction,Both,1,Automatic,main,2,20260416-161909,global,local,750,S,H,E,E,S-E.png,E-H.png,sS,hH,mask-4.png,mask-3.png,s,1,1.7874129998963326,h,1,0.7824042999418452,0.09985160001087934,0.10033579997252673,0.2000175000866875,0.20203049993142486,0.7522872000699863
RSVPLG03,si,20260416-161825,1.0.2,20260219-152011,824,Introduction,Both,1,Automatic,main,3,20260416-161915,local,local,750,S,S,E,A,E-S.png,A-S.png,sS,sS,mask-2.png,mask-3.png,s,1,0.9033730999799445,h,0,0.4235200999537483,0.09981120005249977,0.1011335999937728,0.20090040005743504,0.201474400004372,0.7506022000452504
RSVPLG03,si,20260416-161825,1.0.2,20260219-152011,824,Introduction,Both,1,Automatic,main,4,20260416-161921,global,global,750,S,S,A,E,S-A.png,S-E.png,sS,sS,mask-1.png,mask-1.png,s,1,1.0167741000186652,s,1,0.6417550999904051,0.10092699993401766,0.10170799994375557,0.20255489996634424,0.20229209994431585,0.7517221999587491
RSVPLG03,si,20260416-161825,1.0.2,20260219-152011,824,Introduction,Both,1,Automatic,main,5,20260416-161927,global,local,750,S,S,E,A,S-E.png,A-S.png,sS,sS,mask-2.png,mask-3.png,h,0,0.9595269999699667,s,1,0.18985910003539175,0.10107010009232908,0.09881919994950294,0.20061420009005815,0.19859909999649972,0.7534520000917837
RSVPLG03,si,20260416-161825,1.0.2,20260219-152011,824,Introduction,Both,1,Automatic,main,6,20260416-161932,local,global,750,S,S,E,E,E-S.png,S-E.png,sS,sS,mask-4.png,mask-4.png,s,1,0.8333804000867531,h,0,0.15216039994265884,0.09889360005035996,0.10190549993421882,0.2002768999664113,0.20135969994589686,0.7493202000623569
RSVPLG03,si,20260416-161825,1.0.2,20260219-152011,824,Introduction,Both,1,Automatic,main,7,20260416-161937,global,local,750,S,H,E,A,S-E.png,A-H.png,sS,hH,mask-1.png,mask-3.png,s,1,0.3539048000238836,h,1,0.07193039997946471,0.10102750000078231,0.09943449997808784,0.20068149990402162,0.19942279998213053,0.7532697999849916
RSVPLG03,si,20260416-161825,1.0.2,20260219-152011,824,Introduction,Both,1,Automatic,main,8,20260416-161942,global,global,750,S,H,E,E,S-E.png,H-E.png,sS,hH,mask-3.png,mask-3.png,s,1,0.7801071999128908,s,0,1.4404339999891818,0.10068899998441339,0.09969089995138347,0.19902639999054372,0.1995556999463588,0.7511364000383765
RSVPLG03,si,20260416-161825,1.0.2,20260219-152011,824,Introduction,Both,1,Automatic,main,9,20260416-161949,local,local,750,H,H,E,E,E-H.png,E-H.png,hH,hH,mask-4.png,mask-4.png,s,0,0.5124095999635756,h,1,0.33533220004756004,0.10087889991700649,0.09977129998151213,0.20130389998666942,0.19948599999770522,0.7522545999381691
RSVPLG03,si,20260416-161825,1.0.2,20260219-152011,824,Introduction,Both,1,Automatic,main,10,20260416-161954,local,local,750,H,H,A,E,A-H.png,E-H.png,hH,hH,mask-3.png,mask-1.png,h,1,0.5590747999958694,h,1,0.7748017000267282,0.09937710000667721,0.10103610006626695,0.20001829997636378,0.20063540001865476,0.7518924999749288
RSVPLG03,si,20260416-161825,1.0.2,20260219-152011,824,Introduction,Both,1,Automatic,main,11,20260416-161959,global,global,750,S,H,E,E,S-E.png,H-E.png,sS,hH,mask-1.png,mask-2.png,s,1,2.212678199983202,h,1,0.6000566999427974,0.09958879998885095,0.10052809992339462,0.19999620004091412,0.20194509997963905,0.7509862000588328
RSVPLG03,si,20260416-161825,1.0.2,20260219-152011,824,Introduction,Both,1,Automatic,main,12,20260416-162006,local,global,750,H,S,E,A,E-H.png,S-A.png,hH,sS,mask-2.png,mask-3.png,h,1,0.44980619999114424,s,1,0.08848120004404336,0.0999822000740096,0.09924090001732111,0.19877190003171563,0.20061709999572486,0.7515212000580505
RSVPLG03,si,20260416-161825,1.0.2,20260219-152011,824,Introduction,Both,1,Automatic,main,13,20260416-162011,local,global,750,H,H,A,E,A-H.png,H-E.png,hH,hH,mask-1.png,mask-1.png,s,0,2.250800099922344,h,1,0.02351480000652373,0.09989700000733137,0.10062080004718155,0.20075509999878705,0.20008239999879152,0.7521289999131113
RSVPLG03,si,20260416-161825,1.0.2,20260219-152011,824,Introduction,Both,1,Automatic,main,14,20260416-162017,global,global,750,S,H,E,A,S-E.png,H-A.png,sS,hH,mask-1.png,mask-4.png,h,0,1.3334480000194162,s,0,0.36398699996061623,0.09933690004982054,0.09960279997903854,0.19915350002702326,0.2001049000537023,0.7502424999838695
RSVPLG03,si,20260416-161825,1.0.2,20260219-152011,824,Introduction,Both,1,Automatic,main,15,20260416-162023,global,local,750,S,S,A,A,S-A.png,A-S.png,sS,sS,mask-1.png,mask-4.png,s,1,0.5056508999550715,h,0,0.06308820005506277,0.10056579997763038,0.1003633999498561,0.20021159993484616,0.20018759998492897,0.7527817999944091
RSVPLG03,si,20260416-161825,1.0.2,20260219-152011,824,Introduction,Both,1,Automatic,main,16,20260416-162028,local,local,750,H,H,E,E,E-H.png,E-H.png,hH,hH,mask-1.png,mask-4.png,s,0,1.341494300053455,h,1,0.024888899992220104,0.10083600005600601,0.1001800000667572,0.20173780003096908,0.20054610003717244,0.7513641000259668
RSVPLG03,si,20260416-162053,1.0.2,20260219-152011,824,Introduction,Both,1,Automatic,main,1,20260416-162113,global,local,750,H,H,A,E,H-A.png,E-H.png,hH,hH,mask-1.png,mask-1.png,h,1,0.5090710999211296,h,1,0.07050090003758669,0.0931737000355497,0.10092899994924664,0.19377380004152656,0.19961819995660335,0.7467331000370905
RSVPLG03,si,20260416-162053,1.0.2,20260219-152011,824,Introduction,Both,1,Automatic,main,2,20260416-162117,global,local,750,H,H,E,A,H-E.png,A-H.png,hH,hH,mask-3.png,mask-4.png,h,1,0.34160939999856055,h,1,0.06283589999657124,0.10022549994755536,0.10051409993320704,0.20224310003686696,0.2010072999401018,0.7536292000440881
RSVPLG03,si,20260416-162053,1.0.2,20260219-152011,824,Introduction,Both,1,Automatic,main,3,20260416-162122,local,local,750,S,S,E,A,E-S.png,A-S.png,sS,sS,mask-3.png,mask-2.png,s,1,1.0027368000010028,s,1,0.06566350010689348,0.10019559995271266,0.10235990001820028,0.20149669994134456,0.20141580002382398,0.7515595000004396
RSVPLG03,si,20260416-162053,1.0.2,20260219-152011,824,Introduction,Both,1,Automatic,main,4,20260416-162127,local,local,750,H,S,E,A,E-H.png,A-S.png,hH,sS,mask-3.png,mask-2.png,h,1,1.601162699982524,h,0,0.07118730002548546,0.09960140008479357,0.10036569996736944,0.2000052999937907,0.20181800005957484,0.7518079000292346
RSVPLG03,si,20260416-162053,1.0.2,20260219-152011,824,Introduction,Both,1,Automatic,main,5,20260416-162133,local,global,750,S,S,A,E,A-S.png,S-E.png,sS,sS,mask-4.png,mask-1.png,s,1,0.43003299995325506,s,1,0.06303860002662987,0.10030940000433475,0.10104939993470907,0.20071629993617535,0.20095770002808422,0.7528568999841809
RSVPLG03,si,20260416-162053,1.0.2,20260219-152011,824,Introduction,Both,1,Automatic,main,6,20260416-162138,global,global,750,H,H,E,A,H-E.png,H-A.png,hH,hH,mask-3.png,mask-4.png,h,1,1.0272944000316784,h,1,0.34591739997267723,0.10039159993175417,0.09959949995391071,0.20054339990019798,0.20128629996906966,0.7533914999803528
RSVPLG03,si,20260416-162053,1.0.2,20260219-152011,824,Introduction,Both,1,Automatic,main,7,20260416-162143,local,local,750,H,S,E,A,E-H.png,A-S.png,hH,sS,mask-3.png,mask-3.png,h,1,2.5278740000212565,s,1,0.20681920007336885,0.10024970001541078,0.09939890005625784,0.2004058000165969,0.19861410011071712,0.7536191999679431
RSVPLG03,si,20260416-162053,1.0.2,20260219-152011,824,Introduction,Both,1,Automatic,main,8,20260416-162150,local,global,750,H,H,A,A,A-H.png,H-A.png,hH,hH,mask-1.png,mask-1.png,h,1,1.115219899918884,s,0,1.1603110999567434,0.10220710001885891,0.09937660000286996,0.20215440005995333,0.2010560999624431,0.7547894000308588
RSVPLG03,si,20260416-162053,1.0.2,20260219-152011,824,Introduction,Both,1,Automatic,main,9,20260416-162157,global,global,750,S,H,A,A,S-A.png,H-A.png,sS,hH,mask-4.png,mask-4.png,s,1,1.1473443999420851,h,1,1.2433498000027612,0.09948580001946539,0.09877399995457381,0.20068440004251897,0.2000455999514088,0.7536284000379965
RSVPLG03,si,20260416-162053,1.0.2,20260219-152011,824,Introduction,Both,1,Automatic,main,10,20260416-162202,local,global,750,H,S,A,E,A-H.png,S-E.png,hH,sS,mask-3.png,mask-4.png,h,1,0.38477440003771335,s,1,0.44877739995718,0.1005142000503838,0.10156950005330145,0.20236180000938475,0.20033840008545667,0.7534021999454126
RSVPLG03,si,20260416-162053,1.0.2,20260219-152011,824,Introduction,Both,1,Automatic,main,11,20260416-162207,global,global,750,S,S,A,A,S-A.png,S-A.png,sS,sS,mask-3.png,mask-3.png,s,1,0.6432417000178248,s,1,0.08832360000815243,0.10124069999437779,0.0993638999061659,0.20248800003901124,0.1996361999772489,0.7549632000736892
RSVPLG03,si,20260416-162053,1.0.2,20260219-152011,824,Introduction,Both,1,Automatic,main,12,20260416-162212,local,global,750,S,H,E,A,E-S.png,H-A.png,sS,hH,mask-4.png,mask-3.png,s,1,0.3255649000639096,h,1,0.42202409997116774,0.10023099998943508,0.10093910002615303,0.20062809996306896,0.2012648000381887,0.7514102999120951
RSVPLG03,si,20260416-162053,1.0.2,20260219-152011,824,Introduction,Both,1,Automatic,main,13,20260416-162216,local,local,750,S,S,A,E,A-S.png,E-S.png,sS,sS,mask-3.png,mask-2.png,s,1,1.2642841999186203,s,1,0.0945138999959454,0.10164990008343011,0.09946789999958128,0.20091350004076958,0.20027880009729415,0.7541395999724045
RSVPLG03,si,20260416-162053,1.0.2,20260219-152011,824,Introduction,Both,1,Automatic,main,14,20260416-162222,global,global,750,H,H,E,E,H-E.png,H-E.png,hH,hH,mask-2.png,mask-2.png,h,1,1.2950009999331087,h,1,0.079724199953489,0.09931720001623034,0.10167830006685108,0.1996377999894321,0.2003763000248,0.7524375999346375
RSVPLG03,si,20260416-162053,1.0.2,20260219-152011,824,Introduction,Both,1,Automatic,main,15,20260416-162227,global,local,750,S,S,A,E,S-A.png,E-S.png,sS,sS,mask-1.png,mask-1.png,s,1,0.3072690999833867,s,1,0.08173789991997182,0.10213769995607436,0.10089969995897263,0.20236240001395345,0.20080770005006343,0.7541078999638557
RSVPLG03,si,20260416-162053,1.0.2,20260219-152011,824,Introduction,Both,1,Automatic,main,16,20260416-162232,global,local,750,H,S,A,E,H-A.png,E-S.png,hH,sS,mask-2.png,mask-4.png,h,1,0.32530869997572154,s,1,0.9977967999875546,0.1010107999900356,0.0990018000593409,0.20079290005378425,0.2011019999627024,0.7537626000121236
RSVPLG03,si,20260416-162301,1.0.2,20260219-152011,824,Practice,Both,1,Automatic,main,1,20260416-162319,local,global,750,S,S,E,E,E-S.png,S-E.png,sS,sS,mask-4.png,mask-2.png,s,1,0.58522130001802,s,1,0.04111440002452582,0.04020139994099736,0.05040409998036921,0.09078039997257292,0.10010809998493642,0.7406927000265568
RSVPLG03,si,20260416-162301,1.0.2,20260219-152011,824,Practice,Both,1,Automatic,main,2,20260416-162323,local,global,300,S,S,E,E,E-S.png,S-E.png,sS,sS,mask-2.png,mask-4.png,s,1,1.1224328000098467,s,1,0.06358169997110963,0.0504012000747025,0.04866759991273284,0.10078970005270094,0.10052099998574704,0.3006768000777811
RSVPLG03,si,20260416-162301,1.0.2,20260219-152011,824,Practice,Both,1,Automatic,main,3,20260416-162328,local,local,300,H,H,A,E,A-H.png,E-H.png,hH,hH,mask-4.png,mask-1.png,h,1,0.774836799944751,h,1,0.08579839998856187,0.05053170002065599,0.05134199990425259,0.10083359992131591,0.10034209990408272,0.30033140000887215
RSVPLG03,si,20260416-162301,1.0.2,20260219-152011,824,Practice,Both,1,Automatic,main,4,20260416-162332,local,local,750,S,S,A,A,A-S.png,A-S.png,sS,sS,mask-1.png,mask-3.png,h,0,1.1123046999564394,s,1,0.5607927000382915,0.04973940004128963,0.050204899976961315,0.09989330009557307,0.10049569990951568,0.7489121000980958
RSVPLG03,si,20260416-162301,1.0.2,20260219-152011,824,Practice,Both,1,Automatic,main,5,20260416-162338,local,local,300,H,H,E,A,E-H.png,A-H.png,hH,hH,mask-3.png,mask-3.png,h,1,0.8223115999717265,s,0,0.015126900048926473,0.04888229991775006,0.049419800052419305,0.10051819996442646,0.0999545999802649,0.2997751999646425
RSVPLG03,si,20260416-162301,1.0.2,20260219-152011,824,Practice,Both,1,Automatic,main,6,20260416-162343,local,local,750,S,H,E,A,E-S.png,A-H.png,sS,hH,mask-2.png,mask-3.png,s,1,1.3370459999423474,h,1,0.11265290004666895,0.04942819999996573,0.05036100000143051,0.09916320000775158,0.09918300004210323,0.7493936999235302
RSVPLG03,si,20260416-162301,1.0.2,20260219-152011,824,Practice,Both,1,Automatic,main,7,20260416-162348,local,global,750,S,H,A,E,A-S.png,H-E.png,sS,hH,mask-3.png,mask-2.png,h,0,1.1701106000691652,h,1,0.1043739999877289,0.050906000076793134,0.04899849998764694,0.10138480004388839,0.09812720003537834,0.7507978000212461
RSVPLG03,si,20260416-162301,1.0.2,20260219-152011,824,Practice,Both,1,Automatic,main,8,20260416-162353,global,global,750,S,S,A,E,S-A.png,S-E.png,sS,sS,mask-2.png,mask-4.png,s,1,0.9024403999792412,s,1,0.0965485000051558,0.04866919992491603,0.049497999949380755,0.09891599998809397,0.1003282000310719,0.7491534999571741
RSVPLG03,si,20260416-162301,1.0.2,20260219-152011,824,Practice,Both,1,Automatic,main,9,20260416-162358,global,global,300,H,H,E,A,H-E.png,H-A.png,hH,hH,mask-4.png,mask-1.png,h,1,0.7432400999823585,h,1,0.08654839999508113,0.048690599971450865,0.04942159994971007,0.09852480003610253,0.0993288999889046,0.2992298000026494
RSVPLG03,si,20260416-162301,1.0.2,20260219-152011,824,Practice,Both,1,Automatic,main,10,20260416-162403,local,global,300,H,H,A,E,A-H.png,H-E.png,hH,hH,mask-2.png,mask-3.png,h,1,0.8358018000144511,s,0,0.03135359997395426,0.05136340006720275,0.050806500017642975,0.10183539998251945,0.10131569998338819,0.3002847000025213
RSVPLG03,si,20260416-162301,1.0.2,20260219-152011,824,Practice,Both,1,Automatic,main,11,20260416-162407,global,local,300,S,H,E,E,S-E.png,E-H.png,sS,hH,mask-3.png,mask-1.png,s,1,0.43475449993275106,h,1,0.6920391999883577,0.04965449997689575,0.05014209996443242,0.0998116999398917,0.100215999991633,0.2994436000008136
RSVPLG03,si,20260416-162301,1.0.2,20260219-152011,824,Practice,Both,1,Automatic,main,12,20260416-162412,global,local,750,H,H,A,A,H-A.png,A-H.png,hH,hH,mask-3.png,mask-2.png,h,1,0.7571587999118492,h,1,0.1028350000269711,0.04905999999027699,0.049603500054217875,0.09950689994730055,0.0994213999947533,0.7493811999447644
RSVPLG03,si,20260416-162301,1.0.2,20260219-152011,824,Practice,Both,1,Automatic,main,13,20260416-162417,global,local,750,S,S,E,E,S-E.png,E-S.png,sS,sS,mask-2.png,mask-2.png,s,1,0.7924865999957547,s,1,0.0955138000426814,0.0498098999960348,0.04998459992930293,0.10019309993367642,0.09872929996345192,0.7515123999910429
RSVPLG03,si,20260416-162301,1.0.2,20260219-152011,824,Practice,Both,1,Automatic,main,14,20260416-162422,global,local,300,S,S,A,A,S-A.png,A-S.png,sS,sS,mask-1.png,mask-3.png,s,1,0.5686062999302521,s,1,0.08688710001297295,0.049618099932558835,0.04876000003423542,0.100052599911578,0.09981369995512068,0.30041639995761216
RSVPLG03,si,20260416-162301,1.0.2,20260219-152011,824,Practice,Both,1,Automatic,main,15,20260416-162426,global,global,300,H,S,E,A,H-E.png,S-A.png,hH,sS,mask-4.png,mask-4.png,h,1,0.7318933999631554,h,0,0.2470421000616625,0.04999059997498989,0.04922209994401783,0.10029269999358803,0.09973150002770126,0.3004503999836743
RSVPLG03,si,20260416-162301,1.0.2,20260219-152011,824,Practice,Both,1,Automatic,main,16,20260416-162431,global,global,750,H,H,E,A,H-E.png,H-A.png,hH,hH,mask-4.png,mask-3.png,h,1,0.8462526000803337,s,0,0.062325699953362346,0.05002080008853227,0.048650800017639995,0.09975529997609556,0.09970300004351884,0.7504925000248477
RSVPLG03,si,20260416-162603,1.0.2,20260219-152011,824,Experiment,Both,1,Automatic,warmup,1,20260416-162624,global,local,750,S,S,A,A,S-A.png,A-S.png,sS,sS,mask-4.png,mask-3.png,s,1,1.107448799884878,s,1,0.10971270001027733,0.048822500044479966,0.04999219998717308,0.0980118999723345,0.100122099975124,0.7504600000102073
RSVPLG03,si,20260416-162603,1.0.2,20260219-152011,824,Experiment,Both,1,Automatic,warmup,2,20260416-162629,global,global,750,H,S,A,A,H-A.png,S-A.png,hH,sS,mask-3.png,mask-1.png,h,1,1.0932956000324339,s,1,0.2970048999413848,0.04766440007369965,0.05057940003462136,0.0979649000801146,0.10208010009955615,0.7498441999778152
RSVPLG03,si,20260416-162603,1.0.2,20260219-152011,824,Experiment,Both,1,Automatic,warmup,3,20260416-162634,local,global,750,S,H,A,A,A-S.png,H-A.png,sS,hH,mask-1.png,mask-3.png,h,0,0.8166119999950752,s,0,0.24880179995670915,0.05137630004901439,0.05080560001078993,0.10146050003822893,0.10046099999453872,0.7534361999714747
RSVPLG03,si,20260416-162603,1.0.2,20260219-152011,824,Experiment,Both,1,Automatic,warmup,4,20260416-162639,local,global,300,S,S,A,E,A-S.png,S-E.png,sS,sS,mask-4.png,mask-1.png,s,1,1.2341677999356762,s,1,0.07283399999141693,0.049972199951298535,0.050514400005340576,0.10104380000848323,0.1015866999514401,0.3001460999948904
RSVPLG03,si,20260416-162603,1.0.2,20260219-152011,824,Experiment,Both,1,Automatic,main,5,20260416-162644,global,global,300,H,H,E,E,H-E.png,H-E.png,hH,hH,mask-1.png,mask-4.png,h,1,1.0345554000232369,h,1,0.07249829999636859,0.04982780001591891,0.04950349999126047,0.1004831000464037,0.09928710001986474,0.30205170006956905
RSVPLG03,si,20260416-162603,1.0.2,20260219-152011,824,Experiment,Both,1,Automatic,main,6,20260416-162649,local,global,300,S,S,E,E,E-S.png,S-E.png,sS,sS,mask-3.png,mask-4.png,h,0,1.2994352999376133,s,1,0.029589600046165287,0.05040730000473559,0.04920499993022531,0.10062549996655434,0.09938639996107668,0.3015548000112176
RSVPLG03,si,20260416-162603,1.0.2,20260219-152011,824,Experiment,Both,1,Automatic,main,7,20260416-162654,local,local,750,H,S,A,A,A-H.png,A-S.png,hH,sS,mask-2.png,mask-3.png,h,1,0.9588807000545785,s,1,0.06307450006715953,0.04969449993222952,0.05006649997085333,0.10029889992438257,0.09964209992904216,0.7517326000379398
RSVPLG03,si,20260416-162603,1.0.2,20260219-152011,824,Experiment,Both,1,Automatic,main,8,20260416-162659,global,local,750,H,S,A,E,H-A.png,E-S.png,hH,sS,mask-2.png,mask-1.png,h,1,1.2194588999263942,h,0,0.24667370005045086,0.05163659993559122,0.04889259999617934,0.1010923000285402,0.0995661000488326,0.7537087999517098
RSVPLG03,si,20260416-162603,1.0.2,20260219-152011,824,Experiment,Both,1,Automatic,main,9,20260416-162705,local,local,300,S,S,A,A,A-S.png,A-S.png,sS,sS,mask-1.png,mask-2.png,s,1,1.218492200016044,s,1,0.3920955000212416,0.05027209990657866,0.05050490004941821,0.10101889993529767,0.10078770003747195,0.30137379991356283
RSVPLG03,si,20260416-162603,1.0.2,20260219-152011,824,Experiment,Both,1,Automatic,main,10,20260416-162710,global,global,300,H,H,A,E,H-A.png,H-E.png,hH,hH,mask-4.png,mask-3.png,h,1,2.174346800078638,s,0,0.10316639998927712,0.050237599993124604,0.05086029996164143,0.10002420004457235,0.10079739999491721,0.29983620007988065
RSVPLG03,si,20260416-162603,1.0.2,20260219-152011,824,Experiment,Both,1,Automatic,main,11,20260416-162716,global,local,300,S,H,E,A,S-E.png,A-H.png,sS,hH,mask-4.png,mask-2.png,s,1,0.25230769999325275,h,1,0.22412689996417612,0.049742499948479235,0.04961570003069937,0.09982519992627203,0.10106230003293604,0.3012346999021247
RSVPLG03,si,20260416-162603,1.0.2,20260219-152011,824,Experiment,Both,1,Automatic,main,12,20260416-162720,global,local,750,H,H,A,A,H-A.png,A-H.png,hH,hH,mask-3.png,mask-2.png,h,1,0.7023263999726623,s,0,0.4000486000441015,0.05099080002401024,0.05073460005223751,0.10219040000811219,0.10059669998008758,0.753929500002414
RSVPLG03,si,20260416-162603,1.0.2,20260219-152011,824,Experiment,Both,1,Automatic,main,13,20260416-162725,global,global,300,H,S,A,A,H-A.png,S-A.png,hH,sS,mask-4.png,mask-4.png,h,1,0.6524087999714538,s,1,1.200194300035946,0.04871330002788454,0.04990089999046177,0.09917250007856637,0.10058580001350492,0.3001042000250891
RSVPLG03,si,20260416-162603,1.0.2,20260219-152011,824,Experiment,Both,1,Automatic,main,14,20260416-162730,global,local,300,S,S,E,A,S-E.png,A-S.png,sS,sS,mask-1.png,mask-2.png,h,0,0.8219026000006124,s,1,0.09475240006577224,0.04890179994981736,0.04921630001626909,0.10096429998520762,0.09961929998826236,0.2998183999443427
RSVPLG03,si,20260416-162603,1.0.2,20260219-152011,824,Experiment,Both,1,Automatic,main,15,20260416-162735,local,global,750,H,H,A,A,A-H.png,H-A.png,hH,hH,mask-1.png,mask-1.png,h,1,0.8877463999669999,h,1,0.1044236000161618,0.050695299985818565,0.049530699965544045,0.10029679990839213,0.09996060002595186,0.7523532999912277
RSVPLG03,si,20260416-162603,1.0.2,20260219-152011,824,Experiment,Both,1,Automatic,main,16,20260416-162740,local,global,750,S,H,A,E,A-S.png,H-E.png,sS,hH,mask-1.png,mask-1.png,h,0,1.4854398000752553,h,1,0.5862533000763506,0.04937889997381717,0.04996719991322607,0.09881470003165305,0.10117339994758368,0.7513239000691101
RSVPLG03,si,20260416-162603,1.0.2,20260219-152011,824,Experiment,Both,1,Automatic,main,17,20260416-162746,local,global,750,H,S,E,A,E-H.png,S-A.png,hH,sS,mask-4.png,mask-1.png,h,1,0.6374575999798253,s,1,0.039763000095263124,0.049500999972224236,0.05129810003563762,0.09909280005376786,0.1009364000055939,0.7510671999771148
RSVPLG03,si,20260416-162603,1.0.2,20260219-152011,824,Experiment,Both,1,Automatic,main,18,20260416-162751,global,local,300,H,H,A,A,H-A.png,A-H.png,hH,hH,mask-2.png,mask-1.png,h,1,1.2626060000620782,h,1,1.0550631999503821,0.0496775999199599,0.049855099990963936,0.09957550000399351,0.09999949997290969,0.3009431000100449
RSVPLG03,si,20260416-162603,1.0.2,20260219-152011,824,Experiment,Both,1,Automatic,main,19,20260416-162757,local,global,750,S,S,A,A,A-S.png,S-A.png,sS,sS,mask-3.png,mask-4.png,s,1,1.571031800005585,s,1,0.4164018000010401,0.050384500063955784,0.05067819997202605,0.10104480001609772,0.10041169996839017,0.7516682000132278
RSVPLG03,si,20260416-162603,1.0.2,20260219-152011,824,Experiment,Both,1,Automatic,main,20,20260416-162803,global,local,750,H,H,E,E,H-E.png,E-H.png,hH,hH,mask-3.png,mask-2.png,h,1,1.5867951000109315,h,1,0.425378100015223,0.05073779996018857,0.04978210001718253,0.10088799998629838,0.10150620003696531,0.7524137999862432
RSVPLG03,si,20260416-162603,1.0.2,20260219-152011,824,Experiment,Both,1,Automatic,main,21,20260416-162809,global,global,300,S,S,E,A,S-E.png,S-A.png,sS,sS,mask-4.png,mask-2.png,s,1,1.1913988000014797,s,1,0.14359829993918538,0.04905619996134192,0.05214819998946041,0.09900499996729195,0.10074459994211793,0.298890299978666
RSVPLG03,si,20260416-162603,1.0.2,20260219-152011,824,Experiment,Both,1,Automatic,main,22,20260416-162814,global,global,300,H,S,E,A,H-E.png,S-A.png,hH,sS,mask-1.png,mask-2.png,h,1,0.6482647999655455,s,1,0.48616430000402033,0.050231299945153296,0.04876390006393194,0.10011749994009733,0.10089160001371056,0.3004109999164939
RSVPLG03,si,20260416-162603,1.0.2,20260219-152011,824,Experiment,Both,1,Automatic,main,23,20260416-162819,local,local,750,H,S,A,E,A-H.png,E-S.png,hH,sS,mask-2.png,mask-2.png,h,1,1.0140398000366986,s,1,0.07051769993267953,0.04952870006673038,0.04968709999229759,0.09976510005071759,0.10021329997107387,0.7519910000264645
RSVPLG03,si,20260416-162603,1.0.2,20260219-152011,824,Experiment,Both,1,Automatic,main,24,20260416-162824,local,local,750,H,H,A,E,A-H.png,E-H.png,hH,hH,mask-2.png,mask-4.png,h,1,0.6954280999489129,h,1,0.10154679999686778,0.04952220001723617,0.05092299997340888,0.09853840002324432,0.09972969989757985,0.751764600048773
RSVPLG03,si,20260416-162603,1.0.2,20260219-152011,824,Experiment,Both,1,Automatic,main,25,20260416-162829,global,local,300,H,H,E,E,H-E.png,E-H.png,hH,hH,mask-3.png,mask-3.png,h,1,0.6691712000174448,s,0,0.03782580001279712,0.051023000036366284,0.04949020000640303,0.10131060006096959,0.10017890005838126,0.3017233000136912
RSVPLG03,si,20260416-162603,1.0.2,20260219-152011,824,Experiment,Both,1,Automatic,main,26,20260416-162849,local,global,300,S,H,A,E,A-S.png,H-E.png,sS,hH,mask-2.png,mask-1.png,s,1,0.8049300999846309,s,0,0.5904980999184772,0.05036470002960414,0.04834189999382943,0.10079259995836765,0.09856980002950877,0.3023832000326365
RSVPLG03,si,20260416-162603,1.0.2,20260219-152011,824,Experiment,Both,1,Automatic,main,27,20260416-162854,global,global,750,S,S,E,A,S-E.png,S-A.png,sS,sS,mask-4.png,mask-1.png,s,1,1.0607234999770299,h,0,0.04156659997534007,0.051319099962711334,0.049167599994689226,0.10075720003806055,0.09920990001410246,0.7535955000203103
RSVPLG03,si,20260416-162603,1.0.2,20260219-152011,824,Experiment,Both,1,Automatic,main,28,20260416-162859,local,global,300,H,S,A,A,A-H.png,S-A.png,hH,sS,mask-3.png,mask-3.png,s,0,1.383009699988179,h,0,1.7510126999113709,0.04982449999079108,0.05073210003320128,0.10055490001104772,0.099849299993366,0.30142949998844415
RSVPLG03,si,20260416-162603,1.0.2,20260219-152011,824,Experiment,Both,1,Automatic,main,29,20260416-162906,local,global,750,H,S,E,E,E-H.png,S-E.png,hH,sS,mask-1.png,mask-1.png,h,1,0.5185186999151483,s,1,0.07230150001123548,0.04937160003464669,0.04895059997215867,0.10088229994289577,0.09787880000658333,0.7544503000099212
RSVPLG03,si,20260416-162603,1.0.2,20260219-152011,824,Experiment,Both,1,Automatic,main,30,20260416-162911,global,global,750,H,S,A,E,H-A.png,S-E.png,hH,sS,mask-2.png,mask-3.png,h,1,0.6749075999250636,h,0,0.7188740000128746,0.04927820002194494,0.051053800038062036,0.09947329992428422,0.10122840001713485,0.7518315999768674
RSVPLG03,si,20260416-162603,1.0.2,20260219-152011,824,Experiment,Both,1,Automatic,main,31,20260416-162916,local,local,750,S,H,A,A,A-S.png,A-H.png,sS,hH,mask-2.png,mask-1.png,s,1,0.5613437000429258,h,1,0.05769200006034225,0.04897400003392249,0.0502571000251919,0.09943559998646379,0.10089700005482882,0.7517437000060454
RSVPLG03,si,20260416-162603,1.0.2,20260219-152011,824,Experiment,Both,1,Automatic,main,32,20260416-162921,local,global,750,H,S,E,E,E-H.png,S-E.png,hH,sS,mask-4.png,mask-4.png,h,1,0.5655891000060365,s,1,0.04670330008957535,0.048773800022900105,0.05083029996603727,0.09940179996192455,0.10015219997148961,0.7516927999677137
RSVPLG03,si,20260416-162603,1.0.2,20260219-152011,824,Experiment,Both,1,Automatic,main,33,20260416-162926,local,global,300,S,H,A,E,A-S.png,H-E.png,sS,hH,mask-4.png,mask-3.png,s,1,0.8422591999405995,h,1,0.05487699992954731,0.05115840001963079,0.05080169998109341,0.10115869995206594,0.1000480999937281,0.300990300020203
RSVPLG03,si,20260416-162603,1.0.2,20260219-152011,824,Experiment,Both,1,Automatic,main,34,20260416-162930,global,global,300,S,S,A,A,S-A.png,S-A.png,sS,sS,mask-4.png,mask-4.png,s,1,0.7870849999599159,s,1,0.10467479994986206,0.05040830001235008,0.05101279995869845,0.10095690004527569,0.1001607000362128,0.3005649000406265
RSVPLG03,si,20260416-162603,1.0.2,20260219-152011,824,Experiment,Both,1,Automatic,main,35,20260416-162934,global,local,300,S,S,E,A,S-E.png,A-S.png,sS,sS,mask-3.png,mask-4.png,s,1,0.6872077999869362,s,1,0.15025490010157228,0.050225700018927455,0.05183709994889796,0.10180469998158514,0.1016915999352932,0.3017194999847561
RSVPLG03,si,20260416-162603,1.0.2,20260219-152011,824,Experiment,Both,1,Automatic,main,36,20260416-162939,local,global,300,H,S,A,A,A-H.png,S-A.png,hH,sS,mask-2.png,mask-2.png,h,1,0.9397572999587283,s,1,0.06122989999130368,0.05016680003609508,0.04820419999305159,0.10068879998289049,0.09875320002902299,0.30226130003575236
RSVPLG03,si,20260416-162603,1.0.2,20260219-152011,824,Experiment,Both,1,Automatic,main,37,20260416-162944,local,global,300,H,S,A,A,A-H.png,S-A.png,hH,sS,mask-3.png,mask-2.png,h,1,1.0156254000030458,h,0,0.0968599000480026,0.05008849990554154,0.05066209996584803,0.10009789990726858,0.10128999990411103,0.29976510000415146
RSVPLG03,si,20260416-162603,1.0.2,20260219-152011,824,Experiment,Both,1,Automatic,main,38,20260416-162948,local,global,300,H,S,A,A,A-H.png,S-A.png,hH,sS,mask-4.png,mask-4.png,h,1,0.8815159000223503,s,1,0.3371030999114737,0.05103680002503097,0.051055399933829904,0.10020240000449121,0.10111739998683333,0.30104550009127706
RSVPLG03,si,20260416-162603,1.0.2,20260219-152011,824,Experiment,Both,1,Automatic,main,39,20260416-162953,local,global,750,S,H,A,E,A-S.png,H-E.png,sS,hH,mask-4.png,mask-1.png,s,1,0.7113101999275386,h,1,0.04743189993314445,0.04966030002105981,0.04915520001668483,0.09998800000175834,0.09962820005603135,0.7522367000347003
RSVPLG03,si,20260416-162603,1.0.2,20260219-152011,824,Experiment,Both,1,Automatic,main,40,20260416-162958,global,global,750,S,H,A,E,S-A.png,H-E.png,sS,hH,mask-3.png,mask-4.png,s,1,1.613808499998413,s,0,0.7364971999777481,0.04913699999451637,0.05017900001257658,0.10168479999992996,0.10159540001768619,0.7510964999673888
RSVPLG03,si,20260416-162603,1.0.2,20260219-152011,824,Experiment,Both,1,Automatic,main,41,20260416-163004,global,global,750,H,H,A,A,H-A.png,H-A.png,hH,hH,mask-2.png,mask-1.png,h,1,0.5958657000446692,s,0,1.05338950001169,0.051086600054986775,0.05013710004277527,0.10151529998984188,0.10157739999704063,0.7515003000153229
RSVPLG03,si,20260416-162603,1.0.2,20260219-152011,824,Experiment,Both,1,Automatic,main,42,20260416-163010,global,local,750,S,H,E,E,S-E.png,E-H.png,sS,hH,mask-3.png,mask-3.png,s,1,0.7013173999730498,h,1,0.09645169996656477,0.050852400017902255,0.04815379995852709,0.10085360007360578,0.09877000004053116,0.7531072000274435
RSVPLG03,si,20260416-162603,1.0.2,20260219-152011,824,Experiment,Both,1,Automatic,main,43,20260416-163015,global,global,750,S,S,E,E,S-E.png,S-E.png,sS,sS,mask-3.png,mask-1.png,s,1,1.7806665999814868,s,1,0.7504623000277206,0.049086299957707524,0.04907390009611845,0.09937229997012764,0.09977720002643764,0.7512962999753654
RSVPLG03,si,20260416-162603,1.0.2,20260219-152011,824,Experiment,Both,1,Automatic,main,44,20260416-163022,global,global,300,H,H,A,E,H-A.png,H-E.png,hH,hH,mask-1.png,mask-2.png,h,1,1.0057399000506848,s,0,1.1364869000390172,0.04908150003757328,0.05065920006018132,0.10069300001487136,0.10027229995466769,0.299750900012441
RSVPLG03,si,20260416-162603,1.0.2,20260219-152011,824,Experiment,Both,1,Automatic,main,45,20260416-163027,local,global,750,S,S,A,A,A-S.png,S-A.png,sS,sS,mask-4.png,mask-1.png,s,1,1.3103304000105709,h,0,0.7193282000953332,0.05074670002795756,0.04968389996793121,0.10067569999955595,0.10206579999066889,0.7509026000043377
RSVPLG03,si,20260416-162603,1.0.2,20260219-152011,824,Experiment,Both,1,Automatic,main,46,20260416-163034,global,global,300,H,H,E,E,H-E.png,H-E.png,hH,hH,mask-4.png,mask-2.png,h,1,0.6395061999792233,h,1,0.08938850008416921,0.05040579999331385,0.04874650004785508,0.10120110004208982,0.0992776999482885,0.30191080004442483
RSVPLG03,si,20260416-162603,1.0.2,20260219-152011,824,Experiment,Both,1,Automatic,main,47,20260416-163038,local,local,300,S,S,A,A,A-S.png,A-S.png,sS,sS,mask-1.png,mask-2.png,s,1,1.2402094000717625,s,1,0.22990020003635436,0.049518899992108345,0.04891939996741712,0.10005180002190173,0.09883989999070764,0.30092880001757294
RSVPLG03,si,20260416-162603,1.0.2,20260219-152011,824,Experiment,Both,1,Automatic,main,48,20260416-163043,local,local,300,H,S,A,E,A-H.png,E-S.png,hH,sS,mask-4.png,mask-4.png,h,1,0.9344315000344068,s,1,0.23117599997203797,0.04979339998681098,0.051149999955669045,0.0995972000528127,0.10073770000599325,0.2993887000484392
RSVPLG03,si,20260416-162603,1.0.2,20260219-152011,824,Experiment,Both,1,Automatic,main,49,20260416-163048,global,global,750,S,S,A,A,S-A.png,S-A.png,sS,sS,mask-4.png,mask-3.png,s,1,1.1363505999324843,s,1,0.22306949994526803,0.04908829997293651,0.0508339999942109,0.09980800002813339,0.10145459999330342,0.7519731000065804
RSVPLG03,si,20260416-162603,1.0.2,20260219-152011,824,Experiment,Both,1,Automatic,main,50,20260416-163053,global,local,300,S,S,A,A,S-A.png,A-S.png,sS,sS,mask-4.png,mask-2.png,s,1,1.473759299959056,h,0,0.1525005999719724,0.05037200008518994,0.05039399990346283,0.10003279999364167,0.10113719990476966,0.3012724000727758
RSVPLG03,si,20260416-162603,1.0.2,20260219-152011,824,Experiment,Both,1,Automatic,main,51,20260416-163100,global,local,750,S,S,E,E,S-E.png,E-S.png,sS,sS,mask-2.png,mask-2.png,s,1,0.8116409999784082,s,1,0.127683800063096,0.0504994000075385,0.04856649995781481,0.10174129996448755,0.09886379993986338,0.75452449999284
RSVPLG03,si,20260416-162603,1.0.2,20260219-152011,824,Experiment,Both,1,Automatic,main,52,20260416-163105,global,global,750,S,S,A,E,S-A.png,S-E.png,sS,sS,mask-1.png,mask-3.png,s,1,0.4402155999559909,s,1,0.10375880007632077,0.05135129997506738,0.04916199995204806,0.0990359999705106,0.100737200002186,0.7524824000429362
RSVPLG03,si,20260416-162603,1.0.2,20260219-152011,824,Experiment,Both,1,Automatic,main,53,20260416-163109,global,local,750,H,H,A,E,H-A.png,E-H.png,hH,hH,mask-1.png,mask-3.png,h,1,0.6912053000414744,h,1,1.337184099946171,0.04892359999939799,0.05056620005052537,0.09987890010233968,0.09957910003140569,0.7520524000283331
RSVPLG03,si,20260416-162603,1.0.2,20260219-152011,824,Experiment,Both,1,Automatic,main,54,20260416-163115,global,local,750,S,S,E,A,S-E.png,A-S.png,sS,sS,mask-2.png,mask-3.png,s,1,0.47613550000824034,s,1,0.09471610002219677,0.04887529998086393,0.0517835000064224,0.09988859994336963,0.10173220001161098,0.7499278000323102
RSVPLG03,si,20260416-162603,1.0.2,20260219-152011,824,Experiment,Both,1,Automatic,main,55,20260416-163120,global,global,300,S,S,E,A,S-E.png,S-A.png,sS,sS,mask-1.png,mask-2.png,s,1,1.7635574999731034,h,0,0.2633818000322208,0.05072689999360591,0.04983290005475283,0.10202610003761947,0.09904380002990365,0.30256340000778437
RSVPLG03,si,20260416-162603,1.0.2,20260219-152011,824,Experiment,Both,1,Automatic,main,56,20260416-163126,local,local,300,H,S,E,A,E-H.png,A-S.png,hH,sS,mask-4.png,mask-2.png,h,1,1.602887799963355,s,1,0.3752551000798121,0.04873269994277507,0.04935930005740374,0.09922750003170222,0.10109750006813556,0.300489499932155
RSVPLG03,si,20260416-162603,1.0.2,20260219-152011,824,Experiment,Both,1,Automatic,main,57,20260416-163131,global,local,300,H,S,E,A,H-E.png,A-S.png,hH,sS,mask-3.png,mask-3.png,h,1,0.9223927999846637,s,1,0.6556564000202343,0.049906699918210506,0.05027070001233369,0.1001101000001654,0.09981710009742528,0.30068409990053624
RSVPLG03,si,20260416-162603,1.0.2,20260219-152011,824,Experiment,Both,1,Automatic,main,58,20260416-163137,local,global,750,H,S,E,E,E-H.png,S-E.png,hH,sS,mask-4.png,mask-3.png,h,1,0.907136800000444,s,1,0.006539599969983101,0.04892269999254495,0.05112620000727475,0.09889579995069653,0.1013086000457406,0.7507164999842644
RSVPLG03,si,20260416-162603,1.0.2,20260219-152011,824,Experiment,Both,1,Automatic,main,59,20260416-163142,global,local,300,S,H,A,E,S-A.png,E-H.png,sS,hH,mask-1.png,mask-3.png,s,1,1.6127281999215484,h,1,0.025294399936683476,0.050907200085930526,0.050916000036522746,0.10149040003307164,0.10071030003018677,0.3002110000234097
RSVPLG03,si,20260416-162603,1.0.2,20260219-152011,824,Experiment,Both,1,Automatic,main,60,20260416-163147,global,local,300,H,H,E,A,H-E.png,A-H.png,hH,hH,mask-4.png,mask-2.png,h,1,0.6361714999657124,s,0,0.5580532000167295,0.050461400067433715,0.04878790001384914,0.10083380003925413,0.09785110002849251,0.3026700000045821
RSVPLG03,si,20260416-162603,1.0.2,20260219-152011,824,Experiment,Both,1,Automatic,main,61,20260416-163152,local,global,750,S,H,E,E,E-S.png,H-E.png,sS,hH,mask-3.png,mask-2.png,s,1,0.5300888000056148,h,1,0.03157589992042631,0.05023409996647388,0.04918039997573942,0.10109999997075647,0.0992534999968484,0.7525866000214592
RSVPLG03,si,20260416-162603,1.0.2,20260219-152011,824,Experiment,Both,1,Automatic,main,62,20260416-163156,local,global,750,H,S,A,A,A-H.png,S-A.png,hH,sS,mask-4.png,mask-1.png,h,1,0.585187099990435,s,1,0.06279999995604157,0.05282490001991391,0.05030779994558543,0.10187530005350709,0.10176280001178384,0.7523417000193149
RSVPLG03,si,20260416-162603,1.0.2,20260219-152011,824,Experiment,Both,1,Automatic,main,63,20260416-163201,local,local,300,H,S,A,A,A-H.png,A-S.png,hH,sS,mask-4.png,mask-2.png,h,1,0.9040898999664932,s,1,0.4558401999529451,0.049828800023533404,0.05003069993108511,0.10130430001299828,0.10004199994727969,0.3014629000099376
RSVPLG03,si,20260416-162603,1.0.2,20260219-152011,824,Experiment,Both,1,Automatic,main,64,20260416-163206,global,local,750,S,H,E,E,S-E.png,E-H.png,sS,hH,mask-2.png,mask-1.png,s,1,0.9543322999961674,h,1,0.414917099988088,0.05049040005542338,0.049502699985168874,0.10095940006431192,0.10036879999097437,0.752830500015989
RSVPLG03,si,20260416-162603,1.0.2,20260219-152011,824,Experiment,Both,1,Automatic,main,65,20260416-163211,local,local,750,S,H,A,E,A-S.png,E-H.png,sS,hH,mask-3.png,mask-3.png,s,1,1.9429956999374554,h,1,0.2388787999516353,0.04841309995390475,0.049560199957340956,0.10012459999416023,0.09979030000977218,0.7516278999391943
RSVPLG03,si,20260416-162603,1.0.2,20260219-152011,824,Experiment,Both,1,Automatic,main,66,20260416-163218,local,local,300,H,H,A,E,A-H.png,E-H.png,hH,hH,mask-3.png,mask-2.png,h,1,0.7292472999542952,h,1,0.07827059994451702,0.049425599980168045,0.04820249998010695,0.10001059994101524,0.09844640002120286,0.3015928999520838
RSVPLG03,si,20260416-162603,1.0.2,20260219-152011,824,Experiment,Both,1,Automatic,main,67,20260416-163222,local,global,300,S,S,E,E,E-S.png,S-E.png,sS,sS,mask-3.png,mask-3.png,s,1,0.6840833999449387,h,0,0.7272167999763042,0.0508026999887079,0.050144199980422854,0.1013325999956578,0.10012419999111444,0.3007618000265211
RSVPLG03,si,20260416-162603,1.0.2,20260219-152011,824,Experiment,Both,1,Automatic,main,68,20260416-163227,global,local,750,H,H,E,E,H-E.png,E-H.png,hH,hH,mask-1.png,mask-4.png,h,1,0.7486979000968859,s,0,0.0955416999058798,0.050271600019186735,0.05030450003687292,0.09975040005519986,0.09951660002116114,0.7522449999814853
RSVPLG03,si,20260416-162603,1.0.2,20260219-152011,824,Experiment,Both,1,Automatic,main,69,20260416-163232,local,local,300,S,S,E,E,E-S.png,E-S.png,sS,sS,mask-2.png,mask-2.png,s,1,0.8891608000267297,s,1,0.07274640002287924,0.050502700032666326,0.05035259993746877,0.10013699997216463,0.0994030999718234,0.3008708000415936
RSVPLG03,si,20260416-162603,1.0.2,20260219-152011,824,Experiment,Both,1,Automatic,main,70,20260416-163237,local,local,750,H,H,E,E,E-H.png,E-H.png,hH,hH,mask-4.png,mask-3.png,h,1,1.86022040003445,h,1,0.10952310007996857,0.050954499980434775,0.05106969992630184,0.09995129995513707,0.10138679994270205,0.7523361999774352
RSVPLG03,si,20260416-162603,1.0.2,20260219-152011,824,Experiment,Both,1,Automatic,main,71,20260416-163243,global,global,300,H,H,E,A,H-E.png,H-A.png,hH,hH,mask-4.png,mask-2.png,h,1,1.5316358999116346,h,1,0.09415770007763058,0.04809269995894283,0.04827360005583614,0.09915689995978028,0.09744190005585551,0.30175639991648495
RSVPLG03,si,20260416-162603,1.0.2,20260219-152011,824,Experiment,Both,1,Automatic,main,72,20260416-163248,local,global,750,S,S,A,E,A-S.png,S-E.png,sS,sS,mask-1.png,mask-2.png,s,1,0.646565799950622,h,0,0.07812489999923855,0.051625799969770014,0.050209300010465086,0.10060010000597686,0.10149469994939864,0.7521941000595689
RSVPLG03,si,20260416-162603,1.0.2,20260219-152011,824,Experiment,Both,1,Automatic,main,73,20260416-163253,local,local,300,H,H,E,A,E-H.png,A-H.png,hH,hH,mask-3.png,mask-4.png,h,1,0.5708716000663117,h,1,0.0713916999520734,0.04974599997512996,0.0514247000683099,0.09929499996360391,0.10095100000035018,0.3001517999218777
RSVPLG03,si,20260416-162603,1.0.2,20260219-152011,824,Experiment,Both,1,Automatic,main,74,20260416-163257,global,local,300,S,H,A,A,S-A.png,A-H.png,sS,hH,mask-2.png,mask-1.png,s,1,1.252810800098814,h,1,0.10899420001078397,0.049855399993248284,0.05121449998114258,0.09763940004631877,0.10057889996096492,0.2986809000140056
RSVPLG03,si,20260416-162603,1.0.2,20260219-152011,824,Experiment,Both,1,Automatic,main,75,20260416-163302,global,global,750,S,S,E,A,S-E.png,S-A.png,sS,sS,mask-2.png,mask-1.png,s,1,0.7797377998940647,h,0,0.07062320003751665,0.05054910003673285,0.05055669997818768,0.09946139995008707,0.10137699998449534,0.7519128000130877
RSVPLG03,si,20260416-162603,1.0.2,20260219-152011,824,Experiment,Both,1,Automatic,main,76,20260416-163308,local,global,300,H,H,A,E,A-H.png,H-E.png,hH,hH,mask-2.png,mask-3.png,h,1,0.9517569000599906,h,1,0.09552699991036206,0.050150300026871264,0.05006470007356256,0.09938410005997866,0.1016558000119403,0.299668199964799
RSVPLG03,si,20260416-162603,1.0.2,20260219-152011,824,Experiment,Both,1,Automatic,main,77,20260416-163313,local,local,750,H,H,A,A,A-H.png,A-H.png,hH,hH,mask-2.png,mask-4.png,h,1,0.496316000004299,h,1,0.04767020000144839,0.05022810003720224,0.04951110004913062,0.10078870004508644,0.09996720007620752,0.751433499972336
RSVPLG03,si,20260416-162603,1.0.2,20260219-152011,824,Experiment,Both,1,Automatic,main,78,20260416-163318,local,local,750,S,H,A,A,A-S.png,A-H.png,sS,hH,mask-2.png,mask-3.png,s,1,0.45803119998890907,h,1,0.04750759992748499,0.04972669994458556,0.05046820000279695,0.10067239997442812,0.10201080003753304,0.7510362999746576
RSVPLG03,si,20260416-162603,1.0.2,20260219-152011,824,Experiment,Both,1,Automatic,main,79,20260416-163322,global,global,750,H,H,A,E,H-A.png,H-E.png,hH,hH,mask-1.png,mask-4.png,h,1,1.520097199943848,h,1,0.05476950004231185,0.04965449997689575,0.04981569992378354,0.09967010002583265,0.10091179993469268,0.7517951000481844
RSVPLG03,si,20260416-162603,1.0.2,20260219-152011,824,Experiment,Both,1,Automatic,main,80,20260416-163328,local,local,300,H,S,A,E,A-H.png,E-S.png,hH,sS,mask-4.png,mask-2.png,h,1,0.630092200008221,h,0,0.0660615999950096,0.049640199984423816,0.04957389994524419,0.1006566999712959,0.09930420003365725,0.3019528000149876
RSVPLG03,si,20260416-162603,1.0.2,20260219-152011,824,Experiment,Both,1,Automatic,main,81,20260416-163332,global,global,300,H,S,E,A,H-E.png,S-A.png,hH,sS,mask-3.png,mask-3.png,h,1,0.8141041999915615,s,1,0.05452920007519424,0.046545600052922964,0.05095689999870956,0.09808940009679645,0.09971209999639541,0.2988392000552267
RSVPLG03,si,20260416-162603,1.0.2,20260219-152011,824,Experiment,Both,1,Automatic,main,82,20260416-163337,global,global,750,S,H,E,A,S-E.png,H-A.png,sS,hH,mask-1.png,mask-2.png,s,1,0.5814623000333086,h,1,0.02454440004657954,0.0506475999718532,0.04972130001988262,0.10041760001331568,0.09995569998864084,0.7513307000044733
RSVPLG03,si,20260416-162603,1.0.2,20260219-152011,824,Experiment,Both,1,Automatic,main,83,20260416-163341,global,local,750,S,S,A,A,S-A.png,A-S.png,sS,sS,mask-2.png,mask-1.png,s,1,1.6162835999857634,h,0,0.09583080001175404,0.05002369999419898,0.04971440008375794,0.09885489998850971,0.09968700003810227,0.7517408999847248
RSVPLG03,si,20260416-162603,1.0.2,20260219-152011,824,Experiment,Both,1,Automatic,main,84,20260416-163347,local,global,300,S,H,E,E,E-S.png,H-E.png,sS,hH,mask-4.png,mask-2.png,s,1,0.4657371999928728,h,1,0.03696769999805838,0.049249500036239624,0.048494299990125,0.1004143999889493,0.09911409998312593,0.3020768000278622
RSVPLG03,si,20260416-162603,1.0.2,20260219-152011,824,Experiment,Both,1,Automatic,main,85,20260416-163351,global,global,750,S,H,E,A,S-E.png,H-A.png,sS,hH,mask-3.png,mask-4.png,s,1,0.6115214999299496,h,1,0.12586509995162487,0.05054180009756237,0.04876390006393194,0.10175830009393394,0.09894850000273436,0.7541581999976188
RSVPLG03,si,20260416-162603,1.0.2,20260219-152011,824,Experiment,Both,1,Automatic,main,86,20260416-163356,local,local,300,S,S,E,E,E-S.png,E-S.png,sS,sS,mask-3.png,mask-4.png,s,1,1.2060113000916317,s,1,0.07203560008201748,0.04896089993417263,0.04994509997777641,0.10027289995923638,0.10191149997990578,0.2999163999920711
RSVPLG03,si,20260416-162603,1.0.2,20260219-152011,824,Experiment,Both,1,Automatic,main,87,20260416-163401,local,local,750,H,H,A,E,A-H.png,E-H.png,hH,hH,mask-3.png,mask-4.png,h,1,0.624723199987784,h,1,0.06416660000104457,0.048748700064606965,0.05127840000204742,0.10007290006615222,0.10065639996901155,0.751433200086467
RSVPLG03,si,20260416-162603,1.0.2,20260219-152011,824,Experiment,Both,1,Automatic,main,88,20260416-163406,global,local,750,S,S,E,E,S-E.png,E-S.png,sS,sS,mask-1.png,mask-2.png,s,1,0.39037730009295046,s,1,0.10352460003923625,0.051178299938328564,0.051113200024701655,0.10122269997373223,0.10097890009637922,0.7522678999230266
RSVPLG03,si,20260416-162603,1.0.2,20260219-152011,824,Experiment,Both,1,Automatic,main,89,20260416-163410,local,local,750,H,S,A,A,A-H.png,A-S.png,hH,sS,mask-3.png,mask-1.png,h,1,0.9725771000375971,h,0,0.06317879993002862,0.04937609995249659,0.04974739998579025,0.0995573999825865,0.10017720004543662,0.7531684999121353
RSVPLG03,si,20260416-162603,1.0.2,20260219-152011,824,Experiment,Both,1,Automatic,main,90,20260416-163415,global,local,750,S,S,A,E,S-A.png,E-S.png,sS,sS,mask-2.png,mask-1.png,s,1,0.7581288999645039,h,0,0.05314679990988225,0.050190199981443584,0.050380899920128286,0.10181200003717095,0.10095969995018095,0.7517177000408992
RSVPLG03,si,20260416-162603,1.0.2,20260219-152011,824,Experiment,Both,1,Automatic,main,91,20260416-163420,local,global,300,S,S,A,A,A-S.png,S-A.png,sS,sS,mask-2.png,mask-1.png,s,1,0.49672069994267076,s,1,0.08545240003149956,0.05002349999267608,0.049945899983868,0.10207189992070198,0.0983789999736473,0.3026518999831751
RSVPLG03,si,20260416-162603,1.0.2,20260219-152011,824,Experiment,Both,1,Automatic,main,92,20260416-163424,local,local,300,H,S,A,E,A-H.png,E-S.png,hH,sS,mask-1.png,mask-3.png,h,1,0.8447623000247404,s,1,0.014581599971279502,0.0468869999749586,0.04841780010610819,0.09666779998224229,0.09876850002910942,0.29824759997427464
RSVPLG03,si,20260416-162603,1.0.2,20260219-152011,824,Experiment,Both,1,Automatic,main,93,20260416-163429,local,global,300,S,H,E,E,E-S.png,H-E.png,sS,hH,mask-1.png,mask-1.png,h,0,1.7458047999534756,s,0,0.08546740002930164,0.050336800049990416,0.050431700074113905,0.10076940001454204,0.09819659998174757,0.30182589998003095
RSVPLG03,si,20260416-162603,1.0.2,20260219-152011,824,Experiment,Both,1,Automatic,main,94,20260416-163434,local,local,750,H,S,E,A,E-H.png,A-S.png,hH,sS,mask-2.png,mask-1.png,h,1,0.5559061999665573,s,1,0.04185509996023029,0.0508453999646008,0.051483599934726954,0.09956350002903491,0.10082920000422746,0.7520102000562474
RSVPLG03,si,20260416-162603,1.0.2,20260219-152011,824,Experiment,Both,1,Automatic,main,95,20260416-163439,global,global,750,S,H,E,E,S-E.png,H-E.png,sS,hH,mask-3.png,mask-1.png,s,1,0.8915848999749869,h,1,0.1341573999961838,0.05038649996276945,0.049408000078983605,0.100133299943991,0.09944480005651712,0.7527892999351025
RSVPLG03,si,20260416-162603,1.0.2,20260219-152011,824,Experiment,Both,1,Automatic,main,96,20260416-163444,global,local,300,H,S,E,E,H-E.png,E-S.png,hH,sS,mask-4.png,mask-2.png,h,1,0.888445199932903,s,1,0.07158340001478791,0.05068770004436374,0.050197600037790835,0.10080340004060417,0.10082950000651181,0.3012066000374034
RSVPLG03,si,20260416-162603,1.0.2,20260219-152011,824,Experiment,Both,1,Automatic,main,97,20260416-163449,local,local,300,H,S,A,E,A-H.png,E-S.png,hH,sS,mask-2.png,mask-4.png,h,1,0.5929781999439001,h,0,0.12274150003213435,0.05014810001011938,0.052067099954001606,0.10012959991581738,0.1015206000301987,0.29970249999314547
RSVPLG03,si,20260416-162603,1.0.2,20260219-152011,824,Experiment,Both,1,Automatic,main,98,20260416-163453,local,local,750,H,S,A,A,A-H.png,A-S.png,hH,sS,mask-1.png,mask-2.png,h,1,1.2784812999889255,s,1,0.05754369997885078,0.04984560003504157,0.04980739997699857,0.10115230001974851,0.09866590006276965,0.7535884999670088
RSVPLG03,si,20260416-162603,1.0.2,20260219-152011,824,Experiment,Both,1,Automatic,main,99,20260416-163458,global,global,300,H,H,A,A,H-A.png,H-A.png,hH,hH,mask-2.png,mask-4.png,h,1,0.8242688999744132,s,0,0.03722199995536357,0.051125199999660254,0.0505229999544099,0.10052999993786216,0.09997420001309365,0.30192080000415444
RSVPLG03,si,20260416-162603,1.0.2,20260219-152011,824,Experiment,Both,1,Automatic,main,100,20260416-163503,global,local,300,S,H,A,E,S-A.png,E-H.png,sS,hH,mask-4.png,mask-2.png,s,1,0.3129323000321165,s,0,0.08661870006471872,0.049574100063182414,0.05053480004426092,0.10014019999653101,0.10053090006113052,0.3006471999688074
RSVPLG03,si,20260416-163556,1.0.2,20260219-152011,824,Experiment,Both,1,Automatic,warmup,1,20260416-163616,local,local,300,H,S,E,E,E-H.png,E-S.png,hH,sS,mask-4.png,mask-3.png,h,1,1.0641024999786168,h,0,0.17370829998981208,0.04059300001244992,0.05210380000062287,0.08969460008665919,0.10079639998730272,0.2897557000396773
RSVPLG03,si,20260416-163556,1.0.2,20260219-152011,824,Experiment,Both,1,Automatic,warmup,2,20260416-163620,local,global,300,H,S,E,E,E-H.png,S-E.png,hH,sS,mask-1.png,mask-3.png,h,1,0.9334276999579743,s,1,0.5590368999401107,0.04871110001113266,0.04906300001312047,0.09953760006465018,0.10022619995288551,0.2992181000299752
RSVPLG03,si,20260416-163556,1.0.2,20260219-152011,824,Experiment,Both,1,Automatic,warmup,3,20260416-163626,global,local,300,S,S,E,A,S-E.png,A-S.png,sS,sS,mask-2.png,mask-4.png,s,1,0.8671661999542266,s,1,0.2407121000578627,0.04990230000112206,0.04999480000697076,0.1004877999657765,0.10013220005203038,0.3000260000117123
RSVPLG03,si,20260416-163556,1.0.2,20260219-152011,824,Experiment,Both,1,Automatic,warmup,4,20260416-163630,global,global,750,H,H,A,A,H-A.png,H-A.png,hH,hH,mask-4.png,mask-2.png,h,1,0.9739808000158519,s,0,0.31131439993623644,0.04914320004172623,0.048669699928723276,0.09934349998366088,0.09854319994337857,0.7511200000299141
RSVPLG03,si,20260416-163556,1.0.2,20260219-152011,824,Experiment,Both,1,Automatic,main,5,20260416-163636,global,local,750,H,H,A,E,H-A.png,E-H.png,hH,hH,mask-1.png,mask-3.png,h,1,0.5195445999270305,h,1,0.071032700012438,0.05044420005287975,0.04734889999963343,0.10003440000582486,0.09959910006728023,0.7519699999829754
RSVPLG03,si,20260416-163556,1.0.2,20260219-152011,824,Experiment,Both,1,Automatic,main,6,20260416-163641,global,local,750,H,S,E,E,H-E.png,E-S.png,hH,sS,mask-2.png,mask-4.png,h,1,0.7113025999860838,s,1,0.7893575000343844,0.04987039999105036,0.04899200005456805,0.10005649994127452,0.09927140001673251,0.7509553999407217
RSVPLG03,si,20260416-163556,1.0.2,20260219-152011,824,Experiment,Both,1,Automatic,main,7,20260416-163646,local,local,750,S,H,A,A,A-S.png,A-H.png,sS,hH,mask-2.png,mask-4.png,s,1,0.653388199978508,h,1,0.11931139999069273,0.048183299950324,0.05133050004951656,0.09820389992091805,0.10137719998601824,0.7484640999464318
RSVPLG03,si,20260416-163556,1.0.2,20260219-152011,824,Experiment,Both,1,Automatic,main,8,20260416-163651,global,global,750,S,H,A,E,S-A.png,H-E.png,sS,hH,mask-3.png,mask-4.png,s,1,1.03881719999481,h,1,0.15810260002035648,0.050954599981196225,0.04923520004376769,0.10059879999607801,0.10080900008324534,0.7505750999553129
RSVPLG03,si,20260416-163556,1.0.2,20260219-152011,824,Experiment,Both,1,Automatic,main,9,20260416-163656,global,local,300,S,H,E,E,S-E.png,E-H.png,sS,hH,mask-3.png,mask-3.png,s,1,0.7409994999179617,s,0,0.09689980000257492,0.04939930001273751,0.04930039995815605,0.09986780001781881,0.09987899998668581,0.299947899999097
RSVPLG03,si,20260416-163556,1.0.2,20260219-152011,824,Experiment,Both,1,Automatic,main,10,20260416-163701,global,global,300,H,H,A,E,H-A.png,H-E.png,hH,hH,mask-4.png,mask-1.png,h,1,0.5185868999687955,h,1,0.06331899994984269,0.04907329997513443,0.0493966001085937,0.10020820004865527,0.10070950002409518,0.29966649995185435
RSVPLG03,si,20260416-163556,1.0.2,20260219-152011,824,Experiment,Both,1,Automatic,main,11,20260416-163705,local,global,750,H,H,A,A,A-H.png,H-A.png,hH,hH,mask-2.png,mask-4.png,h,1,1.7269133999943733,s,0,0.6698884998913854,0.05076209991239011,0.048323400085791945,0.10058939992450178,0.10029560001567006,0.7510881999041885
RSVPLG03,si,20260416-163556,1.0.2,20260219-152011,824,Experiment,Both,1,Automatic,main,12,20260416-163711,global,local,750,H,S,A,A,H-A.png,A-S.png,hH,sS,mask-3.png,mask-2.png,h,1,0.6839522999944165,s,1,0.15085350000299513,0.050333900027908385,0.04929389990866184,0.09978309995494783,0.10007069993298501,0.7496700000483543
RSVPLG03,si,20260416-163556,1.0.2,20260219-152011,824,Experiment,Both,1,Automatic,main,13,20260416-163716,global,local,300,S,H,A,A,S-A.png,A-H.png,sS,hH,mask-2.png,mask-4.png,s,1,0.6064535999903455,s,0,0.1576485000550747,0.049339800025336444,0.04987700004130602,0.0995850000763312,0.1004105000756681,0.2995329999830574
RSVPLG03,si,20260416-163556,1.0.2,20260219-152011,824,Experiment,Both,1,Automatic,main,14,20260416-163721,global,local,750,S,S,E,A,S-E.png,A-S.png,sS,sS,mask-4.png,mask-1.png,s,1,1.134184299968183,h,0,0.2642420999472961,0.04939709999598563,0.050753300078213215,0.10061169997788966,0.09979750006459653,0.7505255999276415
RSVPLG03,si,20260416-163556,1.0.2,20260219-152011,824,Experiment,Both,1,Automatic,main,15,20260416-163726,local,global,300,S,S,A,A,A-S.png,S-A.png,sS,sS,mask-4.png,mask-2.png,s,1,0.5513613000512123,s,1,0.07108550006523728,0.05031479999888688,0.05136439995840192,0.09948540001641959,0.09979229990858585,0.3000666000880301
RSVPLG03,si,20260416-163556,1.0.2,20260219-152011,824,Experiment,Both,1,Automatic,main,16,20260416-163731,local,global,300,S,S,A,E,A-S.png,S-E.png,sS,sS,mask-3.png,mask-4.png,s,1,0.719532800023444,s,1,0.60107950004749,0.04863530001603067,0.048702299944125116,0.100044000078924,0.09893079998437315,0.300158700090833
RSVPLG03,si,20260416-163556,1.0.2,20260219-152011,824,Experiment,Both,1,Automatic,main,17,20260416-163736,global,global,300,H,S,E,E,H-E.png,S-E.png,hH,sS,mask-4.png,mask-4.png,h,1,0.5212445999495685,s,1,0.14279419998638332,0.04503340006340295,0.048493800102733076,0.09689639997668564,0.0978459999896586,0.2978488999651745
RSVPLG03,si,20260416-163556,1.0.2,20260219-152011,824,Experiment,Both,1,Automatic,main,18,20260416-163740,local,local,750,S,S,A,E,A-S.png,E-S.png,sS,sS,mask-4.png,mask-3.png,s,1,0.4207883001072332,s,1,0.09623569995164871,0.050944300019182265,0.049852299969643354,0.09904930007178336,0.10066920006647706,0.7503208999987692
RSVPLG03,si,20260416-163556,1.0.2,20260219-152011,824,Experiment,Both,1,Automatic,main,19,20260416-163744,local,global,750,H,H,E,E,E-H.png,H-E.png,hH,hH,mask-4.png,mask-1.png,h,1,0.5967979000415653,s,0,0.32159990002401173,0.04985129996202886,0.050027100020088255,0.09921899996697903,0.09812940005213022,0.75137089996133
RSVPLG03,si,20260416-163556,1.0.2,20260219-152011,824,Experiment,Both,1,Automatic,main,20,20260416-163749,global,local,300,S,S,A,E,S-A.png,E-S.png,sS,sS,mask-4.png,mask-4.png,h,0,0.32398150011431426,h,0,0.07143200002610683,0.05103059997782111,0.05033629992976785,0.10066800005733967,0.09989059995859861,0.3002333000767976
RSVPLG03,si,20260416-163556,1.0.2,20260219-152011,824,Experiment,Both,1,Automatic,main,21,20260416-163753,local,global,750,S,H,E,A,E-S.png,H-A.png,sS,hH,mask-3.png,mask-2.png,s,1,0.5600622000638396,h,1,1.0873265999834985,0.05031249998137355,0.050914500025101006,0.10079280007630587,0.1008428999921307,0.7502480000257492
RSVPLG03,si,20260416-163556,1.0.2,20260219-152011,824,Experiment,Both,1,Automatic,main,22,20260416-163759,local,local,750,H,H,E,E,E-H.png,E-H.png,hH,hH,mask-4.png,mask-3.png,h,1,2.298662699991837,h,1,0.21511790005024523,0.04954819998238236,0.05110819998662919,0.10024960001464933,0.10153700003866106,0.7503224000101909
RSVPLG03,si,20260416-163556,1.0.2,20260219-152011,824,Experiment,Both,1,Automatic,main,23,20260416-163806,global,global,300,H,S,A,A,H-A.png,S-A.png,hH,sS,mask-4.png,mask-3.png,h,1,0.8032140000723302,s,1,0.10355430003255606,0.05006219993811101,0.04996259999461472,0.10142830002587289,0.10126220004167408,0.30023019993677735
RSVPLG03,si,20260416-163556,1.0.2,20260219-152011,824,Experiment,Both,1,Automatic,main,24,20260416-163810,global,global,750,S,S,A,E,S-A.png,S-E.png,sS,sS,mask-1.png,mask-1.png,s,1,2.2557319999905303,h,0,0.14314890000969172,0.05015769996680319,0.04906340001616627,0.10042379994411021,0.09849750006105751,0.7514565999154001
RSVPLG03,si,20260416-163556,1.0.2,20260219-152011,824,Experiment,Both,1,Automatic,main,25,20260416-163817,global,local,300,H,H,E,E,H-E.png,E-H.png,hH,hH,mask-3.png,mask-2.png,h,1,2.0894655999727547,s,0,0.1598687000805512,0.05067389993928373,0.05074370000511408,0.09878879995085299,0.09948630002327263,0.30027879995759577
RSVPLG03,si,20260416-163556,1.0.2,20260219-152011,824,Experiment,Both,1,Automatic,main,26,20260416-163824,global,global,300,S,H,A,A,S-A.png,H-A.png,sS,hH,mask-1.png,mask-4.png,h,0,2.8467264999635518,h,1,0.09610809991136193,0.048780799959786236,0.049994500004686415,0.09989499999210238,0.10021699999924749,0.3004292999394238
RSVPLG03,si,20260416-163556,1.0.2,20260219-152011,824,Experiment,Both,1,Automatic,main,27,20260416-163831,local,local,300,H,H,E,A,E-H.png,A-H.png,hH,hH,mask-3.png,mask-1.png,h,1,0.49536119995173067,s,0,0.030664200079627335,0.0505612000124529,0.051252400036901236,0.10040060000028461,0.10071180004160851,0.3006802999880165
RSVPLG03,si,20260416-163556,1.0.2,20260219-152011,824,Experiment,Both,1,Automatic,main,28,20260416-163835,local,global,750,S,S,A,E,A-S.png,S-E.png,sS,sS,mask-2.png,mask-4.png,s,1,1.0069990999763831,s,1,0.8949528000084683,0.05009050003718585,0.04986639996059239,0.09929000004194677,0.09862569998949766,0.751018900074996
RSVPLG03,si,20260416-163556,1.0.2,20260219-152011,824,Experiment,Both,1,Automatic,main,29,20260416-163841,local,global,300,H,S,A,E,A-H.png,S-E.png,hH,sS,mask-3.png,mask-4.png,h,1,0.7507326999912038,s,1,0.04704700002912432,0.049836099962703884,0.0515779999550432,0.10081279999576509,0.1002458999864757,0.2997995000332594
RSVPLG03,si,20260416-163556,1.0.2,20260219-152011,824,Experiment,Both,1,Automatic,main,30,20260416-163845,local,global,300,S,H,A,E,A-S.png,H-E.png,sS,hH,mask-4.png,mask-3.png,s,1,0.5988351999549195,s,0,0.11148329998832196,0.050323500065132976,0.04838819999713451,0.10131360008381307,0.09829840005841106,0.302213600021787
RSVPLG03,si,20260416-163556,1.0.2,20260219-152011,824,Experiment,Both,1,Automatic,main,31,20260416-163850,global,local,750,S,H,A,E,S-A.png,E-H.png,sS,hH,mask-3.png,mask-1.png,s,1,0.4939405999612063,h,1,0.31032669998239726,0.05160130001604557,0.048837399925105274,0.10519560007378459,0.09992820001207292,0.75239490007516
RSVPLG03,si,20260416-163556,1.0.2,20260219-152011,824,Experiment,Both,1,Automatic,main,32,20260416-163854,global,global,750,H,H,E,A,H-E.png,H-A.png,hH,hH,mask-3.png,mask-3.png,h,1,0.700902899960056,h,1,0.527099100057967,0.05002750002313405,0.05043080006726086,0.09997850004583597,0.10093900002539158,0.7495099999941885
RSVPLG03,si,20260416-163556,1.0.2,20260219-152011,824,Experiment,Both,1,Automatic,main,33,20260416-163900,global,local,300,S,H,E,A,S-E.png,A-H.png,sS,hH,mask-1.png,mask-2.png,s,1,1.8065475999610499,s,0,0.3362830999540165,0.04962230008095503,0.04951209994032979,0.09853900002781302,0.0999749000184238,0.2999574000714347
RSVPLG03,si,20260416-163556,1.0.2,20260219-152011,824,Experiment,Both,1,Automatic,main,34,20260416-163906,local,local,300,S,S,A,A,A-S.png,A-S.png,sS,sS,mask-2.png,mask-3.png,s,1,0.5588298999937251,s,1,0.10544920002575964,0.050047699944116175,0.05039540003053844,0.10021339997183532,0.1000297999707982,0.29924289998598397
RSVPLG03,si,20260416-163556,1.0.2,20260219-152011,824,Experiment,Both,1,Automatic,main,35,20260416-163910,global,global,300,H,S,A,E,H-A.png,S-E.png,hH,sS,mask-4.png,mask-1.png,h,1,0.38749220001045614,s,1,0.02352520008571446,0.04879679996520281,0.04866339999716729,0.0980433999793604,0.09866390004754066,0.300024600001052
RSVPLG03,si,20260416-163556,1.0.2,20260219-152011,824,Experiment,Both,1,Automatic,main,36,20260416-163914,global,global,750,S,S,A,A,S-A.png,S-A.png,sS,sS,mask-1.png,mask-2.png,s,1,0.44395510002505034,s,1,0.03651259990874678,0.050253800000064075,0.05009510007221252,0.10039909998886287,0.09974940004758537,0.7505306999664754
RSVPLG03,si,20260416-163556,1.0.2,20260219-152011,824,Experiment,Both,1,Automatic,main,37,20260416-163918,global,local,750,S,H,E,E,S-E.png,E-H.png,sS,hH,mask-3.png,mask-4.png,s,1,0.20206600008532405,s,0,0.07038329995702952,0.050467099994421005,0.04900150001049042,0.09993739996571094,0.09871719998773187,0.7518506000051275
RSVPLG03,si,20260416-163556,1.0.2,20260219-152011,824,Experiment,Both,1,Automatic,main,38,20260416-163923,local,local,750,H,S,A,E,A-H.png,E-S.png,hH,sS,mask-1.png,mask-4.png,h,1,0.40616150002460927,s,1,0.11772500001825392,0.0488675000378862,0.049745800090022385,0.09915280004497617,0.1014765000436455,0.7490824999986216
RSVPLG03,si,20260416-163556,1.0.2,20260219-152011,824,Experiment,Both,1,Automatic,main,39,20260416-163927,local,global,750,S,S,E,A,E-S.png,S-A.png,sS,sS,mask-2.png,mask-3.png,s,1,0.725449699908495,h,0,0.05434959998819977,0.04846610000822693,0.05118780001066625,0.10015290009323508,0.10150930006057024,0.7483683000318706
RSVPLG03,si,20260416-163556,1.0.2,20260219-152011,824,Experiment,Both,1,Automatic,main,40,20260416-163932,local,global,300,S,H,A,A,A-S.png,H-A.png,sS,hH,mask-1.png,mask-3.png,s,1,0.416694900020957,s,0,0.0889160999795422,0.05018230003770441,0.049154700012877584,0.10148049995768815,0.09945859992876649,0.30060950003098696
RSVPLG03,si,20260416-163556,1.0.2,20260219-152011,824,Experiment,Both,1,Automatic,main,41,20260416-163936,global,local,300,H,S,A,A,H-A.png,A-S.png,hH,sS,mask-4.png,mask-2.png,h,1,0.3899761000648141,h,0,0.07041849999222904,0.04924369999207556,0.04915329988580197,0.10087670001666993,0.09880089992657304,0.3011057000840083
RSVPLG03,si,20260416-163556,1.0.2,20260219-152011,824,Experiment,Both,1,Automatic,main,42,20260416-163940,global,local,300,H,H,A,A,H-A.png,A-H.png,hH,hH,mask-3.png,mask-3.png,h,1,0.46618089999537915,s,0,0.8617977000540122,0.05106219998560846,0.05142759997397661,0.0988692999817431,0.10023519990500063,0.29974470008164644
RSVPLG03,si,20260416-163556,1.0.2,20260219-152011,824,Experiment,Both,1,Automatic,main,43,20260416-163945,local,global,750,S,S,A,A,A-S.png,S-A.png,sS,sS,mask-1.png,mask-4.png,s,1,1.0025140999350697,s,1,0.21529580000787973,0.05226319993380457,0.04998819995671511,0.09944179991725832,0.10146159993018955,0.7490182999754325
RSVPLG03,si,20260416-163556,1.0.2,20260219-152011,824,Experiment,Both,1,Automatic,main,44,20260416-163951,global,local,300,H,H,E,E,H-E.png,E-H.png,hH,hH,mask-3.png,mask-4.png,h,1,0.599183400045149,h,1,0.08010130003094673,0.049851100076921284,0.05177930009085685,0.098690600018017,0.10009370010811836,0.2989359999774024
RSVPLG03,si,20260416-163556,1.0.2,20260219-152011,824,Experiment,Both,1,Automatic,main,45,20260416-163955,local,local,750,S,S,A,A,A-S.png,A-S.png,sS,sS,mask-2.png,mask-2.png,s,1,0.3683826000196859,s,1,0.8981990000465885,0.05012870009522885,0.049554400029592216,0.10029860003851354,0.09934419998899102,0.7501435000449419
RSVPLG03,si,20260416-163556,1.0.2,20260219-152011,824,Experiment,Both,1,Automatic,main,46,20260416-164000,local,global,300,S,H,E,E,E-S.png,H-E.png,sS,hH,mask-2.png,mask-1.png,s,1,0.5079020999837667,h,1,0.12669260008260608,0.04923699994105846,0.050507500069215894,0.09985769994091243,0.10043059999588877,0.29980109992902726
RSVPLG03,si,20260416-163556,1.0.2,20260219-152011,824,Experiment,Both,1,Automatic,main,47,20260416-164005,local,local,750,S,S,A,E,A-S.png,E-S.png,sS,sS,mask-2.png,mask-4.png,s,1,0.44110539997927845,s,1,0.07008330000098795,0.049929400091059506,0.049839099985547364,0.10159410000778735,0.1010839999653399,0.7483613000949845
RSVPLG03,si,20260416-163556,1.0.2,20260219-152011,824,Experiment,Both,1,Automatic,main,48,20260416-164009,local,global,750,H,H,E,E,E-H.png,H-E.png,hH,hH,mask-3.png,mask-2.png,s,0,0.4373576999641955,s,0,0.0960085999686271,0.04805240000132471,0.048551800078712404,0.098666200065054,0.0989386000437662,0.7503323999699205
RSVPLG03,si,20260416-163556,1.0.2,20260219-152011,824,Experiment,Both,1,Automatic,main,49,20260416-164014,local,global,750,S,H,A,E,A-S.png,H-E.png,sS,hH,mask-4.png,mask-4.png,h,0,1.1171965999528766,h,1,0.6070819000015035,0.0482217000098899,0.0503546999534592,0.10008550004567951,0.10093109996523708,0.7485666000284255
RSVPLG03,si,20260416-163556,1.0.2,20260219-152011,824,Experiment,Both,1,Automatic,main,50,20260416-164020,local,local,300,S,S,A,E,A-S.png,E-S.png,sS,sS,mask-4.png,mask-3.png,s,1,0.5986826000735164,s,1,0.10357040003873408,0.0480119000421837,0.049916099989786744,0.09754540002904832,0.10052259999793023,0.29817710001952946
RSVPLG03,si,20260416-163556,1.0.2,20260219-152011,824,Experiment,Both,1,Automatic,main,51,20260416-164025,local,global,300,H,S,E,A,E-H.png,S-A.png,hH,sS,mask-3.png,mask-1.png,h,1,0.6195425000041723,s,1,0.11134320008568466,0.05125749995931983,0.050823000026866794,0.1009864000370726,0.10009469999931753,0.3003339000279084
RSVPLG03,si,20260416-163556,1.0.2,20260219-152011,824,Experiment,Both,1,Automatic,main,52,20260416-164029,local,local,750,H,H,E,E,E-H.png,E-H.png,hH,hH,mask-3.png,mask-4.png,h,1,0.3715540999546647,h,1,0.07039759994950145,0.04838349996134639,0.04828750004526228,0.09990409994497895,0.09910980006679893,0.7503033999819309
RSVPLG03,si,20260416-163556,1.0.2,20260219-152011,824,Experiment,Both,1,Automatic,main,53,20260416-164033,local,local,300,H,S,A,E,A-H.png,E-S.png,hH,sS,mask-4.png,mask-3.png,h,1,0.3057056999532506,s,1,0.1030344000319019,0.05130309995729476,0.04936599999200553,0.10149420006200671,0.09883470006752759,0.30210380000062287
RSVPLG03,si,20260416-163556,1.0.2,20260219-152011,824,Experiment,Both,1,Automatic,main,54,20260416-164037,global,global,750,H,S,E,E,H-E.png,S-E.png,hH,sS,mask-4.png,mask-1.png,h,1,0.2617951000574976,s,1,0.1303549000294879,0.04870789998676628,0.04952250001952052,0.09938570007216185,0.09917050006333739,0.7506423000013456
RSVPLG03,si,20260416-163556,1.0.2,20260219-152011,824,Experiment,Both,1,Automatic,main,55,20260416-164042,global,local,300,S,H,A,E,S-A.png,E-H.png,sS,hH,mask-2.png,mask-1.png,s,1,0.3454382000491023,h,1,0.04624339996371418,0.04872320010326803,0.05062510003335774,0.09993490006309003,0.09963189996778965,0.29969740007072687
RSVPLG03,si,20260416-163556,1.0.2,20260219-152011,824,Experiment,Both,1,Automatic,main,56,20260416-164046,global,global,300,H,S,E,E,H-E.png,S-E.png,hH,sS,mask-4.png,mask-2.png,h,1,0.230565799982287,h,0,0.1783737000077963,0.050159200094640255,0.04968659998849034,0.10155930009204894,0.10024319996591657,0.3008868000470102
RSVPLG03,si,20260416-163556,1.0.2,20260219-152011,824,Experiment,Both,1,Automatic,main,57,20260416-164050,local,global,750,S,S,E,E,E-S.png,S-E.png,sS,sS,mask-3.png,mask-2.png,s,1,0.5491575999185443,h,0,0.0870502000907436,0.05036270001437515,0.05019270000047982,0.10000420000869781,0.09928840002976358,0.7505863000405952
RSVPLG03,si,20260416-163556,1.0.2,20260219-152011,824,Experiment,Both,1,Automatic,main,58,20260416-164055,local,global,300,H,S,E,E,E-H.png,S-E.png,hH,sS,mask-1.png,mask-1.png,h,1,0.4003794000018388,h,0,0.3183445999165997,0.05002149997744709,0.05101469997316599,0.09997960005421191,0.10019319993443787,0.2996938000433147
RSVPLG03,si,20260416-163556,1.0.2,20260219-152011,824,Experiment,Both,1,Automatic,main,59,20260416-164059,local,local,300,H,H,E,E,E-H.png,E-H.png,hH,hH,mask-1.png,mask-2.png,h,1,0.3654421000974253,h,1,0.10350059997290373,0.04974899999797344,0.0513243000023067,0.10016589995939285,0.10013259993866086,0.29856210004072636
RSVPLG03,si,20260416-163556,1.0.2,20260219-152011,824,Experiment,Both,1,Automatic,main,60,20260416-164103,local,local,300,S,S,A,E,A-S.png,E-S.png,sS,sS,mask-4.png,mask-3.png,s,1,0.27467449998948723,s,1,0.05395740002859384,0.04930509999394417,0.05017930001486093,0.09973110002465546,0.10048890009056777,0.30063349998090416
RSVPLG03,si,20260416-163556,1.0.2,20260219-152011,824,Experiment,Both,1,Automatic,main,61,20260416-164107,local,local,300,H,S,A,E,A-H.png,E-S.png,hH,sS,mask-3.png,mask-1.png,h,1,0.2813255999935791,s,1,0.12890940008219332,0.05025420000310987,0.05013599991798401,0.10038150008767843,0.09987399994861335,0.29991590010467917
RSVPLG03,si,20260416-163556,1.0.2,20260219-152011,824,Experiment,Both,1,Automatic,main,62,20260416-164111,global,global,300,S,S,E,E,S-E.png,S-E.png,sS,sS,mask-2.png,mask-3.png,s,1,0.1876306999474764,s,1,0.40845500002615154,0.04938810004387051,0.04976990004070103,0.09929109993390739,0.09971830004360527,0.29977219994179904
RSVPLG03,si,20260416-163556,1.0.2,20260219-152011,824,Experiment,Both,1,Automatic,main,63,20260416-164115,global,local,750,H,S,E,A,H-E.png,A-S.png,hH,sS,mask-3.png,mask-3.png,h,1,0.3938707000343129,h,0,0.07773319992702454,0.051385700004175305,0.05065270001068711,0.10138940007891506,0.10121440002694726,0.749257400049828
RSVPLG03,si,20260416-163556,1.0.2,20260219-152011,824,Experiment,Both,1,Automatic,main,64,20260416-164120,global,local,750,H,H,E,A,H-E.png,A-H.png,hH,hH,mask-3.png,mask-1.png,h,1,1.2645594999194145,s,0,0.22938949998933822,0.04916960000991821,0.048279100097715855,0.10078430001158267,0.09986760001629591,0.7514464999549091
RSVPLG03,si,20260416-163556,1.0.2,20260219-152011,824,Experiment,Both,1,Automatic,main,65,20260416-164125,local,local,300,H,S,E,A,E-H.png,A-S.png,hH,sS,mask-1.png,mask-3.png,h,1,0.6279451999580488,s,1,0.13652060006279498,0.05089860002044588,0.05044599995017052,0.10160880000330508,0.09894549997989088,0.30156120005995035
RSVPLG03,si,20260416-163556,1.0.2,20260219-152011,824,Experiment,Both,1,Automatic,main,66,20260416-164130,global,global,750,S,S,E,E,S-E.png,S-E.png,sS,sS,mask-1.png,mask-2.png,s,1,0.27405190002173185,s,1,0.07939239998813719,0.04984880005940795,0.051582599990069866,0.10000830003991723,0.1009400999173522,0.7490599000593647
RSVPLG03,si,20260416-163556,1.0.2,20260219-152011,824,Experiment,Both,1,Automatic,main,67,20260416-164134,local,local,300,S,S,E,A,E-S.png,A-S.png,sS,sS,mask-4.png,mask-1.png,s,1,0.4960661999648437,h,0,0.142973400070332,0.05036720004864037,0.050397500046528876,0.09954070008825511,0.10025469993706793,0.29957420006394386
RSVPLG03,si,20260416-163556,1.0.2,20260219-152011,824,Experiment,Both,1,Automatic,main,68,20260416-164138,local,local,750,S,H,E,E,E-S.png,E-H.png,sS,hH,mask-3.png,mask-3.png,s,1,0.34353090007789433,h,1,0.1265097000868991,0.049884899985045195,0.05025450000539422,0.10028779995627701,0.10068989999126643,0.7501684000017121
RSVPLG03,si,20260416-163556,1.0.2,20260219-152011,824,Experiment,Both,1,Automatic,main,69,20260416-164143,global,global,300,S,H,A,A,S-A.png,H-A.png,sS,hH,mask-4.png,mask-3.png,s,1,0.2531930000986904,h,1,0.037726699956692755,0.050440600025467575,0.04923229990527034,0.10029099998064339,0.09896639990620315,0.30183420004323125
RSVPLG03,si,20260416-163556,1.0.2,20260219-152011,824,Experiment,Both,1,Automatic,main,70,20260416-164147,global,global,300,H,H,A,A,H-A.png,H-A.png,hH,hH,mask-4.png,mask-1.png,h,1,0.31145449995528907,h,1,0.0625384000595659,0.048081899993121624,0.04978070000652224,0.09871240006759763,0.09979800006840378,0.30003769998438656
RSVPLG03,si,20260416-163556,1.0.2,20260219-152011,824,Experiment,Both,1,Automatic,main,71,20260416-164151,local,local,750,S,S,A,A,A-S.png,A-S.png,sS,sS,mask-3.png,mask-4.png,s,1,0.34606949996668845,s,1,0.0734768999973312,0.049708499922417104,0.04994010005611926,0.09990369994193316,0.09885010006837547,0.7506901999004185
RSVPLG03,si,20260416-163556,1.0.2,20260219-152011,824,Experiment,Both,1,Automatic,main,72,20260416-164155,global,local,300,S,H,A,A,S-A.png,A-H.png,sS,hH,mask-3.png,mask-3.png,s,1,0.4021936999633908,h,1,0.1270105999428779,0.04899539996404201,0.05111849994864315,0.09997209999710321,0.10014520003460348,0.2993383000139147
RSVPLG03,si,20260416-163556,1.0.2,20260219-152011,824,Experiment,Both,1,Automatic,main,73,20260416-164159,local,local,750,H,H,A,A,A-H.png,A-H.png,hH,hH,mask-1.png,mask-3.png,h,1,0.7220134999370202,s,0,0.35649669996928424,0.05108620005194098,0.049152999999932945,0.1005940999602899,0.09950920008122921,0.7512222999939695
RSVPLG03,si,20260416-163556,1.0.2,20260219-152011,824,Experiment,Both,1,Automatic,main,74,20260416-164204,local,global,750,H,S,A,A,A-H.png,S-A.png,hH,sS,mask-3.png,mask-2.png,h,1,0.7875640999991447,s,1,0.13480599992908537,0.048943799920380116,0.05115080007817596,0.09890789992641658,0.10042820009402931,0.748415399924852
RSVPLG03,si,20260416-163556,1.0.2,20260219-152011,824,Experiment,Both,1,Automatic,main,75,20260416-164209,local,local,750,H,S,A,E,A-H.png,E-S.png,hH,sS,mask-3.png,mask-1.png,s,0,1.4477886999957263,s,1,0.11418640008196235,0.05058969999663532,0.05081619997508824,0.10047039994969964,0.10244049993343651,0.7497087999945506
RSVPLG03,si,20260416-163556,1.0.2,20260219-152011,824,Experiment,Both,1,Automatic,main,76,20260416-164216,local,global,300,S,S,A,A,A-S.png,S-A.png,sS,sS,mask-2.png,mask-4.png,s,1,0.7009911000495777,h,0,0.1346008999971673,0.04829169996082783,0.04924690001644194,0.09876580000855029,0.10088350006844848,0.2996631999267265
RSVPLG03,si,20260416-163556,1.0.2,20260219-152011,824,Experiment,Both,1,Automatic,main,77,20260416-164221,global,local,750,H,H,E,E,H-E.png,E-H.png,hH,hH,mask-1.png,mask-3.png,h,1,0.3900972999399528,h,1,0.3761520000407472,0.04965570010244846,0.0487000000430271,0.10041640000417829,0.09842239995487034,0.7514754000585526
RSVPLG03,si,20260416-163556,1.0.2,20260219-152011,824,Experiment,Both,1,Automatic,main,78,20260416-164225,local,local,300,S,S,A,A,A-S.png,A-S.png,sS,sS,mask-2.png,mask-1.png,s,1,0.23733700008597225,s,1,0.054079500027000904,0.0505111999809742,0.048892299993894994,0.09917380008846521,0.09928770002443343,0.30023609998170286
RSVPLG03,si,20260416-163556,1.0.2,20260219-152011,824,Experiment,Both,1,Automatic,main,79,20260416-164229,local,global,300,S,S,E,E,E-S.png,S-E.png,sS,sS,mask-1.png,mask-4.png,s,1,0.38644859998021275,h,0,0.07956879993434995,0.049953100038692355,0.05100160010624677,0.10007200005929917,0.09880810009781271,0.2999448999762535
RSVPLG03,si,20260416-163556,1.0.2,20260219-152011,824,Experiment,Both,1,Automatic,main,80,20260416-164233,global,global,750,H,H,E,A,H-E.png,H-A.png,hH,hH,mask-4.png,mask-4.png,h,1,0.27719229995273054,h,1,0.07966340007260442,0.050318999914452434,0.04815019993111491,0.10065799998119473,0.09877759998198599,0.7516603999538347
RSVPLG03,si,20260416-163556,1.0.2,20260219-152011,824,Experiment,Both,1,Automatic,main,81,20260416-164238,global,global,750,S,H,A,E,S-A.png,H-E.png,sS,hH,mask-3.png,mask-2.png,s,1,0.3927730000577867,h,1,0.03857169998809695,0.05091860005632043,0.04961720004212111,0.09866960009094328,0.09932070004288107,0.7498688000487164
RSVPLG03,si,20260416-163556,1.0.2,20260219-152011,824,Experiment,Both,1,Automatic,main,82,20260416-164242,global,global,300,S,S,E,E,S-E.png,S-E.png,sS,sS,mask-3.png,mask-1.png,s,1,0.3513527000322938,s,1,0.2644616999896243,0.05053739994764328,0.049948800005950034,0.10091010003816336,0.10006960004102439,0.30058729997836053
RSVPLG03,si,20260416-163556,1.0.2,20260219-152011,824,Experiment,Both,1,Automatic,main,83,20260416-164247,global,local,750,H,H,A,A,H-A.png,A-H.png,hH,hH,mask-1.png,mask-4.png,h,1,0.31603550002910197,h,1,0.08629129990004003,0.04898930003400892,0.0493116999277845,0.09984400006942451,0.0995628999080509,0.7509423000738025
RSVPLG03,si,20260416-163556,1.0.2,20260219-152011,824,Experiment,Both,1,Automatic,main,84,20260416-164251,local,global,750,H,H,A,E,A-H.png,H-E.png,hH,hH,mask-3.png,mask-2.png,h,1,0.6922731000231579,h,1,0.07998689997475594,0.05091949994675815,0.05046889989171177,0.1003521999809891,0.09921779995784163,0.7514895000495017
RSVPLG03,si,20260416-163556,1.0.2,20260219-152011,824,Experiment,Both,1,Automatic,main,85,20260416-164256,local,local,300,S,H,E,E,E-S.png,E-H.png,sS,hH,mask-4.png,mask-2.png,s,1,0.36577119992580265,h,1,0.06367970001883805,0.04971809999551624,0.050335200037807226,0.099106700043194,0.09958579996600747,0.2999796000076458
RSVPLG03,si,20260416-163556,1.0.2,20260219-152011,824,Experiment,Both,1,Automatic,main,86,20260416-164300,local,local,750,H,H,E,E,E-H.png,E-H.png,hH,hH,mask-4.png,mask-1.png,h,1,0.2384238000959158,h,1,0.08827690000180155,0.04874510003719479,0.04997429996728897,0.09951580001506954,0.09826180001255125,0.7499294000444934
RSVPLG03,si,20260416-163556,1.0.2,20260219-152011,824,Experiment,Both,1,Automatic,main,87,20260416-164304,global,global,750,S,H,E,E,S-E.png,H-E.png,sS,hH,mask-2.png,mask-2.png,s,1,0.33729500009212643,h,1,0.3500462000956759,0.05059720005374402,0.05090159992687404,0.09932339994702488,0.10100679995957762,0.7495462000370026
RSVPLG03,si,20260416-163556,1.0.2,20260219-152011,824,Experiment,Both,1,Automatic,main,88,20260416-164309,global,local,750,S,S,E,A,S-E.png,A-S.png,sS,sS,mask-2.png,mask-1.png,s,1,0.3477610999252647,h,0,0.47003890003543347,0.0500902000349015,0.05115079996176064,0.10020780004560947,0.10171349998563528,0.7508231999818236
RSVPLG03,si,20260416-163556,1.0.2,20260219-152011,824,Experiment,Both,1,Automatic,main,89,20260416-164314,global,global,300,H,H,A,E,H-A.png,H-E.png,hH,hH,mask-1.png,mask-3.png,h,1,0.4641477999975905,h,1,0.06450089998543262,0.049348299973644316,0.04920589993707836,0.10035109997261316,0.09979639993980527,0.29999880003742874
RSVPLG03,si,20260416-163556,1.0.2,20260219-152011,824,Experiment,Both,1,Automatic,main,90,20260416-164318,global,local,300,H,S,A,E,H-A.png,E-S.png,hH,sS,mask-1.png,mask-1.png,h,1,1.4753679999848828,h,0,0.09565999999176711,0.05023349996190518,0.05044030002318323,0.1003166000591591,0.10111980000510812,0.30011289997491986
RSVPLG03,si,20260416-163556,1.0.2,20260219-152011,824,Experiment,Both,1,Automatic,main,91,20260416-164323,global,local,300,H,H,E,E,H-E.png,E-H.png,hH,hH,mask-3.png,mask-1.png,h,1,0.24645919993054122,s,0,0.08741019992157817,0.05000129994004965,0.04971259995363653,0.10136860003694892,0.10107249999418855,0.3006230000173673
RSVPLG03,si,20260416-163556,1.0.2,20260219-152011,824,Experiment,Both,1,Automatic,main,92,20260416-164327,global,global,300,S,S,E,A,S-E.png,S-A.png,sS,sS,mask-1.png,mask-3.png,s,1,0.3091664999956265,s,1,0.07817220001015812,0.04990019998513162,0.05011549999471754,0.10018169996328652,0.10035229998175055,0.3000222999835387
RSVPLG03,si,20260416-163556,1.0.2,20260219-152011,824,Experiment,Both,1,Automatic,main,93,20260416-164331,global,global,750,H,S,A,E,H-A.png,S-E.png,hH,sS,mask-4.png,mask-4.png,h,1,0.2843990999972448,s,1,0.10994989995379001,0.05087399994954467,0.04919280007015914,0.10285499994643033,0.09982360003050417,0.7504453998990357
RSVPLG03,si,20260416-163556,1.0.2,20260219-152011,824,Experiment,Both,1,Automatic,main,94,20260416-164335,global,global,750,H,H,A,A,H-A.png,H-A.png,hH,hH,mask-4.png,mask-3.png,h,1,0.3159911000402644,h,1,0.06246389995794743,0.05046689999289811,0.05028419999871403,0.10106360004283488,0.09905279998201877,0.7520356000168249
RSVPLG03,si,20260416-163556,1.0.2,20260219-152011,824,Experiment,Both,1,Automatic,main,95,20260416-164339,global,global,750,H,S,A,E,H-A.png,S-E.png,hH,sS,mask-4.png,mask-4.png,h,1,0.3894439999712631,s,1,0.11400719999801368,0.0486187000060454,0.0489490000763908,0.09926919999998063,0.09836490009911358,0.7513155000051484
RSVPLG03,si,20260416-163556,1.0.2,20260219-152011,824,Experiment,Both,1,Automatic,main,96,20260416-164344,local,global,300,S,H,E,A,E-S.png,H-A.png,sS,hH,mask-2.png,mask-1.png,s,1,1.2721531999995932,h,1,0.08988990006037056,0.05064729996956885,0.0502652000868693,0.10118030000012368,0.09927840007003397,0.30132219998631626
RSVPLG03,si,20260416-163556,1.0.2,20260219-152011,824,Experiment,Both,1,Automatic,main,97,20260416-164349,local,global,300,H,S,E,E,E-H.png,S-E.png,hH,sS,mask-2.png,mask-3.png,h,1,0.3181293000234291,s,1,0.10370580002199858,0.04956670000683516,0.050005200086161494,0.09969289996661246,0.10107770003378391,0.299210499972105
RSVPLG03,si,20260416-163556,1.0.2,20260219-152011,824,Experiment,Both,1,Automatic,main,98,20260416-164353,local,local,300,S,S,E,E,E-S.png,E-S.png,sS,sS,mask-2.png,mask-3.png,s,1,0.3677651999751106,s,1,0.09408980002626777,0.049600500031374395,0.04866409988608211,0.10008900007233024,0.09895889996550977,0.3004034000914544
RSVPLG03,si,20260416-163556,1.0.2,20260219-152011,824,Experiment,Both,1,Automatic,main,99,20260416-164357,local,global,750,H,S,E,A,E-H.png,S-A.png,hH,sS,mask-4.png,mask-4.png,h,1,0.5290400000521913,s,1,0.11036689998582006,0.04994749999605119,0.046828399994410574,0.09990040003322065,0.09706300008110702,0.7539905000012368
RSVPLG03,si,20260416-163556,1.0.2,20260219-152011,824,Experiment,Both,1,Automatic,main,100,20260416-164402,global,local,750,S,H,A,E,S-A.png,E-H.png,sS,hH,mask-2.png,mask-4.png,s,1,0.2771570000331849,s,0,0.09564319998025894,0.05059670004993677,0.04898230009712279,0.09910250001121312,0.09769239998422563,0.7517426999984309
