exp,exp_initials,runtime,ver,modtime,sub,blocktype,targets,cuetype,mode,trialtype,trial,trialtime,t1_level,t2_level,t2_lag,t1,t2,distractor1,distractor2,stimfile1,stimfile2,t1_corr,t2_corr,maskfile1,maskfile2,t1_resp,t1_acc,t1_rt,t2_resp,t2_acc,t2_rt,t1_dur,t2_dur,t1mask_soa,t2mask_soa,t1t2_soa
RSVPLG03,JM,20260219-093255,1.0.2,20251105-084826,768,Practice,T1,1,Automatic,main,1,20260219-093338,local,global,300,S,S,A,A,A-S.png,S-A.png,sS,sS,mask-1.png,mask-3.png,h,0,5.878012900240719,none,-5,0,0.04034970048815012,0.0475637000054121,0.0936041995882988,0.09959200024604797,0.29404349997639656
RSVPLG03,JM,20260219-093255,1.0.2,20251105-084826,768,Practice,T1,1,Automatic,main,2,20260219-093347,global,global,750,H,S,A,A,H-A.png,S-A.png,hH,sS,mask-2.png,mask-1.png,h,1,2.272904299199581,none,-5,0,0.04739100020378828,0.04748050030320883,0.099226800724864,0.10051120072603226,0.7502611000090837
RSVPLG03,JM,20260219-093255,1.0.2,20251105-084826,768,Practice,T1,1,Automatic,main,3,20260219-093353,global,local,750,H,H,A,E,H-A.png,E-H.png,hH,hH,mask-4.png,mask-1.png,s,0,2.884468000382185,none,-5,0,0.04751630034297705,0.047503200359642506,0.09872580040246248,0.09952300041913986,0.7501215999945998
RSVPLG03,JM,20260219-093255,1.0.2,20251105-084826,768,Practice,T1,1,Automatic,main,4,20260219-093400,local,local,750,S,H,A,A,A-S.png,A-H.png,sS,hH,mask-3.png,mask-2.png,s,1,1.9299889001995325,none,-5,0,0.04767279978841543,0.046715899370610714,0.09958819951862097,0.09815960004925728,0.7502795998007059
RSVPLG03,JM,20260219-093255,1.0.2,20251105-084826,768,Practice,T1,1,Automatic,main,5,20260219-093406,local,global,300,S,S,E,E,E-S.png,S-E.png,sS,sS,mask-4.png,mask-4.png,s,1,1.1319113001227379,none,-5,0,0.046828700229525566,0.04671949986368418,0.1001406004652381,0.09954070020467043,0.30112280044704676
RSVPLG03,JM,20260219-093255,1.0.2,20251105-084826,768,Practice,T1,1,Automatic,main,6,20260219-093411,local,global,750,S,S,A,E,A-S.png,S-E.png,sS,sS,mask-4.png,mask-4.png,s,1,1.2341844998300076,none,-5,0,0.04660260025411844,0.04760640021413565,0.09811910055577755,0.09966380055993795,0.749931899830699
RSVPLG03,JM,20260219-093255,1.0.2,20251105-084826,768,Practice,T1,1,Automatic,main,7,20260219-093416,global,local,750,S,S,A,A,S-A.png,A-S.png,sS,sS,mask-3.png,mask-4.png,s,1,0.7647543996572495,none,-5,0,0.048831299878656864,0.0467377994209528,0.10236969962716103,0.10017599910497665,0.7521657003089786
RSVPLG03,JM,20260219-093255,1.0.2,20251105-084826,768,Practice,T1,1,Automatic,main,8,20260219-093421,global,local,300,H,S,E,E,H-E.png,E-S.png,hH,sS,mask-3.png,mask-3.png,s,0,1.0968981003388762,none,-5,0,0.046480399556457996,0.04629850015044212,0.09965409990400076,0.09860070049762726,0.3002311997115612
RSVPLG03,JM,20260219-093255,1.0.2,20251105-084826,768,Practice,T1,1,Automatic,main,9,20260219-093426,global,local,300,S,S,E,E,S-E.png,E-S.png,sS,sS,mask-4.png,mask-4.png,s,1,1.3082115007564425,none,-5,0,0.04748840071260929,0.04640650004148483,0.10045710019767284,0.10024330019950867,0.3016901006922126
RSVPLG03,JM,20260219-093255,1.0.2,20251105-084826,768,Practice,T1,1,Automatic,main,10,20260219-093431,global,global,300,H,H,E,E,H-E.png,H-E.png,hH,hH,mask-4.png,mask-2.png,h,1,0.7714535994455218,none,-5,0,0.04892610013484955,0.04985189996659756,0.10103510040789843,0.09990369994193316,0.2998252008110285
RSVPLG03,JM,20260219-093255,1.0.2,20251105-084826,768,Practice,T1,1,Automatic,main,11,20260219-093435,global,global,750,S,S,A,E,S-A.png,S-E.png,sS,sS,mask-3.png,mask-4.png,s,1,0.8981552002951503,none,-5,0,0.04771699942648411,0.04770409967750311,0.10088039934635162,0.10076950024813414,0.7499762997031212
RSVPLG03,JM,20260219-093255,1.0.2,20251105-084826,768,Practice,T1,1,Automatic,main,12,20260219-093440,local,local,300,H,H,A,E,A-H.png,E-H.png,hH,hH,mask-2.png,mask-2.png,h,1,0.8023334005847573,none,-5,0,0.04752719961106777,0.04639879986643791,0.09854040015488863,0.09937150031328201,0.30018389970064163
RSVPLG03,JM,20260219-093255,1.0.2,20251105-084826,768,Practice,T1,1,Automatic,main,13,20260219-093444,local,local,750,H,S,A,A,A-H.png,A-S.png,hH,sS,mask-3.png,mask-2.png,h,1,0.4680422004312277,none,-5,0,0.04721400048583746,0.04725989978760481,0.0999974999576807,0.10032379999756813,0.7498936001211405
RSVPLG03,JM,20260219-093255,1.0.2,20251105-084826,768,Practice,T1,1,Automatic,main,14,20260219-093449,local,global,750,H,H,A,A,A-H.png,H-A.png,hH,hH,mask-3.png,mask-4.png,h,1,0.6899885004386306,none,-5,0,0.046104200184345245,0.04772510007023811,0.09793750010430813,0.10000870004296303,0.7486533997580409
RSVPLG03,JM,20260219-093255,1.0.2,20251105-084826,768,Practice,T1,1,Automatic,main,15,20260219-093453,global,global,300,S,H,E,A,S-E.png,H-A.png,sS,hH,mask-1.png,mask-2.png,s,1,0.47089659981429577,none,-5,0,0.04969380050897598,0.04566350020468235,0.10176290012896061,0.09989400021731853,0.30201820004731417
RSVPLG03,JM,20260219-093255,1.0.2,20251105-084826,768,Practice,T1,1,Automatic,main,16,20260219-093457,local,local,300,H,S,E,A,E-H.png,A-S.png,hH,sS,mask-2.png,mask-1.png,h,1,1.0482668997719884,none,-5,0,0.04777219984680414,0.0453817006200552,0.10015609953552485,0.09913550037890673,0.300777499563992
RSVPLG03,JM,20260219-093632,1.0.2,20251105-084826,768,Practice,Both,1,Automatic,main,1,20260219-093732,global,local,750,H,H,A,A,H-A.png,A-H.png,hH,hH,mask-3.png,mask-3.png,h,1,1.13532240036875,s,0,1.3141663996502757,0.04785939957946539,0.04772629961371422,0.10068629961460829,0.10075989924371243,0.7492500003427267
RSVPLG03,JM,20260219-093632,1.0.2,20251105-084826,768,Practice,Both,1,Automatic,main,2,20260219-093739,global,local,300,H,H,E,E,H-E.png,E-H.png,hH,hH,mask-4.png,mask-2.png,h,1,1.0441733999177814,s,0,1.4505600994452834,0.04700120072811842,0.048699299804866314,0.09978460054844618,0.10179200023412704,0.29855490010231733
RSVPLG03,JM,20260219-093632,1.0.2,20251105-084826,768,Practice,Both,1,Automatic,main,3,20260219-093745,local,global,300,S,H,E,A,E-S.png,H-A.png,sS,hH,mask-2.png,mask-3.png,s,1,0.6796212000772357,h,1,1.1910974998027086,0.04751850012689829,0.04753750003874302,0.10089540015906096,0.09929780010133982,0.3004000997170806
RSVPLG03,JM,20260219-093632,1.0.2,20251105-084826,768,Practice,Both,1,Automatic,main,4,20260219-093751,local,global,300,H,H,A,A,A-H.png,H-A.png,hH,hH,mask-2.png,mask-3.png,h,1,0.7431110003963113,s,0,1.3496246002614498,0.04923370014876127,0.04693050030618906,0.09930920042097569,0.10128630045801401,0.3001757003366947
RSVPLG03,JM,20260219-093632,1.0.2,20251105-084826,768,Practice,Both,1,Automatic,main,5,20260219-093756,local,local,750,S,S,E,A,E-S.png,A-S.png,sS,sS,mask-1.png,mask-4.png,s,1,0.8973539005964994,h,0,0.6476632999256253,0.04773059953004122,0.04855529963970184,0.09888079948723316,0.10173670016229153,0.7476532999426126
RSVPLG03,JM,20260219-093632,1.0.2,20251105-084826,768,Practice,Both,1,Automatic,main,6,20260219-093802,local,local,300,H,H,E,E,E-H.png,E-H.png,hH,hH,mask-3.png,mask-2.png,h,1,0.5585338994860649,s,0,1.1230144007131457,0.04846480023115873,0.047515700571238995,0.10147219989448786,0.09954880084842443,0.3017548993229866
RSVPLG03,JM,20260219-093632,1.0.2,20251105-084826,768,Practice,Both,1,Automatic,main,7,20260219-093808,local,local,750,S,S,E,A,E-S.png,A-S.png,sS,sS,mask-3.png,mask-2.png,s,1,0.9305592002347112,h,0,0.7452883003279567,0.04622669983655214,0.047508999705314636,0.09928650036454201,0.10152789950370789,0.7489231005311012
RSVPLG03,JM,20260219-093632,1.0.2,20251105-084826,768,Practice,Both,1,Automatic,main,8,20260219-093813,local,global,750,S,H,A,E,A-S.png,H-E.png,sS,hH,mask-3.png,mask-1.png,h,0,0.641864599660039,s,0,0.8123463997617364,0.04749790020287037,0.04652039986103773,0.09849799983203411,0.10052680037915707,0.7490847995504737
RSVPLG03,JM,20260219-093632,1.0.2,20251105-084826,768,Practice,Both,1,Automatic,main,9,20260219-093819,local,global,750,S,H,A,A,A-S.png,H-A.png,sS,hH,mask-3.png,mask-4.png,h,0,1.2489147000014782,s,0,0.4227053001523018,0.046732899732887745,0.04640140011906624,0.09954770002514124,0.100492799654603,0.7506574001163244
RSVPLG03,JM,20260219-093632,1.0.2,20251105-084826,768,Practice,Both,1,Automatic,main,10,20260219-093825,global,local,750,S,S,A,A,S-A.png,A-S.png,sS,sS,mask-2.png,mask-4.png,s,1,1.1096374997869134,h,0,0.8358204001560807,0.047659299336373806,0.04866490047425032,0.10076879989355803,0.1017227005213499,0.7496794993057847
RSVPLG03,JM,20260219-093632,1.0.2,20251105-084826,768,Practice,Both,1,Automatic,main,11,20260219-093831,global,global,300,H,S,A,E,H-A.png,S-E.png,hH,sS,mask-4.png,mask-2.png,h,1,0.8444940000772476,s,1,0.4119453998282552,0.047515000216662884,0.04754739999771118,0.09974690061062574,0.09868689998984337,0.3009897004812956
RSVPLG03,JM,20260219-093632,1.0.2,20251105-084826,768,Practice,Both,1,Automatic,main,12,20260219-093836,local,local,300,H,H,A,A,A-H.png,A-H.png,hH,hH,mask-3.png,mask-2.png,h,1,1.2682777000591159,s,0,1.782484200783074,0.04640769958496094,0.04651020001620054,0.09924519993364811,0.09985470026731491,0.2991836993023753
RSVPLG03,JM,20260219-093632,1.0.2,20251105-084826,768,Practice,Both,1,Automatic,main,13,20260219-093842,global,global,300,S,H,A,E,S-A.png,H-E.png,sS,hH,mask-1.png,mask-3.png,s,1,0.6246024994179606,h,1,1.1075910003855824,0.04870939999818802,0.04756319988518953,0.1011616000905633,0.09909139946103096,0.30112050008028746
RSVPLG03,JM,20260219-093632,1.0.2,20251105-084826,768,Practice,Both,1,Automatic,main,14,20260219-093848,global,global,750,H,H,E,E,H-E.png,H-E.png,hH,hH,mask-1.png,mask-1.png,h,1,1.1991694001480937,h,1,0.4501389004290104,0.04669930040836334,0.04858450032770634,0.09998840000480413,0.09974469989538193,0.7489422997459769
RSVPLG03,JM,20260219-093632,1.0.2,20251105-084826,768,Practice,Both,1,Automatic,main,15,20260219-093854,global,local,300,S,S,A,E,S-A.png,E-S.png,sS,sS,mask-2.png,mask-1.png,h,0,0.7677202001214027,s,1,0.349405599758029,0.046856099739670753,0.048573500476777554,0.09818159975111485,0.10064360033720732,0.2982680993154645
RSVPLG03,JM,20260219-093632,1.0.2,20251105-084826,768,Practice,Both,1,Automatic,main,16,20260219-093858,global,global,750,H,H,A,E,H-A.png,H-E.png,hH,hH,mask-2.png,mask-4.png,h,1,0.8720308998599648,h,1,0.36321090068668127,0.04888369981199503,0.04664629977196455,0.10195640008896589,0.09869479946792126,0.7515441998839378
RSVPLG03,JM,20260219-093939,1.0.2,20251105-084826,768,Practice,Both,1,Automatic,main,1,20260219-094004,global,local,750,S,H,E,E,S-E.png,E-H.png,sS,hH,mask-4.png,mask-2.png,s,1,0.8431879002600908,s,0,0.855740699917078,0.04479019995778799,0.04769679997116327,0.09833339974284172,0.10195829998701811,0.7521612998098135
RSVPLG03,JM,20260219-093939,1.0.2,20251105-084826,768,Practice,Both,1,Automatic,main,2,20260219-094010,global,local,300,H,H,E,A,H-E.png,A-H.png,hH,hH,mask-1.png,mask-3.png,h,1,0.7569461995735765,h,1,0.388858700171113,0.04766989964991808,0.04771439917385578,0.10185049939900637,0.09914439916610718,0.30319750029593706
RSVPLG03,JM,20260219-093939,1.0.2,20251105-084826,768,Practice,Both,1,Automatic,main,3,20260219-094015,global,global,750,S,H,E,E,S-E.png,H-E.png,sS,hH,mask-2.png,mask-1.png,s,1,0.8803741000592709,h,1,0.2843086002394557,0.04668099991977215,0.04776190035045147,0.09989199973642826,0.10085020028054714,0.7548697991296649
RSVPLG03,JM,20260219-093939,1.0.2,20251105-084826,768,Practice,Both,1,Automatic,main,4,20260219-094020,local,global,750,S,S,E,E,E-S.png,S-E.png,sS,sS,mask-1.png,mask-4.png,s,1,0.9373431000858545,s,1,0.20074350014328957,0.04851610027253628,0.04750030022114515,0.10054669994860888,0.10048990044742823,0.7551122000440955
RSVPLG03,JM,20260219-093939,1.0.2,20251105-084826,768,Practice,Both,1,Automatic,main,5,20260219-094025,local,local,300,H,S,E,A,E-H.png,A-S.png,hH,sS,mask-3.png,mask-2.png,h,1,0.6474572001025081,h,0,0.38917009998112917,0.04959010053426027,0.04651680029928684,0.10192649997770786,0.09935500007122755,0.303762000054121
RSVPLG03,JM,20260219-093939,1.0.2,20251105-084826,768,Practice,Both,1,Automatic,main,6,20260219-094030,global,local,750,H,H,E,E,H-E.png,E-H.png,hH,hH,mask-3.png,mask-3.png,h,1,0.838498099707067,h,1,0.3478314997628331,0.04682719986885786,0.04765859991312027,0.09958049934357405,0.10148699954152107,0.7537628998979926
RSVPLG03,JM,20260219-093939,1.0.2,20251105-084826,768,Practice,Both,1,Automatic,main,7,20260219-094035,local,local,750,H,H,A,A,A-H.png,A-H.png,hH,hH,mask-1.png,mask-1.png,h,1,0.6145733995363116,h,1,0.2604040000587702,0.04627539962530136,0.049589499831199646,0.09932009968906641,0.10160240065306425,0.7539278995245695
RSVPLG03,JM,20260219-093939,1.0.2,20251105-084826,768,Practice,Both,1,Automatic,main,8,20260219-094040,global,global,300,H,H,A,A,H-A.png,H-A.png,hH,hH,mask-1.png,mask-2.png,h,1,0.5626790001988411,h,1,0.28915209975093603,0.04912330023944378,0.04958759993314743,0.10123580042272806,0.10162109974771738,0.30195780005306005
RSVPLG03,JM,20260219-093939,1.0.2,20251105-084826,768,Practice,Both,1,Automatic,main,9,20260219-094045,local,local,300,S,S,A,E,A-S.png,E-S.png,sS,sS,mask-1.png,mask-3.png,h,0,0.43746349960565567,s,1,0.22466109972447157,0.048669399693608284,0.04596030060201883,0.10174790024757385,0.10007620044052601,0.30354619957506657
RSVPLG03,JM,20260219-093939,1.0.2,20251105-084826,768,Practice,Both,1,Automatic,main,10,20260219-094049,global,local,300,H,S,E,A,H-E.png,A-S.png,hH,sS,mask-2.png,mask-1.png,h,1,0.6906859995797276,h,0,0.2631173999980092,0.047679499723017216,0.0474482998251915,0.09915149956941605,0.10038880072534084,0.30218399967998266
RSVPLG03,JM,20260219-093939,1.0.2,20251105-084826,768,Practice,Both,1,Automatic,main,11,20260219-094054,local,local,750,H,H,A,E,A-H.png,E-H.png,hH,hH,mask-3.png,mask-3.png,h,1,0.7965879999101162,s,0,0.26342919934540987,0.04867090005427599,0.04773470014333725,0.10186489950865507,0.10169250052422285,0.7546195993199944
RSVPLG03,JM,20260219-093939,1.0.2,20251105-084826,768,Practice,Both,1,Automatic,main,12,20260219-094059,global,global,750,H,S,A,A,H-A.png,S-A.png,hH,sS,mask-1.png,mask-1.png,h,1,0.552306099794805,s,1,0.271148799918592,0.04768599942326546,0.047686200588941574,0.10016519948840141,0.10034020058810711,0.7562149995937943
RSVPLG03,JM,20260219-093939,1.0.2,20251105-084826,768,Practice,Both,1,Automatic,main,13,20260219-094104,local,global,300,H,H,A,A,A-H.png,H-A.png,hH,hH,mask-3.png,mask-2.png,h,1,0.42597030010074377,h,1,0.26081550028175116,0.04742729943245649,0.0475531006231904,0.10037750005722046,0.10188100021332502,0.3015383994206786
RSVPLG03,JM,20260219-093939,1.0.2,20251105-084826,768,Practice,Both,1,Automatic,main,14,20260219-094108,local,global,750,H,S,E,E,E-H.png,S-E.png,hH,sS,mask-2.png,mask-2.png,h,1,0.5072431992739439,s,1,0.2062089992687106,0.04964340012520552,0.04852550011128187,0.1008804002776742,0.10153689980506897,0.7552773002535105
RSVPLG03,JM,20260219-093939,1.0.2,20251105-084826,768,Practice,Both,1,Automatic,main,15,20260219-094113,local,global,300,S,S,A,A,A-S.png,S-A.png,sS,sS,mask-1.png,mask-3.png,h,0,0.6023573996499181,s,1,0.23430449981242418,0.047752900049090385,0.04765919968485832,0.1019255006685853,0.10182810015976429,0.3025122005492449
RSVPLG03,JM,20260219-093939,1.0.2,20251105-084826,768,Practice,Both,1,Automatic,main,16,20260219-094118,global,global,300,H,H,A,E,H-A.png,H-E.png,hH,hH,mask-2.png,mask-3.png,h,1,0.5612064003944397,h,1,0.2786912005394697,0.04798329994082451,0.04910830035805702,0.10031179990619421,0.10124420002102852,0.3018239997327328
RSVPLG03,JM,20260219-094201,1.0.2,20251105-084826,768,Practice,Both,1,Automatic,main,1,20260219-094219,local,local,750,H,S,A,E,A-H.png,E-S.png,hH,sS,mask-4.png,mask-2.png,h,1,0.6114694997668266,s,1,0.4355068998411298,0.04022509977221489,0.04795140027999878,0.09302670042961836,0.10081700049340725,0.7416874999180436
RSVPLG03,JM,20260219-094201,1.0.2,20251105-084826,768,Practice,Both,1,Automatic,main,2,20260219-094224,global,local,300,S,H,E,A,S-E.png,A-H.png,sS,hH,mask-4.png,mask-1.png,s,1,0.8017906993627548,h,1,0.3339820997789502,0.04869120009243488,0.04760660044848919,0.09995479974895716,0.10104779992252588,0.29952779971063137
RSVPLG03,JM,20260219-094201,1.0.2,20251105-084826,768,Practice,Both,1,Automatic,main,3,20260219-094229,global,local,750,H,H,A,E,H-A.png,E-H.png,hH,hH,mask-4.png,mask-1.png,h,1,0.5545879006385803,h,1,0.4243943002074957,0.04696150030940771,0.04771950002759695,0.1013940004631877,0.1000224994495511,0.7506249006837606
RSVPLG03,JM,20260219-094201,1.0.2,20251105-084826,768,Practice,Both,1,Automatic,main,4,20260219-094234,global,global,300,S,H,A,A,S-A.png,H-A.png,sS,hH,mask-3.png,mask-3.png,s,1,0.4273046003654599,h,1,0.21181700006127357,0.048194900155067444,0.047100700438022614,0.1009802995249629,0.10116189997643232,0.29937339946627617
RSVPLG03,JM,20260219-094201,1.0.2,20251105-084826,768,Practice,Both,1,Automatic,main,5,20260219-094238,local,local,750,S,H,A,E,A-S.png,E-H.png,sS,hH,mask-4.png,mask-4.png,h,0,0.43225990049540997,h,1,0.24558729957789183,0.04746929928660393,0.04734839964658022,0.0999035993590951,0.09927759971469641,0.7499949997290969
RSVPLG03,JM,20260219-094201,1.0.2,20251105-084826,768,Practice,Both,1,Automatic,main,6,20260219-094243,global,global,300,S,S,E,A,S-E.png,S-A.png,sS,sS,mask-1.png,mask-2.png,s,1,0.5061307996511459,s,1,0.40639419946819544,0.04752769973129034,0.04710389953106642,0.10152039956301451,0.09912559948861599,0.30169110000133514
RSVPLG03,JM,20260219-094201,1.0.2,20251105-084826,768,Practice,Both,1,Automatic,main,7,20260219-094248,global,local,750,H,S,A,E,H-A.png,E-S.png,hH,sS,mask-2.png,mask-3.png,h,1,0.6332516996189952,s,1,0.2628627000376582,0.04771040007472038,0.04764749947935343,0.099754199385643,0.09979519993066788,0.750208499841392
RSVPLG03,JM,20260219-094201,1.0.2,20251105-084826,768,Practice,Both,1,Automatic,main,8,20260219-094253,local,global,300,H,S,A,A,A-H.png,S-A.png,hH,sS,mask-1.png,mask-1.png,h,1,0.46487889997661114,s,1,0.2622832003980875,0.048055499792099,0.047807300463318825,0.09991800040006638,0.09972640033811331,0.3008391996845603
RSVPLG03,JM,20260219-094201,1.0.2,20251105-084826,768,Practice,Both,1,Automatic,main,9,20260219-094257,global,global,750,S,H,A,E,S-A.png,H-E.png,sS,hH,mask-4.png,mask-1.png,s,1,1.1104337004944682,h,1,0.42951919976621866,0.04772489983588457,0.04720450006425381,0.09954710025340319,0.1009143004193902,0.7493102997541428
RSVPLG03,JM,20260219-094201,1.0.2,20251105-084826,768,Practice,Both,1,Automatic,main,10,20260219-094303,local,global,750,S,H,E,E,E-S.png,H-E.png,sS,hH,mask-2.png,mask-4.png,s,1,1.1039516003802419,h,1,0.33203980047255754,0.04850930068641901,0.04640840087085962,0.10057280026376247,0.09934100043028593,0.7506908997893333
RSVPLG03,JM,20260219-094201,1.0.2,20251105-084826,768,Practice,Both,1,Automatic,main,11,20260219-094308,local,local,300,H,H,E,A,E-H.png,A-H.png,hH,hH,mask-1.png,mask-2.png,h,1,0.9245247999206185,h,1,0.2947492999956012,0.04709620028734207,0.046687000431120396,0.10144999995827675,0.09994470048695803,0.30113840010017157
RSVPLG03,JM,20260219-094201,1.0.2,20251105-084826,768,Practice,Both,1,Automatic,main,12,20260219-094313,global,local,300,H,S,E,E,H-E.png,E-S.png,hH,sS,mask-3.png,mask-4.png,h,1,0.41844260040670633,s,1,0.32967460062354803,0.04665250051766634,0.04766220040619373,0.09972360078245401,0.10017720051109791,0.29969870019704103
RSVPLG03,JM,20260219-094201,1.0.2,20251105-084826,768,Practice,Both,1,Automatic,main,13,20260219-094317,global,global,750,S,S,E,E,S-E.png,S-E.png,sS,sS,mask-2.png,mask-2.png,s,1,0.7198338005691767,s,1,0.2346581006422639,0.04765950050204992,0.04565580002963543,0.1008542999625206,0.09982850030064583,0.7511240998283029
RSVPLG03,JM,20260219-094201,1.0.2,20251105-084826,768,Practice,Both,1,Automatic,main,14,20260219-094322,local,global,300,H,H,A,E,A-H.png,H-E.png,hH,hH,mask-3.png,mask-1.png,h,1,0.4102667002007365,h,1,0.37116589955985546,0.04767479933798313,0.04689389932900667,0.09986089915037155,0.09997429978102446,0.299520299769938
RSVPLG03,JM,20260219-094201,1.0.2,20251105-084826,768,Practice,Both,1,Automatic,main,15,20260219-094327,local,local,300,S,S,E,A,E-S.png,A-S.png,sS,sS,mask-3.png,mask-2.png,s,1,0.7976788999512792,h,0,0.16310690063983202,0.04680510051548481,0.048665400594472885,0.09937640000134706,0.10078400000929832,0.29979339987039566
RSVPLG03,JM,20260219-094201,1.0.2,20251105-084826,768,Practice,Both,1,Automatic,main,16,20260219-094331,local,global,750,H,S,A,E,A-H.png,S-E.png,hH,sS,mask-2.png,mask-2.png,h,1,0.9720227997750044,s,1,0.1561041995882988,0.04794569965451956,0.04671220015734434,0.10030820034444332,0.09863079991191626,0.749910700134933
RSVPLG03,JM,20260219-094521,1.0.2,20251105-084826,768,Experiment,T1,1,Automatic,warmup,1,20260219-094552,local,global,300,S,H,E,E,E-S.png,H-E.png,sS,hH,mask-3.png,mask-1.png,s,1,1.4925031000748277,none,-5,0,0.040028899908065796,0.04739859979599714,0.09183260053396225,0.09924659971147776,0.29214860033243895
RSVPLG03,JM,20260219-094521,1.0.2,20251105-084826,768,Experiment,T1,1,Automatic,warmup,2,20260219-094557,global,local,300,H,S,E,A,H-E.png,A-S.png,hH,sS,mask-4.png,mask-1.png,h,1,0.9054812993854284,none,-5,0,0.048192200250923634,0.04729759972542524,0.10125910025089979,0.09829950053244829,0.30093260016292334
RSVPLG03,JM,20260219-094521,1.0.2,20251105-084826,768,Experiment,T1,1,Automatic,warmup,3,20260219-094601,local,global,750,S,H,E,A,E-S.png,H-A.png,sS,hH,mask-3.png,mask-3.png,s,1,0.9492498999461532,none,-5,0,0.047418899834156036,0.047223699279129505,0.09963009972125292,0.09915830008685589,0.7471478004008532
RSVPLG03,JM,20260219-094521,1.0.2,20251105-084826,768,Experiment,T1,1,Automatic,warmup,4,20260219-094606,local,local,300,S,H,A,A,A-S.png,A-H.png,sS,hH,mask-4.png,mask-4.png,h,0,0.7982554994523525,none,-5,0,0.04712039977312088,0.046755800023674965,0.10073390044271946,0.09795669931918383,0.30058270040899515
RSVPLG03,JM,20260219-094521,1.0.2,20251105-084826,768,Experiment,T1,1,Automatic,main,5,20260219-094610,local,global,300,S,S,A,E,A-S.png,S-E.png,sS,sS,mask-4.png,mask-3.png,h,0,0.7290562000125647,none,-5,0,0.048078699968755245,0.045767500065267086,0.09919970016926527,0.0996043998748064,0.2997035002335906
RSVPLG03,JM,20260219-094521,1.0.2,20251105-084826,768,Experiment,T1,1,Automatic,main,6,20260219-094615,local,local,750,S,S,A,A,A-S.png,A-S.png,sS,sS,mask-4.png,mask-3.png,h,0,0.47004649974405766,none,-5,0,0.04669769946485758,0.047000300139188766,0.0983927994966507,0.09918340016156435,0.7462177993729711
RSVPLG03,JM,20260219-094521,1.0.2,20251105-084826,768,Experiment,T1,1,Automatic,main,7,20260219-094619,local,global,300,H,S,E,E,E-H.png,S-E.png,hH,sS,mask-4.png,mask-3.png,s,0,0.718771000392735,none,-5,0,0.04672850016504526,0.047408600337803364,0.09992399998009205,0.09888309985399246,0.29856219980865717
RSVPLG03,JM,20260219-094521,1.0.2,20251105-084826,768,Experiment,T1,1,Automatic,main,8,20260219-094623,global,global,750,H,S,E,E,H-E.png,S-E.png,hH,sS,mask-3.png,mask-1.png,h,1,0.40214870031923056,none,-5,0,0.04849560000002384,0.047488199546933174,0.10047009959816933,0.09905079938471317,0.7489135004580021
RSVPLG03,JM,20260219-094521,1.0.2,20251105-084826,768,Experiment,T1,1,Automatic,main,9,20260219-094628,local,global,750,H,S,E,A,E-H.png,S-A.png,hH,sS,mask-4.png,mask-4.png,s,0,0.5974693996831775,none,-5,0,0.04702990036457777,0.04769690055400133,0.09873900003731251,0.09970459993928671,0.7478122999891639
RSVPLG03,JM,20260219-094521,1.0.2,20251105-084826,768,Experiment,T1,1,Automatic,main,10,20260219-094632,global,local,300,S,H,A,A,S-A.png,A-H.png,sS,hH,mask-4.png,mask-1.png,h,0,0.8076939005404711,none,-5,0,0.04766399972140789,0.04668719973415136,0.09984499961137772,0.0998684000223875,0.2997316000983119
RSVPLG03,JM,20260219-094521,1.0.2,20251105-084826,768,Experiment,T1,1,Automatic,main,11,20260219-094637,global,local,750,S,H,E,E,S-E.png,E-H.png,sS,hH,mask-3.png,mask-3.png,h,0,1.5356462998315692,none,-5,0,0.04767199978232384,0.04653950035572052,0.10073990002274513,0.09970779996365309,0.7481111995875835
RSVPLG03,JM,20260219-094521,1.0.2,20251105-084826,768,Experiment,T1,1,Automatic,main,12,20260219-094642,local,global,300,S,H,A,E,A-S.png,H-E.png,sS,hH,mask-1.png,mask-2.png,h,0,0.8960504997521639,none,-5,0,0.04488599952310324,0.04664640035480261,0.09882980026304722,0.09901180025190115,0.29785249941051006
RSVPLG03,JM,20260219-094521,1.0.2,20251105-084826,768,Experiment,T1,1,Automatic,main,13,20260219-094647,global,global,300,S,S,E,E,S-E.png,S-E.png,sS,sS,mask-1.png,mask-4.png,s,1,0.47408549953252077,none,-5,0,0.048360700719058514,0.04715050011873245,0.10037070047110319,0.09934190008789301,0.3002074006944895
RSVPLG03,JM,20260219-094521,1.0.2,20251105-084826,768,Experiment,T1,1,Automatic,main,14,20260219-094651,global,local,750,H,H,A,E,H-A.png,E-H.png,hH,hH,mask-1.png,mask-1.png,h,1,0.4317025998607278,none,-5,0,0.04757799953222275,0.046017699874937534,0.10061960015445948,0.09952559974044561,0.7484646998345852
RSVPLG03,JM,20260219-094521,1.0.2,20251105-084826,768,Experiment,T1,1,Automatic,main,15,20260219-094655,global,global,750,S,H,E,E,S-E.png,H-E.png,sS,hH,mask-2.png,mask-2.png,s,1,0.854831799864769,none,-5,0,0.0465700002387166,0.04792729951441288,0.09970350004732609,0.10099110007286072,0.746229600161314
RSVPLG03,JM,20260219-094521,1.0.2,20251105-084826,768,Experiment,T1,1,Automatic,main,16,20260219-094700,local,global,750,S,H,E,E,E-S.png,H-E.png,sS,hH,mask-2.png,mask-4.png,s,1,0.48862600047141314,none,-5,0,0.04801070038229227,0.04582489933818579,0.09956410061568022,0.09886909928172827,0.7492200005799532
RSVPLG03,JM,20260219-094521,1.0.2,20251105-084826,768,Experiment,T1,1,Automatic,main,17,20260219-094704,local,local,750,S,H,A,E,A-S.png,E-H.png,sS,hH,mask-1.png,mask-1.png,h,0,0.3756071999669075,none,-5,0,0.04818950034677982,0.047709899954497814,0.09953060001134872,0.09957680013030767,0.746449800208211
RSVPLG03,JM,20260219-094521,1.0.2,20251105-084826,768,Experiment,T1,1,Automatic,main,18,20260219-094709,local,global,300,S,H,E,A,E-S.png,H-A.png,sS,hH,mask-2.png,mask-4.png,s,1,1.5706074004992843,none,-5,0,0.04865569993853569,0.04573639947921038,0.1007084995508194,0.09986760001629591,0.299579800106585
RSVPLG03,JM,20260219-094521,1.0.2,20251105-084826,768,Experiment,T1,1,Automatic,main,19,20260219-094714,local,global,300,H,S,E,A,E-H.png,S-A.png,hH,sS,mask-4.png,mask-4.png,h,1,0.8798288004472852,none,-5,0,0.04755979962646961,0.04862299934029579,0.0995423998683691,0.10179230011999607,0.2981035001575947
RSVPLG03,JM,20260219-094521,1.0.2,20251105-084826,768,Experiment,T1,1,Automatic,main,20,20260219-094718,local,global,750,S,S,A,A,A-S.png,S-A.png,sS,sS,mask-3.png,mask-4.png,h,0,0.4173815995454788,none,-5,0,0.04656300041824579,0.046662899665534496,0.09947139956057072,0.09981940034776926,0.7467579999938607
RSVPLG03,JM,20260219-094521,1.0.2,20251105-084826,768,Experiment,T1,1,Automatic,main,21,20260219-094722,global,local,750,S,S,E,E,S-E.png,E-S.png,sS,sS,mask-1.png,mask-3.png,s,1,1.0437254002317786,none,-5,0,0.0467057004570961,0.04691020026803017,0.09989820048213005,0.10019200015813112,0.7471585003659129
RSVPLG03,JM,20260219-094521,1.0.2,20251105-084826,768,Experiment,T1,1,Automatic,main,22,20260219-094727,global,global,750,S,H,A,E,S-A.png,H-E.png,sS,hH,mask-3.png,mask-4.png,s,1,0.6725818999111652,none,-5,0,0.04768459964543581,0.04774530045688152,0.09988540038466454,0.10037060081958771,0.7470004996284842
RSVPLG03,JM,20260219-094521,1.0.2,20251105-084826,768,Experiment,T1,1,Automatic,main,23,20260219-094732,local,global,750,H,H,A,A,A-H.png,H-A.png,hH,hH,mask-4.png,mask-3.png,h,1,0.39878449961543083,none,-5,0,0.04767229966819286,0.04767889995127916,0.09985939972102642,0.09991299919784069,0.7484405003488064
RSVPLG03,JM,20260219-094521,1.0.2,20251105-084826,768,Experiment,T1,1,Automatic,main,24,20260219-094737,local,local,300,H,S,A,A,A-H.png,A-S.png,hH,sS,mask-1.png,mask-1.png,h,1,0.4980712002143264,none,-5,0,0.047563000582158566,0.04566979967057705,0.10078079998493195,0.09792159963399172,0.3003104003146291
RSVPLG03,JM,20260219-094521,1.0.2,20251105-084826,768,Experiment,T1,1,Automatic,main,25,20260219-094741,local,global,750,H,S,E,E,E-H.png,S-E.png,hH,sS,mask-3.png,mask-1.png,h,1,0.42211980000138283,none,-5,0,0.046360100619494915,0.04657469969242811,0.09934860002249479,0.09830359928309917,0.7477474007755518
RSVPLG03,JM,20260219-094521,1.0.2,20251105-084826,768,Experiment,T1,1,Automatic,main,26,20260219-094810,global,global,300,H,S,A,A,H-A.png,S-A.png,hH,sS,mask-2.png,mask-2.png,h,1,0.39392129983752966,none,-5,0,0.04767450038343668,0.0476397005841136,0.10071980021893978,0.0989585006609559,0.2984501998871565
RSVPLG03,JM,20260219-094521,1.0.2,20251105-084826,768,Experiment,T1,1,Automatic,main,27,20260219-094814,global,local,750,S,S,E,A,S-E.png,A-S.png,sS,sS,mask-1.png,mask-2.png,s,1,0.4659152003005147,none,-5,0,0.0472919000312686,0.047685000114142895,0.09860000014305115,0.10024460032582283,0.7474877992644906
RSVPLG03,JM,20260219-094521,1.0.2,20251105-084826,768,Experiment,T1,1,Automatic,main,28,20260219-094819,local,local,300,H,S,E,E,E-H.png,E-S.png,hH,sS,mask-1.png,mask-1.png,h,1,0.4647410996258259,none,-5,0,0.04584959987550974,0.04768970049917698,0.09761330019682646,0.09989430010318756,0.2983544999733567
RSVPLG03,JM,20260219-094521,1.0.2,20251105-084826,768,Experiment,T1,1,Automatic,main,29,20260219-094823,global,global,750,S,S,A,A,S-A.png,S-A.png,sS,sS,mask-3.png,mask-2.png,h,0,0.43330280017107725,none,-5,0,0.047691899351775646,0.047113300301134586,0.10060520004481077,0.10023480001837015,0.7471030997112393
RSVPLG03,JM,20260219-094521,1.0.2,20251105-084826,768,Experiment,T1,1,Automatic,main,30,20260219-094827,local,local,300,H,H,A,A,A-H.png,A-H.png,hH,hH,mask-2.png,mask-1.png,h,1,0.3384926002472639,none,-5,0,0.046622700057923794,0.045799000188708305,0.09964890033006668,0.09792170021682978,0.3002092996612191
RSVPLG03,JM,20260219-094521,1.0.2,20251105-084826,768,Experiment,T1,1,Automatic,main,31,20260219-094831,local,local,300,S,H,E,A,E-S.png,A-H.png,sS,hH,mask-4.png,mask-2.png,s,1,0.3365968996658921,none,-5,0,0.04858830012381077,0.04877679981291294,0.09975470043718815,0.10093159973621368,0.298708900809288
RSVPLG03,JM,20260219-094521,1.0.2,20251105-084826,768,Experiment,T1,1,Automatic,main,32,20260219-094835,local,local,750,H,H,A,A,A-H.png,A-H.png,hH,hH,mask-3.png,mask-2.png,h,1,0.3500543003901839,none,-5,0,0.047392599284648895,0.048835900612175465,0.10099299997091293,0.10028040036559105,0.7473332993686199
RSVPLG03,JM,20260219-094521,1.0.2,20251105-084826,768,Experiment,T1,1,Automatic,main,33,20260219-094839,global,global,300,H,H,A,A,H-A.png,H-A.png,hH,hH,mask-1.png,mask-2.png,h,1,0.6370202004909515,none,-5,0,0.04740800056606531,0.04682570043951273,0.10031480062752962,0.09960700012743473,0.29866049997508526
RSVPLG03,JM,20260219-094521,1.0.2,20251105-084826,768,Experiment,T1,1,Automatic,main,34,20260219-094843,global,global,750,H,H,E,A,H-E.png,H-A.png,hH,hH,mask-4.png,mask-1.png,h,1,0.612648400478065,none,-5,0,0.046524700708687305,0.04735730029642582,0.09897170029580593,0.09951370023190975,0.7479932000860572
RSVPLG03,JM,20260219-094521,1.0.2,20251105-084826,768,Experiment,T1,1,Automatic,main,35,20260219-094848,local,global,750,H,H,E,A,E-H.png,H-A.png,hH,hH,mask-1.png,mask-1.png,s,0,0.3147966004908085,none,-5,0,0.04648509994149208,0.04749840032309294,0.098510199226439,0.1004791995510459,0.7460832996293902
RSVPLG03,JM,20260219-094521,1.0.2,20251105-084826,768,Experiment,T1,1,Automatic,main,36,20260219-094852,local,local,300,S,H,A,A,A-S.png,A-H.png,sS,hH,mask-4.png,mask-3.png,s,1,0.4319732002913952,none,-5,0,0.047518299892544746,0.04856939986348152,0.09985110070556402,0.09956050012260675,0.29877940006554127
RSVPLG03,JM,20260219-094521,1.0.2,20251105-084826,768,Experiment,T1,1,Automatic,main,37,20260219-094856,local,global,300,H,H,A,A,A-H.png,H-A.png,hH,hH,mask-3.png,mask-3.png,h,1,0.35071879997849464,none,-5,0,0.04750350024551153,0.04651170037686825,0.0985767999663949,0.09958359971642494,0.29880630038678646
RSVPLG03,JM,20260219-094521,1.0.2,20251105-084826,768,Experiment,T1,1,Automatic,main,38,20260219-094900,local,local,300,H,S,E,A,E-H.png,A-S.png,hH,sS,mask-1.png,mask-4.png,s,0,0.5233016004785895,none,-5,0,0.04771469999104738,0.04675950016826391,0.09991869982331991,0.09995559975504875,0.3000269001349807
RSVPLG03,JM,20260219-094521,1.0.2,20251105-084826,768,Experiment,T1,1,Automatic,main,39,20260219-094904,local,global,750,H,S,E,E,E-H.png,S-E.png,hH,sS,mask-4.png,mask-1.png,h,1,0.2711591999977827,none,-5,0,0.04780380055308342,0.04764899984002113,0.100033700466156,0.09891049936413765,0.7473570005968213
RSVPLG03,JM,20260219-094521,1.0.2,20251105-084826,768,Experiment,T1,1,Automatic,main,40,20260219-094908,local,global,750,H,H,E,A,E-H.png,H-A.png,hH,hH,mask-4.png,mask-1.png,h,1,0.3504374995827675,none,-5,0,0.04750639945268631,0.04684960003942251,0.09955090004950762,0.09908130019903183,0.7460775999352336
RSVPLG03,JM,20260219-094521,1.0.2,20251105-084826,768,Experiment,T1,1,Automatic,main,41,20260219-094913,local,global,750,H,S,E,E,E-H.png,S-E.png,hH,sS,mask-3.png,mask-3.png,h,1,0.34764290042221546,none,-5,0,0.04750130046159029,0.04551190044730902,0.09816700033843517,0.09853050019592047,0.747864699922502
RSVPLG03,JM,20260219-094521,1.0.2,20251105-084826,768,Experiment,T1,1,Automatic,main,42,20260219-094917,local,local,750,H,H,A,E,A-H.png,E-H.png,hH,hH,mask-2.png,mask-4.png,h,1,0.40450780000537634,none,-5,0,0.048705399967730045,0.046990299597382545,0.10040610004216433,0.09800879936665297,0.7493667006492615
RSVPLG03,JM,20260219-094521,1.0.2,20251105-084826,768,Experiment,T1,1,Automatic,main,43,20260219-094921,local,global,750,H,H,A,A,A-H.png,H-A.png,hH,hH,mask-4.png,mask-4.png,h,1,0.38575359992682934,none,-5,0,0.048630000092089176,0.04779130034148693,0.10069630015641451,0.10032670013606548,0.7480106996372342
RSVPLG03,JM,20260219-094521,1.0.2,20251105-084826,768,Experiment,T1,1,Automatic,main,44,20260219-094926,global,local,300,S,S,A,E,S-A.png,E-S.png,sS,sS,mask-1.png,mask-2.png,s,1,0.3592128995805979,none,-5,0,0.04659739974886179,0.047685399651527405,0.0988287003710866,0.09974579978734255,0.29754630010575056
RSVPLG03,JM,20260219-094521,1.0.2,20251105-084826,768,Experiment,T1,1,Automatic,main,45,20260219-094930,global,global,750,H,S,A,E,H-A.png,S-E.png,hH,sS,mask-3.png,mask-2.png,h,1,0.43047000002115965,none,-5,0,0.04669039975851774,0.0477146003395319,0.09893449954688549,0.09986630082130432,0.7461397992447019
RSVPLG03,JM,20260219-094521,1.0.2,20251105-084826,768,Experiment,T1,1,Automatic,main,46,20260219-094934,local,local,300,H,S,A,A,A-H.png,A-S.png,hH,sS,mask-4.png,mask-4.png,h,1,0.35196470003575087,none,-5,0,0.04779110010713339,0.04877209942787886,0.09908750001341105,0.10102069936692715,0.29925870057195425
RSVPLG03,JM,20260219-094521,1.0.2,20251105-084826,768,Experiment,T1,1,Automatic,main,47,20260219-094938,global,local,750,H,H,E,E,H-E.png,E-H.png,hH,hH,mask-4.png,mask-2.png,h,1,0.3370794001966715,none,-5,0,0.04764590039849281,0.047713800333440304,0.09983129985630512,0.09912170004099607,0.7480009999126196
RSVPLG03,JM,20260219-094521,1.0.2,20251105-084826,768,Experiment,T1,1,Automatic,main,48,20260219-094942,global,local,300,S,H,E,E,S-E.png,E-H.png,sS,hH,mask-2.png,mask-2.png,s,1,0.35743389930576086,none,-5,0,0.04668539948761463,0.04763100016862154,0.09788789972662926,0.10068279970437288,0.29688149970024824
RSVPLG03,JM,20260219-094521,1.0.2,20251105-084826,768,Experiment,T1,1,Automatic,main,49,20260219-094946,local,local,300,H,S,A,A,A-H.png,A-S.png,hH,sS,mask-4.png,mask-2.png,h,1,0.2739367000758648,none,-5,0,0.04670070018619299,0.04648610018193722,0.09888530056923628,0.09946050029247999,0.2994924997910857
RSVPLG03,JM,20260219-094521,1.0.2,20251105-084826,768,Experiment,T1,1,Automatic,main,50,20260219-094950,global,local,750,S,H,E,E,S-E.png,E-H.png,sS,hH,mask-1.png,mask-3.png,s,1,0.3199033001437783,none,-5,0,0.048810300417244434,0.04660029988735914,0.10101309977471828,0.09820020012557507,0.7487289002165198
RSVPLG03,JM,20260219-094521,1.0.2,20251105-084826,768,Experiment,T1,1,Automatic,main,51,20260219-095030,global,local,750,H,H,E,E,H-E.png,E-H.png,hH,hH,mask-1.png,mask-2.png,h,1,0.7450836999341846,none,-5,0,0.04599189944565296,0.04656870011240244,0.09908029995858669,0.09966239985078573,0.7473556995391846
RSVPLG03,JM,20260219-094521,1.0.2,20251105-084826,768,Experiment,T1,1,Automatic,main,52,20260219-095035,local,local,750,H,H,A,E,A-H.png,E-H.png,hH,hH,mask-1.png,mask-3.png,h,1,0.3981741005554795,none,-5,0,0.049674199894070625,0.04857749957591295,0.10191959980875254,0.0996539993211627,0.7484397999942303
RSVPLG03,JM,20260219-094521,1.0.2,20251105-084826,768,Experiment,T1,1,Automatic,main,53,20260219-095039,global,global,300,H,S,A,A,H-A.png,S-A.png,hH,sS,mask-2.png,mask-2.png,h,1,0.39439320005476475,none,-5,0,0.04579199943691492,0.04666899982839823,0.09889669995754957,0.09865459986031055,0.2985300002619624
RSVPLG03,JM,20260219-094521,1.0.2,20251105-084826,768,Experiment,T1,1,Automatic,main,54,20260219-095043,global,local,750,S,H,A,A,S-A.png,A-H.png,sS,hH,mask-3.png,mask-4.png,s,1,0.35804300010204315,none,-5,0,0.04817730002105236,0.0481088999658823,0.10004299972206354,0.09951340034604073,0.748072499409318
RSVPLG03,JM,20260219-094521,1.0.2,20251105-084826,768,Experiment,T1,1,Automatic,main,55,20260219-095047,local,local,750,H,H,E,E,E-H.png,E-H.png,hH,hH,mask-1.png,mask-2.png,s,0,0.3898162003606558,none,-5,0,0.04894080013036728,0.04694609995931387,0.09975429996848106,0.09950559958815575,0.7468907004222274
RSVPLG03,JM,20260219-094521,1.0.2,20251105-084826,768,Experiment,T1,1,Automatic,main,56,20260219-095052,local,global,750,H,S,A,E,A-H.png,S-E.png,hH,sS,mask-2.png,mask-1.png,h,1,0.3257655994966626,none,-5,0,0.04698709957301617,0.04526919964700937,0.10003169998526573,0.0980460001155734,0.7487655999138951
RSVPLG03,JM,20260219-094521,1.0.2,20251105-084826,768,Experiment,T1,1,Automatic,main,57,20260219-095056,local,global,300,H,S,A,E,A-H.png,S-E.png,hH,sS,mask-1.png,mask-2.png,h,1,0.3673414997756481,none,-5,0,0.04733300022780895,0.04711200017482042,0.09876450058072805,0.10033360030502081,0.29853190016001463
RSVPLG03,JM,20260219-094521,1.0.2,20251105-084826,768,Experiment,T1,1,Automatic,main,58,20260219-095100,global,global,750,S,S,A,E,S-A.png,S-E.png,sS,sS,mask-2.png,mask-4.png,s,1,0.3365794997662306,none,-5,0,0.04696459975093603,0.04601079970598221,0.1000446006655693,0.09845029935240746,0.7478172006085515
RSVPLG03,JM,20260219-094521,1.0.2,20251105-084826,768,Experiment,T1,1,Automatic,main,59,20260219-095104,global,local,300,H,H,A,E,H-A.png,E-H.png,hH,hH,mask-4.png,mask-4.png,h,1,0.3620632002130151,none,-5,0,0.04805999994277954,0.0468445997685194,0.10019800066947937,0.10087629966437817,0.29809970036149025
RSVPLG03,JM,20260219-094521,1.0.2,20251105-084826,768,Experiment,T1,1,Automatic,main,60,20260219-095108,global,global,750,S,H,E,A,S-E.png,H-A.png,sS,hH,mask-2.png,mask-1.png,s,1,0.3058906001970172,none,-5,0,0.04696470033377409,0.04768729954957962,0.10102630034089088,0.09986619930714369,0.7483530007302761
RSVPLG03,JM,20260219-094521,1.0.2,20251105-084826,768,Experiment,T1,1,Automatic,main,61,20260219-095112,local,global,300,H,H,A,A,A-H.png,H-A.png,hH,hH,mask-3.png,mask-4.png,h,1,0.22663869988173246,none,-5,0,0.0462440000846982,0.046741499565541744,0.09922940004616976,0.09887329954653978,0.2998099001124501
RSVPLG03,JM,20260219-094521,1.0.2,20251105-084826,768,Experiment,T1,1,Automatic,main,62,20260219-095116,global,local,750,S,H,E,E,S-E.png,E-H.png,sS,hH,mask-3.png,mask-4.png,s,1,0.472482199780643,none,-5,0,0.04713129997253418,0.047087300568819046,0.10000440012663603,0.09844930004328489,0.7473679995164275
RSVPLG03,JM,20260219-094521,1.0.2,20251105-084826,768,Experiment,T1,1,Automatic,main,63,20260219-095120,global,local,300,S,H,A,E,S-A.png,E-H.png,sS,hH,mask-2.png,mask-3.png,s,1,0.3995014997199178,none,-5,0,0.04707490000873804,0.04864600021392107,0.10047809965908527,0.10101140011101961,0.29829819966107607
RSVPLG03,JM,20260219-094521,1.0.2,20251105-084826,768,Experiment,T1,1,Automatic,main,64,20260219-095124,local,local,750,S,H,E,E,E-S.png,E-H.png,sS,hH,mask-2.png,mask-2.png,s,1,0.2170820999890566,none,-5,0,0.04780580010265112,0.04705660045146942,0.10154599975794554,0.10077400039881468,0.7483337000012398
RSVPLG03,JM,20260219-094521,1.0.2,20251105-084826,768,Experiment,T1,1,Automatic,main,65,20260219-095128,local,local,750,H,S,A,E,A-H.png,E-S.png,hH,sS,mask-3.png,mask-3.png,h,1,0.3224881999194622,none,-5,0,0.047737300395965576,0.04797600023448467,0.10007570032030344,0.09949500020593405,0.7474937001243234
RSVPLG03,JM,20260219-094521,1.0.2,20251105-084826,768,Experiment,T1,1,Automatic,main,66,20260219-095133,global,global,300,H,H,E,E,H-E.png,H-E.png,hH,hH,mask-2.png,mask-3.png,h,1,0.313340799883008,none,-5,0,0.047093700617551804,0.04870950058102608,0.1013413006439805,0.10076810047030449,0.29925089981406927
RSVPLG03,JM,20260219-094521,1.0.2,20251105-084826,768,Experiment,T1,1,Automatic,main,67,20260219-095136,local,global,300,H,S,A,E,A-H.png,S-E.png,hH,sS,mask-3.png,mask-3.png,h,1,0.2770576998591423,none,-5,0,0.04761939961463213,0.04636329971253872,0.10061320010572672,0.09880669973790646,0.2997893001884222
RSVPLG03,JM,20260219-094521,1.0.2,20251105-084826,768,Experiment,T1,1,Automatic,main,68,20260219-095140,local,local,750,S,H,E,A,E-S.png,A-H.png,sS,hH,mask-4.png,mask-1.png,s,1,0.2980742994695902,none,-5,0,0.047323000617325306,0.047481900081038475,0.09792910050600767,0.09960749931633472,0.748051100410521
RSVPLG03,JM,20260219-094521,1.0.2,20251105-084826,768,Experiment,T1,1,Automatic,main,69,20260219-095144,local,global,300,H,H,E,E,E-H.png,H-E.png,hH,hH,mask-1.png,mask-4.png,h,1,0.7634113999083638,none,-5,0,0.04852970037609339,0.04757300019264221,0.09989549964666367,0.09958530031144619,0.2990429997444153
RSVPLG03,JM,20260219-094521,1.0.2,20251105-084826,768,Experiment,T1,1,Automatic,main,70,20260219-095149,global,local,750,S,H,A,E,S-A.png,E-H.png,sS,hH,mask-3.png,mask-1.png,s,1,0.2557410001754761,none,-5,0,0.047587799839675426,0.046590300276875496,0.10064859967678785,0.09872320014983416,0.7490499000996351
RSVPLG03,JM,20260219-094521,1.0.2,20251105-084826,768,Experiment,T1,1,Automatic,main,71,20260219-095153,global,global,300,H,S,A,E,H-A.png,S-E.png,hH,sS,mask-2.png,mask-1.png,h,1,0.34251399990171194,none,-5,0,0.04838520009070635,0.04859170038253069,0.09943260066211224,0.10139370057731867,0.2985998000949621
RSVPLG03,JM,20260219-094521,1.0.2,20251105-084826,768,Experiment,T1,1,Automatic,main,72,20260219-095157,global,local,750,H,H,E,A,H-E.png,A-H.png,hH,hH,mask-3.png,mask-3.png,h,1,0.3396852994337678,none,-5,0,0.0485226996243,0.04784949962049723,0.09998519998043776,0.09913939982652664,0.7476915000006557
RSVPLG03,JM,20260219-094521,1.0.2,20251105-084826,768,Experiment,T1,1,Automatic,main,73,20260219-095201,global,global,300,S,H,A,E,S-A.png,H-E.png,sS,hH,mask-3.png,mask-1.png,s,1,0.3266036994755268,none,-5,0,0.04667990002781153,0.047193399630486965,0.10031600017100573,0.09925829991698265,0.29923340026289225
RSVPLG03,JM,20260219-094521,1.0.2,20251105-084826,768,Experiment,T1,1,Automatic,main,74,20260219-095205,local,global,300,S,S,E,E,E-S.png,S-E.png,sS,sS,mask-3.png,mask-4.png,s,1,0.28341509960591793,none,-5,0,0.046882099471986294,0.04679409973323345,0.0994234997779131,0.09985820017755032,0.29897879995405674
RSVPLG03,JM,20260219-094521,1.0.2,20251105-084826,768,Experiment,T1,1,Automatic,main,75,20260219-095209,local,global,750,H,H,A,A,A-H.png,H-A.png,hH,hH,mask-1.png,mask-1.png,h,1,0.24319859966635704,none,-5,0,0.047588299959897995,0.04588499944657087,0.09935420006513596,0.09998629987239838,0.7479864004999399
RSVPLG03,JM,20260219-094521,1.0.2,20251105-084826,768,Experiment,T1,1,Automatic,main,76,20260219-095247,global,global,300,H,H,E,E,H-E.png,H-E.png,hH,hH,mask-1.png,mask-3.png,h,1,0.381199199706316,none,-5,0,0.048555800691246986,0.04808660037815571,0.09961950033903122,0.09965960029512644,0.2996455002576113
RSVPLG03,JM,20260219-094521,1.0.2,20251105-084826,768,Experiment,T1,1,Automatic,main,77,20260219-095251,global,local,300,H,S,A,E,H-A.png,E-S.png,hH,sS,mask-2.png,mask-3.png,h,1,0.35398299992084503,none,-5,0,0.04629859980195761,0.04786979965865612,0.09892180003225803,0.10073059983551502,0.2971927998587489
RSVPLG03,JM,20260219-094521,1.0.2,20251105-084826,768,Experiment,T1,1,Automatic,main,78,20260219-095255,global,local,750,H,H,A,A,H-A.png,A-H.png,hH,hH,mask-1.png,mask-1.png,h,1,0.34820649959146976,none,-5,0,0.04682329948991537,0.04784590005874634,0.1000985000282526,0.0997806005179882,0.7465256992727518
RSVPLG03,JM,20260219-094521,1.0.2,20251105-084826,768,Experiment,T1,1,Automatic,main,79,20260219-095259,local,local,300,S,H,E,A,E-S.png,A-H.png,sS,hH,mask-2.png,mask-1.png,s,1,0.28786659985780716,none,-5,0,0.04845899995416403,0.04680490028113127,0.09976630005985498,0.09968180023133755,0.29895730037242174
RSVPLG03,JM,20260219-094521,1.0.2,20251105-084826,768,Experiment,T1,1,Automatic,main,80,20260219-095303,global,global,750,S,H,E,A,S-E.png,H-A.png,sS,hH,mask-3.png,mask-3.png,s,1,0.34841599967330694,none,-5,0,0.047461699694395065,0.04557590000331402,0.10045329947024584,0.0995848998427391,0.7485795998945832
RSVPLG03,JM,20260219-094521,1.0.2,20251105-084826,768,Experiment,T1,1,Automatic,main,81,20260219-095307,local,global,300,H,H,E,E,E-H.png,H-E.png,hH,hH,mask-3.png,mask-2.png,h,1,0.3179278001189232,none,-5,0,0.04668429959565401,0.04714499972760677,0.0976740000769496,0.09963160008192062,0.2976714000105858
RSVPLG03,JM,20260219-094521,1.0.2,20251105-084826,768,Experiment,T1,1,Automatic,main,82,20260219-095311,local,local,300,S,S,A,E,A-S.png,E-S.png,sS,sS,mask-3.png,mask-2.png,s,1,0.4156641000881791,none,-5,0,0.045986900106072426,0.047497800551354885,0.09856289997696877,0.09958089981228113,0.2986661000177264
RSVPLG03,JM,20260219-094521,1.0.2,20251105-084826,768,Experiment,T1,1,Automatic,main,83,20260219-095315,global,global,300,H,H,E,A,H-E.png,H-A.png,hH,hH,mask-1.png,mask-1.png,h,1,0.2868478000164032,none,-5,0,0.048951299861073494,0.046701000072062016,0.1012002993375063,0.10087020043283701,0.29959689918905497
RSVPLG03,JM,20260219-094521,1.0.2,20251105-084826,768,Experiment,T1,1,Automatic,main,84,20260219-095319,global,global,750,H,S,E,A,H-E.png,S-A.png,hH,sS,mask-3.png,mask-3.png,h,1,0.5054822005331516,none,-5,0,0.04982790071517229,0.04763189982622862,0.10121610015630722,0.09965699911117554,0.7483212007209659
RSVPLG03,JM,20260219-094521,1.0.2,20251105-084826,768,Experiment,T1,1,Automatic,main,85,20260219-095323,global,local,300,H,H,A,E,H-A.png,E-H.png,hH,hH,mask-2.png,mask-3.png,h,1,0.3175405999645591,none,-5,0,0.0480784997344017,0.047007299959659576,0.10049180034548044,0.09984949976205826,0.29862730018794537
RSVPLG03,JM,20260219-094521,1.0.2,20251105-084826,768,Experiment,T1,1,Automatic,main,86,20260219-095327,local,local,300,H,H,E,A,E-H.png,A-H.png,hH,hH,mask-1.png,mask-1.png,s,0,0.6292554000392556,none,-5,0,0.04654120001941919,0.046317700296640396,0.09868200030177832,0.09776340052485466,0.29930640012025833
RSVPLG03,JM,20260219-094521,1.0.2,20251105-084826,768,Experiment,T1,1,Automatic,main,87,20260219-095331,global,local,300,S,H,E,A,S-E.png,A-H.png,sS,hH,mask-1.png,mask-2.png,s,1,0.33460509963333607,none,-5,0,0.04690029937773943,0.04769679997116327,0.09943749941885471,0.09896379988640547,0.2995010996237397
RSVPLG03,JM,20260219-094521,1.0.2,20251105-084826,768,Experiment,T1,1,Automatic,main,88,20260219-095335,global,global,750,S,S,E,E,S-E.png,S-E.png,sS,sS,mask-4.png,mask-3.png,s,1,0.2994972998276353,none,-5,0,0.04752229992300272,0.04777910001575947,0.10050470009446144,0.10001440066844225,0.7478342996910214
RSVPLG03,JM,20260219-094521,1.0.2,20251105-084826,768,Experiment,T1,1,Automatic,main,89,20260219-095339,local,local,300,S,S,A,A,A-S.png,A-S.png,sS,sS,mask-3.png,mask-1.png,s,1,0.45267709996551275,none,-5,0,0.047518800012767315,0.04772599972784519,0.09917620010674,0.09954020008444786,0.2985180001705885
RSVPLG03,JM,20260219-094521,1.0.2,20251105-084826,768,Experiment,T1,1,Automatic,main,90,20260219-095343,global,local,300,S,S,E,E,S-E.png,E-S.png,sS,sS,mask-1.png,mask-1.png,s,1,0.32220499962568283,none,-5,0,0.04873239994049072,0.047675699926912785,0.10017440002411604,0.09990200027823448,0.2991872001439333
RSVPLG03,JM,20260219-094521,1.0.2,20251105-084826,768,Experiment,T1,1,Automatic,main,91,20260219-095347,local,local,750,S,H,E,E,E-S.png,E-H.png,sS,hH,mask-3.png,mask-2.png,s,1,0.31891650054603815,none,-5,0,0.04501220025122166,0.04674980044364929,0.09676999971270561,0.09955770056694746,0.7456390997394919
RSVPLG03,JM,20260219-094521,1.0.2,20251105-084826,768,Experiment,T1,1,Automatic,main,92,20260219-095351,global,global,300,H,S,E,A,H-E.png,S-A.png,hH,sS,mask-4.png,mask-3.png,h,1,0.29348120000213385,none,-5,0,0.04504029918462038,0.04731739964336157,0.0963964993134141,0.09987259935587645,0.2957293000072241
RSVPLG03,JM,20260219-094521,1.0.2,20251105-084826,768,Experiment,T1,1,Automatic,main,93,20260219-095355,global,global,750,H,S,A,E,H-A.png,S-E.png,hH,sS,mask-3.png,mask-2.png,h,1,0.4200339997187257,none,-5,0,0.04824730008840561,0.04700369946658611,0.10072150081396103,0.09935169946402311,0.7478057006374002
RSVPLG03,JM,20260219-094521,1.0.2,20251105-084826,768,Experiment,T1,1,Automatic,main,94,20260219-095359,global,local,300,S,S,A,E,S-A.png,E-S.png,sS,sS,mask-3.png,mask-2.png,s,1,0.2979015000164509,none,-5,0,0.04754460044205189,0.046788799576461315,0.10089800041168928,0.09854550007730722,0.30020470079034567
RSVPLG03,JM,20260219-094521,1.0.2,20251105-084826,768,Experiment,T1,1,Automatic,main,95,20260219-095403,local,local,750,S,S,A,E,A-S.png,E-S.png,sS,sS,mask-2.png,mask-4.png,h,0,0.29800300020724535,none,-5,0,0.04733920004218817,0.047770299948751926,0.10098790004849434,0.10002550017088652,0.7466302001848817
RSVPLG03,JM,20260219-094521,1.0.2,20251105-084826,768,Experiment,T1,1,Automatic,main,96,20260219-095407,global,local,300,S,S,E,A,S-E.png,A-S.png,sS,sS,mask-4.png,mask-4.png,s,1,0.5689970999956131,none,-5,0,0.04720989987254143,0.04738180059939623,0.09864369966089725,0.09957400057464838,0.2973764995113015
RSVPLG03,JM,20260219-094521,1.0.2,20251105-084826,768,Experiment,T1,1,Automatic,main,97,20260219-095412,global,global,300,S,S,E,A,S-E.png,S-A.png,sS,sS,mask-1.png,mask-2.png,s,1,0.3637857008725405,none,-5,0,0.04612509999424219,0.04629560001194477,0.09912010002881289,0.09901539981365204,0.299333400093019
RSVPLG03,JM,20260219-094521,1.0.2,20251105-084826,768,Experiment,T1,1,Automatic,main,98,20260219-095415,global,local,300,H,S,E,E,H-E.png,E-S.png,hH,sS,mask-4.png,mask-2.png,h,1,0.3082071002572775,none,-5,0,0.04767689947038889,0.04767900053411722,0.10086259990930557,0.09887590073049068,0.29950219951570034
RSVPLG03,JM,20260219-094521,1.0.2,20251105-084826,768,Experiment,T1,1,Automatic,main,99,20260219-095419,local,local,750,S,H,E,A,E-S.png,A-H.png,sS,hH,mask-3.png,mask-1.png,s,1,0.251044400036335,none,-5,0,0.04581210017204285,0.04805960040539503,0.09855040069669485,0.09993920009583235,0.7451047003269196
RSVPLG03,JM,20260219-094521,1.0.2,20251105-084826,768,Experiment,T1,1,Automatic,main,100,20260219-095423,global,global,300,S,H,A,A,S-A.png,H-A.png,sS,hH,mask-1.png,mask-4.png,s,1,0.3687610998749733,none,-5,0,0.04699950013309717,0.048622299917042255,0.09905860014259815,0.10061370022594929,0.2978924000635743
RSVPLG03,JM,20260219-095552,1.0.2,20251105-084826,768,Experiment,Both,1,Automatic,warmup,1,20260219-095625,local,global,300,H,S,A,E,A-H.png,S-E.png,hH,sS,mask-3.png,mask-4.png,h,1,0.5472416998818517,s,1,0.543945599347353,0.04281200002878904,0.0465489998459816,0.0952202994376421,0.0997529998421669,0.29463119991123676
RSVPLG03,JM,20260219-095552,1.0.2,20251105-084826,768,Experiment,Both,1,Automatic,warmup,2,20260219-095629,local,local,300,S,H,A,E,A-S.png,E-H.png,sS,hH,mask-3.png,mask-4.png,s,1,0.3493030993267894,h,1,0.3153374996036291,0.047227099537849426,0.0472119003534317,0.09939949959516525,0.09967990033328533,0.2997787995263934
RSVPLG03,JM,20260219-095552,1.0.2,20251105-084826,768,Experiment,Both,1,Automatic,warmup,3,20260219-095634,global,global,300,H,S,A,A,H-A.png,S-A.png,hH,sS,mask-2.png,mask-3.png,h,1,0.815934699960053,h,0,0.3638858003541827,0.04744920041412115,0.046883899718523026,0.10068140085786581,0.09983780048787594,0.3003422003239393
RSVPLG03,JM,20260219-095552,1.0.2,20251105-084826,768,Experiment,Both,1,Automatic,warmup,4,20260219-095638,local,global,750,S,S,A,A,A-S.png,S-A.png,sS,sS,mask-1.png,mask-1.png,s,1,0.3963628001511097,h,0,0.20226050075143576,0.04652800038456917,0.0484524006024003,0.09857460018247366,0.10134860035032034,0.7480397997424006
RSVPLG03,JM,20260219-095552,1.0.2,20251105-084826,768,Experiment,Both,1,Automatic,main,5,20260219-095643,global,local,300,S,S,E,A,S-E.png,A-S.png,sS,sS,mask-4.png,mask-4.png,s,1,1.3521886998787522,s,1,0.07354199979454279,0.047422400675714016,0.045859300531446934,0.09973680041730404,0.09844000078737736,0.30089309997856617
RSVPLG03,JM,20260219-095552,1.0.2,20251105-084826,768,Experiment,Both,1,Automatic,main,6,20260219-095648,global,global,750,S,H,A,A,S-A.png,H-A.png,sS,hH,mask-4.png,mask-3.png,s,1,0.42529499996453524,s,0,0.10162930004298687,0.04703210014849901,0.04499820061028004,0.10013560019433498,0.09809970017522573,0.7514669001102448
RSVPLG03,JM,20260219-095552,1.0.2,20251105-084826,768,Experiment,Both,1,Automatic,main,7,20260219-095653,global,global,750,H,S,E,E,H-E.png,S-E.png,hH,sS,mask-2.png,mask-3.png,h,1,0.5605144994333386,h,0,0.4873481998220086,0.04911880008876324,0.04743750020861626,0.10124470014125109,0.09935120027512312,0.7505441997200251
RSVPLG03,JM,20260219-095552,1.0.2,20251105-084826,768,Experiment,Both,1,Automatic,main,8,20260219-095658,local,global,750,S,H,E,E,E-S.png,H-E.png,sS,hH,mask-3.png,mask-3.png,s,1,0.7730352003127337,h,1,0.39929640013724566,0.047690500505268574,0.04768250044435263,0.09989420045167208,0.10074499994516373,0.7496779998764396
RSVPLG03,JM,20260219-095552,1.0.2,20251105-084826,768,Experiment,Both,1,Automatic,main,9,20260219-095703,global,global,300,H,S,A,A,H-A.png,S-A.png,hH,sS,mask-1.png,mask-2.png,h,1,0.8585145995020866,h,0,0.687495400197804,0.04610440041869879,0.04881169926375151,0.10049770027399063,0.10013619996607304,0.29859620053321123
RSVPLG03,JM,20260219-095552,1.0.2,20251105-084826,768,Experiment,Both,1,Automatic,main,10,20260219-095708,local,local,300,H,S,A,E,A-H.png,E-S.png,hH,sS,mask-2.png,mask-2.png,h,1,0.4512118995189667,s,1,0.3652645004913211,0.04738030023872852,0.04635629989206791,0.09939949959516525,0.09854579996317625,0.30095439963042736
RSVPLG03,JM,20260219-095552,1.0.2,20251105-084826,768,Experiment,Both,1,Automatic,main,11,20260219-095713,global,local,300,S,S,A,E,S-A.png,E-S.png,sS,sS,mask-3.png,mask-3.png,h,0,0.5161869004368782,s,1,0.44044379983097315,0.047371599823236465,0.04559510014951229,0.10046989936381578,0.09828960057348013,0.3008520994335413
RSVPLG03,JM,20260219-095552,1.0.2,20251105-084826,768,Experiment,Both,1,Automatic,main,12,20260219-095717,local,global,750,H,S,A,E,A-H.png,S-E.png,hH,sS,mask-1.png,mask-1.png,h,1,0.7126813996583223,s,1,0.6971332002431154,0.04611750040203333,0.04753109999001026,0.09884900040924549,0.09922829922288656,0.749087200500071
RSVPLG03,JM,20260219-095552,1.0.2,20251105-084826,768,Experiment,Both,1,Automatic,main,13,20260219-095723,global,local,300,S,S,E,E,S-E.png,E-S.png,sS,sS,mask-2.png,mask-2.png,s,1,0.4483489999547601,s,1,0.4399616001173854,0.04838099982589483,0.04633900057524443,0.10153269954025745,0.09854849986732006,0.3010481996461749
RSVPLG03,JM,20260219-095552,1.0.2,20251105-084826,768,Experiment,Both,1,Automatic,main,14,20260219-095727,global,global,750,S,H,A,E,S-A.png,H-E.png,sS,hH,mask-3.png,mask-3.png,s,1,0.4402517005801201,s,0,0.3714621998369694,0.047329400666058064,0.045933399349451065,0.1002123998478055,0.09959180001169443,0.750020400620997
RSVPLG03,JM,20260219-095552,1.0.2,20251105-084826,768,Experiment,Both,1,Automatic,main,15,20260219-095732,global,global,300,S,S,E,E,S-E.png,S-E.png,sS,sS,mask-1.png,mask-2.png,s,1,0.487207199446857,s,1,0.2993478002026677,0.047540600411593914,0.04762940015643835,0.09893549978733063,0.10003810003399849,0.29997009970247746
RSVPLG03,JM,20260219-095552,1.0.2,20251105-084826,768,Experiment,Both,1,Automatic,main,16,20260219-095737,global,local,750,S,S,A,A,S-A.png,A-S.png,sS,sS,mask-2.png,mask-3.png,s,1,0.5892727999016643,h,0,0.5224791001528502,0.04753239918500185,0.04839149955660105,0.09876009915024042,0.10057360026985407,0.7484513996168971
RSVPLG03,JM,20260219-095552,1.0.2,20251105-084826,768,Experiment,Both,1,Automatic,main,17,20260219-095742,local,local,750,S,H,E,A,E-S.png,A-H.png,sS,hH,mask-4.png,mask-2.png,s,1,0.8417439004406333,s,0,0.4656934002414346,0.04637010022997856,0.04689429979771376,0.09810050018131733,0.09938689973205328,0.7488859007135034
RSVPLG03,JM,20260219-095552,1.0.2,20251105-084826,768,Experiment,Both,1,Automatic,main,18,20260219-095747,global,local,300,S,H,E,A,S-E.png,A-H.png,sS,hH,mask-2.png,mask-4.png,s,1,0.5838476000353694,s,0,0.3906819997355342,0.046642799861729145,0.04715050011873245,0.10003279987722635,0.10020510014146566,0.300008499994874
RSVPLG03,JM,20260219-095552,1.0.2,20251105-084826,768,Experiment,Both,1,Automatic,main,19,20260219-095752,global,local,300,H,S,E,A,H-E.png,A-S.png,hH,sS,mask-3.png,mask-3.png,h,1,0.48884900007396936,h,0,0.3208755999803543,0.046272399835288525,0.04777980037033558,0.09901580028235912,0.09935470018535852,0.29912499990314245
RSVPLG03,JM,20260219-095552,1.0.2,20251105-084826,768,Experiment,Both,1,Automatic,main,20,20260219-095756,local,local,750,S,S,A,A,A-S.png,A-S.png,sS,sS,mask-1.png,mask-2.png,s,1,0.8078425992280245,h,0,0.32759989984333515,0.04905400052666664,0.047517900355160236,0.10271580051630735,0.09897010028362274,0.7505248002707958
RSVPLG03,JM,20260219-095552,1.0.2,20251105-084826,768,Experiment,Both,1,Automatic,main,21,20260219-095801,global,local,750,H,S,A,A,H-A.png,A-S.png,hH,sS,mask-3.png,mask-2.png,h,1,0.6805961998179555,s,1,1.435720800422132,0.04696760047227144,0.04816260002553463,0.0995232006534934,0.10052859969437122,0.748981200158596
RSVPLG03,JM,20260219-095552,1.0.2,20251105-084826,768,Experiment,Both,1,Automatic,main,22,20260219-095808,local,global,300,S,H,E,A,E-S.png,H-A.png,sS,hH,mask-4.png,mask-3.png,s,1,0.4903143998235464,h,1,0.3960305992513895,0.04673870000988245,0.047748600132763386,0.10000069998204708,0.09925900027155876,0.29947239998728037
RSVPLG03,JM,20260219-095552,1.0.2,20251105-084826,768,Experiment,Both,1,Automatic,main,23,20260219-095812,local,global,750,S,S,A,A,A-S.png,S-A.png,sS,sS,mask-4.png,mask-4.png,h,0,0.8338240003213286,s,1,0.326664200052619,0.048569200560450554,0.04579230025410652,0.1015843003988266,0.09782380051910877,0.750862100161612
RSVPLG03,JM,20260219-095552,1.0.2,20251105-084826,768,Experiment,Both,1,Automatic,main,24,20260219-095817,global,local,750,S,H,E,E,S-E.png,E-H.png,sS,hH,mask-2.png,mask-4.png,s,1,0.5731811001896858,h,1,0.4933499004691839,0.04781269934028387,0.04757709987461567,0.09885900001972914,0.10164059977978468,0.7485596993938088
RSVPLG03,JM,20260219-095552,1.0.2,20251105-084826,768,Experiment,Both,1,Automatic,main,25,20260219-095823,local,global,750,S,S,E,E,E-S.png,S-E.png,sS,sS,mask-2.png,mask-4.png,s,1,0.5184647999703884,s,1,0.3635598998516798,0.04620820004492998,0.04749609995633364,0.0982344001531601,0.09852559957653284,0.7494262000545859
RSVPLG03,JM,20260219-095552,1.0.2,20251105-084826,768,Experiment,Both,1,Automatic,main,26,20260219-095855,local,global,300,S,S,E,A,E-S.png,S-A.png,sS,sS,mask-3.png,mask-3.png,s,1,0.792472300119698,s,1,0.3910376997664571,0.04850160051137209,0.04743099957704544,0.09956860076636076,0.09927130024880171,0.30084090027958155
RSVPLG03,JM,20260219-095552,1.0.2,20251105-084826,768,Experiment,Both,1,Automatic,main,27,20260219-095900,global,local,300,S,H,E,E,S-E.png,E-H.png,sS,hH,mask-1.png,mask-4.png,s,1,0.49942800030112267,s,0,0.32015400007367134,0.04660020023584366,0.048079799860715866,0.10015030018985271,0.0999592998996377,0.2996412003412843
RSVPLG03,JM,20260219-095552,1.0.2,20251105-084826,768,Experiment,Both,1,Automatic,main,28,20260219-095904,global,global,300,H,H,A,E,H-A.png,H-E.png,hH,hH,mask-3.png,mask-3.png,h,1,0.7221272997558117,s,0,0.26558039989322424,0.045802200213074684,0.047028400003910065,0.09836139995604753,0.10133829992264509,0.2982296999543905
RSVPLG03,JM,20260219-095552,1.0.2,20251105-084826,768,Experiment,Both,1,Automatic,main,29,20260219-095909,local,local,300,S,S,E,E,E-S.png,E-S.png,sS,sS,mask-3.png,mask-2.png,s,1,0.7181909997016191,s,1,0.2746764002367854,0.04885479994118214,0.04772560019046068,0.09992399998009205,0.09936430025845766,0.3002616995945573
RSVPLG03,JM,20260219-095552,1.0.2,20251105-084826,768,Experiment,Both,1,Automatic,main,30,20260219-095913,global,global,300,H,H,A,A,H-A.png,H-A.png,hH,hH,mask-4.png,mask-3.png,h,1,1.0944165997207165,h,1,0.5693611996248364,0.04852760024368763,0.04851580038666725,0.10038590058684349,0.10153390001505613,0.2993358001112938
RSVPLG03,JM,20260219-095552,1.0.2,20251105-084826,768,Experiment,Both,1,Automatic,main,31,20260219-095919,global,global,750,S,H,A,E,S-A.png,H-E.png,sS,hH,mask-4.png,mask-1.png,s,1,0.41636910010129213,h,1,0.2691313996911049,0.047196400351822376,0.04745100066065788,0.09935299959033728,0.10024880059063435,0.7478754995390773
RSVPLG03,JM,20260219-095552,1.0.2,20251105-084826,768,Experiment,Both,1,Automatic,main,32,20260219-095923,global,global,300,S,S,E,A,S-E.png,S-A.png,sS,sS,mask-1.png,mask-3.png,s,1,0.8614632003009319,s,1,0.21249459963291883,0.04687489941716194,0.046045899391174316,0.09933299943804741,0.10001539997756481,0.29945609997957945
RSVPLG03,JM,20260219-095552,1.0.2,20251105-084826,768,Experiment,Both,1,Automatic,main,33,20260219-095928,global,global,750,S,S,A,A,S-A.png,S-A.png,sS,sS,mask-3.png,mask-2.png,s,1,0.5072167003527284,h,0,0.1977210994809866,0.048602099530398846,0.048633900471031666,0.10050969943404198,0.10177300032228231,0.749261999502778
RSVPLG03,JM,20260219-095552,1.0.2,20251105-084826,768,Experiment,Both,1,Automatic,main,34,20260219-095933,global,local,750,H,S,A,A,H-A.png,A-S.png,hH,sS,mask-2.png,mask-4.png,h,1,0.32180329971015453,s,1,0.12429270055145025,0.046675799414515495,0.047464899718761444,0.10045959986746311,0.09993810020387173,0.7489288998767734
RSVPLG03,JM,20260219-095552,1.0.2,20251105-084826,768,Experiment,Both,1,Automatic,main,35,20260219-095937,local,global,750,H,H,E,A,E-H.png,H-A.png,hH,hH,mask-1.png,mask-1.png,s,0,0.5412512002512813,h,1,0.1718145003542304,0.04782949946820736,0.048261200077831745,0.10105179995298386,0.09963850025087595,0.7499185996130109
RSVPLG03,JM,20260219-095552,1.0.2,20251105-084826,768,Experiment,Both,1,Automatic,main,36,20260219-095942,global,local,750,H,H,E,A,H-E.png,A-H.png,hH,hH,mask-2.png,mask-1.png,h,1,0.5772487996146083,s,0,0.1560608996078372,0.048574299551546574,0.04793759994208813,0.10030199959874153,0.10060300026088953,0.7488894993439317
RSVPLG03,JM,20260219-095552,1.0.2,20251105-084826,768,Experiment,Both,1,Automatic,main,37,20260219-095947,global,global,750,S,S,E,A,S-E.png,S-A.png,sS,sS,mask-2.png,mask-3.png,s,1,0.7532892003655434,s,1,0.27236710023134947,0.046548099257051945,0.04757759999483824,0.09960459917783737,0.10062539950013161,0.7491327999159694
RSVPLG03,JM,20260219-095552,1.0.2,20251105-084826,768,Experiment,Both,1,Automatic,main,38,20260219-095952,global,global,300,H,H,A,E,H-A.png,H-E.png,hH,hH,mask-4.png,mask-4.png,h,1,0.5199130997061729,s,0,0.22743229940533638,0.047800599597394466,0.046884999610483646,0.10224269982427359,0.10011320002377033,0.30158580001443624
RSVPLG03,JM,20260219-095552,1.0.2,20251105-084826,768,Experiment,Both,1,Automatic,main,39,20260219-095957,global,global,300,S,S,E,A,S-E.png,S-A.png,sS,sS,mask-2.png,mask-4.png,s,1,0.45597680006176233,h,0,0.30944270081818104,0.04877789970487356,0.04879619926214218,0.10025469958782196,0.10117889940738678,0.29998920019716024
RSVPLG03,JM,20260219-095552,1.0.2,20251105-084826,768,Experiment,Both,1,Automatic,main,40,20260219-100001,global,global,750,H,S,A,A,H-A.png,S-A.png,hH,sS,mask-4.png,mask-1.png,h,1,0.4082411006093025,s,1,0.12970519997179508,0.04719390068203211,0.04759090021252632,0.10135890077799559,0.10160890035331249,0.7491361005231738
RSVPLG03,JM,20260219-095552,1.0.2,20251105-084826,768,Experiment,Both,1,Automatic,main,41,20260219-100006,local,local,300,H,S,E,A,E-H.png,A-S.png,hH,sS,mask-1.png,mask-1.png,s,0,0.9847937002778053,h,0,0.5810904996469617,0.04826069995760918,0.04593169968575239,0.10088780056685209,0.10001009982079268,0.3002732004970312
RSVPLG03,JM,20260219-095552,1.0.2,20251105-084826,768,Experiment,Both,1,Automatic,main,42,20260219-100011,global,local,750,S,H,E,E,S-E.png,E-H.png,sS,hH,mask-2.png,mask-1.png,s,1,0.4493028996512294,h,1,0.5203146003186703,0.04781370051205158,0.048003099858760834,0.09981130063533783,0.10111430007964373,0.7490033004432917
RSVPLG03,JM,20260219-095552,1.0.2,20251105-084826,768,Experiment,Both,1,Automatic,main,43,20260219-100016,global,local,750,S,S,E,A,S-E.png,A-S.png,sS,sS,mask-3.png,mask-4.png,s,1,0.4510771995410323,s,1,0.30186690017580986,0.047419399954378605,0.04689290001988411,0.10006299987435341,0.09915990009903908,0.7510121995583177
RSVPLG03,JM,20260219-095552,1.0.2,20251105-084826,768,Experiment,Both,1,Automatic,main,44,20260219-100021,local,local,300,H,H,A,E,A-H.png,E-H.png,hH,hH,mask-4.png,mask-3.png,h,1,0.3568311994895339,s,0,0.33740129973739386,0.0476494999602437,0.04770109988749027,0.10067430045455694,0.10009780060499907,0.3003038000315428
RSVPLG03,JM,20260219-095552,1.0.2,20251105-084826,768,Experiment,Both,1,Automatic,main,45,20260219-100025,local,local,750,H,H,E,E,E-H.png,E-H.png,hH,hH,mask-4.png,mask-1.png,s,0,0.2858314998447895,h,1,0.19947999995201826,0.04582019988447428,0.04762269929051399,0.09990039933472872,0.1009116992354393,0.7477607000619173
RSVPLG03,JM,20260219-095552,1.0.2,20251105-084826,768,Experiment,Both,1,Automatic,main,46,20260219-100030,local,local,750,S,S,E,A,E-S.png,A-S.png,sS,sS,mask-3.png,mask-2.png,s,1,0.6800287002697587,h,0,0.1576589997857809,0.04776289965957403,0.04754579998552799,0.10000239964574575,0.09958400018513203,0.7501926999539137
RSVPLG03,JM,20260219-095552,1.0.2,20251105-084826,768,Experiment,Both,1,Automatic,main,47,20260219-100035,global,local,750,S,S,E,E,S-E.png,E-S.png,sS,sS,mask-1.png,mask-4.png,s,1,1.2704923003911972,h,0,0.06669060047715902,0.04674630053341389,0.048085800372064114,0.09752310067415237,0.10021520033478737,0.7477596001699567
RSVPLG03,JM,20260219-095552,1.0.2,20251105-084826,768,Experiment,Both,1,Automatic,main,48,20260219-100040,global,global,750,S,H,E,E,S-E.png,H-E.png,sS,hH,mask-1.png,mask-2.png,s,1,0.6621584994718432,h,1,0.3690192997455597,0.046821399591863155,0.048833100125193596,0.09927910007536411,0.10109749995172024,0.7489831997081637
RSVPLG03,JM,20260219-095552,1.0.2,20251105-084826,768,Experiment,Both,1,Automatic,main,49,20260219-100045,global,local,300,H,H,E,A,H-E.png,A-H.png,hH,hH,mask-4.png,mask-3.png,h,1,0.6303940992802382,s,0,0.3279841998592019,0.04753370024263859,0.04786800034344196,0.09875399991869926,0.1011998001486063,0.29831579979509115
RSVPLG03,JM,20260219-095552,1.0.2,20251105-084826,768,Experiment,Both,1,Automatic,main,50,20260219-100050,local,global,300,H,H,E,E,E-H.png,H-E.png,hH,hH,mask-3.png,mask-3.png,s,0,0.505791500210762,h,1,0.22956879995763302,0.04896380007266998,0.046492500230669975,0.10014869924634695,0.09984210040420294,0.2999097993597388
RSVPLG03,JM,20260219-095552,1.0.2,20251105-084826,768,Experiment,Both,1,Automatic,main,51,20260219-100131,global,local,750,H,S,A,A,H-A.png,A-S.png,hH,sS,mask-3.png,mask-2.png,h,1,0.4486023001372814,h,0,0.31037560012191534,0.048185800202190876,0.04765590000897646,0.10037020035088062,0.09986469987779856,0.7501697996631265
RSVPLG03,JM,20260219-095552,1.0.2,20251105-084826,768,Experiment,Both,1,Automatic,main,52,20260219-100136,local,local,300,S,S,A,E,A-S.png,E-S.png,sS,sS,mask-4.png,mask-3.png,h,0,0.8049173997715116,s,1,0.18459479976445436,0.049187599681317806,0.047062600031495094,0.1002923995256424,0.0993707999587059,0.3008812991902232
RSVPLG03,JM,20260219-095552,1.0.2,20251105-084826,768,Experiment,Both,1,Automatic,main,53,20260219-100140,local,global,300,S,S,E,E,E-S.png,S-E.png,sS,sS,mask-1.png,mask-3.png,s,1,0.6678143003955483,h,0,0.10203849989920855,0.047535999678075314,0.04693320021033287,0.0995474997907877,0.0996184004470706,0.29890009947121143
RSVPLG03,JM,20260219-095552,1.0.2,20251105-084826,768,Experiment,Both,1,Automatic,main,54,20260219-100145,local,local,750,S,S,A,E,A-S.png,E-S.png,sS,sS,mask-4.png,mask-3.png,s,1,0.3073564004153013,h,0,0.16425490006804466,0.04772290028631687,0.04723929986357689,0.1013994999229908,0.0999397998675704,0.7499310001730919
RSVPLG03,JM,20260219-095552,1.0.2,20251105-084826,768,Experiment,Both,1,Automatic,main,55,20260219-100149,global,local,750,H,S,A,E,H-A.png,E-S.png,hH,sS,mask-4.png,mask-3.png,h,1,0.4135013995692134,s,1,0.312818500213325,0.04580929968506098,0.04959949944168329,0.09870400000363588,0.10065899975597858,0.7473424002528191
RSVPLG03,JM,20260219-095552,1.0.2,20251105-084826,768,Experiment,Both,1,Automatic,main,56,20260219-100154,local,local,750,H,H,E,E,E-H.png,E-H.png,hH,hH,mask-4.png,mask-3.png,h,1,0.6606021001935005,s,0,0.12801549956202507,0.04605809971690178,0.046630000695586205,0.09881949983537197,0.09999560005962849,0.7491092998534441
RSVPLG03,JM,20260219-095552,1.0.2,20251105-084826,768,Experiment,Both,1,Automatic,main,57,20260219-100159,local,global,750,H,S,A,A,A-H.png,S-A.png,hH,sS,mask-3.png,mask-1.png,h,1,0.43299390003085136,s,1,0.34305169992148876,0.04766889940947294,0.04654720053076744,0.0997639000415802,0.10073070041835308,0.749528999440372
RSVPLG03,JM,20260219-095552,1.0.2,20251105-084826,768,Experiment,Both,1,Automatic,main,58,20260219-100204,local,local,300,H,S,E,E,E-H.png,E-S.png,hH,sS,mask-2.png,mask-4.png,s,0,0.42746239993721247,h,0,0.2130332002416253,0.047528100199997425,0.04724280070513487,0.09954969957470894,0.10132930055260658,0.2986349994316697
RSVPLG03,JM,20260219-095552,1.0.2,20251105-084826,768,Experiment,Both,1,Automatic,main,59,20260219-100208,global,global,300,H,S,A,E,H-A.png,S-E.png,hH,sS,mask-4.png,mask-2.png,h,1,0.43704780004918575,s,1,0.19938670005649328,0.04878249950706959,0.04779990017414093,0.10027300007641315,0.09941270016133785,0.3003981998190284
RSVPLG03,JM,20260219-095552,1.0.2,20251105-084826,768,Experiment,Both,1,Automatic,main,60,20260219-100212,local,global,300,H,H,A,E,A-H.png,H-E.png,hH,hH,mask-4.png,mask-3.png,h,1,0.43817409966140985,h,1,0.26745819952338934,0.04751650057733059,0.04574909992516041,0.09891810081899166,0.09817150048911572,0.300590000115335
RSVPLG03,JM,20260219-095552,1.0.2,20251105-084826,768,Experiment,Both,1,Automatic,main,61,20260219-100217,global,local,750,S,S,E,E,S-E.png,E-S.png,sS,sS,mask-1.png,mask-4.png,s,1,0.382757400162518,s,1,0.2593935998156667,0.049256700091063976,0.04785529989749193,0.10089119989424944,0.10080830007791519,0.74961409997195
RSVPLG03,JM,20260219-095552,1.0.2,20251105-084826,768,Experiment,Both,1,Automatic,main,62,20260219-100221,global,global,300,H,H,A,E,H-A.png,H-E.png,hH,hH,mask-2.png,mask-4.png,h,1,0.4371746005490422,h,1,0.32722620014101267,0.04777990002185106,0.04838200006633997,0.1005345992743969,0.09951280057430267,0.3005666993558407
RSVPLG03,JM,20260219-095552,1.0.2,20251105-084826,768,Experiment,Both,1,Automatic,main,63,20260219-100226,local,local,300,H,H,E,E,E-H.png,E-H.png,hH,hH,mask-4.png,mask-3.png,s,0,0.44630780071020126,h,1,0.24734799936413765,0.04812659975141287,0.046932500787079334,0.10053510032594204,0.10004350077360868,0.30024079978466034
RSVPLG03,JM,20260219-095552,1.0.2,20251105-084826,768,Experiment,Both,1,Automatic,main,64,20260219-100230,local,local,750,H,S,A,A,A-H.png,A-S.png,hH,sS,mask-4.png,mask-4.png,h,1,0.4650653004646301,h,0,0.21786350011825562,0.04763619974255562,0.04595350008457899,0.09955300018191338,0.1007306994870305,0.7497992999851704
RSVPLG03,JM,20260219-095552,1.0.2,20251105-084826,768,Experiment,Both,1,Automatic,main,65,20260219-100235,global,global,300,H,H,E,A,H-E.png,H-A.png,hH,hH,mask-1.png,mask-2.png,h,1,0.7056419001892209,h,1,0.145473999902606,0.04661550000309944,0.045722899958491325,0.09947730042040348,0.09985219966620207,0.2998895002529025
RSVPLG03,JM,20260219-095552,1.0.2,20251105-084826,768,Experiment,Both,1,Automatic,main,66,20260219-100239,global,local,300,S,H,E,E,S-E.png,E-H.png,sS,hH,mask-2.png,mask-1.png,s,1,0.5065577998757362,s,0,0.39551089983433485,0.04918449930846691,0.046643500216305256,0.10034709982573986,0.1005501002073288,0.3012163992971182
RSVPLG03,JM,20260219-095552,1.0.2,20251105-084826,768,Experiment,Both,1,Automatic,main,67,20260219-100244,local,global,300,S,S,E,E,E-S.png,S-E.png,sS,sS,mask-1.png,mask-2.png,s,1,0.42552189994603395,s,1,0.3602232001721859,0.047711499966681004,0.04573010001331568,0.09992360044270754,0.1001145001500845,0.30064160004258156
RSVPLG03,JM,20260219-095552,1.0.2,20251105-084826,768,Experiment,Both,1,Automatic,main,68,20260219-100248,global,global,300,H,S,A,E,H-A.png,S-E.png,hH,sS,mask-3.png,mask-4.png,h,1,0.45702619943767786,s,1,0.2641001995652914,0.046616800129413605,0.04656410031020641,0.0997053999453783,0.10001110006123781,0.2991984002292156
RSVPLG03,JM,20260219-095552,1.0.2,20251105-084826,768,Experiment,Both,1,Automatic,main,69,20260219-100252,global,local,300,H,S,E,E,H-E.png,E-S.png,hH,sS,mask-3.png,mask-2.png,h,1,0.4049399998039007,s,1,0.2029206994920969,0.046488700434565544,0.04636560007929802,0.10012750048190355,0.09921470005065203,0.300025399774313
RSVPLG03,JM,20260219-095552,1.0.2,20251105-084826,768,Experiment,Both,1,Automatic,main,70,20260219-100257,local,local,750,S,H,A,A,A-S.png,A-H.png,sS,hH,mask-1.png,mask-2.png,h,0,0.5021565994247794,s,0,0.27223580051213503,0.046840899623930454,0.04891120083630085,0.10099560022354126,0.10010970011353493,0.7491716993972659
RSVPLG03,JM,20260219-095552,1.0.2,20251105-084826,768,Experiment,Both,1,Automatic,main,71,20260219-100302,local,global,750,S,S,E,E,E-S.png,S-E.png,sS,sS,mask-2.png,mask-1.png,s,1,0.3697501001879573,s,1,0.49876749981194735,0.048491000197827816,0.046512799337506294,0.09941930044442415,0.0986871998757124,0.7502379007637501
RSVPLG03,JM,20260219-095552,1.0.2,20251105-084826,768,Experiment,Both,1,Automatic,main,72,20260219-100306,global,global,750,H,S,A,A,H-A.png,S-A.png,hH,sS,mask-4.png,mask-2.png,h,1,0.5412355000153184,s,1,0.24712519999593496,0.04764710087329149,0.04671370051801205,0.09875090047717094,0.09946779999881983,0.7494818000122905
RSVPLG03,JM,20260219-095552,1.0.2,20251105-084826,768,Experiment,Both,1,Automatic,main,73,20260219-100311,local,local,300,S,H,E,A,E-S.png,A-H.png,sS,hH,mask-2.png,mask-3.png,s,1,0.6455023996531963,h,1,0.2246824000030756,0.047080100513994694,0.048578400164842606,0.10038609988987446,0.09990449994802475,0.29978640004992485
RSVPLG03,JM,20260219-095552,1.0.2,20251105-084826,768,Experiment,Both,1,Automatic,main,74,20260219-100316,global,global,750,H,S,E,E,H-E.png,S-E.png,hH,sS,mask-1.png,mask-2.png,h,1,0.4281452000141144,s,1,0.27588870003819466,0.048063600435853004,0.0469229007139802,0.09980070032179356,0.09978510066866875,0.750331100076437
RSVPLG03,JM,20260219-095552,1.0.2,20251105-084826,768,Experiment,Both,1,Automatic,main,75,20260219-100321,local,global,750,H,H,E,A,E-H.png,H-A.png,hH,hH,mask-4.png,mask-3.png,s,0,0.5087347999215126,h,1,0.25880090054124594,0.048523999750614166,0.047500899992883205,0.09952909965068102,0.09951469954103231,0.7491581998765469
RSVPLG03,JM,20260219-095552,1.0.2,20251105-084826,768,Experiment,Both,1,Automatic,main,76,20260219-100412,global,local,750,H,S,A,A,H-A.png,A-S.png,hH,sS,mask-2.png,mask-4.png,h,1,0.4495768006891012,s,1,0.20373940002173185,0.04875499941408634,0.04713340010493994,0.10104939993470907,0.09842440020292997,0.7509264992550015
RSVPLG03,JM,20260219-095552,1.0.2,20251105-084826,768,Experiment,Both,1,Automatic,main,77,20260219-100417,global,global,750,S,H,A,E,S-A.png,H-E.png,sS,hH,mask-1.png,mask-4.png,s,1,0.424529199488461,h,1,0.2746124994009733,0.046749900095164776,0.04682930000126362,0.09984149970114231,0.10003629978746176,0.7499310998246074
RSVPLG03,JM,20260219-095552,1.0.2,20251105-084826,768,Experiment,Both,1,Automatic,main,78,20260219-100421,local,local,300,H,S,E,A,E-H.png,A-S.png,hH,sS,mask-3.png,mask-1.png,s,0,0.9753128997981548,h,0,0.11267960071563721,0.047631400637328625,0.04752300027757883,0.09859750047326088,0.09841430000960827,0.29949420038610697
RSVPLG03,JM,20260219-095552,1.0.2,20251105-084826,768,Experiment,Both,1,Automatic,main,79,20260219-100426,global,global,750,H,S,A,E,H-A.png,S-E.png,hH,sS,mask-4.png,mask-4.png,h,1,0.42613890022039413,s,1,0.2329788003116846,0.04959690012037754,0.047231500037014484,0.10062599927186966,0.09925450012087822,0.7507499000057578
RSVPLG03,JM,20260219-095552,1.0.2,20251105-084826,768,Experiment,Both,1,Automatic,main,80,20260219-100431,local,local,750,H,H,E,E,E-H.png,E-H.png,hH,hH,mask-1.png,mask-1.png,s,0,0.5536660999059677,s,0,0.24808329995721579,0.04701790027320385,0.048881400376558304,0.09990210086107254,0.10088830068707466,0.7485996000468731
RSVPLG03,JM,20260219-095552,1.0.2,20251105-084826,768,Experiment,Both,1,Automatic,main,81,20260219-100436,local,global,750,S,S,E,E,E-S.png,S-E.png,sS,sS,mask-1.png,mask-2.png,s,1,0.4753125999122858,s,1,0.4245814001187682,0.047211299650371075,0.047671299427747726,0.09841569978743792,0.09935169946402311,0.7485680999234319
RSVPLG03,JM,20260219-095552,1.0.2,20251105-084826,768,Experiment,Both,1,Automatic,main,82,20260219-100441,local,local,750,H,H,A,E,A-H.png,E-H.png,hH,hH,mask-1.png,mask-2.png,h,1,0.2827066006138921,s,0,0.18733809981495142,0.04714079946279526,0.04747630003839731,0.09888749942183495,0.10043200012296438,0.7479133997112513
RSVPLG03,JM,20260219-095552,1.0.2,20251105-084826,768,Experiment,Both,1,Automatic,main,83,20260219-100445,local,local,750,H,H,A,E,A-H.png,E-H.png,hH,hH,mask-2.png,mask-4.png,h,1,0.73119099996984,h,1,0.28945459984242916,0.047305100597441196,0.048091200180351734,0.10049690026789904,0.100484199821949,0.7498535001650453
RSVPLG03,JM,20260219-095552,1.0.2,20251105-084826,768,Experiment,Both,1,Automatic,main,84,20260219-100450,local,local,300,H,S,E,A,E-H.png,A-S.png,hH,sS,mask-4.png,mask-1.png,s,0,0.48870550002902746,s,1,0.1997672999277711,0.04802839923650026,0.046524399891495705,0.10056179948151112,0.09918349981307983,0.2998337000608444
RSVPLG03,JM,20260219-095552,1.0.2,20251105-084826,768,Experiment,Both,1,Automatic,main,85,20260219-100454,local,global,300,S,H,E,E,E-S.png,H-E.png,sS,hH,mask-3.png,mask-4.png,s,1,0.3957369001582265,h,1,0.20779560040682554,0.04823159985244274,0.0474798996001482,0.10067189950495958,0.0989184994250536,0.3009230000898242
RSVPLG03,JM,20260219-095552,1.0.2,20251105-084826,768,Experiment,Both,1,Automatic,main,86,20260219-100459,global,local,300,H,S,A,E,H-A.png,E-S.png,hH,sS,mask-4.png,mask-1.png,h,1,0.4536183001473546,s,1,0.2091958997771144,0.046344999223947525,0.04805759992450476,0.09853449929505587,0.10081970039755106,0.29852169938385487
RSVPLG03,JM,20260219-095552,1.0.2,20251105-084826,768,Experiment,Both,1,Automatic,main,87,20260219-100503,local,global,300,H,S,A,A,A-H.png,S-A.png,hH,sS,mask-4.png,mask-2.png,h,1,0.3097463995218277,s,1,0.19152379967272282,0.04771540034562349,0.04736199975013733,0.10048210062086582,0.10057609993964434,0.30092590022832155
RSVPLG03,JM,20260219-095552,1.0.2,20251105-084826,768,Experiment,Both,1,Automatic,main,88,20260219-100507,global,global,300,H,H,E,A,H-E.png,H-A.png,hH,hH,mask-2.png,mask-3.png,h,1,0.3894535005092621,h,1,0.2453616000711918,0.04872910026460886,0.04771389998495579,0.09963009972125292,0.1009010998532176,0.30010230001062155
RSVPLG03,JM,20260219-095552,1.0.2,20251105-084826,768,Experiment,Both,1,Automatic,main,89,20260219-100511,local,global,300,H,S,E,A,E-H.png,S-A.png,hH,sS,mask-4.png,mask-2.png,s,0,0.8337625991553068,s,1,0.21964029967784882,0.0476666996255517,0.047583299688994884,0.09971059951931238,0.09954639989882708,0.30039949994534254
RSVPLG03,JM,20260219-095552,1.0.2,20251105-084826,768,Experiment,Both,1,Automatic,main,90,20260219-100516,global,local,300,H,S,E,E,H-E.png,E-S.png,hH,sS,mask-3.png,mask-4.png,h,1,0.35191959980875254,s,1,0.18012140039354563,0.047420100308954716,0.04753489978611469,0.10050920024514198,0.098857999779284,0.30002930015325546
RSVPLG03,JM,20260219-095552,1.0.2,20251105-084826,768,Experiment,Both,1,Automatic,main,91,20260219-100520,local,global,750,S,H,A,A,A-S.png,H-A.png,sS,hH,mask-4.png,mask-4.png,h,0,0.757141200825572,s,0,0.1850396003574133,0.04586589988321066,0.047638900578022,0.10027679987251759,0.10021000076085329,0.749397499486804
RSVPLG03,JM,20260219-095552,1.0.2,20251105-084826,768,Experiment,Both,1,Automatic,main,92,20260219-100525,local,global,300,S,S,E,A,E-S.png,S-A.png,sS,sS,mask-2.png,mask-3.png,s,1,0.9913593996316195,s,1,0.2171682994812727,0.0486279996111989,0.048435499891638756,0.09987160004675388,0.10035469941794872,0.29942990001291037
RSVPLG03,JM,20260219-095552,1.0.2,20251105-084826,768,Experiment,Both,1,Automatic,main,93,20260219-100530,local,global,750,S,H,E,A,E-S.png,H-A.png,sS,hH,mask-4.png,mask-3.png,s,1,0.40285700000822544,h,1,0.23635090049356222,0.047683799639344215,0.047668700106441975,0.09887230023741722,0.10115200001746416,0.748348199762404
RSVPLG03,JM,20260219-095552,1.0.2,20251105-084826,768,Experiment,Both,1,Automatic,main,94,20260219-100535,local,local,300,S,H,A,A,A-S.png,A-H.png,sS,hH,mask-4.png,mask-4.png,s,1,1.5392084000632167,h,1,0.24387049954384565,0.04884580057114363,0.04767689947038889,0.10103430040180683,0.09997950028628111,0.2995038004592061
RSVPLG03,JM,20260219-095552,1.0.2,20251105-084826,768,Experiment,Both,1,Automatic,main,95,20260219-100540,local,global,750,S,H,E,A,E-S.png,H-A.png,sS,hH,mask-1.png,mask-3.png,s,1,0.3739147996529937,h,1,0.2464991007000208,0.047863200306892395,0.04784169979393482,0.10207630041986704,0.10003309976309538,0.7499473001807928
RSVPLG03,JM,20260219-095552,1.0.2,20251105-084826,768,Experiment,Both,1,Automatic,main,96,20260219-100545,global,local,300,H,H,E,A,H-E.png,A-H.png,hH,hH,mask-2.png,mask-1.png,h,1,0.48745149932801723,s,0,0.24578869994729757,0.04881780035793781,0.04779549967497587,0.10015720035880804,0.09996340051293373,0.30113339982926846
RSVPLG03,JM,20260219-095552,1.0.2,20251105-084826,768,Experiment,Both,1,Automatic,main,97,20260219-100549,local,local,750,S,H,A,A,A-S.png,A-H.png,sS,hH,mask-3.png,mask-4.png,s,1,0.6670955000445247,h,1,0.12750530056655407,0.047783300280570984,0.047152900137007236,0.09963229950517416,0.10026860050857067,0.7490646997466683
RSVPLG03,JM,20260219-095552,1.0.2,20251105-084826,768,Experiment,Both,1,Automatic,main,98,20260219-100554,local,global,300,S,S,A,E,A-S.png,S-E.png,sS,sS,mask-3.png,mask-4.png,s,1,0.41720360051840544,h,0,0.18457490019500256,0.04578560031950474,0.048540400341153145,0.09965030010789633,0.10044850036501884,0.2987211002036929
RSVPLG03,JM,20260219-095552,1.0.2,20251105-084826,768,Experiment,Both,1,Automatic,main,99,20260219-100558,local,local,300,H,S,E,A,E-H.png,A-S.png,hH,sS,mask-1.png,mask-2.png,h,1,0.5916919000446796,s,1,0.2784210005775094,0.04653390031307936,0.047541399486362934,0.10062240064144135,0.1001480994746089,0.2988076005131006
RSVPLG03,JM,20260219-095552,1.0.2,20251105-084826,768,Experiment,Both,1,Automatic,main,100,20260219-100603,local,global,300,H,H,E,A,E-H.png,H-A.png,hH,hH,mask-4.png,mask-1.png,s,0,0.7464605998247862,h,1,0.12211950030177832,0.04656030051410198,0.04757170006632805,0.1007056999951601,0.09973159991204739,0.30027780029922724
