exp,exp_initials,runtime,ver,modtime,sub,blocktype,targets,cuetype,mode,trialtype,trial,trialtime,t1_level,t2_level,t2_lag,t1,t2,distractor1,distractor2,stimfile1,stimfile2,t1_corr,t2_corr,maskfile1,maskfile2,t1_resp,t1_acc,t1_rt,t2_resp,t2_acc,t2_rt,t1_dur,t2_dur,t1mask_soa,t2mask_soa,t1t2_soa
RSVPLG03,km,20260326-151514,1.0.2,20251113-095759,813,Introduction,T1,1,Automatic,main,1,20260326-151544,global,global,750,H,S,E,E,H-E.png,S-E.png,hH,sS,mask-4.png,mask-3.png,h,1,2.427215499992599,none,-5,0,0.09919999999692664,0.10088509999332018,0.19913690000248607,0.20031590000144206,0.7498682000004919
RSVPLG03,km,20260326-151514,1.0.2,20251113-095759,813,Introduction,T1,1,Automatic,main,2,20260326-151550,local,global,750,S,S,E,E,E-S.png,S-E.png,sS,sS,mask-1.png,mask-4.png,h,0,1.8940806000027806,none,-5,0,0.09985320000851061,0.1009489999996731,0.20087990000320133,0.20085649999964517,0.7495710000075633
RSVPLG03,km,20260326-151514,1.0.2,20251113-095759,813,Introduction,T1,1,Automatic,main,3,20260326-151556,global,global,750,H,S,E,E,H-E.png,S-E.png,hH,sS,mask-1.png,mask-4.png,h,1,2.014855200002785,none,-5,0,0.1000513999897521,0.10160639999958221,0.1991593999991892,0.201278699998511,0.7491035999992164
RSVPLG03,km,20260326-151514,1.0.2,20251113-095759,813,Introduction,T1,1,Automatic,main,4,20260326-151602,global,local,750,S,H,A,E,S-A.png,E-H.png,sS,hH,mask-1.png,mask-2.png,s,1,2.5880219000100624,none,-5,0,0.09932589999516495,0.09955739999713842,0.2003701999929035,0.19971780000196304,0.7501007999962894
RSVPLG03,km,20260326-151514,1.0.2,20251113-095759,813,Introduction,T1,1,Automatic,main,5,20260326-151609,local,global,750,S,H,E,E,E-S.png,H-E.png,sS,hH,mask-3.png,mask-4.png,h,0,2.3437885999883292,none,-5,0,0.10104120000323746,0.09960800000408199,0.2004637000063667,0.19927110000571702,0.7511957999959122
RSVPLG03,km,20260326-151514,1.0.2,20251113-095759,813,Introduction,T1,1,Automatic,main,6,20260326-151616,local,local,750,S,S,E,E,E-S.png,E-S.png,sS,sS,mask-1.png,mask-2.png,s,1,1.776819400009117,none,-5,0,0.0992402999982005,0.09968600000138395,0.1996526000002632,0.19937459999346174,0.7513883999927202
RSVPLG03,km,20260326-151514,1.0.2,20251113-095759,813,Introduction,T1,1,Automatic,main,7,20260326-151622,local,global,750,S,H,A,A,A-S.png,H-A.png,sS,hH,mask-1.png,mask-2.png,s,1,1.5351622000016505,none,-5,0,0.09896520001348108,0.10119039998971857,0.20016450001276098,0.20090379999601282,0.7507562000100734
RSVPLG03,km,20260326-151514,1.0.2,20251113-095759,813,Introduction,T1,1,Automatic,main,8,20260326-151627,global,global,750,H,H,A,A,H-A.png,H-A.png,hH,hH,mask-4.png,mask-4.png,h,1,0.7687129999976605,none,-5,0,0.09991699999955017,0.0999809000059031,0.20109319999755826,0.1986345000041183,0.7518208999972558
RSVPLG03,km,20260326-151514,1.0.2,20251113-095759,813,Introduction,T1,1,Automatic,main,9,20260326-151632,global,local,750,S,S,E,A,S-E.png,A-S.png,sS,sS,mask-3.png,mask-4.png,s,1,1.2634103000018513,none,-5,0,0.09981559999869205,0.09988840000005439,0.2007043000048725,0.19917890000215266,0.7509875999967335
RSVPLG03,km,20260326-151514,1.0.2,20251113-095759,813,Introduction,T1,1,Automatic,main,10,20260326-151638,global,global,750,S,H,A,A,S-A.png,H-A.png,sS,hH,mask-3.png,mask-4.png,s,1,0.9859709000011208,none,-5,0,0.09909819999302272,0.10095110000111163,0.19995880000351463,0.2006363000109559,0.7497543999925256
RSVPLG03,km,20260326-151514,1.0.2,20251113-095759,813,Introduction,T1,1,Automatic,main,11,20260326-151643,local,local,750,S,H,E,E,E-S.png,E-H.png,sS,hH,mask-2.png,mask-4.png,s,1,1.1325226000044495,none,-5,0,0.09989050000149291,0.098992699990049,0.20025120000354946,0.19906179999816231,0.7515013000083854
RSVPLG03,km,20260326-151514,1.0.2,20251113-095759,813,Introduction,T1,1,Automatic,main,12,20260326-151648,local,local,750,H,H,E,A,E-H.png,A-H.png,hH,hH,mask-1.png,mask-3.png,h,1,0.7089097999996739,none,-5,0,0.10103529998741578,0.09890579999773763,0.20161829999415204,0.19778129999758676,0.7532505999988643
RSVPLG03,km,20260326-151514,1.0.2,20251113-095759,813,Introduction,T1,1,Automatic,main,13,20260326-151653,global,local,750,S,S,A,A,S-A.png,A-S.png,sS,sS,mask-3.png,mask-2.png,s,1,1.870838899994851,none,-5,0,0.09905050000816118,0.09924959999625571,0.19865390000632033,0.20003140000335407,0.7505436000064947
RSVPLG03,km,20260326-151514,1.0.2,20251113-095759,813,Introduction,T1,1,Automatic,main,14,20260326-151659,local,global,750,H,S,A,E,A-H.png,S-E.png,hH,sS,mask-2.png,mask-2.png,h,1,1.3420860999904107,none,-5,0,0.09945429999788757,0.10142310000082944,0.19933479999599513,0.20151800000166986,0.7499465000000782
RSVPLG03,km,20260326-151514,1.0.2,20251113-095759,813,Introduction,T1,1,Automatic,main,15,20260326-151704,global,local,750,S,S,A,E,S-A.png,E-S.png,sS,sS,mask-2.png,mask-4.png,none,-6,0,none,-5,0,0.09853350000048522,0.1003290999942692,0.1989869999961229,0.20114309999917168,0.748709699997562
RSVPLG03,km,20260326-151722,1.0.2,20251113-095759,813,Practice,T1,1,Automatic,main,1,20260326-151748,local,local,300,H,H,E,A,E-H.png,A-H.png,hH,hH,mask-4.png,mask-4.png,s,0,1.0404723999963608,none,-5,0,0.04525439999997616,0.048771399990073405,0.09531069999502506,0.10069949999160599,0.29681250000430737
RSVPLG03,km,20260326-151722,1.0.2,20251113-095759,813,Practice,T1,1,Automatic,main,2,20260326-151752,global,global,750,H,S,E,A,H-E.png,S-A.png,hH,sS,mask-2.png,mask-1.png,h,1,0.8641585000004852,none,-5,0,0.050933200007420965,0.04999590000079479,0.10048500000266358,0.09970819999580272,0.7512826000020141
RSVPLG03,km,20260326-151722,1.0.2,20251113-095759,813,Practice,T1,1,Automatic,main,3,20260326-151757,global,local,750,H,S,E,E,H-E.png,E-S.png,hH,sS,mask-2.png,mask-3.png,h,1,0.6076651000039419,none,-5,0,0.050070999990566634,0.04891749999660533,0.09948719998646993,0.09987469999759924,0.750646799991955
RSVPLG03,km,20260326-151722,1.0.2,20251113-095759,813,Practice,T1,1,Automatic,main,4,20260326-151802,local,local,750,S,S,A,A,A-S.png,A-S.png,sS,sS,mask-2.png,mask-1.png,s,1,0.7724376999976812,none,-5,0,0.04978000000119209,0.05012889999488834,0.09957010000653099,0.09939180000219494,0.751204800006235
RSVPLG03,km,20260326-151722,1.0.2,20251113-095759,813,Practice,T1,1,Automatic,main,5,20260326-151807,local,global,750,S,S,E,A,E-S.png,S-A.png,sS,sS,mask-3.png,mask-4.png,s,1,0.7477397000038764,none,-5,0,0.048623499998939224,0.04871899999852758,0.09966419999545906,0.0994496000057552,0.7504681999998866
RSVPLG03,km,20260326-151722,1.0.2,20251113-095759,813,Practice,T1,1,Automatic,main,6,20260326-151811,global,local,750,S,H,A,A,S-A.png,A-H.png,sS,hH,mask-2.png,mask-2.png,s,1,1.1743195000017295,none,-5,0,0.04812649999803398,0.04957069999363739,0.09932760000810958,0.10193590000562835,0.7500178000045707
RSVPLG03,km,20260326-151722,1.0.2,20251113-095759,813,Practice,T1,1,Automatic,main,7,20260326-151816,local,local,300,S,H,E,A,E-S.png,A-H.png,sS,hH,mask-3.png,mask-4.png,s,1,1.3768407000025036,none,-5,0,0.04941300000064075,0.05021300000953488,0.09962010000890587,0.10013620000972878,0.29921379999723285
RSVPLG03,km,20260326-151722,1.0.2,20251113-095759,813,Practice,T1,1,Automatic,main,8,20260326-151821,local,global,300,S,H,E,A,E-S.png,H-A.png,sS,hH,mask-1.png,mask-1.png,s,1,1.0240111000020988,none,-5,0,0.04916960000991821,0.04947849999007303,0.10052079999877606,0.10099320000153966,0.2995169000059832
RSVPLG03,km,20260326-151722,1.0.2,20251113-095759,813,Practice,T1,1,Automatic,main,9,20260326-151826,global,global,750,H,S,E,E,H-E.png,S-E.png,hH,sS,mask-3.png,mask-1.png,h,1,0.8681268000073032,none,-5,0,0.04991169999993872,0.05023369999253191,0.09987530000216793,0.10120649999589659,0.7506552999984706
RSVPLG03,km,20260326-151722,1.0.2,20251113-095759,813,Practice,T1,1,Automatic,main,10,20260326-151831,local,global,300,S,S,E,E,E-S.png,S-E.png,sS,sS,mask-3.png,mask-1.png,s,1,0.7724198999931104,none,-5,0,0.051380800010520034,0.04992599999241065,0.10129230000893585,0.10000920000311453,0.301449100006721
RSVPLG03,km,20260326-151722,1.0.2,20251113-095759,813,Practice,T1,1,Automatic,main,11,20260326-151835,local,local,750,S,H,A,E,A-S.png,E-H.png,sS,hH,mask-4.png,mask-2.png,s,1,0.7934922999993432,none,-5,0,0.05020019999938086,0.04906070001015905,0.10044599999673665,0.09908729999733623,0.7513192999904277
RSVPLG03,km,20260326-151722,1.0.2,20251113-095759,813,Practice,T1,1,Automatic,main,12,20260326-151840,global,global,300,H,H,A,A,H-A.png,H-A.png,hH,hH,mask-3.png,mask-2.png,h,1,0.5974454999959562,none,-5,0,0.05035350000252947,0.05016600000089966,0.10038180000265129,0.09980369999539107,0.2995266000070842
RSVPLG03,km,20260326-151722,1.0.2,20251113-095759,813,Practice,T1,1,Automatic,main,13,20260326-151844,global,global,300,H,S,A,A,H-A.png,S-A.png,hH,sS,mask-2.png,mask-1.png,h,1,0.42753190000075847,none,-5,0,0.04996620000747498,0.050580600000103004,0.10201890001189895,0.10016580000228714,0.2998580999992555
RSVPLG03,km,20260326-151722,1.0.2,20251113-095759,813,Practice,T1,1,Automatic,main,14,20260326-151848,local,global,750,S,S,A,A,A-S.png,S-A.png,sS,sS,mask-3.png,mask-2.png,s,1,0.42355099999986123,none,-5,0,0.04890009999508038,0.05120539999916218,0.09904610000376124,0.09998559999803547,0.7508820999937598
RSVPLG03,km,20260326-151722,1.0.2,20251113-095759,813,Practice,T1,1,Automatic,main,15,20260326-151852,global,local,300,S,S,A,A,S-A.png,A-S.png,sS,sS,mask-4.png,mask-1.png,s,1,0.5811561000009533,none,-5,0,0.05097300000488758,0.05197270000644494,0.10018390000914223,0.10095459999865852,0.2998742000054335
RSVPLG03,km,20260326-151722,1.0.2,20251113-095759,813,Practice,T1,1,Automatic,main,16,20260326-151856,global,local,300,H,S,E,A,H-E.png,A-S.png,hH,sS,mask-3.png,mask-4.png,h,1,0.3222834000043804,none,-5,0,0.050531600005342625,0.050103600005968474,0.09991420000733342,0.1005074999993667,0.2989750999986427
RSVPLG03,km,20260326-151951,1.0.2,20251113-095759,813,Introduction,Both,1,Automatic,main,1,20260326-152027,local,local,750,S,H,E,E,E-S.png,E-H.png,sS,hH,mask-2.png,mask-3.png,s,1,1.0322539000044344,h,1,1.777424299987615,0.09085649999906309,0.09923669999989215,0.19191209999553394,0.20075639999413397,0.7374839999974938
RSVPLG03,km,20260326-151951,1.0.2,20251113-095759,813,Introduction,Both,1,Automatic,main,2,20260326-152034,global,global,750,H,S,E,E,H-E.png,S-E.png,hH,sS,mask-3.png,mask-3.png,h,1,0.8138340000004973,s,1,0.49568949999229517,0.09673759998986498,0.10008469999593217,0.19803309999406338,0.19975319999502972,0.7441340999939712
RSVPLG03,km,20260326-151951,1.0.2,20251113-095759,813,Introduction,Both,1,Automatic,main,3,20260326-152040,local,global,750,S,H,E,A,E-S.png,H-A.png,sS,hH,mask-3.png,mask-2.png,s,1,0.990015500006848,h,1,0.45023779998882674,0.09992520000378136,0.0998126000049524,0.1979360999976052,0.1987541999988025,0.7444414999918081
RSVPLG03,km,20260326-151951,1.0.2,20251113-095759,813,Introduction,Both,1,Automatic,main,4,20260326-152045,global,local,750,S,H,A,E,S-A.png,E-H.png,sS,hH,mask-3.png,mask-2.png,s,1,0.890569900002447,s,0,0.8958371000044281,0.10020200000144541,0.09906019999471027,0.19717269999091513,0.19807980000041425,0.7452256999968085
RSVPLG03,km,20260326-151951,1.0.2,20251113-095759,813,Introduction,Both,1,Automatic,main,5,20260326-152051,local,global,750,H,H,A,A,A-H.png,H-A.png,hH,hH,mask-1.png,mask-3.png,h,1,1.515280100007658,s,0,0.7800736999924993,0.09939229999145027,0.09846839999954682,0.19947739999042824,0.19723330000124406,0.7472024999879068
RSVPLG03,km,20260326-151951,1.0.2,20251113-095759,813,Introduction,Both,1,Automatic,main,6,20260326-152058,global,global,750,H,H,A,A,H-A.png,H-A.png,hH,hH,mask-2.png,mask-3.png,h,1,0.6340857000031974,h,1,0.448034999993979,0.09988559999328572,0.09808580001117662,0.19810530000540894,0.19654109999828506,0.7458425999939209
RSVPLG03,km,20260326-151951,1.0.2,20251113-095759,813,Introduction,Both,1,Automatic,main,7,20260326-152103,global,local,750,S,S,A,E,S-A.png,E-S.png,sS,sS,mask-2.png,mask-2.png,s,1,1.4274424000032013,h,0,0.3512583999981871,0.10035659999994095,0.09927029999380466,0.19903350000095088,0.19825859999400564,0.7456677000009222
RSVPLG03,km,20260326-151951,1.0.2,20251113-095759,813,Introduction,Both,1,Automatic,main,8,20260326-152109,local,global,750,H,H,E,A,E-H.png,H-A.png,hH,hH,mask-4.png,mask-2.png,h,1,1.420989099991857,s,0,0.7002083999977913,0.09959119999257382,0.10017649999645073,0.19824859999062028,0.2004190000006929,0.7446609000035096
RSVPLG03,km,20260326-151951,1.0.2,20251113-095759,813,Introduction,Both,1,Automatic,main,9,20260326-152116,local,global,750,S,S,E,A,E-S.png,S-A.png,sS,sS,mask-2.png,mask-1.png,s,1,1.2628125000046566,h,0,0.4502911000017775,0.09949379999306984,0.09902310000325087,0.1988608999963617,0.19929590000538155,0.7457746000000043
RSVPLG03,km,20260326-151951,1.0.2,20251113-095759,813,Introduction,Both,1,Automatic,main,10,20260326-152122,global,global,750,S,H,A,E,S-A.png,H-E.png,sS,hH,mask-1.png,mask-4.png,s,1,1.6410031999985222,h,1,0.5242916999995941,0.09998579999955837,0.10038049999275245,0.1991585999930976,0.19947779999347404,0.7456333000009181
RSVPLG03,km,20260326-151951,1.0.2,20251113-095759,813,Introduction,Both,1,Automatic,main,11,20260326-152128,local,local,750,S,S,A,E,A-S.png,E-S.png,sS,sS,mask-4.png,mask-4.png,none,-6,0,none,-6,0,0.09728560000075959,0.0986896000104025,0.19785549999505747,0.19795200000226032,0.7447496999957366
RSVPLG03,km,20260326-152147,1.0.2,20251113-095759,813,Practice,Both,1,Automatic,main,1,20260326-152210,local,local,750,S,H,E,E,E-S.png,E-H.png,sS,hH,mask-4.png,mask-2.png,s,1,0.6725086999940686,h,1,0.3690971000032732,0.03988669998943806,0.05078079999657348,0.09165909999865107,0.09946289999061264,0.7411019999999553
RSVPLG03,km,20260326-152147,1.0.2,20251113-095759,813,Practice,Both,1,Automatic,main,2,20260326-152215,local,local,750,S,S,A,A,A-S.png,A-S.png,sS,sS,mask-3.png,mask-3.png,s,1,0.5595942000072682,s,1,0.2574819000001298,0.05077929999970365,0.050749999994877726,0.09970049999537878,0.10092729999450967,0.7507186000002548
RSVPLG03,km,20260326-152147,1.0.2,20251113-095759,813,Practice,Both,1,Automatic,main,3,20260326-152220,global,local,750,H,H,A,A,H-A.png,A-H.png,hH,hH,mask-1.png,mask-1.png,h,1,0.6727125999896089,h,1,0.32005429999844637,0.050856200003181584,0.05395610000414308,0.10006589999829885,0.10049630000139587,0.7503447000053711
RSVPLG03,km,20260326-152147,1.0.2,20251113-095759,813,Practice,Both,1,Automatic,main,4,20260326-152225,global,local,300,S,H,E,A,S-E.png,A-H.png,sS,hH,mask-3.png,mask-2.png,s,1,0.7745023000024958,h,1,0.2723144999908982,0.05119110000669025,0.048891600003116764,0.09981450000486802,0.0990451999969082,0.3011374000052456
RSVPLG03,km,20260326-152147,1.0.2,20251113-095759,813,Practice,Both,1,Automatic,main,5,20260326-152230,local,global,300,S,S,E,A,E-S.png,S-A.png,sS,sS,mask-3.png,mask-1.png,s,1,0.7257809000002453,h,0,0.273770699990564,0.05087780000758357,0.05106579999846872,0.09971039999800269,0.10203229999751784,0.29844579999917187
RSVPLG03,km,20260326-152147,1.0.2,20251113-095759,813,Practice,Both,1,Automatic,main,6,20260326-152234,global,local,750,H,S,A,A,H-A.png,A-S.png,hH,sS,mask-3.png,mask-4.png,h,1,0.6363546999928076,s,1,0.43316100000811275,0.04900709999492392,0.0516110999888042,0.09891989998868667,0.09972759999800473,0.749745900000562
RSVPLG03,km,20260326-152147,1.0.2,20251113-095759,813,Practice,Both,1,Automatic,main,7,20260326-152239,local,global,300,S,H,A,E,A-S.png,H-E.png,sS,hH,mask-4.png,mask-4.png,s,1,0.7210558999940986,h,1,0.3839829000062309,0.05023960000835359,0.049702499993145466,0.0992846000008285,0.10318559998995624,0.29953490001207683
RSVPLG03,km,20260326-152147,1.0.2,20251113-095759,813,Practice,Both,1,Automatic,main,8,20260326-152244,local,local,300,H,H,E,E,E-H.png,E-H.png,hH,hH,mask-2.png,mask-1.png,s,0,1.0062946999969427,h,1,0.3513831000018399,0.04839299999002833,0.0487894999969285,0.09874889999628067,0.09845439999480732,0.29994040000019595
RSVPLG03,km,20260326-152147,1.0.2,20251113-095759,813,Practice,Both,1,Automatic,main,9,20260326-152249,global,global,300,S,S,E,A,S-E.png,S-A.png,sS,sS,mask-4.png,mask-3.png,s,1,0.5310658999951556,s,1,0.17656249999708962,0.05016379999869969,0.050304000003961846,0.10008610000659246,0.09969010000349954,0.3001734999998007
RSVPLG03,km,20260326-152147,1.0.2,20251113-095759,813,Practice,Both,1,Automatic,main,10,20260326-152253,local,local,300,H,H,E,A,E-H.png,A-H.png,hH,hH,mask-1.png,mask-2.png,h,1,1.1778443999937735,s,0,0.6082795999973314,0.05044340000313241,0.04927789999055676,0.09931029999279417,0.0998327999986941,0.29972470000211615
RSVPLG03,km,20260326-152147,1.0.2,20251113-095759,813,Practice,Both,1,Automatic,main,11,20260326-152259,global,local,300,H,S,A,E,H-A.png,E-S.png,hH,sS,mask-4.png,mask-2.png,s,0,2.3183427000039956,h,0,0.12786180000694003,0.050725599998258986,0.050939099994138815,0.09988639999937732,0.10046200000215322,0.3004187000042293
RSVPLG03,km,20260326-152147,1.0.2,20251113-095759,813,Practice,Both,1,Automatic,main,12,20260326-152305,global,global,750,S,S,E,E,S-E.png,S-E.png,sS,sS,mask-1.png,mask-3.png,s,1,1.3237607999908505,h,0,0.6724478999967687,0.04932669999834616,0.05009849999623839,0.09974659999716096,0.10034070000983775,0.7495941999950446
RSVPLG03,km,20260326-152147,1.0.2,20251113-095759,813,Practice,Both,1,Automatic,main,13,20260326-152311,global,global,300,S,H,A,A,S-A.png,H-A.png,sS,hH,mask-2.png,mask-1.png,s,1,1.2599994000047445,h,1,0.27061849999881815,0.050268699997104704,0.04835029999958351,0.10186579999572132,0.09944969999196474,0.30115090000617784
RSVPLG03,km,20260326-152147,1.0.2,20251113-095759,813,Practice,Both,1,Automatic,main,14,20260326-152316,global,global,750,H,H,A,A,H-A.png,H-A.png,hH,hH,mask-1.png,mask-3.png,h,1,0.4984775999910198,h,1,0.1755680000060238,0.05089159999624826,0.04927210000460036,0.09778659998846706,0.10066520000691526,0.7488622999953805
RSVPLG03,km,20260326-152147,1.0.2,20251113-095759,813,Practice,Both,1,Automatic,main,15,20260326-152321,local,global,750,H,H,E,E,E-H.png,H-E.png,hH,hH,mask-4.png,mask-2.png,h,1,0.8632636999973329,s,0,0.81690219999291,0.05024649998813402,0.04945880000013858,0.10148749999643769,0.09801440000592265,0.7523532999912277
RSVPLG03,km,20260326-152147,1.0.2,20251113-095759,813,Practice,Both,1,Automatic,main,16,20260326-152327,local,global,750,S,H,A,A,A-S.png,H-A.png,sS,hH,mask-4.png,mask-2.png,s,1,0.9164038999879267,h,1,0.2204669000057038,0.049526199989486486,0.05065600000671111,0.09959119999257382,0.09966130000248086,0.7503885999904014
RSVPLG03,km,20260326-152439,1.0.2,20251113-095759,813,Experiment,Both,1,Automatic,warmup,1,20260326-152516,global,global,300,S,H,E,E,S-E.png,H-E.png,sS,hH,mask-1.png,mask-3.png,s,1,1.1217292999936035,h,1,0.28393489999871235,0.04050269999424927,0.051011499992455356,0.09055959999386687,0.10134490000200458,0.29020930000115186
RSVPLG03,km,20260326-152439,1.0.2,20251113-095759,813,Experiment,Both,1,Automatic,warmup,2,20260326-152521,local,local,750,S,S,A,A,A-S.png,A-S.png,sS,sS,mask-1.png,mask-1.png,s,1,0.4794240000046557,s,1,0.07969360001152381,0.04934810000122525,0.05111949999991339,0.09977849999268074,0.10116639999614563,0.7502965000021504
RSVPLG03,km,20260326-152439,1.0.2,20251113-095759,813,Experiment,Both,1,Automatic,warmup,3,20260326-152525,global,global,750,S,H,E,E,S-E.png,H-E.png,sS,hH,mask-3.png,mask-1.png,s,1,0.6122013999993214,h,1,0.06353220000164583,0.05105829999956768,0.049980600000708364,0.0997198999975808,0.10101919999578968,0.751390999997966
RSVPLG03,km,20260326-152439,1.0.2,20251113-095759,813,Experiment,Both,1,Automatic,warmup,4,20260326-152530,global,local,750,H,H,A,A,H-A.png,A-H.png,hH,hH,mask-3.png,mask-4.png,h,1,0.5348994999949355,h,1,0.07981340000696946,0.04910000000381842,0.051003400003537536,0.10018989999662153,0.09885419999773148,0.7518436999962432
RSVPLG03,km,20260326-152439,1.0.2,20251113-095759,813,Experiment,Both,1,Automatic,main,5,20260326-152535,global,local,750,H,S,E,A,H-E.png,A-S.png,hH,sS,mask-3.png,mask-1.png,h,1,0.7366768999927444,s,1,0.03098120000504423,0.05094650000683032,0.051356700001633726,0.10055790000478737,0.0985484999982873,0.7523836000036681
RSVPLG03,km,20260326-152439,1.0.2,20251113-095759,813,Experiment,Both,1,Automatic,main,6,20260326-152540,local,local,750,S,S,E,E,E-S.png,E-S.png,sS,sS,mask-3.png,mask-3.png,s,1,0.4505786999943666,s,1,0.059453999987454154,0.04972739999357145,0.050027900011627935,0.10113529999216553,0.10223590000532568,0.7509009999921545
RSVPLG03,km,20260326-152439,1.0.2,20251113-095759,813,Experiment,Both,1,Automatic,main,7,20260326-152544,local,global,750,S,H,A,E,A-S.png,H-E.png,sS,hH,mask-2.png,mask-4.png,s,1,0.8178177999943728,h,1,0.11291779999737628,0.050509900000179186,0.05066850000002887,0.10095219999493565,0.10180019999097567,0.7502431000029901
RSVPLG03,km,20260326-152439,1.0.2,20251113-095759,813,Experiment,Both,1,Automatic,main,8,20260326-152549,global,global,750,S,S,E,A,S-E.png,S-A.png,sS,sS,mask-4.png,mask-1.png,s,1,0.3308927999896696,s,1,0.09733759998925962,0.050604400006704964,0.049336800002492964,0.09915470000123605,0.099555099994177,0.7511267000081716
RSVPLG03,km,20260326-152439,1.0.2,20251113-095759,813,Experiment,Both,1,Automatic,main,9,20260326-152554,global,local,750,H,H,E,E,H-E.png,E-H.png,hH,hH,mask-2.png,mask-3.png,h,1,1.415869600008591,s,0,0.9397614000044996,0.051577000005636364,0.05069039999216329,0.10228760000609327,0.10068389998923521,0.7524566000065533
RSVPLG03,km,20260326-152439,1.0.2,20251113-095759,813,Experiment,Both,1,Automatic,main,10,20260326-152600,local,global,300,H,S,A,A,A-H.png,S-A.png,hH,sS,mask-3.png,mask-4.png,h,1,0.6998976000031689,s,1,0.06438039999920875,0.04986890000873245,0.051095899994834326,0.09929209999972954,0.09938539999711793,0.29979780000576284
RSVPLG03,km,20260326-152439,1.0.2,20251113-095759,813,Experiment,Both,1,Automatic,main,11,20260326-152605,global,global,300,S,S,E,A,S-E.png,S-A.png,sS,sS,mask-1.png,mask-2.png,s,1,0.5311589000048116,s,1,0.19412490000831895,0.05293670001265127,0.04955349999363534,0.10336590000952128,0.10054739999759477,0.3017250000120839
RSVPLG03,km,20260326-152439,1.0.2,20251113-095759,813,Experiment,Both,1,Automatic,main,12,20260326-152609,global,global,750,S,H,A,E,S-A.png,H-E.png,sS,hH,mask-2.png,mask-1.png,s,1,0.4567184999905294,h,1,0.06547970000247005,0.05049340000550728,0.048731400005635805,0.10024470000644214,0.09866820000752341,0.752155700000003
RSVPLG03,km,20260326-152439,1.0.2,20251113-095759,813,Experiment,Both,1,Automatic,main,13,20260326-152614,local,local,300,H,H,A,A,A-H.png,A-H.png,hH,hH,mask-2.png,mask-1.png,h,1,0.6019818999920972,s,0,0.688735200004885,0.050161000006482936,0.050484399995184503,0.09990610000386368,0.10160460000042804,0.30062310000357684
RSVPLG03,km,20260326-152439,1.0.2,20251113-095759,813,Experiment,Both,1,Automatic,main,14,20260326-152619,local,global,300,H,S,A,A,A-H.png,S-A.png,hH,sS,mask-1.png,mask-1.png,h,1,2.5185387000092305,h,0,0.6087814999918919,0.04922059999080375,0.05075020001095254,0.09995889999845531,0.10053390001121443,0.3002507999917725
RSVPLG03,km,20260326-152439,1.0.2,20251113-095759,813,Experiment,Both,1,Automatic,main,15,20260326-152625,local,global,750,S,H,A,A,A-S.png,H-A.png,sS,hH,mask-3.png,mask-1.png,s,1,0.9513028000073973,h,1,0.0931921000010334,0.050013199987006374,0.05044000000634696,0.09972809998726007,0.10045940001145937,0.7507207999879029
RSVPLG03,km,20260326-152439,1.0.2,20251113-095759,813,Experiment,Both,1,Automatic,main,16,20260326-152631,local,local,300,H,S,A,E,A-H.png,E-S.png,hH,sS,mask-3.png,mask-4.png,h,1,0.8482111000048462,s,1,0.2393787000037264,0.048995000004651956,0.048710899995057844,0.0998915000091074,0.09933559999626596,0.3004343000066001
RSVPLG03,km,20260326-152439,1.0.2,20251113-095759,813,Experiment,Both,1,Automatic,main,17,20260326-152635,global,global,300,H,H,E,E,H-E.png,H-E.png,hH,hH,mask-1.png,mask-4.png,h,1,0.6233468999998877,h,1,0.10924910000176169,0.050551399996038526,0.05086789999040775,0.10078120000252966,0.10086699998646509,0.29910930000187363
RSVPLG03,km,20260326-152439,1.0.2,20251113-095759,813,Experiment,Both,1,Automatic,main,18,20260326-152640,local,local,300,S,H,A,A,A-S.png,A-H.png,sS,hH,mask-3.png,mask-2.png,s,1,0.5565708999929484,h,1,0.06419399999140296,0.050018900001305155,0.04956250000395812,0.10113550000824034,0.10047499999927823,0.2999638000037521
RSVPLG03,km,20260326-152439,1.0.2,20251113-095759,813,Experiment,Both,1,Automatic,main,19,20260326-152644,local,global,300,S,H,A,A,A-S.png,H-A.png,sS,hH,mask-4.png,mask-1.png,s,1,0.7196117000130471,h,1,0.3070378999982495,0.04949560000386555,0.05000749998725951,0.1007675000000745,0.10126149999268819,0.2995192000089446
RSVPLG03,km,20260326-152439,1.0.2,20251113-095759,813,Experiment,Both,1,Automatic,main,20,20260326-152649,global,global,750,S,H,A,A,S-A.png,H-A.png,sS,hH,mask-1.png,mask-1.png,s,1,0.4940223000012338,h,1,0.06553619999613147,0.04989500000374392,0.050219800003105775,0.0999489999958314,0.10117100000206847,0.7497583999938797
RSVPLG03,km,20260326-152439,1.0.2,20251113-095759,813,Experiment,Both,1,Automatic,main,21,20260326-152653,global,local,300,H,H,E,A,H-E.png,A-H.png,hH,hH,mask-2.png,mask-2.png,h,1,0.5872756999888225,h,1,0.8912721999950008,0.0499541000026511,0.05024359999515582,0.09792660000675824,0.09996329998830333,0.2996719000075245
RSVPLG03,km,20260326-152439,1.0.2,20251113-095759,813,Experiment,Both,1,Automatic,main,22,20260326-152658,global,local,300,S,S,E,A,S-E.png,A-S.png,sS,sS,mask-1.png,mask-1.png,s,1,0.946057799999835,h,0,0.14600100000097882,0.05004239999107085,0.050864299992099404,0.10079379999660887,0.10105499999190215,0.3024379999988014
RSVPLG03,km,20260326-152439,1.0.2,20251113-095759,813,Experiment,Both,1,Automatic,main,23,20260326-152703,local,global,300,S,S,A,A,A-S.png,S-A.png,sS,sS,mask-1.png,mask-1.png,s,1,2.2584637999971164,s,1,0.09703460001037456,0.05004590000316966,0.0504849999997532,0.10007470000709873,0.09961859999748413,0.30001720000291243
RSVPLG03,km,20260326-152439,1.0.2,20251113-095759,813,Experiment,Both,1,Automatic,main,24,20260326-152709,global,global,750,S,H,E,E,S-E.png,H-E.png,sS,hH,mask-2.png,mask-4.png,s,1,0.4461797999974806,h,1,0.04870140001003165,0.049976099995546974,0.04965030000312254,0.10109889999148436,0.09973490000993479,0.7536680999910459
RSVPLG03,km,20260326-152439,1.0.2,20251113-095759,813,Experiment,Both,1,Automatic,main,25,20260326-152714,global,global,750,S,S,E,A,S-E.png,S-A.png,sS,sS,mask-2.png,mask-4.png,s,1,0.4606348999950569,s,1,0.08100000000558794,0.0500023000058718,0.0478822000004584,0.10122720000799745,0.10138520000327844,0.7536565000045812
RSVPLG03,km,20260326-152439,1.0.2,20251113-095759,813,Experiment,Both,1,Automatic,main,26,20260326-152726,local,global,750,H,H,E,E,E-H.png,H-E.png,hH,hH,mask-1.png,mask-4.png,h,1,0.744382000004407,s,0,0.5905167000018992,0.04983550000179093,0.050244799989741296,0.09978420000697952,0.10186339999199845,0.7513429000100587
RSVPLG03,km,20260326-152439,1.0.2,20251113-095759,813,Experiment,Both,1,Automatic,main,27,20260326-152732,local,local,300,H,S,A,E,A-H.png,E-S.png,hH,sS,mask-1.png,mask-3.png,h,1,0.44913519998954143,s,1,0.08170899999095127,0.052111800003331155,0.05161860000225715,0.10073380000540055,0.09854099999938626,0.3025448999978835
RSVPLG03,km,20260326-152439,1.0.2,20251113-095759,813,Experiment,Both,1,Automatic,main,28,20260326-152736,local,global,300,S,H,A,E,A-S.png,H-E.png,sS,hH,mask-1.png,mask-1.png,s,1,0.8556130999932066,s,0,0.8595658999984153,0.05216680000012275,0.05088640000030864,0.10181290000036824,0.1009042999939993,0.3021601000073133
RSVPLG03,km,20260326-152439,1.0.2,20251113-095759,813,Experiment,Both,1,Automatic,main,29,20260326-152741,global,local,750,H,S,E,E,H-E.png,E-S.png,hH,sS,mask-4.png,mask-4.png,h,1,0.5032282999891322,s,1,0.03247449999616947,0.05000160000054166,0.05045510000491049,0.1002326999878278,0.10009019999415614,0.7520058999944013
RSVPLG03,km,20260326-152439,1.0.2,20251113-095759,813,Experiment,Both,1,Automatic,main,30,20260326-152746,local,local,300,S,S,E,A,E-S.png,A-S.png,sS,sS,mask-2.png,mask-4.png,s,1,0.8017038999969373,h,0,0.09469959999842104,0.04673400000319816,0.04888099999516271,0.09789679999812506,0.09907379999640398,0.2991764000034891
RSVPLG03,km,20260326-152439,1.0.2,20251113-095759,813,Experiment,Both,1,Automatic,main,31,20260326-152750,global,global,750,S,H,A,A,S-A.png,H-A.png,sS,hH,mask-3.png,mask-3.png,s,1,0.3593972999951802,h,1,0.047118899994529784,0.0492859999940265,0.04810610000276938,0.09915300000284333,0.09971560000849422,0.7524720999936108
RSVPLG03,km,20260326-152439,1.0.2,20251113-095759,813,Experiment,Both,1,Automatic,main,32,20260326-152755,local,global,300,H,S,E,A,E-H.png,S-A.png,hH,sS,mask-2.png,mask-2.png,s,0,1.0664282999932766,h,0,0.06333319999976084,0.050079100008588284,0.051286400004755706,0.09790880000218749,0.10017000000516418,0.2992664000048535
RSVPLG03,km,20260326-152439,1.0.2,20251113-095759,813,Experiment,Both,1,Automatic,main,33,20260326-152800,local,local,750,S,H,E,A,E-S.png,A-H.png,sS,hH,mask-2.png,mask-4.png,s,1,0.33826229999249335,h,1,0.09580060000007506,0.050667200004681945,0.049977500006207265,0.1019603000022471,0.0997617000102764,0.7523498999944422
RSVPLG03,km,20260326-152439,1.0.2,20251113-095759,813,Experiment,Both,1,Automatic,main,34,20260326-152804,global,global,750,S,H,A,A,S-A.png,H-A.png,sS,hH,mask-3.png,mask-3.png,s,1,0.38876519999757875,h,1,0.07558229999267496,0.05076899999403395,0.0505531999951927,0.10227920000033919,0.09974580000562128,0.7520904999983031
RSVPLG03,km,20260326-152439,1.0.2,20251113-095759,813,Experiment,Both,1,Automatic,main,35,20260326-152809,global,global,300,H,H,E,E,H-E.png,H-E.png,hH,hH,mask-4.png,mask-4.png,h,1,0.5812729000026593,h,1,0.11099120001017582,0.049545399990165606,0.05084969999734312,0.1003461999935098,0.09965689999808092,0.29965549999906216
RSVPLG03,km,20260326-152439,1.0.2,20251113-095759,813,Experiment,Both,1,Automatic,main,36,20260326-152813,global,global,750,H,S,A,A,H-A.png,S-A.png,hH,sS,mask-4.png,mask-2.png,h,1,0.8084286999946926,s,1,0.30298300000140443,0.050333000006503426,0.048926399991614744,0.10102510001161136,0.0992604999919422,0.7524838000099408
RSVPLG03,km,20260326-152439,1.0.2,20251113-095759,813,Experiment,Both,1,Automatic,main,37,20260326-152818,global,local,750,H,H,E,E,H-E.png,E-H.png,hH,hH,mask-3.png,mask-3.png,h,1,1.1768521000049077,s,0,0.12908620000234805,0.050870799997937866,0.0492037999938475,0.09997429999930318,0.09960590000264347,0.7526172000070801
RSVPLG03,km,20260326-152439,1.0.2,20251113-095759,813,Experiment,Both,1,Automatic,main,38,20260326-152824,local,global,750,S,H,E,E,E-S.png,H-E.png,sS,hH,mask-2.png,mask-4.png,s,1,0.7977320999925723,h,1,0.07602350000524893,0.04931249999208376,0.05055040000297595,0.09967759999562986,0.10121880000224337,0.7519238999957452
RSVPLG03,km,20260326-152439,1.0.2,20251113-095759,813,Experiment,Both,1,Automatic,main,39,20260326-152829,global,global,750,H,H,A,E,H-A.png,H-E.png,hH,hH,mask-4.png,mask-4.png,h,1,0.47926860000006855,h,1,0.09698850000859238,0.0495121999992989,0.05099209999025334,0.09960290000890382,0.10289309998915996,0.7504978000069968
RSVPLG03,km,20260326-152439,1.0.2,20251113-095759,813,Experiment,Both,1,Automatic,main,40,20260326-152833,global,global,750,S,H,E,A,S-E.png,H-A.png,sS,hH,mask-1.png,mask-4.png,s,1,0.4287470999988727,h,1,0.06391609999991488,0.05026549998729024,0.05010559999209363,0.10144249998847954,0.10009089999948628,0.7523234999971464
RSVPLG03,km,20260326-152439,1.0.2,20251113-095759,813,Experiment,Both,1,Automatic,main,41,20260326-152838,local,local,750,S,H,E,E,E-S.png,E-H.png,sS,hH,mask-3.png,mask-4.png,s,1,0.41637639999680687,h,1,0.09686380000493955,0.049646999992546625,0.04900669999187812,0.10005110000201967,0.09945409999636468,0.7520202000014251
RSVPLG03,km,20260326-152439,1.0.2,20251113-095759,813,Experiment,Both,1,Automatic,main,42,20260326-152842,local,global,750,S,H,E,A,E-S.png,H-A.png,sS,hH,mask-1.png,mask-4.png,s,1,0.7540317999955732,h,1,0.11258519999682903,0.05023120000259951,0.05130520000238903,0.10015759999805596,0.09989549999590963,0.7516717999969842
RSVPLG03,km,20260326-152439,1.0.2,20251113-095759,813,Experiment,Both,1,Automatic,main,43,20260326-152847,global,local,300,H,S,E,A,H-E.png,A-S.png,hH,sS,mask-3.png,mask-3.png,h,1,0.6110177000082331,s,1,0.05749910000304226,0.05063380001229234,0.048637400002917275,0.09928420001233462,0.09960319999663625,0.3021523000061279
RSVPLG03,km,20260326-152439,1.0.2,20251113-095759,813,Experiment,Both,1,Automatic,main,44,20260326-152852,local,local,750,S,H,E,E,E-S.png,E-H.png,sS,hH,mask-3.png,mask-2.png,s,1,0.39838220000092406,h,1,0.0492625000042608,0.05001869999978226,0.05034919999889098,0.10010280000278726,0.10248189998674206,0.750688900006935
RSVPLG03,km,20260326-152439,1.0.2,20251113-095759,813,Experiment,Both,1,Automatic,main,45,20260326-152856,local,global,750,S,H,E,E,E-S.png,H-E.png,sS,hH,mask-4.png,mask-2.png,s,1,0.8158609000092838,h,1,0.032717699999921024,0.0500742000003811,0.049332199996570125,0.1011480000015581,0.09921820000454318,0.7542108000052394
RSVPLG03,km,20260326-152439,1.0.2,20251113-095759,813,Experiment,Both,1,Automatic,main,46,20260326-152901,global,local,750,H,S,E,A,H-E.png,A-S.png,hH,sS,mask-2.png,mask-3.png,h,1,0.9417490000050748,s,1,0.09776289999717847,0.04999849999148864,0.05090469999413472,0.10005149999051355,0.09878949999983888,0.7522582999954466
RSVPLG03,km,20260326-152439,1.0.2,20251113-095759,813,Experiment,Both,1,Automatic,main,47,20260326-152906,local,global,750,H,S,E,E,E-H.png,S-E.png,hH,sS,mask-3.png,mask-2.png,h,1,0.8082893000100739,s,1,0.08094590000109747,0.05121360000339337,0.050016900000628084,0.10267290000047069,0.1001420000102371,0.7521221999923
RSVPLG03,km,20260326-152439,1.0.2,20251113-095759,813,Experiment,Both,1,Automatic,main,48,20260326-152911,global,local,750,H,H,E,E,H-E.png,E-H.png,hH,hH,mask-2.png,mask-1.png,h,1,0.7703020999906585,s,0,0.11364459998731036,0.04889859999821056,0.049765799994929694,0.09877339999366086,0.10003729999880306,0.7503913999971701
RSVPLG03,km,20260326-152439,1.0.2,20251113-095759,813,Experiment,Both,1,Automatic,main,49,20260326-152916,local,local,750,S,H,E,E,E-S.png,E-H.png,sS,hH,mask-1.png,mask-3.png,s,1,0.4956948999897577,h,1,0.09025860000110697,0.050986999995075166,0.04879610000352841,0.09997209999710321,0.0994213999947533,0.7531916000007186
RSVPLG03,km,20260326-152439,1.0.2,20251113-095759,813,Experiment,Both,1,Automatic,main,50,20260326-152921,global,global,750,H,H,E,A,H-E.png,H-A.png,hH,hH,mask-3.png,mask-1.png,h,1,0.6167559000023175,h,1,0.11529729999892879,0.049522700006491505,0.050123499997425824,0.10061740000674035,0.10052859999996144,0.7521136000141269
RSVPLG03,km,20260326-152439,1.0.2,20251113-095759,813,Experiment,Both,1,Automatic,main,51,20260326-152931,local,local,750,S,S,A,E,A-S.png,E-S.png,sS,sS,mask-2.png,mask-1.png,s,1,0.3819517999945674,s,1,0.04921660000400152,0.05072620000282768,0.05094319999625441,0.10088090000499506,0.09985139999480452,0.7521961000020383
RSVPLG03,km,20260326-152439,1.0.2,20251113-095759,813,Experiment,Both,1,Automatic,main,52,20260326-152936,global,local,300,H,H,E,A,H-E.png,A-H.png,hH,hH,mask-1.png,mask-2.png,h,1,0.6835184999945341,s,0,0.6721484000008786,0.050413799996022135,0.051475100000971,0.09962879998784047,0.09988690000318456,0.3001287999941269
RSVPLG03,km,20260326-152439,1.0.2,20251113-095759,813,Experiment,Both,1,Automatic,main,53,20260326-152941,local,global,300,H,S,A,E,A-H.png,S-E.png,hH,sS,mask-3.png,mask-1.png,h,1,0.6931328000064241,s,1,0.06358190000173636,0.05067599999892991,0.05003240000223741,0.09874250000575557,0.10099210000771564,0.29914459999417886
RSVPLG03,km,20260326-152439,1.0.2,20251113-095759,813,Experiment,Both,1,Automatic,main,54,20260326-152945,global,global,300,S,S,E,E,S-E.png,S-E.png,sS,sS,mask-4.png,mask-4.png,s,1,0.425065799994627,s,1,0.07853379999869503,0.04999699999461882,0.0508986999921035,0.09935679999762215,0.10026239999569952,0.2992258000012953
RSVPLG03,km,20260326-152439,1.0.2,20251113-095759,813,Experiment,Both,1,Automatic,main,55,20260326-152949,local,local,750,H,S,E,E,E-H.png,E-S.png,hH,sS,mask-4.png,mask-4.png,h,1,0.3793606999970507,s,1,0.03425939999578986,0.04947740001080092,0.05087229999480769,0.10131730001012329,0.10232449999602977,0.7506872000085423
RSVPLG03,km,20260326-152439,1.0.2,20251113-095759,813,Experiment,Both,1,Automatic,main,56,20260326-152954,local,local,300,H,S,A,E,A-H.png,E-S.png,hH,sS,mask-1.png,mask-1.png,h,1,0.4176772000064375,s,1,0.06635779999487568,0.04712420000578277,0.05050709999341052,0.09772289999818895,0.10070559999439865,0.2987829000048805
RSVPLG03,km,20260326-152439,1.0.2,20251113-095759,813,Experiment,Both,1,Automatic,main,57,20260326-152958,local,local,750,H,H,A,A,A-H.png,A-H.png,hH,hH,mask-1.png,mask-4.png,h,1,0.4993004000134533,h,1,0.06408100000408012,0.05062470000120811,0.04912779999722261,0.1011181000067154,0.09956149999925401,0.752456300004269
RSVPLG03,km,20260326-152439,1.0.2,20251113-095759,813,Experiment,Both,1,Automatic,main,58,20260326-153003,global,local,300,S,S,A,E,S-A.png,E-S.png,sS,sS,mask-4.png,mask-2.png,s,1,0.6728372999932617,s,1,0.5270254999923054,0.05101009999634698,0.052064499992411584,0.10088559999712743,0.09984850000182632,0.30002070000045933
RSVPLG03,km,20260326-152439,1.0.2,20251113-095759,813,Experiment,Both,1,Automatic,main,59,20260326-153007,global,global,300,H,S,E,E,H-E.png,S-E.png,hH,sS,mask-3.png,mask-3.png,h,1,0.4133938000013586,s,1,0.06108010000025388,0.05067039999994449,0.05152549999183975,0.10050700001011137,0.10074499998881947,0.29974470000888687
RSVPLG03,km,20260326-152439,1.0.2,20251113-095759,813,Experiment,Both,1,Automatic,main,60,20260326-153012,local,local,300,H,S,A,A,A-H.png,A-S.png,hH,sS,mask-4.png,mask-3.png,h,1,0.977110799998627,s,1,0.3220524999924237,0.05072189999918919,0.049815100006526336,0.10112340000341646,0.10028150001016911,0.3004377999895951
RSVPLG03,km,20260326-152439,1.0.2,20251113-095759,813,Experiment,Both,1,Automatic,main,61,20260326-153016,global,global,300,H,H,E,A,H-E.png,H-A.png,hH,hH,mask-4.png,mask-4.png,h,1,0.698971599995275,h,1,0.2717105000047013,0.04995779998716898,0.04977080000389833,0.09955359999730717,0.10073120000015479,0.2995704999921145
RSVPLG03,km,20260326-152439,1.0.2,20251113-095759,813,Experiment,Both,1,Automatic,main,62,20260326-153021,local,local,750,S,H,A,A,A-S.png,A-H.png,sS,hH,mask-2.png,mask-4.png,s,1,0.4218503000010969,h,1,0.0750187000085134,0.048900600013439544,0.05025790000217967,0.1003538000077242,0.10117619999800809,0.7510195000068052
RSVPLG03,km,20260326-152439,1.0.2,20251113-095759,813,Experiment,Both,1,Automatic,main,63,20260326-153026,global,global,300,S,H,E,E,S-E.png,H-E.png,sS,hH,mask-3.png,mask-1.png,s,1,0.45962690000305884,h,1,0.08243589999619871,0.04988739998952951,0.05081449999124743,0.10003549999964889,0.0996856999990996,0.30058830000052694
RSVPLG03,km,20260326-152439,1.0.2,20251113-095759,813,Experiment,Both,1,Automatic,main,64,20260326-153030,global,local,300,H,S,E,A,H-E.png,A-S.png,hH,sS,mask-1.png,mask-3.png,h,1,0.527655700003379,s,1,0.3539772000076482,0.05108259999542497,0.04995339999732096,0.10124409999116324,0.10212229999888223,0.2997248000028776
RSVPLG03,km,20260326-152439,1.0.2,20251113-095759,813,Experiment,Both,1,Automatic,main,65,20260326-153034,global,global,300,H,S,E,E,H-E.png,S-E.png,hH,sS,mask-3.png,mask-1.png,h,1,0.39537500000733417,s,1,0.05961130000650883,0.0495492999907583,0.049976799986325204,0.10251269998843782,0.10113199999614153,0.299910000001546
RSVPLG03,km,20260326-152439,1.0.2,20251113-095759,813,Experiment,Both,1,Automatic,main,66,20260326-153039,global,local,750,S,S,E,E,S-E.png,E-S.png,sS,sS,mask-3.png,mask-4.png,s,1,1.1217220999969868,h,0,0.5071682000125293,0.05004080000799149,0.05020660000445787,0.10170890000881627,0.09923320000234526,0.7531817999988561
RSVPLG03,km,20260326-152439,1.0.2,20251113-095759,813,Experiment,Both,1,Automatic,main,67,20260326-153044,local,global,750,H,S,A,E,A-H.png,S-E.png,hH,sS,mask-1.png,mask-1.png,h,1,0.9802909999998519,s,1,0.2890071000001626,0.04988190000585746,0.05060360000061337,0.10047889999987092,0.0997017999907257,0.7517878000071505
RSVPLG03,km,20260326-152439,1.0.2,20251113-095759,813,Experiment,Both,1,Automatic,main,68,20260326-153050,global,local,300,S,S,E,A,S-E.png,A-S.png,sS,sS,mask-1.png,mask-3.png,s,1,1.0647246000007726,h,0,0.9462175999942701,0.05087180000555236,0.04930919999605976,0.10035480000078678,0.09973830000672024,0.3024288000015076
RSVPLG03,km,20260326-152439,1.0.2,20251113-095759,813,Experiment,Both,1,Automatic,main,69,20260326-153055,global,local,300,S,H,E,E,S-E.png,E-H.png,sS,hH,mask-4.png,mask-2.png,s,1,0.7644192000007024,h,1,0.060114600011729635,0.05167729999811854,0.05064299999503419,0.10079719999339432,0.10023660000297241,0.3003526999964379
RSVPLG03,km,20260326-152439,1.0.2,20251113-095759,813,Experiment,Both,1,Automatic,main,70,20260326-153100,global,local,300,H,S,A,A,H-A.png,A-S.png,hH,sS,mask-4.png,mask-1.png,h,1,0.8071691999939503,s,1,0.7002330999966944,0.04870880000817124,0.05118340000626631,0.09876550000626594,0.10128259999328293,0.29901990000507794
RSVPLG03,km,20260326-152439,1.0.2,20251113-095759,813,Experiment,Both,1,Automatic,main,71,20260326-153105,global,local,750,H,S,A,A,H-A.png,A-S.png,hH,sS,mask-3.png,mask-2.png,h,1,1.1265202999929897,h,0,0.07772400000249036,0.05063990000053309,0.04979330000060145,0.10081249999348074,0.10079229999973904,0.7515258999919752
RSVPLG03,km,20260326-152439,1.0.2,20251113-095759,813,Experiment,Both,1,Automatic,main,72,20260326-153110,global,global,300,H,S,A,E,H-A.png,S-E.png,hH,sS,mask-4.png,mask-2.png,h,1,0.4789984000090044,s,1,0.03145879998919554,0.04971190000651404,0.048970700008794665,0.09968959999969229,0.09965709999960382,0.30218389999936335
RSVPLG03,km,20260326-152439,1.0.2,20251113-095759,813,Experiment,Both,1,Automatic,main,73,20260326-153114,local,global,300,S,S,A,E,A-S.png,S-E.png,sS,sS,mask-3.png,mask-3.png,s,1,0.7326061999920057,h,0,0.07172669999999925,0.049709300001268275,0.05072970000037458,0.09944340000220109,0.10082719998899847,0.30004300001019146
RSVPLG03,km,20260326-152439,1.0.2,20251113-095759,813,Experiment,Both,1,Automatic,main,74,20260326-153119,global,local,750,S,H,A,E,S-A.png,E-H.png,sS,hH,mask-3.png,mask-2.png,s,1,1.1523504999931902,s,0,1.3857271000015317,0.04947839998931158,0.05069940000248607,0.10168079999857582,0.10048680000181776,0.7512181999918539
RSVPLG03,km,20260326-152439,1.0.2,20251113-095759,813,Experiment,Both,1,Automatic,main,75,20260326-153125,local,local,300,H,S,A,A,A-H.png,A-S.png,hH,sS,mask-1.png,mask-3.png,h,1,0.725347800005693,s,1,0.04805520000809338,0.04966710000007879,0.05058130000543315,0.09915389999514446,0.10215049999533221,0.30018039999413304
RSVPLG03,km,20260326-152439,1.0.2,20251113-095759,813,Experiment,Both,1,Automatic,main,76,20260326-153133,global,local,300,H,S,A,A,H-A.png,A-S.png,hH,sS,mask-1.png,mask-1.png,h,1,1.0408336000109557,h,0,1.0091298000043025,0.05083870000089519,0.04921240000112448,0.10060489999887068,0.0981655000068713,0.3031141999963438
RSVPLG03,km,20260326-152439,1.0.2,20251113-095759,813,Experiment,Both,1,Automatic,main,77,20260326-153139,global,local,750,S,H,E,A,S-E.png,A-H.png,sS,hH,mask-1.png,mask-2.png,s,1,0.5974800999974832,h,1,0.09086340000794735,0.051307299989275634,0.047652699999161996,0.1006372999981977,0.09789549998822622,0.7539598000003025
RSVPLG03,km,20260326-152439,1.0.2,20251113-095759,813,Experiment,Both,1,Automatic,main,78,20260326-153143,local,local,300,H,S,A,A,A-H.png,A-S.png,hH,sS,mask-2.png,mask-3.png,h,1,0.5313099000049988,s,1,0.06237820000387728,0.04956980000133626,0.04882229999930132,0.10123780000139959,0.09975290000147652,0.30102630000328645
RSVPLG03,km,20260326-152439,1.0.2,20251113-095759,813,Experiment,Both,1,Automatic,main,79,20260326-153148,local,local,300,H,H,A,A,A-H.png,A-H.png,hH,hH,mask-1.png,mask-1.png,h,1,0.7495318000001134,s,0,0.07948570000007749,0.05083290000038687,0.04776020000281278,0.10187929999665357,0.09831400000257418,0.30312169999524485
RSVPLG03,km,20260326-152439,1.0.2,20251113-095759,813,Experiment,Both,1,Automatic,main,80,20260326-153152,local,local,300,S,H,A,E,A-S.png,E-H.png,sS,hH,mask-4.png,mask-2.png,s,1,0.9461525000078836,h,1,0.07781840000825468,0.05088470000191592,0.050979999999981374,0.10125420000986196,0.10051200000452809,0.30128790000162553
RSVPLG03,km,20260326-152439,1.0.2,20251113-095759,813,Experiment,Both,1,Automatic,main,81,20260326-153157,local,local,750,H,S,A,E,A-H.png,E-S.png,hH,sS,mask-1.png,mask-1.png,h,1,0.4447035000048345,s,1,0.04791369999293238,0.05031299999973271,0.04950750000716653,0.09955349999654572,0.10171950000221841,0.7518934999970952
RSVPLG03,km,20260326-152439,1.0.2,20251113-095759,813,Experiment,Both,1,Automatic,main,82,20260326-153202,local,global,300,H,S,E,E,E-H.png,S-E.png,hH,sS,mask-1.png,mask-4.png,h,1,0.665480600000592,h,0,0.8483946999913314,0.04999269999098033,0.0500253999925917,0.10051959998963866,0.10132859999430366,0.29920579999452457
RSVPLG03,km,20260326-152439,1.0.2,20251113-095759,813,Experiment,Both,1,Automatic,main,83,20260326-153207,global,global,300,S,H,A,E,S-A.png,H-E.png,sS,hH,mask-1.png,mask-1.png,s,1,2.7444203999912133,h,1,0.08127309998963028,0.04855920000409242,0.050069500008248724,0.09871700000076089,0.09979370000655763,0.30014680000022054
RSVPLG03,km,20260326-152439,1.0.2,20251113-095759,813,Experiment,Both,1,Automatic,main,84,20260326-153213,local,global,750,S,H,E,E,E-S.png,H-E.png,sS,hH,mask-3.png,mask-1.png,s,1,0.9072794999956386,h,1,0.5628636000037659,0.04918639999232255,0.049254300000029616,0.1006920999934664,0.0998566999915056,0.7524040999996942
RSVPLG03,km,20260326-152439,1.0.2,20251113-095759,813,Experiment,Both,1,Automatic,main,85,20260326-153219,global,global,300,S,H,A,A,S-A.png,H-A.png,sS,hH,mask-4.png,mask-4.png,s,1,0.4208689999941271,h,1,0.04827980000118259,0.051011599993216805,0.051199900000938214,0.10054420000233222,0.10069669999938924,0.30078200000571087
RSVPLG03,km,20260326-152439,1.0.2,20251113-095759,813,Experiment,Both,1,Automatic,main,86,20260326-153223,global,local,300,H,H,A,E,H-A.png,E-H.png,hH,hH,mask-2.png,mask-1.png,h,1,1.3134724000119604,s,0,0.09271370001079049,0.04934209999919403,0.04901999999128748,0.09921580000082031,0.09918160000233911,0.30063779999909457
RSVPLG03,km,20260326-152439,1.0.2,20251113-095759,813,Experiment,Both,1,Automatic,main,87,20260326-153228,global,local,750,S,H,E,E,S-E.png,E-H.png,sS,hH,mask-1.png,mask-3.png,s,1,0.91327600000659,s,0,0.16011660000367556,0.0485284999886062,0.04969600000185892,0.09832399999140762,0.09966010000789538,0.7520032999891555
RSVPLG03,km,20260326-152439,1.0.2,20251113-095759,813,Experiment,Both,1,Automatic,main,88,20260326-153233,global,local,300,H,S,A,A,H-A.png,A-S.png,hH,sS,mask-4.png,mask-3.png,h,1,0.63664460000291,s,1,0.0649284999963129,0.04907120000279974,0.04919769999105483,0.10049460000300314,0.10098019998986274,0.300899500012747
RSVPLG03,km,20260326-152439,1.0.2,20251113-095759,813,Experiment,Both,1,Automatic,main,89,20260326-153237,local,global,300,H,S,A,A,A-H.png,S-A.png,hH,sS,mask-4.png,mask-2.png,h,1,0.7526287999935448,s,1,0.4419733999966411,0.049428600003011525,0.05018190000555478,0.09938230000261683,0.10007210000185296,0.3017777999921236
RSVPLG03,km,20260326-152439,1.0.2,20251113-095759,813,Experiment,Both,1,Automatic,main,90,20260326-153242,local,global,750,S,S,A,A,A-S.png,S-A.png,sS,sS,mask-3.png,mask-1.png,s,1,0.9101097000093432,h,0,1.9672860999999102,0.05145210000046063,0.051705799996852875,0.09938630000397097,0.1003369000100065,0.750864100002218
RSVPLG03,km,20260326-152439,1.0.2,20251113-095759,813,Experiment,Both,1,Automatic,main,91,20260326-153249,global,global,300,S,H,A,A,S-A.png,H-A.png,sS,hH,mask-1.png,mask-2.png,s,1,1.0176265000045532,h,1,0.08151519999955781,0.05057859999942593,0.04988239999511279,0.09969709999859333,0.09962689998792484,0.3003142000088701
RSVPLG03,km,20260326-152439,1.0.2,20251113-095759,813,Experiment,Both,1,Automatic,main,92,20260326-153254,local,local,750,H,S,E,E,E-H.png,E-S.png,hH,sS,mask-4.png,mask-4.png,h,1,0.5960880000056932,s,1,0.050768900007824413,0.04973929999687243,0.05038519999652635,0.10152050000033341,0.10126049999962561,0.7503785000008065
RSVPLG03,km,20260326-152439,1.0.2,20251113-095759,813,Experiment,Both,1,Automatic,main,93,20260326-153259,local,local,300,S,H,E,E,E-S.png,E-H.png,sS,hH,mask-4.png,mask-3.png,s,1,0.695104700003867,h,1,0.07930830000259448,0.05068349999783095,0.05018829999607988,0.100921199991717,0.09887449999223463,0.3029335000028368
RSVPLG03,km,20260326-152439,1.0.2,20251113-095759,813,Experiment,Both,1,Automatic,main,94,20260326-153303,local,global,300,S,H,E,E,E-S.png,H-E.png,sS,hH,mask-3.png,mask-3.png,s,1,0.7678254000056768,s,0,0.5750919000129215,0.04984589999367017,0.05013679999683518,0.10012249999272171,0.10021459999552462,0.3024472999968566
RSVPLG03,km,20260326-152439,1.0.2,20251113-095759,813,Experiment,Both,1,Automatic,main,95,20260326-153308,local,global,300,H,H,A,A,A-H.png,H-A.png,hH,hH,mask-3.png,mask-2.png,h,1,0.8345200999901863,s,0,0.25755719999142457,0.05173279999871738,0.05065590000594966,0.10119880001002457,0.10001560000819154,0.30017380000208504
RSVPLG03,km,20260326-152439,1.0.2,20251113-095759,813,Experiment,Both,1,Automatic,main,96,20260326-153313,local,global,750,H,H,E,E,E-H.png,H-E.png,hH,hH,mask-1.png,mask-2.png,h,1,1.0307657999946969,s,0,1.2279702999949222,0.0487355000077514,0.048587099998258054,0.09997270000167191,0.10148589999880642,0.7521177000016905
RSVPLG03,km,20260326-152439,1.0.2,20251113-095759,813,Experiment,Both,1,Automatic,main,97,20260326-153319,local,local,750,S,S,E,A,E-S.png,A-S.png,sS,sS,mask-2.png,mask-3.png,s,1,0.5254014999954961,s,1,0.04557550000026822,0.05073500001162756,0.04966530000092462,0.10260640000342391,0.09918330000073183,0.7521606000082102
RSVPLG03,km,20260326-152439,1.0.2,20251113-095759,813,Experiment,Both,1,Automatic,main,98,20260326-153324,global,local,750,S,H,E,A,S-E.png,A-H.png,sS,hH,mask-3.png,mask-1.png,s,1,1.027626799987047,h,1,0.12973519999650307,0.049418800001149066,0.048889099998632446,0.10128160000022035,0.09900869999546558,0.7525009000091814
RSVPLG03,km,20260326-152439,1.0.2,20251113-095759,813,Experiment,Both,1,Automatic,main,99,20260326-153329,local,global,750,S,H,A,A,A-S.png,H-A.png,sS,hH,mask-2.png,mask-4.png,s,1,0.9009796000027563,h,1,0.4172532000084175,0.050169299996923655,0.04922840000654105,0.10030150000238791,0.0978538000053959,0.7539286999963224
RSVPLG03,km,20260326-152439,1.0.2,20251113-095759,813,Experiment,Both,1,Automatic,main,100,20260326-153335,global,global,750,S,H,E,A,S-E.png,H-A.png,sS,hH,mask-4.png,mask-3.png,s,1,0.38760759998694994,h,1,0.07238140000845306,0.05043899999873247,0.049660300006507896,0.10047569999005646,0.09969719999935478,0.7540022999892244
RSVPLG03,km,20260326-153410,1.0.2,20251113-095759,813,Experiment,Both,1,Automatic,warmup,1,20260326-153441,local,global,300,H,S,E,E,E-H.png,S-E.png,hH,sS,mask-4.png,mask-3.png,h,1,1.2521943000028841,s,1,0.33794729999499395,0.04031500000564847,0.04956759999913629,0.09030710000661202,0.09939819999272004,0.2908521000063047
RSVPLG03,km,20260326-153410,1.0.2,20251113-095759,813,Experiment,Both,1,Automatic,warmup,2,20260326-153446,local,global,750,H,H,A,E,A-H.png,H-E.png,hH,hH,mask-4.png,mask-4.png,h,1,0.7238756000006106,h,1,0.06401670000923332,0.04857569999876432,0.051071699999738485,0.09894850000273436,0.10190540000621695,0.7461085999966599
RSVPLG03,km,20260326-153410,1.0.2,20251113-095759,813,Experiment,Both,1,Automatic,warmup,3,20260326-153451,global,global,300,H,S,A,E,H-A.png,S-E.png,hH,sS,mask-1.png,mask-1.png,h,1,0.5092659999936586,s,1,0.010721800004830584,0.04983259999426082,0.04979180000373162,0.09890549999545328,0.09982080000918359,0.2986557999975048
RSVPLG03,km,20260326-153410,1.0.2,20251113-095759,813,Experiment,Both,1,Automatic,warmup,4,20260326-153455,global,local,750,H,S,E,A,H-E.png,A-S.png,hH,sS,mask-4.png,mask-4.png,h,1,0.7398700000048848,h,0,0.3620080999971833,0.049932299996726215,0.05198679999739397,0.09908739999809768,0.10177480000129435,0.7460740999958944
RSVPLG03,km,20260326-153410,1.0.2,20251113-095759,813,Experiment,Both,1,Automatic,main,5,20260326-153501,local,global,750,H,S,A,E,A-H.png,S-E.png,hH,sS,mask-3.png,mask-1.png,h,1,0.9308256999938749,h,0,0.07307410000066739,0.04867100001138169,0.05114060000050813,0.09868850000202656,0.0993218999938108,0.7472057000122732
RSVPLG03,km,20260326-153410,1.0.2,20251113-095759,813,Experiment,Both,1,Automatic,main,6,20260326-153506,global,local,300,S,H,E,A,S-E.png,A-H.png,sS,hH,mask-4.png,mask-2.png,s,1,0.5382150999939768,h,1,0.03374480000638869,0.04847680000239052,0.0507118000095943,0.09938330001023132,0.10093060000508558,0.2982029999984661
RSVPLG03,km,20260326-153410,1.0.2,20251113-095759,813,Experiment,Both,1,Automatic,main,7,20260326-153510,local,global,750,H,S,E,A,E-H.png,S-A.png,hH,sS,mask-2.png,mask-2.png,h,1,0.7068620000063675,h,0,0.056638900001416914,0.048878700006753206,0.049553199991350994,0.09773130000394303,0.09872249999898486,0.7474230000079842
RSVPLG03,km,20260326-153410,1.0.2,20251113-095759,813,Experiment,Both,1,Automatic,main,8,20260326-153515,local,local,300,S,H,A,E,A-S.png,E-H.png,sS,hH,mask-4.png,mask-2.png,s,1,0.5816429999977117,h,1,0.03309050000098068,0.04876669999794103,0.04894000000786036,0.09921989998838399,0.10144359999685548,0.2980471999908332
RSVPLG03,km,20260326-153410,1.0.2,20251113-095759,813,Experiment,Both,1,Automatic,main,9,20260326-153519,global,local,750,S,S,A,A,S-A.png,A-S.png,sS,sS,mask-2.png,mask-3.png,s,1,0.7016925999923842,h,0,0.06149419999564998,0.049649399996269494,0.0498780999914743,0.09939489999669604,0.09888469999714289,0.7484152999968501
RSVPLG03,km,20260326-153410,1.0.2,20251113-095759,813,Experiment,Both,1,Automatic,main,10,20260326-153524,local,local,300,S,H,E,E,E-S.png,E-H.png,sS,hH,mask-2.png,mask-2.png,s,1,0.46010590001242235,h,1,0.02737409999826923,0.048989399991114624,0.04942149999260437,0.09877539999433793,0.10191749999648891,0.29739239999616984
RSVPLG03,km,20260326-153410,1.0.2,20251113-095759,813,Experiment,Both,1,Automatic,main,11,20260326-153528,global,global,300,S,S,A,E,S-A.png,S-E.png,sS,sS,mask-1.png,mask-3.png,s,1,1.2281243999896105,h,0,0.03445940000528935,0.049534500009031035,0.05109719999018125,0.09944420000829268,0.09932799999660347,0.29838600000948645
RSVPLG03,km,20260326-153410,1.0.2,20251113-095759,813,Experiment,Both,1,Automatic,main,12,20260326-153533,global,global,300,S,H,A,A,S-A.png,H-A.png,sS,hH,mask-4.png,mask-4.png,s,1,0.3943778000102611,h,1,0.07977060000121128,0.05101290000311565,0.05010820001189131,0.09996500000124797,0.09994480000750627,0.3001417999912519
RSVPLG03,km,20260326-153410,1.0.2,20251113-095759,813,Experiment,Both,1,Automatic,main,13,20260326-153537,global,local,750,H,S,A,A,H-A.png,A-S.png,hH,sS,mask-4.png,mask-2.png,h,1,0.47560170000360813,s,1,0.14609650000056718,0.04895750001014676,0.050618799999938346,0.10054820000368636,0.09896509999816772,0.7476148999994621
RSVPLG03,km,20260326-153410,1.0.2,20251113-095759,813,Experiment,Both,1,Automatic,main,14,20260326-153542,local,local,750,S,S,A,E,A-S.png,E-S.png,sS,sS,mask-4.png,mask-1.png,s,1,1.169706300002872,h,0,0.15927530000044499,0.04955569999583531,0.048915699997451156,0.09959050000179559,0.0996986999962246,0.7486735999991652
RSVPLG03,km,20260326-153410,1.0.2,20251113-095759,813,Experiment,Both,1,Automatic,main,15,20260326-153547,global,global,300,S,H,E,E,S-E.png,H-E.png,sS,hH,mask-2.png,mask-1.png,s,1,0.6285654999956023,h,1,0.12051439999777358,0.05238860000099521,0.04914049999206327,0.10162040000432171,0.09866849999525584,0.30094060000556055
RSVPLG03,km,20260326-153410,1.0.2,20251113-095759,813,Experiment,Both,1,Automatic,main,16,20260326-153552,global,local,300,S,H,E,A,S-E.png,A-H.png,sS,hH,mask-2.png,mask-3.png,s,1,0.7178827000025194,h,1,0.8978992000047583,0.04987240000627935,0.04878070000268053,0.0998678000032669,0.09912240000267047,0.30025020000175573
RSVPLG03,km,20260326-153410,1.0.2,20251113-095759,813,Experiment,Both,1,Automatic,main,17,20260326-153557,local,global,300,S,H,E,E,E-S.png,H-E.png,sS,hH,mask-3.png,mask-4.png,s,1,0.7530795000056969,s,0,0.6818525999988196,0.04870410000148695,0.050234399997862056,0.09917059999133926,0.09926709999854211,0.2982906999968691
RSVPLG03,km,20260326-153410,1.0.2,20251113-095759,813,Experiment,Both,1,Automatic,main,18,20260326-153602,global,global,750,H,H,A,E,H-A.png,H-E.png,hH,hH,mask-3.png,mask-2.png,h,1,0.6475989000027766,h,1,0.07372220000252128,0.05004509999707807,0.04835250000178348,0.09875240000837948,0.09925559999828693,0.74915420000616
RSVPLG03,km,20260326-153410,1.0.2,20251113-095759,813,Experiment,Both,1,Automatic,main,19,20260326-153607,local,global,750,H,S,E,A,E-H.png,S-A.png,hH,sS,mask-4.png,mask-1.png,s,0,0.7551291999989189,s,1,0.7216046999965329,0.051584300003014505,0.048785299994051456,0.10137439999380149,0.09958059999917168,0.7484005000005709
RSVPLG03,km,20260326-153410,1.0.2,20251113-095759,813,Experiment,Both,1,Automatic,main,20,20260326-153612,local,local,750,S,S,A,A,A-S.png,A-S.png,sS,sS,mask-2.png,mask-3.png,s,1,0.7659356999938609,h,0,0.08147380000445992,0.05088619999878574,0.04916870000306517,0.10051889999886043,0.10080739999830257,0.7491959000035422
RSVPLG03,km,20260326-153410,1.0.2,20251113-095759,813,Experiment,Both,1,Automatic,main,21,20260326-153617,global,local,750,S,S,A,A,S-A.png,A-S.png,sS,sS,mask-3.png,mask-3.png,s,1,0.8094332000036957,h,0,0.06315440000616945,0.049414499997510575,0.04867180000292137,0.09936079999897629,0.09879450000880752,0.748718299990287
RSVPLG03,km,20260326-153410,1.0.2,20251113-095759,813,Experiment,Both,1,Automatic,main,22,20260326-153622,local,local,300,S,H,A,E,A-S.png,E-H.png,sS,hH,mask-4.png,mask-3.png,s,1,0.6754642000014428,s,0,1.991042900001048,0.04903840000042692,0.05105080000066664,0.09993759999633767,0.09740519999468233,0.29960129999381024
RSVPLG03,km,20260326-153410,1.0.2,20251113-095759,813,Experiment,Both,1,Automatic,main,23,20260326-153628,local,local,750,S,H,E,A,E-S.png,A-H.png,sS,hH,mask-2.png,mask-2.png,s,1,0.5288157999893883,h,1,0.04329139999754261,0.05065409999224357,0.04918899999756832,0.10063429998990614,0.10084529999585357,0.7475948999926914
RSVPLG03,km,20260326-153410,1.0.2,20251113-095759,813,Experiment,Both,1,Automatic,main,24,20260326-153633,global,global,300,H,H,E,E,H-E.png,H-E.png,hH,hH,mask-4.png,mask-1.png,h,1,0.7686836999928346,h,1,0.05952409999736119,0.04964900000777561,0.04882319999160245,0.09854099999938626,0.09861289999389555,0.29926800000248477
RSVPLG03,km,20260326-153410,1.0.2,20251113-095759,813,Experiment,Both,1,Automatic,main,25,20260326-153637,global,local,300,S,H,A,A,S-A.png,A-H.png,sS,hH,mask-2.png,mask-1.png,s,1,0.7479303000000073,h,1,0.024125999989337288,0.05031089999829419,0.05020650000369642,0.10074760000861716,0.10037930001271889,0.3005976999993436
RSVPLG03,km,20260326-153410,1.0.2,20251113-095759,813,Experiment,Both,1,Automatic,main,26,20260326-153646,local,local,750,H,S,E,A,E-H.png,A-S.png,hH,sS,mask-1.png,mask-1.png,h,1,0.38921680000203196,s,1,0.05027880000125151,0.051507399999536574,0.051047100001596846,0.10031870000238996,0.10087829999974929,0.7472187000093982
RSVPLG03,km,20260326-153410,1.0.2,20251113-095759,813,Experiment,Both,1,Automatic,main,27,20260326-153650,global,global,750,H,H,E,A,H-E.png,H-A.png,hH,hH,mask-1.png,mask-1.png,h,1,0.3604001000057906,h,1,0.04785019998962525,0.04898059999686666,0.049951599998166785,0.09954869998909999,0.099959500003024,0.7470305999886477
RSVPLG03,km,20260326-153410,1.0.2,20251113-095759,813,Experiment,Both,1,Automatic,main,28,20260326-153655,local,local,750,S,S,E,A,E-S.png,A-S.png,sS,sS,mask-4.png,mask-3.png,s,1,0.44629549999081064,s,1,0.12090220001118723,0.05037070000253152,0.052105099995969795,0.10025219999079127,0.09881150000728667,0.7480918999935966
RSVPLG03,km,20260326-153410,1.0.2,20251113-095759,813,Experiment,Both,1,Automatic,main,29,20260326-153659,local,local,750,S,H,E,A,E-S.png,A-H.png,sS,hH,mask-4.png,mask-1.png,s,1,0.4298419999977341,h,1,0.12886920000892133,0.0504825000098208,0.0506489999970654,0.10083540000778157,0.10040219999791589,0.7481967000057921
RSVPLG03,km,20260326-153410,1.0.2,20251113-095759,813,Experiment,Both,1,Automatic,main,30,20260326-153704,global,global,750,S,H,E,A,S-E.png,H-A.png,sS,hH,mask-1.png,mask-1.png,s,1,0.3407015999982832,h,1,0.04165899999497924,0.049615399999311194,0.050213199996505864,0.0976749999972526,0.10075949999736622,0.7465309999970486
RSVPLG03,km,20260326-153410,1.0.2,20251113-095759,813,Experiment,Both,1,Automatic,main,31,20260326-153708,global,local,750,H,H,A,A,H-A.png,A-H.png,hH,hH,mask-2.png,mask-1.png,h,1,0.7007436000130838,h,1,0.2405851000075927,0.04834639999899082,0.04924330000358168,0.09756049999850802,0.10006799999973737,0.7466715000045951
RSVPLG03,km,20260326-153410,1.0.2,20251113-095759,813,Experiment,Both,1,Automatic,main,32,20260326-153713,global,global,300,S,S,E,A,S-E.png,S-A.png,sS,sS,mask-3.png,mask-3.png,s,1,0.5369930000015302,s,1,0.1083708999940427,0.048482400001375936,0.04860949999419972,0.09922329999972135,0.09937310000532307,0.29790479999792296
RSVPLG03,km,20260326-153410,1.0.2,20251113-095759,813,Experiment,Both,1,Automatic,main,33,20260326-153718,global,global,750,S,S,E,A,S-E.png,S-A.png,sS,sS,mask-3.png,mask-1.png,s,1,0.3850049000029685,s,1,0.1772835000010673,0.05080749999615364,0.0508823999989545,0.09963229999993928,0.10091470000043046,0.7476224999991246
RSVPLG03,km,20260326-153410,1.0.2,20251113-095759,813,Experiment,Both,1,Automatic,main,34,20260326-153722,global,global,300,S,H,E,E,S-E.png,H-E.png,sS,hH,mask-3.png,mask-4.png,s,1,0.46833909999986645,h,1,0.09582770000270102,0.04948119999608025,0.04988380000577308,0.1000757000001613,0.10000690000015311,0.2997039999900153
RSVPLG03,km,20260326-153410,1.0.2,20251113-095759,813,Experiment,Both,1,Automatic,main,35,20260326-153726,global,local,300,H,S,E,A,H-E.png,A-S.png,hH,sS,mask-4.png,mask-2.png,h,1,0.6350098999973852,h,0,0.11111709999386221,0.05230880000453908,0.049853600008646026,0.10026720000314526,0.0984591000014916,0.30064390000188723
RSVPLG03,km,20260326-153410,1.0.2,20251113-095759,813,Experiment,Both,1,Automatic,main,36,20260326-153731,global,global,750,H,S,E,A,H-E.png,S-A.png,hH,sS,mask-2.png,mask-2.png,h,1,0.5015926000050968,s,1,0.0012452999944798648,0.050008800011710264,0.04854430000705179,0.09942910000972915,0.09801929999957792,0.7489239999995334
RSVPLG03,km,20260326-153410,1.0.2,20251113-095759,813,Experiment,Both,1,Automatic,main,37,20260326-153735,global,local,750,H,H,E,A,H-E.png,A-H.png,hH,hH,mask-2.png,mask-4.png,h,1,0.6103178000048501,h,1,0.11264059999666642,0.049182599992491305,0.04879179999988992,0.09835999998904299,0.0990182000095956,0.7475813999917591
RSVPLG03,km,20260326-153410,1.0.2,20251113-095759,813,Experiment,Both,1,Automatic,main,38,20260326-153740,global,local,300,S,H,E,E,S-E.png,E-H.png,sS,hH,mask-2.png,mask-2.png,s,1,0.5756175999995321,s,0,0.6902252999861958,0.0503859000018565,0.05094519999693148,0.09952720000001136,0.0996302999992622,0.2976817000017036
RSVPLG03,km,20260326-153410,1.0.2,20251113-095759,813,Experiment,Both,1,Automatic,main,39,20260326-153745,local,global,300,H,S,E,E,E-H.png,S-E.png,hH,sS,mask-2.png,mask-4.png,h,1,0.9346181999862893,s,1,1.2979313000105321,0.05083079999894835,0.050006600009510294,0.10109310000552796,0.10049310000613332,0.29956919999676757
RSVPLG03,km,20260326-153410,1.0.2,20251113-095759,813,Experiment,Both,1,Automatic,main,40,20260326-153751,local,local,300,S,S,E,E,E-S.png,E-S.png,sS,sS,mask-4.png,mask-1.png,s,1,1.7248114999965765,h,0,0.28330120000464376,0.05092749999312218,0.04922950000036508,0.10113609999825712,0.09939190000295639,0.3001973999926122
RSVPLG03,km,20260326-153410,1.0.2,20251113-095759,813,Experiment,Both,1,Automatic,main,41,20260326-153756,local,local,300,S,H,E,E,E-S.png,E-H.png,sS,hH,mask-1.png,mask-3.png,s,1,0.41604160000861157,h,1,0.06628689999342896,0.04987859999528155,0.04949989999295212,0.09967729999334551,0.09935799999220762,0.2982527999993181
RSVPLG03,km,20260326-153410,1.0.2,20251113-095759,813,Experiment,Both,1,Automatic,main,42,20260326-153800,local,local,300,S,H,E,A,E-S.png,A-H.png,sS,hH,mask-1.png,mask-2.png,s,1,0.4254017999919597,h,1,0.01597629999741912,0.05010690000199247,0.05105169999296777,0.09978389999014325,0.10018779999518301,0.29892929999914486
RSVPLG03,km,20260326-153410,1.0.2,20251113-095759,813,Experiment,Both,1,Automatic,main,43,20260326-153805,local,global,750,S,S,E,A,E-S.png,S-A.png,sS,sS,mask-4.png,mask-2.png,s,1,0.7675662000110606,s,1,0.7529776000010315,0.050308500009123236,0.04911980000906624,0.0991142000129912,0.09838910000689793,0.7487298000050941
RSVPLG03,km,20260326-153410,1.0.2,20251113-095759,813,Experiment,Both,1,Automatic,main,44,20260326-153810,local,local,750,S,S,A,A,A-S.png,A-S.png,sS,sS,mask-4.png,mask-1.png,s,1,0.429943999988609,s,1,0.09735090000322089,0.04866020000190474,0.04897069999424275,0.09699590000673197,0.09990260000631679,0.7482236000068951
RSVPLG03,km,20260326-153410,1.0.2,20251113-095759,813,Experiment,Both,1,Automatic,main,45,20260326-153815,local,global,750,S,S,A,E,A-S.png,S-E.png,sS,sS,mask-1.png,mask-2.png,s,1,0.6887235000031069,h,0,0.06589070000336505,0.049806199996965006,0.04918800000450574,0.10032890000729822,0.09943550000025425,0.7489494000037666
RSVPLG03,km,20260326-153410,1.0.2,20251113-095759,813,Experiment,Both,1,Automatic,main,46,20260326-153819,global,global,750,H,S,A,A,H-A.png,S-A.png,hH,sS,mask-1.png,mask-4.png,h,1,0.4936643999972148,s,1,0.05000659999495838,0.04986830000416376,0.048689999995986,0.09904120001010597,0.09953209999366663,0.7480901000089943
RSVPLG03,km,20260326-153410,1.0.2,20251113-095759,813,Experiment,Both,1,Automatic,main,47,20260326-153824,local,local,750,S,S,A,A,A-S.png,A-S.png,sS,sS,mask-2.png,mask-1.png,s,1,0.4924009000096703,s,1,0.1181773999996949,0.04970679999678396,0.04990900000848342,0.10169320000568405,0.1006857000029413,0.7473282999999356
RSVPLG03,km,20260326-153410,1.0.2,20251113-095759,813,Experiment,Both,1,Automatic,main,48,20260326-153829,global,global,300,S,S,A,E,S-A.png,S-E.png,sS,sS,mask-4.png,mask-1.png,s,1,1.9447647999913897,h,0,0.2732403999980306,0.0495319999899948,0.050633899998501875,0.09876660000008997,0.09989300000597723,0.2990125999931479
RSVPLG03,km,20260326-153410,1.0.2,20251113-095759,813,Experiment,Both,1,Automatic,main,49,20260326-153835,global,local,300,S,H,A,E,S-A.png,E-H.png,sS,hH,mask-3.png,mask-1.png,s,1,0.8469641999981832,s,0,1.4371859999955632,0.049528000003192574,0.050067300006048754,0.09858029999304563,0.10090070001024287,0.29832259999238886
RSVPLG03,km,20260326-153410,1.0.2,20251113-095759,813,Experiment,Both,1,Automatic,main,50,20260326-153840,global,local,750,S,H,A,E,S-A.png,E-H.png,sS,hH,mask-2.png,mask-2.png,s,1,0.9202758000028552,h,1,0.04303010000148788,0.050810999993700534,0.05189539999992121,0.09971239999867976,0.09945320000406355,0.74884369999927
RSVPLG03,km,20260326-153410,1.0.2,20251113-095759,813,Experiment,Both,1,Automatic,main,51,20260326-153850,global,local,750,S,H,A,A,S-A.png,A-H.png,sS,hH,mask-4.png,mask-4.png,s,1,0.5110489999933634,h,1,0.061694700008956715,0.04894540000532288,0.0506461000040872,0.10061530000530183,0.10083740000845864,0.7475968999933684
RSVPLG03,km,20260326-153410,1.0.2,20251113-095759,813,Experiment,Both,1,Automatic,main,52,20260326-153855,local,global,750,H,S,A,A,A-H.png,S-A.png,hH,sS,mask-4.png,mask-2.png,h,1,0.7755681999988155,s,1,1.9608592000004137,0.05148249999911059,0.05041559999517631,0.10105740001017693,0.09965999999258202,0.7487877000094159
RSVPLG03,km,20260326-153410,1.0.2,20251113-095759,813,Experiment,Both,1,Automatic,main,53,20260326-153901,local,local,750,S,S,E,E,E-S.png,E-S.png,sS,sS,mask-3.png,mask-1.png,s,1,0.44281860000046436,s,1,0.10408849999657832,0.049362700010533445,0.05042900000989903,0.09810460000880994,0.10064899999997579,0.7471883999969577
RSVPLG03,km,20260326-153410,1.0.2,20251113-095759,813,Experiment,Both,1,Automatic,main,54,20260326-153906,global,local,750,S,S,E,A,S-E.png,A-S.png,sS,sS,mask-1.png,mask-3.png,s,1,0.6646965999971144,h,0,0.09823470000992529,0.05172800000582356,0.049557299993466586,0.10061190000851639,0.099517199996626,0.7479892000119435
RSVPLG03,km,20260326-153410,1.0.2,20251113-095759,813,Experiment,Both,1,Automatic,main,55,20260326-153911,global,local,750,H,H,E,E,H-E.png,E-H.png,hH,hH,mask-4.png,mask-4.png,h,1,0.7400791999971261,s,0,0.45045560000289697,0.049590000009629875,0.04931370000122115,0.09899350001069251,0.09930970000277739,0.7480282000033185
RSVPLG03,km,20260326-153410,1.0.2,20251113-095759,813,Experiment,Both,1,Automatic,main,56,20260326-153916,local,global,300,H,H,E,A,E-H.png,H-A.png,hH,hH,mask-1.png,mask-3.png,h,1,1.0623711999942316,s,0,0.9619309999980032,0.04846299999917392,0.04959860000235494,0.09848220000276342,0.09828360000392422,0.2988247000030242
RSVPLG03,km,20260326-153410,1.0.2,20251113-095759,813,Experiment,Both,1,Automatic,main,57,20260326-153922,global,global,750,S,S,E,E,S-E.png,S-E.png,sS,sS,mask-3.png,mask-2.png,s,1,0.38741929999378044,s,1,0.10888939999858849,0.05028709999169223,0.048804599995492026,0.1007406999997329,0.09914220000791829,0.7502397999924142
RSVPLG03,km,20260326-153410,1.0.2,20251113-095759,813,Experiment,Both,1,Automatic,main,58,20260326-153926,global,global,300,H,S,E,A,H-E.png,S-A.png,hH,sS,mask-4.png,mask-4.png,h,1,0.5101273000036599,s,1,0.027546400000574067,0.049411700005293824,0.05101680000370834,0.09951440000440925,0.10118570001213811,0.2978008999925805
RSVPLG03,km,20260326-153410,1.0.2,20251113-095759,813,Experiment,Both,1,Automatic,main,59,20260326-153930,local,global,300,H,H,A,E,A-H.png,H-E.png,hH,hH,mask-4.png,mask-3.png,h,1,0.6039942000061274,s,0,0.02659019999555312,0.050215399998705834,0.049290700000710785,0.10126619999937247,0.09888530000171158,0.3001615999964997
RSVPLG03,km,20260326-153410,1.0.2,20251113-095759,813,Experiment,Both,1,Automatic,main,60,20260326-153935,global,global,300,H,S,E,A,H-E.png,S-A.png,hH,sS,mask-4.png,mask-3.png,h,1,0.6355536000046413,s,1,0.01125940000929404,0.05092049999802839,0.050171700000646524,0.10094140000001062,0.10038469999562949,0.29922529999748804
RSVPLG03,km,20260326-153410,1.0.2,20251113-095759,813,Experiment,Both,1,Automatic,main,61,20260326-153939,global,local,300,S,S,E,E,S-E.png,E-S.png,sS,sS,mask-3.png,mask-2.png,s,1,0.684416300005978,h,0,0.12140799999178853,0.05002430001331959,0.0488828000088688,0.10028690000763163,0.0986620000039693,0.30080240000097547
RSVPLG03,km,20260326-153410,1.0.2,20251113-095759,813,Experiment,Both,1,Automatic,main,62,20260326-153944,local,global,300,S,S,E,E,E-S.png,S-E.png,sS,sS,mask-1.png,mask-3.png,s,1,0.5940346999996109,h,0,0.3668908999970881,0.05009240000799764,0.04964339999423828,0.10013410000829026,0.10092369999620132,0.2982495000032941
RSVPLG03,km,20260326-153410,1.0.2,20251113-095759,813,Experiment,Both,1,Automatic,main,63,20260326-153948,local,local,300,S,S,E,E,E-S.png,E-S.png,sS,sS,mask-4.png,mask-1.png,s,1,0.5244969000050332,s,1,0.06070380000164732,0.0492796000035014,0.049233099998673424,0.09919850000005681,0.09965620000730269,0.2994897000025958
RSVPLG03,km,20260326-153410,1.0.2,20251113-095759,813,Experiment,Both,1,Automatic,main,64,20260326-153952,local,global,300,H,H,A,E,A-H.png,H-E.png,hH,hH,mask-3.png,mask-4.png,h,1,0.6267722000047797,s,0,0.3540958999947179,0.049692799992044456,0.0507456000050297,0.09894399999757297,0.09991400000581052,0.29938479998963885
RSVPLG03,km,20260326-153410,1.0.2,20251113-095759,813,Experiment,Both,1,Automatic,main,65,20260326-153957,global,local,300,S,S,A,A,S-A.png,A-S.png,sS,sS,mask-2.png,mask-2.png,s,1,0.4894831999990856,h,0,0.09777730000496376,0.04708220000611618,0.05017110001062974,0.09760900000401307,0.09919610001088586,0.2974993999960134
RSVPLG03,km,20260326-153410,1.0.2,20251113-095759,813,Experiment,Both,1,Automatic,main,66,20260326-154001,global,global,750,S,S,E,A,S-E.png,S-A.png,sS,sS,mask-2.png,mask-3.png,s,1,1.4830701000028057,h,0,0.2335731999919517,0.05151409999234602,0.051828700001351535,0.10156769999593962,0.10042429999157321,0.7491458000004059
RSVPLG03,km,20260326-153410,1.0.2,20251113-095759,813,Experiment,Both,1,Automatic,main,67,20260326-154007,global,global,750,S,S,E,A,S-E.png,S-A.png,sS,sS,mask-1.png,mask-3.png,s,1,0.7637823999975808,s,1,0.07981709999148734,0.04794820000824984,0.04934520000824705,0.09700609999708831,0.09961910000129137,0.7468460999953095
RSVPLG03,km,20260326-153410,1.0.2,20251113-095759,813,Experiment,Both,1,Automatic,main,68,20260326-154012,local,global,750,H,S,E,E,E-H.png,S-E.png,hH,sS,mask-2.png,mask-2.png,h,1,1.2738047000020742,h,0,0.06025249999947846,0.05016009999962989,0.05095429999346379,0.09901370000443421,0.1017641999933403,0.7460430000064662
RSVPLG03,km,20260326-153410,1.0.2,20251113-095759,813,Experiment,Both,1,Automatic,main,69,20260326-154017,local,global,750,S,H,E,E,E-S.png,H-E.png,sS,hH,mask-1.png,mask-3.png,s,1,1.345195200003218,h,1,1.0569698000035714,0.05069639999419451,0.05035639999550767,0.10044840000045951,0.10081720000016503,0.7486948000005214
RSVPLG03,km,20260326-153410,1.0.2,20251113-095759,813,Experiment,Both,1,Automatic,main,70,20260326-154024,local,global,750,S,S,A,E,A-S.png,S-E.png,sS,sS,mask-1.png,mask-1.png,s,1,0.853422899992438,h,0,0.047636599992983975,0.050101999993785284,0.05113829999754671,0.10126059998583514,0.10042170000087935,0.7493621999892639
RSVPLG03,km,20260326-153410,1.0.2,20251113-095759,813,Experiment,Both,1,Automatic,main,71,20260326-154029,local,global,300,H,S,A,E,A-H.png,S-E.png,hH,sS,mask-3.png,mask-4.png,h,1,1.0299701000039931,h,0,2.161032400006661,0.05105899999034591,0.049790199991548434,0.10112969999318011,0.09845510000013746,0.29963670000142884
RSVPLG03,km,20260326-153410,1.0.2,20251113-095759,813,Experiment,Both,1,Automatic,main,72,20260326-154036,global,local,300,S,H,E,E,S-E.png,E-H.png,sS,hH,mask-1.png,mask-4.png,s,1,0.6951818000088679,h,1,0.081242200001725,0.05001350000384264,0.05033220000041183,0.09879670001100749,0.10058280000521336,0.29889750000438653
RSVPLG03,km,20260326-153410,1.0.2,20251113-095759,813,Experiment,Both,1,Automatic,main,73,20260326-154040,global,global,750,S,H,A,A,S-A.png,H-A.png,sS,hH,mask-3.png,mask-3.png,s,1,0.42630110000027344,h,1,0.09842850000131875,0.04869350000808481,0.05114530000719242,0.09747530000458937,0.1007199000014225,0.7459110000054352
RSVPLG03,km,20260326-153410,1.0.2,20251113-095759,813,Experiment,Both,1,Automatic,main,74,20260326-154045,local,global,300,S,S,A,E,A-S.png,S-E.png,sS,sS,mask-2.png,mask-4.png,s,1,0.7128215999982785,h,0,0.08861859999888111,0.05036709998967126,0.04903470000135712,0.1009321000019554,0.09969070000806823,0.3006689999892842
RSVPLG03,km,20260326-153410,1.0.2,20251113-095759,813,Experiment,Both,1,Automatic,main,75,20260326-154049,local,global,750,H,S,A,A,A-H.png,S-A.png,hH,sS,mask-1.png,mask-1.png,h,1,0.8094952999963425,s,1,1.4496987000020454,0.049016700009815395,0.04964519999339245,0.09920710000733379,0.09934179999982007,0.7477304000058211
RSVPLG03,km,20260326-153410,1.0.2,20251113-095759,813,Experiment,Both,1,Automatic,main,76,20260326-154106,global,global,750,S,H,A,A,S-A.png,H-A.png,sS,hH,mask-3.png,mask-4.png,s,1,0.4372820000135107,h,1,0.03018690001044888,0.04887050000252202,0.050962799999979325,0.09883170000102837,0.10022930000559427,0.7458136999921408
RSVPLG03,km,20260326-153410,1.0.2,20251113-095759,813,Experiment,Both,1,Automatic,main,77,20260326-154111,global,global,300,H,H,A,A,H-A.png,H-A.png,hH,hH,mask-1.png,mask-4.png,h,1,0.5051703000062844,h,1,0.06565870001213625,0.04985410001245327,0.04899440000008326,0.09932730000582524,0.1004741000069771,0.30021210000268184
RSVPLG03,km,20260326-153410,1.0.2,20251113-095759,813,Experiment,Both,1,Automatic,main,78,20260326-154115,global,global,750,H,H,E,E,H-E.png,H-E.png,hH,hH,mask-2.png,mask-3.png,h,1,0.304298100003507,h,1,0.09114829999452922,0.049801300003309734,0.04903740000736434,0.09965879999799654,0.09838560000935104,0.7475434999942081
RSVPLG03,km,20260326-153410,1.0.2,20251113-095759,813,Experiment,Both,1,Automatic,main,79,20260326-154119,global,local,750,H,S,A,E,H-A.png,E-S.png,hH,sS,mask-4.png,mask-1.png,h,1,0.8464179000002332,s,1,0.8719054000102915,0.048933699988992885,0.05134370000450872,0.10019820000161417,0.10027360000822227,0.7472391999908723
RSVPLG03,km,20260326-153410,1.0.2,20251113-095759,813,Experiment,Both,1,Automatic,main,80,20260326-154125,local,global,750,S,H,E,E,E-S.png,H-E.png,sS,hH,mask-1.png,mask-3.png,s,1,0.748897700002999,h,1,0.8789202000043588,0.04827080000541173,0.050444699998479337,0.09916559999692254,0.10023340000770986,0.7466013999946881
RSVPLG03,km,20260326-153410,1.0.2,20251113-095759,813,Experiment,Both,1,Automatic,main,81,20260326-154131,local,global,300,S,H,A,A,A-S.png,H-A.png,sS,hH,mask-2.png,mask-4.png,s,1,0.5910736000078032,h,1,0.694754500000272,0.04987419999088161,0.05117920000338927,0.09930099999473896,0.10213139999541454,0.2988201999978628
RSVPLG03,km,20260326-153410,1.0.2,20251113-095759,813,Experiment,Both,1,Automatic,main,82,20260326-154136,local,global,300,H,S,E,E,E-H.png,S-E.png,hH,sS,mask-3.png,mask-1.png,h,1,0.9222353000077419,s,1,1.20127190000494,0.05029600000125356,0.050440599996363744,0.09880429999611806,0.10020709999662358,0.2998020999948494
RSVPLG03,km,20260326-153410,1.0.2,20251113-095759,813,Experiment,Both,1,Automatic,main,83,20260326-154142,local,local,750,H,H,E,A,E-H.png,A-H.png,hH,hH,mask-1.png,mask-2.png,h,1,0.44624959999055136,h,1,0.09824540000408888,0.05096910000429489,0.050533900008304045,0.09964580000087153,0.09954940000898205,0.7478439999977127
RSVPLG03,km,20260326-153410,1.0.2,20251113-095759,813,Experiment,Both,1,Automatic,main,84,20260326-154146,local,local,300,H,H,E,E,E-H.png,E-H.png,hH,hH,mask-2.png,mask-1.png,h,1,0.8544541000010213,h,1,0.30603100000007544,0.04798790000495501,0.05009079999581445,0.09951460000593215,0.09971899999072775,0.29848510000738315
RSVPLG03,km,20260326-153410,1.0.2,20251113-095759,813,Experiment,Both,1,Automatic,main,85,20260326-154151,global,global,300,S,H,A,E,S-A.png,H-E.png,sS,hH,mask-2.png,mask-3.png,s,1,0.3781413000106113,h,1,0.05020069998863619,0.04981880000559613,0.049445500000729226,0.09924190001038369,0.0994053000031272,0.2986444999987725
RSVPLG03,km,20260326-153410,1.0.2,20251113-095759,813,Experiment,Both,1,Automatic,main,86,20260326-154155,local,global,300,H,S,E,A,E-H.png,S-A.png,hH,sS,mask-4.png,mask-2.png,h,1,0.7763846000016201,s,1,0.4025143000035314,0.05027890000201296,0.049235200000111945,0.10005809999711346,0.09994680000818335,0.2994789999938803
RSVPLG03,km,20260326-153410,1.0.2,20251113-095759,813,Experiment,Both,1,Automatic,main,87,20260326-154200,local,local,750,S,H,A,E,A-S.png,E-H.png,sS,hH,mask-2.png,mask-1.png,s,1,0.7801221999980044,h,1,0.4011006999935489,0.051098799987812527,0.049966499995207414,0.10024069999053609,0.10011200000008103,0.7489366999943741
RSVPLG03,km,20260326-153410,1.0.2,20251113-095759,813,Experiment,Both,1,Automatic,main,88,20260326-154205,local,local,300,S,S,A,E,A-S.png,E-S.png,sS,sS,mask-4.png,mask-2.png,s,1,0.41332179999153595,s,1,0.0792461000091862,0.04899409999779891,0.04923009999038186,0.10044690000358969,0.09981989998777863,0.2994728000048781
RSVPLG03,km,20260326-153410,1.0.2,20251113-095759,813,Experiment,Both,1,Automatic,main,89,20260326-154210,global,local,300,H,S,A,A,H-A.png,A-S.png,hH,sS,mask-4.png,mask-1.png,h,1,2.2181035000103293,h,0,0.0600440999987768,0.048332200007280335,0.04915880000044126,0.09804159999475814,0.09875889999966603,0.29975370000465773
RSVPLG03,km,20260326-153410,1.0.2,20251113-095759,813,Experiment,Both,1,Automatic,main,90,20260326-154215,local,local,300,H,S,E,E,E-H.png,E-S.png,hH,sS,mask-2.png,mask-2.png,h,1,0.749150899995584,s,1,2.327907900005812,0.04960309999296442,0.04932449999614619,0.09876939999230672,0.10079349999432452,0.29883220000192523
RSVPLG03,km,20260326-153410,1.0.2,20251113-095759,813,Experiment,Both,1,Automatic,main,91,20260326-154222,local,local,300,S,S,E,A,E-S.png,A-S.png,sS,sS,mask-3.png,mask-3.png,s,1,0.6432647999899928,s,1,1.3246057999931509,0.049824299989268184,0.05082590000529308,0.0985130999906687,0.10232730000279844,0.29788909999479074
RSVPLG03,km,20260326-153410,1.0.2,20251113-095759,813,Experiment,Both,1,Automatic,main,92,20260326-154228,global,local,750,H,S,A,A,H-A.png,A-S.png,hH,sS,mask-4.png,mask-1.png,h,1,0.7182981000078144,h,0,0.315557699999772,0.04953659999591764,0.0506320999993477,0.09936209999432322,0.10097709999536164,0.7475597000011476
RSVPLG03,km,20260326-153410,1.0.2,20251113-095759,813,Experiment,Both,1,Automatic,main,93,20260326-154233,local,global,300,H,S,A,E,A-H.png,S-E.png,hH,sS,mask-2.png,mask-3.png,h,1,0.5979334999865387,s,1,0.4456913999893004,0.05231610000191722,0.05087650001223665,0.10061739999218844,0.10073730000294745,0.29953769998974167
RSVPLG03,km,20260326-153410,1.0.2,20251113-095759,813,Experiment,Both,1,Automatic,main,94,20260326-154238,local,local,300,H,S,E,E,E-H.png,E-S.png,hH,sS,mask-2.png,mask-4.png,h,1,0.5798052000027383,s,1,0.04894370000693016,0.0490503000037279,0.053239400003803894,0.09938559999864083,0.10174289999122266,0.2973050000000512
RSVPLG03,km,20260326-153410,1.0.2,20251113-095759,813,Experiment,Both,1,Automatic,main,95,20260326-154242,global,local,300,H,S,E,E,H-E.png,E-S.png,hH,sS,mask-3.png,mask-3.png,h,1,0.6339680000091903,s,1,1.090010700005223,0.05014360000495799,0.05013480001071002,0.09969170000113081,0.1015903000079561,0.29968889999145176
RSVPLG03,km,20260326-153410,1.0.2,20251113-095759,813,Experiment,Both,1,Automatic,main,96,20260326-154247,global,global,300,S,H,E,A,S-E.png,H-A.png,sS,hH,mask-2.png,mask-3.png,s,1,1.941293099996983,h,1,0.0440727999957744,0.04893810000794474,0.04894590000913013,0.09885960000974592,0.09916350001003593,0.2992528000031598
RSVPLG03,km,20260326-153410,1.0.2,20251113-095759,813,Experiment,Both,1,Automatic,main,97,20260326-154253,local,global,750,H,S,E,E,E-H.png,S-E.png,hH,sS,mask-2.png,mask-3.png,h,1,0.7934647999936715,s,1,0.28859369999554474,0.04926529999647755,0.04981430000043474,0.09813499999290798,0.09855460000107996,0.747611999991932
RSVPLG03,km,20260326-153410,1.0.2,20251113-095759,813,Experiment,Both,1,Automatic,main,98,20260326-154258,local,local,750,S,S,E,E,E-S.png,E-S.png,sS,sS,mask-4.png,mask-1.png,s,1,0.6085420999879716,s,1,0.05850180001289118,0.05001510000147391,0.04961810000531841,0.10088640000321902,0.10262280001188628,0.7479923999926541
RSVPLG03,km,20260326-153410,1.0.2,20251113-095759,813,Experiment,Both,1,Automatic,main,99,20260326-154303,global,local,300,H,S,E,E,H-E.png,E-S.png,hH,sS,mask-3.png,mask-2.png,h,1,0.709017600005609,s,1,1.4710687000042526,0.0505189999967115,0.049870199989527464,0.09983379999175668,0.10105889999249484,0.29892370000015944
RSVPLG03,km,20260326-153410,1.0.2,20251113-095759,813,Experiment,Both,1,Automatic,main,100,20260326-154309,global,local,750,H,S,E,A,H-E.png,A-S.png,hH,sS,mask-3.png,mask-4.png,h,1,1.4599202999961562,h,0,0.08145309999235906,0.049289399990811944,0.04844559999764897,0.09941300000355113,0.10043289999885019,0.7475038999982644
