exp,exp_initials,runtime,ver,modtime,sub,blocktype,targets,cuetype,mode,trialtype,trial,trialtime,t1_level,t2_level,t2_lag,t1,t2,distractor1,distractor2,stimfile1,stimfile2,t1_corr,t2_corr,maskfile1,maskfile2,t1_resp,t1_acc,t1_rt,t2_resp,t2_acc,t2_rt,t1_dur,t2_dur,t1mask_soa,t2mask_soa,t1t2_soa
RSVPLG03,sg,20260504-162759,1.0.2,20251105-084826,837,Introduction,T1,1,Automatic,main,1,20260504-162832,local,local,750,H,S,E,E,E-H.png,E-S.png,hH,sS,mask-2.png,mask-1.png,h,1,0.5362820997834206,none,-5,0,0.09027459984645247,0.09656230034306645,0.19399969978258014,0.19949730020016432,0.7469273996539414
RSVPLG03,sg,20260504-162759,1.0.2,20251105-084826,837,Introduction,T1,1,Automatic,main,2,20260504-162837,global,global,750,S,S,E,E,S-E.png,S-E.png,sS,sS,mask-1.png,mask-2.png,s,1,0.7436767998151481,none,-5,0,0.09746140008792281,0.09641079977154732,0.20096090016886592,0.19994870014488697,0.7538454001769423
RSVPLG03,sg,20260504-162759,1.0.2,20251105-084826,837,Introduction,T1,1,Automatic,main,3,20260504-162842,global,global,750,S,S,A,E,S-A.png,S-E.png,sS,sS,mask-4.png,mask-3.png,s,1,1.4862399999983609,none,-5,0,0.0980090000666678,0.09674629988148808,0.2022124002687633,0.20072259986773133,0.7537425002083182
RSVPLG03,sg,20260504-162759,1.0.2,20251105-084826,837,Introduction,T1,1,Automatic,main,4,20260504-162847,local,local,750,S,S,A,E,A-S.png,E-S.png,sS,sS,mask-1.png,mask-4.png,s,1,0.42885580006986856,none,-5,0,0.09834029991179705,0.09684769995510578,0.20029279962182045,0.19961120001971722,0.7533132997341454
RSVPLG03,sg,20260504-162759,1.0.2,20251105-084826,837,Introduction,T1,1,Automatic,main,5,20260504-162852,local,local,750,S,H,E,A,E-S.png,A-H.png,sS,hH,mask-2.png,mask-3.png,s,1,3.2277700998820364,none,-5,0,0.09811379993334413,0.09695110004395247,0.19920949963852763,0.20021789986640215,0.7529004998505116
RSVPLG03,sg,20260504-162759,1.0.2,20251105-084826,837,Introduction,T1,1,Automatic,main,6,20260504-162859,local,global,750,S,S,E,E,E-S.png,S-E.png,sS,sS,mask-4.png,mask-3.png,s,1,0.8956145998090506,none,-5,0,0.09674680000171065,0.09734029974788427,0.1998242000117898,0.20018409984186292,0.7523994999937713
RSVPLG03,sg,20260504-162759,1.0.2,20251105-084826,837,Introduction,T1,1,Automatic,main,7,20260504-162904,local,global,750,S,H,A,E,A-S.png,H-E.png,sS,hH,mask-4.png,mask-2.png,s,1,0.46225979970768094,none,-5,0,0.09643130004405975,0.09742170013487339,0.20031149964779615,0.2003401000984013,0.7527771997265518
RSVPLG03,sg,20260504-162759,1.0.2,20251105-084826,837,Introduction,T1,1,Automatic,main,8,20260504-162909,global,local,750,H,H,A,E,H-A.png,E-H.png,hH,hH,mask-1.png,mask-2.png,h,1,0.4092125999741256,none,-5,0,0.09738980000838637,0.09917569998651743,0.19937639962881804,0.20038130041211843,0.7519011995755136
RSVPLG03,sg,20260504-162759,1.0.2,20251105-084826,837,Introduction,T1,1,Automatic,main,9,20260504-162914,local,global,750,S,H,A,E,A-S.png,H-E.png,sS,hH,mask-1.png,mask-3.png,s,1,0.35855539981275797,none,-5,0,0.09741239994764328,0.09837180003523827,0.1993223000317812,0.20006139995530248,0.7519581001251936
RSVPLG03,sg,20260504-162759,1.0.2,20251105-084826,837,Introduction,T1,1,Automatic,main,10,20260504-162918,local,global,750,S,S,E,A,E-S.png,S-A.png,sS,sS,mask-2.png,mask-2.png,s,1,0.8097705002874136,none,-5,0,0.09755650022998452,0.09737430000677705,0.20060050021857023,0.19933569990098476,0.7541133002378047
RSVPLG03,sg,20260504-162759,1.0.2,20251105-084826,837,Introduction,T1,1,Automatic,main,11,20260504-162923,global,global,750,H,H,A,A,H-A.png,H-A.png,hH,hH,mask-4.png,mask-2.png,h,1,0.3904693000949919,none,-5,0,0.09739759983494878,0.09736649971455336,0.20038780011236668,0.20126969972625375,0.7524826000444591
RSVPLG03,sg,20260504-162759,1.0.2,20251105-084826,837,Introduction,T1,1,Automatic,main,12,20260504-162928,global,local,750,H,H,E,E,H-E.png,E-H.png,hH,hH,mask-3.png,mask-4.png,h,1,0.4752424000762403,none,-5,0,0.09746119985356927,0.09753210004419088,0.20050049992278218,0.2016309997998178,0.7527799000963569
RSVPLG03,sg,20260504-162759,1.0.2,20251105-084826,837,Introduction,T1,1,Automatic,main,13,20260504-162932,local,local,750,H,H,E,A,E-H.png,A-H.png,hH,hH,mask-1.png,mask-1.png,h,1,0.41254069982096553,none,-5,0,0.09758030017837882,0.09678229968994856,0.19879260007292032,0.20056759985163808,0.7520918003283441
RSVPLG03,sg,20260504-162759,1.0.2,20251105-084826,837,Introduction,T1,1,Automatic,main,14,20260504-162937,global,global,750,H,S,E,E,H-E.png,S-E.png,hH,sS,mask-4.png,mask-4.png,h,1,1.2003261996433139,none,-5,0,0.09881500015035272,0.09739369992166758,0.2017686003819108,0.2002742001786828,0.7536650002002716
RSVPLG03,sg,20260504-162759,1.0.2,20251105-084826,837,Introduction,T1,1,Automatic,main,15,20260504-162942,global,local,750,S,S,E,A,S-E.png,A-S.png,sS,sS,mask-4.png,mask-1.png,s,1,0.488431999925524,none,-5,0,0.09739799983799458,0.09743200009688735,0.19928359985351562,0.19930880004540086,0.752558899577707
RSVPLG03,sg,20260504-162759,1.0.2,20251105-084826,837,Introduction,T1,1,Automatic,main,16,20260504-162947,global,local,750,S,S,A,A,S-A.png,A-S.png,sS,sS,mask-4.png,mask-1.png,s,1,0.40485010016709566,none,-5,0,0.09813169995322824,0.09755339985713363,0.20129879983142018,0.20015399996191263,0.753218499943614
RSVPLG03,sg,20260504-163011,1.0.2,20251105-084826,837,Practice,T1,1,Automatic,main,1,20260504-163033,global,global,750,S,S,A,E,S-A.png,S-E.png,sS,sS,mask-4.png,mask-1.png,s,1,0.5078860996291041,none,-5,0,0.04725730000063777,0.04841239983215928,0.09950360003858805,0.10054880008101463,0.7518894001841545
RSVPLG03,sg,20260504-163011,1.0.2,20251105-084826,837,Practice,T1,1,Automatic,main,2,20260504-163037,global,local,750,S,H,E,A,S-E.png,A-H.png,sS,hH,mask-1.png,mask-1.png,s,1,0.4627192001789808,none,-5,0,0.04918129974976182,0.048670100048184395,0.1003091000020504,0.1008523995988071,0.7518237000331283
RSVPLG03,sg,20260504-163011,1.0.2,20251105-084826,837,Practice,T1,1,Automatic,main,3,20260504-163042,local,global,300,H,H,A,A,A-H.png,H-A.png,hH,hH,mask-1.png,mask-3.png,h,1,0.4311301000416279,none,-5,0,0.04765990003943443,0.04652140010148287,0.09967799996957183,0.09941589972004294,0.30071490025147796
RSVPLG03,sg,20260504-163011,1.0.2,20251105-084826,837,Practice,T1,1,Automatic,main,4,20260504-163046,local,local,300,H,S,E,E,E-H.png,E-S.png,hH,sS,mask-3.png,mask-2.png,h,1,0.4582859999500215,none,-5,0,0.04671110026538372,0.048419199883937836,0.09991690004244447,0.10126319993287325,0.2999157002195716
RSVPLG03,sg,20260504-163011,1.0.2,20251105-084826,837,Practice,T1,1,Automatic,main,5,20260504-163050,local,global,300,H,S,A,E,A-H.png,S-E.png,hH,sS,mask-2.png,mask-3.png,h,1,0.45214000018313527,none,-5,0,0.0475828000344336,0.04740840010344982,0.09961199993267655,0.10022280039265752,0.3010652996599674
RSVPLG03,sg,20260504-163011,1.0.2,20251105-084826,837,Practice,T1,1,Automatic,main,6,20260504-163054,local,global,750,H,S,A,E,A-H.png,S-E.png,hH,sS,mask-4.png,mask-1.png,h,1,0.2940678000450134,none,-5,0,0.047709899954497814,0.04729139991104603,0.09994980040937662,0.09939959971234202,0.7516420003958046
RSVPLG03,sg,20260504-163011,1.0.2,20251105-084826,837,Practice,T1,1,Automatic,main,7,20260504-163058,global,local,300,H,S,E,A,H-E.png,A-S.png,hH,sS,mask-4.png,mask-3.png,h,1,0.395718100015074,none,-5,0,0.047780999913811684,0.04768829979002476,0.09999970020726323,0.09989529987797141,0.2996411002241075
RSVPLG03,sg,20260504-163011,1.0.2,20251105-084826,837,Practice,T1,1,Automatic,main,8,20260504-163102,local,global,750,H,S,E,E,E-H.png,S-E.png,hH,sS,mask-1.png,mask-4.png,h,1,0.4500740999355912,none,-5,0,0.04769500019028783,0.048446400091052055,0.10056940000504255,0.10024659987539053,0.7520981002599001
RSVPLG03,sg,20260504-163011,1.0.2,20251105-084826,837,Practice,T1,1,Automatic,main,9,20260504-163107,global,local,750,S,S,A,A,S-A.png,A-S.png,sS,sS,mask-1.png,mask-2.png,s,1,0.3938455996103585,none,-5,0,0.048666699789464474,0.0486969999037683,0.09965540003031492,0.10114859975874424,0.7520377999171615
RSVPLG03,sg,20260504-163011,1.0.2,20251105-084826,837,Practice,T1,1,Automatic,main,10,20260504-163111,global,global,300,S,S,A,A,S-A.png,S-A.png,sS,sS,mask-2.png,mask-4.png,s,1,0.5989994001574814,none,-5,0,0.047432499937713146,0.04758449969813228,0.10054560005664825,0.10113610001280904,0.300708900205791
RSVPLG03,sg,20260504-163011,1.0.2,20251105-084826,837,Practice,T1,1,Automatic,main,11,20260504-163115,local,local,300,H,S,A,E,A-H.png,E-S.png,hH,sS,mask-1.png,mask-2.png,h,1,0.34493889985606074,none,-5,0,0.04770960006862879,0.04570289980620146,0.10096430033445358,0.09892500005662441,0.3026760001666844
RSVPLG03,sg,20260504-163011,1.0.2,20251105-084826,837,Practice,T1,1,Automatic,main,12,20260504-163119,local,local,750,S,S,E,E,E-S.png,E-S.png,sS,sS,mask-1.png,mask-2.png,s,1,0.47535499976947904,none,-5,0,0.04771690024062991,0.04858750011771917,0.10051360027864575,0.10060170013457537,0.7510691001079977
RSVPLG03,sg,20260504-163011,1.0.2,20251105-084826,837,Practice,T1,1,Automatic,main,13,20260504-163124,global,global,300,H,H,E,E,H-E.png,H-E.png,hH,hH,mask-4.png,mask-4.png,h,1,0.5167064000852406,none,-5,0,0.04652679990977049,0.04838509997352958,0.09907720005139709,0.10122619988396764,0.3003742001019418
RSVPLG03,sg,20260504-163011,1.0.2,20251105-084826,837,Practice,T1,1,Automatic,main,14,20260504-163128,global,local,300,S,H,E,E,S-E.png,E-H.png,sS,hH,mask-2.png,mask-2.png,s,1,0.4414715003222227,none,-5,0,0.0485410001128912,0.04714010003954172,0.10078199999406934,0.10014660004526377,0.3010692000389099
RSVPLG03,sg,20260504-163011,1.0.2,20251105-084826,837,Practice,T1,1,Automatic,main,15,20260504-163132,local,local,750,H,H,E,E,E-H.png,E-H.png,hH,hH,mask-2.png,mask-2.png,h,1,0.5279894000850618,none,-5,0,0.04803059995174408,0.04772659996524453,0.09982440015301108,0.09997909981757402,0.7525256001390517
RSVPLG03,sg,20260504-163011,1.0.2,20251105-084826,837,Practice,T1,1,Automatic,main,16,20260504-163136,global,global,750,S,H,A,A,S-A.png,H-A.png,sS,hH,mask-3.png,mask-2.png,s,1,0.5028915000148118,none,-5,0,0.047697899863123894,0.0476799001917243,0.09990060003474355,0.09907429991289973,0.7514984998852015
RSVPLG03,sg,20260504-163333,1.0.2,20251105-084826,837,Introduction,Both,1,Automatic,main,1,20260504-163624,global,global,750,H,S,E,A,H-E.png,S-A.png,hH,sS,mask-4.png,mask-4.png,s,0,15.367804099805653,h,0,0.7370701003819704,0.0925215003080666,0.09758089995011687,0.1936850999481976,0.1996627999469638,0.7424161001108587
RSVPLG03,sg,20260504-163333,1.0.2,20251105-084826,837,Introduction,Both,1,Automatic,main,2,20260504-163644,local,local,750,H,S,E,E,E-H.png,E-S.png,hH,sS,mask-3.png,mask-3.png,h,1,1.1525980001315475,s,1,0.3142638001590967,0.0983615000732243,0.0974201001226902,0.20047529973089695,0.19853940000757575,0.7501240000128746
RSVPLG03,sg,20260504-163333,1.0.2,20251105-084826,837,Introduction,Both,1,Automatic,main,3,20260504-163650,global,local,750,H,S,E,E,H-E.png,E-S.png,hH,sS,mask-3.png,mask-4.png,h,1,2.2786249998025596,h,0,1.174296399578452,0.09965129988268018,0.09755410021170974,0.20167989982292056,0.2009883001446724,0.7494263998232782
RSVPLG03,sg,20260504-163333,1.0.2,20251105-084826,837,Introduction,Both,1,Automatic,main,4,20260504-163657,global,local,750,H,H,E,A,H-E.png,A-H.png,hH,hH,mask-1.png,mask-1.png,h,1,2.2384490999393165,s,0,0.6421146001666784,0.09756070002913475,0.09565360005944967,0.19964160025119781,0.19972570007666945,0.7503793998621404
RSVPLG03,sg,20260504-163333,1.0.2,20251105-084826,837,Introduction,Both,1,Automatic,main,5,20260504-163705,global,local,750,S,S,A,A,S-A.png,A-S.png,sS,sS,mask-1.png,mask-2.png,s,1,1.9209912000223994,h,0,0.5604952997528017,0.0975526999682188,0.0975827001966536,0.19881190033629537,0.19968020031228662,0.7482829000800848
RSVPLG03,sg,20260504-163333,1.0.2,20251105-084826,837,Introduction,Both,1,Automatic,main,6,20260504-163711,local,local,750,S,S,A,A,A-S.png,A-S.png,sS,sS,mask-3.png,mask-1.png,s,1,0.7788101001642644,s,1,0.33450020011514425,0.09840690018609166,0.09763089986518025,0.19949600007385015,0.19943329971283674,0.7491224003024399
RSVPLG03,sg,20260504-163333,1.0.2,20251105-084826,837,Introduction,Both,1,Automatic,main,7,20260504-163717,local,local,750,S,S,E,E,E-S.png,E-S.png,sS,sS,mask-2.png,mask-4.png,s,1,0.6889224001206458,s,1,0.2511259997263551,0.09755609976127744,0.0976291997358203,0.20063119987025857,0.19949949998408556,0.7478374000638723
RSVPLG03,sg,20260504-163333,1.0.2,20251105-084826,837,Introduction,Both,1,Automatic,main,8,20260504-163722,local,local,750,S,S,E,E,E-S.png,E-S.png,sS,sS,mask-4.png,mask-4.png,s,1,0.8732079998590052,s,1,0.22787080006673932,0.09750129980966449,0.09838450001552701,0.20136669976636767,0.20025369990617037,0.7491509998217225
RSVPLG03,sg,20260504-163333,1.0.2,20251105-084826,837,Introduction,Both,1,Automatic,main,9,20260504-163727,global,global,750,S,H,A,A,S-A.png,H-A.png,sS,hH,mask-3.png,mask-2.png,s,1,1.4894948997534811,h,1,0.22880390007048845,0.09708369988948107,0.09740239987149835,0.19911279994994402,0.2011212999932468,0.7473901999182999
RSVPLG03,sg,20260504-163333,1.0.2,20251105-084826,837,Introduction,Both,1,Automatic,main,10,20260504-163733,local,global,750,S,S,A,E,A-S.png,S-E.png,sS,sS,mask-3.png,mask-3.png,s,1,1.8769413996487856,h,0,0.3236799002625048,0.09690399980172515,0.09739070013165474,0.20041219983249903,0.20028870040550828,0.7488066996447742
RSVPLG03,sg,20260504-163333,1.0.2,20251105-084826,837,Introduction,Both,1,Automatic,main,11,20260504-163740,local,global,750,S,S,A,E,A-S.png,S-E.png,sS,sS,mask-1.png,mask-1.png,s,1,1.8105325000360608,s,1,0.21194420009851456,0.0973589001223445,0.09739549970254302,0.20124590024352074,0.2003287998959422,0.7495751003734767
RSVPLG03,sg,20260504-163333,1.0.2,20251105-084826,837,Introduction,Both,1,Automatic,main,12,20260504-163746,local,global,750,H,H,A,A,A-H.png,H-A.png,hH,hH,mask-3.png,mask-2.png,h,1,1.5300787999294698,h,1,0.21323349978774786,0.09739569993689656,0.09665310010313988,0.19929170003160834,0.19842639984562993,0.7494073999114335
RSVPLG03,sg,20260504-163333,1.0.2,20251105-084826,837,Introduction,Both,1,Automatic,main,13,20260504-163752,global,global,750,H,S,E,E,H-E.png,S-E.png,hH,sS,mask-2.png,mask-3.png,h,1,1.1438219998963177,s,1,0.254052999895066,0.09743349999189377,0.09689359972253442,0.20039490005001426,0.19785339990630746,0.7506620003841817
RSVPLG03,sg,20260504-163333,1.0.2,20251105-084826,837,Introduction,Both,1,Automatic,main,14,20260504-163758,local,global,750,H,S,A,A,A-H.png,S-A.png,hH,sS,mask-2.png,mask-3.png,h,1,0.6920762998051941,s,1,0.24221350019797683,0.09598709968850017,0.09647359978407621,0.1990013998001814,0.2007184000685811,0.7483216999098659
RSVPLG03,sg,20260504-163333,1.0.2,20251105-084826,837,Introduction,Both,1,Automatic,main,15,20260504-163803,global,local,750,H,H,A,A,H-A.png,A-H.png,hH,hH,mask-1.png,mask-3.png,h,1,0.9260108000598848,h,1,0.28013129997998476,0.09742980031296611,0.09640089981257915,0.19832399999722838,0.19957719976082444,0.7482398003339767
RSVPLG03,sg,20260504-163333,1.0.2,20251105-084826,837,Introduction,Both,1,Automatic,main,16,20260504-163808,global,global,750,S,H,A,A,S-A.png,H-A.png,sS,hH,mask-4.png,mask-4.png,s,1,1.0597028001211584,h,1,0.19988709967583418,0.09638699982315302,0.09739540005102754,0.19794150022789836,0.19836890045553446,0.7488083997741342
RSVPLG03,sg,20260504-163830,1.0.2,20251105-084826,837,Practice,Both,1,Automatic,main,1,20260504-163847,local,global,750,S,S,A,A,A-S.png,S-A.png,sS,sS,mask-3.png,mask-2.png,s,1,0.6230591000057757,s,1,0.20809890003874898,0.04107679985463619,0.04768710024654865,0.0937577998265624,0.09987400006502867,0.7443502997048199
RSVPLG03,sg,20260504-163830,1.0.2,20251105-084826,837,Practice,Both,1,Automatic,main,2,20260504-163852,local,global,300,H,H,E,E,E-H.png,H-E.png,hH,hH,mask-2.png,mask-4.png,h,1,0.8194546001031995,h,1,0.17906569968909025,0.04714650008827448,0.04636090015992522,0.09925330011174083,0.09880460007116199,0.299556499812752
RSVPLG03,sg,20260504-163830,1.0.2,20251105-084826,837,Practice,Both,1,Automatic,main,3,20260504-163857,local,global,300,S,S,A,E,A-S.png,S-E.png,sS,sS,mask-4.png,mask-4.png,s,1,1.2627115999348462,s,1,0.26095080003142357,0.04865780007094145,0.04738730005919933,0.10166939999908209,0.09850310022011399,0.3012896999716759
RSVPLG03,sg,20260504-163830,1.0.2,20251105-084826,837,Practice,Both,1,Automatic,main,4,20260504-163902,global,global,750,H,H,E,A,H-E.png,H-A.png,hH,hH,mask-3.png,mask-2.png,h,1,0.988258299883455,h,1,0.18681629979982972,0.046181800309568644,0.046178899705410004,0.0985342999920249,0.09893290000036359,0.7494713002815843
RSVPLG03,sg,20260504-163830,1.0.2,20251105-084826,837,Practice,Both,1,Automatic,main,5,20260504-163907,global,local,300,S,S,E,A,S-E.png,A-S.png,sS,sS,mask-2.png,mask-4.png,s,1,1.7523889997974038,h,0,0.15402190014719963,0.045699500013142824,0.045746800024062395,0.09789460012689233,0.09989860001951456,0.2998107997700572
RSVPLG03,sg,20260504-163830,1.0.2,20251105-084826,837,Practice,Both,1,Automatic,main,6,20260504-163913,local,local,300,H,H,A,A,A-H.png,A-H.png,hH,hH,mask-3.png,mask-1.png,h,1,0.9249963997863233,h,1,0.20307209994643927,0.047605699859559536,0.04766069957986474,0.10162730002775788,0.09985839994624257,0.3001743000932038
RSVPLG03,sg,20260504-163830,1.0.2,20251105-084826,837,Practice,Both,1,Automatic,main,7,20260504-163917,global,local,300,H,H,E,E,H-E.png,E-H.png,hH,hH,mask-2.png,mask-1.png,h,1,1.030011000111699,s,0,0.2461176998913288,0.04727100022137165,0.048677199985831976,0.10056570032611489,0.09991589980199933,0.30006910022348166
RSVPLG03,sg,20260504-163830,1.0.2,20251105-084826,837,Practice,Both,1,Automatic,main,8,20260504-163922,global,global,300,S,H,E,E,S-E.png,H-E.png,sS,hH,mask-3.png,mask-4.png,h,0,1.2140579000115395,s,0,0.9690809999592602,0.04571019997820258,0.04570850031450391,0.09995719976723194,0.09990900009870529,0.29971659975126386
RSVPLG03,sg,20260504-163830,1.0.2,20251105-084826,837,Practice,Both,1,Automatic,main,9,20260504-163928,local,local,300,H,H,E,E,E-H.png,E-H.png,hH,hH,mask-1.png,mask-4.png,h,1,0.9553435002453625,h,1,0.21619779989123344,0.04869799967855215,0.04732380015775561,0.09991919994354248,0.09960030019283295,0.30065019987523556
RSVPLG03,sg,20260504-163830,1.0.2,20251105-084826,837,Practice,Both,1,Automatic,main,10,20260504-163933,global,global,750,H,H,E,E,H-E.png,H-E.png,hH,hH,mask-4.png,mask-2.png,h,1,1.9462985997088253,h,1,0.8582927002571523,0.046695500146597624,0.047039799857884645,0.09845850011333823,0.09934059996157885,0.7492551999166608
RSVPLG03,sg,20260504-163830,1.0.2,20251105-084826,837,Practice,Both,1,Automatic,main,11,20260504-163940,global,local,750,S,S,A,E,S-A.png,E-S.png,sS,sS,mask-1.png,mask-4.png,s,1,1.4361581997945905,s,1,0.27883660001680255,0.04769890010356903,0.0476927999407053,0.10095970006659627,0.09892739960923791,0.7499961000867188
RSVPLG03,sg,20260504-163830,1.0.2,20251105-084826,837,Practice,Both,1,Automatic,main,12,20260504-163946,global,global,300,S,H,E,A,S-E.png,H-A.png,sS,hH,mask-2.png,mask-2.png,s,1,0.6453961003571749,h,1,0.29884740011766553,0.04591420013457537,0.04676489997655153,0.09908289974555373,0.09997360035777092,0.2996228998526931
RSVPLG03,sg,20260504-163830,1.0.2,20251105-084826,837,Practice,Both,1,Automatic,main,13,20260504-163951,local,local,750,S,H,A,A,A-S.png,A-H.png,sS,hH,mask-3.png,mask-3.png,s,1,0.7035067998804152,h,1,0.22430039988830686,0.04772300040349364,0.047535800375044346,0.09988490026444197,0.09877470042556524,0.750292900018394
RSVPLG03,sg,20260504-163830,1.0.2,20251105-084826,837,Practice,Both,1,Automatic,main,14,20260504-163956,global,local,750,S,S,A,A,S-A.png,A-S.png,sS,sS,mask-4.png,mask-3.png,s,1,0.9420206998474896,s,1,0.2654818999581039,0.04656560020521283,0.047534100245684385,0.10034820018336177,0.10137310018762946,0.7489813999272883
RSVPLG03,sg,20260504-163830,1.0.2,20251105-084826,837,Practice,Both,1,Automatic,main,15,20260504-164001,local,local,750,S,S,E,E,E-S.png,E-S.png,sS,sS,mask-2.png,mask-2.png,s,1,1.1106821997091174,s,1,1.6961328997276723,0.04757109982892871,0.047770300414413214,0.0989351999014616,0.10010950034484267,0.7483950997702777
RSVPLG03,sg,20260504-163830,1.0.2,20251105-084826,837,Practice,Both,1,Automatic,main,16,20260504-164008,local,global,750,S,H,A,E,A-S.png,H-E.png,sS,hH,mask-2.png,mask-1.png,s,1,1.0232134996913373,h,1,0.23683119984343648,0.04668400017544627,0.04652650002390146,0.09871140029281378,0.09957529976963997,0.749112700112164
RSVPLG03,sg,20260504-164230,1.0.2,20251105-084826,837,Experiment,Both,1,Automatic,warmup,1,20260504-164254,global,global,300,H,S,E,E,H-E.png,S-E.png,hH,sS,mask-2.png,mask-2.png,h,1,1.2873395001515746,h,0,0.20209409995004535,0.04810809995979071,0.04933569999411702,0.10125039983540773,0.10071090003475547,0.3001640001311898
RSVPLG03,sg,20260504-164230,1.0.2,20251105-084826,837,Experiment,Both,1,Automatic,warmup,2,20260504-164300,local,global,750,H,S,A,E,A-H.png,S-E.png,hH,sS,mask-3.png,mask-1.png,h,1,1.0023460001684725,s,1,0.14882770041003823,0.04606699990108609,0.047467300202697515,0.10012339986860752,0.10150830028578639,0.7504137000069022
RSVPLG03,sg,20260504-164230,1.0.2,20251105-084826,837,Experiment,Both,1,Automatic,warmup,3,20260504-164305,global,global,750,H,H,A,E,H-A.png,H-E.png,hH,hH,mask-3.png,mask-3.png,h,1,0.5411527999676764,h,1,0.206948300357908,0.0485363001935184,0.047626799903810024,0.10059359995648265,0.09965679980814457,0.7526316000148654
RSVPLG03,sg,20260504-164230,1.0.2,20251105-084826,837,Experiment,Both,1,Automatic,warmup,4,20260504-164310,local,local,750,S,H,A,A,A-S.png,A-H.png,sS,hH,mask-1.png,mask-1.png,s,1,1.0019406001083553,h,1,0.18612989969551563,0.04951700009405613,0.046938400249928236,0.1016019000671804,0.10020780004560947,0.7518293997272849
RSVPLG03,sg,20260504-164230,1.0.2,20251105-084826,837,Experiment,Both,1,Automatic,main,5,20260504-164315,global,global,750,S,H,E,E,S-E.png,H-E.png,sS,hH,mask-4.png,mask-3.png,s,1,1.3460333999246359,s,0,0.4095773003064096,0.04651929996907711,0.04752009967342019,0.09883269993588328,0.10059269983321428,0.7506336001679301
RSVPLG03,sg,20260504-164230,1.0.2,20251105-084826,837,Experiment,Both,1,Automatic,main,6,20260504-164321,local,global,750,H,H,E,E,E-H.png,H-E.png,hH,hH,mask-3.png,mask-4.png,h,1,1.0594485001638532,h,1,0.1701166001148522,0.048148900270462036,0.04860580014064908,0.10018580034375191,0.10045240027830005,0.7508245999924839
RSVPLG03,sg,20260504-164230,1.0.2,20251105-084826,837,Experiment,Both,1,Automatic,main,7,20260504-164326,local,local,750,H,S,A,A,A-H.png,A-S.png,hH,sS,mask-3.png,mask-4.png,h,1,1.0642471997998655,s,1,0.19319560006260872,0.048126399982720613,0.04869569977745414,0.10140189994126558,0.09989940002560616,0.7519780001603067
RSVPLG03,sg,20260504-164230,1.0.2,20251105-084826,837,Experiment,Both,1,Automatic,main,8,20260504-164332,local,global,300,S,S,E,E,E-S.png,S-E.png,sS,sS,mask-3.png,mask-3.png,h,0,1.2421244997531176,s,1,0.8376690000295639,0.04767380002886057,0.047288499772548676,0.09864800004288554,0.10105339996516705,0.2994411000981927
RSVPLG03,sg,20260504-164230,1.0.2,20251105-084826,837,Experiment,Both,1,Automatic,main,9,20260504-164338,global,local,750,H,S,A,A,H-A.png,A-S.png,hH,sS,mask-1.png,mask-2.png,h,1,0.9777108998969197,s,1,0.10217859968543053,0.04752720007672906,0.047488299664109945,0.09847570024430752,0.10152240004390478,0.7498198002576828
RSVPLG03,sg,20260504-164230,1.0.2,20251105-084826,837,Experiment,Both,1,Automatic,main,10,20260504-164343,local,global,750,S,H,E,A,E-S.png,H-A.png,sS,hH,mask-4.png,mask-2.png,s,1,0.8664680998772383,h,1,0.18504519993439317,0.04852219996973872,0.047513299621641636,0.10051700007170439,0.09853189997375011,0.7531261001713574
RSVPLG03,sg,20260504-164230,1.0.2,20251105-084826,837,Experiment,Both,1,Automatic,main,11,20260504-164348,local,local,750,S,S,A,E,A-S.png,E-S.png,sS,sS,mask-2.png,mask-2.png,h,0,0.6326632001437247,s,1,0.23782799998298287,0.047764900140464306,0.04789530020207167,0.09990980010479689,0.10191369988024235,0.7498629000037909
RSVPLG03,sg,20260504-164230,1.0.2,20251105-084826,837,Experiment,Both,1,Automatic,main,12,20260504-164353,global,global,750,H,S,A,E,H-A.png,S-E.png,hH,sS,mask-2.png,mask-3.png,h,1,0.728656199760735,s,1,0.1461494998075068,0.048634999897331,0.04656840022653341,0.10024120006710291,0.09975589998066425,0.7522327997721732
RSVPLG03,sg,20260504-164230,1.0.2,20251105-084826,837,Experiment,Both,1,Automatic,main,13,20260504-164358,global,global,300,S,S,A,E,S-A.png,S-E.png,sS,sS,mask-2.png,mask-3.png,s,1,1.357021499890834,h,0,0.14733769977465272,0.04768650000914931,0.046704200096428394,0.09991570003330708,0.10097749996930361,0.3007112997584045
RSVPLG03,sg,20260504-164230,1.0.2,20251105-084826,837,Experiment,Both,1,Automatic,main,14,20260504-164403,local,global,300,H,S,E,E,E-H.png,S-E.png,hH,sS,mask-2.png,mask-1.png,h,1,0.9853032999671996,h,0,0.2084447001107037,0.047734799794852734,0.04772819997742772,0.10013230005279183,0.09993599960580468,0.29976180009543896
RSVPLG03,sg,20260504-164230,1.0.2,20251105-084826,837,Experiment,Both,1,Automatic,main,15,20260504-164408,global,global,300,H,S,E,A,H-E.png,S-A.png,hH,sS,mask-3.png,mask-4.png,h,1,1.356969399843365,s,1,0.0923780002631247,0.04754510009661317,0.04768020007759333,0.10074569983407855,0.10087320022284985,0.3003314998932183
RSVPLG03,sg,20260504-164230,1.0.2,20251105-084826,837,Experiment,Both,1,Automatic,main,16,20260504-164413,local,global,750,H,H,A,E,A-H.png,H-E.png,hH,hH,mask-4.png,mask-4.png,h,1,1.1809634999372065,s,0,0.16443639993667603,0.04774890001863241,0.04669139999896288,0.09997520036995411,0.09952750010415912,0.7515308000147343
RSVPLG03,sg,20260504-164230,1.0.2,20251105-084826,837,Experiment,Both,1,Automatic,main,17,20260504-164419,global,local,300,H,H,E,A,H-E.png,A-H.png,hH,hH,mask-1.png,mask-3.png,h,1,1.1806149003095925,h,1,0.15438219998031855,0.047723500058054924,0.04699019994586706,0.10018209973350167,0.10021190019324422,0.3009478999301791
RSVPLG03,sg,20260504-164230,1.0.2,20251105-084826,837,Experiment,Both,1,Automatic,main,18,20260504-164424,global,global,300,S,H,E,E,S-E.png,H-E.png,sS,hH,mask-2.png,mask-4.png,s,1,1.3738194000907242,h,1,0.0717250001616776,0.04756089998409152,0.046983900014311075,0.0997842000797391,0.09926139982417226,0.30052149994298816
RSVPLG03,sg,20260504-164230,1.0.2,20251105-084826,837,Experiment,Both,1,Automatic,main,19,20260504-164429,global,local,750,H,H,E,A,H-E.png,A-H.png,hH,hH,mask-1.png,mask-2.png,h,1,0.5208775997161865,h,1,0.16914619971066713,0.046509999781847,0.046585300005972385,0.10052610002458096,0.0997666995972395,0.7511456999927759
RSVPLG03,sg,20260504-164230,1.0.2,20251105-084826,837,Experiment,Both,1,Automatic,main,20,20260504-164434,local,local,750,H,H,E,E,E-H.png,E-H.png,hH,hH,mask-1.png,mask-1.png,h,1,0.8456019000150263,h,1,0.10649230005219579,0.047598100267350674,0.046570600010454655,0.09964490029960871,0.0989231001585722,0.751110500190407
RSVPLG03,sg,20260504-164230,1.0.2,20251105-084826,837,Experiment,Both,1,Automatic,main,21,20260504-164439,global,global,750,H,H,A,A,H-A.png,H-A.png,hH,hH,mask-2.png,mask-2.png,h,1,0.614267900120467,h,1,0.16683940030634403,0.04836079990491271,0.047515999991446733,0.10135119967162609,0.09856020007282495,0.7534846998751163
RSVPLG03,sg,20260504-164230,1.0.2,20251105-084826,837,Experiment,Both,1,Automatic,main,22,20260504-164444,local,local,300,S,H,A,A,A-S.png,A-H.png,sS,hH,mask-3.png,mask-2.png,h,0,0.8592465999536216,s,0,0.12099809991195798,0.04860810004174709,0.04658999992534518,0.1016911999322474,0.09970919974148273,0.30210100021213293
RSVPLG03,sg,20260504-164230,1.0.2,20251105-084826,837,Experiment,Both,1,Automatic,main,23,20260504-164449,local,global,750,S,H,E,E,E-S.png,H-E.png,sS,hH,mask-3.png,mask-4.png,s,1,0.4724012999795377,h,1,0.1879277997650206,0.04761509969830513,0.047525899950414896,0.10068599972873926,0.10057889996096492,0.7501489999704063
RSVPLG03,sg,20260504-164230,1.0.2,20251105-084826,837,Experiment,Both,1,Automatic,main,24,20260504-164453,local,local,750,H,S,A,A,A-H.png,A-S.png,hH,sS,mask-3.png,mask-4.png,h,1,1.5079642999917269,h,0,0.11477200035005808,0.047160899732261896,0.04877999983727932,0.09951699990779161,0.09980530012398958,0.7502029999159276
RSVPLG03,sg,20260504-164230,1.0.2,20251105-084826,837,Experiment,Both,1,Automatic,main,25,20260504-164459,global,local,300,H,H,A,E,H-A.png,E-H.png,hH,hH,mask-4.png,mask-4.png,h,1,0.7490220996551216,s,0,0.2178838001564145,0.04868730017915368,0.046696700155735016,0.09990089992061257,0.09990170039236546,0.3015419999137521
RSVPLG03,sg,20260504-164230,1.0.2,20251105-084826,837,Experiment,Both,1,Automatic,main,26,20260504-164511,global,local,750,H,H,E,E,H-E.png,E-H.png,hH,hH,mask-2.png,mask-2.png,h,1,0.8431180999614298,h,1,0.15247160010039806,0.047824100125581026,0.048667500261217356,0.10007350007072091,0.10008460003882647,0.7509435000829399
RSVPLG03,sg,20260504-164230,1.0.2,20251105-084826,837,Experiment,Both,1,Automatic,main,27,20260504-164516,local,local,300,S,S,A,A,A-S.png,A-S.png,sS,sS,mask-3.png,mask-3.png,s,1,1.657090799883008,h,0,0.36145969992503524,0.04770039999857545,0.04751349985599518,0.10083780018612742,0.09878560015931726,0.30170510010793805
RSVPLG03,sg,20260504-164230,1.0.2,20251105-084826,837,Experiment,Both,1,Automatic,main,28,20260504-164522,local,local,300,S,H,E,A,E-S.png,A-H.png,sS,hH,mask-4.png,mask-3.png,s,1,0.8132249000482261,h,1,0.2790204999037087,0.046711300034075975,0.04754579998552799,0.09991930006071925,0.09959470015019178,0.29975169990211725
RSVPLG03,sg,20260504-164230,1.0.2,20251105-084826,837,Experiment,Both,1,Automatic,main,29,20260504-164527,global,global,750,S,S,E,A,S-E.png,S-A.png,sS,sS,mask-3.png,mask-2.png,s,1,0.4798894999548793,s,1,0.19473739992827177,0.047522000037133694,0.04773630015552044,0.09953540004789829,0.09907760005444288,0.7511080000549555
RSVPLG03,sg,20260504-164230,1.0.2,20251105-084826,837,Experiment,Both,1,Automatic,main,30,20260504-164531,local,global,300,H,H,A,E,A-H.png,H-E.png,hH,hH,mask-4.png,mask-3.png,h,1,2.7986599998548627,s,0,0.5499846995808184,0.048634800128638744,0.04748720023781061,0.10066939983516932,0.09878400014713407,0.30093219969421625
RSVPLG03,sg,20260504-164230,1.0.2,20251105-084826,837,Experiment,Both,1,Automatic,main,31,20260504-164538,global,global,300,S,H,A,A,S-A.png,H-A.png,sS,hH,mask-2.png,mask-2.png,s,1,1.5207906998693943,h,1,0.05976449977606535,0.04754019994288683,0.047558499965816736,0.09959000023081899,0.09961150027811527,0.2999505000188947
RSVPLG03,sg,20260504-164230,1.0.2,20251105-084826,837,Experiment,Both,1,Automatic,main,32,20260504-164544,local,global,750,H,H,A,E,A-H.png,H-E.png,hH,hH,mask-1.png,mask-3.png,h,1,0.7298343000002205,h,1,0.12219309993088245,0.04755819961428642,0.047511700075119734,0.10037350002676249,0.09958889987319708,0.7505430998280644
RSVPLG03,sg,20260504-164230,1.0.2,20251105-084826,837,Experiment,Both,1,Automatic,main,33,20260504-164549,local,global,750,H,H,A,E,A-H.png,H-E.png,hH,hH,mask-1.png,mask-3.png,h,1,0.7306300001218915,h,1,0.11496399994939566,0.04755529994145036,0.04655720014125109,0.09958439972251654,0.10068480018526316,0.7517640995793045
RSVPLG03,sg,20260504-164230,1.0.2,20251105-084826,837,Experiment,Both,1,Automatic,main,34,20260504-164554,global,local,750,S,H,A,A,S-A.png,A-H.png,sS,hH,mask-1.png,mask-4.png,s,1,1.3239270001649857,h,1,0.08319959975779057,0.047607900109142065,0.04569149995222688,0.10043689981102943,0.0989800002425909,0.7515926999039948
RSVPLG03,sg,20260504-164230,1.0.2,20251105-084826,837,Experiment,Both,1,Automatic,main,35,20260504-164559,global,local,300,S,S,E,E,S-E.png,E-S.png,sS,sS,mask-3.png,mask-3.png,s,1,1.722632400225848,s,1,0.21355320001021028,0.04862270038574934,0.04817240033298731,0.1007462004199624,0.1001769001595676,0.3011066000908613
RSVPLG03,sg,20260504-164230,1.0.2,20251105-084826,837,Experiment,Both,1,Automatic,main,36,20260504-164605,global,global,300,H,S,A,A,H-A.png,S-A.png,hH,sS,mask-3.png,mask-2.png,h,1,1.1780926999635994,s,1,0.20276520028710365,0.046809100080281496,0.047184799797832966,0.09984660008922219,0.10024130018427968,0.29978800006210804
RSVPLG03,sg,20260504-164230,1.0.2,20251105-084826,837,Experiment,Both,1,Automatic,main,37,20260504-164610,global,local,750,H,S,A,A,H-A.png,A-S.png,hH,sS,mask-2.png,mask-4.png,h,1,0.9576690001413226,h,0,0.08700850000604987,0.04782429989427328,0.04951660009101033,0.09980029985308647,0.10063469968736172,0.7500915001146495
RSVPLG03,sg,20260504-164230,1.0.2,20251105-084826,837,Experiment,Both,1,Automatic,main,38,20260504-164615,global,local,750,S,H,E,A,S-E.png,A-H.png,sS,hH,mask-4.png,mask-2.png,s,1,0.8599713002331555,h,1,0.12341539980843663,0.046904100105166435,0.04933399986475706,0.09996110014617443,0.10069449990987778,0.7506572003476322
RSVPLG03,sg,20260504-164230,1.0.2,20251105-084826,837,Experiment,Both,1,Automatic,main,39,20260504-164620,local,local,750,H,S,A,E,A-H.png,E-S.png,hH,sS,mask-3.png,mask-2.png,h,1,0.9809860996901989,s,1,0.1518674003891647,0.04750540014356375,0.04752299981191754,0.09952870011329651,0.10159149998798966,0.7498512002639472
RSVPLG03,sg,20260504-164230,1.0.2,20251105-084826,837,Experiment,Both,1,Automatic,main,40,20260504-164626,local,global,300,H,H,A,A,A-H.png,H-A.png,hH,hH,mask-2.png,mask-3.png,h,1,0.9212670996785164,h,1,0.10477739991620183,0.04631769983097911,0.04768089996650815,0.09884259989485145,0.10020119976252317,0.30023480020463467
RSVPLG03,sg,20260504-164230,1.0.2,20251105-084826,837,Experiment,Both,1,Automatic,main,41,20260504-164630,global,local,300,H,S,E,E,H-E.png,E-S.png,hH,sS,mask-2.png,mask-1.png,h,1,0.8278038999997079,s,1,0.17376899998635054,0.04751159995794296,0.047554099932312965,0.09966439986601472,0.10150450002402067,0.2990628997795284
RSVPLG03,sg,20260504-164230,1.0.2,20251105-084826,837,Experiment,Both,1,Automatic,main,42,20260504-164635,local,global,300,H,S,A,A,A-H.png,S-A.png,hH,sS,mask-2.png,mask-2.png,h,1,0.8742434000596404,s,1,0.09932999964803457,0.04650670010596514,0.04753050021827221,0.09958440018817782,0.10054940031841397,0.29916639998555183
RSVPLG03,sg,20260504-164230,1.0.2,20251105-084826,837,Experiment,Both,1,Automatic,main,43,20260504-164640,global,global,750,S,S,E,A,S-E.png,S-A.png,sS,sS,mask-2.png,mask-1.png,s,1,0.5033240001648664,s,1,0.18258889997377992,0.047624699771404266,0.04761449992656708,0.10068419994786382,0.10146010015159845,0.7503895997069776
RSVPLG03,sg,20260504-164230,1.0.2,20251105-084826,837,Experiment,Both,1,Automatic,main,44,20260504-164644,local,global,300,H,H,A,A,A-H.png,H-A.png,hH,hH,mask-4.png,mask-4.png,h,1,0.9666785998269916,s,0,0.16505720000714064,0.04765249975025654,0.046786800026893616,0.09969629999250174,0.10056499997153878,0.3000206998549402
RSVPLG03,sg,20260504-164230,1.0.2,20251105-084826,837,Experiment,Both,1,Automatic,main,45,20260504-164649,global,local,300,H,H,E,E,H-E.png,E-H.png,hH,hH,mask-3.png,mask-1.png,h,1,0.6563570001162589,s,0,0.1456515002064407,0.04768870025873184,0.04771679965779185,0.09989620000123978,0.10098739992827177,0.29956330033019185
RSVPLG03,sg,20260504-164230,1.0.2,20251105-084826,837,Experiment,Both,1,Automatic,main,46,20260504-164654,global,global,300,S,S,E,E,S-E.png,S-E.png,sS,sS,mask-1.png,mask-2.png,h,0,1.1600609999150038,h,0,0.7615307001397014,0.049232099670916796,0.04675229964777827,0.10048520006239414,0.09994270000606775,0.30242189997807145
RSVPLG03,sg,20260504-164230,1.0.2,20251105-084826,837,Experiment,Both,1,Automatic,main,47,20260504-164659,global,local,750,S,H,A,E,S-A.png,E-H.png,sS,hH,mask-3.png,mask-1.png,s,1,0.8220155001617968,h,1,0.22876570001244545,0.04877869971096516,0.04867759998887777,0.1009986000135541,0.10184619994834065,0.7514585996977985
RSVPLG03,sg,20260504-164230,1.0.2,20251105-084826,837,Experiment,Both,1,Automatic,main,48,20260504-164705,local,local,750,S,H,A,E,A-S.png,E-H.png,sS,hH,mask-1.png,mask-1.png,s,1,0.8804279002361,h,1,0.13011820008978248,0.04771730024367571,0.04773950017988682,0.0989304999820888,0.10084429988637567,0.7505970001220703
RSVPLG03,sg,20260504-164230,1.0.2,20251105-084826,837,Experiment,Both,1,Automatic,main,49,20260504-164710,local,global,300,H,H,A,E,A-H.png,H-E.png,hH,hH,mask-2.png,mask-3.png,h,1,2.1632774001918733,s,0,0.11393219977617264,0.048611299600452185,0.04740310041233897,0.10073219984769821,0.09949799999594688,0.3019529995508492
RSVPLG03,sg,20260504-164230,1.0.2,20251105-084826,837,Experiment,Both,1,Automatic,main,50,20260504-164716,local,local,300,H,H,E,E,E-H.png,E-H.png,hH,hH,mask-2.png,mask-2.png,h,1,1.1166815999895334,h,1,0.17078780010342598,0.047518800012767315,0.04756249999627471,0.10036349995061755,0.0996437999419868,0.2997273998335004
RSVPLG03,sg,20260504-164230,1.0.2,20251105-084826,837,Experiment,Both,1,Automatic,main,51,20260504-164726,local,local,300,S,S,E,A,E-S.png,A-S.png,sS,sS,mask-4.png,mask-2.png,s,1,0.5320545001886785,h,0,0.08577540004625916,0.047431500162929296,0.04859060002490878,0.1004538000561297,0.10061139985918999,0.2999348002485931
RSVPLG03,sg,20260504-164230,1.0.2,20251105-084826,837,Experiment,Both,1,Automatic,main,52,20260504-164731,local,local,300,H,S,E,A,E-H.png,A-S.png,hH,sS,mask-4.png,mask-1.png,h,1,1.322857600171119,s,1,0.15105379978194833,0.04770549992099404,0.046394600067287683,0.09971969993785024,0.0995155000127852,0.3001347999088466
RSVPLG03,sg,20260504-164230,1.0.2,20251105-084826,837,Experiment,Both,1,Automatic,main,53,20260504-164736,global,local,750,S,S,A,E,S-A.png,E-S.png,sS,sS,mask-1.png,mask-2.png,s,1,1.645698799751699,h,0,0.13799359975382686,0.047531400341540575,0.04756150022149086,0.09954520035535097,0.10158920008689165,0.7496756999753416
RSVPLG03,sg,20260504-164230,1.0.2,20251105-084826,837,Experiment,Both,1,Automatic,main,54,20260504-164742,local,local,300,H,H,E,E,E-H.png,E-H.png,hH,hH,mask-3.png,mask-2.png,h,1,1.869628299959004,h,1,1.1401383997872472,0.04670119984075427,0.04673219984397292,0.0998379997909069,0.0999440997838974,0.30043770000338554
RSVPLG03,sg,20260504-164230,1.0.2,20251105-084826,837,Experiment,Both,1,Automatic,main,55,20260504-164749,local,global,300,S,H,A,E,A-S.png,H-E.png,sS,hH,mask-2.png,mask-3.png,s,1,2.088090999983251,s,0,0.7634028000757098,0.04766950011253357,0.047701200004667044,0.10086019989103079,0.09992039995267987,0.3018725998699665
RSVPLG03,sg,20260504-164230,1.0.2,20251105-084826,837,Experiment,Both,1,Automatic,main,56,20260504-164755,global,global,300,S,S,E,E,S-E.png,S-E.png,sS,sS,mask-2.png,mask-3.png,s,1,0.9811712000519037,s,1,0.24928459990769625,0.04673079960048199,0.046732799615710974,0.09832149976864457,0.09992859978228807,0.29995719995349646
RSVPLG03,sg,20260504-164230,1.0.2,20251105-084826,837,Experiment,Both,1,Automatic,main,57,20260504-164800,global,local,300,H,S,A,A,H-A.png,A-S.png,hH,sS,mask-1.png,mask-3.png,h,1,1.0646776002831757,s,1,0.18973840028047562,0.046725299675017595,0.046802899800240993,0.10051129991188645,0.09901869995519519,0.3011793000623584
RSVPLG03,sg,20260504-164230,1.0.2,20251105-084826,837,Experiment,Both,1,Automatic,main,58,20260504-164805,local,local,750,H,H,A,E,A-H.png,E-H.png,hH,hH,mask-4.png,mask-4.png,h,1,1.1859489004127681,h,1,0.18223620019853115,0.04774630023166537,0.047716999892145395,0.10195680009201169,0.09992739977315068,0.7520643002353609
RSVPLG03,sg,20260504-164230,1.0.2,20251105-084826,837,Experiment,Both,1,Automatic,main,59,20260504-164810,global,local,300,S,S,E,A,S-E.png,A-S.png,sS,sS,mask-3.png,mask-1.png,s,1,1.1711876997724175,s,1,0.39641880011186004,0.047345499973744154,0.04685819987207651,0.09855900006368756,0.09970779996365309,0.30022010020911694
RSVPLG03,sg,20260504-164230,1.0.2,20251105-084826,837,Experiment,Both,1,Automatic,main,60,20260504-164816,global,global,750,H,H,A,E,H-A.png,H-E.png,hH,hH,mask-1.png,mask-4.png,h,1,0.7358542000874877,h,1,0.2349805999547243,0.047518199775367975,0.047247800044715405,0.09855700004845858,0.10061690025031567,0.7496743998490274
RSVPLG03,sg,20260504-164230,1.0.2,20251105-084826,837,Experiment,Both,1,Automatic,main,61,20260504-164821,global,global,750,H,S,E,A,H-E.png,S-A.png,hH,sS,mask-3.png,mask-3.png,h,1,0.9904122003354132,s,1,0.18314680038020015,0.047579600010067225,0.04839309956878424,0.09963710000738502,0.100356699898839,0.7502006003633142
RSVPLG03,sg,20260504-164230,1.0.2,20251105-084826,837,Experiment,Both,1,Automatic,main,62,20260504-164826,global,local,300,H,S,E,E,H-E.png,E-S.png,hH,sS,mask-2.png,mask-3.png,h,1,1.0149572002701461,s,1,0.1158845997415483,0.04674409981817007,0.04772110003978014,0.10001900000497699,0.1008215001784265,0.2990705999545753
RSVPLG03,sg,20260504-164230,1.0.2,20251105-084826,837,Experiment,Both,1,Automatic,main,63,20260504-164831,local,local,750,S,S,E,A,E-S.png,A-S.png,sS,sS,mask-2.png,mask-2.png,s,1,1.3062318000011146,h,0,0.11812900006771088,0.047995599918067455,0.047192000318318605,0.10125890001654625,0.10017810016870499,0.7534439996816218
RSVPLG03,sg,20260504-164230,1.0.2,20251105-084826,837,Experiment,Both,1,Automatic,main,64,20260504-164836,local,global,750,S,S,A,E,A-S.png,S-E.png,sS,sS,mask-1.png,mask-1.png,h,0,1.2595383003354073,s,1,0.3607318000867963,0.04759379988536239,0.04653820022940636,0.10163219971582294,0.09956490015611053,0.7527275998145342
RSVPLG03,sg,20260504-164230,1.0.2,20251105-084826,837,Experiment,Both,1,Automatic,main,65,20260504-164842,global,global,300,S,H,A,E,S-A.png,H-E.png,sS,hH,mask-3.png,mask-2.png,s,1,1.217544900253415,h,1,0.11963610025122762,0.047561199869960546,0.04751189984381199,0.09869629982858896,0.09956779982894659,0.30029030004516244
RSVPLG03,sg,20260504-164230,1.0.2,20251105-084826,837,Experiment,Both,1,Automatic,main,66,20260504-164847,global,global,750,H,H,A,A,H-A.png,H-A.png,hH,hH,mask-3.png,mask-2.png,h,1,0.4851993997581303,h,1,0.16905440017580986,0.04769300017505884,0.04685890022665262,0.09993290016427636,0.09986050007864833,0.7503619999624789
RSVPLG03,sg,20260504-164230,1.0.2,20251105-084826,837,Experiment,Both,1,Automatic,main,67,20260504-164852,local,global,750,S,S,A,E,A-S.png,S-E.png,sS,sS,mask-1.png,mask-3.png,h,0,2.1553719001822174,h,0,0.19892110023647547,0.04672029986977577,0.04773350013419986,0.09994359966367483,0.09971460001543164,0.7511047995649278
RSVPLG03,sg,20260504-164230,1.0.2,20251105-084826,837,Experiment,Both,1,Automatic,main,68,20260504-164858,global,local,300,S,S,A,A,S-A.png,A-S.png,sS,sS,mask-4.png,mask-4.png,s,1,1.8706119996495545,h,0,0.19403519993647933,0.04776629991829395,0.0467006997205317,0.1000481997616589,0.10079040005803108,0.3006601999513805
RSVPLG03,sg,20260504-164230,1.0.2,20251105-084826,837,Experiment,Both,1,Automatic,main,69,20260504-164904,global,local,300,S,S,E,E,S-E.png,E-S.png,sS,sS,mask-4.png,mask-2.png,s,1,1.3057496002875268,s,1,0.19643309991806746,0.04758650017902255,0.04768430022522807,0.09992699977010489,0.09976769983768463,0.3001542999409139
RSVPLG03,sg,20260504-164230,1.0.2,20251105-084826,837,Experiment,Both,1,Automatic,main,70,20260504-164909,local,global,300,H,H,A,E,A-H.png,H-E.png,hH,hH,mask-4.png,mask-3.png,h,1,1.1292069000191987,h,1,0.1692368001677096,0.0477891000919044,0.0485963998362422,0.09901659982278943,0.09984719986096025,0.2998107001185417
RSVPLG03,sg,20260504-164230,1.0.2,20251105-084826,837,Experiment,Both,1,Automatic,main,71,20260504-164914,local,global,300,H,S,A,E,A-H.png,S-E.png,hH,sS,mask-2.png,mask-4.png,h,1,1.2107915999367833,h,0,0.546422699932009,0.04694859962910414,0.04764680005609989,0.1000778996385634,0.10163530008867383,0.30055269971489906
RSVPLG03,sg,20260504-164230,1.0.2,20251105-084826,837,Experiment,Both,1,Automatic,main,72,20260504-164920,global,global,750,H,S,E,E,H-E.png,S-E.png,hH,sS,mask-2.png,mask-3.png,h,1,0.9068704000674188,s,1,0.16241269977763295,0.047536199912428856,0.04862779984250665,0.09956400003284216,0.10167459957301617,0.7501988001167774
RSVPLG03,sg,20260504-164230,1.0.2,20251105-084826,837,Experiment,Both,1,Automatic,main,73,20260504-164925,local,local,300,S,S,E,A,E-S.png,A-S.png,sS,sS,mask-3.png,mask-2.png,s,1,1.0376697001047432,h,0,0.322445800062269,0.04756650002673268,0.04755270015448332,0.09963809978216887,0.09989889990538359,0.30098909977823496
RSVPLG03,sg,20260504-164230,1.0.2,20251105-084826,837,Experiment,Both,1,Automatic,main,74,20260504-164930,local,global,300,H,H,E,A,E-H.png,H-A.png,hH,hH,mask-2.png,mask-2.png,h,1,1.31778210029006,h,1,0.14140179986134171,0.04665999999269843,0.04775300016626716,0.10076569998636842,0.10081230010837317,0.30039829993620515
RSVPLG03,sg,20260504-164230,1.0.2,20251105-084826,837,Experiment,Both,1,Automatic,main,75,20260504-164935,global,global,750,S,S,E,A,S-E.png,S-A.png,sS,sS,mask-4.png,mask-3.png,s,1,0.9891248997300863,s,1,0.15275050001218915,0.047678000293672085,0.04570360016077757,0.0992347002029419,0.09985170001164079,0.7524914001114666
RSVPLG03,sg,20260504-164230,1.0.2,20251105-084826,837,Experiment,Both,1,Automatic,main,76,20260504-164952,global,local,750,S,S,A,E,S-A.png,E-S.png,sS,sS,mask-4.png,mask-2.png,s,1,0.9359912998043001,h,0,0.31082719983533025,0.04653599997982383,0.046592400409281254,0.09857959998771548,0.09946260042488575,0.7509877998381853
RSVPLG03,sg,20260504-164230,1.0.2,20251105-084826,837,Experiment,Both,1,Automatic,main,77,20260504-164958,local,local,300,S,H,A,E,A-S.png,E-H.png,sS,hH,mask-1.png,mask-4.png,s,1,0.8846082002855837,s,0,0.1318749999627471,0.04859429970383644,0.04837390035390854,0.10008189966902137,0.10024660034105182,0.30009409971535206
RSVPLG03,sg,20260504-164230,1.0.2,20251105-084826,837,Experiment,Both,1,Automatic,main,78,20260504-165002,local,local,300,H,S,E,A,E-H.png,A-S.png,hH,sS,mask-3.png,mask-3.png,h,1,1.737278399989009,s,1,0.19650330021977425,0.04672610014677048,0.047735999803990126,0.10035620024427772,0.09942250000312924,0.3002073001116514
RSVPLG03,sg,20260504-164230,1.0.2,20251105-084826,837,Experiment,Both,1,Automatic,main,79,20260504-165008,local,global,750,H,S,E,E,E-H.png,S-E.png,hH,sS,mask-1.png,mask-2.png,h,1,0.7890342003665864,s,1,0.16698200022801757,0.046791600063443184,0.04753099987283349,0.0999230002053082,0.10043590003624558,0.7506820000708103
RSVPLG03,sg,20260504-164230,1.0.2,20251105-084826,837,Experiment,Both,1,Automatic,main,80,20260504-165013,local,local,750,S,S,E,E,E-S.png,E-S.png,sS,sS,mask-1.png,mask-4.png,s,1,0.9057880998589098,s,1,0.9512883997522295,0.04894729983061552,0.04856759961694479,0.1000025998800993,0.0997424996457994,0.7508431002497673
RSVPLG03,sg,20260504-164230,1.0.2,20251105-084826,837,Experiment,Both,1,Automatic,main,81,20260504-165019,global,local,750,H,S,A,A,H-A.png,A-S.png,hH,sS,mask-3.png,mask-3.png,h,1,1.0194023000076413,s,1,0.163782499730587,0.04752400005236268,0.04956480022519827,0.10059229983016849,0.10112810041755438,0.7507130997255445
RSVPLG03,sg,20260504-164230,1.0.2,20251105-084826,837,Experiment,Both,1,Automatic,main,82,20260504-165024,global,global,300,H,S,E,E,H-E.png,S-E.png,hH,sS,mask-2.png,mask-3.png,h,1,1.084511499851942,h,0,0.6370256999507546,0.047676799818873405,0.04866860015317798,0.10193509981036186,0.09992780024185777,0.30058779986575246
RSVPLG03,sg,20260504-164230,1.0.2,20251105-084826,837,Experiment,Both,1,Automatic,main,83,20260504-165030,global,global,300,H,H,A,A,H-A.png,H-A.png,hH,hH,mask-2.png,mask-3.png,h,1,0.5957296001724899,h,1,0.15036149974912405,0.04770920006558299,0.04649480013176799,0.09991269977763295,0.09815820027142763,0.30122669972479343
RSVPLG03,sg,20260504-164230,1.0.2,20251105-084826,837,Experiment,Both,1,Automatic,main,84,20260504-165034,local,global,750,H,S,A,A,A-H.png,S-A.png,hH,sS,mask-3.png,mask-3.png,h,1,0.8774556000716984,s,1,0.13519340008497238,0.04899979988113046,0.04753290023654699,0.10002660006284714,0.09963500034064054,0.7519243997521698
RSVPLG03,sg,20260504-164230,1.0.2,20251105-084826,837,Experiment,Both,1,Automatic,main,85,20260504-165040,global,global,750,S,H,E,E,S-E.png,H-E.png,sS,hH,mask-2.png,mask-1.png,s,1,0.9015938998199999,h,1,0.1513085002079606,0.04632280021905899,0.047648100182414055,0.10035230033099651,0.10072149988263845,0.7498332001268864
RSVPLG03,sg,20260504-164230,1.0.2,20251105-084826,837,Experiment,Both,1,Automatic,main,86,20260504-165045,global,local,750,H,S,E,A,H-E.png,A-S.png,hH,sS,mask-1.png,mask-2.png,h,1,0.9981904998421669,h,0,0.3233699002303183,0.04753029998391867,0.047533500008285046,0.0994803998619318,0.10062050027772784,0.7512107999064028
RSVPLG03,sg,20260504-164230,1.0.2,20251105-084826,837,Experiment,Both,1,Automatic,main,87,20260504-165050,local,local,750,H,H,E,A,E-H.png,A-H.png,hH,hH,mask-1.png,mask-4.png,h,1,0.7572484002448618,h,1,0.14050470013171434,0.04747769981622696,0.04669809993356466,0.09976609982550144,0.10087079973891377,0.7518635001033545
RSVPLG03,sg,20260504-164230,1.0.2,20251105-084826,837,Experiment,Both,1,Automatic,main,88,20260504-165055,local,local,300,S,S,E,E,E-S.png,E-S.png,sS,sS,mask-4.png,mask-3.png,s,1,0.7042087996378541,s,1,0.2821805998682976,0.04653790034353733,0.04756089998409152,0.09957890026271343,0.10145700024440885,0.2992773000150919
RSVPLG03,sg,20260504-164230,1.0.2,20251105-084826,837,Experiment,Both,1,Automatic,main,89,20260504-165100,local,local,750,S,S,E,A,E-S.png,A-S.png,sS,sS,mask-4.png,mask-2.png,s,1,0.6648232000879943,s,1,0.12514440016821027,0.04658490000292659,0.04642429994419217,0.09966999990865588,0.09872080013155937,0.7515239999629557
RSVPLG03,sg,20260504-164230,1.0.2,20251105-084826,837,Experiment,Both,1,Automatic,main,90,20260504-165105,global,local,300,S,H,A,A,S-A.png,A-H.png,sS,hH,mask-3.png,mask-2.png,s,1,1.3281881003640592,h,1,0.18140250025317073,0.048162300139665604,0.04744140012189746,0.1002786997705698,0.10023450013250113,0.3012860999442637
RSVPLG03,sg,20260504-164230,1.0.2,20251105-084826,837,Experiment,Both,1,Automatic,main,91,20260504-165110,local,local,750,S,H,A,E,A-S.png,E-H.png,sS,hH,mask-1.png,mask-1.png,s,1,0.9245143998414278,h,1,0.10031510004773736,0.04755489993840456,0.04754659999161959,0.10061399964615703,0.10155409993603826,0.7502385997213423
RSVPLG03,sg,20260504-164230,1.0.2,20251105-084826,837,Experiment,Both,1,Automatic,main,92,20260504-165115,local,global,750,S,H,E,A,E-S.png,H-A.png,sS,hH,mask-2.png,mask-1.png,s,1,0.6149502997286618,h,1,0.10760280024260283,0.04765519965440035,0.04758589994162321,0.09974600002169609,0.10047420021146536,0.7506181998178363
RSVPLG03,sg,20260504-164230,1.0.2,20251105-084826,837,Experiment,Both,1,Automatic,main,93,20260504-165120,local,local,300,H,S,A,E,A-H.png,E-S.png,hH,sS,mask-1.png,mask-2.png,h,1,0.8356576003134251,h,0,0.14943529991433024,0.04597410000860691,0.04650579998269677,0.09934090031310916,0.10033669974654913,0.3006243002600968
RSVPLG03,sg,20260504-164230,1.0.2,20251105-084826,837,Experiment,Both,1,Automatic,main,94,20260504-165125,global,global,750,H,S,A,E,H-A.png,S-E.png,hH,sS,mask-1.png,mask-2.png,h,1,0.5658636000007391,s,1,0.14695699978619814,0.0476389997638762,0.04746210016310215,0.0994616998359561,0.09859910001978278,0.7513743997551501
RSVPLG03,sg,20260504-164230,1.0.2,20251105-084826,837,Experiment,Both,1,Automatic,main,95,20260504-165130,global,local,300,H,S,E,A,H-E.png,A-S.png,hH,sS,mask-3.png,mask-3.png,h,1,1.2416166001930833,h,0,0.13529450027272105,0.04656609985977411,0.04659349983558059,0.0995622999034822,0.099093500059098,0.3006351999938488
RSVPLG03,sg,20260504-164230,1.0.2,20251105-084826,837,Experiment,Both,1,Automatic,main,96,20260504-165135,global,local,750,H,S,A,A,H-A.png,A-S.png,hH,sS,mask-4.png,mask-1.png,h,1,0.7280897996388376,s,1,0.09233839996159077,0.04885879997164011,0.047606199979782104,0.10174550022929907,0.10062489984557033,0.7526310002431273
RSVPLG03,sg,20260504-164230,1.0.2,20251105-084826,837,Experiment,Both,1,Automatic,main,97,20260504-165140,global,global,300,S,H,E,A,S-E.png,H-A.png,sS,hH,mask-4.png,mask-1.png,s,1,0.9101372002623975,h,1,0.18895980017259717,0.047510200180113316,0.04737369995564222,0.09935039980337024,0.10060379980131984,0.2994384001940489
RSVPLG03,sg,20260504-164230,1.0.2,20251105-084826,837,Experiment,Both,1,Automatic,main,98,20260504-165145,local,global,750,H,H,A,E,A-H.png,H-E.png,hH,hH,mask-2.png,mask-2.png,h,1,1.6430873000063002,h,1,0.12557350005954504,0.0467081000097096,0.04760529985651374,0.1001371000893414,0.10151409963145852,0.7499672002159059
RSVPLG03,sg,20260504-164230,1.0.2,20251105-084826,837,Experiment,Both,1,Automatic,main,99,20260504-165151,global,global,300,S,S,E,E,S-E.png,S-E.png,sS,sS,mask-1.png,mask-4.png,s,1,1.6176804001443088,h,0,0.13434859970584512,0.047367299906909466,0.04753399966284633,0.09940910013392568,0.10061269998550415,0.29976680036634207
RSVPLG03,sg,20260504-164230,1.0.2,20251105-084826,837,Experiment,Both,1,Automatic,main,100,20260504-165156,local,global,300,H,H,E,E,E-H.png,H-E.png,hH,hH,mask-4.png,mask-4.png,h,1,1.7968120998702943,s,0,0.33953729970380664,0.047678000293672085,0.04755929997190833,0.1001031999476254,0.10078320000320673,0.3016737001016736
RSVPLG03,sg,20260504-165235,1.0.2,20251105-084826,837,Experiment,Both,1,Automatic,warmup,1,20260504-165254,global,local,750,H,H,A,A,H-A.png,A-H.png,hH,hH,mask-3.png,mask-2.png,h,1,0.496575600001961,h,1,0.10396490013226867,0.040023899637162685,0.04765560012310743,0.0930379000492394,0.09982210025191307,0.7438249997794628
RSVPLG03,sg,20260504-165235,1.0.2,20251105-084826,837,Experiment,Both,1,Automatic,warmup,2,20260504-165259,local,local,750,S,H,E,A,E-S.png,A-H.png,sS,hH,mask-4.png,mask-1.png,s,1,0.37657970003783703,h,1,0.09216000000014901,0.04605160001665354,0.0477352999150753,0.0991376000456512,0.10089079989120364,0.7490777000784874
RSVPLG03,sg,20260504-165235,1.0.2,20251105-084826,837,Experiment,Both,1,Automatic,warmup,3,20260504-165304,local,global,750,H,S,E,E,E-H.png,S-E.png,hH,sS,mask-4.png,mask-4.png,h,1,1.40697759995237,s,1,0.31292690010741353,0.047536199912428856,0.04677170002833009,0.10055960016325116,0.10085730021819472,0.7500811000354588
RSVPLG03,sg,20260504-165235,1.0.2,20251105-084826,837,Experiment,Both,1,Automatic,warmup,4,20260504-165310,global,global,300,S,H,A,A,S-A.png,H-A.png,sS,hH,mask-3.png,mask-2.png,s,1,1.326531599741429,h,1,0.09653120022267103,0.047519400250166655,0.04751609964296222,0.09956349991261959,0.1007349998690188,0.29986600019037724
RSVPLG03,sg,20260504-165235,1.0.2,20251105-084826,837,Experiment,Both,1,Automatic,main,5,20260504-165315,local,global,750,S,S,A,A,A-S.png,S-A.png,sS,sS,mask-3.png,mask-3.png,s,1,0.8640053998678923,s,1,0.16644540010020137,0.049077400006353855,0.04725999990478158,0.10059629986062646,0.10026019997894764,0.7503212001174688
RSVPLG03,sg,20260504-165235,1.0.2,20251105-084826,837,Experiment,Both,1,Automatic,main,6,20260504-165320,local,global,750,H,S,E,E,E-H.png,S-E.png,hH,sS,mask-3.png,mask-2.png,h,1,1.7675246996805072,h,0,0.27864559972658753,0.04776090011000633,0.048533800058066845,0.09971759980544448,0.10039119981229305,0.7490511001087725
RSVPLG03,sg,20260504-165235,1.0.2,20251105-084826,837,Experiment,Both,1,Automatic,main,7,20260504-165326,global,global,300,H,H,A,E,H-A.png,H-E.png,hH,hH,mask-4.png,mask-3.png,h,1,0.6669648000970483,h,1,0.10632630018517375,0.04670230019837618,0.04772379994392395,0.09991240035742521,0.10191609989851713,0.2995600001886487
RSVPLG03,sg,20260504-165235,1.0.2,20251105-084826,837,Experiment,Both,1,Automatic,main,8,20260504-165331,global,local,750,S,S,A,A,S-A.png,A-S.png,sS,sS,mask-2.png,mask-1.png,s,1,1.2577079003676772,s,1,0.2562315003015101,0.04687339998781681,0.047659500036388636,0.10015679989010096,0.09984420007094741,0.7506224000826478
RSVPLG03,sg,20260504-165235,1.0.2,20251105-084826,837,Experiment,Both,1,Automatic,main,9,20260504-165336,local,global,750,S,H,E,E,E-S.png,H-E.png,sS,hH,mask-3.png,mask-4.png,s,1,2.055773299653083,h,1,0.3963772002607584,0.04848849959671497,0.047507999930530787,0.10184589959681034,0.0996960997581482,0.7520202999003232
RSVPLG03,sg,20260504-165235,1.0.2,20251105-084826,837,Experiment,Both,1,Automatic,main,10,20260504-165343,global,local,300,S,S,E,A,S-E.png,A-S.png,sS,sS,mask-3.png,mask-3.png,s,1,0.8717718999832869,h,0,0.08754289988428354,0.04774319985881448,0.04669370036572218,0.10000350000336766,0.09994370024651289,0.3005360998213291
RSVPLG03,sg,20260504-165235,1.0.2,20251105-084826,837,Experiment,Both,1,Automatic,main,11,20260504-165347,global,global,750,S,H,E,A,S-E.png,H-A.png,sS,hH,mask-4.png,mask-1.png,s,1,0.6329564996995032,h,1,0.45215460006147623,0.04769499972462654,0.04770050011575222,0.09993920009583235,0.09994550002738833,0.749961799941957
RSVPLG03,sg,20260504-165235,1.0.2,20251105-084826,837,Experiment,Both,1,Automatic,main,12,20260504-165353,global,local,750,S,H,E,E,S-E.png,E-H.png,sS,hH,mask-1.png,mask-4.png,s,1,0.9712037001736462,h,1,0.08418209990486503,0.04709979984909296,0.047306499909609556,0.10022820020094514,0.10047269985079765,0.7497748001478612
RSVPLG03,sg,20260504-165235,1.0.2,20251105-084826,837,Experiment,Both,1,Automatic,main,13,20260504-165358,local,local,750,S,S,E,A,E-S.png,A-S.png,sS,sS,mask-4.png,mask-1.png,s,1,0.6509802001528442,s,1,0.6024467996321619,0.04882320016622543,0.04783450020477176,0.10107289999723434,0.10041860025376081,0.7503460999578238
RSVPLG03,sg,20260504-165235,1.0.2,20251105-084826,837,Experiment,Both,1,Automatic,main,14,20260504-165403,global,global,750,S,S,E,E,S-E.png,S-E.png,sS,sS,mask-2.png,mask-3.png,s,1,0.6678631003014743,s,1,0.1347529999911785,0.048715200275182724,0.046711199916899204,0.10092320013791323,0.0989109999500215,0.7512622000649571
RSVPLG03,sg,20260504-165235,1.0.2,20251105-084826,837,Experiment,Both,1,Automatic,main,15,20260504-165408,global,global,750,H,S,E,A,H-E.png,S-A.png,hH,sS,mask-1.png,mask-3.png,s,0,0.6103674997575581,h,0,0.11526630027219653,0.047710100188851357,0.04752059979364276,0.09981410019099712,0.10053610010072589,0.7510214000940323
RSVPLG03,sg,20260504-165235,1.0.2,20251105-084826,837,Experiment,Both,1,Automatic,main,16,20260504-165413,global,global,300,S,H,E,E,S-E.png,H-E.png,sS,hH,mask-3.png,mask-3.png,s,1,1.58036720007658,s,0,0.1878069001249969,0.04770940029993653,0.04755220003426075,0.09890840016305447,0.10057060001417994,0.2993947002105415
RSVPLG03,sg,20260504-165235,1.0.2,20251105-084826,837,Experiment,Both,1,Automatic,main,17,20260504-165419,global,global,750,S,H,E,E,S-E.png,H-E.png,sS,hH,mask-1.png,mask-3.png,s,1,0.8842388996854424,h,1,0.027503800112754107,0.04758029989898205,0.04750450002029538,0.09961909987032413,0.09952559974044561,0.7516120001673698
RSVPLG03,sg,20260504-165235,1.0.2,20251105-084826,837,Experiment,Both,1,Automatic,main,18,20260504-165424,local,global,300,S,H,A,E,A-S.png,H-E.png,sS,hH,mask-1.png,mask-4.png,s,1,1.3847793000750244,h,1,0.09279359970241785,0.0476108998991549,0.047625099774450064,0.09973359992727637,0.10068179992958903,0.2995195002295077
RSVPLG03,sg,20260504-165235,1.0.2,20251105-084826,837,Experiment,Both,1,Automatic,main,19,20260504-165429,local,local,750,S,S,E,E,E-S.png,E-S.png,sS,sS,mask-4.png,mask-1.png,s,1,1.2670393995940685,s,1,0.11294019967317581,0.04760639974847436,0.047534100245684385,0.101683400105685,0.09946910012513399,0.7518159998580813
RSVPLG03,sg,20260504-165235,1.0.2,20251105-084826,837,Experiment,Both,1,Automatic,main,20,20260504-165434,global,global,300,S,H,E,A,S-E.png,H-A.png,sS,hH,mask-1.png,mask-2.png,s,1,1.012174699921161,h,1,0.5453765001147985,0.046755699906498194,0.047727900091558695,0.10016300017014146,0.09996140003204346,0.2999932998791337
RSVPLG03,sg,20260504-165235,1.0.2,20251105-084826,837,Experiment,Both,1,Automatic,main,21,20260504-165440,global,local,750,H,S,A,E,H-A.png,E-S.png,hH,sS,mask-2.png,mask-1.png,h,1,0.8088798001408577,s,1,0.16521989973261952,0.047628500033169985,0.0476452000439167,0.09970040014013648,0.10069370036944747,0.7499891999177635
RSVPLG03,sg,20260504-165235,1.0.2,20251105-084826,837,Experiment,Both,1,Automatic,main,22,20260504-165445,global,global,750,H,H,A,A,H-A.png,H-A.png,hH,hH,mask-1.png,mask-2.png,h,1,0.6850664997473359,h,1,0.10771789960563183,0.04751509986817837,0.045727099757641554,0.10052249999716878,0.09984799986705184,0.7510514999739826
RSVPLG03,sg,20260504-165235,1.0.2,20251105-084826,837,Experiment,Both,1,Automatic,main,23,20260504-165450,global,local,750,S,H,A,E,S-A.png,E-H.png,sS,hH,mask-1.png,mask-1.png,s,1,1.563664499670267,h,1,0.09889770019799471,0.04697379982098937,0.04769570007920265,0.0991504997946322,0.1009525996632874,0.7493030000478029
RSVPLG03,sg,20260504-165235,1.0.2,20251105-084826,837,Experiment,Both,1,Automatic,main,24,20260504-165456,global,local,750,S,S,E,A,S-E.png,A-S.png,sS,sS,mask-1.png,mask-4.png,s,1,1.2613025000318885,s,1,0.10347829991951585,0.046899700071662664,0.046867100056260824,0.09998550033196807,0.0989067000336945,0.7518230001442134
RSVPLG03,sg,20260504-165235,1.0.2,20251105-084826,837,Experiment,Both,1,Automatic,main,25,20260504-165501,global,local,300,H,H,E,A,H-E.png,A-H.png,hH,hH,mask-4.png,mask-4.png,h,1,1.160949300043285,h,1,0.09704010002315044,0.04705959977582097,0.04920409992337227,0.10035449964925647,0.10040079988539219,0.29981719981878996
RSVPLG03,sg,20260504-165235,1.0.2,20251105-084826,837,Experiment,Both,1,Automatic,main,26,20260504-165513,local,global,750,S,S,E,A,E-S.png,S-A.png,sS,sS,mask-4.png,mask-2.png,s,1,0.4977919002994895,s,1,0.27686179988086224,0.048650499898940325,0.048038399778306484,0.09988709958270192,0.10106629971414804,0.7509842999279499
RSVPLG03,sg,20260504-165235,1.0.2,20251105-084826,837,Experiment,Both,1,Automatic,main,27,20260504-165518,local,global,300,H,S,A,A,A-H.png,S-A.png,hH,sS,mask-4.png,mask-3.png,h,1,0.8764666002243757,h,0,0.11453420016914606,0.04679570021107793,0.046850299928337336,0.09834180027246475,0.09968090010806918,0.29986870009452105
RSVPLG03,sg,20260504-165235,1.0.2,20251105-084826,837,Experiment,Both,1,Automatic,main,28,20260504-165523,local,local,300,H,H,A,E,A-H.png,E-H.png,hH,hH,mask-1.png,mask-1.png,h,1,1.413818100001663,h,1,0.1295334999449551,0.04854559991508722,0.047540499828755856,0.10218719998374581,0.10088500007987022,0.30041590007022023
RSVPLG03,sg,20260504-165235,1.0.2,20251105-084826,837,Experiment,Both,1,Automatic,main,29,20260504-165528,local,local,750,S,H,E,E,E-S.png,E-H.png,sS,hH,mask-3.png,mask-2.png,s,1,1.0271291001699865,h,1,0.011360599659383297,0.0475870999507606,0.046333699952811,0.09977519977837801,0.0999206998385489,0.7503567999228835
RSVPLG03,sg,20260504-165235,1.0.2,20251105-084826,837,Experiment,Both,1,Automatic,main,30,20260504-165533,global,local,750,H,S,E,E,H-E.png,E-S.png,hH,sS,mask-1.png,mask-4.png,h,1,1.3031513998284936,s,1,0.08442760026082397,0.04796930029988289,0.04774540010839701,0.10023150034248829,0.0993786002509296,0.7510621999390423
RSVPLG03,sg,20260504-165235,1.0.2,20251105-084826,837,Experiment,Both,1,Automatic,main,31,20260504-165539,local,global,300,H,H,A,A,A-H.png,H-A.png,hH,hH,mask-1.png,mask-3.png,h,1,1.323307900223881,h,1,0.13874500012025237,0.04739410011097789,0.047489500138908625,0.10139389988034964,0.0999936000443995,0.30047360016033053
RSVPLG03,sg,20260504-165235,1.0.2,20251105-084826,837,Experiment,Both,1,Automatic,main,32,20260504-165544,global,global,750,S,S,A,A,S-A.png,S-A.png,sS,sS,mask-2.png,mask-2.png,s,1,0.9190146997570992,s,1,0.12450739974156022,0.047174999956041574,0.047282599844038486,0.09891089983284473,0.09927779994904995,0.7501010000705719
RSVPLG03,sg,20260504-165235,1.0.2,20251105-084826,837,Experiment,Both,1,Automatic,main,33,20260504-165549,local,local,750,H,H,E,E,E-H.png,E-H.png,hH,hH,mask-1.png,mask-3.png,h,1,0.7324955002404749,h,1,0.11735199997201562,0.048995899967849255,0.048607700038701296,0.1021572002209723,0.10075900005176663,0.7515429998748004
RSVPLG03,sg,20260504-165235,1.0.2,20251105-084826,837,Experiment,Both,1,Automatic,main,34,20260504-165554,local,global,300,S,H,E,E,E-S.png,H-E.png,sS,hH,mask-3.png,mask-2.png,s,1,1.3146943002939224,h,1,0.055356199853122234,0.04717200016602874,0.04745790036395192,0.0991835999302566,0.10076830023899674,0.29958629980683327
RSVPLG03,sg,20260504-165235,1.0.2,20251105-084826,837,Experiment,Both,1,Automatic,main,35,20260504-165559,global,local,750,S,H,E,E,S-E.png,E-H.png,sS,hH,mask-4.png,mask-4.png,s,1,1.211444899905473,h,1,0.027699700091034174,0.04744949983432889,0.048532800283282995,0.09983009984716773,0.10155990021303296,0.7508512996137142
RSVPLG03,sg,20260504-165235,1.0.2,20251105-084826,837,Experiment,Both,1,Automatic,main,36,20260504-165605,local,local,300,H,H,E,E,E-H.png,E-H.png,hH,hH,mask-1.png,mask-3.png,h,1,0.6699897996149957,h,1,0.12424280028790236,0.04849549988284707,0.04723479971289635,0.10051300004124641,0.10003949981182814,0.3004105002619326
RSVPLG03,sg,20260504-165235,1.0.2,20251105-084826,837,Experiment,Both,1,Automatic,main,37,20260504-165609,local,local,300,S,S,E,A,E-S.png,A-S.png,sS,sS,mask-3.png,mask-3.png,s,1,0.7071445002220571,s,1,0.1675520003773272,0.04791339999064803,0.04699729988351464,0.10111070005223155,0.10108639998361468,0.30075519997626543
RSVPLG03,sg,20260504-165235,1.0.2,20251105-084826,837,Experiment,Both,1,Automatic,main,38,20260504-165614,global,local,750,S,H,E,E,S-E.png,E-H.png,sS,hH,mask-4.png,mask-2.png,s,1,0.9760718997567892,h,1,0.08571489993482828,0.047522599808871746,0.04751039994880557,0.10052049998193979,0.10048429993912578,0.7500851997174323
RSVPLG03,sg,20260504-165235,1.0.2,20251105-084826,837,Experiment,Both,1,Automatic,main,39,20260504-165619,global,global,300,S,H,A,A,S-A.png,H-A.png,sS,hH,mask-2.png,mask-4.png,s,1,1.3430884000845253,h,1,0.10418270016089082,0.04749510018154979,0.04770050011575222,0.10024910001084208,0.10192340007051826,0.3003247999586165
RSVPLG03,sg,20260504-165235,1.0.2,20251105-084826,837,Experiment,Both,1,Automatic,main,40,20260504-165624,local,local,750,S,S,E,E,E-S.png,E-S.png,sS,sS,mask-2.png,mask-4.png,s,1,0.5649797995574772,s,1,0.13785739988088608,0.047743699979037046,0.04755039978772402,0.09994830004870892,0.10145359998568892,0.7489272002130747
RSVPLG03,sg,20260504-165235,1.0.2,20251105-084826,837,Experiment,Both,1,Automatic,main,41,20260504-165629,global,local,300,H,S,E,A,H-E.png,A-S.png,hH,sS,mask-2.png,mask-3.png,h,1,0.9671829999424517,h,0,0.16874179989099503,0.04646820016205311,0.04654920008033514,0.10051040025427938,0.09937260020524263,0.3015316999517381
RSVPLG03,sg,20260504-165235,1.0.2,20251105-084826,837,Experiment,Both,1,Automatic,main,42,20260504-165634,local,local,300,S,H,A,E,A-S.png,E-H.png,sS,hH,mask-2.png,mask-4.png,s,1,1.012977599631995,h,1,0.08656820002943277,0.04806039994582534,0.046209999825805426,0.09948639990761876,0.09882359998300672,0.30100360000506043
RSVPLG03,sg,20260504-165235,1.0.2,20251105-084826,837,Experiment,Both,1,Automatic,main,43,20260504-165638,local,local,750,S,H,A,A,A-S.png,A-H.png,sS,hH,mask-1.png,mask-2.png,s,1,0.6505823000334203,h,1,0.05142050003632903,0.04771599965170026,0.048479500226676464,0.09999840008094907,0.10096979979425669,0.7488938998430967
RSVPLG03,sg,20260504-165235,1.0.2,20251105-084826,837,Experiment,Both,1,Automatic,main,44,20260504-165643,global,local,300,S,H,A,E,S-A.png,E-H.png,sS,hH,mask-4.png,mask-1.png,s,1,0.9313757997006178,s,0,0.15329889999702573,0.047503499779850245,0.04752440005540848,0.10152459982782602,0.09955180017277598,0.30189849995076656
RSVPLG03,sg,20260504-165235,1.0.2,20251105-084826,837,Experiment,Both,1,Automatic,main,45,20260504-165648,global,local,300,H,S,A,E,H-A.png,E-S.png,hH,sS,mask-4.png,mask-3.png,h,1,1.937035399954766,s,1,0.11650380026549101,0.04703499982133508,0.047433999832719564,0.09907339978963137,0.10041650012135506,0.2996117998845875
RSVPLG03,sg,20260504-165235,1.0.2,20251105-084826,837,Experiment,Both,1,Automatic,main,46,20260504-165654,global,local,750,H,H,E,A,H-E.png,A-H.png,hH,hH,mask-3.png,mask-4.png,h,1,0.4727660999633372,h,1,0.13448530016466975,0.04604570008814335,0.04857800016179681,0.10006710002198815,0.10162479989230633,0.7485489998944104
RSVPLG03,sg,20260504-165235,1.0.2,20251105-084826,837,Experiment,Both,1,Automatic,main,47,20260504-165658,global,local,300,H,H,A,E,H-A.png,E-H.png,hH,hH,mask-4.png,mask-1.png,h,1,0.7815555999986827,s,0,0.26855859998613596,0.04749300004914403,0.04857969982549548,0.10154520021751523,0.10247049992904067,0.2992555000819266
RSVPLG03,sg,20260504-165235,1.0.2,20251105-084826,837,Experiment,Both,1,Automatic,main,48,20260504-165703,global,local,300,H,H,E,E,H-E.png,E-H.png,hH,hH,mask-1.png,mask-3.png,h,1,0.9736307999119163,s,0,0.07114779995754361,0.04672289965674281,0.046563999727368355,0.09829419991001487,0.09966199984773993,0.30047859996557236
RSVPLG03,sg,20260504-165235,1.0.2,20251105-084826,837,Experiment,Both,1,Automatic,main,49,20260504-165708,local,global,300,S,S,E,A,E-S.png,S-A.png,sS,sS,mask-3.png,mask-3.png,s,1,0.9085507001727819,s,1,0.20323959970846772,0.04756530001759529,0.047098000068217516,0.09964019991457462,0.10013779997825623,0.300023399759084
RSVPLG03,sg,20260504-165235,1.0.2,20251105-084826,837,Experiment,Both,1,Automatic,main,50,20260504-165713,global,local,300,S,H,A,E,S-A.png,E-H.png,sS,hH,mask-4.png,mask-2.png,s,1,0.8115588999353349,s,0,0.12923610024154186,0.04752850020304322,0.047545399982482195,0.1005680002272129,0.10057990020141006,0.2998306998051703
RSVPLG03,sg,20260504-165235,1.0.2,20251105-084826,837,Experiment,Both,1,Automatic,main,51,20260504-165727,global,local,750,H,S,A,E,H-A.png,E-S.png,hH,sS,mask-3.png,mask-1.png,h,1,1.2662868998013437,s,1,0.5673567000776529,0.048582599963992834,0.04821800021454692,0.10082500008866191,0.09959980007261038,0.7506880001164973
RSVPLG03,sg,20260504-165235,1.0.2,20251105-084826,837,Experiment,Both,1,Automatic,main,52,20260504-165733,global,global,300,S,H,A,A,S-A.png,H-A.png,sS,hH,mask-2.png,mask-4.png,h,0,1.0841724001802504,s,0,0.09718309994786978,0.04824530007317662,0.04767780005931854,0.10067229997366667,0.09953680029138923,0.3016643999144435
RSVPLG03,sg,20260504-165235,1.0.2,20251105-084826,837,Experiment,Both,1,Automatic,main,53,20260504-165738,local,global,750,S,H,A,E,A-S.png,H-E.png,sS,hH,mask-1.png,mask-2.png,s,1,0.43353400006890297,h,1,0.11757209990173578,0.04674950009211898,0.046625399962067604,0.10002130037173629,0.09986860025674105,0.7504785000346601
RSVPLG03,sg,20260504-165235,1.0.2,20251105-084826,837,Experiment,Both,1,Automatic,main,54,20260504-165742,global,global,300,H,S,A,A,H-A.png,S-A.png,hH,sS,mask-3.png,mask-3.png,h,1,0.8781615002080798,h,0,0.2139677000232041,0.047437400091439486,0.047681200318038464,0.09853210020810366,0.10092410026118159,0.2994499998167157
RSVPLG03,sg,20260504-165235,1.0.2,20251105-084826,837,Experiment,Both,1,Automatic,main,55,20260504-165747,local,local,750,H,H,E,E,E-H.png,E-H.png,hH,hH,mask-2.png,mask-4.png,h,1,0.5731927999295294,h,1,0.1457809996791184,0.047542199958115816,0.04756389977410436,0.09960449999198318,0.10058650001883507,0.7498892000876367
RSVPLG03,sg,20260504-165235,1.0.2,20251105-084826,837,Experiment,Both,1,Automatic,main,56,20260504-165752,local,local,750,H,S,A,A,A-H.png,A-S.png,hH,sS,mask-4.png,mask-1.png,h,1,0.6801030999049544,s,1,0.153279900085181,0.04854149976745248,0.04753739992156625,0.10058119986206293,0.09955399995669723,0.7507946998812258
RSVPLG03,sg,20260504-165235,1.0.2,20251105-084826,837,Experiment,Both,1,Automatic,main,57,20260504-165757,local,global,300,S,H,A,A,A-S.png,H-A.png,sS,hH,mask-1.png,mask-2.png,s,1,0.5531214000657201,s,0,0.29694069968536496,0.04743059957399964,0.047372099943459034,0.10039989976212382,0.09979100013151765,0.3006024998612702
RSVPLG03,sg,20260504-165235,1.0.2,20251105-084826,837,Experiment,Both,1,Automatic,main,58,20260504-165802,local,global,750,H,S,E,A,E-H.png,S-A.png,hH,sS,mask-3.png,mask-1.png,s,0,1.853966400027275,h,0,1.2603372000157833,0.04752489970996976,0.04850299982354045,0.10053690010681748,0.10153080010786653,0.7505590999498963
RSVPLG03,sg,20260504-165235,1.0.2,20251105-084826,837,Experiment,Both,1,Automatic,main,59,20260504-165809,local,global,300,S,S,E,A,E-S.png,S-A.png,sS,sS,mask-1.png,mask-1.png,s,1,0.8561726002953947,h,0,0.0706194001249969,0.048672799952328205,0.047569300048053265,0.10012849979102612,0.09952410031110048,0.3015509997494519
RSVPLG03,sg,20260504-165235,1.0.2,20251105-084826,837,Experiment,Both,1,Automatic,main,60,20260504-165814,local,local,300,H,S,E,A,E-H.png,A-S.png,hH,sS,mask-2.png,mask-2.png,h,1,0.9750485997647047,h,0,0.12035059975460172,0.04652349976822734,0.047555599827319384,0.10029209963977337,0.10116929979994893,0.2999153998680413
RSVPLG03,sg,20260504-165235,1.0.2,20251105-084826,837,Experiment,Both,1,Automatic,main,61,20260504-165818,local,local,300,S,H,A,A,A-S.png,A-H.png,sS,hH,mask-4.png,mask-1.png,s,1,0.8393745999783278,h,1,0.07670200010761619,0.04769330006092787,0.04770699981600046,0.09991439990699291,0.09991109976544976,0.29955870006233454
RSVPLG03,sg,20260504-165235,1.0.2,20251105-084826,837,Experiment,Both,1,Automatic,main,62,20260504-165823,global,global,300,H,S,A,A,H-A.png,S-A.png,hH,sS,mask-3.png,mask-3.png,h,1,0.9113189000636339,h,0,0.16439660033211112,0.04771840013563633,0.048718299716711044,0.09993960009887815,0.10092120012268424,0.2987652001902461
RSVPLG03,sg,20260504-165235,1.0.2,20251105-084826,837,Experiment,Both,1,Automatic,main,63,20260504-165828,local,local,750,S,H,E,E,E-S.png,E-H.png,sS,hH,mask-3.png,mask-4.png,s,1,0.9086483996361494,h,1,0.052523599937558174,0.04763909988105297,0.047719699796289206,0.10076089994981885,0.09997429978102446,0.7505744998343289
RSVPLG03,sg,20260504-165235,1.0.2,20251105-084826,837,Experiment,Both,1,Automatic,main,64,20260504-165833,local,local,300,H,S,E,E,E-H.png,E-S.png,hH,sS,mask-1.png,mask-3.png,h,1,0.7081817998550832,s,1,0.1129530998878181,0.0475726998411119,0.04851610027253628,0.09994579991325736,0.10059530008584261,0.29919359972700477
RSVPLG03,sg,20260504-165235,1.0.2,20251105-084826,837,Experiment,Both,1,Automatic,main,65,20260504-165837,local,global,300,H,H,E,A,E-H.png,H-A.png,hH,hH,mask-1.png,mask-3.png,h,1,0.6504228999838233,h,1,0.12409149995073676,0.047529200091958046,0.0475130002014339,0.09956470038741827,0.09958110004663467,0.2998337000608444
RSVPLG03,sg,20260504-165235,1.0.2,20251105-084826,837,Experiment,Both,1,Automatic,main,66,20260504-165842,local,global,750,H,S,E,E,E-H.png,S-E.png,hH,sS,mask-4.png,mask-1.png,h,1,0.9395582997240126,s,1,0.13986200001090765,0.0475403000600636,0.047564900014549494,0.10057049989700317,0.10152280004695058,0.750256999861449
RSVPLG03,sg,20260504-165235,1.0.2,20251105-084826,837,Experiment,Both,1,Automatic,main,67,20260504-165847,local,local,750,H,S,A,A,A-H.png,A-S.png,hH,sS,mask-4.png,mask-1.png,h,1,1.111457500141114,s,1,0.1337847001850605,0.047516700346022844,0.04754259996116161,0.09961159992963076,0.1008500000461936,0.7492435001768172
RSVPLG03,sg,20260504-165235,1.0.2,20251105-084826,837,Experiment,Both,1,Automatic,main,68,20260504-165852,global,global,300,H,S,A,E,H-A.png,S-E.png,hH,sS,mask-1.png,mask-4.png,h,1,0.5228945999406278,s,1,0.10144839994609356,0.04757549986243248,0.04671919997781515,0.09972279984503984,0.09893689956516027,0.30030940007418394
RSVPLG03,sg,20260504-165235,1.0.2,20251105-084826,837,Experiment,Both,1,Automatic,main,69,20260504-165857,local,local,300,S,S,E,E,E-S.png,E-S.png,sS,sS,mask-4.png,mask-4.png,s,1,1.1800887999124825,s,1,0.15590199967846274,0.04649430001154542,0.047636100091040134,0.09846040001139045,0.09966569999232888,0.3004242996685207
RSVPLG03,sg,20260504-165235,1.0.2,20251105-084826,837,Experiment,Both,1,Automatic,main,70,20260504-165902,local,local,300,S,S,A,E,A-S.png,E-S.png,sS,sS,mask-1.png,mask-4.png,s,1,0.4494828996248543,s,1,0.14985419996082783,0.0465084002353251,0.04650009982287884,0.09954340010881424,0.09966300008818507,0.3000409002415836
RSVPLG03,sg,20260504-165235,1.0.2,20251105-084826,837,Experiment,Both,1,Automatic,main,71,20260504-165906,global,global,300,H,S,E,E,H-E.png,S-E.png,hH,sS,mask-3.png,mask-1.png,h,1,1.1117251999676228,s,1,0.10841070022433996,0.046728599816560745,0.04713829979300499,0.09992199996486306,0.09997739968821406,0.29949350003153086
RSVPLG03,sg,20260504-165235,1.0.2,20251105-084826,837,Experiment,Both,1,Automatic,main,72,20260504-165911,local,global,750,S,H,E,A,E-S.png,H-A.png,sS,hH,mask-1.png,mask-1.png,s,1,1.1645189998671412,h,1,0.08888490032404661,0.04755489993840456,0.047564900014549494,0.09936279989778996,0.10062130028381944,0.7499724999070168
RSVPLG03,sg,20260504-165235,1.0.2,20251105-084826,837,Experiment,Both,1,Automatic,main,73,20260504-165916,global,global,750,H,H,E,A,H-E.png,H-A.png,hH,hH,mask-1.png,mask-1.png,h,1,0.4618274997919798,h,1,0.12301839981228113,0.0481904000043869,0.04655519966036081,0.10146889975294471,0.09985949983820319,0.7508115000091493
RSVPLG03,sg,20260504-165235,1.0.2,20251105-084826,837,Experiment,Both,1,Automatic,main,74,20260504-165921,global,local,750,H,H,E,A,H-E.png,A-H.png,hH,hH,mask-3.png,mask-4.png,h,1,0.4918411998078227,h,1,0.1260092998854816,0.04774569999426603,0.04793189978227019,0.10087400022894144,0.10015489999204874,0.7505482002161443
RSVPLG03,sg,20260504-165235,1.0.2,20251105-084826,837,Experiment,Both,1,Automatic,main,75,20260504-165926,global,local,300,H,H,E,E,H-E.png,E-H.png,hH,hH,mask-3.png,mask-2.png,h,1,0.6447537001222372,h,1,0.2824257998727262,0.04759229999035597,0.04855669988319278,0.09858530014753342,0.100660499650985,0.29907160019502044
RSVPLG03,sg,20260504-165235,1.0.2,20251105-084826,837,Experiment,Both,1,Automatic,main,76,20260504-165936,local,local,300,S,S,A,E,A-S.png,E-S.png,sS,sS,mask-3.png,mask-3.png,s,1,0.4666702002286911,s,1,0.08630519965663552,0.04768750024959445,0.04756359988823533,0.09975080005824566,0.09963589999824762,0.3001278000883758
RSVPLG03,sg,20260504-165235,1.0.2,20251105-084826,837,Experiment,Both,1,Automatic,main,77,20260504-165940,local,global,300,H,H,A,E,A-H.png,H-E.png,hH,hH,mask-4.png,mask-2.png,s,0,0.7308164001442492,h,1,0.4924055999144912,0.04716090019792318,0.04762739967554808,0.10005420027300715,0.09965030010789633,0.30021690018475056
RSVPLG03,sg,20260504-165235,1.0.2,20251105-084826,837,Experiment,Both,1,Automatic,main,78,20260504-165945,global,global,300,H,H,A,A,H-A.png,H-A.png,hH,hH,mask-2.png,mask-2.png,h,1,0.4227450001053512,h,1,0.10370759991928935,0.04684079997241497,0.04759379988536239,0.09999899985268712,0.0987117001786828,0.3014178997837007
RSVPLG03,sg,20260504-165235,1.0.2,20251105-084826,837,Experiment,Both,1,Automatic,main,79,20260504-165949,local,global,300,H,S,E,A,E-H.png,S-A.png,hH,sS,mask-3.png,mask-1.png,h,1,1.110152999870479,h,0,0.13192979991436005,0.047572100069373846,0.046383699867874384,0.09866710007190704,0.10033670021221042,0.29994119983166456
RSVPLG03,sg,20260504-165235,1.0.2,20251105-084826,837,Experiment,Both,1,Automatic,main,80,20260504-165954,local,local,300,S,H,A,A,A-S.png,A-H.png,sS,hH,mask-3.png,mask-1.png,s,1,0.9676911002025008,h,1,0.13090679980814457,0.047532400116324425,0.047296599950641394,0.09967590030282736,0.09946579998359084,0.2993791000917554
RSVPLG03,sg,20260504-165235,1.0.2,20251105-084826,837,Experiment,Both,1,Automatic,main,81,20260504-165959,global,global,300,S,H,A,A,S-A.png,H-A.png,sS,hH,mask-2.png,mask-2.png,s,1,0.8437721999362111,s,0,1.495589999947697,0.046872599981725216,0.04689599992707372,0.10009469976648688,0.09956089965999126,0.29973069997504354
RSVPLG03,sg,20260504-165235,1.0.2,20251105-084826,837,Experiment,Both,1,Automatic,main,82,20260504-170005,global,local,300,S,S,E,A,S-E.png,A-S.png,sS,sS,mask-3.png,mask-1.png,s,1,1.0193346999585629,h,0,0.07455640006810427,0.04694889998063445,0.04755479982122779,0.10000499989837408,0.09967959998175502,0.3006438002921641
RSVPLG03,sg,20260504-165235,1.0.2,20251105-084826,837,Experiment,Both,1,Automatic,main,83,20260504-170010,local,local,300,S,S,E,E,E-S.png,E-S.png,sS,sS,mask-3.png,mask-1.png,s,1,0.9600804001092911,h,0,0.07613789988681674,0.04863979993388057,0.04671789985150099,0.09989430010318756,0.0989156998693943,0.3014425002038479
RSVPLG03,sg,20260504-165235,1.0.2,20251105-084826,837,Experiment,Both,1,Automatic,main,84,20260504-170014,global,local,750,H,H,E,E,H-E.png,E-H.png,hH,hH,mask-3.png,mask-1.png,h,1,1.1021675001829863,h,1,0.15592249995097518,0.04843290010467172,0.04750810004770756,0.10074920020997524,0.09957859991118312,0.7509588003158569
RSVPLG03,sg,20260504-165235,1.0.2,20251105-084826,837,Experiment,Both,1,Automatic,main,85,20260504-170020,local,local,750,S,S,E,E,E-S.png,E-S.png,sS,sS,mask-3.png,mask-4.png,s,1,0.8249613996595144,s,1,0.12910680007189512,0.047735500149428844,0.04685819987207651,0.0999074000865221,0.09932359959930182,0.7519850004464388
RSVPLG03,sg,20260504-165235,1.0.2,20251105-084826,837,Experiment,Both,1,Automatic,main,86,20260504-170025,global,global,300,H,H,E,E,H-E.png,H-E.png,hH,hH,mask-3.png,mask-1.png,h,1,0.8812494999729097,h,1,0.580659500323236,0.047558299731463194,0.048628199845552444,0.09940199973061681,0.1006195000372827,0.299167700111866
RSVPLG03,sg,20260504-165235,1.0.2,20251105-084826,837,Experiment,Both,1,Automatic,main,87,20260504-170030,global,global,750,H,S,A,A,H-A.png,S-A.png,hH,sS,mask-3.png,mask-2.png,h,1,1.4456433998420835,h,0,0.2683641999028623,0.046629699878394604,0.0477594998665154,0.09969659987837076,0.10003519989550114,0.7483303998596966
RSVPLG03,sg,20260504-165235,1.0.2,20251105-084826,837,Experiment,Both,1,Automatic,main,88,20260504-170036,local,local,750,H,H,A,A,A-H.png,A-H.png,hH,hH,mask-1.png,mask-1.png,h,1,0.6272315001115203,h,1,0.12877020006999373,0.04802459990605712,0.047525300178676844,0.09985679993405938,0.10077349981293082,0.750244399998337
RSVPLG03,sg,20260504-165235,1.0.2,20251105-084826,837,Experiment,Both,1,Automatic,main,89,20260504-170041,global,global,750,S,H,A,E,S-A.png,H-E.png,sS,hH,mask-1.png,mask-1.png,s,1,0.734483600128442,h,1,0.15052360016852617,0.047705700155347586,0.0485144997946918,0.09992060018703341,0.09980149986222386,0.7510474002920091
RSVPLG03,sg,20260504-165235,1.0.2,20251105-084826,837,Experiment,Both,1,Automatic,main,90,20260504-170046,global,global,750,H,H,A,E,H-A.png,H-E.png,hH,hH,mask-1.png,mask-1.png,h,1,0.5124906999990344,h,1,0.11804539989680052,0.04670500010251999,0.04864909965544939,0.09956720005720854,0.10071749985218048,0.7488289000466466
RSVPLG03,sg,20260504-165235,1.0.2,20251105-084826,837,Experiment,Both,1,Automatic,main,91,20260504-170051,local,global,300,S,S,A,A,A-S.png,S-A.png,sS,sS,mask-3.png,mask-2.png,s,1,0.9727143999189138,h,0,0.4857544000260532,0.04841950023546815,0.047402100171893835,0.10134950000792742,0.09924690006300807,0.30166410002857447
RSVPLG03,sg,20260504-165235,1.0.2,20251105-084826,837,Experiment,Both,1,Automatic,main,92,20260504-170056,global,global,750,H,S,A,A,H-A.png,S-A.png,hH,sS,mask-3.png,mask-3.png,h,1,0.9227800001390278,s,1,0.16692759981378913,0.047587300185114145,0.047577299643307924,0.09972740011289716,0.10075399978086352,0.749653700273484
RSVPLG03,sg,20260504-165235,1.0.2,20251105-084826,837,Experiment,Both,1,Automatic,main,93,20260504-170101,local,global,750,S,S,E,E,E-S.png,S-E.png,sS,sS,mask-3.png,mask-2.png,s,1,1.6844029002822936,s,1,0.06950879981741309,0.048570200335234404,0.04756800038740039,0.09959720028564334,0.10062779998406768,0.751074600033462
RSVPLG03,sg,20260504-165235,1.0.2,20251105-084826,837,Experiment,Both,1,Automatic,main,94,20260504-170107,local,global,750,H,S,E,E,E-H.png,S-E.png,hH,sS,mask-2.png,mask-3.png,h,1,0.7211549999192357,s,1,0.20695170015096664,0.04671959998086095,0.04857960017398,0.09964369982481003,0.10059079993516207,0.7488461998291314
RSVPLG03,sg,20260504-165235,1.0.2,20251105-084826,837,Experiment,Both,1,Automatic,main,95,20260504-170112,local,global,750,H,S,E,E,E-H.png,S-E.png,hH,sS,mask-3.png,mask-1.png,h,1,0.6465374999679625,s,1,0.3440835000947118,0.04774630023166537,0.04750999994575977,0.09974660025909543,0.09954409999772906,0.7517910003662109
RSVPLG03,sg,20260504-165235,1.0.2,20251105-084826,837,Experiment,Both,1,Automatic,main,96,20260504-170117,local,global,300,S,S,A,E,A-S.png,S-E.png,sS,sS,mask-3.png,mask-2.png,s,1,1.465810399968177,s,1,0.12789430003613234,0.04862360004335642,0.04574709990993142,0.1006284998729825,0.09982230002060533,0.30099490005522966
RSVPLG03,sg,20260504-165235,1.0.2,20251105-084826,837,Experiment,Both,1,Automatic,main,97,20260504-170123,global,global,750,S,S,E,E,S-E.png,S-E.png,sS,sS,mask-1.png,mask-1.png,s,1,0.7922298000194132,s,1,0.11858040001243353,0.04758139979094267,0.047579700127243996,0.09981560008600354,0.09864629991352558,0.75143689988181
RSVPLG03,sg,20260504-165235,1.0.2,20251105-084826,837,Experiment,Both,1,Automatic,main,98,20260504-170128,global,local,300,H,H,A,E,H-A.png,E-H.png,hH,hH,mask-4.png,mask-1.png,h,1,1.0177090000361204,h,1,0.16656409995630383,0.046659199986606836,0.04768730001524091,0.09986449964344501,0.09862620010972023,0.3004425996914506
RSVPLG03,sg,20260504-165235,1.0.2,20251105-084826,837,Experiment,Both,1,Automatic,main,99,20260504-170132,global,local,300,H,H,E,A,H-E.png,A-H.png,hH,hH,mask-3.png,mask-4.png,h,1,0.9739415999501944,s,0,0.18218310037627816,0.046680300030857325,0.04693689988926053,0.10048320004716516,0.10097429994493723,0.30066140042617917
RSVPLG03,sg,20260504-165235,1.0.2,20251105-084826,837,Experiment,Both,1,Automatic,main,100,20260504-170137,local,global,750,S,H,E,E,E-S.png,H-E.png,sS,hH,mask-2.png,mask-2.png,s,1,0.7478505000472069,h,1,0.15418379986658692,0.048195100389420986,0.04799109976738691,0.10055960016325116,0.1006160001270473,0.7499140002764761
