exp,exp_initials,runtime,ver,modtime,sub,blocktype,targets,cuetype,mode,trialtype,trial,trialtime,t1_level,t2_level,t2_lag,t1,t2,distractor1,distractor2,stimfile1,stimfile2,t1_corr,t2_corr,maskfile1,maskfile2,t1_resp,t1_acc,t1_rt,t2_resp,t2_acc,t2_rt,t1_dur,t2_dur,t1mask_soa,t2mask_soa,t1t2_soa
RSVPLG03,km,20251113-091630,1.0.2,20251113-090007,741,Introduction,T1,1,Automatic,main,1,20251113-091652,local,local,750,H,S,A,E,A-H.png,E-S.png,hH,sS,mask-2.png,mask-1.png,s,0,2.7180131000932306,none,-5,0,0.08957300009205937,0.0987599000800401,0.1904017000924796,0.1985986998770386,0.7393631001468748
RSVPLG03,km,20251113-091630,1.0.2,20251113-090007,741,Introduction,T1,1,Automatic,main,2,20251113-091659,global,local,750,H,H,E,A,H-E.png,A-H.png,hH,hH,mask-1.png,mask-1.png,h,1,2.080559200141579,none,-5,0,0.09769749990664423,0.10022939997725189,0.19875869993120432,0.200642199954018,0.7477202999871224
RSVPLG03,km,20251113-091630,1.0.2,20251113-090007,741,Introduction,T1,1,Automatic,main,3,20251113-091706,global,global,750,S,S,A,E,S-A.png,S-E.png,sS,sS,mask-2.png,mask-3.png,s,1,0.6188545001205057,none,-5,0,0.09997630002908409,0.0989308999851346,0.20095060020685196,0.19898040010593832,0.7500851000659168
RSVPLG03,km,20251113-091630,1.0.2,20251113-090007,741,Introduction,T1,1,Automatic,main,4,20251113-091710,global,global,750,S,S,E,A,S-E.png,S-A.png,sS,sS,mask-1.png,mask-4.png,s,1,1.0728446000721306,none,-5,0,0.0993988998234272,0.0998301999643445,0.19924849993549287,0.1998327998444438,0.7498135999776423
RSVPLG03,km,20251113-091630,1.0.2,20251113-090007,741,Introduction,T1,1,Automatic,main,5,20251113-091716,global,global,750,S,H,E,A,S-E.png,H-A.png,sS,hH,mask-4.png,mask-2.png,none,-6,0,none,-5,0,0.09981449996121228,0.09894270007498562,0.19977629999630153,0.19905550009571016,0.7490593998227268
RSVPLG03,km,20251113-091630,1.0.2,20251113-090007,741,Practice,T1,1,Automatic,main,1,20251113-091742,global,global,300,H,S,A,E,H-A.png,S-E.png,hH,sS,mask-4.png,mask-2.png,s,0,1.1605838001705706,none,-5,0,0.039872500114142895,0.05044139991514385,0.0900475000962615,0.0989981999155134,0.29038650006987154
RSVPLG03,km,20251113-091630,1.0.2,20251113-090007,741,Practice,T1,1,Automatic,main,2,20251113-091747,local,global,750,S,H,A,E,A-S.png,H-E.png,sS,hH,mask-4.png,mask-3.png,s,1,0.9024918000213802,none,-5,0,0.05104259983636439,0.050915100146085024,0.10087609989568591,0.10097960010170937,0.7512679998762906
RSVPLG03,km,20251113-091630,1.0.2,20251113-090007,741,Practice,T1,1,Automatic,main,3,20251113-091752,local,local,300,S,S,E,E,E-S.png,E-S.png,sS,sS,mask-4.png,mask-4.png,s,1,0.5790204000659287,none,-5,0,0.050399000057950616,0.049508499912917614,0.10062699997797608,0.09938349993899465,0.3003329001367092
RSVPLG03,km,20251113-091630,1.0.2,20251113-090007,741,Practice,T1,1,Automatic,main,4,20251113-091757,local,local,750,S,H,E,A,E-S.png,A-H.png,sS,hH,mask-2.png,mask-3.png,h,0,0.9079904998652637,none,-5,0,0.04972269991412759,0.05154509982094169,0.09851789986714721,0.1014608999248594,0.7482859999872744
RSVPLG03,km,20251113-091630,1.0.2,20251113-090007,741,Practice,T1,1,Automatic,main,5,20251113-091802,local,global,300,S,H,A,A,A-S.png,H-A.png,sS,hH,mask-1.png,mask-1.png,s,1,0.40367019991390407,none,-5,0,0.04968860000371933,0.048527499893680215,0.09962440002709627,0.09948129998520017,0.3003199000377208
RSVPLG03,km,20251113-091630,1.0.2,20251113-090007,741,Practice,T1,1,Automatic,main,6,20251113-091806,local,local,750,H,S,E,A,E-H.png,A-S.png,hH,sS,mask-2.png,mask-1.png,h,1,0.7045525000430644,none,-5,0,0.051529499934986234,0.04988710000179708,0.10017520003020763,0.09900650009512901,0.7507724999450147
RSVPLG03,km,20251113-091630,1.0.2,20251113-090007,741,Practice,T1,1,Automatic,main,7,20251113-091811,global,local,750,H,S,E,A,H-E.png,A-S.png,hH,sS,mask-4.png,mask-2.png,h,1,1.414923199918121,none,-5,0,0.0494482999201864,0.05119409994222224,0.09810609999112785,0.09812760003842413,0.7503452999517322
RSVPLG03,km,20251113-091630,1.0.2,20251113-090007,741,Practice,T1,1,Automatic,main,8,20251113-091816,global,global,750,S,S,A,E,S-A.png,S-E.png,sS,sS,mask-3.png,mask-3.png,h,0,0.9405454997904599,none,-5,0,0.049800300039350986,0.050560500007122755,0.09964350005611777,0.10009309998713434,0.7498433000873774
RSVPLG03,km,20251113-091630,1.0.2,20251113-090007,741,Practice,T1,1,Automatic,main,9,20251113-091821,global,local,300,S,H,A,E,S-A.png,E-H.png,sS,hH,mask-3.png,mask-3.png,s,1,0.7540897999424487,none,-5,0,0.04988309997133911,0.04988560010679066,0.09988849982619286,0.09988710004836321,0.29991939989849925
RSVPLG03,km,20251113-091630,1.0.2,20251113-090007,741,Practice,T1,1,Automatic,main,10,20251113-091826,global,global,750,S,S,A,A,S-A.png,S-A.png,sS,sS,mask-4.png,mask-4.png,s,1,0.5043560001067817,none,-5,0,0.049888000125065446,0.04994349996559322,0.0987410000525415,0.10011829994618893,0.7499856001231819
RSVPLG03,km,20251113-091630,1.0.2,20251113-090007,741,Practice,T1,1,Automatic,main,11,20251113-091830,global,local,300,S,S,E,A,S-E.png,A-S.png,sS,sS,mask-1.png,mask-1.png,h,0,0.6791576999239624,none,-5,0,0.049765100004151464,0.049846600042656064,0.09946159995160997,0.09947600006125867,0.29991409997455776
RSVPLG03,km,20251113-091630,1.0.2,20251113-090007,741,Practice,T1,1,Automatic,main,12,20251113-091835,local,global,750,S,H,A,E,A-S.png,H-E.png,sS,hH,mask-1.png,mask-3.png,s,1,0.6697149998508394,none,-5,0,0.050009199883788824,0.04986319993622601,0.10090660001151264,0.09955359995365143,0.7508133000228554
RSVPLG03,km,20251113-091630,1.0.2,20251113-090007,741,Practice,T1,1,Automatic,main,13,20251113-091839,global,global,300,S,S,A,E,S-A.png,S-E.png,sS,sS,mask-1.png,mask-3.png,s,1,0.4642456998117268,none,-5,0,0.050847999984398484,0.05088760005310178,0.10166690009646118,0.10178900021128356,0.29983239993453026
RSVPLG03,km,20251113-091630,1.0.2,20251113-090007,741,Practice,T1,1,Automatic,main,14,20251113-091843,local,local,300,S,H,E,A,E-S.png,A-H.png,sS,hH,mask-1.png,mask-1.png,s,1,0.43416920001618564,none,-5,0,0.05077730002813041,0.04974899999797344,0.1006237999536097,0.09963770001195371,0.3009023000486195
RSVPLG03,km,20251113-091630,1.0.2,20251113-090007,741,Practice,T1,1,Automatic,main,15,20251113-091848,global,local,750,H,S,A,A,H-A.png,A-S.png,hH,sS,mask-2.png,mask-2.png,s,0,0.3825997000094503,none,-5,0,0.04993590014055371,0.05116880009882152,0.10000330000184476,0.09885660000145435,0.749420200008899
RSVPLG03,km,20251113-091630,1.0.2,20251113-090007,741,Practice,T1,1,Automatic,main,16,20251113-091852,local,global,300,H,S,E,E,E-H.png,S-E.png,hH,sS,mask-4.png,mask-3.png,s,0,0.591997800162062,none,-5,0,0.04979950003325939,0.04978949995711446,0.09970530006103218,0.09953640005551279,0.3004185000900179
RSVPLG03,km,20251113-091630,1.0.2,20251113-090007,741,Practice,T1,1,Automatic,main,1,20251113-091925,local,global,750,H,H,A,A,A-H.png,H-A.png,hH,hH,mask-4.png,mask-4.png,h,1,0.8536239999812096,none,-5,0,0.04307050001807511,0.04995280015282333,0.09211419988423586,0.1002267999574542,0.742505099857226
RSVPLG03,km,20251113-091630,1.0.2,20251113-090007,741,Practice,T1,1,Automatic,main,2,20251113-091930,global,global,750,S,S,A,A,S-A.png,S-A.png,sS,sS,mask-2.png,mask-2.png,s,1,0.6565140997990966,none,-5,0,0.048794700065627694,0.04976959992200136,0.09968860005028546,0.10165650001727045,0.7479318000841886
RSVPLG03,km,20251113-091630,1.0.2,20251113-090007,741,Practice,T1,1,Automatic,main,3,20251113-091934,local,global,300,H,S,A,E,A-H.png,S-E.png,hH,sS,mask-4.png,mask-3.png,h,1,1.4176467000506818,none,-5,0,0.0488169000018388,0.04980620020069182,0.09953270014375448,0.10140110016800463,0.2985644999425858
RSVPLG03,km,20251113-091630,1.0.2,20251113-090007,741,Practice,T1,1,Automatic,main,4,20251113-091939,local,local,750,S,H,A,E,A-S.png,E-H.png,sS,hH,mask-3.png,mask-2.png,h,0,0.9343070001341403,none,-5,0,0.05074380012229085,0.04988780012354255,0.09988560015335679,0.10087490011937916,0.7494022999890149
RSVPLG03,km,20251113-091630,1.0.2,20251113-090007,741,Practice,T1,1,Automatic,main,5,20251113-091945,local,global,300,H,S,A,E,A-H.png,S-E.png,hH,sS,mask-1.png,mask-3.png,h,1,1.6586285000666976,none,-5,0,0.05001330003142357,0.050772499991580844,0.10002310015261173,0.09977039997465909,0.30068140011280775
RSVPLG03,km,20251113-091630,1.0.2,20251113-090007,741,Practice,T1,1,Automatic,main,6,20251113-091950,global,global,750,S,S,A,A,S-A.png,S-A.png,sS,sS,mask-4.png,mask-1.png,s,1,0.646920699859038,none,-5,0,0.05092269997112453,0.0509081999771297,0.09987080004066229,0.09970610006712377,0.7503569000400603
RSVPLG03,km,20251113-091630,1.0.2,20251113-090007,741,Practice,T1,1,Automatic,main,7,20251113-091955,global,global,300,H,H,E,E,H-E.png,H-E.png,hH,hH,mask-1.png,mask-1.png,h,1,0.8022017001640052,none,-5,0,0.04878289997577667,0.049712000181898475,0.09908939991146326,0.10011730017140508,0.29889739979989827
RSVPLG03,km,20251113-091630,1.0.2,20251113-090007,741,Practice,T1,1,Automatic,main,8,20251113-091959,global,local,750,H,S,A,E,H-A.png,E-S.png,hH,sS,mask-4.png,mask-4.png,s,0,0.8124652998521924,none,-5,0,0.04848390002734959,0.048172600101679564,0.09833359997719526,0.0979118999093771,0.7500189000274986
RSVPLG03,km,20251113-091630,1.0.2,20251113-090007,741,Practice,T1,1,Automatic,main,9,20251113-092004,local,local,300,H,S,E,E,E-H.png,E-S.png,hH,sS,mask-3.png,mask-1.png,h,1,1.51830009999685,none,-5,0,0.04969500005245209,0.04973870003595948,0.10052679991349578,0.09956409991718829,0.3005284999962896
RSVPLG03,km,20251113-091630,1.0.2,20251113-090007,741,Practice,T1,1,Automatic,main,10,20251113-092009,global,global,300,H,H,A,E,H-A.png,H-E.png,hH,hH,mask-3.png,mask-2.png,h,1,1.0504819999914616,none,-5,0,0.04890119982883334,0.049872699892148376,0.09884439990855753,0.10068389982916415,0.29801889997906983
RSVPLG03,km,20251113-091630,1.0.2,20251113-090007,741,Practice,T1,1,Automatic,main,11,20251113-092014,global,local,300,S,H,E,E,S-E.png,E-H.png,sS,hH,mask-4.png,mask-1.png,h,0,0.8514769000466913,none,-5,0,0.04989569983445108,0.04962349985726178,0.0999196998309344,0.0983233000151813,0.30121119995601475
RSVPLG03,km,20251113-091630,1.0.2,20251113-090007,741,Practice,T1,1,Automatic,main,12,20251113-092018,local,global,750,S,S,E,E,E-S.png,S-E.png,sS,sS,mask-4.png,mask-4.png,s,1,1.071065700147301,none,-5,0,0.049851200077682734,0.04901900002732873,0.10051349992863834,0.09974410012364388,0.7515602998901159
RSVPLG03,km,20251113-091630,1.0.2,20251113-090007,741,Practice,T1,1,Automatic,main,13,20251113-092024,global,local,300,S,S,E,E,S-E.png,E-S.png,sS,sS,mask-4.png,mask-4.png,s,1,0.7056309999898076,none,-5,0,0.049777999985963106,0.051426999969407916,0.09992519998922944,0.1010457999072969,0.29999700002372265
RSVPLG03,km,20251113-091630,1.0.2,20251113-090007,741,Practice,T1,1,Automatic,main,14,20251113-092028,global,local,750,S,S,A,A,S-A.png,A-S.png,sS,sS,mask-4.png,mask-4.png,h,0,1.3138794000260532,none,-5,0,0.05075259995646775,0.05048880004324019,0.10028519993647933,0.10023179999552667,0.749038599897176
RSVPLG03,km,20251113-091630,1.0.2,20251113-090007,741,Practice,T1,1,Automatic,main,15,20251113-092033,local,local,750,H,H,E,E,E-H.png,E-H.png,hH,hH,mask-2.png,mask-3.png,h,1,1.8331784000620246,none,-5,0,0.05069750011898577,0.04889829992316663,0.10142110008746386,0.09883549995720387,0.7512793000787497
RSVPLG03,km,20251113-091630,1.0.2,20251113-090007,741,Practice,T1,1,Automatic,main,16,20251113-092039,local,local,300,H,S,E,E,E-H.png,E-S.png,hH,sS,mask-3.png,mask-2.png,s,0,0.9411488999612629,none,-5,0,0.05001899995841086,0.04886729991994798,0.09920439985580742,0.0980710000731051,0.2999519999139011
RSVPLG03,km,20251113-092102,1.0.2,20251113-090007,741,Practice,T1,1,Automatic,main,1,20251113-092121,local,local,300,S,S,E,E,E-S.png,E-S.png,sS,sS,mask-3.png,mask-2.png,s,1,0.7508992999792099,none,-5,0,0.03897970006801188,0.049927699845284224,0.08904729993082583,0.09997029998339713,0.2906500000972301
RSVPLG03,km,20251113-092102,1.0.2,20251113-090007,741,Practice,T1,1,Automatic,main,2,20251113-092125,local,global,300,S,S,E,E,E-S.png,S-E.png,sS,sS,mask-2.png,mask-2.png,h,0,0.7406025999225676,none,-5,0,0.0498300998006016,0.049641699995845556,0.09963419986888766,0.09934449987486005,0.3001973999198526
RSVPLG03,km,20251113-092102,1.0.2,20251113-090007,741,Practice,T1,1,Automatic,main,3,20251113-092130,global,global,300,S,S,E,E,S-E.png,S-E.png,sS,sS,mask-3.png,mask-2.png,h,0,2.778750899946317,none,-5,0,0.05012749996967614,0.04984720004722476,0.10035489988513291,0.10015919990837574,0.2994281998835504
RSVPLG03,km,20251113-092102,1.0.2,20251113-090007,741,Practice,T1,1,Automatic,main,4,20251113-092136,global,local,750,S,S,A,A,S-A.png,A-S.png,sS,sS,mask-4.png,mask-3.png,h,0,2.477917400188744,none,-5,0,0.0494293998926878,0.049157300032675266,0.09992569987662137,0.09934349986724555,0.7500978000462055
RSVPLG03,km,20251113-092102,1.0.2,20251113-090007,741,Practice,T1,1,Automatic,main,5,20251113-092143,global,global,300,H,H,A,A,H-A.png,H-A.png,hH,hH,mask-3.png,mask-1.png,s,0,0.9759900001809001,none,-5,0,0.04987200000323355,0.048895099898800254,0.09975380008108914,0.0997679999563843,0.3004577001556754
RSVPLG03,km,20251113-092102,1.0.2,20251113-090007,741,Practice,T1,1,Automatic,main,6,20251113-092147,local,global,750,S,S,E,A,E-S.png,S-A.png,sS,sS,mask-3.png,mask-4.png,s,1,2.5696322999428958,none,-5,0,0.04977969988249242,0.049820899963378906,0.09971819981001318,0.10078849992714822,0.7494526000227779
RSVPLG03,km,20251113-092102,1.0.2,20251113-090007,741,Practice,T1,1,Automatic,main,7,20251113-092154,local,global,300,H,S,E,E,E-H.png,S-E.png,hH,sS,mask-1.png,mask-1.png,h,1,0.915777999907732,none,-5,0,0.04947789991274476,0.049475499894469976,0.09813780011609197,0.10074779996648431,0.29844800010323524
RSVPLG03,km,20251113-092102,1.0.2,20251113-090007,741,Practice,T1,1,Automatic,main,8,20251113-092158,local,local,750,S,H,A,A,A-S.png,A-H.png,sS,hH,mask-2.png,mask-1.png,h,0,1.8034212999045849,none,-5,0,0.05064389994367957,0.049680399941280484,0.10121170012280345,0.09870430012233555,0.7513906999956816
RSVPLG03,km,20251113-092102,1.0.2,20251113-090007,741,Practice,T1,1,Automatic,main,9,20251113-092204,local,local,750,S,H,A,E,A-S.png,E-H.png,sS,hH,mask-2.png,mask-2.png,s,1,0.8782486999407411,none,-5,0,0.04996099998243153,0.0500088999979198,0.10000009997747838,0.10003460012376308,0.7500185999087989
RSVPLG03,km,20251113-092102,1.0.2,20251113-090007,741,Practice,T1,1,Automatic,main,10,20251113-092209,global,global,750,H,H,A,E,H-A.png,H-E.png,hH,hH,mask-1.png,mask-1.png,h,1,1.7480418998748064,none,-5,0,0.05053549981676042,0.04808649979531765,0.10097029991447926,0.09917619987390935,0.7520463999826461
RSVPLG03,km,20251113-092102,1.0.2,20251113-090007,741,Practice,T1,1,Automatic,main,11,20251113-092215,global,local,300,H,S,A,E,H-A.png,E-S.png,hH,sS,mask-3.png,mask-1.png,h,1,0.9425716998521239,none,-5,0,0.04974830010905862,0.048603300005197525,0.09958779998123646,0.09892709995619953,0.3002754000481218
RSVPLG03,km,20251113-092102,1.0.2,20251113-090007,741,Practice,T1,1,Automatic,main,12,20251113-092220,global,global,750,H,H,A,E,H-A.png,H-E.png,hH,hH,mask-2.png,mask-4.png,h,1,1.1523020002059639,none,-5,0,0.050911600003018975,0.05182299995794892,0.10078500001691282,0.10083400015719235,0.7482861999887973
RSVPLG03,km,20251113-092102,1.0.2,20251113-090007,741,Practice,T1,1,Automatic,main,13,20251113-092225,global,local,750,H,H,E,A,H-E.png,A-H.png,hH,hH,mask-2.png,mask-4.png,h,1,1.4354014999698848,none,-5,0,0.04980600019916892,0.049942699959501624,0.09973140014335513,0.10040430002845824,0.7498344001360238
RSVPLG03,km,20251113-092102,1.0.2,20251113-090007,741,Practice,T1,1,Automatic,main,14,20251113-092231,global,local,300,H,H,E,E,H-E.png,E-H.png,hH,hH,mask-3.png,mask-2.png,h,1,1.1197343000676483,none,-5,0,0.049697799840942025,0.047678499948233366,0.10054809995926917,0.09916960005648434,0.2999100999440998
RSVPLG03,km,20251113-092102,1.0.2,20251113-090007,741,Practice,T1,1,Automatic,main,15,20251113-092235,local,global,750,S,H,A,A,A-S.png,H-A.png,sS,hH,mask-4.png,mask-2.png,h,0,0.6189358001574874,none,-5,0,0.05028770002536476,0.05074390000663698,0.1002072999253869,0.10021249996498227,0.7487759999930859
RSVPLG03,km,20251113-092102,1.0.2,20251113-090007,741,Practice,T1,1,Automatic,main,16,20251113-092240,local,local,300,S,H,A,E,A-S.png,E-H.png,sS,hH,mask-3.png,mask-3.png,s,1,0.6737146999221295,none,-5,0,0.04973820014856756,0.049350199988111854,0.10121760005131364,0.09995180019177496,0.3000334999524057
RSVPLG03,km,20251113-092303,1.0.2,20251113-090007,741,Introduction,Both,1,Automatic,main,1,20251113-092326,global,local,750,S,S,E,E,S-E.png,E-S.png,sS,sS,mask-3.png,mask-4.png,s,1,1.1481363999191672,h,0,0.275902499910444,0.0902819000184536,0.09979630005545914,0.18959999992512167,0.19951110007241368,0.7397515999618918
RSVPLG03,km,20251113-092303,1.0.2,20251113-090007,741,Introduction,Both,1,Automatic,main,2,20251113-092332,global,global,750,S,H,E,A,S-E.png,H-A.png,sS,hH,mask-2.png,mask-1.png,h,0,1.844351400155574,s,0,0.9590699998661876,0.09973839996382594,0.09931770013645291,0.1986293001100421,0.19816200016066432,0.7482535999733955
RSVPLG03,km,20251113-092303,1.0.2,20251113-090007,741,Introduction,Both,1,Automatic,main,3,20251113-092339,global,global,750,H,S,E,E,H-E.png,S-E.png,hH,sS,mask-1.png,mask-4.png,h,1,3.9657042999751866,s,1,1.9017821999732405,0.0998925999738276,0.09937389986589551,0.20078699989244342,0.19933380000293255,0.7495327000506222
RSVPLG03,km,20251113-092303,1.0.2,20251113-090007,741,Introduction,Both,1,Automatic,main,4,20251113-092350,local,global,750,H,H,A,A,A-H.png,H-A.png,hH,hH,mask-1.png,mask-2.png,s,0,1.1972628999501467,h,1,0.31185630010440946,0.1008743999991566,0.10023860004730523,0.19965399987995625,0.20055790012702346,0.7492970998864621
RSVPLG03,km,20251113-092303,1.0.2,20251113-090007,741,Introduction,Both,1,Automatic,main,5,20251113-092356,global,global,750,S,H,A,A,S-A.png,H-A.png,sS,hH,mask-4.png,mask-3.png,h,0,1.169319599866867,s,0,0.21447929996065795,0.09976660017855465,0.10163479996845126,0.19985390012152493,0.20107590011321008,0.7484913000371307
RSVPLG03,km,20251113-092303,1.0.2,20251113-090007,741,Introduction,Both,1,Automatic,main,6,20251113-092401,local,local,750,S,H,E,A,E-S.png,A-H.png,sS,hH,mask-1.png,mask-4.png,h,0,1.6408289999235421,s,0,0.15019730012863874,0.09973340015858412,0.09992490010336041,0.1996983999852091,0.19967709993943572,0.749979600077495
RSVPLG03,km,20251113-092303,1.0.2,20251113-090007,741,Introduction,Both,1,Automatic,main,7,20251113-092408,local,local,750,S,S,E,A,E-S.png,A-S.png,sS,sS,mask-3.png,mask-1.png,h,0,1.0266565999481827,s,1,0.301489399978891,0.09982790006324649,0.09906999999657273,0.1997831000480801,0.19779479992575943,0.7488772999495268
RSVPLG03,km,20251113-092303,1.0.2,20251113-090007,741,Introduction,Both,1,Automatic,main,8,20251113-092414,local,local,750,H,H,A,A,A-H.png,A-H.png,hH,hH,mask-2.png,mask-1.png,h,1,0.7196245000232011,s,0,1.0890721997711807,0.09890000009909272,0.09995470009744167,0.19872260000556707,0.1991133000701666,0.7489265999756753
RSVPLG03,km,20251113-092303,1.0.2,20251113-090007,741,Introduction,Both,1,Automatic,main,9,20251113-092420,global,local,750,H,S,E,A,H-E.png,A-S.png,hH,sS,mask-4.png,mask-2.png,h,1,0.6570266000926495,s,1,0.01536730001680553,0.09989070007577538,0.09986839978955686,0.1998670999892056,0.19871439994312823,0.7498608001042157
RSVPLG03,km,20251113-092303,1.0.2,20251113-090007,741,Introduction,Both,1,Automatic,main,10,20251113-092425,global,local,750,S,S,E,E,S-E.png,E-S.png,sS,sS,mask-3.png,mask-1.png,s,1,1.0569267000537366,h,0,0.06028819992206991,0.09984320006333292,0.09881210001185536,0.1997563000768423,0.1993893999606371,0.7496430999599397
RSVPLG03,km,20251113-092303,1.0.2,20251113-090007,741,Introduction,Both,1,Automatic,main,11,20251113-092431,local,global,750,H,S,E,A,E-H.png,S-A.png,hH,sS,mask-1.png,mask-2.png,h,1,0.36242810008116066,s,1,0.07945429999381304,0.10090429987758398,0.09981799987144768,0.19980599987320602,0.19872689992189407,0.7499700000043958
RSVPLG03,km,20251113-092303,1.0.2,20251113-090007,741,Introduction,Both,1,Automatic,main,12,20251113-092436,local,global,750,H,S,A,E,A-H.png,S-E.png,hH,sS,mask-4.png,mask-4.png,s,0,0.43546020006760955,h,0,0.6035894001834095,0.09980489988811314,0.09966279985383153,0.20189209980890155,0.19950839993543923,0.7498433999717236
RSVPLG03,km,20251113-092303,1.0.2,20251113-090007,741,Introduction,Both,1,Automatic,main,13,20251113-092440,local,global,750,S,S,A,E,A-S.png,S-E.png,sS,sS,mask-1.png,mask-1.png,h,0,0.2581650000065565,s,1,0.04640440014190972,0.10077050002291799,0.0999125000089407,0.2006669999100268,0.19763910002075136,0.7503109998069704
RSVPLG03,km,20251113-092303,1.0.2,20251113-090007,741,Introduction,Both,1,Automatic,main,14,20251113-092445,global,local,750,S,H,E,E,S-E.png,E-H.png,sS,hH,mask-4.png,mask-4.png,s,1,0.2871840000152588,h,1,0.455167300067842,0.0988926999270916,0.09906939999200404,0.20059040002524853,0.19921439979225397,0.7502151001244783
RSVPLG03,km,20251113-092303,1.0.2,20251113-090007,741,Introduction,Both,1,Automatic,main,15,20251113-092450,local,local,750,S,H,E,A,E-S.png,A-H.png,sS,hH,mask-3.png,mask-3.png,h,0,0.47820389992557466,s,0,0.03687229985371232,0.09885700000450015,0.09933719993568957,0.20033230003900826,0.1980506000109017,0.7500400000717491
RSVPLG03,km,20251113-092303,1.0.2,20251113-090007,741,Introduction,Both,1,Automatic,main,16,20251113-092455,global,global,750,H,H,A,E,H-A.png,H-E.png,hH,hH,mask-4.png,mask-4.png,s,0,0.34752109996043146,h,1,0.515542599838227,0.10065559996291995,0.09891399997286499,0.200367399957031,0.1989698999095708,0.7500904998742044
RSVPLG03,km,20251113-092513,1.0.2,20251113-090007,741,Practice,Both,1,Automatic,main,1,20251113-092535,global,local,300,H,S,E,A,H-E.png,A-S.png,hH,sS,mask-3.png,mask-2.png,h,1,2.6065551000647247,s,1,0.2070925000589341,0.04675360000692308,0.05039929994381964,0.09604050009511411,0.1010604000184685,0.29654860007576644
RSVPLG03,km,20251113-092513,1.0.2,20251113-090007,741,Practice,Both,1,Automatic,main,2,20251113-092542,local,global,300,S,H,A,E,A-S.png,H-E.png,sS,hH,mask-1.png,mask-3.png,s,1,2.1251489999704063,h,1,2.277170600136742,0.049624300096184015,0.05188399995677173,0.09968810016289353,0.10068770009092987,0.2982512000016868
RSVPLG03,km,20251113-092513,1.0.2,20251113-090007,741,Practice,Both,1,Automatic,main,3,20251113-092548,local,local,750,H,H,E,E,E-H.png,E-H.png,hH,hH,mask-2.png,mask-2.png,h,1,0.8096961001865566,s,0,0.1667549000121653,0.04991629999130964,0.049935099901631474,0.09993579983711243,0.09867089986801147,0.7505828000139445
RSVPLG03,km,20251113-092513,1.0.2,20251113-090007,741,Practice,Both,1,Automatic,main,4,20251113-092553,local,global,300,S,H,A,E,A-S.png,H-E.png,sS,hH,mask-1.png,mask-1.png,s,1,1.3417566998396069,h,1,0.005689699901267886,0.04995390004478395,0.0496926000341773,0.10094510018825531,0.09992319997400045,0.3005911000072956
RSVPLG03,km,20251113-092513,1.0.2,20251113-090007,741,Practice,Both,1,Automatic,main,5,20251113-092558,global,global,300,S,S,A,A,S-A.png,S-A.png,sS,sS,mask-1.png,mask-4.png,s,1,0.3764716999139637,h,0,0.4964817001018673,0.04984330013394356,0.050345800118520856,0.09984940011054277,0.10067750001326203,0.29910359997302294
RSVPLG03,km,20251113-092513,1.0.2,20251113-090007,741,Practice,Both,1,Automatic,main,6,20251113-092602,local,local,750,H,H,A,E,A-H.png,E-H.png,hH,hH,mask-4.png,mask-2.png,h,1,0.8611093000508845,s,0,0.7347820000723004,0.0507980000693351,0.04961699992418289,0.10063949995674193,0.0995819999370724,0.7526029001455754
RSVPLG03,km,20251113-092513,1.0.2,20251113-090007,741,Practice,Both,1,Automatic,main,7,20251113-092608,local,global,750,H,S,E,A,E-H.png,S-A.png,hH,sS,mask-4.png,mask-1.png,s,0,1.9820407999213785,h,0,0.05167980003170669,0.049868599977344275,0.048887900076806545,0.10079260007478297,0.0972965001128614,0.7518901999574155
RSVPLG03,km,20251113-092513,1.0.2,20251113-090007,741,Practice,Both,1,Automatic,main,8,20251113-092615,local,local,300,H,H,E,A,E-H.png,A-H.png,hH,hH,mask-4.png,mask-3.png,h,1,1.293375900015235,s,0,0.22334910021163523,0.04989899997599423,0.04879030003212392,0.09988419990986586,0.0997009000275284,0.3000363998580724
RSVPLG03,km,20251113-092513,1.0.2,20251113-090007,741,Practice,Both,1,Automatic,main,9,20251113-092620,global,local,750,H,H,A,A,H-A.png,A-H.png,hH,hH,mask-3.png,mask-1.png,s,0,2.410019699949771,h,1,2.5378233999945223,0.04977319994941354,0.04829279985278845,0.09947980009019375,0.09839929989539087,0.7504913001321256
RSVPLG03,km,20251113-092513,1.0.2,20251113-090007,741,Practice,Both,1,Automatic,main,10,20251113-092627,global,global,300,S,S,E,E,S-E.png,S-E.png,sS,sS,mask-4.png,mask-4.png,h,0,1.397221300052479,s,1,0.12685739994049072,0.05122560006566346,0.050004699965938926,0.10134069994091988,0.09810300008393824,0.30123209999874234
RSVPLG03,km,20251113-092513,1.0.2,20251113-090007,741,Practice,Both,1,Automatic,main,11,20251113-092632,local,local,300,S,H,A,E,A-S.png,E-H.png,sS,hH,mask-4.png,mask-1.png,s,1,0.5398758000228554,h,1,0.022271099966019392,0.04889689991250634,0.04943479993380606,0.09878479992039502,0.09894389985129237,0.30031189997680485
RSVPLG03,km,20251113-092513,1.0.2,20251113-090007,741,Practice,Both,1,Automatic,main,12,20251113-092636,global,local,300,H,H,E,A,H-E.png,A-H.png,hH,hH,mask-1.png,mask-4.png,s,0,0.798941400134936,h,1,0.09133099997416139,0.04987180000171065,0.05052300007082522,0.10177810001187027,0.09978349995799363,0.3004447999410331
RSVPLG03,km,20251113-092513,1.0.2,20251113-090007,741,Practice,Both,1,Automatic,main,13,20251113-092641,local,global,750,S,S,E,A,E-S.png,S-A.png,sS,sS,mask-1.png,mask-2.png,h,0,2.049351899884641,s,1,0.1830688000191003,0.04997699987143278,0.049800700042396784,0.10132519993931055,0.0999511000700295,0.7529968998860568
RSVPLG03,km,20251113-092513,1.0.2,20251113-090007,741,Practice,Both,1,Automatic,main,14,20251113-092648,global,global,750,H,S,A,E,H-A.png,S-E.png,hH,sS,mask-1.png,mask-3.png,s,0,2.874455700162798,h,0,0.015161799965426326,0.05030300002545118,0.04944219999015331,0.09995259996503592,0.09932989999651909,0.7509953000117093
RSVPLG03,km,20251113-092513,1.0.2,20251113-090007,741,Practice,Both,1,Automatic,main,15,20251113-092655,global,local,750,S,S,E,E,S-E.png,E-S.png,sS,sS,mask-4.png,mask-1.png,s,1,0.8575462000444531,h,0,0.13571460009552538,0.04979379987344146,0.04941039998084307,0.09966999990865588,0.10055060009472072,0.7506291999015957
RSVPLG03,km,20251113-092513,1.0.2,20251113-090007,741,Practice,Both,1,Automatic,main,16,20251113-092700,global,global,750,S,H,A,E,S-A.png,H-E.png,sS,hH,mask-4.png,mask-3.png,h,0,3.061831400031224,s,0,0.17255889996886253,0.049907200038433075,0.04917000001296401,0.09978480008430779,0.09972269996069372,0.7509735999628901
RSVPLG03,km,20251113-092723,1.0.2,20251113-090007,741,Practice,Both,1,Automatic,main,1,20251113-092805,global,local,300,H,H,E,E,H-E.png,E-H.png,hH,hH,mask-1.png,mask-3.png,h,1,2.1585423999931663,s,0,1.4597909001167864,0.039891500025987625,0.0494868999812752,0.09007339994423091,0.10017969994805753,0.29108139988966286
RSVPLG03,km,20251113-092723,1.0.2,20251113-090007,741,Practice,Both,1,Automatic,main,2,20251113-092813,global,global,750,H,S,E,E,H-E.png,S-E.png,hH,sS,mask-1.png,mask-1.png,h,1,1.2229812000878155,h,0,0.9034351001027972,0.05041759996674955,0.05153030017390847,0.10058919992297888,0.10048430017195642,0.75207329983823
RSVPLG03,km,20251113-092723,1.0.2,20251113-090007,741,Practice,Both,1,Automatic,main,3,20251113-092819,global,local,300,S,S,E,E,S-E.png,E-S.png,sS,sS,mask-2.png,mask-2.png,s,1,0.717004899866879,s,1,0.39846910000778735,0.049760099966079,0.04968379996716976,0.10076649999246001,0.1005577000323683,0.3002736000344157
RSVPLG03,km,20251113-092723,1.0.2,20251113-090007,741,Practice,Both,1,Automatic,main,4,20251113-092824,global,local,750,S,H,E,A,S-E.png,A-H.png,sS,hH,mask-1.png,mask-4.png,h,0,1.2565731999929994,s,0,0.31934050004929304,0.0488370000384748,0.04864439996890724,0.1006821000482887,0.09884719992987812,0.750844799913466
RSVPLG03,km,20251113-092723,1.0.2,20251113-090007,741,Practice,Both,1,Automatic,main,5,20251113-092830,local,local,750,S,S,E,E,E-S.png,E-S.png,sS,sS,mask-2.png,mask-4.png,s,1,1.8044693002011627,h,0,1.118897199863568,0.05076699983328581,0.04891179990954697,0.09952759998850524,0.1000633998773992,0.7512268000282347
RSVPLG03,km,20251113-092723,1.0.2,20251113-090007,741,Practice,Both,1,Automatic,main,6,20251113-092837,local,local,750,H,S,E,A,E-H.png,A-S.png,hH,sS,mask-3.png,mask-2.png,h,1,2.1748662998434156,s,1,0.006939399987459183,0.048708900110796094,0.0496976999565959,0.09969449997879565,0.10070329997688532,0.7490336000919342
RSVPLG03,km,20251113-092723,1.0.2,20251113-090007,741,Practice,Both,1,Automatic,main,7,20251113-092844,local,global,750,H,H,E,A,E-H.png,H-A.png,hH,hH,mask-3.png,mask-4.png,h,1,0.8127597998827696,s,0,1.0219562000129372,0.04753539990633726,0.050142799969762564,0.09876149985939264,0.10141170001588762,0.7488148999400437
RSVPLG03,km,20251113-092723,1.0.2,20251113-090007,741,Practice,Both,1,Automatic,main,8,20251113-092850,local,global,750,H,S,E,E,E-H.png,S-E.png,hH,sS,mask-3.png,mask-4.png,s,0,3.008167600026354,h,0,0.1983256998937577,0.050899399910122156,0.04779790015891194,0.1006044999230653,0.09934539999812841,0.7517837998457253
RSVPLG03,km,20251113-092723,1.0.2,20251113-090007,741,Practice,Both,1,Automatic,main,9,20251113-092857,global,local,750,S,S,E,A,S-E.png,A-S.png,sS,sS,mask-4.png,mask-4.png,s,1,0.7204583000857383,h,0,0.17539800005033612,0.048634800128638744,0.05004389979876578,0.10073469998314977,0.1003597998060286,0.7504087002016604
RSVPLG03,km,20251113-092723,1.0.2,20251113-090007,741,Practice,Both,1,Automatic,main,10,20251113-092903,local,global,300,S,S,A,E,A-S.png,S-E.png,sS,sS,mask-1.png,mask-3.png,h,0,1.4048576999921352,s,1,0.15849680011160672,0.0496547999791801,0.049526199931278825,0.1014771000482142,0.10134669998660684,0.3003350000362843
RSVPLG03,km,20251113-092723,1.0.2,20251113-090007,741,Practice,Both,1,Automatic,main,11,20251113-092908,global,global,300,S,H,E,A,S-E.png,H-A.png,sS,hH,mask-2.png,mask-2.png,s,1,1.5628930001985282,h,1,0.012608899967744946,0.04987800004892051,0.05089770001359284,0.09987080004066229,0.09993849997408688,0.29887069994583726
RSVPLG03,km,20251113-092723,1.0.2,20251113-090007,741,Practice,Both,1,Automatic,main,12,20251113-092914,local,local,300,H,S,E,A,E-H.png,A-S.png,hH,sS,mask-1.png,mask-2.png,h,1,0.5767479999922216,s,1,0.18307849997654557,0.049869899870827794,0.05183929996564984,0.10068969987332821,0.10140689997933805,0.2996765999123454
RSVPLG03,km,20251113-092723,1.0.2,20251113-090007,741,Practice,Both,1,Automatic,main,13,20251113-092918,local,local,300,S,H,A,A,A-S.png,A-H.png,sS,hH,mask-4.png,mask-2.png,s,1,1.1173037998378277,h,1,1.3169058999046683,0.05073120002634823,0.049769500037655234,0.09935980010777712,0.09971189987845719,0.30003660009242594
RSVPLG03,km,20251113-092723,1.0.2,20251113-090007,741,Practice,Both,1,Automatic,main,14,20251113-092923,local,global,300,S,H,A,E,A-S.png,H-E.png,sS,hH,mask-2.png,mask-4.png,h,0,0.9178909999318421,s,0,0.10343240015208721,0.05007060011848807,0.04877650015987456,0.09998410008847713,0.09970830008387566,0.3007008999120444
RSVPLG03,km,20251113-092723,1.0.2,20251113-090007,741,Practice,Both,1,Automatic,main,15,20251113-092928,global,global,750,S,H,A,E,S-A.png,H-E.png,sS,hH,mask-3.png,mask-4.png,h,0,1.2326122999656945,s,0,0.07169359992258251,0.050583000062033534,0.049877800047397614,0.10048920009285212,0.10089430003426969,0.7503983001224697
RSVPLG03,km,20251113-092723,1.0.2,20251113-090007,741,Practice,Both,1,Automatic,main,16,20251113-092934,global,global,300,H,H,E,E,H-E.png,H-E.png,hH,hH,mask-1.png,mask-2.png,s,0,0.7481550998054445,h,1,0.029274999862536788,0.04892430012114346,0.049984300043433905,0.09904360002838075,0.09989070007577538,0.2991917000617832
RSVPLG03,km,20251113-092957,1.0.2,20251113-090007,741,Practice,Both,1,Automatic,main,1,20251113-093013,global,local,300,H,S,A,A,H-A.png,A-S.png,hH,sS,mask-3.png,mask-2.png,s,0,0.8208379000425339,h,0,0.9056389001198113,0.039072100073099136,0.05021389992907643,0.08903190004639328,0.0995962000451982,0.2889138001482934
RSVPLG03,km,20251113-092957,1.0.2,20251113-090007,741,Practice,Both,1,Automatic,main,2,20251113-093019,local,global,300,S,S,E,A,E-S.png,S-A.png,sS,sS,mask-4.png,mask-4.png,s,1,1.2022865999024361,h,0,0.11730469996109605,0.04983550007455051,0.05038910009898245,0.0992191000841558,0.10078420001082122,0.2989829999860376
RSVPLG03,km,20251113-092957,1.0.2,20251113-090007,741,Practice,Both,1,Automatic,main,3,20251113-093024,local,global,750,S,S,A,E,A-S.png,S-E.png,sS,sS,mask-1.png,mask-2.png,s,1,0.9362857001833618,s,1,0.2400583999697119,0.049895199947059155,0.049794399878010154,0.10086519992910326,0.10005389992147684,0.747803800040856
RSVPLG03,km,20251113-092957,1.0.2,20251113-090007,741,Practice,Both,1,Automatic,main,4,20251113-093029,local,local,300,S,H,A,A,A-S.png,A-H.png,sS,hH,mask-1.png,mask-2.png,s,1,0.4956336000468582,s,0,0.3015759999398142,0.0499078999273479,0.04980690008960664,0.10063320002518594,0.10035560000687838,0.29940019990317523
RSVPLG03,km,20251113-092957,1.0.2,20251113-090007,741,Practice,Both,1,Automatic,main,5,20251113-093034,global,global,300,S,S,E,E,S-E.png,S-E.png,sS,sS,mask-2.png,mask-2.png,s,1,1.0346606001257896,s,1,0.4042917999904603,0.04860530002042651,0.04940959997475147,0.0992374001070857,0.09989449987187982,0.29812870011664927
RSVPLG03,km,20251113-092957,1.0.2,20251113-090007,741,Practice,Both,1,Automatic,main,6,20251113-093039,global,local,750,S,S,A,E,S-A.png,E-S.png,sS,sS,mask-4.png,mask-1.png,h,0,1.5526380999945104,s,1,1.0702853000257164,0.050864099990576506,0.04949259990826249,0.10086919995956123,0.09902990004047751,0.7494188998825848
RSVPLG03,km,20251113-092957,1.0.2,20251113-090007,741,Practice,Both,1,Automatic,main,7,20251113-093046,global,global,300,S,S,A,E,S-A.png,S-E.png,sS,sS,mask-4.png,mask-3.png,s,1,2.33579449984245,h,0,0.06959880003705621,0.04848999995738268,0.04859989997930825,0.09836949990130961,0.09835510002449155,0.2993419000413269
RSVPLG03,km,20251113-092957,1.0.2,20251113-090007,741,Practice,Both,1,Automatic,main,8,20251113-093052,local,local,300,H,H,E,A,E-H.png,A-H.png,hH,hH,mask-3.png,mask-3.png,s,0,0.8196360999718308,h,1,0.030795499915257096,0.04867190006189048,0.049806099850684404,0.09753550007008016,0.09966279985383153,0.2992887001018971
RSVPLG03,km,20251113-092957,1.0.2,20251113-090007,741,Practice,Both,1,Automatic,main,9,20251113-093057,local,global,300,S,H,E,A,E-S.png,H-A.png,sS,hH,mask-4.png,mask-4.png,s,1,0.6159216999076307,h,1,0.1049923999235034,0.04962920001707971,0.049695099936798215,0.09848859999328852,0.10112080001272261,0.2980615000706166
RSVPLG03,km,20251113-092957,1.0.2,20251113-090007,741,Practice,Both,1,Automatic,main,10,20251113-093102,global,global,750,S,H,E,E,S-E.png,H-E.png,sS,hH,mask-4.png,mask-1.png,s,1,0.38767219986766577,h,1,0.06081310007721186,0.05100159998983145,0.04890480008907616,0.10103180003352463,0.09928790014237165,0.7496517999097705
RSVPLG03,km,20251113-092957,1.0.2,20251113-090007,741,Practice,Both,1,Automatic,main,11,20251113-093106,local,local,750,H,S,E,A,E-H.png,A-S.png,hH,sS,mask-1.png,mask-2.png,s,0,0.7900833999738097,h,0,0.9743005998898298,0.04995949985459447,0.048995399847626686,0.09998729988001287,0.09775449987500906,0.7499381999950856
RSVPLG03,km,20251113-092957,1.0.2,20251113-090007,741,Practice,Both,1,Automatic,main,12,20251113-093111,global,local,750,H,H,A,E,H-A.png,E-H.png,hH,hH,mask-4.png,mask-1.png,h,1,0.8394541000016034,s,0,0.054690200136974454,0.04995339992456138,0.0500713000074029,0.10150699992664158,0.09865449997596443,0.7493685998488218
RSVPLG03,km,20251113-092957,1.0.2,20251113-090007,741,Practice,Both,1,Automatic,main,13,20251113-093117,global,global,750,H,H,E,A,H-E.png,H-A.png,hH,hH,mask-3.png,mask-4.png,h,1,0.335470600053668,s,0,0.07560690003447235,0.04931449983268976,0.04864929988980293,0.09920359984971583,0.09885090007446706,0.7488589999265969
RSVPLG03,km,20251113-092957,1.0.2,20251113-090007,741,Practice,Both,1,Automatic,main,14,20251113-093121,local,local,750,S,S,A,A,A-S.png,A-S.png,sS,sS,mask-2.png,mask-2.png,h,0,1.0554345999844372,h,0,1.2375180998351425,0.05053300014697015,0.04848890006542206,0.10101480013690889,0.09800260001793504,0.7510895000305027
RSVPLG03,km,20251113-092957,1.0.2,20251113-090007,741,Practice,Both,1,Automatic,main,15,20251113-093128,global,local,300,S,S,E,A,S-E.png,A-S.png,sS,sS,mask-4.png,mask-2.png,s,1,0.6299390001222491,h,0,0.13562360010109842,0.050150099908933043,0.0478218998759985,0.09914389997720718,0.09990129992365837,0.29998219991102815
RSVPLG03,km,20251113-092957,1.0.2,20251113-090007,741,Practice,Both,1,Automatic,main,16,20251113-093132,local,global,750,S,H,A,A,A-S.png,H-A.png,sS,hH,mask-4.png,mask-4.png,h,0,1.3197137000970542,s,0,0.45618300000205636,0.051717800088226795,0.050806300016120076,0.10134300007484853,0.10079940012656152,0.7498314999975264
RSVPLG03,km,20251113-093226,1.0.2,20251113-090007,741,Experiment,Both,1,Automatic,warmup,1,20251113-093250,global,global,300,S,S,A,E,S-A.png,S-E.png,sS,sS,mask-1.png,mask-1.png,h,0,1.6921099000610411,h,0,0.8156484998762608,0.04316679993644357,0.04913889989256859,0.09141099988482893,0.09959320002235472,0.2889215999748558
RSVPLG03,km,20251113-093226,1.0.2,20251113-090007,741,Experiment,Both,1,Automatic,warmup,2,20251113-093256,local,local,750,S,S,A,A,A-S.png,A-S.png,sS,sS,mask-1.png,mask-4.png,h,0,2.255093100015074,s,1,0.15596610005013645,0.04881879989989102,0.05000939988531172,0.09785289992578328,0.09925980004481971,0.7557246000505984
RSVPLG03,km,20251113-093226,1.0.2,20251113-090007,741,Experiment,Both,1,Automatic,warmup,3,20251113-093303,global,global,750,S,S,E,A,S-E.png,S-A.png,sS,sS,mask-4.png,mask-3.png,s,1,0.4282305999659002,s,1,1.4623084999620914,0.04877369990572333,0.05129299988038838,0.09768999996595085,0.10025789984501898,0.7541632000356913
RSVPLG03,km,20251113-093226,1.0.2,20251113-090007,741,Experiment,Both,1,Automatic,warmup,4,20251113-093309,local,local,300,S,H,E,E,E-S.png,E-H.png,sS,hH,mask-3.png,mask-1.png,s,1,1.2528206000570208,h,1,0.03137750015594065,0.04978319979272783,0.04937099991366267,0.09779109992086887,0.09800919983536005,0.29514790000393987
RSVPLG03,km,20251113-093226,1.0.2,20251113-090007,741,Experiment,Both,1,Automatic,main,5,20251113-093314,global,local,750,S,S,E,E,S-E.png,E-S.png,sS,sS,mask-4.png,mask-2.png,h,0,2.4144313000142574,s,1,0.04138000006787479,0.048030200181528926,0.04891519993543625,0.09807540010660887,0.09757760004140437,0.7553223001305014
RSVPLG03,km,20251113-093226,1.0.2,20251113-090007,741,Experiment,Both,1,Automatic,main,6,20251113-093320,global,global,300,H,S,E,E,H-E.png,S-E.png,hH,sS,mask-2.png,mask-2.png,s,0,0.8879469998646528,h,0,0.3495555999688804,0.05069450009614229,0.05043969978578389,0.09745460003614426,0.09838029998354614,0.2956102001480758
RSVPLG03,km,20251113-093226,1.0.2,20251113-090007,741,Experiment,Both,1,Automatic,main,7,20251113-093325,global,global,300,H,H,A,E,H-A.png,H-E.png,hH,hH,mask-2.png,mask-4.png,h,1,1.8541323998942971,s,0,0.047669799998402596,0.04995870008133352,0.04959980002604425,0.09840020001865923,0.09835739992558956,0.295707100071013
RSVPLG03,km,20251113-093226,1.0.2,20251113-090007,741,Experiment,Both,1,Automatic,main,8,20251113-093331,local,global,300,S,H,E,E,E-S.png,H-E.png,sS,hH,mask-2.png,mask-4.png,s,1,0.7149362000636756,h,1,0.011557199992239475,0.04792049992829561,0.050642000045627356,0.09795890003442764,0.10280720004811883,0.2944417998660356
RSVPLG03,km,20251113-093226,1.0.2,20251113-090007,741,Experiment,Both,1,Automatic,main,9,20251113-093335,local,global,300,S,H,E,E,E-S.png,H-E.png,sS,hH,mask-3.png,mask-4.png,h,0,1.0222726999782026,s,0,1.5887057001236826,0.0498410000000149,0.049580999882891774,0.09975389996543527,0.09773819986730814,0.2961954001802951
RSVPLG03,km,20251113-093226,1.0.2,20251113-090007,741,Experiment,Both,1,Automatic,main,10,20251113-093342,global,local,750,S,S,A,E,S-A.png,E-S.png,sS,sS,mask-3.png,mask-2.png,h,0,2.6542748999781907,s,1,0.039854600094258785,0.05077309999614954,0.04888669983483851,0.098467200063169,0.09754879982210696,0.7580860001035035
RSVPLG03,km,20251113-093226,1.0.2,20251113-090007,741,Experiment,Both,1,Automatic,main,11,20251113-093349,global,local,300,H,S,A,A,H-A.png,A-S.png,hH,sS,mask-2.png,mask-3.png,s,0,3.191946999868378,h,0,0.022527999943122268,0.04998279991559684,0.048694000113755465,0.0987877999432385,0.09751540003344417,0.29670499986968935
RSVPLG03,km,20251113-093226,1.0.2,20251113-090007,741,Experiment,Both,1,Automatic,main,12,20251113-093356,local,global,750,S,H,E,A,E-S.png,H-A.png,sS,hH,mask-2.png,mask-1.png,h,0,0.9134327000938356,s,0,0.12377239996567369,0.05086759990081191,0.04991120006889105,0.09966579987667501,0.09899550001136959,0.7558738999068737
RSVPLG03,km,20251113-093226,1.0.2,20251113-090007,741,Experiment,Both,1,Automatic,main,13,20251113-093401,local,global,750,H,H,E,A,E-H.png,H-A.png,hH,hH,mask-2.png,mask-2.png,h,1,1.231758699985221,s,0,0.12753340019844472,0.047905700048431754,0.04906470002606511,0.09666939987801015,0.09843080001883209,0.7553667998872697
RSVPLG03,km,20251113-093226,1.0.2,20251113-090007,741,Experiment,Both,1,Automatic,main,14,20251113-093407,global,local,300,H,H,E,E,H-E.png,E-H.png,hH,hH,mask-4.png,mask-1.png,h,1,1.259812599979341,s,0,0.21611170005053282,0.04791769990697503,0.04789170017465949,0.0969070999417454,0.09763810015283525,0.2954754999373108
RSVPLG03,km,20251113-093226,1.0.2,20251113-090007,741,Experiment,Both,1,Automatic,main,15,20251113-093412,local,global,300,S,H,E,E,E-S.png,H-E.png,sS,hH,mask-2.png,mask-2.png,s,1,0.8681367000099272,h,1,0.08653190010227263,0.04894910007715225,0.04890080005861819,0.09867930016480386,0.09788120002485812,0.29573450004681945
RSVPLG03,km,20251113-093226,1.0.2,20251113-090007,741,Experiment,Both,1,Automatic,main,16,20251113-093417,global,local,300,S,H,A,E,S-A.png,E-H.png,sS,hH,mask-4.png,mask-1.png,h,0,3.29230280010961,s,0,0.1142298998311162,0.04950889991596341,0.04861920000985265,0.09851250005885959,0.09838729980401695,0.29600340011529624
RSVPLG03,km,20251113-093226,1.0.2,20251113-090007,741,Experiment,Both,1,Automatic,main,17,20251113-093424,local,global,300,H,S,A,E,A-H.png,S-E.png,hH,sS,mask-2.png,mask-1.png,h,1,1.2929267000872642,s,1,0.07035509985871613,0.049719300121068954,0.0498414000030607,0.09869410004466772,0.09773149993270636,0.2965335000772029
RSVPLG03,km,20251113-093226,1.0.2,20251113-090007,741,Experiment,Both,1,Automatic,main,18,20251113-093429,global,global,750,H,S,E,E,H-E.png,S-E.png,hH,sS,mask-3.png,mask-3.png,h,1,0.9541984000243247,s,1,0.09430150012485683,0.047709899954497814,0.04880240000784397,0.09758959989994764,0.09793010004796088,0.7556640000548214
RSVPLG03,km,20251113-093226,1.0.2,20251113-090007,741,Experiment,Both,1,Automatic,main,19,20251113-093434,local,local,750,H,S,A,A,A-H.png,A-S.png,hH,sS,mask-4.png,mask-2.png,s,0,1.7467633001506329,h,0,1.898766600061208,0.04998330003581941,0.049848999828100204,0.09861880005337298,0.09763259999454021,0.756108800182119
RSVPLG03,km,20251113-093226,1.0.2,20251113-090007,741,Experiment,Both,1,Automatic,main,20,20251113-093440,local,local,750,H,H,A,A,A-H.png,A-H.png,hH,hH,mask-3.png,mask-3.png,h,1,1.1382014001719654,s,0,0.10059640021063387,0.049928100081160665,0.04836000013165176,0.09996889997273684,0.0974049000069499,0.7585034999065101
RSVPLG03,km,20251113-093226,1.0.2,20251113-090007,741,Experiment,Both,1,Automatic,main,21,20251113-093445,global,global,750,S,S,E,A,S-E.png,S-A.png,sS,sS,mask-1.png,mask-2.png,h,0,2.021419799886644,s,1,0.15910750022158027,0.04909180011600256,0.04793270002119243,0.09806130011565983,0.0966031001880765,0.7573742000386119
RSVPLG03,km,20251113-093226,1.0.2,20251113-090007,741,Experiment,Both,1,Automatic,main,22,20251113-093452,local,global,750,S,S,E,E,E-S.png,S-E.png,sS,sS,mask-2.png,mask-3.png,h,0,3.367742800153792,s,1,0.09768890007399023,0.04779810016043484,0.048822900047525764,0.09775640000589192,0.09776260005310178,0.7550210000481457
RSVPLG03,km,20251113-093226,1.0.2,20251113-090007,741,Experiment,Both,1,Automatic,main,23,20251113-093500,local,local,300,H,H,E,E,E-H.png,E-H.png,hH,hH,mask-4.png,mask-4.png,s,0,0.798446899978444,h,1,0.029509399784728885,0.04994799988344312,0.04855370009317994,0.09838839992880821,0.09848910011351109,0.2966686999425292
RSVPLG03,km,20251113-093226,1.0.2,20251113-090007,741,Experiment,Both,1,Automatic,main,24,20251113-093504,local,global,300,H,H,E,E,E-H.png,H-E.png,hH,hH,mask-1.png,mask-2.png,h,1,0.6952941999770701,s,0,0.5064101000316441,0.04785179998725653,0.047625300008803606,0.09754449990577996,0.09832970006391406,0.295452699996531
RSVPLG03,km,20251113-093226,1.0.2,20251113-090007,741,Experiment,Both,1,Automatic,main,25,20251113-093509,global,local,750,S,H,A,A,S-A.png,A-H.png,sS,hH,mask-2.png,mask-2.png,h,0,1.5064032999798656,h,1,0.07819120003841817,0.050521699944511056,0.04898739978671074,0.09847739990800619,0.09903179993852973,0.7558108000084758
RSVPLG03,km,20251113-093226,1.0.2,20251113-090007,741,Experiment,Both,1,Automatic,main,26,20251113-093530,global,global,750,H,S,A,A,H-A.png,S-A.png,hH,sS,mask-3.png,mask-2.png,h,1,0.8796334001235664,h,0,3.99138389993459,0.04853709996677935,0.04978940007276833,0.09819289995357394,0.09871409996412694,0.755841099889949
RSVPLG03,km,20251113-093226,1.0.2,20251113-090007,741,Experiment,Both,1,Automatic,main,27,20251113-093539,local,local,750,S,H,E,A,E-S.png,A-H.png,sS,hH,mask-4.png,mask-4.png,h,0,0.8005989000666887,h,1,0.3426053000148386,0.05064100003801286,0.04998170002363622,0.09852420003153384,0.09801340010017157,0.7569019999355078
RSVPLG03,km,20251113-093226,1.0.2,20251113-090007,741,Experiment,Both,1,Automatic,main,28,20251113-093545,global,global,300,H,H,A,E,H-A.png,H-E.png,hH,hH,mask-2.png,mask-3.png,h,1,1.1815790000837296,s,0,0.8289340999908745,0.05006829998455942,0.049788299947977066,0.09951119986362755,0.09969049994833767,0.29532040003687143
RSVPLG03,km,20251113-093226,1.0.2,20251113-090007,741,Experiment,Both,1,Automatic,main,29,20251113-093550,local,local,750,S,H,A,E,A-S.png,E-H.png,sS,hH,mask-1.png,mask-2.png,h,0,0.46412899997085333,h,1,0.148330100113526,0.047975300112739205,0.04879919998347759,0.09807980014011264,0.0984674000646919,0.7550381000619382
RSVPLG03,km,20251113-093226,1.0.2,20251113-090007,741,Experiment,Both,1,Automatic,main,30,20251113-093555,global,global,300,S,H,A,E,S-A.png,H-E.png,sS,hH,mask-2.png,mask-4.png,s,1,1.1758191999979317,h,1,0.89189019985497,0.04874160001054406,0.04940470005385578,0.09793970012106001,0.09916969994083047,0.2953896000981331
RSVPLG03,km,20251113-093226,1.0.2,20251113-090007,741,Experiment,Both,1,Automatic,main,31,20251113-093601,local,global,300,S,H,E,A,E-S.png,H-A.png,sS,hH,mask-4.png,mask-4.png,s,1,1.323680399917066,s,0,0.20654460019432008,0.04822280001826584,0.04775550006888807,0.09813079982995987,0.09893780015408993,0.2946509998291731
RSVPLG03,km,20251113-093226,1.0.2,20251113-090007,741,Experiment,Both,1,Automatic,main,32,20251113-093606,local,local,300,H,S,A,A,A-H.png,A-S.png,hH,sS,mask-1.png,mask-2.png,h,1,4.155858199810609,s,1,1.8471645000390708,0.04809410008601844,0.04927810002118349,0.09865429997444153,0.09768619993701577,0.2954766000621021
RSVPLG03,km,20251113-093226,1.0.2,20251113-090007,741,Experiment,Both,1,Automatic,main,33,20251113-093616,global,local,750,S,S,E,E,S-E.png,E-S.png,sS,sS,mask-2.png,mask-4.png,s,1,0.9570601999294013,s,1,0.21347300009801984,0.048875399865210056,0.049798000138252974,0.09875969984568655,0.09888610010966659,0.7560246998909861
RSVPLG03,km,20251113-093226,1.0.2,20251113-090007,741,Experiment,Both,1,Automatic,main,34,20251113-093622,local,global,300,S,H,A,E,A-S.png,H-E.png,sS,hH,mask-1.png,mask-3.png,s,1,1.33414960000664,h,1,0.09774599992670119,0.047598399920389056,0.04877340001985431,0.09824800002388656,0.09860580018721521,0.2960063999053091
RSVPLG03,km,20251113-093226,1.0.2,20251113-090007,741,Experiment,Both,1,Automatic,main,35,20251113-093627,global,local,750,S,S,E,A,S-E.png,A-S.png,sS,sS,mask-3.png,mask-3.png,s,1,2.005318900104612,h,0,0.0705031999386847,0.04877409990876913,0.049797500018030405,0.10303819994442165,0.09972649998962879,0.755959999980405
RSVPLG03,km,20251113-093226,1.0.2,20251113-090007,741,Experiment,Both,1,Automatic,main,36,20251113-093633,local,local,750,H,S,E,E,E-H.png,E-S.png,hH,sS,mask-2.png,mask-4.png,s,0,1.2690376001410186,s,1,0.11047909990884364,0.047791099874302745,0.0501522000413388,0.09772289986722171,0.09926120005548,0.7548738999757916
RSVPLG03,km,20251113-093226,1.0.2,20251113-090007,741,Experiment,Both,1,Automatic,main,37,20251113-093639,global,local,750,H,H,A,E,H-A.png,E-H.png,hH,hH,mask-4.png,mask-2.png,h,1,2.018186500063166,s,0,0.17449830006808043,0.04964730003848672,0.049765999894589186,0.09965240000747144,0.09759139991365373,0.7561787001322955
RSVPLG03,km,20251113-093226,1.0.2,20251113-090007,741,Experiment,Both,1,Automatic,main,38,20251113-093645,local,global,750,S,H,E,E,E-S.png,H-E.png,sS,hH,mask-4.png,mask-3.png,h,0,0.366494300076738,s,0,0.022895399946719408,0.048938400112092495,0.04798600007779896,0.09811200015246868,0.09798999992199242,0.7565023000352085
RSVPLG03,km,20251113-093226,1.0.2,20251113-090007,741,Experiment,Both,1,Automatic,main,39,20251113-093650,global,global,300,S,S,E,E,S-E.png,S-E.png,sS,sS,mask-4.png,mask-4.png,h,0,1.1702909001614898,s,1,0.15059620002284646,0.04935969994403422,0.050415199948474765,0.09841949981637299,0.09987940010614693,0.29538559983484447
RSVPLG03,km,20251113-093226,1.0.2,20251113-090007,741,Experiment,Both,1,Automatic,main,40,20251113-093658,global,local,300,S,H,E,E,S-E.png,E-H.png,sS,hH,mask-2.png,mask-4.png,h,0,3.2856689000036567,s,0,0.07184079987928271,0.045542299980297685,0.04834010009653866,0.09548319992609322,0.097659399965778,0.29451129981316626
RSVPLG03,km,20251113-093226,1.0.2,20251113-090007,741,Experiment,Both,1,Automatic,main,41,20251113-093704,local,local,300,H,H,A,E,A-H.png,E-H.png,hH,hH,mask-2.png,mask-1.png,h,1,1.8299904000014067,s,0,0.0859803999774158,0.051739800022915006,0.04970289999619126,0.10013100015930831,0.09749449999071658,0.2980410000309348
RSVPLG03,km,20251113-093226,1.0.2,20251113-090007,741,Experiment,Both,1,Automatic,main,42,20251113-093709,global,local,750,H,H,E,A,H-E.png,A-H.png,hH,hH,mask-3.png,mask-4.png,h,1,2.0073052002117038,h,1,1.6018733999226242,0.0476927999407053,0.04869550000876188,0.09749180008657277,0.09852270013652742,0.7554558999836445
RSVPLG03,km,20251113-093226,1.0.2,20251113-090007,741,Experiment,Both,1,Automatic,main,43,20251113-093715,global,global,300,S,H,A,E,S-A.png,H-E.png,sS,hH,mask-3.png,mask-3.png,s,1,1.667234200052917,s,0,0.1490780001040548,0.04980929987505078,0.04860799992457032,0.09872250002808869,0.09923559986054897,0.2965204999782145
RSVPLG03,km,20251113-093226,1.0.2,20251113-090007,741,Experiment,Both,1,Automatic,main,44,20251113-093721,local,global,300,S,H,E,E,E-S.png,H-E.png,sS,hH,mask-4.png,mask-2.png,h,0,0.16703899996355176,h,1,0.8013365999795496,0.04796719993464649,0.049803399946540594,0.09884230000898242,0.09754729992710054,0.29537820001132786
RSVPLG03,km,20251113-093226,1.0.2,20251113-090007,741,Experiment,Both,1,Automatic,main,45,20251113-093726,local,local,300,H,S,E,A,E-H.png,A-S.png,hH,sS,mask-1.png,mask-1.png,s,0,4.145503200124949,h,0,0.5175129999406636,0.04982060007750988,0.048838499933481216,0.09983450011350214,0.09875279990956187,0.29721800005063415
RSVPLG03,km,20251113-093226,1.0.2,20251113-090007,741,Experiment,Both,1,Automatic,main,46,20251113-093734,local,local,300,H,S,A,E,A-H.png,E-S.png,hH,sS,mask-3.png,mask-3.png,s,0,0.7464340999722481,h,0,0.1597522997763008,0.04890400008298457,0.05004879995249212,0.09899439988657832,0.09921819996088743,0.29477629996836185
RSVPLG03,km,20251113-093226,1.0.2,20251113-090007,741,Experiment,Both,1,Automatic,main,47,20251113-093739,local,global,750,S,H,E,A,E-S.png,H-A.png,sS,hH,mask-3.png,mask-1.png,s,1,1.9453970999456942,h,1,0.4063943000510335,0.050163500010967255,0.04989119991660118,0.09864940005354583,0.09882019995711744,0.7563350000418723
RSVPLG03,km,20251113-093226,1.0.2,20251113-090007,741,Experiment,Both,1,Automatic,main,48,20251113-093745,local,local,750,S,S,E,E,E-S.png,E-S.png,sS,sS,mask-3.png,mask-1.png,h,0,0.14275079988874495,s,1,0.24321920005604625,0.047736299922689795,0.04851570003665984,0.09866670006886125,0.09909870009869337,0.7547736999113113
RSVPLG03,km,20251113-093226,1.0.2,20251113-090007,741,Experiment,Both,1,Automatic,main,49,20251113-093751,global,local,300,S,H,E,A,S-E.png,A-H.png,sS,hH,mask-2.png,mask-3.png,h,0,0.7800614000298083,s,0,0.0864013999234885,0.04980470007285476,0.04961979994550347,0.09971380000934005,0.09895980008877814,0.2962245000526309
RSVPLG03,km,20251113-093226,1.0.2,20251113-090007,741,Experiment,Both,1,Automatic,main,50,20251113-093757,local,global,300,H,S,E,E,E-H.png,S-E.png,hH,sS,mask-3.png,mask-2.png,h,1,2.316649899818003,s,1,0.05450710002332926,0.048236200120300055,0.0474431999027729,0.0976506001316011,0.09725370001979172,0.2958828001283109
RSVPLG03,km,20251113-093226,1.0.2,20251113-090007,741,Experiment,Both,1,Automatic,main,51,20251113-093820,local,global,300,S,H,A,E,A-S.png,H-E.png,sS,hH,mask-4.png,mask-2.png,h,0,18.31820009998046,s,0,0.031348600052297115,0.049337999895215034,0.05059300013817847,0.10003299987874925,0.10029710014350712,0.2954886998049915
RSVPLG03,km,20251113-093226,1.0.2,20251113-090007,741,Experiment,Both,1,Automatic,main,52,20251113-093825,local,global,750,H,H,E,E,E-H.png,H-E.png,hH,hH,mask-3.png,mask-3.png,h,1,1.8153487001545727,h,1,0.7871662999968976,0.04883390013128519,0.04955999995581806,0.09971840004436672,0.09851650008931756,0.7553848000243306
RSVPLG03,km,20251113-093226,1.0.2,20251113-090007,741,Experiment,Both,1,Automatic,main,53,20251113-093830,global,local,300,H,S,E,E,H-E.png,E-S.png,hH,sS,mask-2.png,mask-3.png,h,1,0.14951499993912876,s,1,0.09527709987014532,0.04987229988910258,0.04832569998688996,0.09919809992425144,0.09707879996858537,0.29588659992441535
RSVPLG03,km,20251113-093226,1.0.2,20251113-090007,741,Experiment,Both,1,Automatic,main,54,20251113-093837,local,local,300,H,H,A,A,A-H.png,A-H.png,hH,hH,mask-1.png,mask-4.png,h,1,3.063416999997571,h,1,0.7700433998834342,0.04897809983231127,0.05079140001907945,0.09798429999500513,0.09970839996822178,0.2946800999343395
RSVPLG03,km,20251113-093226,1.0.2,20251113-090007,741,Experiment,Both,1,Automatic,main,55,20251113-093842,global,global,300,H,H,E,A,H-E.png,H-A.png,hH,hH,mask-4.png,mask-2.png,h,1,0.1971986999269575,s,0,0.1478317000437528,0.049790200078859925,0.04889549990184605,0.09970120014622808,0.09819000004790723,0.2956783000845462
RSVPLG03,km,20251113-093226,1.0.2,20251113-090007,741,Experiment,Both,1,Automatic,main,56,20251113-093847,global,local,750,S,H,A,A,S-A.png,A-H.png,sS,hH,mask-3.png,mask-4.png,h,0,0.9643129000905901,s,0,0.13453889987431467,0.04984430014155805,0.05044260015711188,0.09772950015030801,0.09896309999749064,0.7546941000036895
RSVPLG03,km,20251113-093226,1.0.2,20251113-090007,741,Experiment,Both,1,Automatic,main,57,20251113-093853,local,local,750,S,S,E,E,E-S.png,E-S.png,sS,sS,mask-4.png,mask-2.png,s,1,3.0819629998877645,h,0,1.996801600093022,0.050512699875980616,0.05064279981888831,0.099265499971807,0.10023409989662468,0.7562128000427037
RSVPLG03,km,20251113-093226,1.0.2,20251113-090007,741,Experiment,Both,1,Automatic,main,58,20251113-093900,global,local,300,H,S,E,E,H-E.png,E-S.png,hH,sS,mask-2.png,mask-1.png,h,1,0.05461329990066588,s,1,0.09336879989132285,0.049802100053057075,0.04834390012547374,0.09768990008160472,0.09983610012568533,0.29517329996451735
RSVPLG03,km,20251113-093226,1.0.2,20251113-090007,741,Experiment,Both,1,Automatic,main,59,20251113-093906,global,local,300,S,H,E,E,S-E.png,E-H.png,sS,hH,mask-2.png,mask-4.png,s,1,1.1684687999077141,h,1,1.3504440002143383,0.04990269988775253,0.04744830005802214,0.0984922000207007,0.09806740004569292,0.29691149992868304
RSVPLG03,km,20251113-093226,1.0.2,20251113-090007,741,Experiment,Both,1,Automatic,main,60,20251113-093911,global,global,300,S,H,A,A,S-A.png,H-A.png,sS,hH,mask-1.png,mask-4.png,s,1,2.514631300000474,h,1,0.11135359993204474,0.04883989994414151,0.0494907998945564,0.09783049998804927,0.09922039997763932,0.29606630001217127
RSVPLG03,km,20251113-093226,1.0.2,20251113-090007,741,Experiment,Both,1,Automatic,main,61,20251113-093917,local,local,750,H,H,A,A,A-H.png,A-H.png,hH,hH,mask-2.png,mask-1.png,h,1,0.05515949986875057,s,0,0.068194700172171,0.04886789992451668,0.04890029993839562,0.09882059996016324,0.09883020003326237,0.7562696998938918
RSVPLG03,km,20251113-093226,1.0.2,20251113-090007,741,Experiment,Both,1,Automatic,main,62,20251113-093922,local,local,300,H,S,A,E,A-H.png,E-S.png,hH,sS,mask-3.png,mask-1.png,s,0,0.9743856000714004,h,0,0.83731359988451,0.05069650011137128,0.049622900085523725,0.09837909997440875,0.09856100007891655,0.29619519994594157
RSVPLG03,km,20251113-093226,1.0.2,20251113-090007,741,Experiment,Both,1,Automatic,main,63,20251113-093927,local,local,750,S,S,A,A,A-S.png,A-S.png,sS,sS,mask-2.png,mask-3.png,s,1,1.8852081000804901,h,0,0.020569599932059646,0.0509360998403281,0.047943799989297986,0.09975079982541502,0.09753590007312596,0.7583776998799294
RSVPLG03,km,20251113-093226,1.0.2,20251113-090007,741,Experiment,Both,1,Automatic,main,64,20251113-093933,global,global,750,S,S,E,E,S-E.png,S-E.png,sS,sS,mask-2.png,mask-3.png,s,1,1.05807949998416,s,1,0.12508999998681247,0.047794600017368793,0.049757400061935186,0.09769940003752708,0.09906490007415414,0.7557852000463754
RSVPLG03,km,20251113-093226,1.0.2,20251113-090007,741,Experiment,Both,1,Automatic,main,65,20251113-093938,global,local,750,S,H,A,A,S-A.png,A-H.png,sS,hH,mask-2.png,mask-1.png,h,0,0.02105260011740029,s,0,0.35713339992798865,0.048419800121337175,0.05002790014259517,0.09716910007409751,0.10000790003687143,0.7550621000118554
RSVPLG03,km,20251113-093226,1.0.2,20251113-090007,741,Experiment,Both,1,Automatic,main,66,20251113-093943,local,global,750,H,H,E,E,E-H.png,H-E.png,hH,hH,mask-3.png,mask-4.png,s,0,1.2643847002182156,s,0,0.25556880002841353,0.05070469994097948,0.049739900045096874,0.09865660010837018,0.09763820003718138,0.7567739000078291
RSVPLG03,km,20251113-093226,1.0.2,20251113-090007,741,Experiment,Both,1,Automatic,main,67,20251113-093949,local,global,300,S,S,A,A,A-S.png,S-A.png,sS,sS,mask-1.png,mask-4.png,s,1,2.62795009999536,h,0,0.1569584000390023,0.04664089996367693,0.050624100025743246,0.09753529983572662,0.09865419985726476,0.29404329997487366
RSVPLG03,km,20251113-093226,1.0.2,20251113-090007,741,Experiment,Both,1,Automatic,main,68,20251113-093955,global,local,750,S,H,A,A,S-A.png,A-H.png,sS,hH,mask-4.png,mask-2.png,s,1,1.083248200127855,h,1,0.02852099994197488,0.048976900056004524,0.04986759996972978,0.09903759998269379,0.09979530004784465,0.7556831000838429
RSVPLG03,km,20251113-093226,1.0.2,20251113-090007,741,Experiment,Both,1,Automatic,main,69,20251113-094000,local,global,750,S,H,E,A,E-S.png,H-A.png,sS,hH,mask-4.png,mask-3.png,s,1,1.2608525000978261,h,1,0.061400300124660134,0.04853769997134805,0.0499273999594152,0.09916440001688898,0.09667559992522001,0.7564940999727696
RSVPLG03,km,20251113-093226,1.0.2,20251113-090007,741,Experiment,Both,1,Automatic,main,70,20251113-094006,local,global,750,H,S,A,A,A-H.png,S-A.png,hH,sS,mask-1.png,mask-3.png,s,0,0.8933536000549793,h,0,0.10955100017599761,0.047946800012141466,0.04950649989768863,0.0980124999769032,0.09955090004950762,0.7546655000187457
RSVPLG03,km,20251113-093226,1.0.2,20251113-090007,741,Experiment,Both,1,Automatic,main,71,20251113-094012,global,local,750,H,S,E,A,H-E.png,A-S.png,hH,sS,mask-2.png,mask-2.png,h,1,1.067381199914962,h,0,0.868078799918294,0.048915900057181716,0.0478838998824358,0.09804390021599829,0.09726840001530945,0.7562407001387328
RSVPLG03,km,20251113-093226,1.0.2,20251113-090007,741,Experiment,Both,1,Automatic,main,72,20251113-094017,local,local,300,S,S,E,A,E-S.png,A-S.png,sS,sS,mask-1.png,mask-4.png,s,1,0.6895826999098063,s,1,0.14672970003448427,0.047926099970936775,0.04825109988451004,0.09681569994427264,0.09801339986734092,0.294763799989596
RSVPLG03,km,20251113-093226,1.0.2,20251113-090007,741,Experiment,Both,1,Automatic,main,73,20251113-094022,global,global,750,H,S,A,E,H-A.png,S-E.png,hH,sS,mask-4.png,mask-4.png,h,1,0.125321599887684,s,1,0.4545064999256283,0.048083199886605144,0.04996069986373186,0.09790940000675619,0.09912959998473525,0.7546053000260144
RSVPLG03,km,20251113-093226,1.0.2,20251113-090007,741,Experiment,Both,1,Automatic,main,74,20251113-094027,local,local,750,H,H,A,A,A-H.png,A-H.png,hH,hH,mask-2.png,mask-3.png,h,1,0.6355708001647145,s,0,0.01438319985754788,0.04809249984100461,0.04783120006322861,0.09790389984846115,0.09783399989828467,0.7565514999441803
RSVPLG03,km,20251113-093226,1.0.2,20251113-090007,741,Experiment,Both,1,Automatic,main,75,20251113-094032,local,local,300,S,H,E,A,E-S.png,A-H.png,sS,hH,mask-4.png,mask-3.png,h,0,1.2234378000721335,h,1,0.9002145999111235,0.04900270001962781,0.0497592999599874,0.09888790012337267,0.09768899995833635,0.2966178001370281
RSVPLG03,km,20251113-093226,1.0.2,20251113-090007,741,Experiment,Both,1,Automatic,main,76,20251113-094057,global,local,300,H,S,A,E,H-A.png,E-S.png,hH,sS,mask-1.png,mask-3.png,h,1,21.542191199958324,h,0,0.45835010008886456,0.048942399909719825,0.04975800006650388,0.09882789989933372,0.09967150003649294,0.29486269992776215
RSVPLG03,km,20251113-093226,1.0.2,20251113-090007,741,Experiment,Both,1,Automatic,main,77,20251113-094102,local,global,750,S,H,A,E,A-S.png,H-E.png,sS,hH,mask-3.png,mask-2.png,s,1,1.0039633999112993,s,0,0.21405930002219975,0.05068390001542866,0.049939199816435575,0.10042049991898239,0.09804049995727837,0.7572415000759065
RSVPLG03,km,20251113-093226,1.0.2,20251113-090007,741,Experiment,Both,1,Automatic,main,78,20251113-094107,global,local,300,S,S,A,A,S-A.png,A-S.png,sS,sS,mask-4.png,mask-4.png,h,0,0.26376920007169247,s,1,1.0406027000863105,0.048899299930781126,0.04945579986087978,0.09964499995112419,0.09801749978214502,0.29642060003243387
RSVPLG03,km,20251113-093226,1.0.2,20251113-090007,741,Experiment,Both,1,Automatic,main,79,20251113-094112,global,local,750,H,S,A,E,H-A.png,E-S.png,hH,sS,mask-1.png,mask-3.png,s,0,1.823629799997434,h,0,0.8883213000372052,0.04796530003659427,0.04869879991747439,0.09795830002985895,0.09865639987401664,0.755937600042671
RSVPLG03,km,20251113-093226,1.0.2,20251113-090007,741,Experiment,Both,1,Automatic,main,80,20251113-094118,global,global,300,S,S,A,E,S-A.png,S-E.png,sS,sS,mask-3.png,mask-4.png,s,1,0.4185500000603497,s,1,0.09153739991597831,0.04782880004495382,0.049775300081819296,0.09722570003941655,0.09770300006493926,0.2950975999701768
RSVPLG03,km,20251113-093226,1.0.2,20251113-090007,741,Experiment,Both,1,Automatic,main,81,20251113-094122,global,global,750,S,H,A,A,S-A.png,H-A.png,sS,hH,mask-4.png,mask-1.png,s,1,1.0534924000967294,h,1,0.05357180000282824,0.050012600142508745,0.049829799914732575,0.09830660000443459,0.09769599977880716,0.7559004002250731
RSVPLG03,km,20251113-093226,1.0.2,20251113-090007,741,Experiment,Both,1,Automatic,main,82,20251113-094127,global,local,300,H,H,E,A,H-E.png,A-H.png,hH,hH,mask-1.png,mask-3.png,s,0,0.47758249985054135,h,1,0.6862840999383479,0.0487447998020798,0.049459399888291955,0.09754629991948605,0.09895160002633929,0.29490859992802143
RSVPLG03,km,20251113-093226,1.0.2,20251113-090007,741,Experiment,Both,1,Automatic,main,83,20251113-094132,global,local,300,H,H,E,A,H-E.png,A-H.png,hH,hH,mask-4.png,mask-2.png,h,1,0.46628149994648993,h,1,0.10114370007067919,0.049547099974006414,0.049759200075641274,0.09957069996744394,0.09766290010884404,0.2962638000026345
RSVPLG03,km,20251113-093226,1.0.2,20251113-090007,741,Experiment,Both,1,Automatic,main,84,20251113-094136,local,local,300,S,H,A,A,A-S.png,A-H.png,sS,hH,mask-2.png,mask-2.png,h,0,3.350773299811408,h,1,0.204440200002864,0.049547400092706084,0.047713200096040964,0.09883589996024966,0.09896240010857582,0.2955388999544084
RSVPLG03,km,20251113-093226,1.0.2,20251113-090007,741,Experiment,Both,1,Automatic,main,85,20251113-094144,local,local,750,S,S,E,A,E-S.png,A-S.png,sS,sS,mask-1.png,mask-3.png,s,1,0.5286898000631481,s,1,0.11002779984846711,0.05002019996754825,0.049075799994170666,0.09801610000431538,0.09811179991811514,0.7554484000429511
RSVPLG03,km,20251113-093226,1.0.2,20251113-090007,741,Experiment,Both,1,Automatic,main,86,20251113-094148,global,global,750,H,S,E,A,H-E.png,S-A.png,hH,sS,mask-1.png,mask-1.png,h,1,2.181302099954337,h,0,0.1378270999994129,0.04979220009408891,0.049774000188335776,0.09874220006167889,0.09967490006238222,0.7546572999563068
RSVPLG03,km,20251113-093226,1.0.2,20251113-090007,741,Experiment,Both,1,Automatic,main,87,20251113-094155,global,global,300,H,H,A,A,H-A.png,H-A.png,hH,hH,mask-1.png,mask-1.png,s,0,3.6049072998575866,s,0,0.15796309988945723,0.049751800019294024,0.047745499992743134,0.09960839990526438,0.09771010000258684,0.29646910005249083
RSVPLG03,km,20251113-093226,1.0.2,20251113-090007,741,Experiment,Both,1,Automatic,main,88,20251113-094202,local,global,750,S,S,E,E,E-S.png,S-E.png,sS,sS,mask-4.png,mask-3.png,h,0,1.2449527999851853,s,1,0.004635500023141503,0.048808799823746085,0.04984460002742708,0.09995659999549389,0.09934770013205707,0.7557698998134583
RSVPLG03,km,20251113-093226,1.0.2,20251113-090007,741,Experiment,Both,1,Automatic,main,89,20251113-094208,global,global,750,H,S,A,E,H-A.png,S-E.png,hH,sS,mask-4.png,mask-2.png,h,1,2.3056926999706775,h,0,0.7979113000910729,0.04890700010582805,0.049096299801021814,0.0966017001774162,0.09826429979875684,0.7555447001941502
RSVPLG03,km,20251113-093226,1.0.2,20251113-090007,741,Experiment,Both,1,Automatic,main,90,20251113-094215,local,local,300,H,S,E,A,E-H.png,A-S.png,hH,sS,mask-1.png,mask-4.png,h,1,0.6299765999428928,h,0,0.6772803999483585,0.0475988001562655,0.04950129985809326,0.09804070019163191,0.09875499992631376,0.2938652001321316
RSVPLG03,km,20251113-093226,1.0.2,20251113-090007,741,Experiment,Both,1,Automatic,main,91,20251113-094220,local,global,300,H,S,A,E,A-H.png,S-E.png,hH,sS,mask-4.png,mask-4.png,s,0,0.8524283000733703,s,1,0.197504400042817,0.04857120011001825,0.04940850008279085,0.09938420006074011,0.09896289999596775,0.29525110009126365
RSVPLG03,km,20251113-093226,1.0.2,20251113-090007,741,Experiment,Both,1,Automatic,main,92,20251113-094225,global,global,750,S,S,E,E,S-E.png,S-E.png,sS,sS,mask-2.png,mask-2.png,s,1,0.8174797999672592,s,1,0.1533608001191169,0.05032550008036196,0.04999520001001656,0.09824070008471608,0.09793929988518357,0.756727300118655
RSVPLG03,km,20251113-093226,1.0.2,20251113-090007,741,Experiment,Both,1,Automatic,main,93,20251113-094230,local,global,750,H,S,E,A,E-H.png,S-A.png,hH,sS,mask-1.png,mask-2.png,h,1,2.031993299955502,s,1,0.12732740002684295,0.04789089993573725,0.04983990010805428,0.0979352998547256,0.09863240015693009,0.7551731998100877
RSVPLG03,km,20251113-093226,1.0.2,20251113-090007,741,Experiment,Both,1,Automatic,main,94,20251113-094236,global,global,750,H,S,E,A,H-E.png,S-A.png,hH,sS,mask-2.png,mask-2.png,h,1,0.8786988002248108,s,1,1.7080075000412762,0.049379099858924747,0.0486390998121351,0.09934359998442233,0.09861919982358813,0.756838700035587
RSVPLG03,km,20251113-093226,1.0.2,20251113-090007,741,Experiment,Both,1,Automatic,main,95,20251113-094243,global,global,750,S,S,E,A,S-E.png,S-A.png,sS,sS,mask-3.png,mask-2.png,s,1,1.573522200109437,s,1,0.14267989993095398,0.048780899960547686,0.048945399932563305,0.09776440006680787,0.09900119993835688,0.7561206000391394
RSVPLG03,km,20251113-093226,1.0.2,20251113-090007,741,Experiment,Both,1,Automatic,main,96,20251113-094249,global,global,300,S,S,A,E,S-A.png,S-E.png,sS,sS,mask-1.png,mask-1.png,h,0,1.5369645999744534,s,1,0.06858680001460016,0.05061029992066324,0.049605200067162514,0.09916700003668666,0.09936719993129373,0.29649029998108745
RSVPLG03,km,20251113-093226,1.0.2,20251113-090007,741,Experiment,Both,1,Automatic,main,97,20251113-094254,local,local,750,S,S,E,A,E-S.png,A-S.png,sS,sS,mask-3.png,mask-1.png,s,1,0.849109899951145,s,1,0.2834375000093132,0.04982260009273887,0.04815499996766448,0.09865269996225834,0.09800180001184344,0.756214200053364
RSVPLG03,km,20251113-093226,1.0.2,20251113-090007,741,Experiment,Both,1,Automatic,main,98,20251113-094300,global,global,750,S,H,A,E,S-A.png,H-E.png,sS,hH,mask-2.png,mask-2.png,h,0,0.5699088000692427,s,0,0.534432000014931,0.04878209996968508,0.05090630007907748,0.09866869985125959,0.1000015998724848,0.7550882999785244
RSVPLG03,km,20251113-093226,1.0.2,20251113-090007,741,Experiment,Both,1,Automatic,main,99,20251113-094305,local,local,300,S,S,A,E,A-S.png,E-S.png,sS,sS,mask-3.png,mask-3.png,s,1,0.8109389001037925,s,1,0.1097209001891315,0.048930800054222345,0.04788209986872971,0.09897159994579852,0.09789550001733005,0.295933400047943
RSVPLG03,km,20251113-093226,1.0.2,20251113-090007,741,Experiment,Both,1,Automatic,main,100,20251113-094310,global,global,300,H,H,E,E,H-E.png,H-E.png,hH,hH,mask-1.png,mask-2.png,h,1,0.7006332001183182,h,1,0.14272180013358593,0.04891930008307099,0.04945910000242293,0.09972010017372668,0.0987603000830859,0.29584080004133284
RSVPLG03,km,20251113-094348,1.0.2,20251113-090007,741,Experiment,Both,1,Automatic,warmup,1,20251113-094414,global,global,750,H,S,E,A,H-E.png,S-A.png,hH,sS,mask-3.png,mask-3.png,h,1,1.3775446999352425,s,1,0.15742990002036095,0.03988149994984269,0.04989399993792176,0.09007439995184541,0.10089690005406737,0.740506700007245
RSVPLG03,km,20251113-094348,1.0.2,20251113-090007,741,Experiment,Both,1,Automatic,warmup,2,20251113-094420,global,local,750,H,S,E,A,H-E.png,A-S.png,hH,sS,mask-4.png,mask-2.png,h,1,0.3129396999720484,s,1,0.09905879991129041,0.04994349996559322,0.04739070008508861,0.09989650011993945,0.0984255000948906,0.7501463000662625
RSVPLG03,km,20251113-094348,1.0.2,20251113-090007,741,Experiment,Both,1,Automatic,warmup,3,20251113-094425,local,local,300,S,H,E,E,E-S.png,E-H.png,sS,hH,mask-3.png,mask-4.png,s,1,0.24932539998553693,s,0,0.23248389991931617,0.04982799990102649,0.04958139988593757,0.09868369996547699,0.09834459982812405,0.30014619999565184
RSVPLG03,km,20251113-094348,1.0.2,20251113-090007,741,Experiment,Both,1,Automatic,warmup,4,20251113-094429,local,global,750,S,H,A,E,A-S.png,H-E.png,sS,hH,mask-4.png,mask-2.png,h,0,0.9332032001111656,s,0,0.0870656999759376,0.0493049998767674,0.049527799943462014,0.09939450002275407,0.09854059992358088,0.7487961000297219
RSVPLG03,km,20251113-094348,1.0.2,20251113-090007,741,Experiment,Both,1,Automatic,main,5,20251113-094434,local,global,750,S,S,A,A,A-S.png,S-A.png,sS,sS,mask-1.png,mask-2.png,s,1,0.39470580010674894,s,1,0.25418859999626875,0.04992390004917979,0.04949109978042543,0.099138000048697,0.10053549986332655,0.7484507001936436
RSVPLG03,km,20251113-094348,1.0.2,20251113-090007,741,Experiment,Both,1,Automatic,main,6,20251113-094439,local,global,750,H,S,E,A,E-H.png,S-A.png,hH,sS,mask-2.png,mask-3.png,h,1,1.1028421001974493,s,1,0.05354980006814003,0.04972989996895194,0.04970750003121793,0.09825309994630516,0.09959220001474023,0.7482161000370979
RSVPLG03,km,20251113-094348,1.0.2,20251113-090007,741,Experiment,Both,1,Automatic,main,7,20251113-094445,local,global,750,S,H,E,E,E-S.png,H-E.png,sS,hH,mask-1.png,mask-2.png,s,1,0.6357917999848723,s,0,0.1501291999593377,0.04982610000297427,0.049933800008147955,0.09983670013025403,0.09987889998592436,0.7483223001472652
RSVPLG03,km,20251113-094348,1.0.2,20251113-090007,741,Experiment,Both,1,Automatic,main,8,20251113-094450,local,global,750,S,H,A,A,A-S.png,H-A.png,sS,hH,mask-3.png,mask-1.png,s,1,0.8485517001245171,h,1,0.8200236998964101,0.05175230000168085,0.05000129994004965,0.10046999994665384,0.10003179986961186,0.7500986000522971
RSVPLG03,km,20251113-094348,1.0.2,20251113-090007,741,Experiment,Both,1,Automatic,main,9,20251113-094456,local,global,300,H,S,A,E,A-H.png,S-E.png,hH,sS,mask-3.png,mask-1.png,s,0,0.7357874000445008,h,0,0.9400323999579996,0.05008190008811653,0.048064100090414286,0.10023090010508895,0.09768779994919896,0.300612400053069
RSVPLG03,km,20251113-094348,1.0.2,20251113-090007,741,Experiment,Both,1,Automatic,main,10,20251113-094501,global,local,300,H,H,E,A,H-E.png,A-H.png,hH,hH,mask-1.png,mask-3.png,h,1,1.0898086000233889,s,0,0.031149899819865823,0.051597199868410826,0.050463000079616904,0.1002458999864757,0.10100830020383,0.3001036997884512
RSVPLG03,km,20251113-094348,1.0.2,20251113-090007,741,Experiment,Both,1,Automatic,main,11,20251113-094506,local,local,750,S,S,A,A,A-S.png,A-S.png,sS,sS,mask-1.png,mask-4.png,h,0,1.0446777001488954,s,1,0.021385099971666932,0.05023719999007881,0.04995479993522167,0.09917860012501478,0.10103269992396235,0.7500062000472099
RSVPLG03,km,20251113-094348,1.0.2,20251113-090007,741,Experiment,Both,1,Automatic,main,12,20251113-094512,global,global,750,H,H,A,A,H-A.png,H-A.png,hH,hH,mask-4.png,mask-2.png,h,1,0.6626889000181109,h,1,0.14965260005556047,0.04962250008247793,0.04991389997303486,0.09984629997052252,0.10067089996300638,0.7488176000770181
RSVPLG03,km,20251113-094348,1.0.2,20251113-090007,741,Experiment,Both,1,Automatic,main,13,20251113-094517,local,local,750,H,H,A,A,A-H.png,A-H.png,hH,hH,mask-1.png,mask-1.png,s,0,2.4297028998844326,s,0,0.15021260012872517,0.05170209985226393,0.049630999797955155,0.10102129983715713,0.10077959997579455,0.7498486000113189
RSVPLG03,km,20251113-094348,1.0.2,20251113-090007,741,Experiment,Both,1,Automatic,main,14,20251113-094523,local,global,300,S,H,A,E,A-S.png,H-E.png,sS,hH,mask-1.png,mask-4.png,h,0,1.07015460007824,h,1,0.22009499999694526,0.04879659996367991,0.04861490009352565,0.09974370012059808,0.09996629995293915,0.29840580001473427
RSVPLG03,km,20251113-094348,1.0.2,20251113-090007,741,Experiment,Both,1,Automatic,main,15,20251113-094528,global,global,300,H,H,A,A,H-A.png,H-A.png,hH,hH,mask-4.png,mask-3.png,h,1,0.6486486999783665,s,0,0.32003209996037185,0.049981100019067526,0.05163609981536865,0.100079600000754,0.10054220003075898,0.2988681001588702
RSVPLG03,km,20251113-094348,1.0.2,20251113-090007,741,Experiment,Both,1,Automatic,main,16,20251113-094533,local,local,750,H,S,E,E,E-H.png,E-S.png,hH,sS,mask-4.png,mask-2.png,s,0,0.9791806000284851,h,0,0.04699599999003112,0.04997930000536144,0.051274599973112345,0.10025470005348325,0.10120810009539127,0.7483570999465883
RSVPLG03,km,20251113-094348,1.0.2,20251113-090007,741,Experiment,Both,1,Automatic,main,17,20251113-094538,global,local,300,H,S,E,E,H-E.png,E-S.png,hH,sS,mask-3.png,mask-1.png,h,1,0.5496215000748634,h,0,0.19495409983210266,0.050351399928331375,0.04989790008403361,0.10030720010399818,0.09879450011067092,0.300012799911201
RSVPLG03,km,20251113-094348,1.0.2,20251113-090007,741,Experiment,Both,1,Automatic,main,18,20251113-094543,global,local,750,S,S,A,A,S-A.png,A-S.png,sS,sS,mask-3.png,mask-3.png,s,1,0.3498496999964118,h,0,1.0762796001508832,0.04981200001202524,0.04970630002208054,0.0994059001095593,0.10000909981317818,0.7498318001162261
RSVPLG03,km,20251113-094348,1.0.2,20251113-090007,741,Experiment,Both,1,Automatic,main,19,20251113-094549,global,local,300,S,S,A,A,S-A.png,A-S.png,sS,sS,mask-1.png,mask-2.png,h,0,1.3265758999623358,s,1,0.5014076998922974,0.0497787999920547,0.048495500115677714,0.09871249995194376,0.10000090021640062,0.2996505999471992
RSVPLG03,km,20251113-094348,1.0.2,20251113-090007,741,Experiment,Both,1,Automatic,main,20,20251113-094554,local,local,300,S,H,A,A,A-S.png,A-H.png,sS,hH,mask-3.png,mask-1.png,h,0,2.493940799962729,s,0,0.0791686000302434,0.05001190002076328,0.04910639999434352,0.10001419996842742,0.09999580006115139,0.3004949998576194
RSVPLG03,km,20251113-094348,1.0.2,20251113-090007,741,Experiment,Both,1,Automatic,main,21,20251113-094601,local,local,750,H,H,E,E,E-H.png,E-H.png,hH,hH,mask-3.png,mask-4.png,s,0,1.4692887000273913,s,0,0.1174786000046879,0.04895179998129606,0.050683399895206094,0.09842109982855618,0.10097429994493723,0.74747069994919
RSVPLG03,km,20251113-094348,1.0.2,20251113-090007,741,Experiment,Both,1,Automatic,main,22,20251113-094606,global,local,750,S,S,E,E,S-E.png,E-S.png,sS,sS,mask-2.png,mask-2.png,h,0,0.5043236999772489,s,1,0.1264788000844419,0.05018160003237426,0.04946439992636442,0.09825169993564487,0.10017820005305111,0.7475326999556273
RSVPLG03,km,20251113-094348,1.0.2,20251113-090007,741,Experiment,Both,1,Automatic,main,23,20251113-094611,local,global,750,S,S,A,A,A-S.png,S-A.png,sS,sS,mask-1.png,mask-4.png,s,1,1.2370414000470191,h,0,0.30331390001811087,0.04975329991430044,0.05092379986308515,0.10046049999073148,0.10094629996456206,0.7491025000344962
RSVPLG03,km,20251113-094348,1.0.2,20251113-090007,741,Experiment,Both,1,Automatic,main,24,20251113-094617,local,global,750,S,S,A,A,A-S.png,S-A.png,sS,sS,mask-2.png,mask-2.png,s,1,2.0847194001544267,s,1,0.32650849991478026,0.05080740014091134,0.04980989987961948,0.10073920013383031,0.09974940004758537,0.7495200000703335
RSVPLG03,km,20251113-094348,1.0.2,20251113-090007,741,Experiment,Both,1,Automatic,main,25,20251113-094624,local,local,750,S,H,E,A,E-S.png,A-H.png,sS,hH,mask-3.png,mask-3.png,s,1,0.4714923999272287,s,0,0.18967680004425347,0.05041849985718727,0.04842709982767701,0.10190749983303249,0.09838969982229173,0.7516636999789625
RSVPLG03,km,20251113-094348,1.0.2,20251113-090007,741,Experiment,Both,1,Automatic,main,26,20251113-094647,local,local,750,S,S,E,A,E-S.png,A-S.png,sS,sS,mask-3.png,mask-1.png,s,1,1.5305572000797838,h,0,0.05355560011230409,0.050810900051146746,0.049566400004550815,0.09975400008261204,0.09951299987733364,0.749995700083673
RSVPLG03,km,20251113-094348,1.0.2,20251113-090007,741,Experiment,Both,1,Automatic,main,27,20251113-094653,local,global,300,S,S,A,A,A-S.png,S-A.png,sS,sS,mask-4.png,mask-4.png,s,1,0.2186253999825567,h,0,0.005810000002384186,0.05011509987525642,0.05049789999611676,0.098021499812603,0.10179850016720593,0.29676909977570176
RSVPLG03,km,20251113-094348,1.0.2,20251113-090007,741,Experiment,Both,1,Automatic,main,28,20251113-094657,local,local,300,H,S,A,A,A-H.png,A-S.png,hH,sS,mask-4.png,mask-2.png,h,1,0.14321139990352094,h,0,0.8558423998765647,0.04969849996268749,0.04969920008443296,0.10008869995363057,0.10072060022503138,0.29897859995253384
RSVPLG03,km,20251113-094348,1.0.2,20251113-090007,741,Experiment,Both,1,Automatic,main,29,20251113-094702,global,local,750,H,S,A,A,H-A.png,A-S.png,hH,sS,mask-3.png,mask-3.png,s,0,1.3054079001303762,h,0,0.09309079986996949,0.04885150003246963,0.05136570008471608,0.09878770005889237,0.10079680010676384,0.7476387000642717
RSVPLG03,km,20251113-094348,1.0.2,20251113-090007,741,Experiment,Both,1,Automatic,main,30,20251113-094708,local,local,300,S,S,A,A,A-S.png,A-S.png,sS,sS,mask-2.png,mask-2.png,h,0,1.3060938001144677,s,1,0.10156910005025566,0.04844129993580282,0.049459500005468726,0.09861979982815683,0.10006020008586347,0.2981176998000592
RSVPLG03,km,20251113-094348,1.0.2,20251113-090007,741,Experiment,Both,1,Automatic,main,31,20251113-094713,global,local,750,S,S,E,E,S-E.png,E-S.png,sS,sS,mask-2.png,mask-2.png,h,0,0.28366580000147223,s,1,1.0616399999707937,0.04944130009971559,0.05010650004260242,0.09907690016552806,0.10032319999299943,0.7480652001686394
RSVPLG03,km,20251113-094348,1.0.2,20251113-090007,741,Experiment,Both,1,Automatic,main,32,20251113-094718,local,global,300,H,H,A,E,A-H.png,H-E.png,hH,hH,mask-2.png,mask-1.png,s,0,2.1410846998915076,s,0,1.1600790999364108,0.04791929991915822,0.0498131001368165,0.09816249995492399,0.09973500017076731,0.297962199896574
RSVPLG03,km,20251113-094348,1.0.2,20251113-090007,741,Experiment,Both,1,Automatic,main,33,20251113-094726,global,global,750,H,S,E,E,H-E.png,S-E.png,hH,sS,mask-1.png,mask-3.png,h,1,0.8172893000300974,s,1,0.0290973000228405,0.05081510008312762,0.049898300087079406,0.10021050018258393,0.10003009997308254,0.7495782000478357
RSVPLG03,km,20251113-094348,1.0.2,20251113-090007,741,Experiment,Both,1,Automatic,main,34,20251113-094731,local,global,750,H,H,A,A,A-H.png,H-A.png,hH,hH,mask-2.png,mask-4.png,h,1,0.7299705999903381,s,0,0.012515699956566095,0.04955779993906617,0.05016979994252324,0.09950729995034635,0.0999976999592036,0.7491687000729144
RSVPLG03,km,20251113-094348,1.0.2,20251113-090007,741,Experiment,Both,1,Automatic,main,35,20251113-094736,global,global,300,H,H,A,E,H-A.png,H-E.png,hH,hH,mask-3.png,mask-2.png,h,1,0.5006945999339223,h,1,0.15738180000334978,0.04979389999061823,0.049775099847465754,0.0997295998968184,0.09869290003553033,0.2996938000433147
RSVPLG03,km,20251113-094348,1.0.2,20251113-090007,741,Experiment,Both,1,Automatic,main,36,20251113-094740,global,global,300,H,H,A,E,H-A.png,H-E.png,hH,hH,mask-1.png,mask-4.png,h,1,0.5578505999874324,h,1,0.1778236001264304,0.04903870006091893,0.048221000004559755,0.10006939992308617,0.10041390010155737,0.299212499987334
RSVPLG03,km,20251113-094348,1.0.2,20251113-090007,741,Experiment,Both,1,Automatic,main,37,20251113-094745,local,local,300,H,H,A,A,A-H.png,A-H.png,hH,hH,mask-1.png,mask-4.png,h,1,0.7898071999661624,s,0,1.5632734999526292,0.04863079986535013,0.050006299978122115,0.09780199988745153,0.10067180008627474,0.2985481999348849
RSVPLG03,km,20251113-094348,1.0.2,20251113-090007,741,Experiment,Both,1,Automatic,main,38,20251113-094751,global,global,750,S,S,A,E,S-A.png,S-E.png,sS,sS,mask-3.png,mask-2.png,h,0,1.115090699866414,s,1,0.3185322000645101,0.05010789982043207,0.049816199811175466,0.10001889988780022,0.10073989978991449,0.748547499999404
RSVPLG03,km,20251113-094348,1.0.2,20251113-090007,741,Experiment,Both,1,Automatic,main,39,20251113-094757,local,global,300,H,S,E,A,E-H.png,S-A.png,hH,sS,mask-4.png,mask-4.png,s,0,0.8616829998791218,h,0,0.09485129988752306,0.049905499909073114,0.04930919990874827,0.0986399999819696,0.10088520008139312,0.29851330001838505
RSVPLG03,km,20251113-094348,1.0.2,20251113-090007,741,Experiment,Both,1,Automatic,main,40,20251113-094801,local,local,300,H,H,E,A,E-H.png,A-H.png,hH,hH,mask-4.png,mask-3.png,s,0,1.0539092998951674,h,1,0.022691699909046292,0.04860440012998879,0.04986759996972978,0.10055080009624362,0.10055040009319782,0.29832930001430213
RSVPLG03,km,20251113-094348,1.0.2,20251113-090007,741,Experiment,Both,1,Automatic,main,41,20251113-094806,global,local,750,S,S,E,A,S-E.png,A-S.png,sS,sS,mask-2.png,mask-3.png,s,1,1.3912331000901759,h,0,0.16697189980186522,0.0492958000395447,0.048600499983876944,0.09933930006809533,0.09863250004127622,0.7495057000778615
RSVPLG03,km,20251113-094348,1.0.2,20251113-090007,741,Experiment,Both,1,Automatic,main,42,20251113-094812,local,global,300,H,H,E,E,E-H.png,H-E.png,hH,hH,mask-3.png,mask-4.png,s,0,1.4504305999726057,h,1,0.09589240001514554,0.05075719999149442,0.04974199994467199,0.10090640000998974,0.09973810007795691,0.29926300002261996
RSVPLG03,km,20251113-094348,1.0.2,20251113-090007,741,Experiment,Both,1,Automatic,main,43,20251113-094817,global,local,300,H,H,A,A,H-A.png,A-H.png,hH,hH,mask-2.png,mask-1.png,h,1,0.7559108999557793,s,0,0.14948609983548522,0.04888040013611317,0.05092880013398826,0.09995139995589852,0.10082649998366833,0.2985072999726981
RSVPLG03,km,20251113-094348,1.0.2,20251113-090007,741,Experiment,Both,1,Automatic,main,44,20251113-094822,local,local,750,H,S,E,E,E-H.png,E-S.png,hH,sS,mask-2.png,mask-1.png,s,0,0.4956147999037057,h,0,0.6445601000450552,0.050726900110021234,0.05097330012358725,0.1004967000335455,0.10060270014218986,0.7480184000451118
RSVPLG03,km,20251113-094348,1.0.2,20251113-090007,741,Experiment,Both,1,Automatic,main,45,20251113-094828,global,local,300,H,S,E,A,H-E.png,A-S.png,hH,sS,mask-2.png,mask-1.png,s,0,3.7520147999748588,h,0,0.06951009994372725,0.04888799996115267,0.04799210000783205,0.09808599995449185,0.09969589998945594,0.29885070002637804
RSVPLG03,km,20251113-094348,1.0.2,20251113-090007,741,Experiment,Both,1,Automatic,main,46,20251113-094835,local,local,300,S,H,E,E,E-S.png,E-H.png,sS,hH,mask-2.png,mask-2.png,s,1,1.1548939999192953,h,1,0.13535319990478456,0.04883380001410842,0.049510500160977244,0.10015890002250671,0.09803880006074905,0.29953909991309047
RSVPLG03,km,20251113-094348,1.0.2,20251113-090007,741,Experiment,Both,1,Automatic,main,47,20251113-094840,global,local,750,H,H,E,E,H-E.png,E-H.png,hH,hH,mask-4.png,mask-4.png,h,1,2.007658600108698,s,0,0.14362549991346896,0.05083369999192655,0.048613599967211485,0.09962439979426563,0.10058399988338351,0.7504946999251842
RSVPLG03,km,20251113-094348,1.0.2,20251113-090007,741,Experiment,Both,1,Automatic,main,48,20251113-094847,global,global,750,S,H,A,A,S-A.png,H-A.png,sS,hH,mask-2.png,mask-4.png,h,0,2.554068900179118,h,1,0.3743948000483215,0.04942749999463558,0.050966500071808696,0.09883429994806647,0.10091919987462461,0.749195700045675
RSVPLG03,km,20251113-094348,1.0.2,20251113-090007,741,Experiment,Both,1,Automatic,main,49,20251113-094854,local,local,750,H,H,E,A,E-H.png,A-H.png,hH,hH,mask-2.png,mask-3.png,s,0,0.7037926998455077,h,1,0.15983040002174675,0.04979540011845529,0.04977190005593002,0.09866120014339685,0.09969240007922053,0.7484714000020176
RSVPLG03,km,20251113-094348,1.0.2,20251113-090007,741,Experiment,Both,1,Automatic,main,50,20251113-094859,global,global,750,H,H,E,E,H-E.png,H-E.png,hH,hH,mask-1.png,mask-3.png,s,0,0.8536157000344247,s,0,0.22977899992838502,0.04961879993788898,0.050886400043964386,0.09952549985609949,0.09980730013921857,0.7476048998069018
RSVPLG03,km,20251113-094348,1.0.2,20251113-090007,741,Experiment,Both,1,Automatic,main,51,20251113-094928,global,global,750,H,S,A,E,H-A.png,S-E.png,hH,sS,mask-2.png,mask-2.png,s,0,0.9533057000953704,h,0,1.0972023999784142,0.05032099992968142,0.048862299881875515,0.09922620002180338,0.09987299982458353,0.7498109000734985
RSVPLG03,km,20251113-094348,1.0.2,20251113-090007,741,Experiment,Both,1,Automatic,main,52,20251113-094933,local,global,300,H,S,A,E,A-H.png,S-E.png,hH,sS,mask-3.png,mask-2.png,s,0,1.0204078000970185,h,0,0.054492299910634756,0.04934550006873906,0.05046159983612597,0.09895400004461408,0.09911699988879263,0.2990177001338452
RSVPLG03,km,20251113-094348,1.0.2,20251113-090007,741,Experiment,Both,1,Automatic,main,53,20251113-094938,local,local,300,S,S,A,A,A-S.png,A-S.png,sS,sS,mask-3.png,mask-3.png,s,1,1.082985500106588,h,0,0.03834010008722544,0.04999039997346699,0.04851990006864071,0.10035429988056421,0.09899630001746118,0.3013293999247253
RSVPLG03,km,20251113-094348,1.0.2,20251113-090007,741,Experiment,Both,1,Automatic,main,54,20251113-094943,local,global,750,S,H,E,E,E-S.png,H-E.png,sS,hH,mask-2.png,mask-3.png,h,0,0.7176634999923408,h,1,1.3806954000610858,0.04983359994366765,0.050975900143384933,0.09937259997241199,0.10002880007959902,0.7487406998407096
RSVPLG03,km,20251113-094348,1.0.2,20251113-090007,741,Experiment,Both,1,Automatic,main,55,20251113-094949,global,local,300,H,H,E,A,H-E.png,A-H.png,hH,hH,mask-1.png,mask-3.png,h,1,1.011487500043586,s,0,0.2445952999405563,0.04679509997367859,0.04946970008313656,0.09670350002124906,0.09976110002025962,0.29701169999316335
RSVPLG03,km,20251113-094348,1.0.2,20251113-090007,741,Experiment,Both,1,Automatic,main,56,20251113-094954,global,local,300,H,S,A,E,H-A.png,E-S.png,hH,sS,mask-1.png,mask-4.png,h,1,1.6546728999819607,s,1,0.10253269993700087,0.05316719994880259,0.049908499931916595,0.10049690003506839,0.09992979979142547,0.3002353000920266
RSVPLG03,km,20251113-094348,1.0.2,20251113-090007,741,Experiment,Both,1,Automatic,main,57,20251113-095000,global,local,750,H,H,A,A,H-A.png,A-H.png,hH,hH,mask-4.png,mask-3.png,s,0,1.0266919999849051,s,0,1.0534252000506967,0.04979599989019334,0.04796359990723431,0.09991119988262653,0.09984029992483556,0.7510718000121415
RSVPLG03,km,20251113-094348,1.0.2,20251113-090007,741,Experiment,Both,1,Automatic,main,58,20251113-095006,local,global,750,H,S,E,A,E-H.png,S-A.png,hH,sS,mask-2.png,mask-1.png,s,0,1.204678799957037,h,0,0.14242099993862212,0.05003240006044507,0.049648100044578314,0.09860970010049641,0.09998499997891486,0.7479888000525534
RSVPLG03,km,20251113-094348,1.0.2,20251113-090007,741,Experiment,Both,1,Automatic,main,59,20251113-095012,global,global,300,S,S,E,E,S-E.png,S-E.png,sS,sS,mask-3.png,mask-2.png,h,0,1.0346367999445647,s,1,0.17543709999881685,0.050787500105798244,0.05063689989037812,0.10074380016885698,0.09979430004023015,0.3008980001322925
RSVPLG03,km,20251113-094348,1.0.2,20251113-090007,741,Experiment,Both,1,Automatic,main,60,20251113-095017,local,local,750,H,H,E,E,E-H.png,E-H.png,hH,hH,mask-2.png,mask-1.png,s,0,1.4808265999890864,h,1,0.018112400081008673,0.0499186001252383,0.052386000053957105,0.10071359993889928,0.10155209992080927,0.7493954000528902
RSVPLG03,km,20251113-094348,1.0.2,20251113-090007,741,Experiment,Both,1,Automatic,main,61,20251113-095022,global,global,300,S,H,E,A,S-E.png,H-A.png,sS,hH,mask-4.png,mask-1.png,h,0,2.3811684001702815,s,0,2.541161600034684,0.04882080014795065,0.050653599901124835,0.09882050007581711,0.10077730007469654,0.2991510001011193
RSVPLG03,km,20251113-094348,1.0.2,20251113-090007,741,Experiment,Both,1,Automatic,main,62,20251113-095029,local,global,300,H,S,A,E,A-H.png,S-E.png,hH,sS,mask-4.png,mask-3.png,s,0,1.047758299857378,h,0,0.021643900079652667,0.048359000124037266,0.04969429993070662,0.09967290004715323,0.10056639998219907,0.2986567001789808
RSVPLG03,km,20251113-094348,1.0.2,20251113-090007,741,Experiment,Both,1,Automatic,main,63,20251113-095033,local,global,750,S,S,A,E,A-S.png,S-E.png,sS,sS,mask-4.png,mask-4.png,s,1,1.2313245998229831,h,0,0.015279999934136868,0.04987169988453388,0.04986670007929206,0.09834569995291531,0.09998119994997978,0.7482139999046922
RSVPLG03,km,20251113-094348,1.0.2,20251113-090007,741,Experiment,Both,1,Automatic,main,64,20251113-095039,global,global,300,H,S,E,A,H-E.png,S-A.png,hH,sS,mask-2.png,mask-2.png,h,1,0.7655694999266416,s,1,0.05368710006587207,0.04984710016287863,0.05076400004327297,0.10061400011181831,0.09958959999494255,0.2994639000389725
RSVPLG03,km,20251113-094348,1.0.2,20251113-090007,741,Experiment,Both,1,Automatic,main,65,20251113-095044,global,global,300,H,H,E,E,H-E.png,H-E.png,hH,hH,mask-4.png,mask-1.png,h,1,0.6863179998472333,s,0,0.011656200047582388,0.05080870003439486,0.04881480010226369,0.0995622999034822,0.10071420017629862,0.29992529982700944
RSVPLG03,km,20251113-094348,1.0.2,20251113-090007,741,Experiment,Both,1,Automatic,main,66,20251113-095048,local,global,300,S,H,E,E,E-S.png,H-E.png,sS,hH,mask-1.png,mask-3.png,s,1,0.6683847000822425,h,1,0.055981499841436744,0.04838269995525479,0.04969880008138716,0.0998929999768734,0.09920140006579459,0.29895469988696277
RSVPLG03,km,20251113-094348,1.0.2,20251113-090007,741,Experiment,Both,1,Automatic,main,67,20251113-095053,local,local,300,H,H,E,A,E-H.png,A-H.png,hH,hH,mask-2.png,mask-4.png,h,1,0.8154893999453634,s,0,0.0075332000851631165,0.05014639999717474,0.049797300016507506,0.10008509992621839,0.09872810007072985,0.30089999991469085
RSVPLG03,km,20251113-094348,1.0.2,20251113-090007,741,Experiment,Both,1,Automatic,main,68,20251113-095057,global,local,750,H,H,E,E,H-E.png,E-H.png,hH,hH,mask-1.png,mask-1.png,h,1,1.189223200082779,h,1,0.11049959994852543,0.04893729998730123,0.048664400121197104,0.0999930000398308,0.09989870013669133,0.7490147999487817
RSVPLG03,km,20251113-094348,1.0.2,20251113-090007,741,Experiment,Both,1,Automatic,main,69,20251113-095103,local,local,750,S,H,E,E,E-S.png,E-H.png,sS,hH,mask-2.png,mask-2.png,h,0,1.0694567000027746,s,0,0.036249700002372265,0.05081799998879433,0.048630699981004,0.10080999997444451,0.09946399996988475,0.7492372000124305
RSVPLG03,km,20251113-094348,1.0.2,20251113-090007,741,Experiment,Both,1,Automatic,main,70,20251113-095108,local,local,750,H,S,A,E,A-H.png,E-S.png,hH,sS,mask-2.png,mask-3.png,h,1,0.6437770999036729,s,1,0.03763270005583763,0.04860849981196225,0.05093019991181791,0.10145109985023737,0.09997139987535775,0.7497026999481022
RSVPLG03,km,20251113-094348,1.0.2,20251113-090007,741,Experiment,Both,1,Automatic,main,71,20251113-095113,local,global,300,S,H,E,E,E-S.png,H-E.png,sS,hH,mask-1.png,mask-4.png,h,0,1.117864599917084,s,0,0.09609530004672706,0.05177189991809428,0.04869850003160536,0.10202650004066527,0.0985528000164777,0.3014730999711901
RSVPLG03,km,20251113-094348,1.0.2,20251113-090007,741,Experiment,Both,1,Automatic,main,72,20251113-095118,global,local,750,S,S,E,A,S-E.png,A-S.png,sS,sS,mask-4.png,mask-4.png,s,1,0.542054699966684,s,1,0.16479990002699196,0.04971970012411475,0.049610699992626905,0.1005538001190871,0.09969489998184144,0.7495955000631511
RSVPLG03,km,20251113-094348,1.0.2,20251113-090007,741,Experiment,Both,1,Automatic,main,73,20251113-095123,local,global,300,H,S,E,E,E-H.png,S-E.png,hH,sS,mask-2.png,mask-4.png,s,0,1.4383886000141501,h,0,0.22085579996928573,0.04878119984641671,0.05078370007686317,0.09977559978142381,0.099572200095281,0.29846659977920353
RSVPLG03,km,20251113-094348,1.0.2,20251113-090007,741,Experiment,Both,1,Automatic,main,74,20251113-095128,global,local,300,H,S,E,A,H-E.png,A-S.png,hH,sS,mask-2.png,mask-1.png,h,1,2.1306602000258863,s,1,0.03917860006913543,0.050620999885722995,0.049709999933838844,0.09934479999355972,0.10054119979031384,0.29911640007048845
RSVPLG03,km,20251113-094348,1.0.2,20251113-090007,741,Experiment,Both,1,Automatic,main,75,20251113-095134,local,global,750,S,S,E,E,E-S.png,S-E.png,sS,sS,mask-1.png,mask-4.png,h,0,1.2318627999629825,s,1,0.013991100015118718,0.04857759992592037,0.04999249987304211,0.10025419993326068,0.10008929995819926,0.748482899973169
RSVPLG03,km,20251113-094348,1.0.2,20251113-090007,741,Experiment,Both,1,Automatic,main,76,20251113-095200,local,local,750,S,H,E,A,E-S.png,A-H.png,sS,hH,mask-4.png,mask-4.png,s,1,0.1376746001187712,h,1,0.8615745001006871,0.050590099999681115,0.0501570999622345,0.10033769998699427,0.10034619993530214,0.7495548001024872
RSVPLG03,km,20251113-094348,1.0.2,20251113-090007,741,Experiment,Both,1,Automatic,main,77,20251113-095205,global,local,300,S,H,A,E,S-A.png,E-H.png,sS,hH,mask-2.png,mask-4.png,h,0,1.3959536999464035,s,0,0.007260200101882219,0.04973740014247596,0.04885520017705858,0.09981580008752644,0.09990010014735162,0.2998254999984056
RSVPLG03,km,20251113-094348,1.0.2,20251113-090007,741,Experiment,Both,1,Automatic,main,78,20251113-095210,global,global,300,H,S,E,A,H-E.png,S-A.png,hH,sS,mask-3.png,mask-1.png,s,0,0.8027699999511242,s,1,0.3500779999885708,0.04892440000548959,0.0489185000769794,0.10006720013916492,0.09995329985395074,0.2999404000584036
RSVPLG03,km,20251113-094348,1.0.2,20251113-090007,741,Experiment,Both,1,Automatic,main,79,20251113-095215,global,global,750,H,H,E,A,H-E.png,H-A.png,hH,hH,mask-2.png,mask-3.png,h,1,1.4026675000786781,h,1,0.16791040007956326,0.05085720005445182,0.0499462999869138,0.10079620010219514,0.09985120012424886,0.7492957999929786
RSVPLG03,km,20251113-094348,1.0.2,20251113-090007,741,Experiment,Both,1,Automatic,main,80,20251113-095221,global,local,750,H,H,A,A,H-A.png,A-H.png,hH,hH,mask-3.png,mask-4.png,h,1,0.8315830000210553,s,0,0.085602100007236,0.049781099893152714,0.050680499989539385,0.0997151997871697,0.09958410006947815,0.748129699844867
RSVPLG03,km,20251113-094348,1.0.2,20251113-090007,741,Experiment,Both,1,Automatic,main,81,20251113-095226,global,local,300,S,S,A,E,S-A.png,E-S.png,sS,sS,mask-3.png,mask-4.png,h,0,0.9964604000560939,s,1,0.05450730002485216,0.05088680004701018,0.04945010016672313,0.09980610013008118,0.09998160018585622,0.2990011000074446
RSVPLG03,km,20251113-094348,1.0.2,20251113-090007,741,Experiment,Both,1,Automatic,main,82,20251113-095231,global,global,750,H,S,E,A,H-E.png,S-A.png,hH,sS,mask-2.png,mask-3.png,h,1,0.8295611999928951,s,1,0.04506290005519986,0.049775199964642525,0.0481515999417752,0.10171550000086427,0.09906130004674196,0.751046400051564
RSVPLG03,km,20251113-094348,1.0.2,20251113-090007,741,Experiment,Both,1,Automatic,main,83,20251113-095236,local,local,300,H,S,E,E,E-H.png,E-S.png,hH,sS,mask-4.png,mask-1.png,s,0,0.5540366999339312,h,0,0.2949062001425773,0.0498174000531435,0.048708599992096424,0.09972800011746585,0.09978609997779131,0.2995219000149518
RSVPLG03,km,20251113-094348,1.0.2,20251113-090007,741,Experiment,Both,1,Automatic,main,84,20251113-095241,local,global,300,H,H,E,A,E-H.png,H-A.png,hH,hH,mask-1.png,mask-2.png,h,1,0.5605756998993456,h,1,1.0882077000569552,0.05143410013988614,0.049793099984526634,0.10138250002637506,0.09967650007456541,0.3004014000762254
RSVPLG03,km,20251113-094348,1.0.2,20251113-090007,741,Experiment,Both,1,Automatic,main,85,20251113-095246,global,global,300,H,S,E,E,H-E.png,S-E.png,hH,sS,mask-3.png,mask-4.png,s,0,1.9604194001294672,h,0,0.1354908999055624,0.050019599962979555,0.04991100006736815,0.09823170001618564,0.09990809997543693,0.2991339999716729
RSVPLG03,km,20251113-094348,1.0.2,20251113-090007,741,Experiment,Both,1,Automatic,main,86,20251113-095252,global,global,750,H,S,A,A,H-A.png,S-A.png,hH,sS,mask-3.png,mask-4.png,h,1,0.5460461000911891,s,1,0.14177790004760027,0.051065600011497736,0.04892119998112321,0.10027739987708628,0.09922089986503124,0.7498880000784993
RSVPLG03,km,20251113-094348,1.0.2,20251113-090007,741,Experiment,Both,1,Automatic,main,87,20251113-095257,global,local,750,S,S,E,E,S-E.png,E-S.png,sS,sS,mask-2.png,mask-1.png,h,0,0.07369380001910031,s,1,0.16749510006047785,0.04879479994997382,0.04979409999214113,0.09867709991522133,0.09965909994207323,0.7494793999940157
RSVPLG03,km,20251113-094348,1.0.2,20251113-090007,741,Experiment,Both,1,Automatic,main,88,20251113-095301,local,local,300,S,S,A,A,A-S.png,A-S.png,sS,sS,mask-1.png,mask-2.png,h,0,0.9120964999310672,s,1,0.8218151000328362,0.04979249997995794,0.049767299788072705,0.09967489982955158,0.10040619992651045,0.30022730003111064
RSVPLG03,km,20251113-094348,1.0.2,20251113-090007,741,Experiment,Both,1,Automatic,main,89,20251113-095307,global,global,300,H,S,A,E,H-A.png,S-E.png,hH,sS,mask-4.png,mask-3.png,h,1,0.2581233000382781,s,1,0.02726750005967915,0.048420799896121025,0.05047909985296428,0.09887550002895296,0.09998739999718964,0.29851160012185574
RSVPLG03,km,20251113-094348,1.0.2,20251113-090007,741,Experiment,Both,1,Automatic,main,90,20251113-095311,global,local,300,S,S,E,E,S-E.png,E-S.png,sS,sS,mask-1.png,mask-4.png,h,0,1.2439379000570625,s,1,0.20510699995793402,0.04985870001837611,0.049813600024208426,0.09978879988193512,0.09974309988319874,0.29951509996317327
RSVPLG03,km,20251113-094348,1.0.2,20251113-090007,741,Experiment,Both,1,Automatic,main,91,20251113-095316,global,global,300,H,S,E,A,H-E.png,S-A.png,hH,sS,mask-2.png,mask-3.png,s,0,0.44461439992301166,h,0,0.12704110005870461,0.05094340001232922,0.04869180009700358,0.10123539995402098,0.0992664999794215,0.30042069987393916
RSVPLG03,km,20251113-094348,1.0.2,20251113-090007,741,Experiment,Both,1,Automatic,main,92,20251113-095321,local,local,300,H,S,E,A,E-H.png,A-S.png,hH,sS,mask-1.png,mask-4.png,h,1,0.48884670017287135,s,1,0.059332899982109666,0.049779799999669194,0.05063419998623431,0.09968789992853999,0.10129850008524954,0.29726709984242916
RSVPLG03,km,20251113-094348,1.0.2,20251113-090007,741,Experiment,Both,1,Automatic,main,93,20251113-095325,global,local,300,H,H,A,E,H-A.png,E-H.png,hH,hH,mask-3.png,mask-1.png,h,1,0.39360020007006824,s,0,0.08930799993686378,0.05037600011564791,0.04963309993036091,0.1002629001159221,0.09980319999158382,0.30026430008001626
RSVPLG03,km,20251113-094348,1.0.2,20251113-090007,741,Experiment,Both,1,Automatic,main,94,20251113-095329,global,local,750,S,S,E,E,S-E.png,E-S.png,sS,sS,mask-1.png,mask-1.png,h,0,0.322466499870643,s,1,0.284753100015223,0.04921880015172064,0.04945399984717369,0.09926060005091131,0.10006730002351105,0.7499600001610816
RSVPLG03,km,20251113-094348,1.0.2,20251113-090007,741,Experiment,Both,1,Automatic,main,95,20251113-095334,global,global,750,S,S,A,A,S-A.png,S-A.png,sS,sS,mask-1.png,mask-4.png,h,0,2.518261299934238,s,1,0.1827157000079751,0.04977419995702803,0.0499379001557827,0.09987069992348552,0.09883869998157024,0.7490228998940438
RSVPLG03,km,20251113-094348,1.0.2,20251113-090007,741,Experiment,Both,1,Automatic,main,96,20251113-095341,global,global,750,S,H,A,E,S-A.png,H-E.png,sS,hH,mask-3.png,mask-2.png,s,1,0.9933961001224816,h,1,0.08401569980196655,0.05068710003979504,0.048105099936947227,0.10079600010067225,0.09924050001427531,0.7501464001834393
