exp,exp_initials,runtime,ver,modtime,sub,blocktype,targets,cuetype,mode,trialtype,trial,trialtime,t1_level,t2_level,t2_lag,t1,t2,distractor1,distractor2,stimfile1,stimfile2,t1_corr,t2_corr,maskfile1,maskfile2,t1_resp,t1_acc,t1_rt,t2_resp,t2_acc,t2_rt,t1_dur,t2_dur,t1mask_soa,t2mask_soa,t1t2_soa
RSVPLG03,cs,20260225-141223,1.0.2,20251105-084826,776,Introduction,T1,1,Automatic,main,1,20260225-141250,global,local,750,H,H,E,E,H-E.png,E-H.png,hH,hH,mask-3.png,mask-2.png,h,1,1.7643910000006144,none,-5,0,0.09772110000267276,0.09755349999977625,0.2017511000012746,0.20062739999775658,0.7508411000017077
RSVPLG03,cs,20260225-141223,1.0.2,20251105-084826,776,Introduction,T1,1,Automatic,main,2,20260225-141256,global,global,750,H,S,E,A,H-E.png,S-A.png,hH,sS,mask-3.png,mask-4.png,h,1,2.157429700000648,none,-5,0,0.09769989999767859,0.09756220000053872,0.20175219999873661,0.20002629999726196,0.7501333000000159
RSVPLG03,cs,20260225-141223,1.0.2,20251105-084826,776,Introduction,T1,1,Automatic,main,3,20260225-141302,global,local,750,S,S,E,A,S-E.png,A-S.png,sS,sS,mask-1.png,mask-4.png,s,1,1.32990410000275,none,-5,0,0.09634010000081616,0.09685320000062347,0.20027309999932186,0.19916310000189696,0.7503713999976753
RSVPLG03,cs,20260225-141223,1.0.2,20251105-084826,776,Introduction,T1,1,Automatic,main,4,20260225-141307,global,local,750,S,S,E,E,S-E.png,E-S.png,sS,sS,mask-4.png,mask-3.png,s,1,1.2307144999977027,none,-5,0,0.09699100000216276,0.09738649999781046,0.19972540000162553,0.20024629999898025,0.7501495000033174
RSVPLG03,cs,20260225-141223,1.0.2,20251105-084826,776,Introduction,T1,1,Automatic,main,5,20260225-141313,local,global,750,S,S,E,A,E-S.png,S-A.png,sS,sS,mask-3.png,mask-2.png,s,1,0.43905290000111563,none,-5,0,0.09737490000043181,0.09737939999831724,0.19861990000208607,0.19853939999666181,0.7499516000025324
RSVPLG03,cs,20260225-141223,1.0.2,20251105-084826,776,Introduction,T1,1,Automatic,main,6,20260225-141317,global,global,750,H,H,E,E,H-E.png,H-E.png,hH,hH,mask-3.png,mask-1.png,h,1,0.4435921000003873,none,-5,0,0.09557560000030207,0.09668270000111079,0.1995251999978791,0.19963819999975385,0.749787999997352
RSVPLG03,cs,20260225-141223,1.0.2,20251105-084826,776,Introduction,T1,1,Automatic,main,7,20260225-141322,global,global,750,S,H,A,E,S-A.png,H-E.png,sS,hH,mask-3.png,mask-4.png,s,1,1.0537280999997165,none,-5,0,0.09698080000089249,0.0985900000014226,0.19998370000030263,0.2006455000009737,0.7498789999990549
RSVPLG03,cs,20260225-141223,1.0.2,20251105-084826,776,Introduction,T1,1,Automatic,main,8,20260225-141327,local,local,750,H,H,E,A,E-H.png,A-H.png,hH,hH,mask-3.png,mask-3.png,h,1,0.968010200002027,none,-5,0,0.09850829999777488,0.09756680000282358,0.20035959999950137,0.19946490000074846,0.7508663999979035
RSVPLG03,cs,20260225-141223,1.0.2,20251105-084826,776,Introduction,T1,1,Automatic,main,9,20260225-141332,local,local,750,S,H,E,E,E-S.png,E-H.png,sS,hH,mask-2.png,mask-2.png,none,-6,0,none,-5,0,0.09666640000068583,0.09751739999774145,0.2007469999989553,0.19948329999897396,0.7508056000006036
RSVPLG03,cs,20260225-141343,1.0.2,20251105-084826,776,Practice,T1,1,Automatic,main,1,20260225-141422,global,local,300,S,H,A,A,S-A.png,A-H.png,sS,hH,mask-3.png,mask-2.png,s,1,0.5976250999992772,none,-5,0,0.04594169999836595,0.04856659999859403,0.09886209999967832,0.10061480000149459,0.29827099999965867
RSVPLG03,cs,20260225-141343,1.0.2,20251105-084826,776,Practice,T1,1,Automatic,main,2,20260225-141426,local,global,300,S,S,A,E,A-S.png,S-E.png,sS,sS,mask-3.png,mask-1.png,s,1,1.0288198000016564,none,-5,0,0.04688460000033956,0.045613199999934295,0.09792519999973592,0.09909040000275127,0.29959299999973155
RSVPLG03,cs,20260225-141343,1.0.2,20251105-084826,776,Practice,T1,1,Automatic,main,3,20260225-141431,global,global,300,H,S,A,A,H-A.png,S-A.png,hH,sS,mask-3.png,mask-4.png,h,1,0.8972577999993518,none,-5,0,0.04687030000059167,0.047263200001907535,0.09992989999955171,0.10043330000189599,0.3010123999993084
RSVPLG03,cs,20260225-141343,1.0.2,20251105-084826,776,Practice,T1,1,Automatic,main,4,20260225-141435,global,local,750,H,S,E,E,H-E.png,E-S.png,hH,sS,mask-3.png,mask-2.png,h,1,0.424416800000472,none,-5,0,0.04652969999733614,0.047638200001529185,0.09969579999960843,0.09910110000055283,0.7495184999970661
RSVPLG03,cs,20260225-141343,1.0.2,20251105-084826,776,Practice,T1,1,Automatic,main,5,20260225-141440,local,local,750,S,H,E,E,E-S.png,E-H.png,sS,hH,mask-4.png,mask-3.png,s,1,0.25658199999816134,none,-5,0,0.04689270000017132,0.0475254999983008,0.09981360000165296,0.10152020000168704,0.7483713000001444
RSVPLG03,cs,20260225-141343,1.0.2,20251105-084826,776,Practice,T1,1,Automatic,main,6,20260225-141444,global,global,300,S,S,E,A,S-E.png,S-A.png,sS,sS,mask-4.png,mask-3.png,s,1,0.6210210999997798,none,-5,0,0.04754069999762578,0.04751069999838364,0.0995515999966301,0.10050820000105887,0.2981590999988839
RSVPLG03,cs,20260225-141343,1.0.2,20251105-084826,776,Practice,T1,1,Automatic,main,7,20260225-141448,local,global,300,S,H,A,E,A-S.png,H-E.png,sS,hH,mask-2.png,mask-1.png,s,1,0.40483940000194707,none,-5,0,0.047911500001646345,0.04752870000083931,0.0999694999991334,0.10056310000072699,0.2991884000002756
RSVPLG03,cs,20260225-141343,1.0.2,20251105-084826,776,Practice,T1,1,Automatic,main,8,20260225-141452,local,global,750,H,S,E,A,E-H.png,S-A.png,hH,sS,mask-3.png,mask-2.png,s,0,0.6109365000011167,none,-5,0,0.0475202999987232,0.04754250000041793,0.09865970000100788,0.09955360000094515,0.7483285999987856
RSVPLG03,cs,20260225-141343,1.0.2,20251105-084826,776,Practice,T1,1,Automatic,main,9,20260225-141457,global,global,750,H,S,E,E,H-E.png,S-E.png,hH,sS,mask-2.png,mask-4.png,h,1,0.4306039000002784,none,-5,0,0.04659119999996619,0.04571419999774662,0.10062660000039614,0.09877369999958319,0.7501369000019622
RSVPLG03,cs,20260225-141343,1.0.2,20251105-084826,776,Practice,T1,1,Automatic,main,10,20260225-141501,global,local,300,S,S,E,A,S-E.png,A-S.png,sS,sS,mask-3.png,mask-1.png,s,1,0.47317130000010366,none,-5,0,0.04714069999681669,0.048533600001974264,0.09815789999993285,0.0989597000007052,0.298490999997739
RSVPLG03,cs,20260225-141343,1.0.2,20251105-084826,776,Practice,T1,1,Automatic,main,11,20260225-141505,global,local,750,S,H,A,A,S-A.png,A-H.png,sS,hH,mask-2.png,mask-4.png,s,1,0.5091893000026175,none,-5,0,0.04778450000230805,0.04763569999704487,0.10099740000077873,0.10082779999720515,0.7497920000023441
RSVPLG03,cs,20260225-141343,1.0.2,20251105-084826,776,Practice,T1,1,Automatic,main,12,20260225-141510,local,global,750,S,H,A,E,A-S.png,H-E.png,sS,hH,mask-4.png,mask-2.png,s,1,0.24409910000031232,none,-5,0,0.0476316999993287,0.04744550000032177,0.09963629999765544,0.10030299999925774,0.7494575999990047
RSVPLG03,cs,20260225-141343,1.0.2,20251105-084826,776,Practice,T1,1,Automatic,main,13,20260225-141514,global,global,750,H,H,A,E,H-A.png,H-E.png,hH,hH,mask-4.png,mask-1.png,h,1,0.3927581999996619,none,-5,0,0.04755170000134967,0.04751329999999143,0.10057009999945876,0.10053550000156974,0.749547999999777
RSVPLG03,cs,20260225-141343,1.0.2,20251105-084826,776,Practice,T1,1,Automatic,main,14,20260225-141518,local,local,300,H,S,A,E,A-H.png,E-S.png,hH,sS,mask-2.png,mask-1.png,s,0,0.687009900000703,none,-5,0,0.048017900000559166,0.046921999997721286,0.10103829999934533,0.0996938999996928,0.30028840000159107
RSVPLG03,cs,20260225-141343,1.0.2,20251105-084826,776,Practice,T1,1,Automatic,main,15,20260225-141523,local,local,750,H,S,E,E,E-H.png,E-S.png,hH,sS,mask-3.png,mask-1.png,h,1,0.471279900000809,none,-5,0,0.047957999999198364,0.046614800001407275,0.09998889999769744,0.10065720000056899,0.749538099997153
RSVPLG03,cs,20260225-141343,1.0.2,20251105-084826,776,Practice,T1,1,Automatic,main,16,20260225-141527,local,local,300,S,H,A,A,A-S.png,A-H.png,sS,hH,mask-4.png,mask-3.png,s,1,0.710320900001534,none,-5,0,0.046631799999886425,0.04708469999968656,0.09976209999877028,0.09924980000141659,0.3000596999991103
RSVPLG03,cs,20260225-141555,1.0.2,20251105-084826,776,Practice,Both,1,Automatic,main,1,20260225-141615,global,local,300,H,H,A,A,H-A.png,A-H.png,hH,hH,mask-2.png,mask-3.png,s,0,1.418987200002448,h,1,0.0026193000012426637,0.040994299997691996,0.0477019999998447,0.0946972999990976,0.09990319999997155,0.29438239999944926
RSVPLG03,cs,20260225-141555,1.0.2,20251105-084826,776,Practice,Both,1,Automatic,main,2,20260225-141620,local,global,750,S,H,E,E,E-S.png,H-E.png,sS,hH,mask-2.png,mask-3.png,s,1,1.0175908999990497,h,1,0.003287600000476232,0.04768010000043432,0.04866799999945215,0.10045940000054543,0.1009130999991612,0.750271500000963
RSVPLG03,cs,20260225-141555,1.0.2,20251105-084826,776,Practice,Both,1,Automatic,main,3,20260225-141625,local,global,300,H,H,E,E,E-H.png,H-E.png,hH,hH,mask-2.png,mask-4.png,h,1,0.6955503999997745,s,0,0.8075993999991624,0.04733899999700952,0.04853410000214353,0.10022899999967194,0.10031600000002072,0.3009652999971877
RSVPLG03,cs,20260225-141555,1.0.2,20251105-084826,776,Practice,Both,1,Automatic,main,4,20260225-141629,global,global,300,S,H,A,E,S-A.png,H-E.png,sS,hH,mask-1.png,mask-2.png,s,1,1.209410100000241,h,1,0.08934450000015204,0.04667870000048424,0.04755039999872679,0.09908960000029765,0.10049979999894276,0.300288599999476
RSVPLG03,cs,20260225-141555,1.0.2,20251105-084826,776,Practice,Both,1,Automatic,main,5,20260225-141634,global,global,750,H,S,E,E,H-E.png,S-E.png,hH,sS,mask-1.png,mask-2.png,h,1,1.153582799997821,s,1,0.05323990000033518,0.04653650000182097,0.04758659999788506,0.10010640000109561,0.09858849999727681,0.7521029000017734
RSVPLG03,cs,20260225-141555,1.0.2,20251105-084826,776,Practice,Both,1,Automatic,main,6,20260225-141640,global,local,750,H,S,A,E,H-A.png,E-S.png,hH,sS,mask-3.png,mask-4.png,h,1,0.6583208000010927,s,1,0.04368459999750485,0.04821129999982077,0.046157900000252994,0.10021399999823188,0.09921689999828232,0.7521452000000863
RSVPLG03,cs,20260225-141555,1.0.2,20251105-084826,776,Practice,Both,1,Automatic,main,7,20260225-141645,local,local,750,S,S,A,A,A-S.png,A-S.png,sS,sS,mask-2.png,mask-2.png,s,1,0.9402301999980409,s,1,0.08585749999838299,0.047505399998044595,0.04710500000146567,0.0995163000006869,0.10050450000198907,0.7513751999977103
RSVPLG03,cs,20260225-141555,1.0.2,20251105-084826,776,Practice,Both,1,Automatic,main,8,20260225-141650,local,local,300,H,S,E,A,E-H.png,A-S.png,hH,sS,mask-2.png,mask-2.png,h,1,0.6076833000006445,s,1,0.07072749999861117,0.04851090000011027,0.04779380000036326,0.09982690000106231,0.10085609999805456,0.3011101000010967
RSVPLG03,cs,20260225-141555,1.0.2,20251105-084826,776,Practice,Both,1,Automatic,main,9,20260225-141654,global,local,750,H,S,A,A,H-A.png,A-S.png,hH,sS,mask-3.png,mask-1.png,h,1,0.9952009999979055,h,0,0.10367140000016661,0.04761230000076466,0.047618700002203695,0.10062439999819617,0.09980120000182069,0.7506418999982998
RSVPLG03,cs,20260225-141555,1.0.2,20251105-084826,776,Practice,Both,1,Automatic,main,10,20260225-141659,local,global,750,S,H,E,E,E-S.png,H-E.png,sS,hH,mask-1.png,mask-2.png,s,1,0.6787039000009827,h,1,0.08551440000155708,0.04662010000174632,0.04860779999944498,0.09967310000138241,0.10066529999676277,0.7503177000035066
RSVPLG03,cs,20260225-141555,1.0.2,20251105-084826,776,Practice,Both,1,Automatic,main,11,20260225-141704,global,global,750,H,S,E,E,H-E.png,S-E.png,hH,sS,mask-3.png,mask-1.png,h,1,0.5131151999994472,s,1,0.12108230000012554,0.047369600000820355,0.0476952999997593,0.10050480000063544,0.09989059999861638,0.7521673000010196
RSVPLG03,cs,20260225-141555,1.0.2,20251105-084826,776,Practice,Both,1,Automatic,main,12,20260225-141709,global,local,300,S,H,E,A,S-E.png,A-H.png,sS,hH,mask-1.png,mask-3.png,s,1,0.7496284000008018,h,1,0.053897699999652104,0.048705199998948956,0.04669669999930193,0.10155119999762974,0.0998196000000462,0.3013329999994312
RSVPLG03,cs,20260225-141555,1.0.2,20251105-084826,776,Practice,Both,1,Automatic,main,13,20260225-141713,global,global,300,S,S,A,A,S-A.png,S-A.png,sS,sS,mask-1.png,mask-1.png,s,1,0.7120797999996284,s,1,0.06922680000207038,0.048768500000733184,0.04656840000097873,0.10198250000030384,0.09956880000027013,0.30210100000113016
RSVPLG03,cs,20260225-141555,1.0.2,20251105-084826,776,Practice,Both,1,Automatic,main,14,20260225-141718,local,local,300,H,H,A,A,A-H.png,A-H.png,hH,hH,mask-1.png,mask-4.png,h,1,0.8695768999969005,s,0,0.0913925000022573,0.04752360000202316,0.047526600003038766,0.1005141999994521,0.10055020000072545,0.29979499999899417
RSVPLG03,cs,20260225-141555,1.0.2,20251105-084826,776,Practice,Both,1,Automatic,main,15,20260225-141722,local,local,750,H,H,A,E,A-H.png,E-H.png,hH,hH,mask-4.png,mask-4.png,h,1,0.7993747999971674,s,0,0.35781710000082967,0.048221500001091044,0.04751659999965341,0.10108820000095875,0.09853759999896283,0.7536736000001838
RSVPLG03,cs,20260225-141555,1.0.2,20251105-084826,776,Practice,Both,1,Automatic,main,16,20260225-141728,local,global,300,H,S,E,A,E-H.png,S-A.png,hH,sS,mask-2.png,mask-3.png,s,0,1.8628387999997358,s,1,0.10478349999903003,0.04768829999738955,0.04765609999958542,0.09990349999861792,0.1002381999969657,0.30151760000080685
RSVPLG03,cs,20260225-141811,1.0.2,20251105-084826,776,Experiment,Both,1,Automatic,warmup,1,20260225-141956,local,local,750,S,H,E,A,E-S.png,A-H.png,sS,hH,mask-4.png,mask-3.png,s,1,0.47109920000002603,h,1,0.03992449999714154,0.04028370000014547,0.04769999999916763,0.09320539999680477,0.10064699999929871,0.7428175999993982
RSVPLG03,cs,20260225-141811,1.0.2,20251105-084826,776,Experiment,Both,1,Automatic,warmup,2,20260225-142001,global,global,300,H,H,E,A,H-E.png,H-A.png,hH,hH,mask-3.png,mask-2.png,h,1,1.2072576999999,h,1,0.4366712999981246,0.04561660000035772,0.04768270000204211,0.09847600000284729,0.09893749999901047,0.2999758000005386
RSVPLG03,cs,20260225-141811,1.0.2,20251105-084826,776,Experiment,Both,1,Automatic,warmup,3,20260225-142006,global,local,750,H,H,E,A,H-E.png,A-H.png,hH,hH,mask-1.png,mask-2.png,h,1,0.743167500000709,h,1,0.06903919999967911,0.04761490000237245,0.04767830000128015,0.1006496000009065,0.09990219999963301,0.7507029000007606
RSVPLG03,cs,20260225-141811,1.0.2,20251105-084826,776,Experiment,Both,1,Automatic,warmup,4,20260225-142011,local,local,300,H,H,A,E,A-H.png,E-H.png,hH,hH,mask-1.png,mask-1.png,s,0,0.6279106000001775,h,1,0.16669720000209054,0.048676599999453174,0.04877470000064932,0.10187109999969834,0.10096490000069025,0.30038580000109505
RSVPLG03,cs,20260225-141811,1.0.2,20251105-084826,776,Experiment,Both,1,Automatic,main,5,20260225-142016,local,local,750,H,H,A,E,A-H.png,E-H.png,hH,hH,mask-4.png,mask-2.png,h,1,0.854238500000065,s,0,0.2504485999997996,0.04761080000025686,0.04771730000356911,0.10086809999847901,0.09996200000023236,0.7507684999982303
RSVPLG03,cs,20260225-141811,1.0.2,20251105-084826,776,Experiment,Both,1,Automatic,main,6,20260225-142021,local,local,750,S,S,E,A,E-S.png,A-S.png,sS,sS,mask-2.png,mask-4.png,s,1,2.2615963999996893,s,1,0.6681439000021783,0.04634430000078282,0.04749900000024354,0.10016530000211787,0.10047990000020945,0.7505013000009058
RSVPLG03,cs,20260225-141811,1.0.2,20251105-084826,776,Experiment,Both,1,Automatic,main,7,20260225-142028,local,local,750,H,S,A,E,A-H.png,E-S.png,hH,sS,mask-4.png,mask-3.png,h,1,0.5617571000002499,s,1,0.058576799998263596,0.04753250000067055,0.04729169999700389,0.09955940000145347,0.0985962999984622,0.7514284000026237
RSVPLG03,cs,20260225-141811,1.0.2,20251105-084826,776,Experiment,Both,1,Automatic,main,8,20260225-142033,local,local,750,S,H,A,A,A-S.png,A-H.png,sS,hH,mask-4.png,mask-1.png,s,1,0.622901799997635,h,1,0.027425899999798276,0.04756740000084392,0.04753049999999348,0.09927729999981239,0.1016925000003539,0.75038190000123
RSVPLG03,cs,20260225-141811,1.0.2,20251105-084826,776,Experiment,Both,1,Automatic,main,9,20260225-142037,local,global,300,S,H,E,E,E-S.png,H-E.png,sS,hH,mask-2.png,mask-1.png,s,1,1.3226598000001104,h,1,0.10000920000311453,0.04775619999782066,0.04752860000007786,0.10176180000053137,0.10137820000090869,0.3003917999994883
RSVPLG03,cs,20260225-141811,1.0.2,20251105-084826,776,Experiment,Both,1,Automatic,main,10,20260225-142043,global,local,300,S,S,E,A,S-E.png,A-S.png,sS,sS,mask-1.png,mask-2.png,s,1,0.790160399999877,h,0,0.010713199997553602,0.048707699999795295,0.047689099999843165,0.09994540000116103,0.10107609999977285,0.2999643000002834
RSVPLG03,cs,20260225-141811,1.0.2,20251105-084826,776,Experiment,Both,1,Automatic,main,11,20260225-142047,local,local,750,H,S,A,A,A-H.png,A-S.png,hH,sS,mask-1.png,mask-2.png,h,1,1.834190800000215,s,1,0.07578110000031302,0.047715900000184774,0.047619499997381354,0.1009200000007695,0.10076859999753651,0.7519696000017575
RSVPLG03,cs,20260225-141811,1.0.2,20251105-084826,776,Experiment,Both,1,Automatic,main,12,20260225-142053,local,global,750,S,H,E,E,E-S.png,H-E.png,sS,hH,mask-2.png,mask-1.png,s,1,0.7912428999989061,h,1,0.06586930000048596,0.04848579999816138,0.04781050000019604,0.10154639999745996,0.09897909999926924,0.752681300000404
RSVPLG03,cs,20260225-141811,1.0.2,20251105-084826,776,Experiment,Both,1,Automatic,main,13,20260225-142058,local,global,750,H,S,A,E,A-H.png,S-E.png,hH,sS,mask-1.png,mask-2.png,h,1,0.8504350999974122,s,1,0.08713509999870439,0.04758770000262302,0.047587100001692306,0.09966659999918193,0.10049300000173389,0.750112400000944
RSVPLG03,cs,20260225-141811,1.0.2,20251105-084826,776,Experiment,Both,1,Automatic,main,14,20260225-142103,local,global,750,S,S,A,E,A-S.png,S-E.png,sS,sS,mask-1.png,mask-2.png,s,1,0.5081396999994467,s,1,0.10825750000003609,0.04674370000066119,0.045929700001579477,0.09985370000140392,0.10070360000099754,0.7520414999999048
RSVPLG03,cs,20260225-141811,1.0.2,20251105-084826,776,Experiment,Both,1,Automatic,main,15,20260225-142108,global,local,300,H,H,A,A,H-A.png,A-H.png,hH,hH,mask-4.png,mask-1.png,s,0,1.064783100002387,h,1,1.1302475999982562,0.0475021000020206,0.04808630000115954,0.10058350000326755,0.10028920000331709,0.2994835999998031
RSVPLG03,cs,20260225-141811,1.0.2,20251105-084826,776,Experiment,Both,1,Automatic,main,16,20260225-142114,global,global,750,H,S,E,A,H-E.png,S-A.png,hH,sS,mask-1.png,mask-2.png,h,1,0.44851740000012796,s,1,0.07448460000159685,0.04677540000193403,0.04751200000100653,0.09880460000204039,0.1005163999980141,0.7510546000012255
RSVPLG03,cs,20260225-141811,1.0.2,20251105-084826,776,Experiment,Both,1,Automatic,main,17,20260225-142118,global,local,300,S,H,E,A,S-E.png,A-H.png,sS,hH,mask-2.png,mask-2.png,s,1,0.5018434999983583,h,1,0.035535900002287235,0.04760499999974854,0.047546300000249175,0.10157550000076299,0.10149989999990794,0.3000991000008071
RSVPLG03,cs,20260225-141811,1.0.2,20251105-084826,776,Experiment,Both,1,Automatic,main,18,20260225-142122,global,global,750,S,S,A,E,S-A.png,S-E.png,sS,sS,mask-4.png,mask-2.png,s,1,0.5227079000032973,s,1,0.1038449000006949,0.04722390000097221,0.04670729999998002,0.10031460000027437,0.0998392999972566,0.7517297000013059
RSVPLG03,cs,20260225-141811,1.0.2,20251105-084826,776,Experiment,Both,1,Automatic,main,19,20260225-142127,global,local,750,S,S,A,A,S-A.png,A-S.png,sS,sS,mask-3.png,mask-1.png,s,1,0.5959490000022925,h,0,0.05635160000019823,0.04752609999923152,0.046612500002083834,0.10054680000030203,0.09971080000104848,0.7511369999992894
RSVPLG03,cs,20260225-141811,1.0.2,20251105-084826,776,Experiment,Both,1,Automatic,main,20,20260225-142132,global,global,750,S,H,A,A,S-A.png,H-A.png,sS,hH,mask-2.png,mask-1.png,s,1,0.9025466999992204,h,1,0.042772900000272784,0.04703689999951166,0.04654139999911422,0.1003019999989192,0.09878720000051544,0.7516858999988472
RSVPLG03,cs,20260225-141811,1.0.2,20251105-084826,776,Experiment,Both,1,Automatic,main,21,20260225-142137,local,global,750,S,S,A,A,A-S.png,S-A.png,sS,sS,mask-4.png,mask-3.png,s,1,0.6083686999991187,s,1,0.06736639999871841,0.04770789999747649,0.047684899996966124,0.09990569999717991,0.09989259999929345,0.7505251000002318
RSVPLG03,cs,20260225-141811,1.0.2,20251105-084826,776,Experiment,Both,1,Automatic,main,22,20260225-142142,global,local,300,H,H,A,E,H-A.png,E-H.png,hH,hH,mask-2.png,mask-2.png,h,1,0.8371699999988778,s,0,0.16980949999924633,0.04672250000294298,0.04681610000261571,0.09992450000208919,0.10000969999964582,0.2999362000009569
RSVPLG03,cs,20260225-141811,1.0.2,20251105-084826,776,Experiment,Both,1,Automatic,main,23,20260225-142146,global,global,300,H,H,E,E,H-E.png,H-E.png,hH,hH,mask-2.png,mask-4.png,h,1,0.4954338000025018,h,1,0.13759009999921545,0.04857090000223252,0.04852029999892693,0.10155200000008335,0.10066829999777838,0.3006381000013789
RSVPLG03,cs,20260225-141811,1.0.2,20251105-084826,776,Experiment,Both,1,Automatic,main,24,20260225-142151,local,local,300,S,S,E,A,E-S.png,A-S.png,sS,sS,mask-3.png,mask-3.png,s,1,0.6316107000020565,s,1,0.09392180000213557,0.04652229999919655,0.04881350000141538,0.09914550000030431,0.09983270000157063,0.29944419999810634
RSVPLG03,cs,20260225-141811,1.0.2,20251105-084826,776,Experiment,Both,1,Automatic,main,25,20260225-142155,global,local,300,H,S,A,E,H-A.png,E-S.png,hH,sS,mask-1.png,mask-2.png,h,1,0.5263587999979791,s,1,0.10003560000041034,0.046535299999959534,0.046486899998853914,0.09854009999980917,0.10050099999716622,0.2998207000018738
RSVPLG03,cs,20260225-141811,1.0.2,20251105-084826,776,Experiment,Both,1,Automatic,main,26,20260225-142220,global,global,300,S,H,E,E,S-E.png,H-E.png,sS,hH,mask-4.png,mask-2.png,s,1,0.5325647000026947,h,1,0.18224540000301204,0.04701980000027106,0.04762240000127349,0.1001189999988128,0.0996543000001111,0.3004631999974663
RSVPLG03,cs,20260225-141811,1.0.2,20251105-084826,776,Experiment,Both,1,Automatic,main,27,20260225-142224,local,local,300,S,H,A,E,A-S.png,E-H.png,sS,hH,mask-4.png,mask-2.png,s,1,0.9907434000015201,s,0,0.10213259999727597,0.04823989999931655,0.04729299999962677,0.10024949999933597,0.0992004999970959,0.29989280000154395
RSVPLG03,cs,20260225-141811,1.0.2,20251105-084826,776,Experiment,Both,1,Automatic,main,28,20260225-142229,local,local,750,S,S,E,A,E-S.png,A-S.png,sS,sS,mask-2.png,mask-1.png,s,1,0.8953629999996338,h,0,0.026649300001736265,0.0467620999988867,0.04791040000054636,0.09896759999901406,0.09952349999730359,0.7498677000003227
RSVPLG03,cs,20260225-141811,1.0.2,20251105-084826,776,Experiment,Both,1,Automatic,main,29,20260225-142234,local,global,300,H,S,A,E,A-H.png,S-E.png,hH,sS,mask-4.png,mask-1.png,h,1,0.5226959000028728,s,1,0.05340099999739323,0.04783999999926891,0.04767600000195671,0.10067829999752576,0.09977970000181813,0.30119939999713097
RSVPLG03,cs,20260225-141811,1.0.2,20251105-084826,776,Experiment,Both,1,Automatic,main,30,20260225-142238,local,local,300,S,H,A,E,A-S.png,E-H.png,sS,hH,mask-2.png,mask-3.png,s,1,0.4930525000017951,h,1,0.04234619999988354,0.04779689999850234,0.04769319999832078,0.09998609999820474,0.10089909999805968,0.2997959999993327
RSVPLG03,cs,20260225-141811,1.0.2,20251105-084826,776,Experiment,Both,1,Automatic,main,31,20260225-142243,local,global,300,S,S,A,A,A-S.png,S-A.png,sS,sS,mask-4.png,mask-2.png,s,1,0.39638059999924735,s,1,0.34480400000029476,0.047691200001281686,0.0475737000015215,0.10075879999931203,0.09975629999826197,0.30045780000000377
RSVPLG03,cs,20260225-141811,1.0.2,20251105-084826,776,Experiment,Both,1,Automatic,main,32,20260225-142247,global,local,300,H,S,E,E,H-E.png,E-S.png,hH,sS,mask-4.png,mask-2.png,h,1,0.4226020999994944,s,1,0.025529099999403115,0.04677749999973457,0.04878210000242689,0.10078399999838439,0.10093930000221008,0.29985259999739355
RSVPLG03,cs,20260225-141811,1.0.2,20251105-084826,776,Experiment,Both,1,Automatic,main,33,20260225-142251,local,global,300,H,S,E,A,E-H.png,S-A.png,hH,sS,mask-2.png,mask-2.png,s,0,0.5020263999977033,s,1,0.052934499999537366,0.04772000000230037,0.0464983999991091,0.09954530000322848,0.09902819999842905,0.30017990000123973
RSVPLG03,cs,20260225-141811,1.0.2,20251105-084826,776,Experiment,Both,1,Automatic,main,34,20260225-142255,local,global,300,S,H,E,A,E-S.png,H-A.png,sS,hH,mask-4.png,mask-4.png,s,1,0.3610909000017273,s,0,0.11374070000238135,0.0465394999991986,0.04684169999745791,0.10049549999894225,0.10025559999849065,0.2997499000011885
RSVPLG03,cs,20260225-141811,1.0.2,20251105-084826,776,Experiment,Both,1,Automatic,main,35,20260225-142259,global,global,300,H,H,E,A,H-E.png,H-A.png,hH,hH,mask-2.png,mask-1.png,h,1,0.3222867000004044,s,0,0.06004350000148406,0.04652899999928195,0.046535100002074614,0.09969309999723919,0.09941390000312822,0.300281099996937
RSVPLG03,cs,20260225-141811,1.0.2,20251105-084826,776,Experiment,Both,1,Automatic,main,36,20260225-142303,global,local,750,S,H,E,A,S-E.png,A-H.png,sS,hH,mask-4.png,mask-2.png,s,1,0.43443379999735043,h,1,0.08882299999822862,0.04696619999958784,0.04579820000071777,0.09892749999926309,0.09921329999997397,0.7512239999996382
RSVPLG03,cs,20260225-141811,1.0.2,20251105-084826,776,Experiment,Both,1,Automatic,main,37,20260225-142308,local,global,300,H,S,E,E,E-H.png,S-E.png,hH,sS,mask-4.png,mask-2.png,s,0,0.9877610999974422,s,1,0.0761090999985754,0.047670199997810414,0.04764129999966826,0.09934059999795863,0.100796700000501,0.29983999999967637
RSVPLG03,cs,20260225-141811,1.0.2,20251105-084826,776,Experiment,Both,1,Automatic,main,38,20260225-142313,local,global,750,H,H,E,E,E-H.png,H-E.png,hH,hH,mask-3.png,mask-3.png,h,1,0.5403311000009126,h,1,1.2595541999980924,0.04686740000033751,0.049525300000823336,0.09957639999993262,0.10054820000004838,0.7502167999991798
RSVPLG03,cs,20260225-141811,1.0.2,20251105-084826,776,Experiment,Both,1,Automatic,main,39,20260225-142319,local,global,300,S,S,E,A,E-S.png,S-A.png,sS,sS,mask-3.png,mask-4.png,s,1,0.8036824000009801,h,0,0.1729672000001301,0.04717209999944316,0.04577380000046105,0.10056919999988168,0.09811869999975897,0.3016764999993029
RSVPLG03,cs,20260225-141811,1.0.2,20251105-084826,776,Experiment,Both,1,Automatic,main,40,20260225-142323,global,global,300,H,S,A,A,H-A.png,S-A.png,hH,sS,mask-2.png,mask-1.png,s,0,1.6482948000011675,h,0,0.9158906000011484,0.04895159999796306,0.04777560000002268,0.09944560000076308,0.10012099999948987,0.30099519999930635
RSVPLG03,cs,20260225-141811,1.0.2,20251105-084826,776,Experiment,Both,1,Automatic,main,41,20260225-142330,global,global,750,H,H,A,E,H-A.png,H-E.png,hH,hH,mask-4.png,mask-2.png,h,1,0.6231577999969886,h,1,0.24264700000276207,0.04768550000153482,0.048071000001073116,0.09996410000167089,0.10016080000059446,0.7501516000011179
RSVPLG03,cs,20260225-141811,1.0.2,20251105-084826,776,Experiment,Both,1,Automatic,main,42,20260225-142335,local,global,300,H,H,A,A,A-H.png,H-A.png,hH,hH,mask-4.png,mask-2.png,s,0,0.794123400002718,h,1,0.10379660000035074,0.04760820000228705,0.046808600000076694,0.10061029999997118,0.09954080000170507,0.30066570000053616
RSVPLG03,cs,20260225-141811,1.0.2,20251105-084826,776,Experiment,Both,1,Automatic,main,43,20260225-142339,global,local,750,H,S,A,A,H-A.png,A-S.png,hH,sS,mask-2.png,mask-1.png,h,1,1.084665500002302,h,0,0.22999559999880148,0.04756239999915124,0.04769099999975879,0.10046950000105426,0.0998968000021705,0.7517389999993611
RSVPLG03,cs,20260225-141811,1.0.2,20251105-084826,776,Experiment,Both,1,Automatic,main,44,20260225-142345,global,local,300,S,H,A,A,S-A.png,A-H.png,sS,hH,mask-1.png,mask-3.png,h,0,1.228914100000111,h,1,0.3614038999985496,0.04771450000043842,0.04768089999924996,0.10093169999890961,0.10020190000068396,0.3000800999980129
RSVPLG03,cs,20260225-141811,1.0.2,20251105-084826,776,Experiment,Both,1,Automatic,main,45,20260225-142350,local,local,750,S,H,E,A,E-S.png,A-H.png,sS,hH,mask-4.png,mask-1.png,s,1,0.6288342000007106,h,1,0.10741110000162735,0.047766699997737305,0.04674270000032266,0.10032159999900614,0.0988876999981585,0.7509296999996877
RSVPLG03,cs,20260225-141811,1.0.2,20251105-084826,776,Experiment,Both,1,Automatic,main,46,20260225-142355,global,local,300,S,S,E,E,S-E.png,E-S.png,sS,sS,mask-4.png,mask-4.png,s,1,0.6568478000008326,s,1,0.21704790000148932,0.04877120000310242,0.04777500000272994,0.10105699999985518,0.10008120000202325,0.3009928999999829
RSVPLG03,cs,20260225-141811,1.0.2,20251105-084826,776,Experiment,Both,1,Automatic,main,47,20260225-142359,global,local,750,H,S,A,A,H-A.png,A-S.png,hH,sS,mask-3.png,mask-2.png,h,1,0.837298099999316,s,1,2.261785199996666,0.04625349999696482,0.04774620000171126,0.09828059999927063,0.09999140000218176,0.7501863999968919
RSVPLG03,cs,20260225-141811,1.0.2,20251105-084826,776,Experiment,Both,1,Automatic,main,48,20260225-142407,local,global,750,S,S,A,A,A-S.png,S-A.png,sS,sS,mask-3.png,mask-4.png,h,0,0.5941517999999633,s,1,0.1810217999991437,0.046532799999113195,0.04755029999796534,0.10057899999810616,0.10062309999921126,0.7500877999991644
RSVPLG03,cs,20260225-141811,1.0.2,20251105-084826,776,Experiment,Both,1,Automatic,main,49,20260225-142412,local,local,750,S,S,E,E,E-S.png,E-S.png,sS,sS,mask-3.png,mask-3.png,s,1,0.46302470000227913,s,1,0.13200549999965006,0.04764520000026096,0.04768580000018119,0.1001237000018591,0.10183709999910207,0.7509458000022278
RSVPLG03,cs,20260225-141811,1.0.2,20251105-084826,776,Experiment,Both,1,Automatic,main,50,20260225-142417,global,global,750,H,H,A,A,H-A.png,H-A.png,hH,hH,mask-4.png,mask-2.png,h,1,0.5789103999995859,h,1,0.06424950000291574,0.0470497999995132,0.04752329999973881,0.09992179999971995,0.10055500000089523,0.7501867999999376
RSVPLG03,cs,20260225-141811,1.0.2,20251105-084826,776,Experiment,Both,1,Automatic,main,51,20260225-142503,global,global,300,S,S,E,A,S-E.png,S-A.png,sS,sS,mask-2.png,mask-3.png,s,1,0.4633434999996098,s,1,0.0746833000011975,0.048724399999628076,0.04770089999874472,0.1006054999998014,0.10141730000032112,0.30015869999988354
RSVPLG03,cs,20260225-141811,1.0.2,20251105-084826,776,Experiment,Both,1,Automatic,main,52,20260225-142507,global,local,300,S,H,A,E,S-A.png,E-H.png,sS,hH,mask-1.png,mask-1.png,s,1,0.7492966999998316,h,1,0.04492309999841382,0.04872819999945932,0.04767079999874113,0.10096889999840641,0.09998270000141929,0.30057319999832544
RSVPLG03,cs,20260225-141811,1.0.2,20251105-084826,776,Experiment,Both,1,Automatic,main,53,20260225-142511,local,local,300,H,H,A,A,A-H.png,A-H.png,hH,hH,mask-3.png,mask-4.png,h,1,0.5221300000011979,s,0,0.3095986999978777,0.046694900000147754,0.04768700000204262,0.09946209999907296,0.09984650000114925,0.3009199999978591
RSVPLG03,cs,20260225-141811,1.0.2,20251105-084826,776,Experiment,Both,1,Automatic,main,54,20260225-142516,local,global,300,S,H,A,A,A-S.png,H-A.png,sS,hH,mask-2.png,mask-2.png,s,1,0.44621099999858416,h,1,0.4681813000024704,0.04768889999832027,0.04770700000153738,0.09987619999810704,0.09888770000179647,0.3014917999971658
RSVPLG03,cs,20260225-141811,1.0.2,20251105-084826,776,Experiment,Both,1,Automatic,main,55,20260225-142520,local,global,750,H,S,E,E,E-H.png,S-E.png,hH,sS,mask-3.png,mask-3.png,h,1,0.6422543999979098,s,1,0.006519200000184355,0.04671759999837377,0.047631199999159435,0.09994240000014543,0.10107219999918016,0.7495774999988498
RSVPLG03,cs,20260225-141811,1.0.2,20251105-084826,776,Experiment,Both,1,Automatic,main,56,20260225-142525,global,local,750,H,H,E,E,H-E.png,E-H.png,hH,hH,mask-4.png,mask-3.png,h,1,0.5601673999990453,s,0,0.04378349999751663,0.04870130000199424,0.04715539999961038,0.10171480000281008,0.10033610000027693,0.7513610000023618
RSVPLG03,cs,20260225-141811,1.0.2,20251105-084826,776,Experiment,Both,1,Automatic,main,57,20260225-142530,local,global,300,S,S,E,E,E-S.png,S-E.png,sS,sS,mask-1.png,mask-1.png,s,1,0.36203029999887804,s,1,0.12123459999929764,0.04752350000126171,0.0475241999993159,0.09963730000163196,0.09952909999992698,0.29989410000052885
RSVPLG03,cs,20260225-141811,1.0.2,20251105-084826,776,Experiment,Both,1,Automatic,main,58,20260225-142534,global,global,750,S,S,A,E,S-A.png,S-E.png,sS,sS,mask-1.png,mask-2.png,s,1,0.37632090000261087,s,1,0.06595330000345712,0.04847950000112178,0.04653139999936684,0.10055120000106399,0.09978390000105719,0.7519203000010748
RSVPLG03,cs,20260225-141811,1.0.2,20251105-084826,776,Experiment,Both,1,Automatic,main,59,20260225-142539,global,local,750,H,H,A,A,H-A.png,A-H.png,hH,hH,mask-1.png,mask-1.png,h,1,0.42026179999811575,h,1,0.12104339999859803,0.04755529999965802,0.04757120000067516,0.09940110000025015,0.09977160000198637,0.7514916000000085
RSVPLG03,cs,20260225-141811,1.0.2,20251105-084826,776,Experiment,Both,1,Automatic,main,60,20260225-142543,local,global,750,S,H,E,E,E-S.png,H-E.png,sS,hH,mask-4.png,mask-3.png,s,1,0.3349385000001348,h,1,0.016582000000198605,0.047418100002687424,0.04866869999750634,0.10048760000063339,0.10181639999791514,0.750646800002869
RSVPLG03,cs,20260225-141811,1.0.2,20251105-084826,776,Experiment,Both,1,Automatic,main,61,20260225-142548,local,local,750,H,H,E,E,E-H.png,E-H.png,hH,hH,mask-4.png,mask-2.png,h,1,0.4553090000008524,h,1,0.42624910000085947,0.04770319999806816,0.04765829999814741,0.09979430000021239,0.10188989999733167,0.7499820000011823
RSVPLG03,cs,20260225-141811,1.0.2,20251105-084826,776,Experiment,Both,1,Automatic,main,62,20260225-142553,global,local,750,H,H,E,A,H-E.png,A-H.png,hH,hH,mask-1.png,mask-1.png,h,1,0.368372900000395,s,0,0.7435055999994802,0.04746279999744729,0.04759660000127042,0.10027360000094632,0.09997270000167191,0.7505534999982046
RSVPLG03,cs,20260225-141811,1.0.2,20251105-084826,776,Experiment,Both,1,Automatic,main,63,20260225-142558,local,global,750,H,S,A,E,A-H.png,S-E.png,hH,sS,mask-4.png,mask-4.png,h,1,0.7200291000008292,h,0,0.07048969999959809,0.04673989999719197,0.04876430000149412,0.0999478999983694,0.09969470000214642,0.7503484999979264
RSVPLG03,cs,20260225-141811,1.0.2,20251105-084826,776,Experiment,Both,1,Automatic,main,64,20260225-142603,local,local,300,H,H,A,E,A-H.png,E-H.png,hH,hH,mask-3.png,mask-3.png,h,1,0.46442689999821596,s,0,0.5445163000003959,0.04768029999831924,0.04757880000033765,0.0990983999981836,0.10044420000122045,0.3001635999971768
RSVPLG03,cs,20260225-141811,1.0.2,20251105-084826,776,Experiment,Both,1,Automatic,main,65,20260225-142607,local,local,300,H,S,A,E,A-H.png,E-S.png,hH,sS,mask-1.png,mask-2.png,h,1,0.5425992000018596,s,1,0.010431800001242664,0.04857160000028671,0.04752519999965443,0.10062300000208779,0.09945610000067973,0.30114770000000135
RSVPLG03,cs,20260225-141811,1.0.2,20251105-084826,776,Experiment,Both,1,Automatic,main,66,20260225-142611,local,local,300,H,S,A,E,A-H.png,E-S.png,hH,sS,mask-2.png,mask-2.png,h,1,0.41724100000283215,s,1,0.024673599997186102,0.047683800003142096,0.047662999997555744,0.10079250000126194,0.09990099999777158,0.3001075000029232
RSVPLG03,cs,20260225-141811,1.0.2,20251105-084826,776,Experiment,Both,1,Automatic,main,67,20260225-142615,local,global,300,S,H,E,E,E-S.png,H-E.png,sS,hH,mask-4.png,mask-4.png,s,1,0.5298483999977179,s,0,0.0831638000017847,0.047686599998996826,0.04767850000280305,0.09995249999701628,0.1013189000004786,0.2995539999974426
RSVPLG03,cs,20260225-141811,1.0.2,20251105-084826,776,Experiment,Both,1,Automatic,main,68,20260225-142619,global,local,750,S,S,E,E,S-E.png,E-S.png,sS,sS,mask-1.png,mask-2.png,s,1,0.4120829000021331,s,1,0.09206869999979972,0.04700990000128513,0.047279900001740316,0.1008430000001681,0.09932439999829512,0.7525275000007241
RSVPLG03,cs,20260225-141811,1.0.2,20251105-084826,776,Experiment,Both,1,Automatic,main,69,20260225-142624,global,local,750,H,H,A,A,H-A.png,A-H.png,hH,hH,mask-4.png,mask-2.png,h,1,0.3265465000004042,h,1,0.07261640000069747,0.04750829999829875,0.04768649999823538,0.09857310000006692,0.10109509999892907,0.7499334999993152
RSVPLG03,cs,20260225-141811,1.0.2,20251105-084826,776,Experiment,Both,1,Automatic,main,70,20260225-142628,global,global,300,H,S,E,E,H-E.png,S-E.png,hH,sS,mask-1.png,mask-1.png,h,1,0.5068480000009004,s,1,0.4186850999976741,0.04608850000295206,0.047527499998977873,0.10026140000263695,0.09854169999744045,0.3004901000022073
RSVPLG03,cs,20260225-141811,1.0.2,20251105-084826,776,Experiment,Both,1,Automatic,main,71,20260225-142633,global,global,300,S,H,A,A,S-A.png,H-A.png,sS,hH,mask-4.png,mask-4.png,s,1,0.4824618999991799,h,1,0.07615870000154246,0.04751370000303723,0.04858109999986482,0.10163900000043213,0.10065619999659248,0.30051360000288696
RSVPLG03,cs,20260225-141811,1.0.2,20251105-084826,776,Experiment,Both,1,Automatic,main,72,20260225-142637,local,local,750,H,H,E,E,E-H.png,E-H.png,hH,hH,mask-1.png,mask-1.png,h,1,0.3435795999976108,h,1,0.08828989999892656,0.04752110000117682,0.04950910000115982,0.09881160000077216,0.10055760000250302,0.7499743000007584
RSVPLG03,cs,20260225-141811,1.0.2,20251105-084826,776,Experiment,Both,1,Automatic,main,73,20260225-142641,local,local,300,H,S,A,A,A-H.png,A-S.png,hH,sS,mask-1.png,mask-4.png,h,1,0.6112447000014072,s,1,0.6915415000003122,0.047502900000836235,0.04724229999919771,0.10050489999775891,0.10031339999841293,0.30016020000039134
RSVPLG03,cs,20260225-141811,1.0.2,20251105-084826,776,Experiment,Both,1,Automatic,main,74,20260225-142646,local,global,750,H,S,E,A,E-H.png,S-A.png,hH,sS,mask-2.png,mask-3.png,h,1,0.4131210000014107,s,1,1.2880093999992823,0.04850389999774052,0.04916649999722722,0.09952379999958794,0.10128919999988284,0.7505581000004895
RSVPLG03,cs,20260225-141811,1.0.2,20251105-084826,776,Experiment,Both,1,Automatic,main,75,20260225-142652,global,global,750,H,S,E,A,H-E.png,S-A.png,hH,sS,mask-2.png,mask-3.png,h,1,0.8736680000001797,h,0,0.0746437000016158,0.046740900001168484,0.048623300001054304,0.09993980000217562,0.1016687000010279,0.7503101000002061
RSVPLG03,cs,20260225-141811,1.0.2,20251105-084826,776,Experiment,Both,1,Automatic,main,76,20260225-142737,global,global,750,S,S,A,E,S-A.png,S-E.png,sS,sS,mask-2.png,mask-2.png,s,1,0.5549307000001136,s,1,0.05250319999686326,0.04804330000115442,0.047551699997711694,0.10102539999934379,0.10055469999861089,0.7510317000014766
RSVPLG03,cs,20260225-141811,1.0.2,20251105-084826,776,Experiment,Both,1,Automatic,main,77,20260225-142742,global,global,300,H,H,E,E,H-E.png,H-E.png,hH,hH,mask-4.png,mask-2.png,h,1,0.31200430000171764,h,1,0.052247399999032496,0.047473899998294655,0.04667200000039884,0.10072069999660016,0.09987080000064452,0.30134629999884055
RSVPLG03,cs,20260225-141811,1.0.2,20251105-084826,776,Experiment,Both,1,Automatic,main,78,20260225-142746,global,local,300,S,S,E,E,S-E.png,E-S.png,sS,sS,mask-3.png,mask-2.png,s,1,0.32405070000095293,s,1,0.05258770000000368,0.04764470000009169,0.047681700001703575,0.10066180000285385,0.10095910000018193,0.3002231999998912
RSVPLG03,cs,20260225-141811,1.0.2,20251105-084826,776,Experiment,Both,1,Automatic,main,79,20260225-142750,global,global,750,H,H,A,A,H-A.png,H-A.png,hH,hH,mask-3.png,mask-1.png,h,1,0.24921100000210572,h,1,0.05338120000305935,0.047758800003066426,0.04652630000055069,0.10021380000034696,0.10036070000205655,0.7522102000002633
RSVPLG03,cs,20260225-141811,1.0.2,20251105-084826,776,Experiment,Both,1,Automatic,main,80,20260225-142754,global,global,750,S,S,E,E,S-E.png,S-E.png,sS,sS,mask-3.png,mask-3.png,s,1,0.3286876999991364,s,1,0.06764830000247457,0.04866039999978966,0.04752559999906225,0.10092920000170125,0.10074519999761833,0.7522955000022193
RSVPLG03,cs,20260225-141811,1.0.2,20251105-084826,776,Experiment,Both,1,Automatic,main,81,20260225-142758,global,local,750,S,H,E,E,S-E.png,E-H.png,sS,hH,mask-1.png,mask-4.png,s,1,0.47557769999912125,s,0,0.05775029999858816,0.0472023000002082,0.04869690000123228,0.09923709999929997,0.10173270000086632,0.7505276000010781
RSVPLG03,cs,20260225-141811,1.0.2,20251105-084826,776,Experiment,Both,1,Automatic,main,82,20260225-142803,local,global,750,H,S,A,E,A-H.png,S-E.png,hH,sS,mask-1.png,mask-4.png,h,1,0.2925056999993103,s,1,0.026400000002468005,0.047551100000418955,0.04785489999994752,0.09965999999985797,0.10135770000124467,0.749943799997709
RSVPLG03,cs,20260225-141811,1.0.2,20251105-084826,776,Experiment,Both,1,Automatic,main,83,20260225-142807,global,global,750,H,S,A,E,H-A.png,S-E.png,hH,sS,mask-1.png,mask-3.png,h,1,0.26890220000132103,s,1,0.0100696000008611,0.04753789999813307,0.04880129999946803,0.09950639999806299,0.10101269999722717,0.7511927000014111
RSVPLG03,cs,20260225-141811,1.0.2,20251105-084826,776,Experiment,Both,1,Automatic,main,84,20260225-142812,global,global,300,S,H,E,E,S-E.png,H-E.png,sS,hH,mask-3.png,mask-2.png,s,1,0.36108819999935804,h,1,0.011137299999973038,0.04710440000053495,0.04951280000022962,0.0996015000018815,0.1005129000004672,0.2999505000007048
RSVPLG03,cs,20260225-141811,1.0.2,20251105-084826,776,Experiment,Both,1,Automatic,main,85,20260225-142816,local,local,300,S,H,E,E,E-S.png,E-H.png,sS,hH,mask-4.png,mask-1.png,h,0,0.33472450000044773,s,0,0.011236599999392638,0.04747670000142534,0.04868920000080834,0.10038239999994403,0.09991179999997257,0.3007218999991892
RSVPLG03,cs,20260225-141811,1.0.2,20251105-084826,776,Experiment,Both,1,Automatic,main,86,20260225-142820,local,local,300,S,H,E,E,E-S.png,E-H.png,sS,hH,mask-1.png,mask-1.png,s,1,0.42709950000062236,h,1,0.02565080000204034,0.046556699999200646,0.047526700000162236,0.09968479999952251,0.09882090000246535,0.299946799997997
RSVPLG03,cs,20260225-141811,1.0.2,20251105-084826,776,Experiment,Both,1,Automatic,main,87,20260225-142824,global,global,750,S,H,A,E,S-A.png,H-E.png,sS,hH,mask-1.png,mask-2.png,s,1,0.41702950000035344,h,1,0.039762700002029305,0.0487089999987802,0.045852899998862995,0.10071809999863035,0.09996780000074068,0.7524488999988534
RSVPLG03,cs,20260225-141811,1.0.2,20251105-084826,776,Experiment,Both,1,Automatic,main,88,20260225-142828,global,local,300,S,H,E,A,S-E.png,A-H.png,sS,hH,mask-1.png,mask-2.png,s,1,0.41423389999908977,h,1,0.006755400001566159,0.047551499999826774,0.046820799998386065,0.09951319999890984,0.09971409999707248,0.30011780000131694
RSVPLG03,cs,20260225-141811,1.0.2,20251105-084826,776,Experiment,Both,1,Automatic,main,89,20260225-142832,local,global,300,H,S,E,A,E-H.png,S-A.png,hH,sS,mask-2.png,mask-3.png,h,1,0.48537519999808865,s,1,0.8278485000009823,0.04750939999939874,0.04756879999695229,0.10051659999953699,0.09956879999663215,0.30042390000016894
RSVPLG03,cs,20260225-141811,1.0.2,20251105-084826,776,Experiment,Both,1,Automatic,main,90,20260225-142837,local,local,300,S,S,E,E,E-S.png,E-S.png,sS,sS,mask-1.png,mask-4.png,s,1,0.33644830000048387,s,1,0.05255600000236882,0.04805240000132471,0.047549099999741884,0.10111350000079256,0.09951769999679527,0.30203030000120634
RSVPLG03,cs,20260225-141811,1.0.2,20251105-084826,776,Experiment,Both,1,Automatic,main,91,20260225-142841,global,local,300,H,H,E,A,H-E.png,A-H.png,hH,hH,mask-4.png,mask-3.png,h,1,0.32485129999986384,h,1,0.05175900000176625,0.0475083999990602,0.047524999998131534,0.10055609999835724,0.10156939999797032,0.29984049999984563
RSVPLG03,cs,20260225-141811,1.0.2,20251105-084826,776,Experiment,Both,1,Automatic,main,92,20260225-142845,global,local,750,S,S,E,A,S-E.png,A-S.png,sS,sS,mask-2.png,mask-4.png,s,1,0.27173080000284244,s,1,0.08547200000248267,0.04752079999889247,0.047526899998047156,0.09884099999908358,0.1005366999997932,0.7500708000006853
RSVPLG03,cs,20260225-141811,1.0.2,20251105-084826,776,Experiment,Both,1,Automatic,main,93,20260225-142850,local,global,750,H,S,E,E,E-H.png,S-E.png,hH,sS,mask-2.png,mask-2.png,h,1,0.293676699999196,s,1,0.5641711999996915,0.04810429999997723,0.04859969999961322,0.1004629000017303,0.09962620000078459,0.7518601000010676
RSVPLG03,cs,20260225-141811,1.0.2,20251105-084826,776,Experiment,Both,1,Automatic,main,94,20260225-142855,global,global,300,H,S,A,E,H-A.png,S-E.png,hH,sS,mask-4.png,mask-3.png,h,1,0.4155128999991575,s,1,0.30032460000074934,0.04751719999694615,0.04751620000024559,0.10057369999776711,0.10052599999835365,0.2998370999994222
RSVPLG03,cs,20260225-141811,1.0.2,20251105-084826,776,Experiment,Both,1,Automatic,main,95,20260225-142859,local,local,300,S,S,E,E,E-S.png,E-S.png,sS,sS,mask-3.png,mask-1.png,s,1,0.37165830000230926,s,1,0.6844831999987946,0.04775059999883524,0.046515600002749125,0.09984919999988051,0.09853389999989304,0.3010240999974485
RSVPLG03,cs,20260225-141811,1.0.2,20251105-084826,776,Experiment,Both,1,Automatic,main,96,20260225-142903,local,local,750,H,H,E,E,E-H.png,E-H.png,hH,hH,mask-4.png,mask-4.png,s,0,1.2030515000005835,s,0,0.08462390000204323,0.04744089999803691,0.04765459999907762,0.10024720000001253,0.10021060000144644,0.7504055999997945
RSVPLG03,cs,20260225-141811,1.0.2,20251105-084826,776,Experiment,Both,1,Automatic,main,97,20260225-142909,global,local,750,H,S,A,E,H-A.png,E-S.png,hH,sS,mask-3.png,mask-4.png,h,1,0.4578919000014139,h,0,0.6818447999976343,0.04754969999703462,0.0475427999990643,0.09939899999881163,0.10055259999717236,0.7515031000002637
RSVPLG03,cs,20260225-141811,1.0.2,20251105-084826,776,Experiment,Both,1,Automatic,main,98,20260225-142914,global,global,300,S,S,E,A,S-E.png,S-A.png,sS,sS,mask-2.png,mask-2.png,s,1,1.1369665000020177,s,1,0.20441650000066147,0.04689639999924111,0.047669499999756226,0.09923580000031507,0.09987579999869922,0.29994470000019646
RSVPLG03,cs,20260225-141811,1.0.2,20251105-084826,776,Experiment,Both,1,Automatic,main,99,20260225-142919,local,local,750,S,H,E,E,E-S.png,E-H.png,sS,hH,mask-3.png,mask-3.png,s,1,0.395746499998495,h,1,0.03693650000059279,0.04751350000151433,0.04692340000110562,0.10071790000074543,0.10019820000161417,0.7508143000013661
RSVPLG03,cs,20260225-141811,1.0.2,20251105-084826,776,Experiment,Both,1,Automatic,main,100,20260225-142924,global,global,300,S,H,E,A,S-E.png,H-A.png,sS,hH,mask-3.png,mask-3.png,s,1,1.2213616000008187,h,1,0.01547999999820604,0.04769540000052075,0.04850310000256286,0.10188639999978477,0.10128740000072867,0.3006965999993554
RSVPLG03,cs,20260225-143007,1.0.2,20251105-084826,776,Experiment,Both,1,Automatic,warmup,1,20260225-143115,global,global,750,S,S,E,E,S-E.png,S-E.png,sS,sS,mask-3.png,mask-2.png,s,1,0.2546604000017396,s,1,0.061438900000212016,0.041446900002483744,0.04669560000183992,0.09421620000284747,0.0989164000020537,0.7437690000006114
RSVPLG03,cs,20260225-143007,1.0.2,20251105-084826,776,Experiment,Both,1,Automatic,warmup,2,20260225-143119,local,global,300,S,S,A,E,A-S.png,S-E.png,sS,sS,mask-1.png,mask-1.png,s,1,0.6153685999997833,h,0,0.5631514999986393,0.04591179999988526,0.047974499997508246,0.09905869999784045,0.1001704999980575,0.2977608000001055
RSVPLG03,cs,20260225-143007,1.0.2,20251105-084826,776,Experiment,Both,1,Automatic,warmup,3,20260225-143124,global,global,300,H,H,E,A,H-E.png,H-A.png,hH,hH,mask-1.png,mask-3.png,h,1,0.4806319000017538,s,0,0.4861455999998725,0.0475908000007621,0.047681899999588495,0.1008375999990676,0.0998751999977685,0.2988803000007465
RSVPLG03,cs,20260225-143007,1.0.2,20251105-084826,776,Experiment,Both,1,Automatic,warmup,4,20260225-143129,local,local,750,H,S,E,A,E-H.png,A-S.png,hH,sS,mask-4.png,mask-1.png,s,0,0.47211629999947036,h,0,0.05866289999903529,0.047696100002212916,0.04698409999764408,0.09994600000209175,0.10009839999838732,0.7495697000013024
RSVPLG03,cs,20260225-143007,1.0.2,20251105-084826,776,Experiment,Both,1,Automatic,main,5,20260225-143133,local,global,300,S,H,A,E,A-S.png,H-E.png,sS,hH,mask-1.png,mask-3.png,h,0,0.5084080999986327,s,0,1.3052605999982916,0.04727110000021639,0.04872030000115046,0.10086990000127116,0.10000059999947553,0.2992262000007031
RSVPLG03,cs,20260225-143007,1.0.2,20251105-084826,776,Experiment,Both,1,Automatic,main,6,20260225-143139,global,global,750,H,H,E,A,H-E.png,H-A.png,hH,hH,mask-2.png,mask-2.png,h,1,0.378025300000445,h,1,0.06724770000073477,0.0484794999974838,0.04769579999992857,0.09943409999686992,0.09987980000005336,0.7489979999991192
RSVPLG03,cs,20260225-143007,1.0.2,20251105-084826,776,Experiment,Both,1,Automatic,main,7,20260225-143144,local,local,300,S,H,E,E,E-S.png,E-H.png,sS,hH,mask-2.png,mask-1.png,s,1,0.39437120000002324,h,1,0.04444409999996424,0.04756699999779812,0.04750139999669045,0.10074109999914072,0.0995796999995946,0.30035750000024564
RSVPLG03,cs,20260225-143007,1.0.2,20251105-084826,776,Experiment,Both,1,Automatic,main,8,20260225-143148,global,global,300,H,S,E,A,H-E.png,S-A.png,hH,sS,mask-4.png,mask-4.png,h,1,0.42730410000149277,h,0,0.12424889999965671,0.04756719999932102,0.04860069999995176,0.0996153999985836,0.10050530000080471,0.29944029999751365
RSVPLG03,cs,20260225-143007,1.0.2,20251105-084826,776,Experiment,Both,1,Automatic,main,9,20260225-143152,local,global,300,H,H,A,E,A-H.png,H-E.png,hH,hH,mask-3.png,mask-3.png,h,1,0.6699439000003622,h,1,1.990748899999744,0.04634989999976824,0.04744570000184467,0.09931190000133938,0.10043919999952777,0.2988822000006621
RSVPLG03,cs,20260225-143007,1.0.2,20251105-084826,776,Experiment,Both,1,Automatic,main,10,20260225-143158,global,local,300,S,S,A,A,S-A.png,A-S.png,sS,sS,mask-4.png,mask-4.png,s,1,1.3987746999991941,s,1,0.07506279999870458,0.0467103999981191,0.047541500000079395,0.10178349999841885,0.09958980000010342,0.30046179999771994
RSVPLG03,cs,20260225-143007,1.0.2,20251105-084826,776,Experiment,Both,1,Automatic,main,11,20260225-143203,local,global,300,H,S,E,E,E-H.png,S-E.png,hH,sS,mask-2.png,mask-3.png,h,1,0.5286417999996047,s,1,0.012026500000501983,0.047519800002191914,0.04659340000216616,0.09989950000090175,0.09863799999948242,0.301289099999849
RSVPLG03,cs,20260225-143007,1.0.2,20251105-084826,776,Experiment,Both,1,Automatic,main,12,20260225-143208,local,local,750,S,H,E,E,E-S.png,E-H.png,sS,hH,mask-2.png,mask-1.png,s,1,0.3651023999991594,h,1,0.042419699999300065,0.04773850000128732,0.04572100000223145,0.09876860000076704,0.09820540000146138,0.7498856999991403
RSVPLG03,cs,20260225-143007,1.0.2,20251105-084826,776,Experiment,Both,1,Automatic,main,13,20260225-143212,local,local,300,H,H,E,E,E-H.png,E-H.png,hH,hH,mask-4.png,mask-1.png,h,1,0.2897138000007544,s,0,0.0683433000012883,0.04566930000146385,0.04684570000245003,0.09990919999836478,0.10022759999992559,0.29852459999892744
RSVPLG03,cs,20260225-143007,1.0.2,20251105-084826,776,Experiment,Both,1,Automatic,main,14,20260225-143216,local,local,300,S,H,A,A,A-S.png,A-H.png,sS,hH,mask-3.png,mask-1.png,s,1,0.46302379999906407,s,0,0.10959419999926467,0.047817399998166366,0.046634199999971315,0.10033560000010766,0.100598799999716,0.30005249999885564
RSVPLG03,cs,20260225-143007,1.0.2,20251105-084826,776,Experiment,Both,1,Automatic,main,15,20260225-143220,local,local,750,H,S,E,E,E-H.png,E-S.png,hH,sS,mask-3.png,mask-3.png,s,0,0.5961043999996036,s,1,0.09241560000009486,0.04682209999737097,0.045872099999542115,0.09812069999679807,0.0987277999993239,0.749017999998614
RSVPLG03,cs,20260225-143007,1.0.2,20251105-084826,776,Experiment,Both,1,Automatic,main,16,20260225-143225,global,global,750,S,H,A,E,S-A.png,H-E.png,sS,hH,mask-4.png,mask-1.png,s,1,0.5015734000007797,h,1,0.021465199999511242,0.047415599998203106,0.0465717000006407,0.10043979999682051,0.09863690000202041,0.7495171999980812
RSVPLG03,cs,20260225-143007,1.0.2,20251105-084826,776,Experiment,Both,1,Automatic,main,17,20260225-143229,global,global,750,S,H,E,E,S-E.png,H-E.png,sS,hH,mask-1.png,mask-3.png,s,1,0.4676556999984314,h,1,0.016125499998452142,0.04672320000099717,0.04773369999747956,0.09933079999973415,0.09894619999977294,0.749237500000163
RSVPLG03,cs,20260225-143007,1.0.2,20251105-084826,776,Experiment,Both,1,Automatic,main,18,20260225-143234,global,local,750,S,H,E,E,S-E.png,E-H.png,sS,hH,mask-1.png,mask-2.png,s,1,0.34376290000000154,h,1,0.011478700002044206,0.04653920000055223,0.04973089999839431,0.09862209999846527,0.10090879999916069,0.7471669000005932
RSVPLG03,cs,20260225-143007,1.0.2,20251105-084826,776,Experiment,Both,1,Automatic,main,19,20260225-143238,global,global,300,H,S,E,A,H-E.png,S-A.png,hH,sS,mask-3.png,mask-4.png,h,1,0.5592979999964882,s,1,0.43684639999992214,0.04769479999959003,0.047691599997051526,0.1010774999995192,0.0999013999971794,0.3001256000025023
RSVPLG03,cs,20260225-143007,1.0.2,20251105-084826,776,Experiment,Both,1,Automatic,main,20,20260225-143243,local,global,750,H,S,E,A,E-H.png,S-A.png,hH,sS,mask-3.png,mask-2.png,h,1,0.43935249999776715,s,1,0.042581699999573175,0.04749169999922742,0.047524800000246614,0.09958320000077947,0.09954120000111288,0.7500113999994937
RSVPLG03,cs,20260225-143007,1.0.2,20251105-084826,776,Experiment,Both,1,Automatic,main,21,20260225-143248,global,global,300,S,S,A,A,S-A.png,S-A.png,sS,sS,mask-4.png,mask-1.png,s,1,0.5056313999994018,s,1,0.05680980000033742,0.044909200001711724,0.047669999999925494,0.09819480000078329,0.10093899999992573,0.29775599999993574
RSVPLG03,cs,20260225-143007,1.0.2,20251105-084826,776,Experiment,Both,1,Automatic,main,22,20260225-143252,local,global,300,H,S,E,A,E-H.png,S-A.png,hH,sS,mask-4.png,mask-1.png,h,1,0.7061487999999372,s,1,0.0400865999981761,0.04728979999708827,0.04769440000018221,0.10023729999738862,0.09990069999912521,0.3000324999993609
RSVPLG03,cs,20260225-143007,1.0.2,20251105-084826,776,Experiment,Both,1,Automatic,main,23,20260225-143256,global,global,300,S,S,E,A,S-E.png,S-A.png,sS,sS,mask-4.png,mask-3.png,s,1,0.35821329999816953,s,1,0.10351909999735653,0.049222800000279676,0.04727140000250074,0.10030710000137333,0.10032030000002123,0.300251799999387
RSVPLG03,cs,20260225-143007,1.0.2,20251105-084826,776,Experiment,Both,1,Automatic,main,24,20260225-143300,global,global,300,S,H,E,A,S-E.png,H-A.png,sS,hH,mask-1.png,mask-1.png,s,1,0.27691840000261436,h,1,0.023987300002772827,0.047698999998829095,0.047476200001256075,0.09985909999886644,0.0986975000014354,0.3015101999990293
RSVPLG03,cs,20260225-143007,1.0.2,20251105-084826,776,Experiment,Both,1,Automatic,main,25,20260225-143304,global,local,750,H,H,A,E,H-A.png,E-H.png,hH,hH,mask-1.png,mask-1.png,s,0,0.34933019999880344,h,1,0.02277739999772166,0.04568020000078832,0.0477599999976519,0.09987469999759924,0.09981309999784571,0.7473583999999391
RSVPLG03,cs,20260225-143007,1.0.2,20251105-084826,776,Experiment,Both,1,Automatic,main,26,20260225-143329,global,local,300,S,S,A,A,S-A.png,A-S.png,sS,sS,mask-4.png,mask-4.png,s,1,0.7260060000007797,s,1,0.05987529999765684,0.0465652000020782,0.04759120000016992,0.09946630000195,0.10020720000102301,0.2992760000015551
RSVPLG03,cs,20260225-143007,1.0.2,20251105-084826,776,Experiment,Both,1,Automatic,main,27,20260225-143334,local,global,300,H,H,E,E,E-H.png,H-E.png,hH,hH,mask-3.png,mask-4.png,h,1,0.46802210000169,s,0,0.06921589999910793,0.047451800000999356,0.048823799999809125,0.10042559999783407,0.10011389999999665,0.29872059999979683
RSVPLG03,cs,20260225-143007,1.0.2,20251105-084826,776,Experiment,Both,1,Automatic,main,28,20260225-143338,global,global,300,S,H,A,A,S-A.png,H-A.png,sS,hH,mask-1.png,mask-4.png,s,1,0.7953366000001552,s,0,0.09983519999877899,0.048216700000921264,0.047483599999395665,0.10027410000111558,0.09849269999904209,0.3005278000018734
RSVPLG03,cs,20260225-143007,1.0.2,20251105-084826,776,Experiment,Both,1,Automatic,main,29,20260225-143342,local,global,750,S,H,A,A,A-S.png,H-A.png,sS,hH,mask-4.png,mask-3.png,s,1,0.48579420000169193,h,1,0.024769100000412436,0.047524100002192426,0.047585000000253785,0.1015612000010151,0.09958969999934197,0.7500713000008545
RSVPLG03,cs,20260225-143007,1.0.2,20251105-084826,776,Experiment,Both,1,Automatic,main,30,20260225-143347,global,global,300,S,S,A,E,S-A.png,S-E.png,sS,sS,mask-1.png,mask-2.png,s,1,0.4995200000012119,h,0,0.003695199997309828,0.04754580000007991,0.047428199999558274,0.1005418999993708,0.09948009999789065,0.30029410000133794
RSVPLG03,cs,20260225-143007,1.0.2,20251105-084826,776,Experiment,Both,1,Automatic,main,31,20260225-143351,global,global,750,H,H,E,A,H-E.png,H-A.png,hH,hH,mask-2.png,mask-4.png,h,1,0.33680549999917275,h,1,0.08366540000133682,0.047543799999402836,0.04730569999810541,0.10081410000202595,0.09927979999702075,0.7495708000024024
RSVPLG03,cs,20260225-143007,1.0.2,20251105-084826,776,Experiment,Both,1,Automatic,main,32,20260225-143356,local,global,300,H,S,E,E,E-H.png,S-E.png,hH,sS,mask-1.png,mask-2.png,h,1,0.8346727999996801,s,1,0.9869769999968412,0.04870849999861093,0.047696000001451466,0.10084949999873061,0.09967770000002929,0.3008659999977681
RSVPLG03,cs,20260225-143007,1.0.2,20251105-084826,776,Experiment,Both,1,Automatic,main,33,20260225-143401,global,global,750,S,S,A,A,S-A.png,S-A.png,sS,sS,mask-2.png,mask-1.png,s,1,0.36462870000104886,s,1,0.0586842999982764,0.04700409999713884,0.047662500001024455,0.0988809999980731,0.10067300000082469,0.7486140999972122
RSVPLG03,cs,20260225-143007,1.0.2,20251105-084826,776,Experiment,Both,1,Automatic,main,34,20260225-143406,global,local,750,S,H,E,A,S-E.png,A-H.png,sS,hH,mask-1.png,mask-4.png,s,1,0.43803750000006403,s,0,0.05567270000028657,0.04757360000076005,0.04711759999918286,0.09960050000154297,0.0990842999999586,0.748609000002034
RSVPLG03,cs,20260225-143007,1.0.2,20251105-084826,776,Experiment,Both,1,Automatic,main,35,20260225-143410,local,local,750,H,H,A,A,A-H.png,A-H.png,hH,hH,mask-3.png,mask-4.png,h,1,0.3221460000022489,h,1,0.07032710000203224,0.04732080000030692,0.04667590000099153,0.1003393999999389,0.0997471000009682,0.7506279999979597
RSVPLG03,cs,20260225-143007,1.0.2,20251105-084826,776,Experiment,Both,1,Automatic,main,36,20260225-143415,global,local,750,H,H,E,E,H-E.png,E-H.png,hH,hH,mask-4.png,mask-2.png,h,1,0.30914620000112336,h,1,0.0687489000010828,0.0471676999986812,0.047500399999989895,0.10117329999775393,0.09950240000034682,0.7500989999971353
RSVPLG03,cs,20260225-143007,1.0.2,20251105-084826,776,Experiment,Both,1,Automatic,main,37,20260225-143419,global,local,300,H,S,E,A,H-E.png,A-S.png,hH,sS,mask-2.png,mask-1.png,h,1,0.35073539999939385,s,1,0.03327770000032615,0.04769119999764371,0.04696059999696445,0.09962979999909294,0.09950019999814685,0.29988400000002
RSVPLG03,cs,20260225-143007,1.0.2,20251105-084826,776,Experiment,Both,1,Automatic,main,38,20260225-143423,global,local,750,H,H,A,E,H-A.png,E-H.png,hH,hH,mask-3.png,mask-2.png,h,1,0.38596029999825987,h,1,0.09246039999925415,0.0493992999981856,0.04751770000075339,0.10019649999958347,0.09952500000144937,0.7506646999972872
RSVPLG03,cs,20260225-143007,1.0.2,20251105-084826,776,Experiment,Both,1,Automatic,main,39,20260225-143428,global,global,300,H,H,A,A,H-A.png,H-A.png,hH,hH,mask-1.png,mask-2.png,h,1,0.3223288000008324,h,1,0.09018680000008317,0.04775769999832846,0.04740179999862448,0.09986299999945913,0.1004992999987735,0.30094699999972363
RSVPLG03,cs,20260225-143007,1.0.2,20251105-084826,776,Experiment,Both,1,Automatic,main,40,20260225-143432,global,local,750,S,S,A,A,S-A.png,A-S.png,sS,sS,mask-1.png,mask-3.png,s,1,0.2826247999983025,s,1,0.07497420000072452,0.048498500000278,0.04758290000245324,0.10073199999897042,0.09979630000088946,0.7493336999978055
RSVPLG03,cs,20260225-143007,1.0.2,20251105-084826,776,Experiment,Both,1,Automatic,main,41,20260225-143436,global,local,300,S,H,E,E,S-E.png,E-H.png,sS,hH,mask-3.png,mask-3.png,h,0,0.40639699999883305,h,1,0.0896909000002779,0.04741680000006454,0.047236799997335766,0.10049699999945005,0.1000278999999864,0.3003381000016816
RSVPLG03,cs,20260225-143007,1.0.2,20251105-084826,776,Experiment,Both,1,Automatic,main,42,20260225-143440,local,local,750,H,S,E,A,E-H.png,A-S.png,hH,sS,mask-4.png,mask-2.png,s,0,0.5957718999998178,h,0,0.08908269999665208,0.04831639999974868,0.047495800001343014,0.10037309999825084,0.09954039999865927,0.7511443000003055
RSVPLG03,cs,20260225-143007,1.0.2,20251105-084826,776,Experiment,Both,1,Automatic,main,43,20260225-143445,global,local,750,S,S,E,A,S-E.png,A-S.png,sS,sS,mask-1.png,mask-3.png,s,1,0.30699010000171256,h,0,0.11796929999763961,0.047445000000152504,0.04755289999957313,0.09936949999973876,0.10045979999995325,0.7488699999994424
RSVPLG03,cs,20260225-143007,1.0.2,20251105-084826,776,Experiment,Both,1,Automatic,main,44,20260225-143450,local,global,300,H,S,E,A,E-H.png,S-A.png,hH,sS,mask-2.png,mask-2.png,h,1,0.3423761000012746,s,1,0.548183800001425,0.0468405999999959,0.0475786999995762,0.09994580000056885,0.09977540000181762,0.29969989999881363
RSVPLG03,cs,20260225-143007,1.0.2,20251105-084826,776,Experiment,Both,1,Automatic,main,45,20260225-143454,global,local,300,H,H,E,A,H-E.png,A-H.png,hH,hH,mask-3.png,mask-3.png,h,1,0.3368045000024722,s,0,0.5914917000009154,0.04890319999685744,0.04657199999928707,0.10112189999927068,0.09953300000051968,0.30023349999828497
RSVPLG03,cs,20260225-143007,1.0.2,20251105-084826,776,Experiment,Both,1,Automatic,main,46,20260225-143459,local,local,750,S,S,E,E,E-S.png,E-S.png,sS,sS,mask-3.png,mask-2.png,s,1,0.11845130000074278,s,1,0.08050009999715257,0.04903169999670354,0.04757899999822257,0.10120329999699607,0.09979589999784366,0.7497347999997146
RSVPLG03,cs,20260225-143007,1.0.2,20251105-084826,776,Experiment,Both,1,Automatic,main,47,20260225-143503,local,global,750,H,S,A,E,A-H.png,S-E.png,hH,sS,mask-3.png,mask-4.png,h,1,0.2543480999993335,s,1,0.4120629999997618,0.04767870000068797,0.047359599997435,0.09887399999934132,0.10035909999714931,0.7477786000017659
RSVPLG03,cs,20260225-143007,1.0.2,20251105-084826,776,Experiment,Both,1,Automatic,main,48,20260225-143508,global,global,750,H,S,A,E,H-A.png,S-E.png,hH,sS,mask-2.png,mask-3.png,h,1,0.3655746000004001,s,1,0.02453330000207643,0.04868970000097761,0.04664039999988745,0.10009650000210968,0.09883880000052159,0.749923300001683
RSVPLG03,cs,20260225-143007,1.0.2,20251105-084826,776,Experiment,Both,1,Automatic,main,49,20260225-143512,global,global,750,H,H,E,E,H-E.png,H-E.png,hH,hH,mask-2.png,mask-1.png,h,1,0.3563255000008212,h,1,0.07058859999960987,0.04760549999991781,0.04723260000173468,0.10021899999992456,0.09952100000009523,0.7492027999978745
RSVPLG03,cs,20260225-143007,1.0.2,20251105-084826,776,Experiment,Both,1,Automatic,main,50,20260225-143517,global,local,300,S,S,E,A,S-E.png,A-S.png,sS,sS,mask-1.png,mask-4.png,s,1,0.39979999999923166,s,1,0.06914079999842215,0.047551100000418955,0.047790700002224185,0.10054599999784841,0.09976280000046245,0.29961139999795705
RSVPLG03,cs,20260225-143007,1.0.2,20251105-084826,776,Experiment,Both,1,Automatic,main,51,20260225-143522,local,global,300,H,S,E,A,E-H.png,S-A.png,hH,sS,mask-1.png,mask-1.png,s,0,0.9168280000012601,s,1,0.07520049999948242,0.04736590000175056,0.04755759999898146,0.10006880000219098,0.10059080000064569,0.2994369000007282
RSVPLG03,cs,20260225-143007,1.0.2,20251105-084826,776,Experiment,Both,1,Automatic,main,52,20260225-143527,local,local,300,H,H,E,A,E-H.png,A-H.png,hH,hH,mask-1.png,mask-3.png,s,0,2.5264659999993455,h,1,1.8287528000000748,0.04713430000265362,0.04625980000128038,0.09925980000116397,0.09947309999915888,0.30025860000023386
RSVPLG03,cs,20260225-143007,1.0.2,20251105-084826,776,Experiment,Both,1,Automatic,main,53,20260225-143535,global,local,300,S,S,E,E,S-E.png,E-S.png,sS,sS,mask-3.png,mask-1.png,s,1,0.3690960999992967,s,1,0.07326199999806704,0.04698940000162111,0.048179900000832276,0.09878730000127689,0.0996287999987544,0.298167500001
RSVPLG03,cs,20260225-143007,1.0.2,20251105-084826,776,Experiment,Both,1,Automatic,main,54,20260225-143539,global,global,750,S,S,E,E,S-E.png,S-E.png,sS,sS,mask-3.png,mask-2.png,s,1,1.0801849000017683,s,1,0.1354855999998108,0.04860170000029029,0.04471279999779654,0.10162900000068475,0.09858199999871431,0.751652600003581
RSVPLG03,cs,20260225-143007,1.0.2,20251105-084826,776,Experiment,Both,1,Automatic,main,55,20260225-143544,local,local,750,H,H,E,A,E-H.png,A-H.png,hH,hH,mask-3.png,mask-2.png,h,1,2.2777494000001752,h,1,0.06914830000096117,0.04759529999864753,0.04872170000089682,0.10144559999753255,0.10094960000060382,0.748997299997427
RSVPLG03,cs,20260225-143007,1.0.2,20251105-084826,776,Experiment,Both,1,Automatic,main,56,20260225-143551,global,global,300,S,H,A,E,S-A.png,H-E.png,sS,hH,mask-1.png,mask-4.png,s,1,1.151179199998296,s,0,0.09441140000126325,0.04769450000094366,0.04858310000054189,0.09983009999996284,0.09984780000013416,0.2996023999985482
RSVPLG03,cs,20260225-143007,1.0.2,20251105-084826,776,Experiment,Both,1,Automatic,main,57,20260225-143556,local,local,750,H,S,E,A,E-H.png,A-S.png,hH,sS,mask-4.png,mask-1.png,s,0,0.3965744999986782,s,1,0.10625459999937448,0.048821200001839316,0.04750620000049821,0.10099070000069332,0.09961800000019139,0.7495455999996921
RSVPLG03,cs,20260225-143007,1.0.2,20251105-084826,776,Experiment,Both,1,Automatic,main,58,20260225-143600,local,local,300,H,S,E,A,E-H.png,A-S.png,hH,sS,mask-2.png,mask-3.png,h,1,0.5498939999997674,s,1,0.17512649999844143,0.04771189999883063,0.04763749999983702,0.10105359999943175,0.10069730000031996,0.2992698999987624
RSVPLG03,cs,20260225-143007,1.0.2,20251105-084826,776,Experiment,Both,1,Automatic,main,59,20260225-143605,local,global,750,S,S,E,A,E-S.png,S-A.png,sS,sS,mask-3.png,mask-1.png,s,1,0.6544520999996166,s,1,0.5701408999993873,0.049586199998884695,0.04749889999948209,0.10056869999971241,0.09947029999966617,0.7501210000009451
RSVPLG03,cs,20260225-143007,1.0.2,20251105-084826,776,Experiment,Both,1,Automatic,main,60,20260225-143610,global,global,750,S,S,A,A,S-A.png,S-A.png,sS,sS,mask-3.png,mask-3.png,s,1,0.2564412000028824,s,1,0.06898609999916516,0.046989599999506027,0.04930009999952745,0.100009300000238,0.10242999999900348,0.7472013000005973
RSVPLG03,cs,20260225-143007,1.0.2,20251105-084826,776,Experiment,Both,1,Automatic,main,61,20260225-143614,local,global,750,H,S,E,E,E-H.png,S-E.png,hH,sS,mask-4.png,mask-1.png,s,0,0.2567516999988584,s,1,0.08669279999958235,0.045683200001803925,0.047553599997627316,0.09827400000358466,0.09956070000043837,0.7488064000026498
RSVPLG03,cs,20260225-143007,1.0.2,20251105-084826,776,Experiment,Both,1,Automatic,main,62,20260225-143619,local,local,750,S,H,A,E,A-S.png,E-H.png,sS,hH,mask-3.png,mask-1.png,s,1,0.14132219999737572,h,1,1.271225399999821,0.04753120000168565,0.04650970000147936,0.10008250000100816,0.0992541000014171,0.7503060000017285
RSVPLG03,cs,20260225-143007,1.0.2,20251105-084826,776,Experiment,Both,1,Automatic,main,63,20260225-143624,global,local,750,H,S,A,A,H-A.png,A-S.png,hH,sS,mask-3.png,mask-1.png,h,1,0.3171560999981011,s,1,0.07064119999995455,0.0485876000020653,0.04748200000176439,0.10055190000275616,0.09937160000117728,0.7505625000012515
RSVPLG03,cs,20260225-143007,1.0.2,20251105-084826,776,Experiment,Both,1,Automatic,main,64,20260225-143629,local,local,300,S,S,E,E,E-S.png,E-S.png,sS,sS,mask-1.png,mask-2.png,s,1,0.4005248999965261,s,1,0.4358236999978544,0.04791820000173175,0.04870149999987916,0.10022110000136308,0.10002520000125514,0.2999509000001126
RSVPLG03,cs,20260225-143007,1.0.2,20251105-084826,776,Experiment,Both,1,Automatic,main,65,20260225-143633,local,local,300,S,S,E,E,E-S.png,E-S.png,sS,sS,mask-3.png,mask-2.png,s,1,0.3361942999981693,s,1,0.10769190000064555,0.048296299999492476,0.0473256000004767,0.10119620000114082,0.10114249999969616,0.29976370000076713
RSVPLG03,cs,20260225-143007,1.0.2,20251105-084826,776,Experiment,Both,1,Automatic,main,66,20260225-143637,local,global,300,S,H,A,A,A-S.png,H-A.png,sS,hH,mask-3.png,mask-2.png,s,1,0.28512659999978496,s,0,0.09481239999877289,0.0468678999968688,0.04756990000169026,0.10004269999990356,0.09903950000079931,0.30032789999677334
RSVPLG03,cs,20260225-143007,1.0.2,20251105-084826,776,Experiment,Both,1,Automatic,main,67,20260225-143641,local,local,300,S,H,E,A,E-S.png,A-H.png,sS,hH,mask-1.png,mask-2.png,s,1,0.5866457000010996,h,1,0.05251900000075693,0.047464299997955095,0.04680960000041523,0.09910969999691588,0.09960720000162837,0.30024389999744017
RSVPLG03,cs,20260225-143007,1.0.2,20251105-084826,776,Experiment,Both,1,Automatic,main,68,20260225-143646,local,global,750,S,S,E,E,E-S.png,S-E.png,sS,sS,mask-3.png,mask-3.png,s,1,0.4195362999998906,s,1,0.10885689999850001,0.04863560000012512,0.046765200000663754,0.10014420000152313,0.09999099999913597,0.7502523000002839
RSVPLG03,cs,20260225-143007,1.0.2,20251105-084826,776,Experiment,Both,1,Automatic,main,69,20260225-143650,global,local,750,H,S,E,E,H-E.png,E-S.png,hH,sS,mask-3.png,mask-1.png,h,1,0.4282941999990726,s,1,0.08464939999976195,0.04698389999975916,0.04870259999734117,0.09981400000106078,0.0999476999968465,0.7487434000031499
RSVPLG03,cs,20260225-143007,1.0.2,20251105-084826,776,Experiment,Both,1,Automatic,main,70,20260225-143655,local,global,300,H,S,A,E,A-H.png,S-E.png,hH,sS,mask-1.png,mask-3.png,h,1,0.42973540000093635,s,1,0.07317070000135573,0.04885259999718983,0.04559570000128588,0.10079829999813228,0.09863820000100532,0.3010828999977093
RSVPLG03,cs,20260225-143007,1.0.2,20251105-084826,776,Experiment,Both,1,Automatic,main,71,20260225-143659,local,global,750,H,S,E,A,E-H.png,S-A.png,hH,sS,mask-1.png,mask-2.png,h,1,0.3061808000020392,s,1,0.01121209999837447,0.04768820000026608,0.047691400002804585,0.10088019999966491,0.09989490000225487,0.750153599998157
RSVPLG03,cs,20260225-143007,1.0.2,20251105-084826,776,Experiment,Both,1,Automatic,main,72,20260225-143703,global,local,300,H,H,E,E,H-E.png,E-H.png,hH,hH,mask-2.png,mask-3.png,h,1,0.3357235000003129,s,0,0.04446509999979753,0.047686599998996826,0.047693600001366576,0.09988570000132313,0.09988869999870076,0.30027289999998175
RSVPLG03,cs,20260225-143007,1.0.2,20251105-084826,776,Experiment,Both,1,Automatic,main,73,20260225-143707,local,global,300,H,S,E,E,E-H.png,S-E.png,hH,sS,mask-3.png,mask-4.png,h,1,0.41962559999956284,s,1,0.041057399997953326,0.04568209999706596,0.045695500000874745,0.09906729999784147,0.09889699999985169,0.29983269999866025
RSVPLG03,cs,20260225-143007,1.0.2,20251105-084826,776,Experiment,Both,1,Automatic,main,74,20260225-143711,global,global,750,H,H,E,A,H-E.png,H-A.png,hH,hH,mask-3.png,mask-1.png,h,1,0.3643835000002582,s,0,0.05502429999978631,0.045700400001805974,0.04768780000085826,0.10008300000117742,0.09992150000107358,0.7483138000025065
RSVPLG03,cs,20260225-143007,1.0.2,20251105-084826,776,Experiment,Both,1,Automatic,main,75,20260225-143716,global,global,300,H,H,E,A,H-E.png,H-A.png,hH,hH,mask-1.png,mask-2.png,h,1,0.3298709000009694,h,1,0.07150900000124238,0.04767059999721823,0.046803900000668364,0.099880599998869,0.09836630000063451,0.30050569999730214
RSVPLG03,cs,20260225-143007,1.0.2,20251105-084826,776,Experiment,Both,1,Automatic,main,76,20260225-143805,global,global,750,H,S,E,E,H-E.png,S-E.png,hH,sS,mask-2.png,mask-3.png,h,1,0.7454198000014003,s,1,0.013429099999484606,0.04771719999916968,0.04655019999700016,0.10096649999832152,0.09988809999777004,0.7501515000003565
RSVPLG03,cs,20260225-143007,1.0.2,20251105-084826,776,Experiment,Both,1,Automatic,main,77,20260225-143810,global,local,750,S,H,E,E,S-E.png,E-H.png,sS,hH,mask-1.png,mask-1.png,s,1,0.3490955000015674,s,0,0.09149070000057691,0.04814369999803603,0.047712199997477,0.10129229999802192,0.09989819999827887,0.7493899000000965
RSVPLG03,cs,20260225-143007,1.0.2,20251105-084826,776,Experiment,Both,1,Automatic,main,78,20260225-143814,local,local,300,H,H,E,E,E-H.png,E-H.png,hH,hH,mask-4.png,mask-3.png,h,1,0.34128359999886015,s,0,0.09024450000288198,0.04671099999904982,0.04712669999935315,0.09990889999971841,0.09802919999856385,0.3002018000006501
RSVPLG03,cs,20260225-143007,1.0.2,20251105-084826,776,Experiment,Both,1,Automatic,main,79,20260225-143818,local,global,750,S,H,E,E,E-S.png,H-E.png,sS,hH,mask-2.png,mask-3.png,h,0,0.8776858000019274,s,0,0.364283399998385,0.04686349999974482,0.04865159999826574,0.09986530000242055,0.09945800000059535,0.7488802000007126
RSVPLG03,cs,20260225-143007,1.0.2,20251105-084826,776,Experiment,Both,1,Automatic,main,80,20260225-143824,global,local,750,H,S,E,A,H-E.png,A-S.png,hH,sS,mask-1.png,mask-1.png,s,0,1.0405176999993273,s,1,0.0850248000024294,0.046619900000223424,0.04623139999966952,0.09919620000073337,0.09856660000150441,0.748777799999516
RSVPLG03,cs,20260225-143007,1.0.2,20251105-084826,776,Experiment,Both,1,Automatic,main,81,20260225-143829,global,local,300,S,H,A,A,S-A.png,A-H.png,sS,hH,mask-4.png,mask-2.png,s,1,0.4455913999991026,h,1,0.04383949999828474,0.04855229999884614,0.047565799999574665,0.10097249999671476,0.09959029999663471,0.30132400000002235
RSVPLG03,cs,20260225-143007,1.0.2,20251105-084826,776,Experiment,Both,1,Automatic,main,82,20260225-143833,local,local,300,H,H,E,E,E-H.png,E-H.png,hH,hH,mask-3.png,mask-3.png,h,1,0.4924033999996027,s,0,0.39159830000062357,0.04783649999808404,0.04763259999890579,0.09895089999918127,0.09984759999861126,0.29895359999864013
RSVPLG03,cs,20260225-143007,1.0.2,20251105-084826,776,Experiment,Both,1,Automatic,main,83,20260225-143837,local,global,750,H,H,E,A,E-H.png,H-A.png,hH,hH,mask-3.png,mask-2.png,h,1,0.9193899000019883,h,1,0.07512819999828935,0.047689200000604615,0.047933800000464544,0.1000754999986384,0.10023089999958756,0.7498028000009072
RSVPLG03,cs,20260225-143007,1.0.2,20251105-084826,776,Experiment,Both,1,Automatic,main,84,20260225-143843,local,local,750,H,S,A,A,A-H.png,A-S.png,hH,sS,mask-4.png,mask-3.png,h,1,0.43145160000131,s,1,0.5490471000011894,0.046806099999230355,0.047705600001791026,0.09903019999910612,0.09986260000005132,0.748907599998347
RSVPLG03,cs,20260225-143007,1.0.2,20251105-084826,776,Experiment,Both,1,Automatic,main,85,20260225-143848,local,global,750,S,H,A,A,A-S.png,H-A.png,sS,hH,mask-4.png,mask-2.png,s,1,0.5724048000010953,s,0,0.3546974999990198,0.04770809999899939,0.04789760000130627,0.10010640000109561,0.09962319999976899,0.7495574999993551
RSVPLG03,cs,20260225-143007,1.0.2,20251105-084826,776,Experiment,Both,1,Automatic,main,86,20260225-143853,local,global,750,H,H,E,E,E-H.png,H-E.png,hH,hH,mask-2.png,mask-3.png,h,1,0.42102370000066003,h,1,0.07182769999781158,0.047376999998959946,0.04769070000111242,0.10158099999898695,0.10091300000203773,0.7494317999990017
RSVPLG03,cs,20260225-143007,1.0.2,20251105-084826,776,Experiment,Both,1,Automatic,main,87,20260225-143857,global,local,300,S,S,A,A,S-A.png,A-S.png,sS,sS,mask-4.png,mask-4.png,s,1,0.3181905999990704,s,1,0.0872034000021813,0.04781589999765856,0.04851990000315709,0.10000989999753074,0.1014859000024444,0.2988716999971075
RSVPLG03,cs,20260225-143007,1.0.2,20251105-084826,776,Experiment,Both,1,Automatic,main,88,20260225-143902,local,local,750,H,H,E,A,E-H.png,A-H.png,hH,hH,mask-4.png,mask-1.png,h,1,0.5110309000010602,s,0,0.04362349999792059,0.04781549999825074,0.045903399997769156,0.09992090000014286,0.09900529999868013,0.750447800000984
RSVPLG03,cs,20260225-143007,1.0.2,20251105-084826,776,Experiment,Both,1,Automatic,main,89,20260225-143906,local,local,300,H,S,E,E,E-H.png,E-S.png,hH,sS,mask-4.png,mask-3.png,s,0,0.7176976000009745,s,1,0.12286880000101519,0.04756390000329702,0.04855630000020028,0.10056940000140457,0.09957529999883263,0.3002617000020109
RSVPLG03,cs,20260225-143007,1.0.2,20251105-084826,776,Experiment,Both,1,Automatic,main,90,20260225-143911,global,local,300,S,H,A,A,S-A.png,A-H.png,sS,hH,mask-1.png,mask-1.png,s,1,2.1516460000020743,h,1,0.7004798999987543,0.046503999998094514,0.04820779999863589,0.09851089999938267,0.10011079999821959,0.29777370000010706
RSVPLG03,cs,20260225-143007,1.0.2,20251105-084826,776,Experiment,Both,1,Automatic,main,91,20260225-143917,global,local,300,S,H,A,A,S-A.png,A-H.png,sS,hH,mask-2.png,mask-3.png,s,1,0.5626048000012815,h,1,0.040543900002376176,0.047645700000430224,0.048502300000109244,0.10068070000124862,0.09959600000001956,0.29944439999962924
RSVPLG03,cs,20260225-143007,1.0.2,20251105-084826,776,Experiment,Both,1,Automatic,main,92,20260225-143922,local,global,300,H,S,E,E,E-H.png,S-E.png,hH,sS,mask-3.png,mask-1.png,h,1,0.33856829999785987,s,1,0.054289799998514354,0.046714199997950345,0.04752999999982421,0.1004873999991105,0.09929550000015297,0.299227499999688
RSVPLG03,cs,20260225-143007,1.0.2,20251105-084826,776,Experiment,Both,1,Automatic,main,93,20260225-143926,local,local,750,H,H,A,A,A-H.png,A-H.png,hH,hH,mask-1.png,mask-2.png,h,1,0.28979360000084853,h,1,0.06849660000079894,0.04686209999999846,0.04771160000018426,0.09982149999996182,0.09993019999819808,0.7479889000023832
RSVPLG03,cs,20260225-143007,1.0.2,20251105-084826,776,Experiment,Both,1,Automatic,main,94,20260225-143930,global,global,750,S,S,A,E,S-A.png,S-E.png,sS,sS,mask-3.png,mask-2.png,s,1,0.3372875999993994,s,1,0.0751404000002367,0.0486698000022443,0.046126199998980155,0.10050910000063595,0.09943329999805428,0.7502980000026582
RSVPLG03,cs,20260225-143007,1.0.2,20251105-084826,776,Experiment,Both,1,Automatic,main,95,20260225-143935,global,global,300,H,S,E,A,H-E.png,S-A.png,hH,sS,mask-1.png,mask-1.png,h,1,0.45411170000079437,s,1,0.039920200000779005,0.047497899999143556,0.04767600000195671,0.10055779999674996,0.09906770000088727,0.30133119999663904
RSVPLG03,cs,20260225-143007,1.0.2,20251105-084826,776,Experiment,Both,1,Automatic,main,96,20260225-143939,local,global,750,S,S,A,E,A-S.png,S-E.png,sS,sS,mask-3.png,mask-4.png,s,1,0.9630590999986453,s,1,0.5025285999981861,0.047454299998207716,0.04719130000012228,0.10072959999888553,0.10047560000020894,0.7502246999974886
RSVPLG03,cs,20260225-143007,1.0.2,20251105-084826,776,Experiment,Both,1,Automatic,main,97,20260225-143944,local,local,750,H,S,A,E,A-H.png,E-S.png,hH,sS,mask-1.png,mask-2.png,h,1,0.32008009999844944,s,1,0.05971449999924516,0.0476232999972126,0.04745330000150716,0.09890689999883762,0.09946040000068024,0.7485968999972101
RSVPLG03,cs,20260225-143007,1.0.2,20251105-084826,776,Experiment,Both,1,Automatic,main,98,20260225-143949,local,local,300,H,H,A,A,A-H.png,A-H.png,hH,hH,mask-1.png,mask-2.png,h,1,0.2879637999976694,h,1,0.07570859999759705,0.04858600000079605,0.047505399998044595,0.10159909999856609,0.10050609999962035,0.30086579999988317
RSVPLG03,cs,20260225-143007,1.0.2,20251105-084826,776,Experiment,Both,1,Automatic,main,99,20260225-143953,global,global,300,S,S,E,E,S-E.png,S-E.png,sS,sS,mask-2.png,mask-4.png,s,1,0.18912880000061705,s,1,0.08326840000154334,0.047807400002056966,0.0477247000017087,0.10100790000069537,0.09976340000139317,0.3007142999995267
RSVPLG03,cs,20260225-143007,1.0.2,20251105-084826,776,Experiment,Both,1,Automatic,main,100,20260225-143957,global,local,750,H,S,E,A,H-E.png,A-S.png,hH,sS,mask-4.png,mask-3.png,h,1,0.22533649999968475,s,1,0.5462275999998383,0.04768390000026557,0.047698999998829095,0.09988420000081533,0.0999203999999736,0.7502219000016339
