exp,exp_initials,runtime,ver,modtime,sub,blocktype,targets,cuetype,mode,trialtype,trial,trialtime,t1_level,t2_level,t2_lag,t1,t2,distractor1,distractor2,stimfile1,stimfile2,t1_corr,t2_corr,maskfile1,maskfile2,t1_resp,t1_acc,t1_rt,t2_resp,t2_acc,t2_rt,t1_dur,t2_dur,t1mask_soa,t2mask_soa,t1t2_soa
RSVPLG03,md,20251021-095245,1.0.1,20251020-085245,705,Introduction,T1,1,Automatic,main,1,20251021-101802,local,local,750,S,H,A,E,A-S.png,E-H.png,sS,hH,mask-2.png,mask-1.png,h,0,29.997783199883997,none,-5,0,0.0915121000725776,0.09607460000552237,0.1924318999517709,0.20013820007443428,0.7435381999239326
RSVPLG03,md,20251021-095245,1.0.1,20251020-085245,705,Introduction,T1,1,Automatic,main,2,20251021-101836,global,global,750,H,H,A,E,H-A.png,H-E.png,hH,hH,mask-3.png,mask-2.png,h,1,9.250167499994859,none,-5,0,0.09859029995277524,0.09750659996643662,0.20017269998788834,0.19940369995310903,0.7501389000099152
RSVPLG03,md,20251021-095245,1.0.1,20251020-085245,705,Introduction,T1,1,Automatic,main,3,20251021-101849,global,local,750,S,H,E,E,S-E.png,E-H.png,sS,hH,mask-2.png,mask-4.png,h,0,5.111957299988717,none,-5,0,0.09663500008173287,0.0974055000115186,0.19976410013623536,0.19815169996581972,0.7500723002012819
RSVPLG03,md,20251021-095245,1.0.1,20251020-085245,705,Introduction,T1,1,Automatic,main,4,20251021-101858,local,local,750,S,S,E,E,E-S.png,E-S.png,sS,sS,mask-3.png,mask-3.png,s,1,2.1082544999662787,none,-5,0,0.09636979992501438,0.09742040000855923,0.19842779985629022,0.19831329979933798,0.7497886000201106
RSVPLG03,md,20251021-095245,1.0.1,20251020-085245,705,Introduction,T1,1,Automatic,main,5,20251021-101905,local,global,750,S,H,A,A,A-S.png,H-A.png,sS,hH,mask-1.png,mask-2.png,s,1,2.391788699897006,none,-5,0,0.09753859997726977,0.0973853999748826,0.19843270001001656,0.1992794000543654,0.7498926999978721
RSVPLG03,md,20251021-095245,1.0.1,20251020-085245,705,Introduction,T1,1,Automatic,main,6,20251021-101911,local,global,750,H,S,A,A,A-H.png,S-A.png,hH,sS,mask-2.png,mask-3.png,h,1,1.1874198999721557,none,-5,0,0.09747399995103478,0.09737350000068545,0.20043189986608922,0.20035580010153353,0.7497792998328805
RSVPLG03,md,20251021-095245,1.0.1,20251020-085245,705,Introduction,T1,1,Automatic,main,7,20251021-101917,global,local,750,S,S,A,E,S-A.png,E-S.png,sS,sS,mask-2.png,mask-3.png,s,1,1.4300778999458998,none,-5,0,0.09638749994337559,0.09837709995917976,0.19749549985863268,0.19927829992957413,0.7485118999611586
RSVPLG03,md,20251021-095245,1.0.1,20251020-085245,705,Introduction,T1,1,Automatic,main,8,20251021-101922,global,local,750,H,S,E,E,H-E.png,E-S.png,hH,sS,mask-2.png,mask-4.png,h,1,3.8828271999955177,none,-5,0,0.09778929990716279,0.09762070002034307,0.20051909983158112,0.19952020002529025,0.7496726999524981
RSVPLG03,md,20251021-095245,1.0.1,20251020-085245,705,Introduction,T1,1,Automatic,main,9,20251021-101930,global,local,750,S,H,E,A,S-E.png,A-H.png,sS,hH,mask-4.png,mask-4.png,s,1,2.048654700163752,none,-5,0,0.09834810020402074,0.09735629986971617,0.20021040015853941,0.20006549987010658,0.74896110012196
RSVPLG03,md,20251021-095245,1.0.1,20251020-085245,705,Introduction,T1,1,Automatic,main,10,20251021-101936,local,global,750,S,S,A,E,A-S.png,S-E.png,sS,sS,mask-4.png,mask-2.png,s,1,2.148235100088641,none,-5,0,0.09811539994552732,0.09510550019331276,0.198197599966079,0.19943080004304647,0.7503250997979194
RSVPLG03,md,20251021-095245,1.0.1,20251020-085245,705,Introduction,T1,1,Automatic,main,11,20251021-101943,local,local,750,S,H,E,A,E-S.png,A-H.png,sS,hH,mask-3.png,mask-1.png,s,1,1.3967888001352549,none,-5,0,0.09839419997297227,0.09719379991292953,0.19960659998469055,0.2012632000260055,0.7489567999728024
RSVPLG03,md,20251021-095245,1.0.1,20251020-085245,705,Introduction,T1,1,Automatic,main,12,20251021-101948,global,global,750,S,S,A,E,S-A.png,S-E.png,sS,sS,mask-2.png,mask-4.png,s,1,5.67783739999868,none,-5,0,0.09553849999792874,0.09757590014487505,0.19969270005822182,0.19963570008985698,0.74846430006437
RSVPLG03,md,20251021-095245,1.0.1,20251020-085245,705,Introduction,T1,1,Automatic,main,13,20251021-101958,local,global,750,S,H,A,A,A-S.png,H-A.png,sS,hH,mask-2.png,mask-2.png,s,1,1.4994791001081467,none,-5,0,0.09551879996433854,0.09639349998906255,0.19930449989624321,0.19927769992500544,0.7490201999899
RSVPLG03,md,20251021-095245,1.0.1,20251020-085245,705,Introduction,T1,1,Automatic,main,14,20251021-102004,global,global,750,H,S,A,A,H-A.png,S-A.png,hH,sS,mask-4.png,mask-3.png,h,1,2.482337199850008,none,-5,0,0.09631639998406172,0.09742069989442825,0.19816070003435016,0.2003049999475479,0.7477599000558257
RSVPLG03,md,20251021-095245,1.0.1,20251020-085245,705,Introduction,T1,1,Automatic,main,15,20251021-102011,local,local,750,S,S,E,E,E-S.png,E-S.png,sS,sS,mask-2.png,mask-2.png,s,1,2.1737606001552194,none,-5,0,0.0975730000063777,0.09740499989129603,0.19986970000900328,0.19836189993657172,0.7503208999987692
RSVPLG03,md,20251021-095245,1.0.1,20251020-085245,705,Introduction,T1,1,Automatic,main,16,20251021-102017,global,global,750,H,S,E,E,H-E.png,S-E.png,hH,sS,mask-1.png,mask-4.png,h,1,1.3508308997843415,none,-5,0,0.09492499986663461,0.09752730000764132,0.19807309983298182,0.19949909998103976,0.7484204999636859
RSVPLG03,md,20251021-102124,1.0.1,20251020-085245,705,Practice,T1,1,Automatic,main,1,20251021-102145,local,global,750,H,H,E,E,E-H.png,H-E.png,hH,hH,mask-2.png,mask-4.png,h,1,0.9377726998645812,none,-5,0,0.04113499983213842,0.047514700097963214,0.09427729994058609,0.09959349990822375,0.7449485999532044
RSVPLG03,md,20251021-102124,1.0.1,20251020-085245,705,Practice,T1,1,Automatic,main,2,20251021-102150,global,global,300,H,S,E,E,H-E.png,S-E.png,hH,sS,mask-4.png,mask-4.png,h,1,0.9245680999010801,none,-5,0,0.04553330014459789,0.04748929990455508,0.09917980013415217,0.09948330000042915,0.29867750010453165
RSVPLG03,md,20251021-102124,1.0.1,20251020-085245,705,Practice,T1,1,Automatic,main,3,20251021-102155,global,global,750,S,S,A,A,S-A.png,S-A.png,sS,sS,mask-4.png,mask-4.png,s,1,0.840060600079596,none,-5,0,0.04783480009064078,0.048514500027522445,0.1007018000818789,0.10151890013366938,0.7498176998924464
RSVPLG03,md,20251021-102124,1.0.1,20251020-085245,705,Practice,T1,1,Automatic,main,4,20251021-102159,local,global,300,S,S,E,E,E-S.png,S-E.png,sS,sS,mask-3.png,mask-4.png,s,1,0.5571958997752517,none,-5,0,0.047499299980700016,0.04847520007751882,0.09946699999272823,0.10044650011695921,0.2986124998424202
RSVPLG03,md,20251021-102124,1.0.1,20251020-085245,705,Practice,T1,1,Automatic,main,5,20251021-102204,global,local,300,S,H,E,A,S-E.png,A-H.png,sS,hH,mask-3.png,mask-3.png,s,1,0.7008114999625832,none,-5,0,0.04853260004892945,0.04653910011984408,0.10057120001874864,0.09956460003741086,0.3011791999451816
RSVPLG03,md,20251021-102124,1.0.1,20251020-085245,705,Practice,T1,1,Automatic,main,6,20251021-102208,global,global,750,S,H,A,A,S-A.png,H-A.png,sS,hH,mask-4.png,mask-3.png,s,1,0.6914599998854101,none,-5,0,0.04852450010366738,0.0485215000808239,0.10058450000360608,0.10155040002427995,0.7491806999314576
RSVPLG03,md,20251021-102124,1.0.1,20251020-085245,705,Practice,T1,1,Automatic,main,7,20251021-102213,local,local,750,H,H,E,A,E-H.png,A-H.png,hH,hH,mask-3.png,mask-2.png,h,1,1.0457095999736339,none,-5,0,0.04679410019889474,0.04607530008070171,0.0988028000574559,0.0991128000896424,0.7499377001076937
RSVPLG03,md,20251021-102124,1.0.1,20251020-085245,705,Practice,T1,1,Automatic,main,8,20251021-102218,global,local,750,H,S,A,E,H-A.png,E-S.png,hH,sS,mask-3.png,mask-1.png,h,1,1.0942361999768764,none,-5,0,0.04674159991554916,0.047832899959757924,0.09893819992430508,0.09906769986264408,0.7492965999990702
RSVPLG03,md,20251021-102124,1.0.1,20251020-085245,705,Practice,T1,1,Automatic,main,9,20251021-102223,global,global,300,S,H,E,E,S-E.png,H-E.png,sS,hH,mask-4.png,mask-2.png,s,1,0.9571525000501424,none,-5,0,0.04772169981151819,0.048675999976694584,0.10092369979247451,0.09994399989955127,0.29899869998916984
RSVPLG03,md,20251021-102124,1.0.1,20251020-085245,705,Practice,T1,1,Automatic,main,10,20251021-102227,local,global,750,S,H,E,E,E-S.png,H-E.png,sS,hH,mask-3.png,mask-3.png,s,1,0.6627893999684602,none,-5,0,0.04752629995346069,0.04932740004733205,0.10154199996031821,0.10111399996094406,0.7491967999376357
RSVPLG03,md,20251021-102124,1.0.1,20251020-085245,705,Practice,T1,1,Automatic,main,11,20251021-102232,local,global,300,S,H,E,A,E-S.png,H-A.png,sS,hH,mask-2.png,mask-4.png,s,1,1.3951648001093417,none,-5,0,0.04766299994662404,0.04769890010356903,0.09887939994223416,0.09990580007433891,0.2986029000021517
RSVPLG03,md,20251021-102124,1.0.1,20251020-085245,705,Practice,T1,1,Automatic,main,12,20251021-102237,local,local,750,H,H,E,A,E-H.png,A-H.png,hH,hH,mask-4.png,mask-1.png,h,1,1.5398631000425667,none,-5,0,0.047453099861741066,0.04647729988209903,0.10136649990454316,0.09857339994050562,0.7516322999726981
RSVPLG03,md,20251021-102124,1.0.1,20251020-085245,705,Practice,T1,1,Automatic,main,13,20251021-102243,global,local,300,S,S,E,E,S-E.png,E-S.png,sS,sS,mask-2.png,mask-1.png,s,1,0.904619500041008,none,-5,0,0.04668489983305335,0.04715970018878579,0.09986289986409247,0.0993201001547277,0.2996470998041332
RSVPLG03,md,20251021-102124,1.0.1,20251020-085245,705,Practice,T1,1,Automatic,main,14,20251021-102247,local,local,300,H,H,E,E,E-H.png,E-H.png,hH,hH,mask-3.png,mask-1.png,h,1,2.6531255000736564,none,-5,0,0.045866299886256456,0.04771529999561608,0.0997533998452127,0.09978450019843876,0.29837859980762005
RSVPLG03,md,20251021-102124,1.0.1,20251020-085245,705,Practice,T1,1,Automatic,main,15,20251021-102253,global,local,750,S,S,E,A,S-E.png,A-S.png,sS,sS,mask-2.png,mask-4.png,s,1,1.3547741000074893,none,-5,0,0.04707380011677742,0.04657210013829172,0.09922170010395348,0.09862120007164776,0.7491701000835747
RSVPLG03,md,20251021-102124,1.0.1,20251020-085245,705,Practice,T1,1,Automatic,main,16,20251021-102259,local,local,300,H,H,E,A,E-H.png,A-H.png,hH,hH,mask-2.png,mask-1.png,h,1,1.6054865000769496,none,-5,0,0.04758609994314611,0.0480119998101145,0.10038789990358055,0.10123289981856942,0.2986272000707686
RSVPLG03,md,20251021-102342,1.0.1,20251020-085245,705,Practice,Both,1,Automatic,main,1,20251021-102510,global,local,750,S,H,A,A,S-A.png,A-H.png,sS,hH,mask-2.png,mask-2.png,s,1,3.301432899897918,h,1,1.6247637998312712,0.04076230013743043,0.045937599847093225,0.09332139999605715,0.09911409998312593,0.746924800099805
RSVPLG03,md,20251021-102342,1.0.1,20251020-085245,705,Practice,Both,1,Automatic,main,2,20251021-102519,global,global,750,S,H,E,E,S-E.png,H-E.png,sS,hH,mask-4.png,mask-3.png,s,1,1.593584799906239,h,1,0.32676089997403324,0.048781999852508307,0.04868310014717281,0.10096109984442592,0.10085990000516176,0.7522218998055905
RSVPLG03,md,20251021-102342,1.0.1,20251020-085245,705,Practice,Both,1,Automatic,main,3,20251021-102525,global,global,750,H,H,A,A,H-A.png,H-A.png,hH,hH,mask-4.png,mask-1.png,h,1,1.4610570000950247,s,0,0.43998539983294904,0.048604700015857816,0.04580259998328984,0.1016781001817435,0.09990409994497895,0.7536291000433266
RSVPLG03,md,20251021-102342,1.0.1,20251020-085245,705,Practice,Both,1,Automatic,main,4,20251021-102531,local,local,750,H,H,E,E,E-H.png,E-H.png,hH,hH,mask-3.png,mask-2.png,h,1,2.238795799901709,s,0,0.32802590006031096,0.046896800165995955,0.045690400060266256,0.10007410007528961,0.09896939992904663,0.7508801000658423
RSVPLG03,md,20251021-102342,1.0.1,20251020-085245,705,Practice,Both,1,Automatic,main,5,20251021-102538,global,global,300,H,H,A,A,H-A.png,H-A.png,hH,hH,mask-3.png,mask-2.png,s,0,3.6880844000261277,s,0,1.46917219995521,0.047805799869820476,0.04710900015197694,0.09995209984481335,0.10133550013415515,0.29989769984968007
RSVPLG03,md,20251021-102342,1.0.1,20251020-085245,705,Practice,Both,1,Automatic,main,6,20251021-102547,local,global,300,S,H,E,E,E-S.png,H-E.png,sS,hH,mask-1.png,mask-4.png,s,1,2.5012757000513375,s,0,0.859360400121659,0.04773389990441501,0.047766400035470724,0.09997099987231195,0.10014720004983246,0.29951989999972284
RSVPLG03,md,20251021-102342,1.0.1,20251020-085245,705,Practice,Both,1,Automatic,main,7,20251021-102554,global,local,750,S,H,E,A,S-E.png,A-H.png,sS,hH,mask-4.png,mask-2.png,s,1,2.082650600001216,h,1,0.10300950007513165,0.04834440001286566,0.047553999815136194,0.10144869983196259,0.09850499988533556,0.7536363999824971
RSVPLG03,md,20251021-102342,1.0.1,20251020-085245,705,Practice,Both,1,Automatic,main,8,20251021-102600,local,local,300,S,S,A,E,A-S.png,E-S.png,sS,sS,mask-2.png,mask-3.png,s,1,1.343707300024107,h,0,0.2162423999980092,0.04684150009416044,0.04672799981199205,0.09933270001783967,0.10001109982840717,0.3003705001901835
RSVPLG03,md,20251021-102342,1.0.1,20251020-085245,705,Practice,Both,1,Automatic,main,9,20251021-102605,local,global,750,H,H,E,A,E-H.png,H-A.png,hH,hH,mask-3.png,mask-2.png,s,0,1.9162266999483109,s,0,0.7130017001181841,0.04725149995647371,0.047315599862486124,0.10019239992834628,0.101271599996835,0.7500632000155747
RSVPLG03,md,20251021-102342,1.0.1,20251020-085245,705,Practice,Both,1,Automatic,main,10,20251021-102612,global,local,300,H,S,E,E,H-E.png,E-S.png,hH,sS,mask-1.png,mask-4.png,h,1,1.5883704000152647,s,1,0.477004999993369,0.047707200050354004,0.0476844001095742,0.09992760000750422,0.10086750006303191,0.30010250001214445
RSVPLG03,md,20251021-102342,1.0.1,20251020-085245,705,Practice,Both,1,Automatic,main,11,20251021-102618,local,local,300,S,H,A,E,A-S.png,E-H.png,sS,hH,mask-3.png,mask-3.png,s,1,1.9368956999387592,h,1,0.07184470002539456,0.047754600178450346,0.04672820004634559,0.09998100018128753,0.1007248000241816,0.30057710013352334
RSVPLG03,md,20251021-102342,1.0.1,20251020-085245,705,Practice,Both,1,Automatic,main,12,20251021-102624,global,local,300,H,H,E,A,H-E.png,A-H.png,hH,hH,mask-1.png,mask-4.png,h,1,2.9259124000091106,s,0,0.30045270011760294,0.04767660005018115,0.04802210000343621,0.0998616002034396,0.10144370002672076,0.29867040016688406
RSVPLG03,md,20251021-102342,1.0.1,20251020-085245,705,Practice,Both,1,Automatic,main,13,20251021-102630,local,global,750,S,H,A,A,A-S.png,H-A.png,sS,hH,mask-1.png,mask-2.png,s,1,0.9716791999526322,h,1,0.7244922001846135,0.047459299908950925,0.04708390007726848,0.09847389999777079,0.1001031999476254,0.7502919998951256
RSVPLG03,md,20251021-102342,1.0.1,20251020-085245,705,Practice,Both,1,Automatic,main,14,20251021-102636,local,local,750,H,H,E,E,E-H.png,E-H.png,hH,hH,mask-4.png,mask-2.png,h,1,1.4192997999489307,h,1,0.6009571000467986,0.047517200000584126,0.04750699992291629,0.09951970004476607,0.10051249992102385,0.7518271000590175
RSVPLG03,md,20251021-102342,1.0.1,20251020-085245,705,Practice,Both,1,Automatic,main,15,20251021-102642,local,global,300,H,S,A,E,A-H.png,S-E.png,hH,sS,mask-4.png,mask-3.png,h,1,1.9857383000198752,s,1,0.8603590000420809,0.049004399916157126,0.04756639990955591,0.1019454998895526,0.10003359988331795,0.3013214999809861
RSVPLG03,md,20251021-102342,1.0.1,20251020-085245,705,Practice,Both,1,Automatic,main,16,20251021-102649,global,global,300,H,H,A,E,H-A.png,H-E.png,hH,hH,mask-2.png,mask-4.png,h,1,1.2157908999361098,h,1,0.40667150006629527,0.047539399936795235,0.046546899946406484,0.10053579998202622,0.09854559996165335,0.30177469993941486
RSVPLG03,md,20251021-102721,1.0.1,20251020-085245,705,Practice,Both,1,Automatic,main,1,20251021-102746,local,local,750,H,S,A,E,A-H.png,E-S.png,hH,sS,mask-4.png,mask-2.png,h,1,0.915236100088805,s,1,0.3769921001512557,0.04817710001952946,0.04721460002474487,0.10157549986615777,0.09982410003431141,0.7498403999488801
RSVPLG03,md,20251021-102721,1.0.1,20251020-085245,705,Practice,Both,1,Automatic,main,2,20251021-102751,global,local,750,H,H,E,A,H-E.png,A-H.png,hH,hH,mask-3.png,mask-1.png,h,1,1.1564593999646604,h,1,0.23143539996817708,0.04642709996551275,0.04765020008198917,0.09981300006620586,0.10012280009686947,0.7495349000673741
RSVPLG03,md,20251021-102721,1.0.1,20251020-085245,705,Practice,Both,1,Automatic,main,3,20251021-102756,local,global,300,H,S,E,A,E-H.png,S-A.png,hH,sS,mask-1.png,mask-3.png,h,1,1.3267300000879914,s,1,0.5700889001600444,0.04658640013076365,0.04715520003810525,0.09996300004422665,0.09948249999433756,0.29853160004131496
RSVPLG03,md,20251021-102721,1.0.1,20251020-085245,705,Practice,Both,1,Automatic,main,4,20251021-102802,local,global,750,H,H,A,A,A-H.png,H-A.png,hH,hH,mask-2.png,mask-1.png,h,1,2.7191109000705183,h,1,0.2309944999869913,0.04718960006721318,0.046326200012117624,0.09978840011171997,0.09990929998457432,0.7497890000231564
RSVPLG03,md,20251021-102721,1.0.1,20251020-085245,705,Practice,Both,1,Automatic,main,5,20251021-102809,global,local,750,H,H,A,E,H-A.png,E-H.png,hH,hH,mask-3.png,mask-2.png,s,0,1.1429147999733686,s,0,3.052950199926272,0.0472679000813514,0.047788099851459265,0.09941480006091297,0.10089989984408021,0.7491830000653863
RSVPLG03,md,20251021-102721,1.0.1,20251020-085245,705,Practice,Both,1,Automatic,main,6,20251021-102817,local,global,300,H,S,E,A,E-H.png,S-A.png,hH,sS,mask-3.png,mask-4.png,h,1,1.1437470999080688,s,1,0.8485578000545502,0.04824250005185604,0.04587789997458458,0.10168919991701841,0.09779660007916391,0.3018485999200493
RSVPLG03,md,20251021-102721,1.0.1,20251020-085245,705,Practice,Both,1,Automatic,main,7,20251021-102823,local,local,750,H,H,E,E,E-H.png,E-H.png,hH,hH,mask-2.png,mask-4.png,h,1,0.8075368001591414,h,1,0.810243200045079,0.04769839998334646,0.047406299971044064,0.09974550013430417,0.09943990013562143,0.7501322000753134
RSVPLG03,md,20251021-102721,1.0.1,20251020-085245,705,Practice,Both,1,Automatic,main,8,20251021-102828,global,global,750,S,S,A,E,S-A.png,S-E.png,sS,sS,mask-1.png,mask-4.png,s,1,1.1928675000090152,s,1,0.7140535002108663,0.04651260003447533,0.04752709995955229,0.09951010020449758,0.09952739998698235,0.7495760000310838
RSVPLG03,md,20251021-102721,1.0.1,20251020-085245,705,Practice,Both,1,Automatic,main,9,20251021-102834,local,global,750,H,H,E,A,E-H.png,H-A.png,hH,hH,mask-3.png,mask-1.png,h,1,1.357980899978429,h,1,0.8352945998776704,0.04557240009307861,0.0466497999150306,0.09971560002304614,0.09863010002300143,0.7497499000746757
RSVPLG03,md,20251021-102721,1.0.1,20251020-085245,705,Practice,Both,1,Automatic,main,10,20251021-102841,local,local,300,H,S,A,E,A-H.png,E-S.png,hH,sS,mask-1.png,mask-2.png,h,1,1.411013700067997,s,1,0.6142835998907685,0.046453700168058276,0.046337699983268976,0.09950260003097355,0.1003101000096649,0.2995333999861032
RSVPLG03,md,20251021-102721,1.0.1,20251020-085245,705,Practice,Both,1,Automatic,main,11,20251021-102846,local,local,300,H,S,E,E,E-H.png,E-S.png,hH,sS,mask-1.png,mask-3.png,h,1,1.2648838001769036,h,0,1.0161838000640273,0.04849860002286732,0.047225800110027194,0.09939590003341436,0.10034580016508698,0.2989489999599755
RSVPLG03,md,20251021-102721,1.0.1,20251020-085245,705,Practice,Both,1,Automatic,main,12,20251021-102852,global,global,300,H,H,A,E,H-A.png,H-E.png,hH,hH,mask-4.png,mask-3.png,h,1,2.5057888999581337,s,0,0.8546871999278665,0.04669669992290437,0.04767749994061887,0.09877160005271435,0.1004099000710994,0.29832449997775257
RSVPLG03,md,20251021-102721,1.0.1,20251020-085245,705,Practice,Both,1,Automatic,main,13,20251021-102900,global,local,300,S,H,E,A,S-E.png,A-H.png,sS,hH,mask-3.png,mask-1.png,s,1,1.757309600012377,h,1,1.8018942999187857,0.04726829985156655,0.04764649993740022,0.09968800004571676,0.09971059998497367,0.29805390001274645
RSVPLG03,md,20251021-102721,1.0.1,20251020-085245,705,Practice,Both,1,Automatic,main,14,20251021-102907,global,local,300,S,H,A,E,S-A.png,E-H.png,sS,hH,mask-4.png,mask-1.png,s,1,1.2698707999661565,s,0,0.5398796000517905,0.047362699871882796,0.04710910003632307,0.10082519985735416,0.10102390008978546,0.299748299876228
RSVPLG03,md,20251021-102721,1.0.1,20251020-085245,705,Practice,Both,1,Automatic,main,15,20251021-102912,global,global,750,S,S,E,E,S-E.png,S-E.png,sS,sS,mask-2.png,mask-1.png,s,1,2.2569267000071704,s,1,0.21283899992704391,0.048184899846091866,0.04577520000748336,0.10043250001035631,0.09885130007751286,0.7510768999345601
RSVPLG03,md,20251021-102721,1.0.1,20251020-085245,705,Practice,Both,1,Automatic,main,16,20251021-102919,global,global,300,S,H,E,E,S-E.png,H-E.png,sS,hH,mask-3.png,mask-4.png,s,1,1.9346125000156462,s,0,1.143061799928546,0.04598790011368692,0.046715799951925874,0.09830230008810759,0.09988569980487227,0.299096800154075
RSVPLG03,md,20251021-103124,1.0.1,20251020-085245,705,Experiment,Both,1,Automatic,warmup,1,20251021-103159,global,global,300,S,H,E,A,S-E.png,H-A.png,sS,hH,mask-2.png,mask-4.png,s,1,2.966775899985805,h,1,0.8576897999737412,0.03989050001837313,0.04738010000437498,0.09297990007326007,0.10014640004374087,0.2913832999765873
RSVPLG03,md,20251021-103124,1.0.1,20251020-085245,705,Experiment,Both,1,Automatic,warmup,2,20251021-103206,local,local,300,H,H,A,A,A-H.png,A-H.png,hH,hH,mask-1.png,mask-4.png,h,1,1.180984300095588,s,0,0.07252909988164902,0.04769170004874468,0.047916899900883436,0.09974449989385903,0.10111769987270236,0.2982292000669986
RSVPLG03,md,20251021-103124,1.0.1,20251020-085245,705,Experiment,Both,1,Automatic,warmup,3,20251021-103211,global,local,300,H,S,E,E,H-E.png,E-S.png,hH,sS,mask-1.png,mask-1.png,h,1,1.3222561001311988,h,0,0.6992018001619726,0.048514800146222115,0.046570299891754985,0.09957209997810423,0.09858889994211495,0.29976600012741983
RSVPLG03,md,20251021-103124,1.0.1,20251020-085245,705,Experiment,Both,1,Automatic,warmup,4,20251021-103217,local,global,750,S,S,E,A,E-S.png,S-A.png,sS,sS,mask-1.png,mask-4.png,s,1,1.4322073999792337,h,0,0.32676089997403324,0.04650299996137619,0.047432899940758944,0.09851770009845495,0.10154110006988049,0.7457117000594735
RSVPLG03,md,20251021-103124,1.0.1,20251020-085245,705,Experiment,Both,1,Automatic,warmup,5,20251021-103223,local,local,750,S,S,A,E,A-S.png,E-S.png,sS,sS,mask-1.png,mask-2.png,s,1,0.9201120999641716,s,1,0.14459910010918975,0.04590720008127391,0.04688030015677214,0.09983199997805059,0.09981980011798441,0.7464618999511003
RSVPLG03,md,20251021-103124,1.0.1,20251020-085245,705,Experiment,Both,1,Automatic,main,6,20251021-103228,local,local,300,H,H,E,A,E-H.png,A-H.png,hH,hH,mask-4.png,mask-2.png,h,1,1.265309999929741,s,0,0.5530133999418467,0.04579019988887012,0.046173400012776256,0.09960119985044003,0.09883010014891624,0.2988703998271376
RSVPLG03,md,20251021-103124,1.0.1,20251020-085245,705,Experiment,Both,1,Automatic,main,7,20251021-103233,local,local,300,H,H,E,E,E-H.png,E-H.png,hH,hH,mask-3.png,mask-1.png,h,1,1.7715783999301493,s,0,0.45547839999198914,0.04772719996981323,0.04718280001543462,0.09832389978691936,0.10045160003937781,0.29825109988451004
RSVPLG03,md,20251021-103124,1.0.1,20251020-085245,705,Experiment,Both,1,Automatic,main,8,20251021-103239,local,local,750,H,H,E,A,E-H.png,A-H.png,hH,hH,mask-1.png,mask-4.png,h,1,1.1793649001047015,s,0,0.9645105001982301,0.04736049985513091,0.04755360004492104,0.0994337999727577,0.09954020008444786,0.7479603998363018
RSVPLG03,md,20251021-103124,1.0.1,20251020-085245,705,Experiment,Both,1,Automatic,main,9,20251021-103245,global,local,300,S,S,E,E,S-E.png,E-S.png,sS,sS,mask-4.png,mask-3.png,h,0,2.613884699996561,s,1,0.3484044000506401,0.047702700132504106,0.04768359987065196,0.09961330005899072,0.09882219997234643,0.29934380017220974
RSVPLG03,md,20251021-103124,1.0.1,20251020-085245,705,Experiment,Both,1,Automatic,main,10,20251021-103252,local,global,750,S,H,E,A,E-S.png,H-A.png,sS,hH,mask-3.png,mask-1.png,s,1,0.93535659997724,s,0,1.0442786000203341,0.04768980015069246,0.04774619988165796,0.09985480015166104,0.09943549986928701,0.747005500132218
RSVPLG03,md,20251021-103124,1.0.1,20251020-085245,705,Experiment,Both,1,Automatic,main,11,20251021-103258,global,local,750,S,S,A,A,S-A.png,A-S.png,sS,sS,mask-2.png,mask-4.png,s,1,1.95483410009183,h,0,1.7012904998846352,0.04791059996932745,0.04753160011023283,0.09999239980243146,0.09937810013070703,0.7483653998933733
RSVPLG03,md,20251021-103124,1.0.1,20251020-085245,705,Experiment,Both,1,Automatic,main,12,20251021-103306,global,local,300,S,S,E,E,S-E.png,E-S.png,sS,sS,mask-1.png,mask-2.png,s,1,2.395815399941057,s,1,1.2899879000615329,0.04753870004788041,0.047536700032651424,0.09959940006956458,0.09955810010433197,0.29884709999896586
RSVPLG03,md,20251021-103124,1.0.1,20251020-085245,705,Experiment,Both,1,Automatic,main,13,20251021-103313,local,local,300,H,H,E,E,E-H.png,E-H.png,hH,hH,mask-1.png,mask-3.png,h,1,1.9649179000407457,h,1,2.5160336000844836,0.047761800000444055,0.04876550007611513,0.10009560012258589,0.10003129998221993,0.29893729998730123
RSVPLG03,md,20251021-103124,1.0.1,20251020-085245,705,Experiment,Both,1,Automatic,main,14,20251021-103322,local,local,300,S,S,E,E,E-S.png,E-S.png,sS,sS,mask-3.png,mask-2.png,s,1,1.2105690999887884,h,0,1.7877507999073714,0.04782719979993999,0.04667360009625554,0.10003159986808896,0.09821090009063482,0.3007492998149246
RSVPLG03,md,20251021-103124,1.0.1,20251020-085245,705,Experiment,Both,1,Automatic,main,15,20251021-103328,global,local,750,H,H,A,E,H-A.png,E-H.png,hH,hH,mask-3.png,mask-3.png,s,0,1.3619905998930335,s,0,1.3344390001147985,0.047717600129544735,0.04712500004097819,0.10001110006123781,0.09947860008105636,0.7480204999446869
RSVPLG03,md,20251021-103124,1.0.1,20251020-085245,705,Experiment,Both,1,Automatic,main,16,20251021-103335,local,global,750,S,H,E,A,E-S.png,H-A.png,sS,hH,mask-4.png,mask-2.png,s,1,1.1306396001018584,h,1,0.2195041999220848,0.04674050002358854,0.04774239985272288,0.10000999993644655,0.09995169984176755,0.7479811001103371
RSVPLG03,md,20251021-103124,1.0.1,20251020-085245,705,Experiment,Both,1,Automatic,main,17,20251021-103341,global,local,300,S,H,A,E,S-A.png,E-H.png,sS,hH,mask-1.png,mask-2.png,s,1,1.8883655001409352,h,1,0.1671799998730421,0.04761709994636476,0.04713530000299215,0.10056550009176135,0.09995900001376867,0.2991927000693977
RSVPLG03,md,20251021-103124,1.0.1,20251020-085245,705,Experiment,Both,1,Automatic,main,18,20251021-103346,local,global,300,H,H,A,E,A-H.png,H-E.png,hH,hH,mask-3.png,mask-4.png,h,1,1.000062800012529,s,0,0.15050660003907979,0.047008899971842766,0.047906900057569146,0.10146449995227158,0.10013550007715821,0.2984521999023855
RSVPLG03,md,20251021-103124,1.0.1,20251020-085245,705,Experiment,Both,1,Automatic,main,19,20251021-103351,global,global,300,S,S,E,A,S-E.png,S-A.png,sS,sS,mask-1.png,mask-2.png,s,1,3.1050647001247853,s,1,1.5302810999564826,0.04768099985085428,0.04766950011253357,0.09986740001477301,0.09883660008199513,0.29977409983985126
RSVPLG03,md,20251021-103124,1.0.1,20251020-085245,705,Experiment,Both,1,Automatic,main,20,20251021-103400,global,global,300,H,S,E,E,H-E.png,S-E.png,hH,sS,mask-3.png,mask-2.png,h,1,2.06157030002214,h,0,0.6192395000252873,0.04773889994248748,0.047490800032392144,0.09904540004208684,0.09963880013674498,0.29883409989997745
RSVPLG03,md,20251021-103124,1.0.1,20251020-085245,705,Experiment,Both,1,Automatic,main,21,20251021-103406,local,local,750,H,H,A,E,A-H.png,E-H.png,hH,hH,mask-3.png,mask-2.png,h,1,1.486857600044459,s,0,1.1865517999976873,0.04754230007529259,0.04760419996455312,0.10056519997306168,0.0999165999237448,0.7473193001933396
RSVPLG03,md,20251021-103124,1.0.1,20251020-085245,705,Experiment,Both,1,Automatic,main,22,20251021-103413,local,global,750,H,H,E,A,E-H.png,H-A.png,hH,hH,mask-4.png,mask-2.png,s,0,2.0131353000178933,h,1,0.9861779999919236,0.046681700041517615,0.04801989998668432,0.0988030000589788,0.10001109982840717,0.7463673001620919
RSVPLG03,md,20251021-103124,1.0.1,20251020-085245,705,Experiment,Both,1,Automatic,main,23,20251021-103420,global,global,300,S,S,A,A,S-A.png,S-A.png,sS,sS,mask-2.png,mask-4.png,h,0,2.017649499932304,s,1,0.3893061999697238,0.04750290000811219,0.04773449990898371,0.099487200146541,0.10075520002283156,0.29778230004012585
RSVPLG03,md,20251021-103124,1.0.1,20251020-085245,705,Experiment,Both,1,Automatic,main,24,20251021-103426,global,local,750,H,H,A,E,H-A.png,E-H.png,hH,hH,mask-1.png,mask-2.png,h,1,0.9587519001215696,h,1,2.3658487999346107,0.04653989989310503,0.04702470009215176,0.09960639989003539,0.09952899999916553,0.7467151000164449
RSVPLG03,md,20251021-103124,1.0.1,20251020-085245,705,Experiment,Both,1,Automatic,main,25,20251021-103433,local,global,750,H,H,A,E,A-H.png,H-E.png,hH,hH,mask-2.png,mask-1.png,h,1,1.7908195999916643,h,1,2.0565718000289053,0.048652099911123514,0.04613170004449785,0.10121359978802502,0.10015129996463656,0.7485670999158174
RSVPLG03,md,20251021-103124,1.0.1,20251020-085245,705,Experiment,Both,1,Automatic,main,26,20251021-103451,local,global,300,H,H,A,A,A-H.png,H-A.png,hH,hH,mask-1.png,mask-3.png,h,1,1.51441440009512,h,1,0.9564615001436323,0.04736119997687638,0.04718909994699061,0.09867099998518825,0.09837229992263019,0.29989310004748404
RSVPLG03,md,20251021-103124,1.0.1,20251020-085245,705,Experiment,Both,1,Automatic,main,27,20251021-103457,global,global,750,H,H,E,E,H-E.png,H-E.png,hH,hH,mask-3.png,mask-1.png,h,1,1.169040200067684,h,1,0.4700747998431325,0.047760300105437636,0.047715699998661876,0.09975260007195175,0.10026529990136623,0.7475406001321971
RSVPLG03,md,20251021-103124,1.0.1,20251020-085245,705,Experiment,Both,1,Automatic,main,28,20251021-103502,global,global,750,H,H,A,A,H-A.png,H-A.png,hH,hH,mask-3.png,mask-1.png,h,1,0.9970301000867039,h,1,0.505856900010258,0.04672110010869801,0.046966199995949864,0.09894230007193983,0.10024850000627339,0.7467074000742286
RSVPLG03,md,20251021-103124,1.0.1,20251020-085245,705,Experiment,Both,1,Automatic,main,29,20251021-103508,global,local,750,S,S,E,A,S-E.png,A-S.png,sS,sS,mask-4.png,mask-3.png,s,1,1.8262475999072194,h,0,2.2022718000225723,0.04772359994240105,0.047567700035870075,0.099920499837026,0.09901920007541776,0.7481059997808188
RSVPLG03,md,20251021-103124,1.0.1,20251020-085245,705,Experiment,Both,1,Automatic,main,30,20251021-103516,global,global,750,H,S,E,A,H-E.png,S-A.png,hH,sS,mask-3.png,mask-3.png,h,1,1.12841030000709,s,1,0.21422900003381073,0.046659199986606836,0.04702779999934137,0.09820130001753569,0.10005610017105937,0.7461744998581707
RSVPLG03,md,20251021-103124,1.0.1,20251020-085245,705,Experiment,Both,1,Automatic,main,31,20251021-103521,global,global,300,S,H,E,A,S-E.png,H-A.png,sS,hH,mask-4.png,mask-2.png,s,1,1.6931174001656473,s,0,0.1834225000347942,0.04765839991159737,0.04761739983223379,0.09965549991466105,0.10078129987232387,0.29919810011051595
RSVPLG03,md,20251021-103124,1.0.1,20251020-085245,705,Experiment,Both,1,Automatic,main,32,20251021-103527,local,global,300,S,S,A,E,A-S.png,S-E.png,sS,sS,mask-4.png,mask-2.png,s,1,0.997141599887982,h,0,1.4940303000621498,0.04559869994409382,0.046680400148034096,0.09868009993806481,0.09966169996187091,0.2987089999951422
RSVPLG03,md,20251021-103124,1.0.1,20251020-085245,705,Experiment,Both,1,Automatic,main,33,20251021-103533,global,global,750,S,H,E,E,S-E.png,H-E.png,sS,hH,mask-1.png,mask-4.png,s,1,0.9457157000433654,s,0,1.090479000005871,0.04768509999848902,0.048699599923565984,0.09988619992509484,0.09897199994884431,0.7465466000139713
RSVPLG03,md,20251021-103124,1.0.1,20251020-085245,705,Experiment,Both,1,Automatic,main,34,20251021-103539,global,local,300,H,H,E,A,H-E.png,A-H.png,hH,hH,mask-4.png,mask-4.png,h,1,1.8690349999815226,s,0,0.36193599994294345,0.04750040010549128,0.047545099863782525,0.09949060017243028,0.09965739981271327,0.298781500197947
RSVPLG03,md,20251021-103124,1.0.1,20251020-085245,705,Experiment,Both,1,Automatic,main,35,20251021-103545,local,global,750,S,S,E,A,E-S.png,S-A.png,sS,sS,mask-2.png,mask-3.png,h,0,1.4065970999654382,s,1,0.1782666000071913,0.04784329980611801,0.04768389998935163,0.10204169992357492,0.0998777998611331,0.7479745999444276
RSVPLG03,md,20251021-103124,1.0.1,20251020-085245,705,Experiment,Both,1,Automatic,main,36,20251021-103551,global,global,300,S,H,A,A,S-A.png,H-A.png,sS,hH,mask-4.png,mask-3.png,s,1,2.4662756000179797,s,0,0.37343950010836124,0.04834380000829697,0.04741739993914962,0.09992700000293553,0.09941989998333156,0.30016570002771914
RSVPLG03,md,20251021-103124,1.0.1,20251020-085245,705,Experiment,Both,1,Automatic,main,37,20251021-103557,global,global,300,S,H,E,E,S-E.png,H-E.png,sS,hH,mask-1.png,mask-4.png,s,1,1.315134400036186,s,0,0.4012723998166621,0.047751300036907196,0.04771970002911985,0.09994200011715293,0.09996089991182089,0.29970750003121793
RSVPLG03,md,20251021-103124,1.0.1,20251020-085245,705,Experiment,Both,1,Automatic,main,38,20251021-103602,global,local,300,H,S,E,E,H-E.png,E-S.png,hH,sS,mask-2.png,mask-3.png,h,1,1.456660599913448,s,1,0.6439280998893082,0.04792949999682605,0.047354500042274594,0.10031409980729222,0.10037780017592013,0.29933809977956116
RSVPLG03,md,20251021-103124,1.0.1,20251020-085245,705,Experiment,Both,1,Automatic,main,39,20251021-103608,local,global,300,H,S,A,A,A-H.png,S-A.png,hH,sS,mask-4.png,mask-4.png,h,1,1.3875808001030236,s,1,0.6543944000732154,0.04499650001525879,0.04554380010813475,0.09930930007249117,0.09976279991678894,0.2989594000391662
RSVPLG03,md,20251021-103124,1.0.1,20251020-085245,705,Experiment,Both,1,Automatic,main,40,20251021-103614,global,global,750,S,S,A,A,S-A.png,S-A.png,sS,sS,mask-1.png,mask-4.png,s,1,1.591184299904853,h,0,0.9570574001409113,0.048058300046250224,0.04772290005348623,0.09973290003836155,0.09874200006015599,0.7475179999601096
RSVPLG03,md,20251021-103124,1.0.1,20251020-085245,705,Experiment,Both,1,Automatic,main,41,20251021-103621,global,local,300,S,S,A,A,S-A.png,A-S.png,sS,sS,mask-1.png,mask-3.png,h,0,3.4722427998203784,s,1,0.21746259997598827,0.04653119994327426,0.04753299988806248,0.0976348000112921,0.09975089994259179,0.2989809000864625
RSVPLG03,md,20251021-103124,1.0.1,20251020-085245,705,Experiment,Both,1,Automatic,main,42,20251021-103628,local,global,300,S,S,A,E,A-S.png,S-E.png,sS,sS,mask-2.png,mask-4.png,s,1,1.0844360999763012,h,0,0.17952320002950728,0.048541400115936995,0.047529299976304173,0.10055939992889762,0.09969369997270405,0.298927899915725
RSVPLG03,md,20251021-103124,1.0.1,20251020-085245,705,Experiment,Both,1,Automatic,main,43,20251021-103633,global,global,750,H,S,E,E,H-E.png,S-E.png,hH,sS,mask-2.png,mask-1.png,h,1,1.4401128999888897,s,1,0.8123325000051409,0.046702800085768104,0.04749609995633364,0.09955710009671748,0.10052000009454787,0.7475326999556273
RSVPLG03,md,20251021-103124,1.0.1,20251020-085245,705,Experiment,Both,1,Automatic,main,44,20251021-103639,global,local,300,H,S,E,E,H-E.png,E-S.png,hH,sS,mask-1.png,mask-1.png,h,1,1.1183507000096142,h,0,0.22049740003421903,0.04671850008890033,0.04852980002760887,0.09984940011054277,0.09971400001086295,0.29849310009740293
RSVPLG03,md,20251021-103124,1.0.1,20251020-085245,705,Experiment,Both,1,Automatic,main,45,20251021-103644,local,local,300,S,H,A,E,A-S.png,E-H.png,sS,hH,mask-2.png,mask-4.png,s,1,1.5989572999533266,h,1,0.18968100007623434,0.0477039001416415,0.04668379994109273,0.09997840016148984,0.09969279984943569,0.2996852002106607
RSVPLG03,md,20251021-103124,1.0.1,20251020-085245,705,Experiment,Both,1,Automatic,main,46,20251021-103650,global,local,750,S,H,E,E,S-E.png,E-H.png,sS,hH,mask-1.png,mask-3.png,s,1,1.0754327999893576,s,0,0.8227198000531644,0.047568999929353595,0.048500100150704384,0.10058719990774989,0.10055580013431609,0.746889199828729
RSVPLG03,md,20251021-103124,1.0.1,20251020-085245,705,Experiment,Both,1,Automatic,main,47,20251021-103656,global,global,300,H,S,A,E,H-A.png,S-E.png,hH,sS,mask-1.png,mask-2.png,h,1,1.34717239998281,h,0,1.5505993999540806,0.048594400053843856,0.04889400000683963,0.09983319998718798,0.09972090017981827,0.29878899990580976
RSVPLG03,md,20251021-103124,1.0.1,20251020-085245,705,Experiment,Both,1,Automatic,main,48,20251021-103702,local,global,300,H,H,E,A,E-H.png,H-A.png,hH,hH,mask-1.png,mask-2.png,h,1,3.0266346000134945,h,1,0.9987083999440074,0.04575879988260567,0.047746900003403425,0.09799169981852174,0.10084489989094436,0.29767380002886057
RSVPLG03,md,20251021-103124,1.0.1,20251020-085245,705,Experiment,Both,1,Automatic,main,49,20251021-103710,local,local,750,H,H,A,A,A-H.png,A-H.png,hH,hH,mask-3.png,mask-3.png,h,1,2.737404099898413,s,0,0.6984095999505371,0.048603100003674626,0.046244499972090125,0.1017114999704063,0.09870640002191067,0.7484953000675887
RSVPLG03,md,20251021-103124,1.0.1,20251020-085245,705,Experiment,Both,1,Automatic,main,50,20251021-103718,local,local,300,S,S,A,E,A-S.png,E-S.png,sS,sS,mask-1.png,mask-3.png,s,1,0.8457114000339061,s,1,1.0285088999662548,0.04682930000126362,0.04700619983486831,0.0991754001006484,0.09936230001039803,0.29982380010187626
RSVPLG03,md,20251021-103124,1.0.1,20251020-085245,705,Experiment,Both,1,Automatic,main,51,20251021-103732,global,local,750,S,S,E,E,S-E.png,E-S.png,sS,sS,mask-2.png,mask-2.png,s,1,1.1297269000206143,s,1,0.4433542999904603,0.047669699881225824,0.046708300011232495,0.09966879989951849,0.09913169988431036,0.7482110999990255
RSVPLG03,md,20251021-103124,1.0.1,20251020-085245,705,Experiment,Both,1,Automatic,main,52,20251021-103738,global,global,300,H,S,E,E,H-E.png,S-E.png,hH,sS,mask-3.png,mask-3.png,h,1,1.6262914999388158,s,1,0.17295749997720122,0.04857040010392666,0.04755779984407127,0.09959360002540052,0.09957510000094771,0.2989921001717448
RSVPLG03,md,20251021-103124,1.0.1,20251020-085245,705,Experiment,Both,1,Automatic,main,53,20251021-103743,global,local,750,S,H,A,E,S-A.png,E-H.png,sS,hH,mask-1.png,mask-3.png,s,1,1.1073434001300484,h,1,0.35827680001966655,0.04873579996638,0.04803190007805824,0.10109099978581071,0.1002042000181973,0.7472772998735309
RSVPLG03,md,20251021-103124,1.0.1,20251020-085245,705,Experiment,Both,1,Automatic,main,54,20251021-103749,local,local,300,S,H,A,E,A-S.png,E-H.png,sS,hH,mask-3.png,mask-1.png,s,1,1.663478699978441,h,1,0.19521240005269647,0.04771930002607405,0.047760199988260865,0.09922210010699928,0.09997180011123419,0.2984633999876678
RSVPLG03,md,20251021-103124,1.0.1,20251020-085245,705,Experiment,Both,1,Automatic,main,55,20251021-103755,local,local,750,S,H,E,E,E-S.png,E-H.png,sS,hH,mask-2.png,mask-1.png,s,1,0.7936493998859078,h,1,0.07073909998871386,0.046967600006610155,0.04753550002351403,0.10004829987883568,0.09967239992693067,0.748226199997589
RSVPLG03,md,20251021-103124,1.0.1,20251020-085245,705,Experiment,Both,1,Automatic,main,56,20251021-103759,global,local,750,H,S,A,E,H-A.png,E-S.png,hH,sS,mask-1.png,mask-3.png,h,1,1.2023344000335783,h,0,0.6370491997804493,0.04674150003120303,0.048524900106713176,0.10006779991090298,0.1007250000257045,0.746987999882549
RSVPLG03,md,20251021-103124,1.0.1,20251020-085245,705,Experiment,Both,1,Automatic,main,57,20251021-103805,global,local,300,H,S,A,E,H-A.png,E-S.png,hH,sS,mask-2.png,mask-3.png,h,1,1.7904650999698788,h,0,0.9743881998583674,0.04633260006085038,0.04739940003491938,0.0973851999733597,0.09832700015977025,0.29849620000459254
RSVPLG03,md,20251021-103124,1.0.1,20251020-085245,705,Experiment,Both,1,Automatic,main,58,20251021-103812,global,local,300,H,H,A,A,H-A.png,A-H.png,hH,hH,mask-2.png,mask-4.png,h,1,1.1122928000986576,h,1,1.5763324000872672,0.04796970007009804,0.04787230002693832,0.09910300001502037,0.10093279997818172,0.2978318000677973
RSVPLG03,md,20251021-103124,1.0.1,20251020-085245,705,Experiment,Both,1,Automatic,main,59,20251021-103818,global,global,300,H,S,A,E,H-A.png,S-E.png,hH,sS,mask-4.png,mask-3.png,h,1,1.2637957001570612,s,1,0.19874630006961524,0.04802339989691973,0.04636929999105632,0.100041399942711,0.0986192999407649,0.3001361999195069
RSVPLG03,md,20251021-103124,1.0.1,20251020-085245,705,Experiment,Both,1,Automatic,main,60,20251021-103823,local,local,750,H,H,E,E,E-H.png,E-H.png,hH,hH,mask-1.png,mask-1.png,h,1,1.3273300000000745,h,1,0.6289884999860078,0.045517300022765994,0.045977900037541986,0.09790850011631846,0.09799080016091466,0.7473321000579745
RSVPLG03,md,20251021-103124,1.0.1,20251020-085245,705,Experiment,Both,1,Automatic,main,61,20251021-103829,local,local,750,S,H,E,A,E-S.png,A-H.png,sS,hH,mask-4.png,mask-1.png,s,1,0.6759267000015825,h,1,0.18802789994515479,0.047591800102964044,0.04655490000732243,0.10050960001535714,0.09955929988063872,0.7482980000786483
RSVPLG03,md,20251021-103124,1.0.1,20251020-085245,705,Experiment,Both,1,Automatic,main,62,20251021-103834,local,local,750,H,H,E,E,E-H.png,E-H.png,hH,hH,mask-3.png,mask-3.png,h,1,1.0813362998887897,s,0,1.6393989999778569,0.04751199996098876,0.04756249999627471,0.09952630009502172,0.09954870003275573,0.747819900047034
RSVPLG03,md,20251021-103124,1.0.1,20251020-085245,705,Experiment,Both,1,Automatic,main,63,20251021-103841,local,local,750,H,H,A,A,A-H.png,A-H.png,hH,hH,mask-4.png,mask-2.png,h,1,1.0182719000149518,h,1,1.7066140999086201,0.047576599987223744,0.04749580007046461,0.09957719990052283,0.10052990005351603,0.7475590999238193
RSVPLG03,md,20251021-103124,1.0.1,20251020-085245,705,Experiment,Both,1,Automatic,main,64,20251021-103848,local,local,750,H,S,A,E,A-H.png,E-S.png,hH,sS,mask-2.png,mask-1.png,h,1,0.7416002999525517,s,1,0.08598640002310276,0.047600500052794814,0.04859750019386411,0.10070980014279485,0.10068110004067421,0.7474901999812573
RSVPLG03,md,20251021-103124,1.0.1,20251020-085245,705,Experiment,Both,1,Automatic,main,65,20251021-103853,local,local,300,S,S,A,E,A-S.png,E-S.png,sS,sS,mask-3.png,mask-2.png,s,1,0.7930582000408322,s,1,0.1391079002059996,0.04711159993894398,0.04746929998509586,0.10011819982901216,0.10145349986851215,0.2993008999619633
RSVPLG03,md,20251021-103124,1.0.1,20251020-085245,705,Experiment,Both,1,Automatic,main,66,20251021-103857,global,global,300,S,S,E,A,S-E.png,S-A.png,sS,sS,mask-3.png,mask-3.png,s,1,3.417877099942416,h,0,0.9403110998682678,0.04750399990007281,0.04758289991877973,0.1005615999456495,0.0996053998824209,0.2982067000120878
RSVPLG03,md,20251021-103124,1.0.1,20251020-085245,705,Experiment,Both,1,Automatic,main,67,20251021-103905,global,local,750,H,S,A,E,H-A.png,E-S.png,hH,sS,mask-3.png,mask-1.png,h,1,1.0051390000153333,h,0,1.2573702998925,0.048496800009161234,0.04746029991656542,0.09957169997505844,0.10056449985131621,0.7469997000880539
RSVPLG03,md,20251021-103124,1.0.1,20251020-085245,705,Experiment,Both,1,Automatic,main,68,20251021-103912,global,global,300,H,H,A,E,H-A.png,H-E.png,hH,hH,mask-1.png,mask-1.png,h,1,1.2445829999633133,h,1,1.226513900095597,0.04597410000860691,0.046833000145852566,0.09959729993715882,0.09824110008776188,0.29914739984087646
RSVPLG03,md,20251021-103124,1.0.1,20251020-085245,705,Experiment,Both,1,Automatic,main,69,20251021-103918,local,local,300,S,S,E,E,E-S.png,E-S.png,sS,sS,mask-2.png,mask-1.png,s,1,0.7147778000216931,s,1,0.4408945001196116,0.0485296999104321,0.04760980000719428,0.10011920006945729,0.09973370004445314,0.2992926000151783
RSVPLG03,md,20251021-103124,1.0.1,20251020-085245,705,Experiment,Both,1,Automatic,main,70,20251021-103923,local,global,750,H,H,A,E,A-H.png,H-E.png,hH,hH,mask-4.png,mask-4.png,h,1,2.2876597000285983,s,0,1.210389900021255,0.04787050001323223,0.04698339989408851,0.09954209998250008,0.09969719988293946,0.7468415000475943
RSVPLG03,md,20251021-103124,1.0.1,20251020-085245,705,Experiment,Both,1,Automatic,main,71,20251021-103930,local,local,300,H,H,A,A,A-H.png,A-H.png,hH,hH,mask-1.png,mask-3.png,h,1,1.676628699991852,s,0,1.463430899893865,0.04756080009974539,0.04769999999552965,0.0979687999933958,0.09990169992670417,0.2984965001232922
RSVPLG03,md,20251021-103124,1.0.1,20251020-085245,705,Experiment,Both,1,Automatic,main,72,20251021-103937,global,global,750,H,S,A,A,H-A.png,S-A.png,hH,sS,mask-3.png,mask-2.png,h,1,1.4230404999107122,s,1,0.7406933000311255,0.04770480003207922,0.04769999999552965,0.09961670008488,0.10092399991117418,0.7462092000059783
RSVPLG03,md,20251021-103124,1.0.1,20251020-085245,705,Experiment,Both,1,Automatic,main,73,20251021-103943,local,global,750,H,H,E,E,E-H.png,H-E.png,hH,hH,mask-3.png,mask-3.png,h,1,1.177582300035283,h,1,0.1633638001512736,0.047704100143164396,0.04677630006335676,0.09989070007577538,0.09999040002003312,0.7481154000852257
RSVPLG03,md,20251021-103124,1.0.1,20251020-085245,705,Experiment,Both,1,Automatic,main,74,20251021-103948,global,local,750,S,S,E,E,S-E.png,E-S.png,sS,sS,mask-3.png,mask-1.png,s,1,0.8301139001268893,h,0,1.2558404000010341,0.04880600003525615,0.04780489997938275,0.10091789998114109,0.10006630001589656,0.7478139998856932
RSVPLG03,md,20251021-103124,1.0.1,20251020-085245,705,Experiment,Both,1,Automatic,main,75,20251021-103955,global,global,750,S,H,E,A,S-E.png,H-A.png,sS,hH,mask-4.png,mask-1.png,s,1,1.7728260001167655,s,0,1.084112600190565,0.04864409985020757,0.04745889990590513,0.10067109996452928,0.09858729992993176,0.7484134000260383
RSVPLG03,md,20251021-103124,1.0.1,20251020-085245,705,Experiment,Both,1,Automatic,main,76,20251021-104006,local,global,300,S,S,E,E,E-S.png,S-E.png,sS,sS,mask-4.png,mask-3.png,s,1,0.6575984000228345,h,0,0.3637706998270005,0.04754289984703064,0.04651149990968406,0.10056110005825758,0.09853249997831881,0.29987869993783534
RSVPLG03,md,20251021-103124,1.0.1,20251020-085245,705,Experiment,Both,1,Automatic,main,77,20251021-104010,global,local,300,S,H,E,A,S-E.png,A-H.png,sS,hH,mask-2.png,mask-2.png,s,1,1.695265700109303,s,0,0.7485197000205517,0.04754639999009669,0.045769899850711226,0.10057189990766346,0.10026019997894764,0.2998875000048429
RSVPLG03,md,20251021-103124,1.0.1,20251020-085245,705,Experiment,Both,1,Automatic,main,78,20251021-104016,local,global,750,H,H,E,E,E-H.png,H-E.png,hH,hH,mask-3.png,mask-2.png,h,1,0.7917440999299288,s,0,0.15615199995227158,0.047565200133249164,0.047707200050354004,0.09964240016415715,0.0999600999057293,0.7476630001328886
RSVPLG03,md,20251021-103124,1.0.1,20251020-085245,705,Experiment,Both,1,Automatic,main,79,20251021-104021,global,local,300,S,S,E,E,S-E.png,E-S.png,sS,sS,mask-2.png,mask-3.png,s,1,2.142301799962297,s,1,0.6838134999852628,0.04750049998983741,0.04757310007698834,0.09932159981690347,0.10062270006164908,0.29894039989449084
RSVPLG03,md,20251021-103124,1.0.1,20251020-085245,705,Experiment,Both,1,Automatic,main,80,20251021-104028,global,local,750,S,S,E,E,S-E.png,E-S.png,sS,sS,mask-3.png,mask-3.png,h,0,2.921809999970719,s,1,0.08922609989531338,0.0475165001116693,0.048450700007379055,0.09880829998292029,0.10033560008741915,0.747058599954471
RSVPLG03,md,20251021-103124,1.0.1,20251020-085245,705,Experiment,Both,1,Automatic,main,81,20251021-104035,global,global,300,S,S,E,E,S-E.png,S-E.png,sS,sS,mask-1.png,mask-4.png,s,1,4.64006010000594,h,0,0.32709449995309114,0.047869900008663535,0.04808259988203645,0.10119269997812808,0.10026539978571236,0.2984176001045853
RSVPLG03,md,20251021-103124,1.0.1,20251020-085245,705,Experiment,Both,1,Automatic,main,82,20251021-104044,local,global,750,H,S,E,A,E-H.png,S-A.png,hH,sS,mask-1.png,mask-1.png,h,1,0.8812516999896616,s,1,1.6999631999060512,0.04553440003655851,0.04751980002038181,0.09852089988999069,0.09867210010997951,0.7470390999224037
RSVPLG03,md,20251021-103124,1.0.1,20251020-085245,705,Experiment,Both,1,Automatic,main,83,20251021-104050,local,local,750,S,H,A,A,A-S.png,A-H.png,sS,hH,mask-4.png,mask-1.png,s,1,0.5109937998931855,h,1,0.1691139000467956,0.046978999860584736,0.04743080004118383,0.09919489989988506,0.09834940009750426,0.7479852999094874
RSVPLG03,md,20251021-103124,1.0.1,20251020-085245,705,Experiment,Both,1,Automatic,main,84,20251021-104055,local,global,750,S,H,E,E,E-S.png,H-E.png,sS,hH,mask-3.png,mask-1.png,s,1,1.2845846000127494,s,0,1.4804865000769496,0.04780389997176826,0.046851100167259574,0.09979039989411831,0.09837980009615421,0.7487934997770935
RSVPLG03,md,20251021-103124,1.0.1,20251020-085245,705,Experiment,Both,1,Automatic,main,85,20251021-104102,local,local,300,S,S,E,A,E-S.png,A-S.png,sS,sS,mask-1.png,mask-3.png,s,1,0.7984716999344528,h,0,0.1049543998669833,0.04661719989962876,0.04861010005697608,0.09888439998030663,0.0998116999398917,0.29751889989711344
RSVPLG03,md,20251021-103124,1.0.1,20251020-085245,705,Experiment,Both,1,Automatic,main,86,20251021-104107,local,global,750,H,H,E,A,E-H.png,H-A.png,hH,hH,mask-4.png,mask-4.png,h,1,0.8274237001314759,h,1,0.09276130003854632,0.047705400036647916,0.04591680015437305,0.0998929999768734,0.10021850001066923,0.7478785999119282
RSVPLG03,md,20251021-103124,1.0.1,20251020-085245,705,Experiment,Both,1,Automatic,main,87,20251021-104112,local,global,750,S,S,E,E,E-S.png,S-E.png,sS,sS,mask-4.png,mask-3.png,s,1,1.0514315001200885,s,1,0.6208037999458611,0.04664499987848103,0.04721580003388226,0.09971949993632734,0.09927850007079542,0.747444299980998
RSVPLG03,md,20251021-103124,1.0.1,20251020-085245,705,Experiment,Both,1,Automatic,main,88,20251021-104117,local,global,300,H,H,E,E,E-H.png,H-E.png,hH,hH,mask-3.png,mask-4.png,h,1,1.1287704000715166,s,0,0.34152869996614754,0.04644039995037019,0.04761679982766509,0.09864039998501539,0.09971899981610477,0.299279100028798
RSVPLG03,md,20251021-103124,1.0.1,20251020-085245,705,Experiment,Both,1,Automatic,main,89,20251021-104123,global,local,750,H,S,A,A,H-A.png,A-S.png,hH,sS,mask-1.png,mask-4.png,h,1,1.1858099999371916,h,0,0.7482664999552071,0.04702199995517731,0.04721420002169907,0.09933150000870228,0.09841879992745817,0.7477428999263793
RSVPLG03,md,20251021-103124,1.0.1,20251020-085245,705,Experiment,Both,1,Automatic,main,90,20251021-104129,global,global,750,S,H,A,E,S-A.png,H-E.png,sS,hH,mask-4.png,mask-2.png,s,1,0.6351018000859767,s,0,0.6113181000109762,0.04671410005539656,0.046951199881732464,0.09883900010026991,0.09957199986092746,0.7473689001053572
RSVPLG03,md,20251021-103124,1.0.1,20251020-085245,705,Experiment,Both,1,Automatic,main,91,20251021-104134,local,local,750,H,S,E,A,E-H.png,A-S.png,hH,sS,mask-4.png,mask-1.png,h,1,1.0964152999222279,s,1,0.4864435999188572,0.04753629979677498,0.04866820015013218,0.09988390002399683,0.09987590019591153,0.7470260998234153
RSVPLG03,md,20251021-103124,1.0.1,20251020-085245,705,Experiment,Both,1,Automatic,main,92,20251021-104140,local,local,300,H,H,A,A,A-H.png,A-H.png,hH,hH,mask-3.png,mask-3.png,h,1,1.036239700159058,s,0,1.4636225998401642,0.04660929995588958,0.047752599930390716,0.09891210007481277,0.09998479997739196,0.29863670002669096
RSVPLG03,md,20251021-103124,1.0.1,20251020-085245,705,Experiment,Both,1,Automatic,main,93,20251021-104146,global,global,750,H,S,A,A,H-A.png,S-A.png,hH,sS,mask-3.png,mask-1.png,h,1,1.567637899890542,h,0,0.7276367000304163,0.04751239996403456,0.047290800139307976,0.09952839999459684,0.0983049999922514,0.7478698999620974
RSVPLG03,md,20251021-103124,1.0.1,20251020-085245,705,Experiment,Both,1,Automatic,main,94,20251021-104153,local,global,750,S,S,A,A,A-S.png,S-A.png,sS,sS,mask-2.png,mask-4.png,s,1,0.8936480998527259,s,1,1.00842020008713,0.04652730002999306,0.04751950013451278,0.09860759996809065,0.09852770017459989,0.7466319999657571
RSVPLG03,md,20251021-103124,1.0.1,20251020-085245,705,Experiment,Both,1,Automatic,main,95,20251021-104159,local,local,300,H,H,E,E,E-H.png,E-H.png,hH,hH,mask-2.png,mask-3.png,h,1,0.9377272999845445,h,1,1.0371553001459688,0.047530699986964464,0.046577699948102236,0.10058700013905764,0.09958339994773269,0.29918220010586083
RSVPLG03,md,20251021-103124,1.0.1,20251020-085245,705,Experiment,Both,1,Automatic,main,96,20251021-104204,local,local,750,H,S,A,A,A-H.png,A-S.png,hH,sS,mask-4.png,mask-2.png,h,1,0.7977687001693994,h,0,1.7066816000733525,0.048717099940404296,0.046583599876612425,0.1008817998226732,0.09932689997367561,0.7485056999139488
RSVPLG03,md,20251021-103124,1.0.1,20251020-085245,705,Experiment,Both,1,Automatic,main,97,20251021-104211,global,global,300,H,H,E,E,H-E.png,H-E.png,hH,hH,mask-3.png,mask-2.png,h,1,0.9541184999980032,h,1,0.1961008000653237,0.046302600065246224,0.0478407999034971,0.0995295001193881,0.09999859984964132,0.2982066001277417
RSVPLG03,md,20251021-103124,1.0.1,20251020-085245,705,Experiment,Both,1,Automatic,main,98,20251021-104216,global,local,300,S,S,E,E,S-E.png,E-S.png,sS,sS,mask-3.png,mask-2.png,s,1,1.6323166000656784,h,0,2.070690399967134,0.045102500123903155,0.047782800160348415,0.09893600014038384,0.09966330020688474,0.2974551999941468
RSVPLG03,md,20251021-103124,1.0.1,20251020-085245,705,Experiment,Both,1,Automatic,main,99,20251021-104223,local,global,300,H,S,E,E,E-H.png,S-E.png,hH,sS,mask-1.png,mask-1.png,h,1,1.8672030000016093,s,1,0.24803199991583824,0.047530800104141235,0.04765579989179969,0.10088149993680418,0.09962820005603135,0.29997080005705357
RSVPLG03,md,20251021-103124,1.0.1,20251020-085245,705,Experiment,Both,1,Automatic,main,100,20251021-104229,global,global,750,H,S,A,E,H-A.png,S-E.png,hH,sS,mask-4.png,mask-4.png,h,1,0.9204677001107484,h,0,1.3167045000009239,0.04558210005052388,0.04695069999434054,0.0987827000208199,0.0991408999543637,0.7463968999218196
RSVPLG03,md,20251021-103124,1.0.1,20251020-085245,705,Experiment,Both,1,Automatic,main,101,20251021-104237,local,global,300,S,S,E,E,E-S.png,S-E.png,sS,sS,mask-4.png,mask-3.png,s,1,1.2098908999469131,s,1,1.5819215001538396,0.0456128001678735,0.047490800032392144,0.09893320011906326,0.1005774000659585,0.29811020009219646
RSVPLG03,md,20251021-103124,1.0.1,20251020-085245,705,Experiment,Both,1,Automatic,main,102,20251021-104243,local,global,300,S,H,E,A,E-S.png,H-A.png,sS,hH,mask-2.png,mask-1.png,s,1,1.5812460999004543,s,0,0.39374400000087917,0.046540499897673726,0.04560300009325147,0.09841610002331436,0.09861880005337298,0.29979169997386634
RSVPLG03,md,20251021-103124,1.0.1,20251020-085245,705,Experiment,Both,1,Automatic,main,103,20251021-104249,global,global,300,S,S,E,A,S-E.png,S-A.png,sS,sS,mask-4.png,mask-1.png,s,1,1.1781605000142008,s,1,0.12263439991511405,0.047026799991726875,0.04686179989948869,0.09921359992586076,0.09921779995784163,0.3001989000476897
RSVPLG03,md,20251021-103124,1.0.1,20251020-085245,705,Experiment,Both,1,Automatic,main,104,20251021-104254,local,global,750,S,S,A,A,A-S.png,S-A.png,sS,sS,mask-1.png,mask-2.png,s,1,0.9711305999662727,h,0,0.15551989991217852,0.04796020011417568,0.04844920011237264,0.10031979996711016,0.10062570008449256,0.7471851999871433
RSVPLG03,md,20251021-103124,1.0.1,20251020-085245,705,Experiment,Both,1,Automatic,main,105,20251021-104259,global,local,300,S,H,A,E,S-A.png,E-H.png,sS,hH,mask-4.png,mask-3.png,s,1,3.820881800027564,h,1,0.2831224000547081,0.046603400027379394,0.047672800021246076,0.09807830001227558,0.09989030007272959,0.297302900115028
RSVPLG03,md,20251021-103124,1.0.1,20251020-085245,705,Experiment,Both,1,Automatic,main,106,20251021-104307,local,global,300,H,S,E,E,E-H.png,S-E.png,hH,sS,mask-3.png,mask-4.png,h,1,1.3863868999760598,s,1,0.53492909995839,0.047545500099658966,0.04576519993133843,0.10075020021758974,0.09899909980595112,0.2997899001929909
RSVPLG03,md,20251021-103124,1.0.1,20251020-085245,705,Experiment,Both,1,Automatic,main,107,20251021-104312,local,local,750,H,S,E,A,E-H.png,A-S.png,hH,sS,mask-3.png,mask-1.png,h,1,1.0487271000165492,h,0,1.4732383999507874,0.04748910013586283,0.046573600033298135,0.0993476000148803,0.09759610006585717,0.7483485999982804
RSVPLG03,md,20251021-103124,1.0.1,20251020-085245,705,Experiment,Both,1,Automatic,main,108,20251021-104319,local,global,300,H,S,E,E,E-H.png,S-E.png,hH,sS,mask-4.png,mask-4.png,h,1,0.8960505998693407,s,1,0.1831557999830693,0.04847380006685853,0.0463387998752296,0.10095750004984438,0.09812049986794591,0.30053300014697015
RSVPLG03,md,20251021-103124,1.0.1,20251020-085245,705,Experiment,Both,1,Automatic,main,109,20251021-104324,local,global,300,S,S,A,E,A-S.png,S-E.png,sS,sS,mask-2.png,mask-4.png,s,1,0.6670750000048429,s,1,1.2504276998806745,0.04574940004386008,0.04552870010957122,0.09814619994722307,0.09948630002327263,0.29934879997745156
RSVPLG03,md,20251021-103124,1.0.1,20251020-085245,705,Experiment,Both,1,Automatic,main,110,20251021-104329,local,global,750,S,S,E,E,E-S.png,S-E.png,sS,sS,mask-2.png,mask-1.png,s,1,0.6432568999007344,s,1,0.30173769989050925,0.048279899870976806,0.04778200015425682,0.09935329994186759,0.10089910007081926,0.7470962998922914
RSVPLG03,md,20251021-103124,1.0.1,20251020-085245,705,Experiment,Both,1,Automatic,main,111,20251021-104334,local,local,750,H,H,E,E,E-H.png,E-H.png,hH,hH,mask-4.png,mask-4.png,h,1,1.0367459000553936,s,0,1.2561548000667244,0.048480400117114186,0.046533500077202916,0.09953200002200902,0.09854919998906553,0.7482642000541091
RSVPLG03,md,20251021-103124,1.0.1,20251020-085245,705,Experiment,Both,1,Automatic,main,112,20251021-104341,global,local,750,H,H,A,E,H-A.png,E-H.png,hH,hH,mask-3.png,mask-3.png,h,1,0.8720017999876291,h,1,0.20744369993917644,0.04715669993311167,0.04754359996877611,0.10028290003538132,0.0985582999419421,0.7485052000265568
RSVPLG03,md,20251021-103124,1.0.1,20251020-085245,705,Experiment,Both,1,Automatic,main,113,20251021-104346,global,global,750,S,H,E,E,S-E.png,H-E.png,sS,hH,mask-1.png,mask-1.png,s,1,0.5824436999391764,s,0,0.7809987000655383,0.04860440012998879,0.04757569986395538,0.10041270009241998,0.099996899953112,0.7471961001865566
RSVPLG03,md,20251021-103124,1.0.1,20251020-085245,705,Experiment,Both,1,Automatic,main,114,20251021-104351,global,local,300,H,H,E,A,H-E.png,A-H.png,hH,hH,mask-3.png,mask-4.png,h,1,0.9684683999512345,h,1,0.7250998001545668,0.047798800049349666,0.04801610019057989,0.10004689986817539,0.09971920005045831,0.29768219985999167
RSVPLG03,md,20251021-103124,1.0.1,20251020-085245,705,Experiment,Both,1,Automatic,main,115,20251021-104357,local,global,300,H,S,A,A,A-H.png,S-A.png,hH,sS,mask-2.png,mask-3.png,h,1,2.286974700167775,s,1,0.2964589998591691,0.04861869988963008,0.04697790020145476,0.10011799982748926,0.09898370015434921,0.299374699825421
RSVPLG03,md,20251021-103124,1.0.1,20251020-085245,705,Experiment,Both,1,Automatic,main,116,20251021-104403,global,global,750,S,S,E,A,S-E.png,S-A.png,sS,sS,mask-4.png,mask-3.png,s,1,0.7108375001698732,s,1,1.3722256999462843,0.04573290003463626,0.047698300099000335,0.09797749994322658,0.0989500000141561,0.7465301000047475
RSVPLG03,md,20251021-103124,1.0.1,20251020-085245,705,Experiment,Both,1,Automatic,main,117,20251021-104409,global,global,300,S,H,A,A,S-A.png,H-A.png,sS,hH,mask-1.png,mask-4.png,s,1,1.107556400122121,s,0,0.1671433998271823,0.04567490005865693,0.045774699887260795,0.0981084001250565,0.09890879993326962,0.2984357001259923
RSVPLG03,md,20251021-103124,1.0.1,20251020-085245,705,Experiment,Both,1,Automatic,main,118,20251021-104414,global,global,750,S,H,A,E,S-A.png,H-E.png,sS,hH,mask-1.png,mask-2.png,s,1,0.4760010000318289,h,1,0.2642654001247138,0.045568699948489666,0.04742679977789521,0.09907620004378259,0.10049559990875423,0.7454880001023412
RSVPLG03,md,20251021-103124,1.0.1,20251020-085245,705,Experiment,Both,1,Automatic,main,119,20251021-104419,local,local,300,H,H,A,A,A-H.png,A-H.png,hH,hH,mask-1.png,mask-2.png,h,1,2.4068287000991404,s,0,0.026340800104662776,0.047690500039607286,0.046679999912157655,0.09989269985817373,0.09916989994235337,0.29907070007175207
RSVPLG03,md,20251021-103124,1.0.1,20251020-085245,705,Experiment,Both,1,Automatic,main,120,20251021-104425,global,local,750,S,H,E,A,S-E.png,A-H.png,sS,hH,mask-4.png,mask-2.png,s,1,0.5258460999466479,s,0,1.1315055000595748,0.04790919995866716,0.045712799998000264,0.10001179995015264,0.0999110999982804,0.7490286999382079
RSVPLG03,md,20251021-103124,1.0.1,20251020-085245,705,Experiment,Both,1,Automatic,main,121,20251021-104431,global,local,750,S,H,A,A,S-A.png,A-H.png,sS,hH,mask-4.png,mask-3.png,s,1,0.608391199959442,h,1,0.27827889984473586,0.0466881999745965,0.0465204999782145,0.09905800013802946,0.10059489984996617,0.7468614000827074
RSVPLG03,md,20251021-103124,1.0.1,20251020-085245,705,Experiment,Both,1,Automatic,main,122,20251021-104436,global,global,750,H,H,E,E,H-E.png,H-E.png,hH,hH,mask-1.png,mask-1.png,h,1,0.5963762998580933,h,1,0.3164289998821914,0.04760769987478852,0.04902080004103482,0.10055259987711906,0.10002760007046163,0.7470600998494774
RSVPLG03,md,20251021-103124,1.0.1,20251020-085245,705,Experiment,Both,1,Automatic,main,123,20251021-104441,local,local,300,S,H,A,E,A-S.png,E-H.png,sS,hH,mask-3.png,mask-1.png,s,1,3.034755300031975,s,0,0.3513234001584351,0.04753559990786016,0.04760609986260533,0.09966039983555675,0.10104850004427135,0.2980494999792427
RSVPLG03,md,20251021-103124,1.0.1,20251020-085245,705,Experiment,Both,1,Automatic,main,124,20251021-104448,global,local,300,S,H,E,A,S-E.png,A-H.png,sS,hH,mask-2.png,mask-3.png,s,1,0.937405199976638,h,1,0.36421699984930456,0.047512599965557456,0.048515599919483066,0.10040310001932085,0.09954829979687929,0.2986803001258522
RSVPLG03,md,20251021-103124,1.0.1,20251020-085245,705,Experiment,Both,1,Automatic,main,125,20251021-104453,local,local,750,H,H,E,E,E-H.png,E-H.png,hH,hH,mask-1.png,mask-2.png,h,1,0.6635612999089062,h,1,0.10887059988453984,0.04862770019099116,0.04670019983313978,0.0996923001948744,0.09903709986247122,0.7488789001945406
RSVPLG03,md,20251021-104603,1.0.1,20251020-085245,705,Experiment,Both,1,Automatic,warmup,1,20251021-104630,global,global,750,H,H,A,E,H-A.png,H-E.png,hH,hH,mask-2.png,mask-4.png,h,1,0.9829997001215816,h,1,0.8751110001467168,0.04112079995684326,0.04677899996750057,0.09220870002172887,0.09897219995036721,0.7431022999808192
RSVPLG03,md,20251021-104603,1.0.1,20251020-085245,705,Experiment,Both,1,Automatic,warmup,2,20251021-104636,local,global,750,S,H,A,A,A-S.png,H-A.png,sS,hH,mask-1.png,mask-3.png,s,1,0.7440321000758559,h,1,0.6810178000014275,0.04671939997933805,0.047715699998661876,0.10000580013729632,0.09994270000606775,0.7496120000723749
RSVPLG03,md,20251021-104603,1.0.1,20251020-085245,705,Experiment,Both,1,Automatic,warmup,3,20251021-104642,local,local,300,S,S,A,E,A-S.png,E-S.png,sS,sS,mask-2.png,mask-2.png,s,1,1.0573527000378817,s,1,0.21142040006816387,0.045912800123915076,0.04753440013155341,0.09875370003283024,0.10056410008110106,0.2995331999845803
RSVPLG03,md,20251021-104603,1.0.1,20251020-085245,705,Experiment,Both,1,Automatic,warmup,4,20251021-104647,local,local,750,S,H,E,E,E-S.png,E-H.png,sS,hH,mask-2.png,mask-3.png,s,1,0.4455078998580575,h,1,0.04938509990461171,0.046513799810782075,0.047511199954897165,0.09774729982018471,0.09951950004324317,0.7488517998717725
RSVPLG03,md,20251021-104603,1.0.1,20251020-085245,705,Experiment,Both,1,Automatic,warmup,5,20251021-104651,local,global,300,S,H,A,E,A-S.png,H-E.png,sS,hH,mask-4.png,mask-1.png,s,1,0.7046145000495017,s,0,0.1981656001880765,0.04569580010138452,0.04677600017748773,0.09975560009479523,0.09943870012648404,0.29891759995371103
RSVPLG03,md,20251021-104603,1.0.1,20251020-085245,705,Experiment,Both,1,Automatic,main,6,20251021-104656,global,global,300,S,H,A,E,S-A.png,H-E.png,sS,hH,mask-2.png,mask-2.png,s,1,0.6065903999842703,h,1,0.6568062000442296,0.04750510002486408,0.046463900012895465,0.10013630008324981,0.10051990021020174,0.30066599999554455
RSVPLG03,md,20251021-104603,1.0.1,20251020-085245,705,Experiment,Both,1,Automatic,main,7,20251021-104701,local,local,750,S,H,A,A,A-S.png,A-H.png,sS,hH,mask-2.png,mask-2.png,s,1,0.38005840010009706,h,1,0.11966450000181794,0.04749869997613132,0.04751199996098876,0.09948889981023967,0.09948129998520017,0.749719199957326
RSVPLG03,md,20251021-104603,1.0.1,20251020-085245,705,Experiment,Both,1,Automatic,main,8,20251021-104705,local,local,300,H,S,E,E,E-H.png,E-S.png,hH,sS,mask-4.png,mask-1.png,h,1,1.2212435998953879,s,1,0.15722679998725653,0.04784130002371967,0.047720199916511774,0.1000222999136895,0.10193619993515313,0.2996857000980526
RSVPLG03,md,20251021-104603,1.0.1,20251020-085245,705,Experiment,Both,1,Automatic,main,9,20251021-104710,local,global,300,H,S,E,E,E-H.png,S-E.png,hH,sS,mask-3.png,mask-1.png,h,1,0.8813928999006748,h,0,0.5803590998984873,0.04763400019146502,0.04751059995032847,0.10073680011555552,0.10066969995386899,0.30098960013128817
RSVPLG03,md,20251021-104603,1.0.1,20251020-085245,705,Experiment,Both,1,Automatic,main,10,20251021-104715,global,global,300,H,S,A,E,H-A.png,S-E.png,hH,sS,mask-1.png,mask-3.png,h,1,1.3781244999263436,h,0,0.41604830021969974,0.04882050002925098,0.047801699955016375,0.1009792999830097,0.09898749995045364,0.30154070002026856
RSVPLG03,md,20251021-104603,1.0.1,20251020-085245,705,Experiment,Both,1,Automatic,main,11,20251021-104721,local,local,300,S,S,A,E,A-S.png,E-S.png,sS,sS,mask-4.png,mask-4.png,s,1,0.5181378999259323,s,1,0.1251837001182139,0.04717010003514588,0.04682129994034767,0.10053259995765984,0.09975409996695817,0.2997389999218285
RSVPLG03,md,20251021-104603,1.0.1,20251020-085245,705,Experiment,Both,1,Automatic,main,12,20251021-104725,local,local,750,H,H,A,E,A-H.png,E-H.png,hH,hH,mask-2.png,mask-4.png,h,1,0.7282193000428379,s,0,0.6168222001288086,0.04747589980252087,0.04730289988219738,0.09983479999937117,0.10009559988975525,0.7498584999702871
RSVPLG03,md,20251021-104603,1.0.1,20251020-085245,705,Experiment,Both,1,Automatic,main,13,20251021-104730,local,global,300,S,H,E,A,E-S.png,H-A.png,sS,hH,mask-1.png,mask-1.png,s,1,0.5886605000123382,s,0,0.5482036001048982,0.046753899892792106,0.047718900023028255,0.1009016998577863,0.10058420011773705,0.30008369986899197
RSVPLG03,md,20251021-104603,1.0.1,20251020-085245,705,Experiment,Both,1,Automatic,main,14,20251021-104735,local,local,750,S,H,A,A,A-S.png,A-H.png,sS,hH,mask-1.png,mask-4.png,s,1,0.40177029999904335,h,1,0.07514880015514791,0.047474300023168325,0.04771070019342005,0.09892280003987253,0.10134590021334589,0.7487929000053555
RSVPLG03,md,20251021-104603,1.0.1,20251020-085245,705,Experiment,Both,1,Automatic,main,15,20251021-104740,local,local,300,S,H,E,E,E-S.png,E-H.png,sS,hH,mask-2.png,mask-4.png,s,1,0.5330315001774579,s,0,0.2679095999337733,0.04752390016801655,0.04845710005611181,0.09860990010201931,0.09959029988385737,0.29853030014783144
RSVPLG03,md,20251021-104603,1.0.1,20251020-085245,705,Experiment,Both,1,Automatic,main,16,20251021-104744,local,global,300,S,H,A,E,A-S.png,H-E.png,sS,hH,mask-2.png,mask-4.png,s,1,0.5931518999859691,h,1,0.2989158998243511,0.046689300099387765,0.04756750003434718,0.09989130008034408,0.09974219999276102,0.29841609997674823
RSVPLG03,md,20251021-104603,1.0.1,20251020-085245,705,Experiment,Both,1,Automatic,main,17,20251021-104749,local,global,750,S,H,A,A,A-S.png,H-A.png,sS,hH,mask-3.png,mask-1.png,s,1,0.4904517000541091,h,1,0.05483720009215176,0.04712570016272366,0.04707690002396703,0.09845790010876954,0.10005340003408492,0.7501189999748021
RSVPLG03,md,20251021-104603,1.0.1,20251020-085245,705,Experiment,Both,1,Automatic,main,18,20251021-104753,global,global,300,H,H,A,E,H-A.png,H-E.png,hH,hH,mask-2.png,mask-2.png,h,1,0.6120941999834031,h,1,0.15256499988026917,0.047712899977341294,0.04656489985063672,0.09996060002595186,0.09976010001264513,0.3005709000863135
RSVPLG03,md,20251021-104603,1.0.1,20251020-085245,705,Experiment,Both,1,Automatic,main,19,20251021-104758,local,local,300,S,S,E,A,E-S.png,A-S.png,sS,sS,mask-2.png,mask-2.png,s,1,0.6986877999734133,s,1,0.5643529000226408,0.046770500019192696,0.04765180009417236,0.09909669985063374,0.09923700010403991,0.29870179994031787
RSVPLG03,md,20251021-104603,1.0.1,20251020-085245,705,Experiment,Both,1,Automatic,main,20,20251021-104803,global,local,750,H,H,A,A,H-A.png,A-H.png,hH,hH,mask-2.png,mask-2.png,h,1,0.5153053000103682,h,1,0.11725509981624782,0.048105299938470125,0.04777500010095537,0.10115860006771982,0.09994539991021156,0.7501036999747157
RSVPLG03,md,20251021-104603,1.0.1,20251020-085245,705,Experiment,Both,1,Automatic,main,21,20251021-104808,local,global,750,S,S,A,E,A-S.png,S-E.png,sS,sS,mask-4.png,mask-2.png,s,1,0.5701621000189334,s,1,1.2678914999123663,0.0487784999422729,0.04810920008458197,0.10098330001346767,0.09951329999603331,0.7500560998450965
RSVPLG03,md,20251021-104603,1.0.1,20251020-085245,705,Experiment,Both,1,Automatic,main,22,20251021-104814,global,global,750,H,H,E,A,H-E.png,H-A.png,hH,hH,mask-3.png,mask-1.png,h,1,0.6348957000300288,h,1,0.4134427001699805,0.047274400014430285,0.04887629998847842,0.09828289994038641,0.10017240000888705,0.7487699999473989
RSVPLG03,md,20251021-104603,1.0.1,20251020-085245,705,Experiment,Both,1,Automatic,main,23,20251021-104819,local,global,300,H,S,E,E,E-H.png,S-E.png,hH,sS,mask-3.png,mask-2.png,h,1,0.7425885000266135,s,1,0.4925038998480886,0.047484799986705184,0.04883070010691881,0.10149080003611743,0.1017485000193119,0.2992962999269366
RSVPLG03,md,20251021-104603,1.0.1,20251020-085245,705,Experiment,Both,1,Automatic,main,24,20251021-104824,local,global,300,S,S,E,A,E-S.png,S-A.png,sS,sS,mask-3.png,mask-4.png,s,1,0.5492970000486821,s,1,1.4883175001014024,0.04654910019598901,0.04754950013011694,0.09941290016286075,0.0996535001322627,0.29976650001481175
RSVPLG03,md,20251021-104603,1.0.1,20251020-085245,705,Experiment,Both,1,Automatic,main,25,20251021-104829,local,global,300,H,S,A,E,A-H.png,S-E.png,hH,sS,mask-1.png,mask-1.png,h,1,0.5535595000255853,h,0,0.9697457998991013,0.04732750006951392,0.04690499999560416,0.0988176001701504,0.10107769980095327,0.29877750016748905
RSVPLG03,md,20251021-104603,1.0.1,20251020-085245,705,Experiment,Both,1,Automatic,main,26,20251021-104842,global,local,750,H,H,A,E,H-A.png,E-H.png,hH,hH,mask-4.png,mask-3.png,h,1,0.5028907000087202,h,1,0.1418948001228273,0.0465442999266088,0.04752540006302297,0.10020469990558922,0.10090720001608133,0.7487940997816622
RSVPLG03,md,20251021-104603,1.0.1,20251020-085245,705,Experiment,Both,1,Automatic,main,27,20251021-104846,local,global,300,H,S,E,A,E-H.png,S-A.png,hH,sS,mask-2.png,mask-4.png,h,1,1.141635499894619,s,1,0.6527776001021266,0.047597800148651004,0.04644479998387396,0.09985500015318394,0.09916969994083047,0.29964140010997653
RSVPLG03,md,20251021-104603,1.0.1,20251020-085245,705,Experiment,Both,1,Automatic,main,28,20251021-104852,local,local,300,H,S,A,A,A-H.png,A-S.png,hH,sS,mask-4.png,mask-2.png,h,1,0.6681065000593662,s,1,0.2784082000143826,0.048436000011861324,0.04737560008652508,0.10130760003812611,0.09946679999120533,0.3013164000585675
RSVPLG03,md,20251021-104603,1.0.1,20251020-085245,705,Experiment,Both,1,Automatic,main,29,20251021-104857,local,local,300,S,H,A,A,A-S.png,A-H.png,sS,hH,mask-3.png,mask-1.png,s,1,0.4442046999465674,h,1,0.6611482999287546,0.047162799863144755,0.04803179996088147,0.10043119988404214,0.10007139993831515,0.29984640004113317
RSVPLG03,md,20251021-104603,1.0.1,20251020-085245,705,Experiment,Both,1,Automatic,main,30,20251021-104901,local,global,300,H,H,A,E,A-H.png,H-E.png,hH,hH,mask-3.png,mask-2.png,h,1,0.7840831999201328,h,1,0.3107784998137504,0.048636100022122264,0.04755240003578365,0.100705899996683,0.0996399000287056,0.30091729993000627
RSVPLG03,md,20251021-104603,1.0.1,20251020-085245,705,Experiment,Both,1,Automatic,main,31,20251021-104906,global,global,300,S,H,A,E,S-A.png,H-E.png,sS,hH,mask-4.png,mask-2.png,s,1,0.5518944999203086,s,0,0.4681706998962909,0.04774439986795187,0.04660949995741248,0.10005419980734587,0.0991262998431921,0.30060419999063015
RSVPLG03,md,20251021-104603,1.0.1,20251020-085245,705,Experiment,Both,1,Automatic,main,32,20251021-104911,local,global,750,H,H,E,E,E-H.png,H-E.png,hH,hH,mask-4.png,mask-4.png,s,0,0.7678515000734478,h,1,0.7160277001094073,0.04756989981979132,0.047783599933609366,0.10152649995870888,0.10098519991151989,0.7491442998871207
RSVPLG03,md,20251021-104603,1.0.1,20251020-085245,705,Experiment,Both,1,Automatic,main,33,20251021-104916,global,global,750,H,S,E,A,H-E.png,S-A.png,hH,sS,mask-4.png,mask-3.png,h,1,1.3759351999033242,h,0,0.8542883999180049,0.04760799999348819,0.04779810016043484,0.09902919991873205,0.10097140003927052,0.7491619999054819
RSVPLG03,md,20251021-104603,1.0.1,20251020-085245,705,Experiment,Both,1,Automatic,main,34,20251021-104923,global,global,300,S,S,A,A,S-A.png,S-A.png,sS,sS,mask-2.png,mask-4.png,s,1,0.40535959997214377,s,1,0.4674599999561906,0.04872570000588894,0.04573630006052554,0.10090150008909404,0.09991710004396737,0.3015729000326246
RSVPLG03,md,20251021-104603,1.0.1,20251020-085245,705,Experiment,Both,1,Automatic,main,35,20251021-104927,global,global,300,S,H,A,A,S-A.png,H-A.png,sS,hH,mask-2.png,mask-4.png,s,1,0.5318567000795156,h,1,0.13524960004724562,0.04730169987305999,0.04630740010179579,0.0985818998888135,0.09930940018966794,0.29902139981277287
RSVPLG03,md,20251021-104603,1.0.1,20251020-085245,705,Experiment,Both,1,Automatic,main,36,20251021-104932,local,local,300,S,S,A,A,A-S.png,A-S.png,sS,sS,mask-4.png,mask-2.png,s,1,0.6315125001128763,s,1,0.11786490003578365,0.046521199867129326,0.047397500136867166,0.0985143999569118,0.09838730003684759,0.29975069989450276
RSVPLG03,md,20251021-104603,1.0.1,20251020-085245,705,Experiment,Both,1,Automatic,main,37,20251021-104936,local,local,750,S,H,E,E,E-S.png,E-H.png,sS,hH,mask-4.png,mask-3.png,s,1,0.5443903999403119,s,0,0.5000354000367224,0.046727400040254,0.04673580010421574,0.09915809985250235,0.10001880000345409,0.7490012999624014
RSVPLG03,md,20251021-104603,1.0.1,20251020-085245,705,Experiment,Both,1,Automatic,main,38,20251021-104941,local,local,750,H,H,A,E,A-H.png,E-H.png,hH,hH,mask-1.png,mask-3.png,h,1,0.45298360008746386,h,1,0.13892420008778572,0.04767040000297129,0.04752010013908148,0.09983290010131896,0.10161589994095266,0.7493855999782681
RSVPLG03,md,20251021-104603,1.0.1,20251020-085245,705,Experiment,Both,1,Automatic,main,39,20251021-104946,local,global,750,S,S,E,A,E-S.png,S-A.png,sS,sS,mask-4.png,mask-1.png,s,1,0.5899949998129159,s,1,0.5232149001676589,0.047518399776890874,0.04749470017850399,0.09951989981345832,0.09954310022294521,0.749832899775356
RSVPLG03,md,20251021-104603,1.0.1,20251020-085245,705,Experiment,Both,1,Automatic,main,40,20251021-104951,global,local,750,H,S,E,A,H-E.png,A-S.png,hH,sS,mask-3.png,mask-2.png,h,1,0.5465366998687387,h,0,0.10878779995255172,0.0465550001244992,0.04735720017924905,0.09902579989284277,0.10036130016669631,0.7480643999297172
RSVPLG03,md,20251021-104603,1.0.1,20251020-085245,705,Experiment,Both,1,Automatic,main,41,20251021-104956,local,global,300,H,H,E,E,E-H.png,H-E.png,hH,hH,mask-4.png,mask-3.png,h,1,1.259016500087455,h,1,0.45412349980324507,0.04867110005579889,0.04867250006645918,0.10086579993367195,0.10086040012538433,0.30002489988692105
RSVPLG03,md,20251021-104603,1.0.1,20251020-085245,705,Experiment,Both,1,Automatic,main,42,20251021-105001,global,local,300,H,H,E,E,H-E.png,E-H.png,hH,hH,mask-4.png,mask-4.png,h,1,0.538512600120157,h,1,0.2979318001307547,0.048728000139817595,0.04753760015591979,0.09999780007638037,0.09958130004815757,0.29931010003201663
RSVPLG03,md,20251021-104603,1.0.1,20251020-085245,705,Experiment,Both,1,Automatic,main,43,20251021-105006,local,global,750,H,S,E,A,E-H.png,S-A.png,hH,sS,mask-3.png,mask-1.png,h,1,0.4971501000691205,h,0,0.5010678002145141,0.04609050019644201,0.0459905001334846,0.09805640019476414,0.09910280001349747,0.7489461000077426
RSVPLG03,md,20251021-104603,1.0.1,20251020-085245,705,Experiment,Both,1,Automatic,main,44,20251021-105011,local,local,300,S,S,A,A,A-S.png,A-S.png,sS,sS,mask-2.png,mask-1.png,s,1,0.45547359995543957,h,0,0.6360798000823706,0.047504999907687306,0.04751619999296963,0.10049719992093742,0.10054049990139902,0.29976409999653697
RSVPLG03,md,20251021-104603,1.0.1,20251020-085245,705,Experiment,Both,1,Automatic,main,45,20251021-105016,local,global,750,S,H,A,E,A-S.png,H-E.png,sS,hH,mask-1.png,mask-2.png,s,1,0.6607034998014569,s,0,0.8845982998609543,0.047514399979263544,0.047505399910733104,0.09881140012294054,0.10052959993481636,0.7479324000887573
RSVPLG03,md,20251021-104603,1.0.1,20251020-085245,705,Experiment,Both,1,Automatic,main,46,20251021-105021,local,global,300,H,H,A,E,A-H.png,H-E.png,hH,hH,mask-3.png,mask-4.png,h,1,0.6584187000989914,s,0,0.8665682999417186,0.04667899990454316,0.04762349999509752,0.09947739983908832,0.1016728999093175,0.2990083999466151
RSVPLG03,md,20251021-104603,1.0.1,20251020-085245,705,Experiment,Both,1,Automatic,main,47,20251021-105026,global,local,300,S,S,E,A,S-E.png,A-S.png,sS,sS,mask-2.png,mask-2.png,s,1,0.9880810999311507,h,0,0.18959730002097785,0.0455437998753041,0.04755589994601905,0.099580799927935,0.10171860014088452,0.2978214998729527
RSVPLG03,md,20251021-104603,1.0.1,20251020-085245,705,Experiment,Both,1,Automatic,main,48,20251021-105031,local,local,300,S,H,E,A,E-S.png,A-H.png,sS,hH,mask-4.png,mask-3.png,s,1,0.837096800096333,s,0,0.502690700115636,0.04669780004769564,0.04769889987073839,0.09991810005158186,0.09988839994184673,0.2985056999605149
RSVPLG03,md,20251021-104603,1.0.1,20251020-085245,705,Experiment,Both,1,Automatic,main,49,20251021-105036,global,global,750,S,S,E,A,S-E.png,S-A.png,sS,sS,mask-2.png,mask-1.png,s,1,0.5325742000713944,s,1,0.5827568999957293,0.046786699909716845,0.047600300051271915,0.09948570001870394,0.10150950006209314,0.7477875999175012
RSVPLG03,md,20251021-104603,1.0.1,20251020-085245,705,Experiment,Both,1,Automatic,main,50,20251021-105042,global,global,300,H,S,E,A,H-E.png,S-A.png,hH,sS,mask-1.png,mask-4.png,h,1,0.8662954000756145,s,1,0.10534720006398857,0.04670530022121966,0.04668099991977215,0.09991430002264678,0.09890419989824295,0.30053600016981363
RSVPLG03,md,20251021-104603,1.0.1,20251020-085245,705,Experiment,Both,1,Automatic,main,51,20251021-105053,global,global,750,H,S,A,E,H-A.png,S-E.png,hH,sS,mask-2.png,mask-2.png,h,1,0.5412995999213308,h,0,0.3447314999066293,0.04811979993246496,0.04753439989872277,0.10100889997556806,0.09927670005708933,0.7500356000382453
RSVPLG03,md,20251021-104603,1.0.1,20251020-085245,705,Experiment,Both,1,Automatic,main,52,20251021-105058,local,global,300,S,S,A,E,A-S.png,S-E.png,sS,sS,mask-2.png,mask-1.png,s,1,0.559649599948898,s,1,0.46852750005200505,0.04780539986677468,0.047283400082960725,0.10000490001402795,0.100243000080809,0.2998847998678684
RSVPLG03,md,20251021-104603,1.0.1,20251020-085245,705,Experiment,Both,1,Automatic,main,53,20251021-105103,global,global,300,H,H,E,A,H-E.png,H-A.png,hH,hH,mask-2.png,mask-2.png,h,1,0.8281231001019478,h,1,0.1721951998770237,0.04875209997408092,0.04569480009377003,0.10002369992434978,0.09936739993281662,0.3007577999960631
RSVPLG03,md,20251021-104603,1.0.1,20251020-085245,705,Experiment,Both,1,Automatic,main,54,20251021-105108,global,global,750,S,S,A,E,S-A.png,S-E.png,sS,sS,mask-2.png,mask-3.png,s,1,0.528700300026685,s,1,0.33257720014080405,0.04851599992252886,0.047536700032651424,0.09956549992784858,0.09957980015315115,0.7495344998314977
RSVPLG03,md,20251021-104603,1.0.1,20251020-085245,705,Experiment,Both,1,Automatic,main,55,20251021-105113,local,local,300,S,S,A,A,A-S.png,A-S.png,sS,sS,mask-1.png,mask-1.png,s,1,0.5465798999648541,s,1,0.24585069995373487,0.047687500016763806,0.04863510001450777,0.09987569996155798,0.09984360006637871,0.30001959996297956
RSVPLG03,md,20251021-104603,1.0.1,20251020-085245,705,Experiment,Both,1,Automatic,main,56,20251021-105117,global,local,750,H,S,E,E,H-E.png,E-S.png,hH,sS,mask-1.png,mask-3.png,h,1,0.6687948999460787,h,0,0.9249428999610245,0.047135400120168924,0.04745849990285933,0.09937980002723634,0.099748499924317,0.7496464001014829
RSVPLG03,md,20251021-104603,1.0.1,20251020-085245,705,Experiment,Both,1,Automatic,main,57,20251021-105123,local,global,300,S,S,E,E,E-S.png,S-E.png,sS,sS,mask-4.png,mask-4.png,s,1,1.542494700057432,s,1,0.35677720000967383,0.04573299991898239,0.04778510006144643,0.09990649996325374,0.09988919994793832,0.2983971999492496
RSVPLG03,md,20251021-104603,1.0.1,20251020-085245,705,Experiment,Both,1,Automatic,main,58,20251021-105129,global,global,300,H,H,E,A,H-E.png,H-A.png,hH,hH,mask-4.png,mask-1.png,h,1,0.5456346001010388,h,1,0.12729139998555183,0.048208799911662936,0.04629680002108216,0.10000909981317818,0.09994810004718602,0.30094309989362955
RSVPLG03,md,20251021-104603,1.0.1,20251020-085245,705,Experiment,Both,1,Automatic,main,59,20251021-105133,global,global,750,S,H,A,E,S-A.png,H-E.png,sS,hH,mask-1.png,mask-1.png,s,1,0.7577723998110741,s,0,0.96823660004884,0.04573110002093017,0.04654070013202727,0.09972249995917082,0.0982763001229614,0.7495269998908043
RSVPLG03,md,20251021-104603,1.0.1,20251020-085245,705,Experiment,Both,1,Automatic,main,60,20251021-105139,local,global,300,S,H,E,A,E-S.png,H-A.png,sS,hH,mask-1.png,mask-2.png,s,1,0.37391970003955066,s,0,0.6521041998639703,0.04774380009621382,0.046710200142115355,0.09993250016123056,0.09904490015469491,0.3005468000192195
RSVPLG03,md,20251021-104603,1.0.1,20251020-085245,705,Experiment,Both,1,Automatic,main,61,20251021-105143,global,global,300,H,H,E,E,H-E.png,H-E.png,hH,hH,mask-3.png,mask-4.png,h,1,0.4945010000374168,h,1,0.18844459997490048,0.04862940008752048,0.0477312000002712,0.10086470004171133,0.09894830011762679,0.3005572999827564
RSVPLG03,md,20251021-104603,1.0.1,20251020-085245,705,Experiment,Both,1,Automatic,main,62,20251021-105148,global,local,300,S,S,E,E,S-E.png,E-S.png,sS,sS,mask-4.png,mask-2.png,s,1,1.139663599897176,h,0,1.2236671999562532,0.04772010003216565,0.046724800020456314,0.10038199997507036,0.0992419000249356,0.30160750006325543
RSVPLG03,md,20251021-104603,1.0.1,20251020-085245,705,Experiment,Both,1,Automatic,main,63,20251021-105154,local,local,750,H,H,A,A,A-H.png,A-H.png,hH,hH,mask-1.png,mask-2.png,h,1,0.4154077998828143,h,1,0.0672186000738293,0.046319899847730994,0.048544300021603703,0.09925729990936816,0.10056509985588491,0.7487880999688059
RSVPLG03,md,20251021-104603,1.0.1,20251020-085245,705,Experiment,Both,1,Automatic,main,64,20251021-105158,global,local,300,H,S,A,E,H-A.png,E-S.png,hH,sS,mask-2.png,mask-1.png,s,0,1.4070386001840234,h,0,0.1347994999960065,0.047206300077959895,0.04698590002954006,0.10146549995988607,0.09998689987696707,0.30018580006435513
RSVPLG03,md,20251021-104603,1.0.1,20251020-085245,705,Experiment,Both,1,Automatic,main,65,20251021-105204,global,local,300,S,S,A,E,S-A.png,E-S.png,sS,sS,mask-1.png,mask-4.png,s,1,0.4142743998672813,s,1,1.0507374999579042,0.04850380006246269,0.046559899812564254,0.10130019998177886,0.09845719998702407,0.30168920010328293
RSVPLG03,md,20251021-104603,1.0.1,20251020-085245,705,Experiment,Both,1,Automatic,main,66,20251021-105209,local,local,300,H,S,E,A,E-H.png,A-S.png,hH,sS,mask-4.png,mask-3.png,h,1,0.5481206001713872,s,1,0.5212103999219835,0.04618920013308525,0.04742900002747774,0.09985840017907321,0.10136720002628863,0.298731200164184
RSVPLG03,md,20251021-104603,1.0.1,20251020-085245,705,Experiment,Both,1,Automatic,main,67,20251021-105213,global,local,750,S,H,A,A,S-A.png,A-H.png,sS,hH,mask-3.png,mask-3.png,s,1,0.4854623000137508,h,1,0.3784759999252856,0.04674779996275902,0.04677219991572201,0.09895729995332658,0.09895749995484948,0.7501604999415576
RSVPLG03,md,20251021-104603,1.0.1,20251020-085245,705,Experiment,Both,1,Automatic,main,68,20251021-105218,global,local,750,H,H,E,A,H-E.png,A-H.png,hH,hH,mask-4.png,mask-3.png,h,1,0.5381964000407606,h,1,0.5340316998772323,0.04640570003539324,0.047576599987223744,0.09922849992290139,0.09971760003827512,0.7479095000308007
RSVPLG03,md,20251021-104603,1.0.1,20251020-085245,705,Experiment,Both,1,Automatic,main,69,20251021-105224,global,global,300,H,H,E,A,H-E.png,H-A.png,hH,hH,mask-4.png,mask-1.png,h,1,0.4144015999045223,h,1,0.12411890015937388,0.04743039980530739,0.04623600002378225,0.1014576000161469,0.10025819996371865,0.3011388999875635
RSVPLG03,md,20251021-104603,1.0.1,20251020-085245,705,Experiment,Both,1,Automatic,main,70,20251021-105228,local,global,750,H,S,E,A,E-H.png,S-A.png,hH,sS,mask-1.png,mask-3.png,h,1,0.44233600003644824,s,1,0.7486876000184566,0.047515000216662884,0.0475635000038892,0.09951460012234747,0.10136230010539293,0.7486376001033932
RSVPLG03,md,20251021-104603,1.0.1,20251020-085245,705,Experiment,Both,1,Automatic,main,71,20251021-105233,global,global,750,S,H,E,E,S-E.png,H-E.png,sS,hH,mask-3.png,mask-1.png,s,1,0.33414739998988807,s,0,0.2680880001280457,0.047847700072452426,0.047396000009030104,0.0995964000467211,0.09897189983166754,0.749500600155443
RSVPLG03,md,20251021-104603,1.0.1,20251020-085245,705,Experiment,Both,1,Automatic,main,72,20251021-105238,global,global,750,H,H,E,E,H-E.png,H-E.png,hH,hH,mask-4.png,mask-4.png,h,1,0.5849092002026737,h,1,0.16917390003800392,0.04713280010037124,0.04723759996704757,0.09875010000541806,0.09973189979791641,0.7500538001768291
RSVPLG03,md,20251021-104603,1.0.1,20251020-085245,705,Experiment,Both,1,Automatic,main,73,20251021-105243,global,global,750,H,H,A,A,H-A.png,H-A.png,hH,hH,mask-2.png,mask-1.png,h,1,0.3593880000989884,h,1,0.6785740000195801,0.04733749991282821,0.04752349993214011,0.10035150009207428,0.10051579982973635,0.7488895000424236
RSVPLG03,md,20251021-104603,1.0.1,20251020-085245,705,Experiment,Both,1,Automatic,main,74,20251021-105248,local,local,750,S,S,E,A,E-S.png,A-S.png,sS,sS,mask-2.png,mask-1.png,s,1,0.3073374000377953,s,1,0.0742200999520719,0.047558499965816736,0.047517200000584126,0.0985777999740094,0.10012760013341904,0.7484542999882251
RSVPLG03,md,20251021-104603,1.0.1,20251020-085245,705,Experiment,Both,1,Automatic,main,75,20251021-105252,global,global,750,H,S,E,A,H-E.png,S-A.png,hH,sS,mask-2.png,mask-2.png,h,1,0.44856539997272193,h,0,0.8210815000347793,0.04732290003448725,0.04745730012655258,0.09979630005545914,0.09958060015924275,0.7486902999226004
RSVPLG03,md,20251021-104603,1.0.1,20251020-085245,705,Experiment,Both,1,Automatic,main,76,20251021-105302,local,local,750,S,H,A,E,A-S.png,E-H.png,sS,hH,mask-2.png,mask-1.png,s,1,0.25908529991284013,h,1,0.10630439990200102,0.04647900001145899,0.04770010011270642,0.09942859993316233,0.09897559997625649,0.7502570999786258
RSVPLG03,md,20251021-104603,1.0.1,20251020-085245,705,Experiment,Both,1,Automatic,main,77,20251021-105307,global,global,750,S,S,A,E,S-A.png,S-E.png,sS,sS,mask-4.png,mask-3.png,s,1,0.33985619992017746,s,1,0.32661719992756844,0.04784399992786348,0.048579700058326125,0.0979549998883158,0.09968170011416078,0.7485908998642117
RSVPLG03,md,20251021-104603,1.0.1,20251020-085245,705,Experiment,Both,1,Automatic,main,78,20251021-105311,global,global,750,S,S,A,E,S-A.png,S-E.png,sS,sS,mask-1.png,mask-1.png,s,1,0.6318880999460816,s,1,0.42713770014233887,0.04869649978354573,0.0485148997977376,0.10107269999571145,0.10133500001393259,0.7493567999918014
RSVPLG03,md,20251021-104603,1.0.1,20251020-085245,705,Experiment,Both,1,Automatic,main,79,20251021-105317,local,local,750,S,H,A,A,A-S.png,A-H.png,sS,hH,mask-3.png,mask-3.png,h,0,0.8354325999971479,s,0,0.1167081999592483,0.04745730012655258,0.047548200003802776,0.10054129990749061,0.10057610017247498,0.7498834999278188
RSVPLG03,md,20251021-104603,1.0.1,20251020-085245,705,Experiment,Both,1,Automatic,main,80,20251021-105322,global,global,750,S,S,A,A,S-A.png,S-A.png,sS,sS,mask-4.png,mask-1.png,s,1,0.38390769995748997,s,1,0.09045399981550872,0.0473817999009043,0.04770269989967346,0.09963730000890791,0.10155340004712343,0.7477766999509186
RSVPLG03,md,20251021-104603,1.0.1,20251020-085245,705,Experiment,Both,1,Automatic,main,81,20251021-105326,global,local,750,S,H,E,A,S-E.png,A-H.png,sS,hH,mask-1.png,mask-2.png,s,1,0.4748620998580009,h,1,0.47758229984901845,0.04904450010508299,0.049229800002649426,0.09959869994781911,0.09966189996339381,0.749320900067687
RSVPLG03,md,20251021-104603,1.0.1,20251020-085245,705,Experiment,Both,1,Automatic,main,82,20251021-105331,global,global,300,S,H,E,A,S-E.png,H-A.png,sS,hH,mask-4.png,mask-1.png,s,1,0.6124524001497775,s,0,0.3969230998773128,0.04679139982908964,0.04766709986142814,0.10101399989798665,0.09905039984732866,0.29933469998650253
RSVPLG03,md,20251021-104603,1.0.1,20251020-085245,705,Experiment,Both,1,Automatic,main,83,20251021-105336,local,local,300,S,S,A,E,A-S.png,E-S.png,sS,sS,mask-2.png,mask-4.png,s,1,0.46386070013977587,s,1,0.4743460000026971,0.0466877999715507,0.04877350013703108,0.09988630004227161,0.10191690013743937,0.2988827999215573
RSVPLG03,md,20251021-104603,1.0.1,20251020-085245,705,Experiment,Both,1,Automatic,main,84,20251021-105341,global,local,750,S,H,A,A,S-A.png,A-H.png,sS,hH,mask-4.png,mask-3.png,s,1,0.5111464001238346,h,1,0.12382819992490113,0.04669849993661046,0.04744239989668131,0.09987989999353886,0.09923169994726777,0.7493388999719173
RSVPLG03,md,20251021-104603,1.0.1,20251020-085245,705,Experiment,Both,1,Automatic,main,85,20251021-105345,local,global,300,H,S,E,A,E-H.png,S-A.png,hH,sS,mask-1.png,mask-2.png,h,1,1.1744512000586838,s,1,0.12216140003874898,0.0466877999715507,0.04769060015678406,0.0998893000651151,0.09990050015039742,0.29943979997187853
RSVPLG03,md,20251021-104603,1.0.1,20251020-085245,705,Experiment,Both,1,Automatic,main,86,20251021-105350,global,local,300,S,S,E,E,S-E.png,E-S.png,sS,sS,mask-2.png,mask-1.png,s,1,0.3982332998421043,s,1,0.08609050000086427,0.04827219992876053,0.04769619996659458,0.10052550002001226,0.10090119997039437,0.2999625999946147
RSVPLG03,md,20251021-104603,1.0.1,20251020-085245,705,Experiment,Both,1,Automatic,main,87,20251021-105354,local,global,750,H,S,A,A,A-H.png,S-A.png,hH,sS,mask-3.png,mask-3.png,h,1,0.6754067000001669,s,1,0.052871699910610914,0.048698300030082464,0.04766690009273589,0.1010122001171112,0.09987420006655157,0.7506373999640346
RSVPLG03,md,20251021-104603,1.0.1,20251020-085245,705,Experiment,Both,1,Automatic,main,88,20251021-105359,global,local,300,H,S,E,A,H-E.png,A-S.png,hH,sS,mask-1.png,mask-1.png,h,1,0.4173334001097828,h,0,0.11248619994148612,0.04864770011045039,0.04801149992272258,0.09998650010675192,0.09999179979786277,0.300747400149703
RSVPLG03,md,20251021-104603,1.0.1,20251020-085245,705,Experiment,Both,1,Automatic,main,89,20251021-105403,global,global,300,H,S,A,E,H-A.png,S-E.png,hH,sS,mask-1.png,mask-2.png,h,1,0.6572563999798149,h,0,0.9002690000925213,0.04772100015543401,0.04771049995906651,0.10078460001386702,0.10090090008452535,0.2997955000028014
RSVPLG03,md,20251021-104603,1.0.1,20251020-085245,705,Experiment,Both,1,Automatic,main,90,20251021-105408,local,global,750,S,H,E,A,E-S.png,H-A.png,sS,hH,mask-3.png,mask-4.png,s,1,0.4169679000042379,h,1,0.376141200074926,0.047685999888926744,0.04758640006184578,0.10087549989111722,0.09980130009353161,0.7489511999301612
RSVPLG03,md,20251021-104603,1.0.1,20251020-085245,705,Experiment,Both,1,Automatic,main,91,20251021-105413,local,global,750,H,S,A,E,A-H.png,S-E.png,hH,sS,mask-2.png,mask-1.png,h,1,0.527750700013712,s,1,0.06237630010582507,0.04654420004226267,0.04734459985047579,0.09925039997324347,0.10030349995940924,0.7491045000497252
RSVPLG03,md,20251021-104603,1.0.1,20251020-085245,705,Experiment,Both,1,Automatic,main,92,20251021-105418,local,global,750,S,S,A,A,A-S.png,S-A.png,sS,sS,mask-3.png,mask-3.png,s,1,0.5747206001542509,h,0,0.09954229998402297,0.04750549979507923,0.04747959994710982,0.10051229991950095,0.10026389989070594,0.7500622998923063
RSVPLG03,md,20251021-104603,1.0.1,20251020-085245,705,Experiment,Both,1,Automatic,main,93,20251021-105423,global,global,300,S,H,E,A,S-E.png,H-A.png,sS,hH,mask-2.png,mask-4.png,s,1,0.5764574001077563,s,0,0.13155229995027184,0.04555070004425943,0.04768049996346235,0.09903550008311868,0.0999505000654608,0.29829720011912286
RSVPLG03,md,20251021-104603,1.0.1,20251020-085245,705,Experiment,Both,1,Automatic,main,94,20251021-105427,global,global,300,H,H,A,E,H-A.png,H-E.png,hH,hH,mask-2.png,mask-2.png,h,1,0.47244289983063936,h,1,0.08827280020341277,0.04759970004670322,0.047727700090035796,0.09970590006560087,0.10100489994511008,0.29946219990961254
RSVPLG03,md,20251021-104603,1.0.1,20251020-085245,705,Experiment,Both,1,Automatic,main,95,20251021-105431,global,local,750,S,H,E,A,S-E.png,A-H.png,sS,hH,mask-3.png,mask-3.png,s,1,0.45321980002336204,h,1,0.38142030010931194,0.0476970998570323,0.04812530009075999,0.09977520001120865,0.09982330002821982,0.7495226999744773
RSVPLG03,md,20251021-104603,1.0.1,20251020-085245,705,Experiment,Both,1,Automatic,main,96,20251021-105436,local,local,300,H,S,E,A,E-H.png,A-S.png,hH,sS,mask-3.png,mask-4.png,h,1,0.49435779987834394,s,1,0.48811980010941625,0.04648140002973378,0.04853350017219782,0.09784119995310903,0.10040800017304718,0.2980910998303443
RSVPLG03,md,20251021-104603,1.0.1,20251020-085245,705,Experiment,Both,1,Automatic,main,97,20251021-105441,global,global,750,S,H,A,A,S-A.png,H-A.png,sS,hH,mask-1.png,mask-4.png,s,1,0.40993510000407696,h,1,0.12347049987874925,0.04673440009355545,0.04740000003948808,0.09944829996675253,0.10036189993843436,0.7494763999711722
RSVPLG03,md,20251021-104603,1.0.1,20251020-085245,705,Experiment,Both,1,Automatic,main,98,20251021-105446,global,local,300,H,H,E,E,H-E.png,E-H.png,hH,hH,mask-4.png,mask-3.png,h,1,0.4644206000957638,s,0,0.29454190004616976,0.047515599988400936,0.04546909988857806,0.09957269998267293,0.0983271999284625,0.2998840999789536
RSVPLG03,md,20251021-104603,1.0.1,20251020-085245,705,Experiment,Both,1,Automatic,main,99,20251021-105450,local,global,750,H,H,E,E,E-H.png,H-E.png,hH,hH,mask-3.png,mask-2.png,s,0,0.481118299998343,h,1,1.626705100061372,0.04857310000807047,0.045561299892142415,0.10165850003249943,0.09895129990763962,0.7513844999484718
RSVPLG03,md,20251021-104603,1.0.1,20251020-085245,705,Experiment,Both,1,Automatic,main,100,20251021-105456,global,global,750,H,H,E,A,H-E.png,H-A.png,hH,hH,mask-1.png,mask-3.png,h,1,0.3879814001265913,h,1,0.09143740008585155,0.045669900020584464,0.04792539984919131,0.09989700000733137,0.0986587000079453,0.7484330001752824
RSVPLG03,md,20251021-104603,1.0.1,20251020-085245,705,Experiment,Both,1,Automatic,main,101,20251021-105508,local,local,750,H,H,E,A,E-H.png,A-H.png,hH,hH,mask-2.png,mask-1.png,h,1,0.36621090001426637,h,1,0.09481460019014776,0.04723190004006028,0.048698400147259235,0.10046639991924167,0.10088949999772012,0.7497362999711186
RSVPLG03,md,20251021-104603,1.0.1,20251020-085245,705,Experiment,Both,1,Automatic,main,102,20251021-105513,local,local,300,S,H,A,E,A-S.png,E-H.png,sS,hH,mask-4.png,mask-1.png,s,1,0.5540422999765724,s,0,0.31232040002942085,0.047778100008144975,0.04758629994466901,0.1000885998364538,0.10065859998576343,0.3002400998957455
RSVPLG03,md,20251021-104603,1.0.1,20251020-085245,705,Experiment,Both,1,Automatic,main,103,20251021-105517,global,local,300,S,H,E,A,S-E.png,A-H.png,sS,hH,mask-3.png,mask-4.png,s,1,0.5299728999380022,s,0,0.2061097000259906,0.04762169998139143,0.04738330002874136,0.10061400011181831,0.10138390003703535,0.2996704999823123
RSVPLG03,md,20251021-104603,1.0.1,20251020-085245,705,Experiment,Both,1,Automatic,main,104,20251021-105522,local,local,300,H,S,A,E,A-H.png,E-S.png,hH,sS,mask-1.png,mask-3.png,h,1,0.7619987998623401,h,0,0.9196312001440674,0.04685889999382198,0.04642819985747337,0.09887059987522662,0.09925979981198907,0.29953860002569854
RSVPLG03,md,20251021-104603,1.0.1,20251020-085245,705,Experiment,Both,1,Automatic,main,105,20251021-105527,global,local,300,H,S,A,E,H-A.png,E-S.png,hH,sS,mask-1.png,mask-2.png,h,1,0.5762002000119537,h,0,0.2037927999626845,0.045703900046646595,0.04755040002055466,0.09891619998961687,0.09885720000602305,0.2994126998819411
RSVPLG03,md,20251021-104603,1.0.1,20251020-085245,705,Experiment,Both,1,Automatic,main,106,20251021-105531,global,local,750,H,S,A,A,H-A.png,A-S.png,hH,sS,mask-2.png,mask-4.png,h,1,0.4514367999508977,h,0,0.6361841999460012,0.04768319986760616,0.047523400047793984,0.09991510002873838,0.10076950001530349,0.7500680999364704
RSVPLG03,md,20251021-104603,1.0.1,20251020-085245,705,Experiment,Both,1,Automatic,main,107,20251021-105537,global,local,750,S,H,A,E,S-A.png,E-H.png,sS,hH,mask-1.png,mask-3.png,s,1,0.17352430010214448,s,0,0.22991120000369847,0.04732539993710816,0.047744000097736716,0.09817659994587302,0.09993580006994307,0.7490413000341505
RSVPLG03,md,20251021-104603,1.0.1,20251020-085245,705,Experiment,Both,1,Automatic,main,108,20251021-105541,local,local,750,H,S,A,E,A-H.png,E-S.png,hH,sS,mask-4.png,mask-2.png,h,1,0.5364433999639004,s,1,0.06770400004461408,0.04562149988487363,0.04723779996857047,0.09989539999514818,0.10034789983183146,0.748217900050804
RSVPLG03,md,20251021-104603,1.0.1,20251020-085245,705,Experiment,Both,1,Automatic,main,109,20251021-105546,global,local,750,S,H,A,A,S-A.png,A-H.png,sS,hH,mask-3.png,mask-1.png,s,1,0.424608499975875,s,0,1.0000760999973863,0.04753129999153316,0.048376600025221705,0.09955160017125309,0.10138639993965626,0.7486010000575334
RSVPLG03,md,20251021-104603,1.0.1,20251020-085245,705,Experiment,Both,1,Automatic,main,110,20251021-105552,local,global,750,S,H,A,E,A-S.png,H-E.png,sS,hH,mask-3.png,mask-2.png,s,1,0.6995530999265611,h,1,0.10583880008198321,0.047378200106322765,0.04746949998661876,0.1004680001642555,0.1004965000320226,0.7498908000998199
RSVPLG03,md,20251021-104603,1.0.1,20251020-085245,705,Experiment,Both,1,Automatic,main,111,20251021-105557,global,local,300,H,H,A,E,H-A.png,E-H.png,hH,hH,mask-4.png,mask-4.png,h,1,0.7304104000795633,s,0,0.9688604001421481,0.04759410000406206,0.045637300005182624,0.10061369999311864,0.09966620011255145,0.30131789995357394
RSVPLG03,md,20251021-104603,1.0.1,20251020-085245,705,Experiment,Both,1,Automatic,main,112,20251021-105602,local,global,300,H,H,A,A,A-H.png,H-A.png,hH,hH,mask-4.png,mask-2.png,s,0,1.486094599822536,s,0,0.37400950002484024,0.04672349989414215,0.0457545998506248,0.0989934999961406,0.10000539990141988,0.2997363000176847
RSVPLG03,md,20251021-104603,1.0.1,20251020-085245,705,Experiment,Both,1,Automatic,main,113,20251021-105607,global,local,300,H,S,A,E,H-A.png,E-S.png,hH,sS,mask-3.png,mask-4.png,h,1,0.5751879001036286,h,0,0.5072085000574589,0.04740379983559251,0.04849969991482794,0.10021879989653826,0.09975489997304976,0.30014259996823967
RSVPLG03,md,20251021-104603,1.0.1,20251020-085245,705,Experiment,Both,1,Automatic,main,114,20251021-105612,local,local,750,S,S,A,A,A-S.png,A-S.png,sS,sS,mask-3.png,mask-2.png,h,0,2.009832799900323,s,1,0.10074459994211793,0.04742180020548403,0.04856189992278814,0.09830890013836324,0.10056619998067617,0.7483964001294225
RSVPLG03,md,20251021-104603,1.0.1,20251020-085245,705,Experiment,Both,1,Automatic,main,115,20251021-105618,local,local,750,H,H,A,A,A-H.png,A-H.png,hH,hH,mask-1.png,mask-3.png,h,1,0.5774779999628663,h,1,0.46967490017414093,0.048681699903681874,0.04761020001024008,0.10076129995286465,0.09981480007991195,0.7504632999189198
RSVPLG03,md,20251021-104603,1.0.1,20251020-085245,705,Experiment,Both,1,Automatic,main,116,20251021-105623,global,local,750,H,H,E,E,H-E.png,E-H.png,hH,hH,mask-2.png,mask-1.png,h,1,1.9807695001363754,h,1,1.1637523001991212,0.047688200138509274,0.04757019993849099,0.09969389997422695,0.10066080000251532,0.7500430000945926
RSVPLG03,md,20251021-104603,1.0.1,20251020-085245,705,Experiment,Both,1,Automatic,main,117,20251021-105631,local,local,750,H,S,E,A,E-H.png,A-S.png,hH,sS,mask-1.png,mask-4.png,h,1,0.3071337000001222,s,1,0.050848899874836206,0.04650619998574257,0.04679860011674464,0.09950940008275211,0.0998419001698494,0.7500358999241143
RSVPLG03,md,20251021-104603,1.0.1,20251020-085245,705,Experiment,Both,1,Automatic,main,118,20251021-105635,global,local,750,H,S,A,A,H-A.png,A-S.png,hH,sS,mask-1.png,mask-1.png,h,1,0.42097029997967184,h,0,0.08987069991417229,0.04750289977528155,0.047474600141867995,0.09853209997527301,0.0997013000305742,0.747592399828136
RSVPLG03,md,20251021-104603,1.0.1,20251020-085245,705,Experiment,Both,1,Automatic,main,119,20251021-105640,local,local,750,S,H,A,E,A-S.png,E-H.png,sS,hH,mask-4.png,mask-4.png,s,1,0.4955382999032736,s,0,0.23693610006012022,0.046690599992871284,0.047701000003144145,0.0988924999255687,0.09988210001029074,0.7476836999412626
RSVPLG03,md,20251021-104603,1.0.1,20251020-085245,705,Experiment,Both,1,Automatic,main,120,20251021-105645,global,local,750,S,S,A,E,S-A.png,E-S.png,sS,sS,mask-3.png,mask-4.png,h,0,0.49332719994708896,s,1,0.04333120002411306,0.04674289980903268,0.04820969980210066,0.09927330003120005,0.1005479998420924,0.7490409000311047
RSVPLG03,md,20251021-104603,1.0.1,20251020-085245,705,Experiment,Both,1,Automatic,main,121,20251021-105649,global,local,300,S,S,E,E,S-E.png,E-S.png,sS,sS,mask-2.png,mask-1.png,s,1,0.5143486999440938,s,1,0.1148667000234127,0.04670520010404289,0.04674299992620945,0.09890430001541972,0.09996789996512234,0.2995669001247734
RSVPLG03,md,20251021-104603,1.0.1,20251020-085245,705,Experiment,Both,1,Automatic,main,122,20251021-105654,global,local,300,S,H,E,A,S-E.png,A-H.png,sS,hH,mask-1.png,mask-1.png,s,1,0.5174732999876142,s,0,0.08733469992876053,0.04745700000785291,0.04853449994698167,0.10142330010421574,0.09944299980998039,0.3006057001184672
