exp,exp_initials,runtime,ver,modtime,sub,blocktype,targets,cuetype,mode,trialtype,trial,trialtime,t1_level,t2_level,t2_lag,t1,t2,distractor1,distractor2,stimfile1,stimfile2,t1_corr,t2_corr,maskfile1,maskfile2,t1_resp,t1_acc,t1_rt,t2_resp,t2_acc,t2_rt,t1_dur,t2_dur,t1mask_soa,t2mask_soa,t1t2_soa
RSVPLG03,km,20251030-120918,1.0.1,20251023-100704,726,Introduction,T1,1,Automatic,main,1,20251030-120951,global,global,750,S,H,A,E,S-A.png,H-E.png,sS,hH,mask-1.png,mask-1.png,h,0,2.6906897999579087,none,-5,0,0.10065519995987415,0.10079840000253171,0.20068929996341467,0.19985299999825656,0.7509213000303134
RSVPLG03,km,20251030-120918,1.0.1,20251023-100704,726,Introduction,T1,1,Automatic,main,2,20251030-120958,global,local,750,S,S,E,A,S-E.png,A-S.png,sS,sS,mask-3.png,mask-2.png,s,1,0.9872398000443354,none,-5,0,0.10094389994628727,0.10007010004483163,0.19998099992517382,0.19898800004739314,0.751948699937202
RSVPLG03,km,20251030-120918,1.0.1,20251023-100704,726,Introduction,T1,1,Automatic,main,3,20251030-121003,global,global,750,H,S,A,A,H-A.png,S-A.png,hH,sS,mask-4.png,mask-4.png,h,1,0.6759947000537068,none,-5,0,0.10092060000170022,0.10122049995698035,0.2000768999569118,0.20215389993973076,0.7491844999603927
RSVPLG03,km,20251030-120918,1.0.1,20251023-100704,726,Introduction,T1,1,Automatic,main,4,20251030-121008,local,local,750,S,S,E,A,E-S.png,A-S.png,sS,sS,mask-2.png,mask-2.png,s,1,0.4735348999965936,none,-5,0,0.10082459996920079,0.10083879996091127,0.20051469991449267,0.20153610000852495,0.7490793999750167
RSVPLG03,km,20251030-120918,1.0.1,20251023-100704,726,Introduction,T1,1,Automatic,main,5,20251030-121013,local,global,750,H,S,A,E,A-H.png,S-E.png,hH,sS,mask-3.png,mask-1.png,h,1,0.701188400038518,none,-5,0,0.09988310001790524,0.09934179997071624,0.2002026999834925,0.20012659998610616,0.751348500023596
RSVPLG03,km,20251030-120918,1.0.1,20251023-100704,726,Introduction,T1,1,Automatic,main,6,20251030-121018,local,local,750,H,S,E,A,E-H.png,A-S.png,hH,sS,mask-4.png,mask-3.png,h,1,2.5546667999587953,none,-5,0,0.10016060003545135,0.099328099982813,0.19872380001470447,0.19933969993144274,0.7504938000347465
RSVPLG03,km,20251030-120918,1.0.1,20251023-100704,726,Introduction,T1,1,Automatic,main,7,20251030-121024,global,global,750,H,H,E,E,H-E.png,H-E.png,hH,hH,mask-4.png,mask-2.png,h,1,0.49784070008900017,none,-5,0,0.10163579997606575,0.10017939994577318,0.20027039991691709,0.20165629999246448,0.750531499972567
RSVPLG03,km,20251030-120918,1.0.1,20251023-100704,726,Introduction,T1,1,Automatic,main,8,20251030-121029,global,local,750,H,S,A,E,H-A.png,E-S.png,hH,sS,mask-3.png,mask-2.png,h,1,0.49208659993018955,none,-5,0,0.10239489993546158,0.09751759993378073,0.20238679996691644,0.1994202999630943,0.7523877000203356
RSVPLG03,km,20251030-120918,1.0.1,20251023-100704,726,Introduction,T1,1,Automatic,main,9,20251030-121034,local,global,750,S,S,A,A,A-S.png,S-A.png,sS,sS,mask-2.png,mask-2.png,s,1,1.3738788000773638,none,-5,0,0.09982390003278852,0.10056120005901903,0.20065819995943457,0.19805540004745126,0.7509143999777734
RSVPLG03,km,20251030-120918,1.0.1,20251023-100704,726,Introduction,T1,1,Automatic,main,10,20251030-121039,local,global,750,H,S,A,A,A-H.png,S-A.png,hH,sS,mask-3.png,mask-2.png,h,1,0.5518572001019493,none,-5,0,0.09968909993767738,0.10017400002107024,0.19942799990531057,0.19910939992405474,0.750866899965331
RSVPLG03,km,20251030-120918,1.0.1,20251023-100704,726,Introduction,T1,1,Automatic,main,11,20251030-121044,global,local,750,S,S,E,E,S-E.png,E-S.png,sS,sS,mask-2.png,mask-3.png,s,1,0.4306984000140801,none,-5,0,0.09952079993672669,0.09907180001027882,0.20011529990006238,0.19991739990655333,0.749463599990122
RSVPLG03,km,20251030-120918,1.0.1,20251023-100704,726,Introduction,T1,1,Automatic,main,12,20251030-121049,global,global,750,S,S,A,A,S-A.png,S-A.png,sS,sS,mask-1.png,mask-4.png,s,1,1.1825670999241993,none,-5,0,0.10036300006322563,0.09968909993767738,0.19937630009371787,0.19952119991648942,0.7498125000856817
RSVPLG03,km,20251030-120918,1.0.1,20251023-100704,726,Introduction,T1,1,Automatic,main,13,20251030-121054,local,local,750,S,S,E,E,E-S.png,E-S.png,sS,sS,mask-2.png,mask-4.png,s,1,0.6055006999522448,none,-5,0,0.09950669994577765,0.10078169999178499,0.20011149998754263,0.20134060003329068,0.7494797999970615
RSVPLG03,km,20251030-120918,1.0.1,20251023-100704,726,Introduction,T1,1,Automatic,main,14,20251030-121059,global,local,750,H,S,A,E,H-A.png,E-S.png,hH,sS,mask-2.png,mask-1.png,h,1,0.37669519998598844,none,-5,0,0.09981739998329431,0.10081169998738915,0.198499699938111,0.1995446999790147,0.7484245999949053
RSVPLG03,km,20251030-120918,1.0.1,20251023-100704,726,Introduction,T1,1,Automatic,main,15,20251030-121104,local,local,750,S,H,E,E,E-S.png,E-H.png,sS,hH,mask-1.png,mask-3.png,s,1,0.6064693999942392,none,-5,0,0.09974419989157468,0.10019889997784048,0.20101219997741282,0.20052249997388572,0.7505896999500692
RSVPLG03,km,20251030-120918,1.0.1,20251023-100704,726,Introduction,T1,1,Automatic,main,16,20251030-121108,local,global,750,S,S,E,A,E-S.png,S-A.png,sS,sS,mask-4.png,mask-2.png,s,1,0.9353790000313893,none,-5,0,0.10042089992202818,0.10044239996932447,0.19896909990347922,0.20131630008108914,0.7489501999225467
RSVPLG03,km,20251030-121137,1.0.1,20251023-100704,726,Practice,T1,1,Automatic,main,1,20251030-121203,local,global,750,S,H,A,A,A-S.png,H-A.png,sS,hH,mask-2.png,mask-3.png,s,1,0.5960651000496,none,-5,0,0.0408375000115484,0.05010299989953637,0.09077320003416389,0.10082439996767789,0.741567200049758
RSVPLG03,km,20251030-121137,1.0.1,20251023-100704,726,Practice,T1,1,Automatic,main,2,20251030-121208,local,local,750,H,H,E,E,E-H.png,E-H.png,hH,hH,mask-4.png,mask-4.png,h,1,0.4338434999808669,none,-5,0,0.050336700049228966,0.04970139998476952,0.10020090010948479,0.09952990000601858,0.7523664000909775
RSVPLG03,km,20251030-121137,1.0.1,20251023-100704,726,Practice,T1,1,Automatic,main,3,20251030-121212,global,local,750,H,H,A,A,H-A.png,A-H.png,hH,hH,mask-2.png,mask-1.png,h,1,0.4831978000001982,none,-5,0,0.05092980002518743,0.04949650005437434,0.10073170007672161,0.0992975999834016,0.7512086000060663
RSVPLG03,km,20251030-121137,1.0.1,20251023-100704,726,Practice,T1,1,Automatic,main,4,20251030-121217,global,local,300,S,H,E,A,S-E.png,A-H.png,sS,hH,mask-2.png,mask-3.png,s,1,0.5039655999280512,none,-5,0,0.049794800113886595,0.04992390004917979,0.10037600004579872,0.099565300042741,0.3003496000310406
RSVPLG03,km,20251030-121137,1.0.1,20251023-100704,726,Practice,T1,1,Automatic,main,5,20251030-121221,local,global,300,S,S,A,E,A-S.png,S-E.png,sS,sS,mask-2.png,mask-2.png,s,1,0.6507669000420719,none,-5,0,0.04964690003544092,0.0487353999633342,0.09983149997424334,0.09853089996613562,0.3013902000384405
RSVPLG03,km,20251030-121137,1.0.1,20251023-100704,726,Practice,T1,1,Automatic,main,6,20251030-121225,global,global,300,H,H,E,E,H-E.png,H-E.png,hH,hH,mask-4.png,mask-1.png,h,1,0.5174454000080004,none,-5,0,0.04968269995879382,0.04935079999268055,0.09952239994890988,0.09911609999835491,0.29959960002452135
RSVPLG03,km,20251030-121137,1.0.1,20251023-100704,726,Practice,T1,1,Automatic,main,7,20251030-121229,global,global,750,S,H,E,A,S-E.png,H-A.png,sS,hH,mask-4.png,mask-1.png,s,1,0.38507139997091144,none,-5,0,0.049431500025093555,0.05065200000535697,0.09829730005003512,0.10006790002807975,0.7492996000219136
RSVPLG03,km,20251030-121137,1.0.1,20251023-100704,726,Practice,T1,1,Automatic,main,8,20251030-121234,global,local,300,S,H,A,E,S-A.png,E-H.png,sS,hH,mask-1.png,mask-3.png,s,1,0.9338864999590442,none,-5,0,0.05000080005265772,0.04940280003938824,0.10152140003629029,0.0993736000964418,0.3018714999780059
RSVPLG03,km,20251030-121137,1.0.1,20251023-100704,726,Practice,T1,1,Automatic,main,9,20251030-121238,global,global,750,H,S,E,E,H-E.png,S-E.png,hH,sS,mask-4.png,mask-2.png,s,0,0.5773598999949172,none,-5,0,0.05065610003657639,0.04961989994626492,0.10037140001077205,0.09931259998120368,0.7514083000132814
RSVPLG03,km,20251030-121137,1.0.1,20251023-100704,726,Practice,T1,1,Automatic,main,10,20251030-121243,global,local,750,S,S,E,E,S-E.png,E-S.png,sS,sS,mask-3.png,mask-2.png,s,1,0.4395126000745222,none,-5,0,0.049738400033675134,0.04997849999926984,0.09951249998994172,0.10153679992072284,0.7499620000598952
RSVPLG03,km,20251030-121137,1.0.1,20251023-100704,726,Practice,T1,1,Automatic,main,11,20251030-121247,local,local,750,S,H,A,E,A-S.png,E-H.png,sS,hH,mask-1.png,mask-4.png,s,1,0.698261099983938,none,-5,0,0.04979969991836697,0.04963220003992319,0.10060349991545081,0.09907880006358027,0.7519168999278918
RSVPLG03,km,20251030-121137,1.0.1,20251023-100704,726,Practice,T1,1,Automatic,main,12,20251030-121252,local,global,750,S,H,A,A,A-S.png,H-A.png,sS,hH,mask-3.png,mask-2.png,h,0,0.816758899949491,none,-5,0,0.050175600103102624,0.048728999914601445,0.09924760006833822,0.09893329988699406,0.7511462001129985
RSVPLG03,km,20251030-121137,1.0.1,20251023-100704,726,Practice,T1,1,Automatic,main,13,20251030-121257,local,local,300,S,S,E,A,E-S.png,A-S.png,sS,sS,mask-2.png,mask-2.png,s,1,0.570541699999012,none,-5,0,0.04949309991206974,0.05046080006286502,0.10039849998429418,0.10025640006642789,0.30148219992406666
RSVPLG03,km,20251030-121137,1.0.1,20251023-100704,726,Practice,T1,1,Automatic,main,14,20251030-121301,local,local,300,H,S,E,A,E-H.png,A-S.png,hH,sS,mask-1.png,mask-3.png,h,1,0.6373552000150084,none,-5,0,0.05134309991262853,0.04932460002601147,0.1015631000045687,0.0999440000159666,0.30076459993142635
RSVPLG03,km,20251030-121137,1.0.1,20251023-100704,726,Practice,T1,1,Automatic,main,15,20251030-121305,global,global,300,S,H,A,A,S-A.png,H-A.png,sS,hH,mask-3.png,mask-2.png,s,1,0.91000889998395,none,-5,0,0.049690399901010096,0.0502463000593707,0.09912079991772771,0.09953620005398989,0.2999231999274343
RSVPLG03,km,20251030-121137,1.0.1,20251023-100704,726,Practice,T1,1,Automatic,main,16,20251030-121309,local,global,300,H,S,E,E,E-H.png,S-E.png,hH,sS,mask-4.png,mask-4.png,h,1,0.7859182000393048,none,-5,0,0.04969249991700053,0.049369100015610456,0.0983474999666214,0.09999980009160936,0.2999670999124646
RSVPLG03,km,20251030-121343,1.0.1,20251023-100704,726,Introduction,Both,1,Automatic,main,1,20251030-121409,local,local,750,H,H,A,A,A-H.png,A-H.png,hH,hH,mask-3.png,mask-3.png,h,1,1.228957699961029,h,1,2.1283451999770477,0.08998809999320656,0.09969780000392348,0.19066680001560599,0.19968180009163916,0.741773399990052
RSVPLG03,km,20251030-121343,1.0.1,20251023-100704,726,Introduction,Both,1,Automatic,main,2,20251030-121417,local,global,750,H,S,E,E,E-H.png,S-E.png,hH,sS,mask-4.png,mask-4.png,h,1,1.9740096000023186,s,1,0.5445069998968393,0.09968800004571676,0.09973940008785576,0.2006433999631554,0.20044510008301586,0.7504093999741599
RSVPLG03,km,20251030-121343,1.0.1,20251023-100704,726,Introduction,Both,1,Automatic,main,3,20251030-121424,local,local,750,S,H,A,A,A-S.png,A-H.png,sS,hH,mask-2.png,mask-1.png,s,1,0.8602696999441832,h,1,0.3190474999137223,0.10067329998128116,0.1007174999685958,0.2031387999886647,0.20142759999725968,0.7499010999454185
RSVPLG03,km,20251030-121343,1.0.1,20251023-100704,726,Introduction,Both,1,Automatic,main,4,20251030-121429,local,global,750,H,S,A,A,A-H.png,S-A.png,hH,sS,mask-4.png,mask-4.png,h,1,0.980055500054732,s,1,0.3034739999566227,0.10014999995473772,0.09977890003938228,0.19956510001793504,0.19901240000035614,0.7510337999556214
RSVPLG03,km,20251030-121343,1.0.1,20251023-100704,726,Introduction,Both,1,Automatic,main,5,20251030-121435,global,local,750,H,S,A,E,H-A.png,E-S.png,hH,sS,mask-2.png,mask-3.png,h,1,0.8214286000002176,s,1,0.3046946000540629,0.09966690000146627,0.10035909991711378,0.2011145999422297,0.20085009990725666,0.7509025000035763
RSVPLG03,km,20251030-121343,1.0.1,20251023-100704,726,Introduction,Both,1,Automatic,main,6,20251030-121441,global,global,750,H,S,A,A,H-A.png,S-A.png,hH,sS,mask-2.png,mask-2.png,h,1,0.4704642000142485,s,1,0.24147129990160465,0.09963059995789081,0.09967470006085932,0.20040890004020184,0.19942120008636266,0.7505310999695212
RSVPLG03,km,20251030-121343,1.0.1,20251023-100704,726,Introduction,Both,1,Automatic,main,7,20251030-121446,local,global,750,H,H,E,E,E-H.png,H-E.png,hH,hH,mask-4.png,mask-4.png,h,1,1.959665600094013,s,0,0.24874970002565533,0.09963589999824762,0.09867219999432564,0.20008800004143268,0.19947710004635155,0.7510229999898002
RSVPLG03,km,20251030-121343,1.0.1,20251023-100704,726,Introduction,Both,1,Automatic,main,8,20251030-121452,global,global,750,H,S,A,E,H-A.png,S-E.png,hH,sS,mask-4.png,mask-1.png,h,1,0.9954576999880373,s,1,0.23961790010798723,0.10085789998993278,0.1005392000079155,0.20090630010236055,0.20030500006396323,0.7502183000324294
RSVPLG03,km,20251030-121343,1.0.1,20251023-100704,726,Introduction,Both,1,Automatic,main,9,20251030-121458,local,global,750,S,S,E,E,E-S.png,S-E.png,sS,sS,mask-3.png,mask-1.png,s,1,1.5343427999177948,s,1,0.2871498999884352,0.09989720000885427,0.10082760010845959,0.1997929000062868,0.2007170000579208,0.7503245999105275
RSVPLG03,km,20251030-121343,1.0.1,20251023-100704,726,Introduction,Both,1,Automatic,main,10,20251030-121504,global,local,750,H,H,A,A,H-A.png,A-H.png,hH,hH,mask-4.png,mask-2.png,h,1,1.4019097000127658,s,0,0.254198299953714,0.09823649993631989,0.1006241999566555,0.1997560999589041,0.20125899999402463,0.7495585000142455
RSVPLG03,km,20251030-121343,1.0.1,20251023-100704,726,Introduction,Both,1,Automatic,main,11,20251030-121510,local,local,750,S,S,A,A,A-S.png,A-S.png,sS,sS,mask-4.png,mask-2.png,s,1,0.8322773000691086,s,1,0.2867392998887226,0.1006949000293389,0.09872389992233366,0.20053710008505732,0.2006161999888718,0.7516778000863269
RSVPLG03,km,20251030-121343,1.0.1,20251023-100704,726,Introduction,Both,1,Automatic,main,12,20251030-121516,global,global,750,H,S,A,A,H-A.png,S-A.png,hH,sS,mask-2.png,mask-4.png,h,1,0.6555538999382406,s,1,0.17254930001217872,0.09955649997573346,0.0982062000548467,0.19956780003849417,0.197969900094904,0.7530824999557808
RSVPLG03,km,20251030-121343,1.0.1,20251023-100704,726,Introduction,Both,1,Automatic,main,13,20251030-121521,global,local,750,S,S,A,A,S-A.png,A-S.png,sS,sS,mask-1.png,mask-2.png,h,0,0.5526318999473006,s,1,0.19074940006248653,0.10103730007540435,0.09983629989437759,0.19983860000502318,0.19908880000002682,0.7519394000992179
RSVPLG03,km,20251030-121343,1.0.1,20251023-100704,726,Introduction,Both,1,Automatic,main,14,20251030-121526,global,global,750,H,S,A,A,H-A.png,S-A.png,hH,sS,mask-2.png,mask-4.png,h,1,0.6153434999287128,s,1,0.2268582999240607,0.10065789998043329,0.09970010002143681,0.2015605999622494,0.20017540000844747,0.7519138999050483
RSVPLG03,km,20251030-121343,1.0.1,20251023-100704,726,Introduction,Both,1,Automatic,main,15,20251030-121531,local,local,750,S,H,A,A,A-S.png,A-H.png,sS,hH,mask-4.png,mask-2.png,h,0,0.8402170999906957,s,0,0.2685441999929026,0.10103020002134144,0.09968789992853999,0.20083580003120005,0.20112749992404133,0.750876700039953
RSVPLG03,km,20251030-121343,1.0.1,20251023-100704,726,Introduction,Both,1,Automatic,main,16,20251030-121537,global,local,750,H,H,E,E,H-E.png,E-H.png,hH,hH,mask-3.png,mask-4.png,h,1,2.2171578999841586,h,1,0.33585389994550496,0.10071359993889928,0.10066029999870807,0.1998459999449551,0.19992009992711246,0.7506739000091329
RSVPLG03,km,20251030-121607,1.0.1,20251023-100704,726,Practice,Both,1,Automatic,main,1,20251030-121640,local,local,300,H,H,A,A,A-H.png,A-H.png,hH,hH,mask-3.png,mask-1.png,h,1,1.8104368000058457,s,0,0.10988670005463064,0.04637610004283488,0.04959629999939352,0.09573280008044094,0.10122389998286963,0.2956472000805661
RSVPLG03,km,20251030-121607,1.0.1,20251023-100704,726,Practice,Both,1,Automatic,main,2,20251030-121646,global,local,750,S,S,E,E,S-E.png,E-S.png,sS,sS,mask-4.png,mask-3.png,s,1,0.7009208999807015,s,1,0.14220560004469007,0.04896829999051988,0.04915070009883493,0.0993829999351874,0.09941290004644543,0.748632499948144
RSVPLG03,km,20251030-121607,1.0.1,20251023-100704,726,Practice,Both,1,Automatic,main,3,20251030-121651,global,global,300,S,H,E,A,S-E.png,H-A.png,sS,hH,mask-3.png,mask-1.png,s,1,0.7692270999541506,h,1,0.1762437999714166,0.05070780008099973,0.05156800011172891,0.10054010001476854,0.10022240004036576,0.2994087999686599
RSVPLG03,km,20251030-121607,1.0.1,20251023-100704,726,Practice,Both,1,Automatic,main,4,20251030-121655,local,local,750,H,S,E,A,E-H.png,A-S.png,hH,sS,mask-1.png,mask-2.png,h,1,0.43942449998576194,s,1,0.0462480999995023,0.049761699978262186,0.04844399995636195,0.10047439998015761,0.09861460002139211,0.748776699998416
RSVPLG03,km,20251030-121607,1.0.1,20251023-100704,726,Practice,Both,1,Automatic,main,5,20251030-121700,global,local,300,H,H,A,A,H-A.png,A-H.png,hH,hH,mask-1.png,mask-3.png,h,1,1.0077974000014365,h,1,0.20640599995385855,0.04934220004361123,0.049952900037169456,0.10101410001516342,0.10076940001454204,0.2989937000675127
RSVPLG03,km,20251030-121607,1.0.1,20251023-100704,726,Practice,Both,1,Automatic,main,6,20251030-121705,global,global,750,S,S,A,E,S-A.png,S-E.png,sS,sS,mask-4.png,mask-4.png,s,1,0.6934702999424189,h,0,0.3321063999319449,0.049075899994932115,0.04993600002489984,0.09930419991724193,0.09984549996443093,0.7482501999475062
RSVPLG03,km,20251030-121607,1.0.1,20251023-100704,726,Practice,Both,1,Automatic,main,7,20251030-121710,local,global,300,S,S,A,E,A-S.png,S-E.png,sS,sS,mask-3.png,mask-3.png,h,0,0.535061200032942,s,1,0.12714869994670153,0.04888409993145615,0.0491909000556916,0.09903949999716133,0.09817780007142574,0.29942199995275587
RSVPLG03,km,20251030-121607,1.0.1,20251023-100704,726,Practice,Both,1,Automatic,main,8,20251030-121715,local,global,750,S,S,E,A,E-S.png,S-A.png,sS,sS,mask-1.png,mask-4.png,s,1,0.8123861000640318,s,1,0.2050854000262916,0.049912799964658916,0.049867300083860755,0.09986799990292639,0.09981889999471605,0.7478653999278322
RSVPLG03,km,20251030-121607,1.0.1,20251023-100704,726,Practice,Both,1,Automatic,main,9,20251030-121720,global,local,300,H,S,A,A,H-A.png,A-S.png,hH,sS,mask-3.png,mask-3.png,h,1,0.6419474999420345,h,0,0.6868026000447571,0.04967800003942102,0.05139860010240227,0.09971980005502701,0.10115490003954619,0.29893469996750355
RSVPLG03,km,20251030-121607,1.0.1,20251023-100704,726,Practice,Both,1,Automatic,main,10,20251030-121725,global,global,300,S,S,A,A,S-A.png,S-A.png,sS,sS,mask-2.png,mask-2.png,s,1,0.43667789991013706,s,1,0.22303049999754876,0.04997449996881187,0.04999599989969283,0.09998210007324815,0.09999589994549751,0.3004168000770733
RSVPLG03,km,20251030-121607,1.0.1,20251023-100704,726,Practice,Both,1,Automatic,main,11,20251030-121730,local,global,300,H,H,A,E,A-H.png,H-E.png,hH,hH,mask-3.png,mask-1.png,h,1,0.8364367999602109,s,0,0.15880420000758022,0.04717290005646646,0.0493939999723807,0.09895630006212741,0.10050499998033047,0.29862970008980483
RSVPLG03,km,20251030-121607,1.0.1,20251023-100704,726,Practice,Both,1,Automatic,main,12,20251030-121734,local,local,300,S,H,A,A,A-S.png,A-H.png,sS,hH,mask-1.png,mask-1.png,s,1,0.9983779001049697,s,0,0.15934090001974255,0.049735099892131984,0.049323200015351176,0.09875879995524883,0.09846350003499538,0.2989577999105677
RSVPLG03,km,20251030-121607,1.0.1,20251023-100704,726,Practice,Both,1,Automatic,main,13,20251030-121739,global,global,750,H,H,A,E,H-A.png,H-E.png,hH,hH,mask-3.png,mask-3.png,h,1,0.6380100999958813,h,1,0.10952910000924021,0.049828600022010505,0.04868219990748912,0.09999080002307892,0.09982809994835407,0.7501763000618666
RSVPLG03,km,20251030-121607,1.0.1,20251023-100704,726,Practice,Both,1,Automatic,main,14,20251030-121744,global,local,750,S,S,A,E,S-A.png,E-S.png,sS,sS,mask-1.png,mask-2.png,s,1,0.4954114999854937,s,1,0.19178550003562123,0.049377899966202676,0.05140390002634376,0.1021938999183476,0.10087309998925775,0.7485892999684438
RSVPLG03,km,20251030-121607,1.0.1,20251023-100704,726,Practice,Both,1,Automatic,main,15,20251030-121749,local,global,750,H,S,E,A,E-H.png,S-A.png,hH,sS,mask-3.png,mask-4.png,h,1,1.3660756000317633,s,1,0.12618749996181577,0.04988710000179708,0.05084609996993095,0.09857369994278997,0.1009164999704808,0.7473513999721035
RSVPLG03,km,20251030-121607,1.0.1,20251023-100704,726,Practice,Both,1,Automatic,main,16,20251030-121755,local,local,750,S,S,A,E,A-S.png,E-S.png,sS,sS,mask-3.png,mask-3.png,s,1,0.6366032999940217,s,1,0.25547550001647323,0.04934939998202026,0.05046349996700883,0.09912829997483641,0.10106330004055053,0.7481204000068828
RSVPLG03,km,20251030-121904,1.0.1,20251023-100704,726,Experiment,Both,1,Automatic,warmup,1,20251030-121944,local,global,300,S,H,A,E,A-S.png,H-E.png,sS,hH,mask-4.png,mask-1.png,h,0,1.778566800057888,s,0,0.04932589991949499,0.040946600027382374,0.051375600043684244,0.09169679996557534,0.10160169994924217,0.2919368000002578
RSVPLG03,km,20251030-121904,1.0.1,20251023-100704,726,Experiment,Both,1,Automatic,warmup,2,20251030-121949,local,local,300,S,S,A,A,A-S.png,A-S.png,sS,sS,mask-4.png,mask-4.png,s,1,0.6558161999564618,h,0,0.06375560001470149,0.04981630004476756,0.04953780001960695,0.1005390000063926,0.0990319000557065,0.3001175000099465
RSVPLG03,km,20251030-121904,1.0.1,20251023-100704,726,Experiment,Both,1,Automatic,warmup,3,20251030-121954,local,global,750,S,H,A,E,A-S.png,H-E.png,sS,hH,mask-3.png,mask-1.png,s,1,1.4150345000671223,h,1,0.04639090003911406,0.04829559999052435,0.049801599932834506,0.10027950000949204,0.09997570002451539,0.749805900035426
RSVPLG03,km,20251030-121904,1.0.1,20251023-100704,726,Experiment,Both,1,Automatic,warmup,4,20251030-122000,local,local,750,H,S,A,A,A-H.png,A-S.png,hH,sS,mask-4.png,mask-3.png,h,1,0.8047730000689626,s,1,0.14390130003448576,0.0504605999449268,0.04869669990148395,0.10215159994550049,0.10052410000935197,0.7533775999909267
RSVPLG03,km,20251030-121904,1.0.1,20251023-100704,726,Experiment,Both,1,Automatic,warmup,5,20251030-122005,global,local,750,S,H,A,A,S-A.png,A-H.png,sS,hH,mask-1.png,mask-3.png,s,1,0.6288155999500304,h,1,0.1278842999599874,0.04980089992750436,0.04922300006728619,0.1006985999410972,0.09844020009040833,0.7520996999228373
RSVPLG03,km,20251030-121904,1.0.1,20251023-100704,726,Experiment,Both,1,Automatic,main,6,20251030-122010,global,global,300,S,H,E,A,S-E.png,H-A.png,sS,hH,mask-4.png,mask-4.png,s,1,0.5736748999916017,h,1,0.222981599974446,0.05073020001873374,0.050689300056546926,0.10048480005934834,0.10036140005104244,0.29999440000392497
RSVPLG03,km,20251030-121904,1.0.1,20251023-100704,726,Experiment,Both,1,Automatic,main,7,20251030-122014,local,global,300,S,H,E,E,E-S.png,H-E.png,sS,hH,mask-4.png,mask-2.png,s,1,0.454310099943541,h,1,0.1425730000482872,0.04953299998305738,0.048527600010856986,0.10103489994071424,0.09922069997992367,0.30189929995685816
RSVPLG03,km,20251030-121904,1.0.1,20251023-100704,726,Experiment,Both,1,Automatic,main,8,20251030-122019,global,local,300,S,S,A,A,S-A.png,A-S.png,sS,sS,mask-2.png,mask-4.png,s,1,0.5514315000036731,h,0,0.399526400025934,0.04975249990820885,0.049829600029625,0.09852409991435707,0.09968059998936951,0.300158099969849
RSVPLG03,km,20251030-121904,1.0.1,20251023-100704,726,Experiment,Both,1,Automatic,main,9,20251030-122023,local,global,750,H,H,E,E,E-H.png,H-E.png,hH,hH,mask-4.png,mask-2.png,s,0,0.6042488999664783,h,1,0.09303930005989969,0.05079969996586442,0.049702399992384017,0.10057449992746115,0.09982430003583431,0.7526934999041259
RSVPLG03,km,20251030-121904,1.0.1,20251023-100704,726,Experiment,Both,1,Automatic,main,10,20251030-122028,local,global,300,H,S,E,E,E-H.png,S-E.png,hH,sS,mask-1.png,mask-3.png,s,0,0.7815203000791371,h,0,0.17477559996768832,0.05093639995902777,0.05070809996686876,0.10074130003340542,0.10039270005654544,0.30026839999482036
RSVPLG03,km,20251030-121904,1.0.1,20251023-100704,726,Experiment,Both,1,Automatic,main,11,20251030-122033,global,global,300,S,S,A,A,S-A.png,S-A.png,sS,sS,mask-1.png,mask-2.png,s,1,0.962377900024876,s,1,0.15848330000881106,0.04968890000600368,0.04978010000195354,0.10151930002029985,0.100611999980174,0.30112089996691793
RSVPLG03,km,20251030-121904,1.0.1,20251023-100704,726,Experiment,Both,1,Automatic,main,12,20251030-122038,local,global,300,S,H,A,E,A-S.png,H-E.png,sS,hH,mask-3.png,mask-3.png,h,0,0.5031691000331193,h,1,0.1420255999546498,0.0492964000441134,0.050511699984781444,0.09997320000547916,0.1008386000758037,0.29897230002097785
RSVPLG03,km,20251030-121904,1.0.1,20251023-100704,726,Experiment,Both,1,Automatic,main,13,20251030-122042,local,local,300,H,H,A,E,A-H.png,E-H.png,hH,hH,mask-1.png,mask-2.png,h,1,0.5359565000981092,s,0,0.25232289999257773,0.05018090002704412,0.050569700077176094,0.1022703000344336,0.10021699999924749,0.3012580999638885
RSVPLG03,km,20251030-121904,1.0.1,20251023-100704,726,Experiment,Both,1,Automatic,main,14,20251030-122047,global,global,750,S,H,E,E,S-E.png,H-E.png,sS,hH,mask-3.png,mask-3.png,s,1,0.4470488999504596,h,1,0.04285710002295673,0.050696599995717406,0.05084259994328022,0.10038859990891069,0.10083899996243417,0.7515412999782711
RSVPLG03,km,20251030-121904,1.0.1,20251023-100704,726,Experiment,Both,1,Automatic,main,15,20251030-122052,global,global,300,S,H,E,E,S-E.png,H-E.png,sS,hH,mask-3.png,mask-3.png,h,0,1.447526999982074,h,1,0.09439400001429021,0.04978750005830079,0.05018000002019107,0.09986180008854717,0.10180810000747442,0.30021190003026277
RSVPLG03,km,20251030-121904,1.0.1,20251023-100704,726,Experiment,Both,1,Automatic,main,16,20251030-122057,global,local,750,H,H,A,A,H-A.png,A-H.png,hH,hH,mask-4.png,mask-4.png,h,1,0.663551599951461,h,1,0.22247209993656725,0.04967069998383522,0.05182529997546226,0.0986517999554053,0.10168640001211315,0.7499817999778315
RSVPLG03,km,20251030-121904,1.0.1,20251023-100704,726,Experiment,Both,1,Automatic,main,17,20251030-122102,local,global,750,S,H,A,E,A-S.png,H-E.png,sS,hH,mask-1.png,mask-2.png,s,1,1.593986300053075,h,1,0.03050330001860857,0.05065739993005991,0.049494200036861,0.10008579993154854,0.10156099998857826,0.7512641999637708
RSVPLG03,km,20251030-121904,1.0.1,20251023-100704,726,Experiment,Both,1,Automatic,main,18,20251030-122108,global,global,750,S,S,A,A,S-A.png,S-A.png,sS,sS,mask-1.png,mask-3.png,s,1,0.5469895000569522,h,0,0.07802249991800636,0.04923819995019585,0.05089169996790588,0.09952579997479916,0.10083679994568229,0.7518005999736488
RSVPLG03,km,20251030-121904,1.0.1,20251023-100704,726,Experiment,Both,1,Automatic,main,19,20251030-122113,local,local,750,S,H,A,A,A-S.png,A-H.png,sS,hH,mask-1.png,mask-2.png,h,0,0.8194096999941394,h,1,0.10954959993250668,0.05089010007213801,0.049391199951060116,0.10047890001442283,0.09972239995840937,0.7515818000538275
RSVPLG03,km,20251030-121904,1.0.1,20251023-100704,726,Experiment,Both,1,Automatic,main,20,20251030-122118,local,local,300,S,H,E,A,E-S.png,A-H.png,sS,hH,mask-3.png,mask-1.png,h,0,0.9948019000003114,s,0,0.06426570005714893,0.05047409993130714,0.048554199980571866,0.10094729997217655,0.10082410008180887,0.30157569993752986
RSVPLG03,km,20251030-121904,1.0.1,20251023-100704,726,Experiment,Both,1,Automatic,main,21,20251030-122122,local,global,300,S,H,E,A,E-S.png,H-A.png,sS,hH,mask-1.png,mask-3.png,s,1,2.296614299993962,h,1,2.472698000026867,0.05083279998507351,0.049588299938477576,0.10010329994838685,0.10000109998509288,0.3009561999933794
RSVPLG03,km,20251030-121904,1.0.1,20251023-100704,726,Experiment,Both,1,Automatic,main,22,20251030-122129,local,global,300,H,S,A,A,A-H.png,S-A.png,hH,sS,mask-1.png,mask-3.png,h,1,1.8995266000274569,s,1,0.013545499998144805,0.04954799998085946,0.05056480003986508,0.10019039991311729,0.10019789997022599,0.29972749995067716
RSVPLG03,km,20251030-121904,1.0.1,20251023-100704,726,Experiment,Both,1,Automatic,main,23,20251030-122134,local,local,750,H,S,A,E,A-H.png,E-S.png,hH,sS,mask-3.png,mask-1.png,h,1,0.6528035000665113,s,1,0.07757190009579062,0.05157790007069707,0.05300399998668581,0.10113770002499223,0.09968639991711825,0.7525311000645161
RSVPLG03,km,20251030-121904,1.0.1,20251023-100704,726,Experiment,Both,1,Automatic,main,24,20251030-122139,local,global,750,S,H,A,A,A-S.png,H-A.png,sS,hH,mask-3.png,mask-4.png,s,1,0.7346820998936892,h,1,0.06156780000310391,0.05167810001876205,0.05168599996250123,0.1018544000107795,0.1014807999599725,0.7513497000327334
RSVPLG03,km,20251030-121904,1.0.1,20251023-100704,726,Experiment,Both,1,Automatic,main,25,20251030-122144,local,local,300,H,S,E,A,E-H.png,A-S.png,hH,sS,mask-3.png,mask-3.png,h,1,1.5335832999553531,s,1,0.0628160999622196,0.0500593000324443,0.049889299902133644,0.10013219993561506,0.099873699946329,0.30073310004081577
RSVPLG03,km,20251030-121904,1.0.1,20251023-100704,726,Experiment,Both,1,Automatic,main,26,20251030-122154,local,local,300,S,H,E,E,E-S.png,E-H.png,sS,hH,mask-3.png,mask-4.png,s,1,0.9970163999823853,h,1,1.092861899989657,0.050581500050611794,0.05054520000703633,0.09921020001638681,0.10111709998454899,0.2998692000983283
RSVPLG03,km,20251030-121904,1.0.1,20251023-100704,726,Experiment,Both,1,Automatic,main,27,20251030-122159,global,local,750,H,S,A,A,H-A.png,A-S.png,hH,sS,mask-3.png,mask-1.png,h,1,1.1114422000246122,s,1,0.0788753000088036,0.050650999997742474,0.05037109996192157,0.10063620004802942,0.10043999995104969,0.7508785000536591
RSVPLG03,km,20251030-121904,1.0.1,20251023-100704,726,Experiment,Both,1,Automatic,main,28,20251030-122205,global,local,300,H,S,E,E,H-E.png,E-S.png,hH,sS,mask-4.png,mask-3.png,h,1,0.8277109999908134,s,1,0.07863479992374778,0.05078679998405278,0.05050200002733618,0.10155809996649623,0.10147919994778931,0.300992300035432
RSVPLG03,km,20251030-121904,1.0.1,20251023-100704,726,Experiment,Both,1,Automatic,main,29,20251030-122209,global,local,300,S,H,E,E,S-E.png,E-H.png,sS,hH,mask-4.png,mask-4.png,h,0,0.6875771000050008,s,0,0.8475699999835342,0.049936800030991435,0.04888489993754774,0.10171080008149147,0.09964349993970245,0.3014574000844732
RSVPLG03,km,20251030-121904,1.0.1,20251023-100704,726,Experiment,Both,1,Automatic,main,30,20251030-122214,global,local,750,H,S,E,E,H-E.png,E-S.png,hH,sS,mask-4.png,mask-1.png,h,1,1.4518971000798047,s,1,1.579634000081569,0.04917150002438575,0.05181910004466772,0.0998954001115635,0.1001962999580428,0.7495479000499472
RSVPLG03,km,20251030-121904,1.0.1,20251023-100704,726,Experiment,Both,1,Automatic,main,31,20251030-122219,local,global,300,S,H,E,A,E-S.png,H-A.png,sS,hH,mask-1.png,mask-3.png,s,1,0.7861652999417856,h,1,0.01629639999009669,0.04966969997622073,0.04964160011149943,0.09985329990740865,0.10001860000193119,0.29938459990080446
RSVPLG03,km,20251030-121904,1.0.1,20251023-100704,726,Experiment,Both,1,Automatic,main,32,20251030-122224,local,local,750,H,H,E,E,E-H.png,E-H.png,hH,hH,mask-3.png,mask-1.png,h,1,0.5375801000045612,s,0,0.030533800018019974,0.0512936000013724,0.04980829998385161,0.101940399967134,0.0996000999584794,0.7528160000219941
RSVPLG03,km,20251030-121904,1.0.1,20251023-100704,726,Experiment,Both,1,Automatic,main,33,20251030-122229,local,local,750,H,S,E,E,E-H.png,E-S.png,hH,sS,mask-3.png,mask-3.png,h,1,1.2502734999870881,s,1,0.028992600040510297,0.050671900040470064,0.0516780000180006,0.10022889997344464,0.1012905000243336,0.7506743000121787
RSVPLG03,km,20251030-121904,1.0.1,20251023-100704,726,Experiment,Both,1,Automatic,main,34,20251030-122234,global,local,750,S,H,E,A,S-E.png,A-H.png,sS,hH,mask-1.png,mask-1.png,s,1,0.8561374000273645,h,1,0.044667600071989,0.049671599990688264,0.049997500027529895,0.09947170002851635,0.09982470003888011,0.7500393999507651
RSVPLG03,km,20251030-121904,1.0.1,20251023-100704,726,Experiment,Both,1,Automatic,main,35,20251030-122239,local,local,300,H,H,A,A,A-H.png,A-H.png,hH,hH,mask-3.png,mask-4.png,h,1,0.767416900023818,s,0,0.9119021999649704,0.04952700005378574,0.050599300069734454,0.09981679997872561,0.10035359999164939,0.2999800000106916
RSVPLG03,km,20251030-121904,1.0.1,20251023-100704,726,Experiment,Both,1,Automatic,main,36,20251030-122244,global,global,300,H,S,E,A,H-E.png,S-A.png,hH,sS,mask-4.png,mask-2.png,h,1,0.7481276999460533,s,1,0.014463100000284612,0.05001210002228618,0.049555900041013956,0.1002032000105828,0.09991019999142736,0.30053749994840473
RSVPLG03,km,20251030-121904,1.0.1,20251023-100704,726,Experiment,Both,1,Automatic,main,37,20251030-122248,local,global,300,H,H,A,A,A-H.png,H-A.png,hH,hH,mask-4.png,mask-3.png,s,0,0.7359409000491723,h,1,0.045109599945135415,0.05042450001928955,0.04930010007228702,0.10082250006962568,0.09937150008045137,0.30192300002090633
RSVPLG03,km,20251030-121904,1.0.1,20251023-100704,726,Experiment,Both,1,Automatic,main,38,20251030-122253,global,global,300,H,S,E,A,H-E.png,S-A.png,hH,sS,mask-1.png,mask-3.png,h,1,0.44802560005337,s,1,0.21053140005096793,0.05050639994442463,0.04938960005529225,0.10017769993282855,0.10019869997631758,0.3001109999604523
RSVPLG03,km,20251030-121904,1.0.1,20251023-100704,726,Experiment,Both,1,Automatic,main,39,20251030-122257,global,global,750,S,S,E,E,S-E.png,S-E.png,sS,sS,mask-3.png,mask-2.png,s,1,0.4541078000329435,s,1,0.14154779992531985,0.05034479999449104,0.050616599968634546,0.10046410001814365,0.10031489992979914,0.7512929000658914
RSVPLG03,km,20251030-121904,1.0.1,20251023-100704,726,Experiment,Both,1,Automatic,main,40,20251030-122302,local,global,300,H,H,A,E,A-H.png,H-E.png,hH,hH,mask-3.png,mask-4.png,h,1,2.343545399955474,s,0,0.08001979999244213,0.04952589992899448,0.049181199981831014,0.09960259997751564,0.09950190002564341,0.30121399997733533
RSVPLG03,km,20251030-121904,1.0.1,20251023-100704,726,Experiment,Both,1,Automatic,main,41,20251030-122308,global,local,300,H,S,E,A,H-E.png,A-S.png,hH,sS,mask-4.png,mask-4.png,h,1,0.6509070999454707,s,1,0.015076500014401972,0.05044240003917366,0.0484282000688836,0.1000791999977082,0.09853070008102804,0.30197529995348305
RSVPLG03,km,20251030-121904,1.0.1,20251023-100704,726,Experiment,Both,1,Automatic,main,42,20251030-122313,local,local,750,H,H,A,A,A-H.png,A-H.png,hH,hH,mask-1.png,mask-4.png,h,1,0.5953119000187144,h,1,0.11251719994470477,0.051402300014160573,0.0501755999866873,0.10043320001568645,0.0998612999683246,0.7525635999627411
RSVPLG03,km,20251030-121904,1.0.1,20251023-100704,726,Experiment,Both,1,Automatic,main,43,20251030-122318,global,local,300,H,H,A,A,H-A.png,A-H.png,hH,hH,mask-2.png,mask-2.png,h,1,0.5834590999875218,s,0,0.04585580003913492,0.05041249992791563,0.04851390002295375,0.10178169992286712,0.09895340004004538,0.301799799897708
RSVPLG03,km,20251030-121904,1.0.1,20251023-100704,726,Experiment,Both,1,Automatic,main,44,20251030-122322,global,local,750,S,S,E,E,S-E.png,E-S.png,sS,sS,mask-1.png,mask-3.png,s,1,0.5364412000635639,s,1,0.1419326999457553,0.05070050002541393,0.05142960010562092,0.10047800000756979,0.10177740000654012,0.7502880999818444
RSVPLG03,km,20251030-121904,1.0.1,20251023-100704,726,Experiment,Both,1,Automatic,main,45,20251030-122327,global,local,300,S,H,E,E,S-E.png,E-H.png,sS,hH,mask-2.png,mask-2.png,s,1,0.43662950000725687,s,0,0.22429569996893406,0.04877409990876913,0.05067820008844137,0.09865699999500066,0.10022030002437532,0.29990699992049485
RSVPLG03,km,20251030-121904,1.0.1,20251023-100704,726,Experiment,Both,1,Automatic,main,46,20251030-122331,global,local,750,S,S,A,A,S-A.png,A-S.png,sS,sS,mask-3.png,mask-2.png,s,1,0.453666300047189,h,0,0.11171219998504966,0.050448300084099174,0.04888090002350509,0.10022960009519011,0.09868360008113086,0.7527982000028715
RSVPLG03,km,20251030-121904,1.0.1,20251023-100704,726,Experiment,Both,1,Automatic,main,47,20251030-122336,local,local,750,S,H,E,A,E-S.png,A-H.png,sS,hH,mask-3.png,mask-1.png,s,1,0.4889056000392884,h,1,0.04233459988608956,0.04841010004747659,0.048702599946409464,0.09896800003480166,0.09839109994936734,0.75214340002276
RSVPLG03,km,20251030-121904,1.0.1,20251023-100704,726,Experiment,Both,1,Automatic,main,48,20251030-122341,local,global,300,S,H,E,A,E-S.png,H-A.png,sS,hH,mask-2.png,mask-2.png,s,1,0.5848035000963137,h,1,0.03098039992619306,0.048532300046645105,0.04837490001227707,0.09839820000343025,0.0988989999750629,0.300740500097163
RSVPLG03,km,20251030-121904,1.0.1,20251023-100704,726,Experiment,Both,1,Automatic,main,49,20251030-122345,local,global,750,S,H,A,A,A-S.png,H-A.png,sS,hH,mask-1.png,mask-1.png,s,1,0.5035350000252947,h,1,0.06405529996845871,0.04847369994968176,0.050585399963892996,0.09900980000384152,0.10075509990565479,0.750158500042744
RSVPLG03,km,20251030-121904,1.0.1,20251023-100704,726,Experiment,Both,1,Automatic,main,50,20251030-122350,global,local,750,H,H,A,E,H-A.png,E-H.png,hH,hH,mask-4.png,mask-1.png,h,1,0.5057736999588087,s,0,0.6819152999669313,0.04932809993624687,0.05077839992009103,0.09798419999424368,0.10066039999946952,0.7499145000474527
RSVPLG03,km,20251030-121904,1.0.1,20251023-100704,726,Experiment,Both,1,Automatic,main,51,20251030-122404,global,local,300,H,H,E,E,H-E.png,E-H.png,hH,hH,mask-2.png,mask-2.png,h,1,1.214191099978052,s,0,1.021813099971041,0.04968419997021556,0.05083530000410974,0.0987440999597311,0.09994490002281964,0.2995299999602139
RSVPLG03,km,20251030-121904,1.0.1,20251023-100704,726,Experiment,Both,1,Automatic,main,52,20251030-122410,local,local,750,S,S,A,A,A-S.png,A-S.png,sS,sS,mask-1.png,mask-3.png,s,1,0.4454989000223577,s,1,0.12832749995868653,0.0504868000280112,0.04972280003130436,0.10140909999608994,0.0995350000448525,0.7513998999493197
RSVPLG03,km,20251030-121904,1.0.1,20251023-100704,726,Experiment,Both,1,Automatic,main,53,20251030-122415,local,global,750,H,H,A,A,A-H.png,H-A.png,hH,hH,mask-3.png,mask-4.png,h,1,0.7299457000335678,s,0,0.04709880007430911,0.05070850008632988,0.04972100001759827,0.09948980004992336,0.09964709996711463,0.7514319000765681
RSVPLG03,km,20251030-121904,1.0.1,20251023-100704,726,Experiment,Both,1,Automatic,main,54,20251030-122420,global,local,300,S,S,A,A,S-A.png,A-S.png,sS,sS,mask-3.png,mask-2.png,s,1,0.4151603999780491,h,0,0.18755839997902513,0.051676100003533065,0.0467585000442341,0.10154740000143647,0.09659410000313073,0.30464230000507087
RSVPLG03,km,20251030-121904,1.0.1,20251023-100704,726,Experiment,Both,1,Automatic,main,55,20251030-122424,local,local,300,H,H,E,E,E-H.png,E-H.png,hH,hH,mask-1.png,mask-1.png,s,0,0.4599426999920979,h,1,0.11111189995426685,0.04970079998020083,0.05070219992194325,0.10054430004674941,0.10052779992111027,0.30009620008058846
RSVPLG03,km,20251030-121904,1.0.1,20251023-100704,726,Experiment,Both,1,Automatic,main,56,20251030-122429,global,global,750,H,H,E,E,H-E.png,H-E.png,hH,hH,mask-3.png,mask-1.png,h,1,0.4154225999955088,h,1,0.1425437000580132,0.049673000001348555,0.05072180007118732,0.10047199996188283,0.100515800062567,0.7517441998934373
RSVPLG03,km,20251030-121904,1.0.1,20251023-100704,726,Experiment,Both,1,Automatic,main,57,20251030-122433,local,local,300,S,S,E,A,E-S.png,A-S.png,sS,sS,mask-4.png,mask-2.png,s,1,1.0619634999893606,h,0,0.030974799999967217,0.047894000075757504,0.050400600070133805,0.09772050008177757,0.10010519996285439,0.29726030002348125
RSVPLG03,km,20251030-121904,1.0.1,20251023-100704,726,Experiment,Both,1,Automatic,main,58,20251030-122438,global,global,300,H,S,E,A,H-E.png,S-A.png,hH,sS,mask-4.png,mask-1.png,h,1,0.5184241998940706,s,1,0.140940299956128,0.05029029992874712,0.04923200001940131,0.1001531999791041,0.09964659996330738,0.3005697999615222
RSVPLG03,km,20251030-121904,1.0.1,20251023-100704,726,Experiment,Both,1,Automatic,main,59,20251030-122442,local,global,300,H,H,E,A,E-H.png,H-A.png,hH,hH,mask-3.png,mask-2.png,h,1,0.42124739999417216,s,0,0.07932999997865409,0.04938290000427514,0.04939469997771084,0.09997089998796582,0.09890260000247508,0.3004048999864608
RSVPLG03,km,20251030-121904,1.0.1,20251023-100704,726,Experiment,Both,1,Automatic,main,60,20251030-122447,local,local,300,H,S,E,E,E-H.png,E-S.png,hH,sS,mask-4.png,mask-4.png,s,0,0.6392807000083849,h,0,0.07679850002750754,0.05070749996230006,0.051666000043042004,0.10040439991280437,0.10039759997744113,0.3006725999293849
RSVPLG03,km,20251030-121904,1.0.1,20251023-100704,726,Experiment,Both,1,Automatic,main,61,20251030-122451,global,global,750,H,S,E,A,H-E.png,S-A.png,hH,sS,mask-1.png,mask-3.png,h,1,0.40229090000502765,s,1,0.01603100006468594,0.050947300042025745,0.0497046000091359,0.10027599998284131,0.10048769996501505,0.7527285000542179
RSVPLG03,km,20251030-121904,1.0.1,20251023-100704,726,Experiment,Both,1,Automatic,main,62,20251030-122456,local,global,750,H,H,E,E,E-H.png,H-E.png,hH,hH,mask-2.png,mask-1.png,h,1,0.438683099928312,s,0,0.567135899909772,0.051834700047038496,0.05075529997702688,0.1006131999893114,0.09979729994665831,0.752401200006716
RSVPLG03,km,20251030-121904,1.0.1,20251023-100704,726,Experiment,Both,1,Automatic,main,63,20251030-122500,local,local,300,H,S,A,E,A-H.png,E-S.png,hH,sS,mask-2.png,mask-4.png,h,1,0.8485735000576824,s,1,0.09634059993550181,0.04982509999535978,0.05074790003709495,0.09971809992566705,0.0998135000700131,0.29890059994067997
RSVPLG03,km,20251030-121904,1.0.1,20251023-100704,726,Experiment,Both,1,Automatic,main,64,20251030-122505,local,local,750,H,S,E,E,E-H.png,E-S.png,hH,sS,mask-3.png,mask-1.png,h,1,0.7037045999895781,s,1,0.09608300006948411,0.0498214999679476,0.049809399992227554,0.0988070999737829,0.09985170001164079,0.7508627999341115
RSVPLG03,km,20251030-121904,1.0.1,20251023-100704,726,Experiment,Both,1,Automatic,main,65,20251030-122510,global,global,300,S,H,E,E,S-E.png,H-E.png,sS,hH,mask-3.png,mask-3.png,h,0,0.7915566998999566,s,0,0.08037160011008382,0.04939189995639026,0.05038909998256713,0.09990269993431866,0.10085679998155683,0.299628600012511
RSVPLG03,km,20251030-121904,1.0.1,20251023-100704,726,Experiment,Both,1,Automatic,main,66,20251030-122515,global,local,750,S,H,E,A,S-E.png,A-H.png,sS,hH,mask-1.png,mask-1.png,s,1,0.5222051000455394,h,1,0.060882599907927215,0.04888969997409731,0.04990460001863539,0.09973550005815923,0.10080530005507171,0.7511023000115529
RSVPLG03,km,20251030-121904,1.0.1,20251023-100704,726,Experiment,Both,1,Automatic,main,67,20251030-122520,global,global,750,S,H,A,A,S-A.png,H-A.png,sS,hH,mask-1.png,mask-4.png,s,1,0.4449468000093475,h,1,0.06447760004084557,0.04969419992994517,0.049665299942716956,0.09954359999392182,0.0997258999850601,0.750456599984318
RSVPLG03,km,20251030-121904,1.0.1,20251023-100704,726,Experiment,Both,1,Automatic,main,68,20251030-122525,local,local,300,H,S,E,E,E-H.png,E-S.png,hH,sS,mask-4.png,mask-2.png,s,0,0.896736599970609,h,0,1.0564563999651,0.04863249999471009,0.05147220008075237,0.0986814999487251,0.09991820005234331,0.2991801999742165
RSVPLG03,km,20251030-121904,1.0.1,20251023-100704,726,Experiment,Both,1,Automatic,main,69,20251030-122529,global,local,300,H,H,A,E,H-A.png,E-H.png,hH,hH,mask-3.png,mask-2.png,h,1,0.3515877000754699,s,0,0.12340779998339713,0.05074659991078079,0.05002480000257492,0.10074199992232025,0.10069099999964237,0.30018949997611344
RSVPLG03,km,20251030-121904,1.0.1,20251023-100704,726,Experiment,Both,1,Automatic,main,70,20251030-122533,global,global,750,S,S,A,E,S-A.png,S-E.png,sS,sS,mask-1.png,mask-4.png,s,1,0.7629775999812409,h,0,0.1603948000119999,0.05010450002737343,0.04966929997317493,0.09980369999539107,0.09963189996778965,0.7518723000539467
RSVPLG03,km,20251030-121904,1.0.1,20251023-100704,726,Experiment,Both,1,Automatic,main,71,20251030-122539,local,local,750,S,H,A,A,A-S.png,A-H.png,sS,hH,mask-2.png,mask-2.png,s,1,0.4449308000039309,h,1,0.7491416999837384,0.05093899997882545,0.050985599984414876,0.10093109996523708,0.10187549993861467,0.7513765000039712
RSVPLG03,km,20251030-121904,1.0.1,20251023-100704,726,Experiment,Both,1,Automatic,main,72,20251030-122543,local,local,750,H,H,A,A,A-H.png,A-H.png,hH,hH,mask-4.png,mask-2.png,h,1,0.3866680000210181,h,1,0.15535360004287213,0.052370999939739704,0.05072689999360591,0.10095379990525544,0.1006331000244245,0.7517491999315098
RSVPLG03,km,20251030-121904,1.0.1,20251023-100704,726,Experiment,Both,1,Automatic,main,73,20251030-122548,local,global,750,H,S,A,E,A-H.png,S-E.png,hH,sS,mask-1.png,mask-3.png,h,1,0.8934080000035465,s,1,0.031013999949209392,0.049318799981847405,0.04944580001756549,0.0997167999157682,0.09972659999039024,0.7517239999724552
RSVPLG03,km,20251030-121904,1.0.1,20251023-100704,726,Experiment,Both,1,Automatic,main,74,20251030-122553,local,global,300,H,H,E,A,E-H.png,H-A.png,hH,hH,mask-4.png,mask-4.png,h,1,1.0243390999967232,s,0,0.1114140999270603,0.04931720008607954,0.04940659995190799,0.09931970003526658,0.10071859997697175,0.29943960008677095
RSVPLG03,km,20251030-121904,1.0.1,20251023-100704,726,Experiment,Both,1,Automatic,main,75,20251030-122558,global,global,750,H,H,A,E,H-A.png,H-E.png,hH,hH,mask-4.png,mask-4.png,h,1,0.44742729992140085,h,1,0.14352969999890774,0.04972369992174208,0.049743999959900975,0.09952739998698235,0.09999669995158911,0.7503376000095159
RSVPLG03,km,20251030-121904,1.0.1,20251023-100704,726,Experiment,Both,1,Automatic,main,76,20251030-122609,local,local,300,H,S,A,A,A-H.png,A-S.png,hH,sS,mask-2.png,mask-2.png,h,1,0.48244719998911023,s,1,0.09554280003067106,0.05097310000564903,0.05038169992621988,0.10059950000140816,0.10029849992133677,0.30137380002997816
RSVPLG03,km,20251030-121904,1.0.1,20251023-100704,726,Experiment,Both,1,Automatic,main,77,20251030-122613,global,global,300,S,S,A,A,S-A.png,S-A.png,sS,sS,mask-2.png,mask-3.png,s,1,0.5270941000198945,s,1,0.14133150002453476,0.04951939999591559,0.04952730005607009,0.09863289992790669,0.10029990004841238,0.3001341999042779
RSVPLG03,km,20251030-121904,1.0.1,20251023-100704,726,Experiment,Both,1,Automatic,main,78,20251030-122617,local,local,300,S,S,A,E,A-S.png,E-S.png,sS,sS,mask-4.png,mask-1.png,s,1,0.49978790001478046,s,1,0.1920320000499487,0.05070230003912002,0.051723400014452636,0.10050619998946786,0.1015887000830844,0.30026879999786615
RSVPLG03,km,20251030-121904,1.0.1,20251023-100704,726,Experiment,Both,1,Automatic,main,79,20251030-122622,global,global,750,S,H,A,E,S-A.png,H-E.png,sS,hH,mask-3.png,mask-1.png,h,0,0.4719446999952197,s,0,0.8141810999950394,0.050871700048446655,0.0506856000283733,0.10087640001438558,0.09985300002153963,0.7502148000057787
RSVPLG03,km,20251030-121904,1.0.1,20251023-100704,726,Experiment,Both,1,Automatic,main,80,20251030-122627,local,global,750,S,H,A,E,A-S.png,H-E.png,sS,hH,mask-1.png,mask-4.png,s,1,2.114779300056398,h,1,2.2427269000327215,0.05023339996114373,0.048326099989935756,0.09958070004358888,0.09979220002423972,0.7520315999863669
RSVPLG03,km,20251030-121904,1.0.1,20251023-100704,726,Experiment,Both,1,Automatic,main,81,20251030-122634,local,local,750,S,S,A,A,A-S.png,A-S.png,sS,sS,mask-3.png,mask-4.png,s,1,0.47346160002052784,s,1,0.12631069996859878,0.04997039993759245,0.05009280005469918,0.09975629998371005,0.10035180009435862,0.7511847999412566
RSVPLG03,km,20251030-121904,1.0.1,20251023-100704,726,Experiment,Both,1,Automatic,main,82,20251030-122638,global,local,750,S,S,A,A,S-A.png,A-S.png,sS,sS,mask-2.png,mask-1.png,h,0,0.4734607000136748,s,1,0.07652380003128201,0.0494708000915125,0.04994810000061989,0.09954790002666414,0.09946139995008707,0.7514279000461102
RSVPLG03,km,20251030-121904,1.0.1,20251023-100704,726,Experiment,Both,1,Automatic,main,83,20251030-122643,local,global,300,H,S,E,A,E-H.png,S-A.png,hH,sS,mask-1.png,mask-1.png,s,0,0.3673993000993505,s,1,0.17326940002385527,0.049563399981707335,0.05036100000143051,0.10096669988706708,0.10081470001023263,0.30044589994940907
RSVPLG03,km,20251030-121904,1.0.1,20251023-100704,726,Experiment,Both,1,Automatic,main,84,20251030-122647,global,local,300,S,S,A,A,S-A.png,A-S.png,sS,sS,mask-1.png,mask-3.png,h,0,1.0357911000028253,s,1,1.163779400056228,0.05143990006763488,0.050704199937172234,0.10015270009171218,0.10048199992161244,0.30155160010326654
RSVPLG03,km,20251030-121904,1.0.1,20251023-100704,726,Experiment,Both,1,Automatic,main,85,20251030-122652,global,global,300,S,S,E,A,S-E.png,S-A.png,sS,sS,mask-4.png,mask-2.png,s,1,0.41782480000983924,s,1,0.14096129999961704,0.05071049998514354,0.050750199938192964,0.10062290006317198,0.10271130001638085,0.299389100051485
RSVPLG03,km,20251030-121904,1.0.1,20251023-100704,726,Experiment,Both,1,Automatic,main,86,20251030-122656,global,local,750,H,S,A,E,H-A.png,E-S.png,hH,sS,mask-1.png,mask-4.png,h,1,0.8076404000166804,s,1,0.7818094999529421,0.05117729993071407,0.04845150001347065,0.1006983999395743,0.09980460000224411,0.7526606000028551
RSVPLG03,km,20251030-121904,1.0.1,20251023-100704,726,Experiment,Both,1,Automatic,main,87,20251030-122702,global,local,300,S,H,A,E,S-A.png,E-H.png,sS,hH,mask-3.png,mask-1.png,s,1,0.6844605999067426,h,1,0.40190289996098727,0.05135439999867231,0.05056519992649555,0.10023619991261512,0.0992532999953255,0.2998068999731913
RSVPLG03,km,20251030-121904,1.0.1,20251023-100704,726,Experiment,Both,1,Automatic,main,88,20251030-122707,global,local,750,S,H,A,A,S-A.png,A-H.png,sS,hH,mask-1.png,mask-4.png,s,1,0.7465105999726802,h,1,0.0010816999711096287,0.05079100001603365,0.04900750005617738,0.10037720005493611,0.09951830003410578,0.7507935999892652
RSVPLG03,km,20251030-121904,1.0.1,20251023-100704,726,Experiment,Both,1,Automatic,main,89,20251030-122712,local,local,300,H,S,A,A,A-H.png,A-S.png,hH,sS,mask-3.png,mask-3.png,h,1,1.3477032000664622,h,0,0.17503260006196797,0.04848660004790872,0.049769600038416684,0.09936580003704876,0.09965690004173666,0.29967139998916537
RSVPLG03,km,20251030-121904,1.0.1,20251023-100704,726,Experiment,Both,1,Automatic,main,90,20251030-122717,local,global,300,S,H,A,E,A-S.png,H-E.png,sS,hH,mask-2.png,mask-4.png,h,0,1.6091048000380397,h,1,0.2852459999267012,0.04980369994882494,0.050284700002521276,0.09972910000942647,0.10087570000905544,0.30011860001832247
RSVPLG03,km,20251030-121904,1.0.1,20251023-100704,726,Experiment,Both,1,Automatic,main,91,20251030-122723,local,local,750,S,S,A,A,A-S.png,A-S.png,sS,sS,mask-1.png,mask-2.png,s,1,0.44421039998997003,s,1,0.17354499991051853,0.04969890008214861,0.05111280002165586,0.10120550007559359,0.10028929996769875,0.7514875000342727
RSVPLG03,km,20251030-121904,1.0.1,20251023-100704,726,Experiment,Both,1,Automatic,main,92,20251030-122727,global,global,300,S,S,A,E,S-A.png,S-E.png,sS,sS,mask-3.png,mask-3.png,s,1,0.7067243999335915,h,0,0.07739960006438196,0.04970470000989735,0.0502026000758633,0.10002440004609525,0.10052920004818588,0.29897110001184046
RSVPLG03,km,20251030-121904,1.0.1,20251023-100704,726,Experiment,Both,1,Automatic,main,93,20251030-122732,global,global,750,H,H,E,E,H-E.png,H-E.png,hH,hH,mask-2.png,mask-2.png,h,1,0.41656839998904616,h,1,0.09409919998142868,0.049701099982485175,0.05068710003979504,0.09860370005480945,0.09990970010403544,0.750068899942562
RSVPLG03,km,20251030-121904,1.0.1,20251023-100704,726,Experiment,Both,1,Automatic,main,94,20251030-122737,global,local,750,H,S,A,E,H-A.png,E-S.png,hH,sS,mask-1.png,mask-2.png,h,1,0.35060190001968294,s,1,0.04677729995455593,0.051834699930623174,0.04994940001051873,0.1016550000058487,0.10492260009050369,0.7515357999363914
RSVPLG03,km,20251030-121904,1.0.1,20251023-100704,726,Experiment,Both,1,Automatic,main,95,20251030-122741,global,global,750,S,S,A,A,S-A.png,S-A.png,sS,sS,mask-4.png,mask-3.png,s,1,0.2524958000285551,s,1,0.14275989995803684,0.04844700009562075,0.04877120000310242,0.0994718000292778,0.1005629999563098,0.7506385000888258
RSVPLG03,km,20251030-121904,1.0.1,20251023-100704,726,Experiment,Both,1,Automatic,main,96,20251030-122746,global,global,300,S,S,A,A,S-A.png,S-A.png,sS,sS,mask-2.png,mask-4.png,s,1,0.43218769994564354,s,1,0.0775338999228552,0.0489923000568524,0.049699399969540536,0.09981699998024851,0.10053389996755868,0.2997078000335023
RSVPLG03,km,20251030-121904,1.0.1,20251023-100704,726,Experiment,Both,1,Automatic,main,97,20251030-122750,global,global,300,H,S,A,A,H-A.png,S-A.png,hH,sS,mask-1.png,mask-1.png,h,1,0.7379501999821514,h,0,0.09420120005961508,0.049733799998648465,0.05057940003462136,0.10056739998981357,0.10111880011390895,0.3003263999707997
RSVPLG03,km,20251030-121904,1.0.1,20251023-100704,726,Experiment,Both,1,Automatic,main,98,20251030-122754,local,local,750,S,H,E,A,E-S.png,A-H.png,sS,hH,mask-3.png,mask-4.png,s,1,0.7433445999631658,s,0,0.11009020009078085,0.04893110005650669,0.048600499983876944,0.1005146000534296,0.09912479994818568,0.7519102999940515
RSVPLG03,km,20251030-121904,1.0.1,20251023-100704,726,Experiment,Both,1,Automatic,main,99,20251030-122759,local,global,750,H,S,E,A,E-H.png,S-A.png,hH,sS,mask-4.png,mask-4.png,h,1,0.3335770000703633,s,1,0.04440949996933341,0.05082650005351752,0.049889400019310415,0.100744100054726,0.09986620000563562,0.752516100066714
RSVPLG03,km,20251030-121904,1.0.1,20251023-100704,726,Experiment,Both,1,Automatic,main,100,20251030-122804,local,global,750,H,H,E,E,E-H.png,H-E.png,hH,hH,mask-1.png,mask-3.png,h,1,1.2292817999841645,s,0,0.03204560000449419,0.049684799974784255,0.04859929997473955,0.09853820002172142,0.09911269997246563,0.7506600000197068
RSVPLG03,km,20251030-121904,1.0.1,20251023-100704,726,Experiment,Both,1,Automatic,main,101,20251030-122823,global,local,750,S,S,A,A,S-A.png,A-S.png,sS,sS,mask-4.png,mask-2.png,s,1,15.072025500005111,h,0,0.029473199974745512,0.050532600027509034,0.05020719999447465,0.10026259999722242,0.10064760001841933,0.7498558999504894
RSVPLG03,km,20251030-121904,1.0.1,20251023-100704,726,Experiment,Both,1,Automatic,main,102,20251030-122828,global,global,300,S,H,E,A,S-E.png,H-A.png,sS,hH,mask-1.png,mask-1.png,s,1,0.5067134000128135,h,1,0.08005140000022948,0.048763600061647594,0.04873719997704029,0.09861920005641878,0.09849470003973693,0.30013280001003295
RSVPLG03,km,20251030-121904,1.0.1,20251023-100704,726,Experiment,Both,1,Automatic,main,103,20251030-122832,global,local,300,S,S,E,A,S-E.png,A-S.png,sS,sS,mask-3.png,mask-1.png,s,1,0.4847880000015721,h,0,0.012068900046870112,0.05129129998385906,0.05012850009370595,0.10053699999116361,0.10037970007397234,0.30078209994826466
RSVPLG03,km,20251030-121904,1.0.1,20251023-100704,726,Experiment,Both,1,Automatic,main,104,20251030-122837,local,global,300,H,S,A,A,A-H.png,S-A.png,hH,sS,mask-4.png,mask-4.png,s,0,0.9358796000014991,s,1,1.1451062000123784,0.049664300051517785,0.05038050003349781,0.10047810000833124,0.10088660009205341,0.2996515999548137
RSVPLG03,km,20251030-121904,1.0.1,20251023-100704,726,Experiment,Both,1,Automatic,main,105,20251030-122842,local,global,750,S,S,A,E,A-S.png,S-E.png,sS,sS,mask-3.png,mask-4.png,s,1,0.15919510007370263,s,1,0.6384967999765649,0.04975360003300011,0.050474500050768256,0.10069310001563281,0.10096210008487105,0.7503426999319345
RSVPLG03,km,20251030-121904,1.0.1,20251023-100704,726,Experiment,Both,1,Automatic,main,106,20251030-122847,local,local,300,H,S,E,A,E-H.png,A-S.png,hH,sS,mask-3.png,mask-3.png,s,0,0.14179839997086674,s,1,0.508405200089328,0.05069319996982813,0.049579699989408255,0.10152000002563,0.0999657999491319,0.30114710005000234
RSVPLG03,km,20251030-121904,1.0.1,20251023-100704,726,Experiment,Both,1,Automatic,main,107,20251030-122851,global,local,750,H,H,A,E,H-A.png,E-H.png,hH,hH,mask-4.png,mask-3.png,h,1,0.7573134999256581,h,1,0.12648429989349097,0.04969889996573329,0.05063099996186793,0.09941669995896518,0.09982949995901436,0.749538499978371
RSVPLG03,km,20251030-121904,1.0.1,20251023-100704,726,Experiment,Both,1,Automatic,main,108,20251030-122856,global,local,300,H,S,A,A,H-A.png,A-S.png,hH,sS,mask-2.png,mask-3.png,h,1,0.4898061000276357,s,1,0.12552979995962232,0.05070579994935542,0.04940430005080998,0.10021509998477995,0.09974640002474189,0.3008296999614686
RSVPLG03,km,20251030-121904,1.0.1,20251023-100704,726,Experiment,Both,1,Automatic,main,109,20251030-122901,local,global,750,H,S,A,A,A-H.png,S-A.png,hH,sS,mask-1.png,mask-3.png,h,1,0.4361839999910444,s,1,0.6499726000474766,0.05051380000077188,0.04879969998728484,0.10022999998182058,0.09975259995553643,0.7525289000477642
RSVPLG03,km,20251030-121904,1.0.1,20251023-100704,726,Experiment,Both,1,Automatic,main,110,20251030-122905,local,local,750,H,H,A,A,A-H.png,A-H.png,hH,hH,mask-3.png,mask-4.png,h,1,0.4219410000368953,s,0,0.013780900044366717,0.04982760001439601,0.04979389999061823,0.09976299991831183,0.09869560005608946,0.7513572999741882
RSVPLG03,km,20251030-121904,1.0.1,20251023-100704,726,Experiment,Both,1,Automatic,main,111,20251030-122910,global,global,750,H,S,E,A,H-E.png,S-A.png,hH,sS,mask-1.png,mask-3.png,h,1,0.5152273999992758,s,1,0.07985970005393028,0.04959870001766831,0.04933120007626712,0.10124150000046939,0.09998090006411076,0.7515536999562755
RSVPLG03,km,20251030-121904,1.0.1,20251023-100704,726,Experiment,Both,1,Automatic,main,112,20251030-122915,global,global,300,S,H,A,A,S-A.png,H-A.png,sS,hH,mask-1.png,mask-2.png,s,1,0.49911830003838986,s,0,0.1403060999000445,0.051682200049981475,0.04940300004091114,0.1004769999999553,0.10005790006835014,0.30181470001116395
RSVPLG03,km,20251030-121904,1.0.1,20251023-100704,726,Experiment,Both,1,Automatic,main,113,20251030-122919,global,global,750,H,S,A,A,H-A.png,S-A.png,hH,sS,mask-1.png,mask-4.png,h,1,0.417967600049451,s,1,0.2057811999693513,0.049372200039215386,0.051691100001335144,0.10012139996979386,0.10048180003650486,0.749601099989377
RSVPLG03,km,20251030-121904,1.0.1,20251023-100704,726,Experiment,Both,1,Automatic,main,114,20251030-122924,global,global,750,S,H,A,A,S-A.png,H-A.png,sS,hH,mask-3.png,mask-4.png,s,1,0.4432321999920532,h,1,0.1774112000130117,0.048510099994018674,0.0517210999969393,0.09923729998990893,0.10040490003302693,0.7498408999526873
RSVPLG03,km,20251030-121904,1.0.1,20251023-100704,726,Experiment,Both,1,Automatic,main,115,20251030-122929,global,local,750,S,H,A,E,S-A.png,E-H.png,sS,hH,mask-2.png,mask-4.png,s,1,0.3953046000096947,h,1,0.06360809993930161,0.04919369996059686,0.049908399931155145,0.10104119998868555,0.0997067999560386,0.7516661999979988
RSVPLG03,km,20251030-121904,1.0.1,20251023-100704,726,Experiment,Both,1,Automatic,main,116,20251030-122934,global,global,750,H,S,A,E,H-A.png,S-E.png,hH,sS,mask-4.png,mask-2.png,s,0,1.4271649000002071,h,0,0.062102399999275804,0.05060869990848005,0.04966619994957,0.10035829991102219,0.10144779994152486,0.7510692999931052
RSVPLG03,km,20251030-121904,1.0.1,20251023-100704,726,Experiment,Both,1,Automatic,main,117,20251030-122939,local,global,750,S,S,A,E,A-S.png,S-E.png,sS,sS,mask-3.png,mask-4.png,h,0,0.36845959990751,s,1,0.12643539998680353,0.050625600037164986,0.04866600001696497,0.10007020004559308,0.10054190002847463,0.7521732000168413
RSVPLG03,km,20251030-121904,1.0.1,20251023-100704,726,Experiment,Both,1,Automatic,main,118,20251030-122944,global,global,300,S,H,E,E,S-E.png,H-E.png,sS,hH,mask-1.png,mask-2.png,s,1,0.570138799957931,h,1,0.15735470002982765,0.050659499946050346,0.049403300043195486,0.10016639996320009,0.10016390006057918,0.30070629995316267
RSVPLG03,km,20251030-121904,1.0.1,20251023-100704,726,Experiment,Both,1,Automatic,main,119,20251030-122948,local,local,300,S,S,A,E,A-S.png,E-S.png,sS,sS,mask-2.png,mask-1.png,h,0,1.3540946000721306,s,1,0.1264966999879107,0.05216399999335408,0.049880199949257076,0.10150959994643927,0.10035439999774098,0.3025437999749556
RSVPLG03,km,20251030-121904,1.0.1,20251023-100704,726,Experiment,Both,1,Automatic,main,120,20251030-122954,local,local,750,S,H,A,A,A-S.png,A-H.png,sS,hH,mask-2.png,mask-2.png,s,1,0.5953595000319183,h,1,0.14367040002252907,0.04976219998206943,0.049290800001472235,0.10126479994505644,0.09882960002869368,0.7521643999498338
RSVPLG03,km,20251030-121904,1.0.1,20251023-100704,726,Experiment,Both,1,Automatic,main,121,20251030-122959,global,local,300,H,H,A,A,H-A.png,A-H.png,hH,hH,mask-4.png,mask-1.png,h,1,0.48960109998006374,h,1,0.12459490005858243,0.05071420001331717,0.04939930001273751,0.10005430004093796,0.10110600001644343,0.30023220006842166
RSVPLG03,km,20251030-121904,1.0.1,20251023-100704,726,Experiment,Both,1,Automatic,main,122,20251030-123003,local,global,300,H,H,A,A,A-H.png,H-A.png,hH,hH,mask-1.png,mask-3.png,s,0,0.6406054999679327,s,0,0.14582209999207407,0.04962319997139275,0.04998670006170869,0.09936509991530329,0.10073260008357465,0.2992657999275252
RSVPLG03,km,20251030-121904,1.0.1,20251023-100704,726,Experiment,Both,1,Automatic,main,123,20251030-123007,local,global,750,S,H,E,A,E-S.png,H-A.png,sS,hH,mask-3.png,mask-3.png,s,1,0.580203999998048,h,1,0.14253399998415262,0.04998380003962666,0.05138739990070462,0.09997670003212988,0.10191159998066723,0.749598800088279
RSVPLG03,km,20251030-121904,1.0.1,20251023-100704,726,Experiment,Both,1,Automatic,main,124,20251030-123012,local,global,750,S,S,E,A,E-S.png,S-A.png,sS,sS,mask-1.png,mask-1.png,s,1,0.8259913000511006,h,0,0.09534679993521422,0.04872880002949387,0.049800400040112436,0.09955949999857694,0.1008931000251323,0.7496905999723822
RSVPLG03,km,20251030-121904,1.0.1,20251023-100704,726,Experiment,Both,1,Automatic,main,125,20251030-123017,global,local,300,S,S,A,E,S-A.png,E-S.png,sS,sS,mask-1.png,mask-3.png,s,1,0.4139358999673277,h,0,0.19009229994844645,0.05178620002698153,0.050032799947075546,0.10054370004218072,0.10021259996574372,0.3006754000671208
RSVPLG03,km,20251030-123050,1.0.1,20251023-100704,726,Experiment,Both,1,Automatic,warmup,1,20251030-123112,global,local,750,S,H,E,E,S-E.png,E-H.png,sS,hH,mask-1.png,mask-1.png,h,0,1.0050329000223428,s,0,1.1485487000318244,0.044206100050359964,0.049612400005571544,0.09441110002808273,0.1003318999428302,0.7451002000598237
RSVPLG03,km,20251030-123050,1.0.1,20251023-100704,726,Experiment,Both,1,Automatic,warmup,2,20251030-123117,global,local,300,S,S,A,E,S-A.png,E-S.png,sS,sS,mask-1.png,mask-1.png,s,1,0.501358300098218,s,1,0.11024060007184744,0.05021590006072074,0.04963629995472729,0.1006000000052154,0.09819050005171448,0.3017243000213057
RSVPLG03,km,20251030-123050,1.0.1,20251023-100704,726,Experiment,Both,1,Automatic,warmup,3,20251030-123121,local,local,300,H,S,E,E,E-H.png,E-S.png,hH,sS,mask-1.png,mask-4.png,h,1,0.39521019998937845,s,1,0.14404669997747988,0.04967640002723783,0.049669999978505075,0.09849689994007349,0.0983279999345541,0.2999664000235498
RSVPLG03,km,20251030-123050,1.0.1,20251023-100704,726,Experiment,Both,1,Automatic,warmup,4,20251030-123126,local,global,750,S,H,E,A,E-S.png,H-A.png,sS,hH,mask-2.png,mask-3.png,s,1,0.7914419000735506,s,0,0.09578590001910925,0.04972070001531392,0.04758109990507364,0.10051390004809946,0.09844729991164058,0.7510153000475839
RSVPLG03,km,20251030-123050,1.0.1,20251023-100704,726,Experiment,Both,1,Automatic,warmup,5,20251030-123131,global,global,750,H,H,E,E,H-E.png,H-E.png,hH,hH,mask-1.png,mask-1.png,h,1,0.24747050006408244,h,1,0.12830490001942962,0.05071370000950992,0.04817790002562106,0.1004959000274539,0.0990126000251621,0.7513628000160679
RSVPLG03,km,20251030-123050,1.0.1,20251023-100704,726,Experiment,Both,1,Automatic,main,6,20251030-123135,local,local,750,H,S,E,A,E-H.png,A-S.png,hH,sS,mask-2.png,mask-1.png,h,1,0.679886500001885,s,1,1.2833772000158206,0.049391599954105914,0.051362300058826804,0.09986830002162606,0.09984809998422861,0.7479462999617681
RSVPLG03,km,20251030-123050,1.0.1,20251023-100704,726,Experiment,Both,1,Automatic,main,7,20251030-123141,global,global,300,S,H,E,A,S-E.png,H-A.png,sS,hH,mask-3.png,mask-3.png,h,0,0.7080408000620082,h,1,0.09467889997176826,0.050711399991996586,0.04870500008109957,0.09950989997014403,0.09849260002374649,0.30106809991411865
RSVPLG03,km,20251030-123050,1.0.1,20251023-100704,726,Experiment,Both,1,Automatic,main,8,20251030-123146,local,global,750,S,H,E,A,E-S.png,H-A.png,sS,hH,mask-2.png,mask-1.png,s,1,0.740927099948749,h,1,0.03149600001052022,0.05052260006777942,0.05066820001229644,0.1004953000228852,0.10045230004470795,0.7500019000144675
RSVPLG03,km,20251030-123050,1.0.1,20251023-100704,726,Experiment,Both,1,Automatic,main,9,20251030-123151,global,global,750,S,S,E,A,S-E.png,S-A.png,sS,sS,mask-4.png,mask-4.png,s,1,0.3003737999824807,s,1,0.12792070000432432,0.04968729999382049,0.05156709998846054,0.1000048000132665,0.10085419996175915,0.7495695999823511
RSVPLG03,km,20251030-123050,1.0.1,20251023-100704,726,Experiment,Both,1,Automatic,main,10,20251030-123155,global,global,300,H,S,E,A,H-E.png,S-A.png,hH,sS,mask-3.png,mask-2.png,h,1,0.6178241000743583,s,1,0.047819299972616136,0.04950910003390163,0.04991359997075051,0.10066969995386899,0.10039649996906519,0.3007167000323534
RSVPLG03,km,20251030-123050,1.0.1,20251023-100704,726,Experiment,Both,1,Automatic,main,11,20251030-123200,local,global,750,H,S,A,E,A-H.png,S-E.png,hH,sS,mask-3.png,mask-1.png,s,0,2.827290500048548,h,0,3.01967790001072,0.04967830004170537,0.05044529994484037,0.09986750001553446,0.1000846999231726,0.750557400053367
RSVPLG03,km,20251030-123050,1.0.1,20251023-100704,726,Experiment,Both,1,Automatic,main,12,20251030-123207,local,local,300,H,H,E,E,E-H.png,E-H.png,hH,hH,mask-2.png,mask-4.png,s,0,1.067718500038609,h,1,0.07931810000445694,0.049686700105667114,0.048253700020723045,0.0985176000976935,0.09885680000297725,0.2999516000272706
RSVPLG03,km,20251030-123050,1.0.1,20251023-100704,726,Experiment,Both,1,Automatic,main,13,20251030-123211,local,local,750,S,H,E,E,E-S.png,E-H.png,sS,hH,mask-2.png,mask-2.png,s,1,0.9865464000031352,s,0,0.09684989997185767,0.04994919989258051,0.05098069994710386,0.10174399998504668,0.10047499998472631,0.749770599999465
RSVPLG03,km,20251030-123050,1.0.1,20251023-100704,726,Experiment,Both,1,Automatic,main,14,20251030-123217,global,global,750,S,S,E,E,S-E.png,S-E.png,sS,sS,mask-4.png,mask-4.png,s,1,0.33261279994621873,s,1,0.14270339999347925,0.04990470001939684,0.04834219999611378,0.09994710003957152,0.09974069998133928,0.7505106000462547
RSVPLG03,km,20251030-123050,1.0.1,20251023-100704,726,Experiment,Both,1,Automatic,main,15,20251030-123221,global,local,750,H,H,A,A,H-A.png,A-H.png,hH,hH,mask-4.png,mask-4.png,h,1,0.5073406000155956,h,1,0.15906899992842227,0.0496814000653103,0.049715899978764355,0.09962510003242642,0.09965869993902743,0.7501262000296265
RSVPLG03,km,20251030-123050,1.0.1,20251023-100704,726,Experiment,Both,1,Automatic,main,16,20251030-123226,local,global,300,S,S,A,A,A-S.png,S-A.png,sS,sS,mask-2.png,mask-2.png,s,1,0.7196274000452831,s,1,0.09632090001832694,0.05068720004055649,0.04868709994480014,0.10047830000985414,0.10050910001154989,0.3012377000413835
RSVPLG03,km,20251030-123050,1.0.1,20251023-100704,726,Experiment,Both,1,Automatic,main,17,20251030-123231,local,global,300,H,H,A,A,A-H.png,H-A.png,hH,hH,mask-3.png,mask-1.png,h,1,0.4382966000121087,h,1,0.12971509993076324,0.04991119995247573,0.05052120005711913,0.0986387999728322,0.10041340009775013,0.2993417999241501
RSVPLG03,km,20251030-123050,1.0.1,20251023-100704,726,Experiment,Both,1,Automatic,main,18,20251030-123235,global,local,750,H,S,A,A,H-A.png,A-S.png,hH,sS,mask-1.png,mask-1.png,h,1,1.1410863000201061,s,1,0.012876300024800003,0.050584299955517054,0.05065930006094277,0.10043510003015399,0.09947969997301698,0.7497370999772102
RSVPLG03,km,20251030-123050,1.0.1,20251023-100704,726,Experiment,Both,1,Automatic,main,19,20251030-123240,local,global,750,H,H,E,E,E-H.png,H-E.png,hH,hH,mask-2.png,mask-2.png,h,1,0.7028517000144348,s,0,0.06308140000328422,0.04969200002960861,0.04967649991158396,0.09927979996427894,0.10042529995553195,0.7495918000349775
RSVPLG03,km,20251030-123050,1.0.1,20251023-100704,726,Experiment,Both,1,Automatic,main,20,20251030-123245,local,local,750,H,S,E,A,E-H.png,A-S.png,hH,sS,mask-2.png,mask-3.png,s,0,0.47545170004013926,s,1,0.111493100062944,0.04953190009109676,0.04864000005181879,0.09800980007275939,0.09845110005699098,0.7497378999833018
RSVPLG03,km,20251030-123050,1.0.1,20251023-100704,726,Experiment,Both,1,Automatic,main,21,20251030-123250,local,local,300,H,S,E,E,E-H.png,E-S.png,hH,sS,mask-2.png,mask-1.png,h,1,0.40567280002869666,s,1,0.07502150000073016,0.049698600079864264,0.048684599925763905,0.09849380003288388,0.09832400002051145,0.30003220005892217
RSVPLG03,km,20251030-123050,1.0.1,20251023-100704,726,Experiment,Both,1,Automatic,main,22,20251030-123254,local,global,300,S,S,A,E,A-S.png,S-E.png,sS,sS,mask-1.png,mask-1.png,s,1,1.299308699904941,h,0,0.07913570001255721,0.04970009997487068,0.04937260004226118,0.09856069996021688,0.09981480007991195,0.3001550999470055
RSVPLG03,km,20251030-123050,1.0.1,20251023-100704,726,Experiment,Both,1,Automatic,main,23,20251030-123259,global,local,750,H,S,A,E,H-A.png,E-S.png,hH,sS,mask-1.png,mask-4.png,h,1,0.3240480999229476,s,1,0.044584899907931685,0.05056839995086193,0.050803599995560944,0.09945099998731166,0.10073119995649904,0.7494562000501901
RSVPLG03,km,20251030-123050,1.0.1,20251023-100704,726,Experiment,Both,1,Automatic,main,24,20251030-123304,local,local,750,S,S,A,A,A-S.png,A-S.png,sS,sS,mask-4.png,mask-2.png,s,1,0.18034129997249693,s,1,0.15491599997039884,0.050415199948474765,0.04962180007714778,0.10134279995691031,0.0986353000625968,0.7502214999403805
RSVPLG03,km,20251030-123050,1.0.1,20251023-100704,726,Experiment,Both,1,Automatic,main,25,20251030-123308,local,global,750,H,H,E,E,E-H.png,H-E.png,hH,hH,mask-1.png,mask-1.png,h,1,0.1547108000377193,h,1,0.13950669998303056,0.05053300003055483,0.049656599992886186,0.10043200000654906,0.10049059998709708,0.7501693000085652
RSVPLG03,km,20251030-123050,1.0.1,20251023-100704,726,Experiment,Both,1,Automatic,main,26,20251030-123320,global,global,300,S,S,A,A,S-A.png,S-A.png,sS,sS,mask-3.png,mask-1.png,s,1,0.3615938000148162,s,1,0.14298730005975813,0.05043950001709163,0.0512192000169307,0.10019189992453903,0.10094969999045134,0.29912290000356734
RSVPLG03,km,20251030-123050,1.0.1,20251023-100704,726,Experiment,Both,1,Automatic,main,27,20251030-123324,local,global,300,H,H,E,E,E-H.png,H-E.png,hH,hH,mask-2.png,mask-2.png,h,1,0.5201865999260917,s,0,0.04672820004634559,0.051418200018815696,0.051513100042939186,0.10064339998643845,0.10097469994798303,0.30021040001884103
RSVPLG03,km,20251030-123050,1.0.1,20251023-100704,726,Experiment,Both,1,Automatic,main,28,20251030-123329,local,global,300,S,S,A,E,A-S.png,S-E.png,sS,sS,mask-3.png,mask-1.png,h,0,0.4752820999128744,h,0,0.10634510009549558,0.0496850999770686,0.04867649998050183,0.10051759995985776,0.09949709998909384,0.30060259997844696
RSVPLG03,km,20251030-123050,1.0.1,20251023-100704,726,Experiment,Both,1,Automatic,main,29,20251030-123333,local,global,750,S,H,E,A,E-S.png,H-A.png,sS,hH,mask-4.png,mask-3.png,s,1,0.9489152000751346,h,1,0.04776999994646758,0.05056150001473725,0.04946299991570413,0.09919550002086908,0.09988339990377426,0.7500723000848666
RSVPLG03,km,20251030-123050,1.0.1,20251023-100704,726,Experiment,Both,1,Automatic,main,30,20251030-123338,global,local,300,H,S,E,A,H-E.png,A-S.png,hH,sS,mask-3.png,mask-3.png,h,1,0.45312650001142174,s,1,0.015087299980223179,0.05054930003825575,0.049239000072702765,0.0992536999983713,0.10053440008778125,0.2997403999324888
RSVPLG03,km,20251030-123050,1.0.1,20251023-100704,726,Experiment,Both,1,Automatic,main,31,20251030-123342,local,local,750,H,S,A,A,A-H.png,A-S.png,hH,sS,mask-4.png,mask-2.png,s,0,0.750984099926427,h,0,0.04588520003017038,0.0507905000122264,0.04966779996175319,0.1007252000272274,0.10049519990570843,0.7503912000684068
RSVPLG03,km,20251030-123050,1.0.1,20251023-100704,726,Experiment,Both,1,Automatic,main,32,20251030-123347,global,global,750,H,H,A,E,H-A.png,H-E.png,hH,hH,mask-2.png,mask-1.png,h,1,0.5484300999669358,h,1,0.25486139999702573,0.05006579996552318,0.04876949999015778,0.10023669991642237,0.09987799997907132,0.7516502999933437
RSVPLG03,km,20251030-123050,1.0.1,20251023-100704,726,Experiment,Both,1,Automatic,main,33,20251030-123352,global,global,750,S,H,A,A,S-A.png,H-A.png,sS,hH,mask-2.png,mask-3.png,s,1,0.3872876000823453,h,1,0.07968700001947582,0.04926460003480315,0.051741600036621094,0.10008830006700009,0.10255259997211397,0.7482855999842286
RSVPLG03,km,20251030-123050,1.0.1,20251023-100704,726,Experiment,Both,1,Automatic,main,34,20251030-123357,local,local,300,H,S,E,A,E-H.png,A-S.png,hH,sS,mask-4.png,mask-2.png,s,0,0.4471594999777153,s,1,0.1278814000543207,0.04968850000295788,0.049502399982884526,0.09847139997873455,0.09925730002578348,0.30010760005097836
RSVPLG03,km,20251030-123050,1.0.1,20251023-100704,726,Experiment,Both,1,Automatic,main,35,20251030-123401,global,global,750,H,H,A,E,H-A.png,H-E.png,hH,hH,mask-1.png,mask-1.png,h,1,0.43598569999448955,h,1,0.09362880000844598,0.050791700021363795,0.049280099919997156,0.10106450004968792,0.09926930000074208,0.7507547000423074
RSVPLG03,km,20251030-123050,1.0.1,20251023-100704,726,Experiment,Both,1,Automatic,main,36,20251030-123406,local,global,750,S,S,E,A,E-S.png,S-A.png,sS,sS,mask-4.png,mask-2.png,s,1,0.47866669995710254,s,1,0.17310649994760752,0.050440399907529354,0.04997360007837415,0.10038509999867529,0.10004080005455762,0.7507217999082059
RSVPLG03,km,20251030-123050,1.0.1,20251023-100704,726,Experiment,Both,1,Automatic,main,37,20251030-123411,global,global,750,H,H,A,E,H-A.png,H-E.png,hH,hH,mask-1.png,mask-1.png,h,1,0.5873160000192001,h,1,0.12656490004155785,0.05046679999213666,0.04936989990528673,0.0997250999789685,0.09983299998566508,0.7497765000443906
RSVPLG03,km,20251030-123050,1.0.1,20251023-100704,726,Experiment,Both,1,Automatic,main,38,20251030-123416,global,global,750,H,H,A,A,H-A.png,H-A.png,hH,hH,mask-1.png,mask-2.png,h,1,0.3245005001081154,h,1,0.11038620001636446,0.04930620000232011,0.05069849989376962,0.0991298999870196,0.10152169992215931,0.7482283000135794
RSVPLG03,km,20251030-123050,1.0.1,20251023-100704,726,Experiment,Both,1,Automatic,main,39,20251030-123420,local,local,750,H,H,A,E,A-H.png,E-H.png,hH,hH,mask-4.png,mask-1.png,h,1,0.47558200010098517,h,1,0.1105233000125736,0.04964530002325773,0.04928470007143915,0.09959940006956458,0.09868140006437898,0.7498158999951556
RSVPLG03,km,20251030-123050,1.0.1,20251023-100704,726,Experiment,Both,1,Automatic,main,40,20251030-123425,local,global,300,S,S,E,E,E-S.png,S-E.png,sS,sS,mask-2.png,mask-2.png,s,1,0.6099403999978676,s,1,0.11091550008859485,0.05101729999296367,0.04965880000963807,0.10141680005472153,0.10014640004374087,0.3009474000427872
RSVPLG03,km,20251030-123050,1.0.1,20251023-100704,726,Experiment,Both,1,Automatic,main,41,20251030-123429,local,local,300,H,H,A,E,A-H.png,E-H.png,hH,hH,mask-3.png,mask-1.png,s,0,0.7132622000062838,s,0,0.11150060000363737,0.04879329993855208,0.049926199950277805,0.09987679996993393,0.09945889993105084,0.29840960004366934
RSVPLG03,km,20251030-123050,1.0.1,20251023-100704,726,Experiment,Both,1,Automatic,main,42,20251030-123434,global,local,300,S,S,E,E,S-E.png,E-S.png,sS,sS,mask-1.png,mask-1.png,s,1,0.33350780000910163,h,0,0.30081769998651,0.050196000025607646,0.05152179999276996,0.09985919995233417,0.10116580000612885,0.29901009995955974
RSVPLG03,km,20251030-123050,1.0.1,20251023-100704,726,Experiment,Both,1,Automatic,main,43,20251030-123438,global,local,300,S,S,A,A,S-A.png,A-S.png,sS,sS,mask-1.png,mask-2.png,s,1,0.4611629999708384,h,0,0.01495230000000447,0.04929619992617518,0.05006100004538894,0.0997749000089243,0.10072300001047552,0.2990390999475494
RSVPLG03,km,20251030-123050,1.0.1,20251023-100704,726,Experiment,Both,1,Automatic,main,44,20251030-123443,global,local,300,H,S,A,A,H-A.png,A-S.png,hH,sS,mask-3.png,mask-3.png,h,1,0.3867242999840528,h,0,0.11041530000511557,0.04959650000091642,0.049898299970664084,0.09927630005404353,0.1012398999882862,0.29851049999706447
RSVPLG03,km,20251030-123050,1.0.1,20251023-100704,726,Experiment,Both,1,Automatic,main,45,20251030-123447,global,local,750,S,H,E,E,S-E.png,E-H.png,sS,hH,mask-1.png,mask-2.png,s,1,0.38434850005432963,s,0,0.12737759994342923,0.04988110007252544,0.049743899959139526,0.0986780000384897,0.1005511999828741,0.7487698000622913
RSVPLG03,km,20251030-123050,1.0.1,20251023-100704,726,Experiment,Both,1,Automatic,main,46,20251030-123452,global,global,300,H,S,E,E,H-E.png,S-E.png,hH,sS,mask-1.png,mask-3.png,h,1,0.3370628000702709,s,1,0.20602439995855093,0.049697899958118796,0.049933800008147955,0.09946399996988475,0.09980429999995977,0.29835519997868687
RSVPLG03,km,20251030-123050,1.0.1,20251023-100704,726,Experiment,Both,1,Automatic,main,47,20251030-123456,global,local,750,H,H,E,A,H-E.png,A-H.png,hH,hH,mask-4.png,mask-3.png,h,1,0.49122890003491193,h,1,0.10989189997781068,0.049656899995170534,0.0514369000447914,0.09835270000621676,0.10142040008213371,0.7484984999755397
RSVPLG03,km,20251030-123050,1.0.1,20251023-100704,726,Experiment,Both,1,Automatic,main,48,20251030-123501,local,local,750,H,S,E,E,E-H.png,E-S.png,hH,sS,mask-4.png,mask-2.png,h,1,0.6269334000535309,s,1,0.6560088000260293,0.050185600062832236,0.050803399994038045,0.09791500004939735,0.09973150002770126,0.749054400017485
RSVPLG03,km,20251030-123050,1.0.1,20251023-100704,726,Experiment,Both,1,Automatic,main,49,20251030-123506,local,local,300,H,H,E,A,E-H.png,A-H.png,hH,hH,mask-3.png,mask-4.png,h,1,0.4615036000031978,h,1,0.10955170006491244,0.04960170004051179,0.0502459000563249,0.10132959997281432,0.09998800000175834,0.2996250999858603
RSVPLG03,km,20251030-123050,1.0.1,20251023-100704,726,Experiment,Both,1,Automatic,main,50,20251030-123511,global,global,300,S,S,A,A,S-A.png,S-A.png,sS,sS,mask-1.png,mask-4.png,h,0,0.4043553000083193,s,1,0.10817660007160157,0.051692300010472536,0.04970459989272058,0.10057929996401072,0.1015010999981314,0.30017120006959885
RSVPLG03,km,20251030-123050,1.0.1,20251023-100704,726,Experiment,Both,1,Automatic,main,51,20251030-123534,local,local,300,H,H,A,E,A-H.png,E-H.png,hH,hH,mask-4.png,mask-4.png,s,0,0.9291407999116927,s,0,0.0955638000741601,0.05037569999694824,0.05037040007300675,0.098596700001508,0.10165790002793074,0.2987953999545425
RSVPLG03,km,20251030-123050,1.0.1,20251023-100704,726,Experiment,Both,1,Automatic,main,52,20251030-123539,local,local,750,H,S,A,A,A-H.png,A-S.png,hH,sS,mask-1.png,mask-2.png,h,1,0.368239099974744,h,0,0.3345301999943331,0.04858479998074472,0.05028099997434765,0.10020430001895875,0.1012707999907434,0.749068700009957
RSVPLG03,km,20251030-123050,1.0.1,20251023-100704,726,Experiment,Both,1,Automatic,main,53,20251030-123544,global,local,300,S,H,A,A,S-A.png,A-H.png,sS,hH,mask-3.png,mask-2.png,s,1,0.23559820000082254,h,1,0.12461119994986802,0.050720700062811375,0.05051359999924898,0.0994094000197947,0.10117020003963262,0.2994835999561474
RSVPLG03,km,20251030-123050,1.0.1,20251023-100704,726,Experiment,Both,1,Automatic,main,54,20251030-123548,local,global,300,H,H,E,A,E-H.png,H-A.png,hH,hH,mask-2.png,mask-4.png,h,1,0.5358847000170499,s,0,0.1757339999312535,0.04967720003332943,0.049828800023533404,0.10042849997989833,0.10146119992714375,0.29865090001840144
RSVPLG03,km,20251030-123050,1.0.1,20251023-100704,726,Experiment,Both,1,Automatic,main,55,20251030-123552,local,global,750,H,H,E,E,E-H.png,H-E.png,hH,hH,mask-4.png,mask-1.png,h,1,0.4742447000462562,s,0,0.046624200069345534,0.05093510006554425,0.04980410006828606,0.099753100075759,0.09971040009986609,0.7497526999795809
RSVPLG03,km,20251030-123050,1.0.1,20251023-100704,726,Experiment,Both,1,Automatic,main,56,20251030-123557,global,local,750,S,S,A,A,S-A.png,A-S.png,sS,sS,mask-4.png,mask-4.png,s,1,0.3253289998974651,h,0,0.2056417999556288,0.04983950010500848,0.04947780002839863,0.09983780002221465,0.09954049997031689,0.7500700000673532
RSVPLG03,km,20251030-123050,1.0.1,20251023-100704,726,Experiment,Both,1,Automatic,main,57,20251030-123602,global,global,750,H,S,E,E,H-E.png,S-E.png,hH,sS,mask-2.png,mask-3.png,s,0,0.6092619999544695,s,1,0.15843119996134192,0.04877709993161261,0.0508451999630779,0.10069599992129952,0.1009776999708265,0.7498607999878004
RSVPLG03,km,20251030-123050,1.0.1,20251023-100704,726,Experiment,Both,1,Automatic,main,58,20251030-123607,local,global,300,H,S,A,A,A-H.png,S-A.png,hH,sS,mask-2.png,mask-2.png,h,1,0.5051289999391884,h,0,0.16325849993154407,0.04887800000142306,0.05118619999848306,0.09974749991670251,0.10004299995489419,0.29920669994316995
RSVPLG03,km,20251030-123050,1.0.1,20251023-100704,726,Experiment,Both,1,Automatic,main,59,20251030-123611,global,global,300,H,S,A,A,H-A.png,S-A.png,hH,sS,mask-2.png,mask-3.png,h,1,0.48050210007932037,s,1,0.06667349999770522,0.049732199986465275,0.051274299970828,0.10118329990655184,0.0999850999796763,0.2995779999764636
RSVPLG03,km,20251030-123050,1.0.1,20251023-100704,726,Experiment,Both,1,Automatic,main,60,20251030-123615,local,global,750,S,H,A,A,A-S.png,H-A.png,sS,hH,mask-3.png,mask-1.png,s,1,0.6486323999706656,h,1,0.09468900004867464,0.04948830010835081,0.04884750000201166,0.09995800000615418,0.09879940003156662,0.7508051000768319
RSVPLG03,km,20251030-123050,1.0.1,20251023-100704,726,Experiment,Both,1,Automatic,main,61,20251030-123620,local,global,300,H,H,E,E,E-H.png,H-E.png,hH,hH,mask-1.png,mask-2.png,h,1,0.39448850008193403,s,0,0.014424700057134032,0.04992899997159839,0.04840690002311021,0.1010012999176979,0.0979817999759689,0.3015179999638349
RSVPLG03,km,20251030-123050,1.0.1,20251023-100704,726,Experiment,Both,1,Automatic,main,62,20251030-123624,global,global,300,S,S,E,E,S-E.png,S-E.png,sS,sS,mask-2.png,mask-4.png,s,1,0.42807559994980693,s,1,0.19154060003347695,0.050506000057794154,0.04957300005480647,0.1001292000291869,0.10020990006159991,0.3003349000355229
RSVPLG03,km,20251030-123050,1.0.1,20251023-100704,726,Experiment,Both,1,Automatic,main,63,20251030-123629,local,global,300,S,H,E,A,E-S.png,H-A.png,sS,hH,mask-4.png,mask-1.png,h,0,0.4982674000784755,s,0,0.09477659990079701,0.05164079996757209,0.048576700035482645,0.1018360999878496,0.10126280004624277,0.30034119996707886
RSVPLG03,km,20251030-123050,1.0.1,20251023-100704,726,Experiment,Both,1,Automatic,main,64,20251030-123633,global,local,750,S,H,E,E,S-E.png,E-H.png,sS,hH,mask-2.png,mask-1.png,s,1,0.33354180003516376,h,1,0.1118624999653548,0.04988669999875128,0.04841480008326471,0.09980450000148267,0.10027650010306388,0.7510675999801606
RSVPLG03,km,20251030-123050,1.0.1,20251023-100704,726,Experiment,Both,1,Automatic,main,65,20251030-123638,global,global,300,H,S,E,A,H-E.png,S-A.png,hH,sS,mask-1.png,mask-1.png,h,1,0.26235800003632903,s,1,0.07858410000335425,0.05067399994004518,0.0494519000640139,0.10048509994521737,0.10071230004541576,0.29910379997454584
RSVPLG03,km,20251030-123050,1.0.1,20251023-100704,726,Experiment,Both,1,Automatic,main,66,20251030-123642,global,local,300,H,H,A,A,H-A.png,A-H.png,hH,hH,mask-1.png,mask-2.png,h,1,0.4657433000393212,h,1,0.12539439997635782,0.04967239999677986,0.04963350004982203,0.09964169992599636,0.09951050009112805,0.3002257999032736
RSVPLG03,km,20251030-123050,1.0.1,20251023-100704,726,Experiment,Both,1,Automatic,main,67,20251030-123646,global,local,300,H,H,A,A,H-A.png,A-H.png,hH,hH,mask-1.png,mask-4.png,h,1,0.4794535000110045,h,1,0.0937154000857845,0.05111989995930344,0.051280400017276406,0.10107019997667521,0.10175029991660267,0.2988647000165656
RSVPLG03,km,20251030-123050,1.0.1,20251023-100704,726,Experiment,Both,1,Automatic,main,68,20251030-123650,global,global,750,H,S,E,A,H-E.png,S-A.png,hH,sS,mask-4.png,mask-2.png,h,1,0.3957502000266686,s,1,0.045367400045506656,0.051128100021742284,0.049646300030872226,0.10036449995823205,0.09991430002264678,0.751688199932687
RSVPLG03,km,20251030-123050,1.0.1,20251023-100704,726,Experiment,Both,1,Automatic,main,69,20251030-123655,local,local,750,H,H,A,A,A-H.png,A-H.png,hH,hH,mask-3.png,mask-2.png,h,1,0.6061527000274509,h,1,0.08040929993148893,0.04931519995443523,0.05083209997974336,0.0988686999771744,0.10013140004593879,0.7488041999749839
RSVPLG03,km,20251030-123050,1.0.1,20251023-100704,726,Experiment,Both,1,Automatic,main,70,20251030-123700,local,local,300,S,S,A,E,A-S.png,E-S.png,sS,sS,mask-4.png,mask-3.png,s,1,0.41696900001261383,h,0,0.22236279991921037,0.050176199991256,0.050162100000306964,0.10027150006499141,0.10001559997908771,0.3000040000770241
RSVPLG03,km,20251030-123050,1.0.1,20251023-100704,726,Experiment,Both,1,Automatic,main,71,20251030-123704,local,global,750,S,H,A,E,A-S.png,H-E.png,sS,hH,mask-4.png,mask-4.png,s,1,0.3799621999496594,s,0,0.14333290001377463,0.049807999981567264,0.05075089994352311,0.09973879996687174,0.09948309999890625,0.7486132000340149
RSVPLG03,km,20251030-123050,1.0.1,20251023-100704,726,Experiment,Both,1,Automatic,main,72,20251030-123709,local,local,300,S,H,A,A,A-S.png,A-H.png,sS,hH,mask-4.png,mask-2.png,s,1,0.5093405999941751,h,1,0.2549276000354439,0.04965319996699691,0.05011550011113286,0.09871789999306202,0.10035360010806471,0.29999789991416037
RSVPLG03,km,20251030-123050,1.0.1,20251023-100704,726,Experiment,Both,1,Automatic,main,73,20251030-123713,local,global,750,S,S,A,A,A-S.png,S-A.png,sS,sS,mask-2.png,mask-3.png,s,1,0.41160620003938675,s,1,0.2251015999354422,0.04966789996251464,0.04990969994105399,0.10084840003401041,0.09952369995880872,0.7494237000355497
RSVPLG03,km,20251030-123050,1.0.1,20251023-100704,726,Experiment,Both,1,Automatic,main,74,20251030-123718,global,local,750,S,S,A,A,S-A.png,A-S.png,sS,sS,mask-1.png,mask-3.png,s,1,0.7134488000301644,s,1,0.14157809992320836,0.048617899999953806,0.04947540001012385,0.09818999993149191,0.10093720001168549,0.748792800004594
RSVPLG03,km,20251030-123050,1.0.1,20251023-100704,726,Experiment,Both,1,Automatic,main,75,20251030-123723,global,local,300,H,S,E,E,H-E.png,E-S.png,hH,sS,mask-2.png,mask-2.png,h,1,0.30275869998149574,s,1,0.062136200023815036,0.04975060001015663,0.05062480003107339,0.09949910000432283,0.10045100003480911,0.2993457999546081
RSVPLG03,km,20251030-123050,1.0.1,20251023-100704,726,Experiment,Both,1,Automatic,main,76,20251030-123742,global,global,300,H,S,A,E,H-A.png,S-E.png,hH,sS,mask-2.png,mask-1.png,h,1,1.1744154000189155,s,1,0.6697177999885753,0.049767699907533824,0.04987390001770109,0.1014726998982951,0.09979040001053363,0.30011369998101145
RSVPLG03,km,20251030-123050,1.0.1,20251023-100704,726,Experiment,Both,1,Automatic,main,77,20251030-123748,local,local,300,H,S,A,A,A-H.png,A-S.png,hH,sS,mask-3.png,mask-3.png,s,0,1.436977699981071,s,1,0.07949230005033314,0.04965259996242821,0.049818300059996545,0.09946579998359084,0.1006205000448972,0.29942950000986457
RSVPLG03,km,20251030-123050,1.0.1,20251023-100704,726,Experiment,Both,1,Automatic,main,78,20251030-123753,local,global,750,H,S,A,A,A-H.png,S-A.png,hH,sS,mask-3.png,mask-2.png,h,1,0.37515279999934137,s,1,0.06307310005649924,0.05063399998471141,0.05010490003041923,0.09973839996382594,0.10149309993721545,0.748686800012365
RSVPLG03,km,20251030-123050,1.0.1,20251023-100704,726,Experiment,Both,1,Automatic,main,79,20251030-123758,local,global,750,S,H,A,E,A-S.png,H-E.png,sS,hH,mask-2.png,mask-1.png,s,1,0.3265611999668181,h,1,0.09372909995727241,0.04845570004545152,0.04920430004131049,0.09819419996347278,0.09938440006226301,0.7491375999525189
RSVPLG03,km,20251030-123050,1.0.1,20251023-100704,726,Experiment,Both,1,Automatic,main,80,20251030-123803,local,global,750,S,H,A,E,A-S.png,H-E.png,sS,hH,mask-1.png,mask-3.png,s,1,0.3651794999605045,s,0,0.15525189996697009,0.04859390005003661,0.05017729999963194,0.09915140003431588,0.09948830003850162,0.7490998000139371
RSVPLG03,km,20251030-123050,1.0.1,20251023-100704,726,Experiment,Both,1,Automatic,main,81,20251030-123807,global,local,750,S,S,E,E,S-E.png,E-S.png,sS,sS,mask-2.png,mask-1.png,s,1,0.7152997000375763,h,0,0.0180933999363333,0.04828570003155619,0.04986319993622601,0.09920030005741864,0.1021263999864459,0.7484363000839949
RSVPLG03,km,20251030-123050,1.0.1,20251023-100704,726,Experiment,Both,1,Automatic,main,82,20251030-123812,local,global,300,S,S,A,A,A-S.png,S-A.png,sS,sS,mask-4.png,mask-2.png,s,1,0.350831100018695,s,1,0.17309579998254776,0.050348700024187565,0.049648000043816864,0.10023270000237972,0.09881990007124841,0.30076969997026026
RSVPLG03,km,20251030-123050,1.0.1,20251023-100704,726,Experiment,Both,1,Automatic,main,83,20251030-123816,global,local,300,S,S,E,A,S-E.png,A-S.png,sS,sS,mask-3.png,mask-2.png,s,1,0.36180319997947663,h,0,0.5219939999515191,0.04855920001864433,0.050644899951294065,0.0984162000240758,0.09999859996605664,0.29882630007341504
RSVPLG03,km,20251030-123050,1.0.1,20251023-100704,726,Experiment,Both,1,Automatic,main,84,20251030-123821,global,global,750,S,S,A,E,S-A.png,S-E.png,sS,sS,mask-1.png,mask-3.png,s,1,0.33442910003941506,s,1,0.12812560005113482,0.05066289997193962,0.049655099981464446,0.10056080005597323,0.09922850003931671,0.7505240000318736
RSVPLG03,km,20251030-123050,1.0.1,20251023-100704,726,Experiment,Both,1,Automatic,main,85,20251030-123825,global,local,300,H,S,A,A,H-A.png,A-S.png,hH,sS,mask-3.png,mask-3.png,h,1,0.30097310000564903,h,0,0.1265457000117749,0.04905319993849844,0.04956359998323023,0.10052650002762675,0.10040540003683418,0.29870619997382164
RSVPLG03,km,20251030-123050,1.0.1,20251023-100704,726,Experiment,Both,1,Automatic,main,86,20251030-123829,local,local,750,H,S,E,A,E-H.png,A-S.png,hH,sS,mask-1.png,mask-1.png,h,1,0.22841929993592203,s,1,0.12557759997434914,0.048244799952954054,0.051650799927301705,0.09860959998331964,0.10156400001142174,0.7485816000262275
RSVPLG03,km,20251030-123050,1.0.1,20251023-100704,726,Experiment,Both,1,Automatic,main,87,20251030-123834,global,local,300,H,S,E,A,H-E.png,A-S.png,hH,sS,mask-3.png,mask-1.png,h,1,0.3843389000976458,h,0,0.1273024999536574,0.04962770000565797,0.04955249989870936,0.10040429991204292,0.09968539990950376,0.3002383999992162
RSVPLG03,km,20251030-123050,1.0.1,20251023-100704,726,Experiment,Both,1,Automatic,main,88,20251030-123838,local,global,300,S,S,E,E,E-S.png,S-E.png,sS,sS,mask-3.png,mask-1.png,s,1,0.4014525000238791,s,1,0.1783294000197202,0.05040980002377182,0.05040830001235008,0.10034459992311895,0.10019570006988943,0.29916179995052516
RSVPLG03,km,20251030-123050,1.0.1,20251023-100704,726,Experiment,Both,1,Automatic,main,89,20251030-123843,global,local,750,S,S,A,E,S-A.png,E-S.png,sS,sS,mask-3.png,mask-1.png,s,1,0.5216257999418303,h,0,0.014957299921661615,0.04968559998087585,0.05078839999623597,0.10056060005445033,0.10108369996305555,0.7491404000902548
RSVPLG03,km,20251030-123050,1.0.1,20251023-100704,726,Experiment,Both,1,Automatic,main,90,20251030-123847,local,local,300,H,H,A,A,A-H.png,A-H.png,hH,hH,mask-1.png,mask-3.png,s,0,0.33123909996356815,s,0,0.1757903000107035,0.04954279994126409,0.04865740006789565,0.09948410000652075,0.09842540009412915,0.30100979993585497
RSVPLG03,km,20251030-123050,1.0.1,20251023-100704,726,Experiment,Both,1,Automatic,main,91,20251030-123852,local,local,300,H,S,E,A,E-H.png,A-S.png,hH,sS,mask-2.png,mask-1.png,h,1,0.44413239997811615,h,0,0.12844769994262606,0.049825499998405576,0.04970490001142025,0.09988840005826205,0.09915439994074404,0.2997276000678539
RSVPLG03,km,20251030-123050,1.0.1,20251023-100704,726,Experiment,Both,1,Automatic,main,92,20251030-123856,global,global,300,H,H,A,A,H-A.png,H-A.png,hH,hH,mask-4.png,mask-3.png,h,1,0.3672082000412047,h,1,0.1427036999957636,0.04883510002400726,0.05086900002788752,0.09982300002593547,0.10079190006945282,0.29870799998752773
RSVPLG03,km,20251030-123050,1.0.1,20251023-100704,726,Experiment,Both,1,Automatic,main,93,20251030-123900,global,local,300,H,S,A,A,H-A.png,A-S.png,hH,sS,mask-1.png,mask-3.png,h,1,0.49256039992906153,h,0,0.1261678000446409,0.048975200043059886,0.050311399972997606,0.10004160006064922,0.10069039999507368,0.29876090004108846
RSVPLG03,km,20251030-123050,1.0.1,20251023-100704,726,Experiment,Both,1,Automatic,main,94,20251030-123905,global,global,300,S,H,A,A,S-A.png,H-A.png,sS,hH,mask-3.png,mask-2.png,s,1,0.41090550005901605,h,1,0.09474870003759861,0.049650799948722124,0.04862509993836284,0.1004022000124678,0.09932389995083213,0.299995300010778
RSVPLG03,km,20251030-123050,1.0.1,20251023-100704,726,Experiment,Both,1,Automatic,main,95,20251030-123909,local,global,750,H,H,E,A,E-H.png,H-A.png,hH,hH,mask-1.png,mask-2.png,h,1,0.7238455000333488,h,1,0.3688022999558598,0.05073120002634823,0.0506234000204131,0.10155260004103184,0.10045550006907433,0.7499986999901012
RSVPLG03,km,20251030-123050,1.0.1,20251023-100704,726,Experiment,Both,1,Automatic,main,96,20251030-123914,global,global,750,S,S,A,A,S-A.png,S-A.png,sS,sS,mask-1.png,mask-4.png,s,1,0.24374740000348538,s,1,0.15681750001385808,0.051361799938604236,0.049366199993528426,0.09915239992551506,0.10127069998998195,0.7505293999565765
RSVPLG03,km,20251030-123050,1.0.1,20251023-100704,726,Experiment,Both,1,Automatic,main,97,20251030-123919,global,local,750,S,H,E,A,S-E.png,A-H.png,sS,hH,mask-1.png,mask-1.png,s,1,0.3118684000801295,h,1,0.07920049992389977,0.04967830004170537,0.05120380001608282,0.10049450001679361,0.09993789996951818,0.7489426999818534
RSVPLG03,km,20251030-123050,1.0.1,20251023-100704,726,Experiment,Both,1,Automatic,main,98,20251030-123923,global,global,300,S,H,E,E,S-E.png,H-E.png,sS,hH,mask-3.png,mask-1.png,s,1,0.36168699990957975,h,1,0.1288451999425888,0.048925000010058284,0.05033009999897331,0.09920769999735057,0.10045939998235554,0.29967600002419204
RSVPLG03,km,20251030-123050,1.0.1,20251023-100704,726,Experiment,Both,1,Automatic,main,99,20251030-123928,local,local,750,H,S,E,E,E-H.png,E-S.png,hH,sS,mask-1.png,mask-1.png,h,1,0.6317522999597713,s,1,0.1616430999711156,0.04970069997943938,0.0511137000285089,0.10047019994817674,0.10299359995406121,0.7493554999819025
RSVPLG03,km,20251030-123050,1.0.1,20251023-100704,726,Experiment,Both,1,Automatic,main,100,20251030-123933,local,global,300,H,S,E,A,E-H.png,S-A.png,hH,sS,mask-4.png,mask-2.png,h,1,0.6537434000056237,s,1,0.013860699953511357,0.05074950004927814,0.05056110001169145,0.10058049997314811,0.1007607999490574,0.30002730002161115
RSVPLG03,km,20251030-123050,1.0.1,20251023-100704,726,Experiment,Both,1,Automatic,main,101,20251030-123955,global,global,750,H,H,A,A,H-A.png,H-A.png,hH,hH,mask-3.png,mask-3.png,h,1,0.45211379998363554,h,1,0.1105659999884665,0.050793300033546984,0.05052399996202439,0.1008193000452593,0.09841820003930479,0.7500828000484034
RSVPLG03,km,20251030-123050,1.0.1,20251023-100704,726,Experiment,Both,1,Automatic,main,102,20251030-124000,global,local,750,S,S,A,A,S-A.png,A-S.png,sS,sS,mask-4.png,mask-3.png,s,1,0.4541497000027448,s,1,0.1113711999496445,0.049600500031374395,0.050806400016881526,0.0983163999626413,0.09975159994792193,0.7486401000060141
RSVPLG03,km,20251030-123050,1.0.1,20251023-100704,726,Experiment,Both,1,Automatic,main,103,20251030-124005,local,global,300,S,S,A,E,A-S.png,S-E.png,sS,sS,mask-3.png,mask-3.png,h,0,0.569088299991563,s,1,0.7334714999888092,0.0493429999332875,0.049886399996466935,0.09973459993489087,0.0996580000501126,0.2991886999225244
RSVPLG03,km,20251030-123050,1.0.1,20251023-100704,726,Experiment,Both,1,Automatic,main,104,20251030-124010,global,local,300,H,H,E,E,H-E.png,E-H.png,hH,hH,mask-2.png,mask-1.png,h,1,0.6048932999838144,h,1,0.17452320002485067,0.051378400065004826,0.050382700050249696,0.09987939998973161,0.10087950003799051,0.3008632999844849
RSVPLG03,km,20251030-123050,1.0.1,20251023-100704,726,Experiment,Both,1,Automatic,main,105,20251030-124015,local,local,750,S,H,E,A,E-S.png,A-H.png,sS,hH,mask-1.png,mask-1.png,s,1,0.45950940006878227,s,0,0.14244650001637638,0.04858920001424849,0.05136829998809844,0.09990679996553808,0.09996629995293915,0.748798800050281
RSVPLG03,km,20251030-123050,1.0.1,20251023-100704,726,Experiment,Both,1,Automatic,main,106,20251030-124020,global,local,750,H,S,E,A,H-E.png,A-S.png,hH,sS,mask-2.png,mask-3.png,h,1,0.6861987001029775,h,0,0.14425849996041507,0.05064979998860508,0.04985459998715669,0.10043620003852993,0.099963300046511,0.7498662000289187
RSVPLG03,km,20251030-123050,1.0.1,20251023-100704,726,Experiment,Both,1,Automatic,main,107,20251030-124025,global,global,300,H,S,A,E,H-A.png,S-E.png,hH,sS,mask-4.png,mask-1.png,h,1,0.4193245000205934,h,0,0.12589589995332062,0.05027079989667982,0.05085619993042201,0.09968459990341216,0.09924010001122952,0.3003586999839172
RSVPLG03,km,20251030-123050,1.0.1,20251023-100704,726,Experiment,Both,1,Automatic,main,108,20251030-124029,global,global,300,H,H,A,A,H-A.png,H-A.png,hH,hH,mask-4.png,mask-2.png,h,1,0.3752201000461355,h,1,0.1733583000022918,0.04957469995133579,0.048456800053827465,0.10097289993427694,0.09894940000958741,0.30096949997823685
RSVPLG03,km,20251030-123050,1.0.1,20251023-100704,726,Experiment,Both,1,Automatic,main,109,20251030-124033,global,global,750,S,H,A,A,S-A.png,H-A.png,sS,hH,mask-4.png,mask-3.png,s,1,0.27115909999702126,h,1,0.12581840006168932,0.0505569000961259,0.04964739992283285,0.10015890002250671,0.09985669993329793,0.7505320000927895
RSVPLG03,km,20251030-123050,1.0.1,20251023-100704,726,Experiment,Both,1,Automatic,main,110,20251030-124038,global,global,300,S,H,E,A,S-E.png,H-A.png,sS,hH,mask-3.png,mask-1.png,s,1,0.5502500999718904,h,1,0.06024070002604276,0.049476999905891716,0.05053699994459748,0.0991955999052152,0.10117839998565614,0.2988892999710515
RSVPLG03,km,20251030-123050,1.0.1,20251023-100704,726,Experiment,Both,1,Automatic,main,111,20251030-124042,global,local,300,S,S,E,A,S-E.png,A-S.png,sS,sS,mask-3.png,mask-1.png,s,1,0.28738539991900325,h,0,0.09569180000107735,0.05133169994223863,0.04974070005118847,0.10009089997038245,0.10062100004870445,0.300024600001052
RSVPLG03,km,20251030-123050,1.0.1,20251023-100704,726,Experiment,Both,1,Automatic,main,112,20251030-124047,local,global,750,S,H,E,A,E-S.png,H-A.png,sS,hH,mask-3.png,mask-2.png,s,1,0.30990630004089326,s,0,0.17770989995915443,0.04941750003490597,0.04918830003589392,0.09947750007268041,0.09913180000148714,0.7495104999979958
RSVPLG03,km,20251030-123050,1.0.1,20251023-100704,726,Experiment,Both,1,Automatic,main,113,20251030-124051,global,local,300,H,S,A,E,H-A.png,E-S.png,hH,sS,mask-1.png,mask-2.png,s,0,0.3783097000559792,h,0,0.11379159998614341,0.04990650003310293,0.04981929995119572,0.09802130004391074,0.09901779994834214,0.29947090009227395
RSVPLG03,km,20251030-123050,1.0.1,20251023-100704,726,Experiment,Both,1,Automatic,main,114,20251030-124056,local,local,300,H,S,E,E,E-H.png,E-S.png,hH,sS,mask-1.png,mask-1.png,h,1,0.5570697000948712,s,1,0.05049029993824661,0.0491638999665156,0.04822450003121048,0.10012259997893125,0.09876800002530217,0.29979540000203997
RSVPLG03,km,20251030-123050,1.0.1,20251023-100704,726,Experiment,Both,1,Automatic,main,115,20251030-124100,local,global,300,H,S,E,A,E-H.png,S-A.png,hH,sS,mask-1.png,mask-1.png,h,1,0.5054699000902474,h,0,0.1771912999683991,0.048588400008156896,0.049013599986210465,0.09834979998413473,0.09923599998001009,0.300043800030835
RSVPLG03,km,20251030-123050,1.0.1,20251023-100704,726,Experiment,Both,1,Automatic,main,116,20251030-124104,global,global,750,H,H,E,A,H-E.png,H-A.png,hH,hH,mask-4.png,mask-1.png,h,1,0.39438589999917895,h,1,0.16190339997410774,0.04977480007801205,0.0497903999639675,0.09874980000313371,0.09857139992527664,0.7505868000444025
RSVPLG03,km,20251030-123050,1.0.1,20251023-100704,726,Experiment,Both,1,Automatic,main,117,20251030-124109,local,local,300,H,H,A,A,A-H.png,A-H.png,hH,hH,mask-3.png,mask-3.png,h,1,0.5690776000265032,h,1,0.13090589991770685,0.05104280007071793,0.04900740005541593,0.0999434000113979,0.09896289999596775,0.30093999998643994
RSVPLG03,km,20251030-123050,1.0.1,20251023-100704,726,Experiment,Both,1,Automatic,main,118,20251030-124113,local,local,750,S,H,A,E,A-S.png,E-H.png,sS,hH,mask-1.png,mask-2.png,h,0,0.43831769993994385,s,0,0.05041429994162172,0.04931459994986653,0.04973600001540035,0.09983780002221465,0.10067469999194145,0.74805249995552
RSVPLG03,km,20251030-123050,1.0.1,20251023-100704,726,Experiment,Both,1,Automatic,main,119,20251030-124118,local,local,300,S,H,E,A,E-S.png,A-H.png,sS,hH,mask-4.png,mask-2.png,s,1,0.4290849999524653,s,0,0.1597503999946639,0.049572300049476326,0.051043299958109856,0.09964180004317313,0.10093099996447563,0.29991420009173453
RSVPLG03,km,20251030-123050,1.0.1,20251023-100704,726,Experiment,Both,1,Automatic,main,120,20251030-124123,local,local,300,S,S,E,A,E-S.png,A-S.png,sS,sS,mask-2.png,mask-1.png,s,1,0.45207170001231134,h,0,0.19290609995368868,0.04910760000348091,0.050188399967737496,0.10029910004232079,0.10041860002093017,0.29983070003800094
RSVPLG03,km,20251030-123050,1.0.1,20251023-100704,726,Experiment,Both,1,Automatic,main,121,20251030-124127,local,local,750,S,H,E,A,E-S.png,A-H.png,sS,hH,mask-3.png,mask-2.png,s,1,0.43360270000994205,h,1,0.16149029997177422,0.049648000043816864,0.04862810007762164,0.10071070003323257,0.09891000005882233,0.7508862999966368
RSVPLG03,km,20251030-123050,1.0.1,20251023-100704,726,Experiment,Both,1,Automatic,main,122,20251030-124132,global,local,750,H,H,A,A,H-A.png,A-H.png,hH,hH,mask-2.png,mask-3.png,s,0,0.3967941999435425,h,1,0.09405900002457201,0.04980110004544258,0.04979530000127852,0.09973270003683865,0.09969309996813536,0.7500169000122696
