exp,exp_initials,runtime,ver,modtime,sub,blocktype,targets,cuetype,mode,trialtype,trial,trialtime,t1_level,t2_level,t2_lag,t1,t2,distractor1,distractor2,stimfile1,stimfile2,t1_corr,t2_corr,maskfile1,maskfile2,t1_resp,t1_acc,t1_rt,t2_resp,t2_acc,t2_rt,t1_dur,t2_dur,t1mask_soa,t2mask_soa,t1t2_soa
RSVPLG03,md,20260501-121737,1.0.2,20251105-084826,835,Introduction,T1,1,Automatic,main,1,20260501-121800,global,local,750,H,S,E,A,H-E.png,A-S.png,hH,sS,mask-1.png,mask-2.png,h,1,5.941747199743986,none,-5,0,0.09360909974202514,0.09669080004096031,0.19598899967968464,0.20057510025799274,0.7481518997810781
RSVPLG03,md,20260501-121737,1.0.2,20251105-084826,835,Introduction,T1,1,Automatic,main,2,20260501-121810,global,local,750,S,S,A,A,S-A.png,A-S.png,sS,sS,mask-4.png,mask-1.png,s,1,1.0176710998639464,none,-5,0,0.0997596001252532,0.0993813001550734,0.20167319988831878,0.20245009986683726,0.7516719000414014
RSVPLG03,md,20260501-121737,1.0.2,20251105-084826,835,Introduction,T1,1,Automatic,main,3,20260501-121816,local,local,750,S,H,A,E,A-S.png,E-H.png,sS,hH,mask-4.png,mask-4.png,h,0,1.2175531997345388,none,-5,0,0.09815860027447343,0.09764710022136569,0.20097490027546883,0.20124970003962517,0.7518902001902461
RSVPLG03,md,20260501-121737,1.0.2,20251105-084826,835,Introduction,T1,1,Automatic,main,4,20260501-121821,local,global,750,S,S,E,A,E-S.png,S-A.png,sS,sS,mask-1.png,mask-2.png,s,1,6.146364700049162,none,-5,0,0.09682280011475086,0.09727949975058436,0.19997920002788305,0.20073379995301366,0.7516099000349641
RSVPLG03,md,20260501-121737,1.0.2,20251105-084826,835,Introduction,T1,1,Automatic,main,5,20260501-121831,global,global,750,H,H,A,A,H-A.png,H-A.png,hH,hH,mask-2.png,mask-4.png,h,1,2.310676099732518,none,-5,0,0.0993224997073412,0.09765789983794093,0.2022685999982059,0.20056620007380843,0.7535927998833358
RSVPLG03,md,20260501-121737,1.0.2,20251105-084826,835,Introduction,T1,1,Automatic,main,6,20260501-121838,global,local,750,H,S,A,A,H-A.png,A-S.png,hH,sS,mask-2.png,mask-2.png,s,0,2.181070599704981,none,-5,0,0.09632589993998408,0.09744030004367232,0.19983419962227345,0.19978770008310676,0.752384299878031
RSVPLG03,md,20260501-121737,1.0.2,20251105-084826,835,Introduction,T1,1,Automatic,main,7,20260501-121844,global,local,750,H,H,A,E,H-A.png,E-H.png,hH,hH,mask-3.png,mask-1.png,h,1,5.2531058001331985,none,-5,0,0.09679940016940236,0.099227299913764,0.198787999805063,0.20115439966320992,0.7504977001808584
RSVPLG03,md,20260501-121737,1.0.2,20251105-084826,835,Introduction,T1,1,Automatic,main,8,20260501-121854,global,global,750,S,H,E,A,S-E.png,H-A.png,sS,hH,mask-4.png,mask-1.png,h,0,3.658582600299269,none,-5,0,0.0979629997164011,0.09931380022317171,0.2018325999379158,0.20032540010288358,0.7521730996668339
RSVPLG03,md,20260501-121737,1.0.2,20251105-084826,835,Introduction,T1,1,Automatic,main,9,20260501-121902,local,global,750,S,S,A,A,A-S.png,S-A.png,sS,sS,mask-1.png,mask-2.png,s,1,4.436857699882239,none,-5,0,0.09807890001684427,0.09872410027310252,0.2007924998179078,0.20207150001078844,0.7514824997633696
RSVPLG03,md,20260501-121737,1.0.2,20251105-084826,835,Introduction,T1,1,Automatic,main,10,20260501-121910,local,local,750,S,S,A,E,A-S.png,E-S.png,sS,sS,mask-3.png,mask-3.png,s,1,1.3394192000851035,none,-5,0,0.09738630009815097,0.09811200015246868,0.1996818999759853,0.2004567002877593,0.7502188999205828
RSVPLG03,md,20260501-121737,1.0.2,20251105-084826,835,Introduction,T1,1,Automatic,main,11,20260501-121916,local,local,750,S,H,E,A,E-S.png,A-H.png,sS,hH,mask-3.png,mask-4.png,h,0,0.827150400262326,none,-5,0,0.09940530033782125,0.09795999992638826,0.2019098000600934,0.20121160009875894,0.7519668000750244
RSVPLG03,md,20260501-121737,1.0.2,20251105-084826,835,Introduction,T1,1,Automatic,main,12,20260501-121921,local,local,750,S,H,A,E,A-S.png,E-H.png,sS,hH,mask-4.png,mask-4.png,s,1,1.1263969000428915,none,-5,0,0.09704890009015799,0.0971522000618279,0.19980750000104308,0.20130829978734255,0.7516247001476586
RSVPLG03,md,20260501-121737,1.0.2,20251105-084826,835,Introduction,T1,1,Automatic,main,13,20260501-121926,global,global,750,H,S,E,E,H-E.png,S-E.png,hH,sS,mask-4.png,mask-2.png,s,0,1.3903319998644292,none,-5,0,0.09714339999482036,0.0977402999997139,0.2002055998891592,0.19972679996863008,0.752617399673909
RSVPLG03,md,20260501-121737,1.0.2,20251105-084826,835,Introduction,T1,1,Automatic,main,14,20260501-121932,local,global,750,S,S,A,E,A-S.png,S-E.png,sS,sS,mask-2.png,mask-4.png,h,0,8.251411400269717,none,-5,0,0.09634000016376376,0.0968245998956263,0.2008115998469293,0.19876879965886474,0.7524994001723826
RSVPLG03,md,20260501-121737,1.0.2,20251105-084826,835,Introduction,T1,1,Automatic,main,15,20260501-121944,global,global,750,H,S,E,A,H-E.png,S-A.png,hH,sS,mask-2.png,mask-3.png,h,1,0.9566973997280002,none,-5,0,0.09812300000339746,0.09645029995590448,0.19952999986708164,0.1986374999396503,0.7521434999071062
RSVPLG03,md,20260501-121737,1.0.2,20251105-084826,835,Introduction,T1,1,Automatic,main,16,20260501-121949,local,global,750,S,S,E,E,E-S.png,S-E.png,sS,sS,mask-4.png,mask-4.png,s,1,0.9992136997170746,none,-5,0,0.09747610008344054,0.09881810005754232,0.20033030025660992,0.20198730006814003,0.751598299946636
RSVPLG03,md,20260501-122015,1.0.2,20251105-084826,835,Practice,T1,1,Automatic,main,1,20260501-122036,global,global,750,S,S,A,E,S-A.png,S-E.png,sS,sS,mask-4.png,mask-2.png,h,0,1.9617701000533998,none,-5,0,0.039943600073456764,0.048824300058186054,0.0920223998837173,0.10005970019847155,0.7401863997802138
RSVPLG03,md,20260501-122015,1.0.2,20251105-084826,835,Practice,T1,1,Automatic,main,2,20260501-122042,global,local,750,S,H,A,E,S-A.png,E-H.png,sS,hH,mask-1.png,mask-3.png,s,1,0.9208118002861738,none,-5,0,0.04552070004865527,0.0466024000197649,0.0985526000149548,0.09927870007231832,0.7468524998985231
RSVPLG03,md,20260501-122015,1.0.2,20251105-084826,835,Practice,T1,1,Automatic,main,3,20260501-122047,local,local,300,S,H,E,E,E-S.png,E-H.png,sS,hH,mask-2.png,mask-4.png,s,1,0.597619800362736,none,-5,0,0.047739900182932615,0.047535600140690804,0.09984820010140538,0.10009390022605658,0.2981670000590384
RSVPLG03,md,20260501-122015,1.0.2,20251105-084826,835,Practice,T1,1,Automatic,main,4,20260501-122051,global,global,750,S,H,A,A,S-A.png,H-A.png,sS,hH,mask-2.png,mask-1.png,s,1,0.5925954999402165,none,-5,0,0.048490900080651045,0.04831579979509115,0.10058420011773705,0.10034450003877282,0.7479701000265777
RSVPLG03,md,20260501-122015,1.0.2,20251105-084826,835,Practice,T1,1,Automatic,main,5,20260501-122055,global,local,300,S,H,E,E,S-E.png,E-H.png,sS,hH,mask-4.png,mask-4.png,s,1,0.6440306999720633,none,-5,0,0.047523099929094315,0.04750710027292371,0.09850550023838878,0.10048899985849857,0.2977326000109315
RSVPLG03,md,20260501-122015,1.0.2,20251105-084826,835,Practice,T1,1,Automatic,main,6,20260501-122100,local,local,750,S,S,A,E,A-S.png,E-S.png,sS,sS,mask-1.png,mask-4.png,s,1,1.960084700025618,none,-5,0,0.04772640019655228,0.04796429956331849,0.10017869994044304,0.09871669998392463,0.7488001002930105
RSVPLG03,md,20260501-122015,1.0.2,20251105-084826,835,Practice,T1,1,Automatic,main,7,20260501-122106,local,local,750,S,S,A,A,A-S.png,A-S.png,sS,sS,mask-1.png,mask-2.png,s,1,0.7351718000136316,none,-5,0,0.04870690032839775,0.04670479986816645,0.10003110021352768,0.10030879965052009,0.7486014002934098
RSVPLG03,md,20260501-122015,1.0.2,20251105-084826,835,Practice,T1,1,Automatic,main,8,20260501-122110,local,global,750,H,S,E,E,E-H.png,S-E.png,hH,sS,mask-2.png,mask-4.png,s,0,1.9287727000191808,none,-5,0,0.04950009984895587,0.04653819976374507,0.10061059985309839,0.09839410008862615,0.7500515999272466
RSVPLG03,md,20260501-122015,1.0.2,20251105-084826,835,Practice,T1,1,Automatic,main,9,20260501-122116,global,local,300,H,H,E,E,H-E.png,E-H.png,hH,hH,mask-4.png,mask-1.png,h,1,0.5321233998984098,none,-5,0,0.04768880037590861,0.04877009987831116,0.10049140034243464,0.10096109984442592,0.2990982001647353
RSVPLG03,md,20260501-122015,1.0.2,20251105-084826,835,Practice,T1,1,Automatic,main,10,20260501-122120,local,global,300,H,H,E,E,E-H.png,H-E.png,hH,hH,mask-3.png,mask-1.png,h,1,0.4012605999596417,none,-5,0,0.04695319989696145,0.04672219976782799,0.09995479974895716,0.09941119980067015,0.2996567999944091
RSVPLG03,md,20260501-122015,1.0.2,20251105-084826,835,Practice,T1,1,Automatic,main,11,20260501-122124,local,global,750,H,S,E,A,E-H.png,S-A.png,hH,sS,mask-3.png,mask-2.png,h,1,0.0005011996254324913,none,-5,0,0.04884780012071133,0.0477189002558589,0.10117129981517792,0.09995010029524565,0.7488210997544229
RSVPLG03,md,20260501-122015,1.0.2,20251105-084826,835,Practice,T1,1,Automatic,main,12,20260501-122128,global,global,300,H,S,E,A,H-E.png,S-A.png,hH,sS,mask-2.png,mask-1.png,h,1,0.3115441999398172,none,-5,0,0.04765500035136938,0.046363800298422575,0.10037260036915541,0.10047730011865497,0.2991758999414742
RSVPLG03,md,20260501-122015,1.0.2,20251105-084826,835,Practice,T1,1,Automatic,main,13,20260501-122132,local,local,300,S,H,E,E,E-S.png,E-H.png,sS,hH,mask-2.png,mask-4.png,s,1,1.4348628004081547,none,-5,0,0.04783279960975051,0.047594300005584955,0.09992349985986948,0.10080030001699924,0.2991743995808065
RSVPLG03,md,20260501-122015,1.0.2,20251105-084826,835,Practice,T1,1,Automatic,main,14,20260501-122137,global,global,300,S,H,A,E,S-A.png,H-E.png,sS,hH,mask-2.png,mask-2.png,s,1,0.5593396001495421,none,-5,0,0.04756570002064109,0.04785790015012026,0.09906510030850768,0.09908539988100529,0.29877990018576384
RSVPLG03,md,20260501-122015,1.0.2,20251105-084826,835,Practice,T1,1,Automatic,main,15,20260501-122141,local,global,300,H,H,A,E,A-H.png,H-E.png,hH,hH,mask-2.png,mask-4.png,s,0,0.49119250010699034,none,-5,0,0.04571390012279153,0.04750669980421662,0.09913650015369058,0.10020689992234111,0.29824359994381666
RSVPLG03,md,20260501-122015,1.0.2,20251105-084826,835,Practice,T1,1,Automatic,main,16,20260501-122145,global,local,750,H,H,E,E,H-E.png,E-H.png,hH,hH,mask-4.png,mask-3.png,h,1,0.31377349980175495,none,-5,0,0.04825730016455054,0.048374599777162075,0.10028119990602136,0.10023649968206882,0.7478928002528846
RSVPLG03,md,20260501-122205,1.0.2,20251105-084826,835,Practice,Both,1,Automatic,main,1,20260501-122244,global,local,750,S,H,E,E,S-E.png,E-H.png,sS,hH,mask-4.png,mask-4.png,s,1,3.7348180999979377,h,1,2.064934500027448,0.046581899747252464,0.04859609995037317,0.10012439964339137,0.09969299985095859,0.7500942000187933
RSVPLG03,md,20260501-122205,1.0.2,20251105-084826,835,Practice,Both,1,Automatic,main,2,20260501-122254,global,local,750,S,H,E,A,S-E.png,A-H.png,sS,hH,mask-2.png,mask-3.png,s,1,1.1097190999425948,h,1,0.504441199824214,0.04744309978559613,0.04680130025371909,0.09872169978916645,0.0992304002866149,0.750798899680376
RSVPLG03,md,20260501-122205,1.0.2,20251105-084826,835,Practice,Both,1,Automatic,main,3,20260501-122300,local,global,300,S,S,E,E,E-S.png,S-E.png,sS,sS,mask-2.png,mask-1.png,s,1,5.937000500038266,h,0,0.2997015998698771,0.047546399757266045,0.048446400091052055,0.10043019987642765,0.10063769994303584,0.30097669968381524
RSVPLG03,md,20260501-122205,1.0.2,20251105-084826,835,Practice,Both,1,Automatic,main,4,20260501-122310,local,local,750,S,H,A,A,A-S.png,A-H.png,sS,hH,mask-4.png,mask-4.png,h,0,3.481539700180292,s,0,0.2937739002518356,0.048628299962729216,0.04758869996294379,0.09982770029455423,0.10001709964126348,0.750445700250566
RSVPLG03,md,20260501-122205,1.0.2,20251105-084826,835,Practice,Both,1,Automatic,main,5,20260501-122318,local,global,300,S,H,E,A,E-S.png,H-A.png,sS,hH,mask-1.png,mask-1.png,s,1,1.054320900235325,h,1,0.2687936001457274,0.04752429993823171,0.04759510001167655,0.10026520024985075,0.10004260018467903,0.30027029989287257
RSVPLG03,md,20260501-122205,1.0.2,20251105-084826,835,Practice,Both,1,Automatic,main,6,20260501-122323,local,local,300,H,S,A,E,A-H.png,E-S.png,hH,sS,mask-4.png,mask-1.png,s,0,1.316932899877429,h,0,0.04305779980495572,0.04775959998369217,0.046707000117748976,0.09994000010192394,0.098244100343436,0.300600599963218
RSVPLG03,md,20260501-122205,1.0.2,20251105-084826,835,Practice,Both,1,Automatic,main,7,20260501-122328,global,global,750,S,S,A,A,S-A.png,S-A.png,sS,sS,mask-3.png,mask-2.png,s,1,3.6654583998024464,h,0,0.05131669994443655,0.04776930017396808,0.04676899965852499,0.09994510002434254,0.09895209968090057,0.7515739002265036
RSVPLG03,md,20260501-122205,1.0.2,20251105-084826,835,Practice,Both,1,Automatic,main,8,20260501-122336,global,global,750,S,H,A,A,S-A.png,H-A.png,sS,hH,mask-3.png,mask-3.png,h,0,1.78540930012241,s,0,0.07534239999949932,0.04953540023416281,0.04878780012950301,0.10068849986419082,0.10089479992166162,0.7518722000531852
RSVPLG03,md,20260501-122205,1.0.2,20251105-084826,835,Practice,Both,1,Automatic,main,9,20260501-122342,global,local,300,S,S,E,A,S-E.png,A-S.png,sS,sS,mask-2.png,mask-4.png,s,1,0.9717230000533164,s,1,0.06976150022819638,0.04768629977479577,0.04770299978554249,0.1008671997115016,0.0999335995875299,0.30045480001717806
RSVPLG03,md,20260501-122205,1.0.2,20251105-084826,835,Practice,Both,1,Automatic,main,10,20260501-122346,global,local,300,S,H,A,E,S-A.png,E-H.png,sS,hH,mask-2.png,mask-3.png,s,1,0.7727080998010933,s,0,0.06061059981584549,0.04753280011937022,0.04656410031020641,0.09961820021271706,0.10063340002670884,0.3009269000031054
RSVPLG03,md,20260501-122205,1.0.2,20251105-084826,835,Practice,Both,1,Automatic,main,11,20260501-122351,global,global,300,S,S,A,E,S-A.png,S-E.png,sS,sS,mask-1.png,mask-4.png,s,1,1.4112044000066817,s,1,0.06923040002584457,0.04747979994863272,0.047488799784332514,0.10044489987194538,0.09952229959890246,0.3006821000017226
RSVPLG03,md,20260501-122205,1.0.2,20251105-084826,835,Practice,Both,1,Automatic,main,12,20260501-122356,local,global,750,S,S,A,A,A-S.png,S-A.png,sS,sS,mask-1.png,mask-1.png,s,1,1.2905252003110945,s,1,0.07258250005543232,0.04718940006569028,0.046715899836272,0.1011327002197504,0.09895260026678443,0.7518249000422657
RSVPLG03,md,20260501-122205,1.0.2,20251105-084826,835,Practice,Both,1,Automatic,main,13,20260501-122401,local,global,750,H,H,A,E,A-H.png,H-E.png,hH,hH,mask-4.png,mask-1.png,s,0,1.1773417997173965,s,0,0.06853970000520349,0.04766130028292537,0.04756970005109906,0.09950410015881062,0.09968029987066984,0.7502290001139045
RSVPLG03,md,20260501-122205,1.0.2,20251105-084826,835,Practice,Both,1,Automatic,main,14,20260501-122407,local,local,300,S,H,A,A,A-S.png,A-H.png,sS,hH,mask-3.png,mask-4.png,h,0,1.4807137004099786,h,1,0.3559676995500922,0.04792369995266199,0.04892850015312433,0.10032269963994622,0.10128860035911202,0.29894479969516397
RSVPLG03,md,20260501-122205,1.0.2,20251105-084826,835,Practice,Both,1,Automatic,main,15,20260501-122412,global,global,300,H,H,E,A,H-E.png,H-A.png,hH,hH,mask-3.png,mask-3.png,h,1,2.9661403000354767,h,1,0.10639620013535023,0.048658700194209814,0.047076600138098,0.09992420021444559,0.0999265001155436,0.30042510014027357
RSVPLG03,md,20260501-122205,1.0.2,20251105-084826,835,Practice,Both,1,Automatic,main,16,20260501-122419,local,local,750,H,H,A,A,A-H.png,A-H.png,hH,hH,mask-4.png,mask-4.png,h,1,0.6212007002905011,h,1,0.03890680009499192,0.04749190015718341,0.04753689980134368,0.09937290009111166,0.10052239987999201,0.7498433999717236
RSVPLG03,md,20260501-122438,1.0.2,20251105-084826,835,Practice,Both,1,Automatic,main,1,20260501-122508,global,global,750,H,S,E,E,H-E.png,S-E.png,hH,sS,mask-1.png,mask-1.png,h,1,1.445287000387907,s,1,0.08930379990488291,0.044382800348103046,0.04740780033171177,0.09619970014318824,0.10071610007435083,0.7439667000435293
RSVPLG03,md,20260501-122438,1.0.2,20251105-084826,835,Practice,Both,1,Automatic,main,2,20260501-122513,global,global,750,S,S,A,A,S-A.png,S-A.png,sS,sS,mask-4.png,mask-3.png,s,1,0.9227831996977329,s,1,0.07644940027967095,0.04874530015513301,0.04874490015208721,0.10098000010475516,0.09997530002146959,0.7478535999543965
RSVPLG03,md,20260501-122438,1.0.2,20251105-084826,835,Practice,Both,1,Automatic,main,3,20260501-122519,local,local,300,S,S,E,E,E-S.png,E-S.png,sS,sS,mask-4.png,mask-1.png,s,1,1.5130811999551952,s,1,0.12559499964118004,0.04672880005091429,0.04601699998602271,0.09913940029218793,0.10017380025237799,0.2989856000058353
RSVPLG03,md,20260501-122438,1.0.2,20251105-084826,835,Practice,Both,1,Automatic,main,4,20260501-122524,global,local,300,S,H,E,A,S-E.png,A-H.png,sS,hH,mask-2.png,mask-4.png,s,1,0.9325311002321541,s,0,0.13270530011504889,0.046617299783974886,0.047839300241321325,0.09997420012950897,0.09902130020782351,0.2994058998301625
RSVPLG03,md,20260501-122438,1.0.2,20251105-084826,835,Practice,Both,1,Automatic,main,5,20260501-122529,global,global,300,H,S,E,A,H-E.png,S-A.png,hH,sS,mask-3.png,mask-4.png,h,1,2.136802999768406,s,1,0.035875000059604645,0.04753699991852045,0.04675169987604022,0.1003656997345388,0.09868220007047057,0.29956529987975955
RSVPLG03,md,20260501-122438,1.0.2,20251105-084826,835,Practice,Both,1,Automatic,main,6,20260501-122534,global,local,750,H,S,A,E,H-A.png,E-S.png,hH,sS,mask-2.png,mask-1.png,h,1,1.0053233997896314,s,1,0.10271770041435957,0.04654520004987717,0.04736419999971986,0.09865459986031055,0.09928489988669753,0.7474866998381913
RSVPLG03,md,20260501-122438,1.0.2,20251105-084826,835,Practice,Both,1,Automatic,main,7,20260501-122540,local,global,750,S,S,E,A,E-S.png,S-A.png,sS,sS,mask-4.png,mask-3.png,s,1,1.1588215003721416,s,1,0.1444888999685645,0.04840640025213361,0.04603750025853515,0.10024540033191442,0.09813890000805259,0.7491011000238359
RSVPLG03,md,20260501-122438,1.0.2,20251105-084826,835,Practice,Both,1,Automatic,main,8,20260501-122545,local,local,300,H,S,A,A,A-H.png,A-S.png,hH,sS,mask-4.png,mask-1.png,h,1,1.6344486000016332,s,1,0.07049620011821389,0.04771250020712614,0.04770320001989603,0.09891270007938147,0.09992339974269271,0.29829360032454133
RSVPLG03,md,20260501-122438,1.0.2,20251105-084826,835,Practice,Both,1,Automatic,main,9,20260501-122550,local,global,750,H,H,A,A,A-H.png,H-A.png,hH,hH,mask-3.png,mask-4.png,h,1,1.3777137999422848,h,1,0.15226220013573766,0.0457725003361702,0.046492999885231256,0.09923180006444454,0.09953140001744032,0.7470969003625214
RSVPLG03,md,20260501-122438,1.0.2,20251105-084826,835,Practice,Both,1,Automatic,main,10,20260501-122556,local,local,750,H,H,A,A,A-H.png,A-H.png,hH,hH,mask-1.png,mask-1.png,h,1,0.7153129996731877,h,1,0.09648100007325411,0.047755599953234196,0.04726899974048138,0.09854489983990788,0.10006139986217022,0.7469183001667261
RSVPLG03,md,20260501-122438,1.0.2,20251105-084826,835,Practice,Both,1,Automatic,main,11,20260501-122601,global,global,300,H,H,E,A,H-E.png,H-A.png,hH,hH,mask-2.png,mask-4.png,h,1,0.593157300259918,h,1,0.11622419999912381,0.04778190003708005,0.046234500128775835,0.10110700037330389,0.09846110036596656,0.3004874000325799
RSVPLG03,md,20260501-122438,1.0.2,20251105-084826,835,Practice,Both,1,Automatic,main,12,20260501-122605,local,local,750,H,H,E,A,E-H.png,A-H.png,hH,hH,mask-3.png,mask-4.png,h,1,0.48748409980908036,h,1,0.1186600998044014,0.04683789983391762,0.04568140022456646,0.09998840000480413,0.09844799991697073,0.7478793999180198
RSVPLG03,md,20260501-122438,1.0.2,20251105-084826,835,Practice,Both,1,Automatic,main,13,20260501-122610,global,local,300,H,H,A,E,H-A.png,E-H.png,hH,hH,mask-4.png,mask-1.png,h,1,0.5805190000683069,h,1,0.08564780000597239,0.04675289988517761,0.04574500024318695,0.09894540021196008,0.09839639998972416,0.2992266998626292
RSVPLG03,md,20260501-122438,1.0.2,20251105-084826,835,Practice,Both,1,Automatic,main,14,20260501-122614,global,local,750,S,S,A,E,S-A.png,E-S.png,sS,sS,mask-4.png,mask-1.png,s,1,0.5942822000943124,s,1,0.08644070010632277,0.048427500296384096,0.04759950004518032,0.10045510018244386,0.09870220022276044,0.7485094000585377
RSVPLG03,md,20260501-122438,1.0.2,20251105-084826,835,Practice,Both,1,Automatic,main,15,20260501-122619,local,global,300,S,H,A,E,A-S.png,H-E.png,sS,hH,mask-3.png,mask-3.png,s,1,1.2622674000449479,h,1,0.17240480007603765,0.04748740000650287,0.04673050018027425,0.09922099998220801,0.0991052002646029,0.2983647999353707
RSVPLG03,md,20260501-122438,1.0.2,20251105-084826,835,Practice,Both,1,Automatic,main,16,20260501-122624,local,global,300,H,H,A,E,A-H.png,H-E.png,hH,hH,mask-4.png,mask-2.png,s,0,1.7104826997965574,h,1,0.06103610014542937,0.04770250013098121,0.047625300008803606,0.09993260027840734,0.09808259969577193,0.29991420032456517
RSVPLG03,md,20260501-122725,1.0.2,20251105-084826,835,Experiment,Both,1,Automatic,warmup,1,20260501-122835,global,global,750,S,S,E,E,S-E.png,S-E.png,sS,sS,mask-3.png,mask-4.png,s,1,0.7757557001896203,s,1,0.08582270005717874,0.04103800002485514,0.04666109988465905,0.09410669980570674,0.09989800024777651,0.7447114000096917
RSVPLG03,md,20260501-122725,1.0.2,20251105-084826,835,Experiment,Both,1,Automatic,warmup,2,20260501-122840,global,local,300,S,S,A,A,S-A.png,A-S.png,sS,sS,mask-4.png,mask-1.png,s,1,0.5248129996471107,s,1,0.12067249976098537,0.04769269982352853,0.04753979993984103,0.10118919983506203,0.09902349999174476,0.30083109997212887
RSVPLG03,md,20260501-122725,1.0.2,20251105-084826,835,Experiment,Both,1,Automatic,warmup,3,20260501-122845,global,global,300,H,H,E,E,H-E.png,H-E.png,hH,hH,mask-4.png,mask-2.png,h,1,0.888584699947387,h,1,0.10748110013082623,0.04583770036697388,0.04784710006788373,0.09999180026352406,0.0999241997487843,0.2984279002994299
RSVPLG03,md,20260501-122725,1.0.2,20251105-084826,835,Experiment,Both,1,Automatic,warmup,4,20260501-122849,local,global,300,H,H,A,E,A-H.png,H-E.png,hH,hH,mask-2.png,mask-4.png,h,1,0.7044734000228345,h,1,0.1221601003780961,0.047601900063455105,0.04668840020895004,0.0998228001408279,0.09989430010318756,0.30061559984460473
RSVPLG03,md,20260501-122725,1.0.2,20251105-084826,835,Experiment,Both,1,Automatic,main,5,20260501-122854,global,local,300,S,S,E,E,S-E.png,E-S.png,sS,sS,mask-1.png,mask-2.png,s,1,0.49939489969983697,s,1,0.06366269988939166,0.047239300329238176,0.04674469958990812,0.1001566001214087,0.09919999958947301,0.30023140041157603
RSVPLG03,md,20260501-122725,1.0.2,20251105-084826,835,Experiment,Both,1,Automatic,main,6,20260501-122858,global,local,750,S,S,E,E,S-E.png,E-S.png,sS,sS,mask-4.png,mask-2.png,s,1,0.4240526002831757,s,1,0.2608774001710117,0.04789839964359999,0.04796390002593398,0.10026189964264631,0.1005001999437809,0.7502039996907115
RSVPLG03,md,20260501-122725,1.0.2,20251105-084826,835,Experiment,Both,1,Automatic,main,7,20260501-122903,local,global,750,S,H,E,E,E-S.png,H-E.png,sS,hH,mask-2.png,mask-4.png,s,1,0.625358700286597,h,1,0.1387378997169435,0.04871320025995374,0.04776170011609793,0.09917960036545992,0.09998949989676476,0.7513044001534581
RSVPLG03,md,20260501-122725,1.0.2,20251105-084826,835,Experiment,Both,1,Automatic,main,8,20260501-122908,global,global,750,H,H,A,E,H-A.png,H-E.png,hH,hH,mask-2.png,mask-4.png,h,1,0.456260500010103,h,1,0.20373399974778295,0.04682229971513152,0.04695100011304021,0.0996991996653378,0.09987539984285831,0.750140099786222
RSVPLG03,md,20260501-122725,1.0.2,20251105-084826,835,Experiment,Both,1,Automatic,main,9,20260501-122913,local,local,300,S,H,A,E,A-S.png,E-H.png,sS,hH,mask-1.png,mask-2.png,s,1,0.7089009000919759,h,1,0.13467920012772083,0.048121599946171045,0.047848500311374664,0.10010859975591302,0.10028639994561672,0.30162979988381267
RSVPLG03,md,20260501-122725,1.0.2,20251105-084826,835,Experiment,Both,1,Automatic,main,10,20260501-122917,global,local,750,S,S,A,A,S-A.png,A-S.png,sS,sS,mask-2.png,mask-2.png,s,1,1.7966677998192608,s,1,0.10080019989982247,0.04767710017040372,0.04867460019886494,0.10037000011652708,0.10132599994540215,0.7489896002225578
RSVPLG03,md,20260501-122725,1.0.2,20251105-084826,835,Experiment,Both,1,Automatic,main,11,20260501-122923,local,global,300,H,H,A,A,A-H.png,H-A.png,hH,hH,mask-4.png,mask-4.png,h,1,2.8440207997336984,s,0,0.0900564999319613,0.04679629998281598,0.046504799742251635,0.10106789972633123,0.09869239991530776,0.30119029991328716
RSVPLG03,md,20260501-122725,1.0.2,20251105-084826,835,Experiment,Both,1,Automatic,main,12,20260501-122930,global,local,750,S,S,E,E,S-E.png,E-S.png,sS,sS,mask-2.png,mask-3.png,s,1,0.8648431999608874,s,1,0.09656340023502707,0.04773249989375472,0.048696599900722504,0.09921969985589385,0.10073189996182919,0.750307499896735
RSVPLG03,md,20260501-122725,1.0.2,20251105-084826,835,Experiment,Both,1,Automatic,main,13,20260501-122935,global,local,300,S,S,E,A,S-E.png,A-S.png,sS,sS,mask-1.png,mask-3.png,s,1,0.9287397000007331,s,1,0.10159499989822507,0.04868340026587248,0.046068699564784765,0.09989409986883402,0.10020369989797473,0.3015149002894759
RSVPLG03,md,20260501-122725,1.0.2,20251105-084826,835,Experiment,Both,1,Automatic,main,14,20260501-122940,global,global,750,S,S,A,E,S-A.png,S-E.png,sS,sS,mask-4.png,mask-1.png,s,1,0.451454000081867,s,1,0.08969519985839725,0.04568460024893284,0.047562699764966965,0.09942239988595247,0.0987947997637093,0.7496732003055513
RSVPLG03,md,20260501-122725,1.0.2,20251105-084826,835,Experiment,Both,1,Automatic,main,15,20260501-122944,local,global,300,S,H,A,A,A-S.png,H-A.png,sS,hH,mask-4.png,mask-3.png,s,1,0.6478869998827577,h,1,0.12201320007443428,0.04766830010339618,0.048604199662804604,0.10075139999389648,0.10060809971764684,0.3004352003335953
RSVPLG03,md,20260501-122725,1.0.2,20251105-084826,835,Experiment,Both,1,Automatic,main,16,20260501-122949,local,local,750,S,H,A,A,A-S.png,A-H.png,sS,hH,mask-3.png,mask-2.png,s,1,0.6217883001081645,h,1,0.1190094999037683,0.046709599904716015,0.046804700046777725,0.09990289993584156,0.0997256999835372,0.7504059001803398
RSVPLG03,md,20260501-122725,1.0.2,20251105-084826,835,Experiment,Both,1,Automatic,main,17,20260501-122954,global,local,300,H,H,E,A,H-E.png,A-H.png,hH,hH,mask-4.png,mask-3.png,h,1,0.9915356999263167,h,1,0.11632699985057116,0.04860399989411235,0.047954400070011616,0.10136740002781153,0.1010402999818325,0.29995610006153584
RSVPLG03,md,20260501-122725,1.0.2,20251105-084826,835,Experiment,Both,1,Automatic,main,18,20260501-122958,global,global,300,S,S,E,A,S-E.png,S-A.png,sS,sS,mask-4.png,mask-2.png,s,1,1.0689567001536489,s,1,0.08570300042629242,0.04727499978616834,0.047572100069373846,0.0999526996165514,0.09999650018289685,0.30008389987051487
RSVPLG03,md,20260501-122725,1.0.2,20251105-084826,835,Experiment,Both,1,Automatic,main,19,20260501-123003,global,local,300,S,S,A,E,S-A.png,E-S.png,sS,sS,mask-4.png,mask-2.png,s,1,0.8104877998121083,s,1,0.091401900164783,0.04659259971231222,0.047533399891108274,0.09961739974096417,0.10026940004900098,0.29937889985740185
RSVPLG03,md,20260501-122725,1.0.2,20251105-084826,835,Experiment,Both,1,Automatic,main,20,20260501-123008,local,global,300,H,H,E,E,E-H.png,H-E.png,hH,hH,mask-3.png,mask-3.png,h,1,1.0538164000026882,h,1,0.10867659980431199,0.045693499967455864,0.047532299999147654,0.09989810036495328,0.10185120021924376,0.2983379000797868
RSVPLG03,md,20260501-122725,1.0.2,20251105-084826,835,Experiment,Both,1,Automatic,main,21,20260501-123013,local,local,750,S,S,E,E,E-S.png,E-S.png,sS,sS,mask-1.png,mask-3.png,s,1,0.587321599945426,s,1,0.10810409998521209,0.04821910010650754,0.04689670028164983,0.10143609996885061,0.09860819997265935,0.7519554998725653
RSVPLG03,md,20260501-122725,1.0.2,20251105-084826,835,Experiment,Both,1,Automatic,main,22,20260501-123017,local,local,750,S,H,E,E,E-S.png,E-H.png,sS,hH,mask-4.png,mask-1.png,s,1,0.7270570998080075,s,0,0.12285149982199073,0.047509599942713976,0.04798940010368824,0.10102450009435415,0.09981339983642101,0.750084700062871
RSVPLG03,md,20260501-122725,1.0.2,20251105-084826,835,Experiment,Both,1,Automatic,main,23,20260501-123022,global,local,300,S,H,A,A,S-A.png,A-H.png,sS,hH,mask-2.png,mask-1.png,s,1,0.9706489997915924,s,0,0.10993480030447245,0.048670700285583735,0.04847249994054437,0.09983550012111664,0.10147990006953478,0.2998438002541661
RSVPLG03,md,20260501-122725,1.0.2,20251105-084826,835,Experiment,Both,1,Automatic,main,24,20260501-123027,global,global,300,H,H,A,A,H-A.png,H-A.png,hH,hH,mask-4.png,mask-2.png,h,1,0.7922581997700036,h,1,0.09189460007473826,0.047708199825137854,0.04869259987026453,0.10022890008985996,0.10093609988689423,0.2998432000167668
RSVPLG03,md,20260501-122725,1.0.2,20251105-084826,835,Experiment,Both,1,Automatic,main,25,20260501-123031,global,global,750,H,S,E,A,H-E.png,S-A.png,hH,sS,mask-4.png,mask-3.png,h,1,0.8885425003245473,s,1,0.0952381999231875,0.04750070022419095,0.04844059981405735,0.09955279994755983,0.09954420011490583,0.7492483002133667
RSVPLG03,md,20260501-122725,1.0.2,20251105-084826,835,Experiment,Both,1,Automatic,main,26,20260501-123045,global,global,300,S,H,E,A,S-E.png,H-A.png,sS,hH,mask-3.png,mask-4.png,s,1,1.4111215001903474,h,1,0.1122588999569416,0.047698100097477436,0.04592409962788224,0.10054629994556308,0.09911419963464141,0.30087290005758405
RSVPLG03,md,20260501-122725,1.0.2,20251105-084826,835,Experiment,Both,1,Automatic,main,27,20260501-123050,global,local,300,H,H,E,A,H-E.png,A-H.png,hH,hH,mask-3.png,mask-3.png,h,1,1.0394970998167992,h,1,0.08568549994379282,0.04761239979416132,0.04768490046262741,0.10085679963231087,0.09987610019743443,0.3005159995518625
RSVPLG03,md,20260501-122725,1.0.2,20251105-084826,835,Experiment,Both,1,Automatic,main,28,20260501-123055,global,local,750,S,S,E,A,S-E.png,A-S.png,sS,sS,mask-3.png,mask-4.png,s,1,0.7002240000292659,s,1,0.12567829992622137,0.04764779983088374,0.04772920021787286,0.09959380002692342,0.0997681999579072,0.7501591998152435
RSVPLG03,md,20260501-122725,1.0.2,20251105-084826,835,Experiment,Both,1,Automatic,main,29,20260501-123100,local,global,750,S,S,E,A,E-S.png,S-A.png,sS,sS,mask-2.png,mask-4.png,s,1,0.6294244998134673,s,1,0.11119250021874905,0.04774350021034479,0.047051799949258566,0.10007929988205433,0.1002560998313129,0.7490777000784874
RSVPLG03,md,20260501-122725,1.0.2,20251105-084826,835,Experiment,Both,1,Automatic,main,30,20260501-123105,local,global,300,S,H,E,E,E-S.png,H-E.png,sS,hH,mask-1.png,mask-2.png,s,1,0.7178329001180828,h,1,0.07546439999714494,0.04657089989632368,0.0474240998737514,0.10098279966041446,0.10011349990963936,0.2998521998524666
RSVPLG03,md,20260501-122725,1.0.2,20251105-084826,835,Experiment,Both,1,Automatic,main,31,20260501-123109,global,local,750,S,S,E,A,S-E.png,A-S.png,sS,sS,mask-3.png,mask-3.png,s,1,0.5588424997404218,s,1,0.1082779997959733,0.04579799994826317,0.04685990000143647,0.10023989994078875,0.10024059982970357,0.7505079000256956
RSVPLG03,md,20260501-122725,1.0.2,20251105-084826,835,Experiment,Both,1,Automatic,main,32,20260501-123114,global,local,300,H,S,A,A,H-A.png,A-S.png,hH,sS,mask-1.png,mask-4.png,h,1,1.2655682996846735,h,0,0.11755410023033619,0.04686030000448227,0.04875889979302883,0.10022580018267035,0.10114469984546304,0.29908830020576715
RSVPLG03,md,20260501-122725,1.0.2,20251105-084826,835,Experiment,Both,1,Automatic,main,33,20260501-123119,local,global,750,S,S,E,E,E-S.png,S-E.png,sS,sS,mask-4.png,mask-2.png,s,1,0.5854835999198258,s,1,0.11885510012507439,0.047696299850940704,0.04768319986760616,0.09872839972376823,0.10045230016112328,0.7496488997712731
RSVPLG03,md,20260501-122725,1.0.2,20251105-084826,835,Experiment,Both,1,Automatic,main,34,20260501-123124,local,local,300,S,S,A,E,A-S.png,E-S.png,sS,sS,mask-4.png,mask-2.png,s,1,1.6197314001619816,h,0,0.12532550003379583,0.048766199965029955,0.04790289979428053,0.10094109969213605,0.1011011996306479,0.2997356001287699
RSVPLG03,md,20260501-122725,1.0.2,20251105-084826,835,Experiment,Both,1,Automatic,main,35,20260501-123129,local,global,750,S,H,A,E,A-S.png,H-E.png,sS,hH,mask-3.png,mask-1.png,s,1,1.1946554002352059,h,1,0.08581180032342672,0.048680400010198355,0.04772499995306134,0.10178729984909296,0.09929459961131215,0.751335000153631
RSVPLG03,md,20260501-122725,1.0.2,20251105-084826,835,Experiment,Both,1,Automatic,main,36,20260501-123134,local,local,300,S,H,E,A,E-S.png,A-H.png,sS,hH,mask-2.png,mask-4.png,s,1,1.1313840001821518,s,0,0.10828249994665384,0.04738479992374778,0.048305800184607506,0.09970159968361259,0.10108660021796823,0.29962849989533424
RSVPLG03,md,20260501-122725,1.0.2,20251105-084826,835,Experiment,Both,1,Automatic,main,37,20260501-123139,global,local,750,S,H,A,E,S-A.png,E-H.png,sS,hH,mask-1.png,mask-2.png,s,1,0.9266462000086904,s,0,0.08559089992195368,0.04753819992765784,0.04861379973590374,0.09955029981210828,0.10063309967517853,0.7489529000595212
RSVPLG03,md,20260501-122725,1.0.2,20251105-084826,835,Experiment,Both,1,Automatic,main,38,20260501-123144,local,local,300,H,S,E,A,E-H.png,A-S.png,hH,sS,mask-2.png,mask-1.png,h,1,0.8810446998104453,h,0,0.4257370000705123,0.04798140004277229,0.04772679973393679,0.09927200013771653,0.0999312000349164,0.30092870024964213
RSVPLG03,md,20260501-122725,1.0.2,20251105-084826,835,Experiment,Both,1,Automatic,main,39,20260501-123149,local,local,300,S,H,E,A,E-S.png,A-H.png,sS,hH,mask-1.png,mask-3.png,h,0,1.8213522001169622,s,0,0.0940292002633214,0.04751629987731576,0.046737199649214745,0.10172230005264282,0.10079599963501096,0.300963600166142
RSVPLG03,md,20260501-122725,1.0.2,20251105-084826,835,Experiment,Both,1,Automatic,main,40,20260501-123155,global,global,300,S,S,A,E,S-A.png,S-E.png,sS,sS,mask-4.png,mask-2.png,s,1,0.781428299844265,h,0,0.058155800215899944,0.047594800125807524,0.04770060023292899,0.1014992999844253,0.09989190008491278,0.29984419979155064
RSVPLG03,md,20260501-122725,1.0.2,20251105-084826,835,Experiment,Both,1,Automatic,main,41,20260501-123159,local,local,750,H,H,A,E,A-H.png,E-H.png,hH,hH,mask-2.png,mask-3.png,h,1,0.8080107001587749,h,1,0.0855876998975873,0.04776819981634617,0.047705099917948246,0.09947540005668998,0.10069000022485852,0.7494176998734474
RSVPLG03,md,20260501-122725,1.0.2,20251105-084826,835,Experiment,Both,1,Automatic,main,42,20260501-123204,global,global,300,S,H,A,E,S-A.png,H-E.png,sS,hH,mask-1.png,mask-3.png,h,0,0.7897401000373065,s,0,0.10813239961862564,0.04669420002028346,0.04761430015787482,0.10095479991286993,0.09881580015644431,0.3008614997379482
RSVPLG03,md,20260501-122725,1.0.2,20251105-084826,835,Experiment,Both,1,Automatic,main,43,20260501-123209,local,global,300,H,S,E,E,E-H.png,S-E.png,hH,sS,mask-2.png,mask-4.png,h,1,1.8014521999284625,s,1,0.09154120041057467,0.04750970005989075,0.04652859969064593,0.10135369980707765,0.09961749985814095,0.30185530008748174
RSVPLG03,md,20260501-122725,1.0.2,20251105-084826,835,Experiment,Both,1,Automatic,main,44,20260501-123215,local,global,300,S,S,E,E,E-S.png,S-E.png,sS,sS,mask-4.png,mask-2.png,s,1,1.0144517002627254,s,1,0.10998770035803318,0.04847010038793087,0.04831149987876415,0.10150620015338063,0.0993508999235928,0.300919400062412
RSVPLG03,md,20260501-122725,1.0.2,20251105-084826,835,Experiment,Both,1,Automatic,main,45,20260501-123219,global,local,300,S,H,A,E,S-A.png,E-H.png,sS,hH,mask-3.png,mask-3.png,s,1,1.494941100012511,h,1,0.10735550010576844,0.04848630027845502,0.047382999677211046,0.09961620019748807,0.09939319966360927,0.30098170042037964
RSVPLG03,md,20260501-122725,1.0.2,20251105-084826,835,Experiment,Both,1,Automatic,main,46,20260501-123225,global,global,750,S,S,A,A,S-A.png,S-A.png,sS,sS,mask-2.png,mask-3.png,s,1,0.6017398997209966,s,1,0.1063167997635901,0.04766560019925237,0.0475441999733448,0.09865140030160546,0.0988607001490891,0.7501194002106786
RSVPLG03,md,20260501-122725,1.0.2,20251105-084826,835,Experiment,Both,1,Automatic,main,47,20260501-123229,local,local,300,S,S,E,E,E-S.png,E-S.png,sS,sS,mask-4.png,mask-4.png,s,1,0.4644321002997458,s,1,0.10684699984267354,0.045537200290709734,0.0466105998493731,0.09824430011212826,0.09864469990134239,0.29967140033841133
RSVPLG03,md,20260501-122725,1.0.2,20251105-084826,835,Experiment,Both,1,Automatic,main,48,20260501-123234,local,global,300,H,H,E,A,E-H.png,H-A.png,hH,hH,mask-2.png,mask-2.png,h,1,1.7458285000175238,s,0,0.11492139985784888,0.04748959979042411,0.04730390012264252,0.09988230001181364,0.09919039998203516,0.3011787999421358
RSVPLG03,md,20260501-122725,1.0.2,20251105-084826,835,Experiment,Both,1,Automatic,main,49,20260501-123239,global,global,300,S,S,A,A,S-A.png,S-A.png,sS,sS,mask-3.png,mask-3.png,s,1,1.1642895000986755,s,1,0.09244849998503923,0.04683370003476739,0.04595900001004338,0.0995462997816503,0.10003340011462569,0.3005353999324143
RSVPLG03,md,20260501-122725,1.0.2,20251105-084826,835,Experiment,Both,1,Automatic,main,50,20260501-123244,global,local,750,S,H,A,E,S-A.png,E-H.png,sS,hH,mask-1.png,mask-3.png,s,1,0.6947034997865558,s,0,0.10416630003601313,0.0467615001834929,0.04773580003529787,0.09983170032501221,0.10008429968729615,0.7492062002420425
RSVPLG03,md,20260501-122725,1.0.2,20251105-084826,835,Experiment,Both,1,Automatic,main,51,20260501-123252,local,local,750,S,H,A,E,A-S.png,E-H.png,sS,hH,mask-3.png,mask-4.png,s,1,0.6737906001508236,s,0,0.09273920021951199,0.04646330000832677,0.04740829998627305,0.0992195000872016,0.09928440023213625,0.7501579998061061
RSVPLG03,md,20260501-122725,1.0.2,20251105-084826,835,Experiment,Both,1,Automatic,main,52,20260501-123257,global,global,750,H,H,A,E,H-A.png,H-E.png,hH,hH,mask-4.png,mask-1.png,h,1,0.6595124001614749,h,1,0.10846189968287945,0.047676799818873405,0.04595409985631704,0.10008580004796386,0.0999245997518301,0.7506204000674188
RSVPLG03,md,20260501-122725,1.0.2,20251105-084826,835,Experiment,Both,1,Automatic,main,53,20260501-123301,local,global,300,H,S,E,E,E-H.png,S-E.png,hH,sS,mask-4.png,mask-4.png,s,0,1.0197640000842512,s,1,0.09030119981616735,0.04767120024189353,0.04782909993082285,0.10030780034139752,0.09965700004249811,0.29995750030502677
RSVPLG03,md,20260501-122725,1.0.2,20251105-084826,835,Experiment,Both,1,Automatic,main,54,20260501-123306,global,local,300,H,H,E,A,H-E.png,A-H.png,hH,hH,mask-4.png,mask-4.png,h,1,1.3097692001610994,s,0,0.08564769988879561,0.04574880003929138,0.04769140016287565,0.09898070013150573,0.09917399985715747,0.3000717000104487
RSVPLG03,md,20260501-122725,1.0.2,20251105-084826,835,Experiment,Both,1,Automatic,main,55,20260501-123311,global,local,750,S,S,E,A,S-E.png,A-S.png,sS,sS,mask-4.png,mask-3.png,s,1,0.5544181000441313,s,1,0.10008200025185943,0.04787380015477538,0.046922000125050545,0.10028279991820455,0.09932629996910691,0.7508343998342752
RSVPLG03,md,20260501-122725,1.0.2,20251105-084826,835,Experiment,Both,1,Automatic,main,56,20260501-123316,local,local,300,H,S,E,A,E-H.png,A-S.png,hH,sS,mask-2.png,mask-2.png,h,1,1.0395790999755263,s,1,0.18213180033490062,0.04762209998443723,0.04758050013333559,0.10037120012566447,0.10005010012537241,0.2987998998723924
RSVPLG03,md,20260501-122725,1.0.2,20251105-084826,835,Experiment,Both,1,Automatic,main,57,20260501-123321,global,global,750,H,S,E,E,H-E.png,S-E.png,hH,sS,mask-2.png,mask-2.png,s,0,2.106688200030476,s,1,0.5654950002208352,0.04752539983019233,0.04753299988806248,0.09953620005398989,0.09955789986997843,0.7505132001824677
RSVPLG03,md,20260501-122725,1.0.2,20251105-084826,835,Experiment,Both,1,Automatic,main,58,20260501-123328,local,local,750,H,S,A,A,A-H.png,A-S.png,hH,sS,mask-3.png,mask-1.png,h,1,1.4881452000699937,h,0,0.12411340000107884,0.04950040020048618,0.04753280011937022,0.10048420028761029,0.1015620999969542,0.7506931000389159
RSVPLG03,md,20260501-122725,1.0.2,20251105-084826,835,Experiment,Both,1,Automatic,main,59,20260501-123333,global,global,750,H,S,A,A,H-A.png,S-A.png,hH,sS,mask-4.png,mask-1.png,h,1,0.8004509001038969,s,1,0.13212580000981688,0.047378700226545334,0.04869539989158511,0.1003711000084877,0.10070319985970855,0.7502882000990212
RSVPLG03,md,20260501-122725,1.0.2,20251105-084826,835,Experiment,Both,1,Automatic,main,60,20260501-123339,local,local,750,H,S,A,E,A-H.png,E-S.png,hH,sS,mask-3.png,mask-2.png,h,1,0.7133538997732103,s,1,0.13716770010069013,0.04654960008338094,0.047512199729681015,0.10022780019789934,0.10031239967793226,0.7514614001847804
RSVPLG03,md,20260501-122725,1.0.2,20251105-084826,835,Experiment,Both,1,Automatic,main,61,20260501-123344,global,local,300,H,H,E,A,H-E.png,A-H.png,hH,hH,mask-1.png,mask-3.png,h,1,1.1156589998863637,h,1,0.8522945996373892,0.049601299688220024,0.04856019979342818,0.10059450007975101,0.1005613999441266,0.3001745999790728
RSVPLG03,md,20260501-122725,1.0.2,20251105-084826,835,Experiment,Both,1,Automatic,main,62,20260501-123349,local,local,300,H,S,E,E,E-H.png,E-S.png,hH,sS,mask-2.png,mask-4.png,h,1,1.634262700099498,s,1,0.08951109973713756,0.049672000110149384,0.04870789963752031,0.10186890000477433,0.10007869964465499,0.30052780034020543
RSVPLG03,md,20260501-122725,1.0.2,20251105-084826,835,Experiment,Both,1,Automatic,main,63,20260501-123355,local,global,750,S,S,A,A,A-S.png,S-A.png,sS,sS,mask-4.png,mask-2.png,s,1,0.9128005998209119,s,1,0.15411639958620071,0.04776840005069971,0.048724899999797344,0.09999650018289685,0.10185509966686368,0.7485540001653135
RSVPLG03,md,20260501-122725,1.0.2,20251105-084826,835,Experiment,Both,1,Automatic,main,64,20260501-123400,global,local,750,H,S,E,E,H-E.png,E-S.png,hH,sS,mask-2.png,mask-2.png,h,1,0.7457885998301208,s,1,0.17410679999738932,0.04860290000215173,0.04696519998833537,0.10082460008561611,0.1001745997928083,0.7508610999211669
RSVPLG03,md,20260501-122725,1.0.2,20251105-084826,835,Experiment,Both,1,Automatic,main,65,20260501-123405,local,global,750,S,H,A,A,A-S.png,H-A.png,sS,hH,mask-1.png,mask-1.png,h,0,1.566614099778235,s,0,0.18226039968430996,0.04669300001114607,0.04844659985974431,0.099896099884063,0.09955869987607002,0.7488647000864148
RSVPLG03,md,20260501-122725,1.0.2,20251105-084826,835,Experiment,Both,1,Automatic,main,66,20260501-123411,local,local,300,H,S,E,E,E-H.png,E-S.png,hH,sS,mask-1.png,mask-4.png,s,0,1.0189123996533453,s,1,0.11222179979085922,0.046641099732369184,0.0486279996111989,0.09828379983082414,0.09968440001830459,0.29857710003852844
RSVPLG03,md,20260501-122725,1.0.2,20251105-084826,835,Experiment,Both,1,Automatic,main,67,20260501-123416,global,local,750,H,H,E,E,H-E.png,E-H.png,hH,hH,mask-3.png,mask-4.png,h,1,0.7185014998540282,h,1,0.10720610013231635,0.04754390008747578,0.04819579981267452,0.09953180002048612,0.10057869972661138,0.7485195002518594
RSVPLG03,md,20260501-122725,1.0.2,20251105-084826,835,Experiment,Both,1,Automatic,main,68,20260501-123421,local,local,300,H,S,A,A,A-H.png,A-S.png,hH,sS,mask-3.png,mask-2.png,h,1,0.4641762999817729,h,0,0.09296529972925782,0.04738219967111945,0.04717129981145263,0.1003375998698175,0.10111859999597073,0.29873690009117126
RSVPLG03,md,20260501-122725,1.0.2,20251105-084826,835,Experiment,Both,1,Automatic,main,69,20260501-123425,local,global,750,S,H,A,E,A-S.png,H-E.png,sS,hH,mask-1.png,mask-3.png,s,1,1.112192100379616,h,1,0.15317359985783696,0.046434199903160334,0.04739120043814182,0.1005142000503838,0.10058380011469126,0.7499532997608185
RSVPLG03,md,20260501-122725,1.0.2,20251105-084826,835,Experiment,Both,1,Automatic,main,70,20260501-123430,local,local,300,H,S,A,A,A-H.png,A-S.png,hH,sS,mask-4.png,mask-2.png,h,1,1.5338091999292374,h,0,0.11840740032494068,0.04772099992260337,0.04771469999104738,0.10034599993377924,0.10027190018445253,0.2996274996548891
RSVPLG03,md,20260501-122725,1.0.2,20251105-084826,835,Experiment,Both,1,Automatic,main,71,20260501-123436,local,global,300,S,S,E,E,E-S.png,S-E.png,sS,sS,mask-1.png,mask-1.png,s,1,1.1769901001825929,s,1,0.13941510021686554,0.04852419998496771,0.04692909959703684,0.1002786997705698,0.09906589984893799,0.30092940013855696
RSVPLG03,md,20260501-122725,1.0.2,20251105-084826,835,Experiment,Both,1,Automatic,main,72,20260501-123441,global,global,300,S,S,E,A,S-E.png,S-A.png,sS,sS,mask-2.png,mask-2.png,s,1,0.4388564000837505,s,1,0.09885390009731054,0.04673679964616895,0.04872910026460886,0.10117119969800115,0.0998754003085196,0.29993109963834286
RSVPLG03,md,20260501-122725,1.0.2,20251105-084826,835,Experiment,Both,1,Automatic,main,73,20260501-123445,local,global,750,H,H,A,E,A-H.png,H-E.png,hH,hH,mask-1.png,mask-1.png,h,1,2.0056334999389946,h,1,0.1482994998805225,0.047239699866622686,0.04854940017685294,0.09937129961326718,0.1017122003249824,0.7486249995417893
RSVPLG03,md,20260501-122725,1.0.2,20251105-084826,835,Experiment,Both,1,Automatic,main,74,20260501-123451,local,local,750,H,S,A,A,A-H.png,A-S.png,hH,sS,mask-2.png,mask-3.png,h,1,0.8366466001607478,h,0,0.11930959997698665,0.04736109962686896,0.047622999642044306,0.09972559986636043,0.09984909975901246,0.750638599973172
RSVPLG03,md,20260501-122725,1.0.2,20251105-084826,835,Experiment,Both,1,Automatic,main,75,20260501-123456,local,local,300,H,S,E,A,E-H.png,A-S.png,hH,sS,mask-2.png,mask-2.png,h,1,2.4524905998259783,s,1,0.10632180003449321,0.04782600002363324,0.0477076000533998,0.10000810027122498,0.0999401998706162,0.3007737002335489
RSVPLG03,md,20260501-122725,1.0.2,20251105-084826,835,Experiment,Both,1,Automatic,main,76,20260501-123615,local,global,750,S,H,E,E,E-S.png,H-E.png,sS,hH,mask-2.png,mask-1.png,s,1,0.8865372999571264,h,1,0.08560900017619133,0.04780380008742213,0.04783090017735958,0.09904900006949902,0.10000229999423027,0.750373899936676
RSVPLG03,md,20260501-122725,1.0.2,20251105-084826,835,Experiment,Both,1,Automatic,main,77,20260501-123620,local,global,300,H,S,E,A,E-H.png,S-A.png,hH,sS,mask-3.png,mask-4.png,s,0,1.2674707002006471,h,0,0.09154140017926693,0.04762479988858104,0.04765450023114681,0.09968760004267097,0.1007022000849247,0.29967219987884164
RSVPLG03,md,20260501-122725,1.0.2,20251105-084826,835,Experiment,Both,1,Automatic,main,78,20260501-123625,global,global,300,H,S,A,A,H-A.png,S-A.png,hH,sS,mask-1.png,mask-1.png,h,1,0.6609640996903181,s,1,0.07427110010758042,0.04767430014908314,0.04841629974544048,0.10009570000693202,0.10081980004906654,0.29975090036168694
RSVPLG03,md,20260501-122725,1.0.2,20251105-084826,835,Experiment,Both,1,Automatic,main,79,20260501-123630,global,local,300,S,S,A,E,S-A.png,E-S.png,sS,sS,mask-3.png,mask-2.png,s,1,0.5242886999621987,s,1,0.07707800017669797,0.0480816001072526,0.04750660015270114,0.10024429997429252,0.10075889993458986,0.30055970000103116
RSVPLG03,md,20260501-122725,1.0.2,20251105-084826,835,Experiment,Both,1,Automatic,main,80,20260501-123634,global,global,300,S,H,A,E,S-A.png,H-E.png,sS,hH,mask-4.png,mask-2.png,s,1,2.046675699763,h,1,0.1197656998410821,0.04750330001115799,0.04752600006759167,0.09908229997381568,0.09956490015611053,0.3004370997659862
RSVPLG03,md,20260501-122725,1.0.2,20251105-084826,835,Experiment,Both,1,Automatic,main,81,20260501-123640,local,local,750,H,S,A,A,A-H.png,A-S.png,hH,sS,mask-2.png,mask-2.png,h,1,0.870042699854821,h,0,0.09160879999399185,0.04844539985060692,0.046068300027400255,0.10119190020486712,0.10054509993642569,0.7513403999619186
RSVPLG03,md,20260501-122725,1.0.2,20251105-084826,835,Experiment,Both,1,Automatic,main,82,20260501-123645,global,global,300,S,S,E,A,S-E.png,S-A.png,sS,sS,mask-4.png,mask-3.png,s,1,0.7395748998969793,s,1,0.0745636997744441,0.046424999833106995,0.047100100200623274,0.09978529997169971,0.0998505000025034,0.29955599969252944
RSVPLG03,md,20260501-122725,1.0.2,20251105-084826,835,Experiment,Both,1,Automatic,main,83,20260501-123649,local,global,300,S,S,A,E,A-S.png,S-E.png,sS,sS,mask-3.png,mask-3.png,s,1,0.7125130998902023,s,1,0.07144640013575554,0.04751639999449253,0.04649859992787242,0.09871380031108856,0.09954320034012198,0.3000896000303328
RSVPLG03,md,20260501-122725,1.0.2,20251105-084826,835,Experiment,Both,1,Automatic,main,84,20260501-123654,global,global,750,S,H,A,A,S-A.png,H-A.png,sS,hH,mask-3.png,mask-1.png,s,1,0.5335357999429107,h,1,0.05653299996629357,0.046948700211942196,0.04769809963181615,0.09992700023576617,0.0999093996360898,0.7504669004119933
RSVPLG03,md,20260501-122725,1.0.2,20251105-084826,835,Experiment,Both,1,Automatic,main,85,20260501-123659,local,global,750,S,S,E,A,E-S.png,S-A.png,sS,sS,mask-4.png,mask-3.png,s,1,0.6163562000729144,s,1,0.08757140021771193,0.04772070003673434,0.048705500084906816,0.09991749981418252,0.09994539991021156,0.7500495999120176
RSVPLG03,md,20260501-122725,1.0.2,20251105-084826,835,Experiment,Both,1,Automatic,main,86,20260501-123703,local,local,750,S,S,E,E,E-S.png,E-S.png,sS,sS,mask-2.png,mask-1.png,s,1,0.44180480018258095,s,1,0.09156799968332052,0.047511199954897165,0.047515599988400936,0.09970320016145706,0.09955060016363859,0.7499811998568475
RSVPLG03,md,20260501-122725,1.0.2,20251105-084826,835,Experiment,Both,1,Automatic,main,87,20260501-123708,global,global,300,H,H,A,A,H-A.png,H-A.png,hH,hH,mask-1.png,mask-3.png,h,1,0.6748982998542488,h,1,0.08976500015705824,0.04641779977828264,0.04748660000041127,0.10031819995492697,0.09876549988985062,0.3003115998581052
RSVPLG03,md,20260501-122725,1.0.2,20251105-084826,835,Experiment,Both,1,Automatic,main,88,20260501-123713,global,global,750,S,H,E,A,S-E.png,H-A.png,sS,hH,mask-4.png,mask-1.png,s,1,0.5496680000796914,h,1,0.08185450034216046,0.04680110001936555,0.04770360002294183,0.10127090010792017,0.09993659984320402,0.7512488001957536
RSVPLG03,md,20260501-122725,1.0.2,20251105-084826,835,Experiment,Both,1,Automatic,main,89,20260501-123717,global,global,750,S,H,A,E,S-A.png,H-E.png,sS,hH,mask-2.png,mask-4.png,s,1,0.4725311999209225,h,1,0.05316440016031265,0.047765299677848816,0.04764770017936826,0.10091149993240833,0.10054629994556308,0.7514235996641219
RSVPLG03,md,20260501-122725,1.0.2,20251105-084826,835,Experiment,Both,1,Automatic,main,90,20260501-123722,global,global,750,S,S,E,E,S-E.png,S-E.png,sS,sS,mask-3.png,mask-4.png,s,1,0.491145399864763,s,1,0.11961599998176098,0.04754990013316274,0.04765870003029704,0.10020519979298115,0.09884350001811981,0.7509233998134732
RSVPLG03,md,20260501-122725,1.0.2,20251105-084826,835,Experiment,Both,1,Automatic,main,91,20260501-123727,local,local,750,H,S,A,E,A-H.png,E-S.png,hH,sS,mask-1.png,mask-4.png,h,1,0.7723751999437809,s,1,0.12534609995782375,0.04768989980220795,0.048110300209373236,0.0988914999179542,0.10135450027883053,0.7486803997308016
RSVPLG03,md,20260501-122725,1.0.2,20251105-084826,835,Experiment,Both,1,Automatic,main,92,20260501-123732,local,global,750,H,H,E,E,E-H.png,H-E.png,hH,hH,mask-3.png,mask-3.png,h,1,1.3189836000092328,h,1,0.08653189986944199,0.04755720030516386,0.047722899820655584,0.10075720027089119,0.09940479975193739,0.7504179002717137
RSVPLG03,md,20260501-122725,1.0.2,20251105-084826,835,Experiment,Both,1,Automatic,main,93,20260501-123737,local,global,300,S,H,E,E,E-S.png,H-E.png,sS,hH,mask-2.png,mask-1.png,s,1,1.0365947997197509,h,1,0.11970550008118153,0.04754329985007644,0.04871820006519556,0.10057309968397021,0.10128300031647086,0.2995019997470081
RSVPLG03,md,20260501-122725,1.0.2,20251105-084826,835,Experiment,Both,1,Automatic,main,94,20260501-123742,local,global,750,S,H,E,A,E-S.png,H-A.png,sS,hH,mask-3.png,mask-4.png,s,1,0.49925959995016456,h,1,0.07136090006679296,0.04782520001754165,0.047819599974900484,0.10063230013474822,0.10025350004434586,0.750383900012821
RSVPLG03,md,20260501-122725,1.0.2,20251105-084826,835,Experiment,Both,1,Automatic,main,95,20260501-123747,global,global,300,H,S,E,E,H-E.png,S-E.png,hH,sS,mask-4.png,mask-1.png,h,1,0.8071922999806702,s,1,0.052090900018811226,0.04869249975308776,0.04829509975388646,0.10089180013164878,0.10158819984644651,0.29946380015462637
RSVPLG03,md,20260501-122725,1.0.2,20251105-084826,835,Experiment,Both,1,Automatic,main,96,20260501-123751,global,global,750,H,S,E,A,H-E.png,S-A.png,hH,sS,mask-2.png,mask-1.png,h,1,0.6649582996033132,s,1,0.12448380002751946,0.04891410004347563,0.04669270012527704,0.10035850014537573,0.09895450016483665,0.7512496002018452
RSVPLG03,md,20260501-122725,1.0.2,20251105-084826,835,Experiment,Both,1,Automatic,main,97,20260501-123756,local,local,750,S,H,A,A,A-S.png,A-H.png,sS,hH,mask-3.png,mask-4.png,s,1,0.524777099955827,h,1,0.08071090001612902,0.0475828000344336,0.04768959991633892,0.10081040021032095,0.09997230023145676,0.7511611999943852
RSVPLG03,md,20260501-122725,1.0.2,20251105-084826,835,Experiment,Both,1,Automatic,main,98,20260501-123801,global,local,300,H,S,A,A,H-A.png,A-S.png,hH,sS,mask-2.png,mask-4.png,h,1,0.888944000005722,s,1,0.07480349997058511,0.047505199909210205,0.04752829996868968,0.10156229976564646,0.10155640030279756,0.29988189972937107
RSVPLG03,md,20260501-122725,1.0.2,20251105-084826,835,Experiment,Both,1,Automatic,main,99,20260501-123805,global,local,750,S,H,A,A,S-A.png,A-H.png,sS,hH,mask-4.png,mask-3.png,s,1,0.4571484001353383,h,1,0.2370716999284923,0.04786879988387227,0.04752000002190471,0.09995619999244809,0.0995299001224339,0.7499290998093784
RSVPLG03,md,20260501-122725,1.0.2,20251105-084826,835,Experiment,Both,1,Automatic,main,100,20260501-123810,global,local,750,S,H,A,A,S-A.png,A-H.png,sS,hH,mask-1.png,mask-1.png,s,1,0.8152270000427961,h,1,0.08417499996721745,0.04689660016447306,0.04573610005900264,0.09992979979142547,0.09840840008109808,0.7507708999328315
RSVPLG03,md,20260501-123905,1.0.2,20251105-084826,835,Experiment,Both,1,Automatic,warmup,1,20260501-123927,global,local,750,S,H,E,E,S-E.png,E-H.png,sS,hH,mask-1.png,mask-1.png,s,1,2.8755129002965987,h,1,0.023258700035512447,0.03889589989557862,0.04764140024781227,0.09222499979659915,0.09985079988837242,0.7423072997480631
RSVPLG03,md,20260501-123905,1.0.2,20251105-084826,835,Experiment,Both,1,Automatic,warmup,2,20260501-123934,local,global,300,H,S,E,E,E-H.png,S-E.png,hH,sS,mask-4.png,mask-4.png,h,1,0.8650440997444093,s,1,0.07717410009354353,0.048898700159043074,0.04768980015069246,0.10011949995532632,0.10092979995533824,0.2998656998388469
RSVPLG03,md,20260501-123905,1.0.2,20251105-084826,835,Experiment,Both,1,Automatic,warmup,3,20260501-123938,local,local,300,S,S,A,A,A-S.png,A-S.png,sS,sS,mask-4.png,mask-2.png,s,1,0.7512797000817955,s,1,0.1261706999503076,0.04761270014569163,0.04685519961640239,0.10024440009146929,0.10095139965415001,0.2999329003505409
RSVPLG03,md,20260501-123905,1.0.2,20251105-084826,835,Experiment,Both,1,Automatic,warmup,4,20260501-123943,local,global,750,S,S,E,A,E-S.png,S-A.png,sS,sS,mask-4.png,mask-1.png,s,1,0.6455377000384033,s,1,0.10576160019263625,0.047516100108623505,0.04720039991661906,0.10055139986798167,0.09966529998928308,0.748868000227958
RSVPLG03,md,20260501-123905,1.0.2,20251105-084826,835,Experiment,Both,1,Automatic,main,5,20260501-123948,global,global,300,S,H,A,E,S-A.png,H-E.png,sS,hH,mask-4.png,mask-1.png,s,1,0.8115073000080884,h,1,0.05658259987831116,0.04824669985100627,0.04752379981800914,0.10099910013377666,0.09852929972112179,0.3012107000686228
RSVPLG03,md,20260501-123905,1.0.2,20251105-084826,835,Experiment,Both,1,Automatic,main,6,20260501-123952,local,global,300,H,S,E,A,E-H.png,S-A.png,hH,sS,mask-2.png,mask-2.png,s,0,0.8406096999533474,s,1,0.11586869973689318,0.04573020013049245,0.047701300121843815,0.09975200006738305,0.09990329993888736,0.29801269993185997
RSVPLG03,md,20260501-123905,1.0.2,20251105-084826,835,Experiment,Both,1,Automatic,main,7,20260501-123957,local,global,750,S,H,A,E,A-S.png,H-E.png,sS,hH,mask-3.png,mask-1.png,s,1,1.257243299856782,h,1,0.05407519964501262,0.047735500149428844,0.0469136000610888,0.09933230001479387,0.0998029001057148,0.7499096002429724
RSVPLG03,md,20260501-123905,1.0.2,20251105-084826,835,Experiment,Both,1,Automatic,main,8,20260501-124002,local,local,750,S,H,A,E,A-S.png,E-H.png,sS,hH,mask-4.png,mask-4.png,s,1,0.8308260999619961,h,1,0.0784752001054585,0.048011899925768375,0.048354099970310926,0.10027209995314479,0.09953879984095693,0.7501194998621941
RSVPLG03,md,20260501-123905,1.0.2,20251105-084826,835,Experiment,Both,1,Automatic,main,9,20260501-124007,local,local,750,S,H,A,A,A-S.png,A-H.png,sS,hH,mask-2.png,mask-4.png,s,1,0.7749160001985729,h,1,0.08643619995564222,0.04608820006251335,0.0480106002651155,0.09877109993249178,0.10001830011606216,0.7483190996572375
RSVPLG03,md,20260501-123905,1.0.2,20251105-084826,835,Experiment,Both,1,Automatic,main,10,20260501-124012,local,global,300,H,H,A,A,A-H.png,H-A.png,hH,hH,mask-1.png,mask-3.png,h,1,1.0541819003410637,h,1,0.10401370003819466,0.04806319996714592,0.047456400003284216,0.09998409962281585,0.10058319987729192,0.3000516998581588
RSVPLG03,md,20260501-123905,1.0.2,20251105-084826,835,Experiment,Both,1,Automatic,main,11,20260501-124017,local,global,750,S,H,E,A,E-S.png,H-A.png,sS,hH,mask-2.png,mask-3.png,s,1,0.4567795000039041,h,1,0.09551160037517548,0.04761270014569163,0.04760489985346794,0.09971150010824203,0.09991389978677034,0.7484305002726614
RSVPLG03,md,20260501-123905,1.0.2,20251105-084826,835,Experiment,Both,1,Automatic,main,12,20260501-124022,global,local,750,S,H,A,A,S-A.png,A-H.png,sS,hH,mask-4.png,mask-1.png,s,1,1.1364620998501778,s,0,0.08960689976811409,0.046660699881613255,0.04701480036601424,0.1009494997560978,0.09962890017777681,0.7488405997864902
RSVPLG03,md,20260501-123905,1.0.2,20251105-084826,835,Experiment,Both,1,Automatic,main,13,20260501-124027,global,local,750,S,S,E,A,S-E.png,A-S.png,sS,sS,mask-4.png,mask-2.png,s,1,0.5541433999314904,s,1,0.09142720000818372,0.04769500019028783,0.047714400105178356,0.0988938002847135,0.0999304000288248,0.748359200078994
RSVPLG03,md,20260501-123905,1.0.2,20251105-084826,835,Experiment,Both,1,Automatic,main,14,20260501-124032,local,global,750,S,S,A,E,A-S.png,S-E.png,sS,sS,mask-2.png,mask-3.png,s,1,0.46583979995921254,s,1,0.1007439000532031,0.04663850041106343,0.04859700007364154,0.09985920041799545,0.10108519997447729,0.7481721001677215
RSVPLG03,md,20260501-123905,1.0.2,20251105-084826,835,Experiment,Both,1,Automatic,main,15,20260501-124036,local,local,750,H,H,E,E,E-H.png,E-H.png,hH,hH,mask-1.png,mask-4.png,s,0,0.8069124002940953,h,1,0.04232490016147494,0.04748860001564026,0.047575199976563454,0.09955829987302423,0.10031019989401102,0.7489888998679817
RSVPLG03,md,20260501-123905,1.0.2,20251105-084826,835,Experiment,Both,1,Automatic,main,16,20260501-124041,global,global,300,S,H,E,A,S-E.png,H-A.png,sS,hH,mask-1.png,mask-1.png,s,1,3.3221293999813497,h,1,0.14371509989723563,0.0478573995642364,0.04795139981433749,0.09912869986146688,0.09998820023611188,0.29971619974821806
RSVPLG03,md,20260501-123905,1.0.2,20251105-084826,835,Experiment,Both,1,Automatic,main,17,20260501-124048,local,local,300,S,S,A,E,A-S.png,E-S.png,sS,sS,mask-1.png,mask-2.png,s,1,0.9104997999966145,h,0,0.05564210005104542,0.048399200197309256,0.04718059999868274,0.10055890027433634,0.10127470036968589,0.3003922998905182
RSVPLG03,md,20260501-123905,1.0.2,20251105-084826,835,Experiment,Both,1,Automatic,main,18,20260501-124053,local,global,300,H,S,A,E,A-H.png,S-E.png,hH,sS,mask-2.png,mask-4.png,h,1,0.6692413999699056,s,1,0.03860590001568198,0.047655200120061636,0.04652029974386096,0.09931479999795556,0.09967519994825125,0.29933630023151636
RSVPLG03,md,20260501-123905,1.0.2,20251105-084826,835,Experiment,Both,1,Automatic,main,19,20260501-124057,global,local,300,H,S,A,E,H-A.png,E-S.png,hH,sS,mask-2.png,mask-4.png,h,1,0.6555997999384999,s,1,0.08758429996669292,0.04853740008547902,0.04666610015556216,0.10009950026869774,0.09801300009712577,0.3015052000992
RSVPLG03,md,20260501-123905,1.0.2,20251105-084826,835,Experiment,Both,1,Automatic,main,20,20260501-124102,global,global,300,H,S,E,A,H-E.png,S-A.png,hH,sS,mask-1.png,mask-3.png,h,1,0.5199748002924025,s,1,0.07776590017601848,0.04670830024406314,0.04881810024380684,0.09991490002721548,0.1002802001312375,0.2987146000377834
RSVPLG03,md,20260501-123905,1.0.2,20251105-084826,835,Experiment,Both,1,Automatic,main,21,20260501-124106,local,global,750,H,H,A,A,A-H.png,H-A.png,hH,hH,mask-3.png,mask-1.png,h,1,0.4491865998134017,h,1,0.07041999977082014,0.04756350023671985,0.04783649975433946,0.09959830017760396,0.09990399982780218,0.7481948002241552
RSVPLG03,md,20260501-123905,1.0.2,20251105-084826,835,Experiment,Both,1,Automatic,main,22,20260501-124111,local,local,750,H,H,E,E,E-H.png,E-H.png,hH,hH,mask-4.png,mask-3.png,h,1,0.3886449998244643,h,1,0.12452560011297464,0.04678290011361241,0.046800300013273954,0.09896219987422228,0.0990798999555409,0.7496632002294064
RSVPLG03,md,20260501-123905,1.0.2,20251105-084826,835,Experiment,Both,1,Automatic,main,23,20260501-124115,local,local,750,S,S,A,E,A-S.png,E-S.png,sS,sS,mask-1.png,mask-1.png,h,0,0.6884526000358164,s,1,0.14843509998172522,0.04778619995340705,0.04670609999448061,0.1000201003625989,0.09892449993640184,0.7505993000231683
RSVPLG03,md,20260501-123905,1.0.2,20251105-084826,835,Experiment,Both,1,Automatic,main,24,20260501-124120,global,global,750,S,S,A,A,S-A.png,S-A.png,sS,sS,mask-1.png,mask-4.png,s,1,1.1874925000593066,s,1,0.9360596998594701,0.04859689995646477,0.046721700113266706,0.10023540025576949,0.0999308000318706,0.7497304999269545
RSVPLG03,md,20260501-123905,1.0.2,20251105-084826,835,Experiment,Both,1,Automatic,main,25,20260501-124127,global,local,750,H,H,E,E,H-E.png,E-H.png,hH,hH,mask-1.png,mask-3.png,h,1,0.4422128996811807,h,1,0.09452910022810102,0.0466070999391377,0.04770260024815798,0.09973010001704097,0.10093880025669932,0.7489805999211967
RSVPLG03,md,20260501-123905,1.0.2,20251105-084826,835,Experiment,Both,1,Automatic,main,26,20260501-124315,local,local,750,H,H,E,E,E-H.png,E-H.png,hH,hH,mask-1.png,mask-4.png,h,1,0.5123509000986814,h,1,0.1447006999514997,0.04643830005079508,0.04752429993823171,0.09833669988438487,0.09975200006738305,0.7489155000075698
RSVPLG03,md,20260501-123905,1.0.2,20251105-084826,835,Experiment,Both,1,Automatic,main,27,20260501-124320,global,local,750,H,H,A,A,H-A.png,A-H.png,hH,hH,mask-4.png,mask-4.png,h,1,0.21841409988701344,h,1,0.1005727001465857,0.046235399786382914,0.04884470021352172,0.09972909977659583,0.10006900038570166,0.7481525996699929
RSVPLG03,md,20260501-123905,1.0.2,20251105-084826,835,Experiment,Both,1,Automatic,main,28,20260501-124324,global,local,300,H,H,E,E,H-E.png,E-H.png,hH,hH,mask-4.png,mask-4.png,h,1,0.7678078999742866,s,0,0.1728819003328681,0.04759309999644756,0.04760409984737635,0.10075569991022348,0.10133189987391233,0.2996215997263789
RSVPLG03,md,20260501-123905,1.0.2,20251105-084826,835,Experiment,Both,1,Automatic,main,29,20260501-124329,global,global,750,S,S,A,E,S-A.png,S-E.png,sS,sS,mask-3.png,mask-4.png,h,0,0.40171709982678294,s,1,0.130774499848485,0.04758960008621216,0.04761870019137859,0.09961669985204935,0.09868159983307123,0.7506913999095559
RSVPLG03,md,20260501-123905,1.0.2,20251105-084826,835,Experiment,Both,1,Automatic,main,30,20260501-124334,local,local,300,H,S,A,A,A-H.png,A-S.png,hH,sS,mask-4.png,mask-2.png,h,1,1.3484331998042762,s,1,0.15968520008027554,0.047391900327056646,0.04747940041124821,0.0994597002863884,0.09991640038788319,0.2997202998958528
RSVPLG03,md,20260501-123905,1.0.2,20251105-084826,835,Experiment,Both,1,Automatic,main,31,20260501-124339,global,global,750,H,H,A,E,H-A.png,H-E.png,hH,hH,mask-3.png,mask-3.png,h,1,0.46484409971162677,h,1,0.10027680033817887,0.04871230013668537,0.046647700015455484,0.10092249978333712,0.09987810021266341,0.7511069998145103
RSVPLG03,md,20260501-123905,1.0.2,20251105-084826,835,Experiment,Both,1,Automatic,main,32,20260501-124344,global,global,300,S,H,E,E,S-E.png,H-E.png,sS,hH,mask-1.png,mask-4.png,s,1,2.247828599996865,s,0,0.08784259995445609,0.04743060003966093,0.04763300018385053,0.1014568000100553,0.101609299890697,0.2996375998482108
RSVPLG03,md,20260501-123905,1.0.2,20251105-084826,835,Experiment,Both,1,Automatic,main,33,20260501-124350,global,local,750,H,S,E,A,H-E.png,A-S.png,hH,sS,mask-1.png,mask-4.png,h,1,0.5148126999847591,h,0,0.07479400001466274,0.046998600009828806,0.046914299950003624,0.09993050014600158,0.10007009981200099,0.7490866002626717
RSVPLG03,md,20260501-123905,1.0.2,20251105-084826,835,Experiment,Both,1,Automatic,main,34,20260501-124354,local,global,750,H,S,A,A,A-H.png,S-A.png,hH,sS,mask-1.png,mask-2.png,h,1,0.6159953000023961,s,1,0.07174829998984933,0.04689780017361045,0.048998499754816294,0.09953740006312728,0.10075069963932037,0.7489210003986955
RSVPLG03,md,20260501-123905,1.0.2,20251105-084826,835,Experiment,Both,1,Automatic,main,35,20260501-124359,global,local,750,H,S,A,E,H-A.png,E-S.png,hH,sS,mask-3.png,mask-2.png,h,1,0.6753259999677539,s,1,0.1513744001276791,0.04700669972226024,0.047224000096321106,0.10038369987159967,0.10127750039100647,0.7492282995954156
RSVPLG03,md,20260501-123905,1.0.2,20251105-084826,835,Experiment,Both,1,Automatic,main,36,20260501-124404,local,global,300,S,H,A,E,A-S.png,H-E.png,sS,hH,mask-1.png,mask-1.png,h,0,2.4652730002999306,h,1,0.07443989999592304,0.047614899929612875,0.04751810012385249,0.09972749976441264,0.10120159992948174,0.2986785997636616
RSVPLG03,md,20260501-123905,1.0.2,20251105-084826,835,Experiment,Both,1,Automatic,main,37,20260501-124410,local,local,750,S,S,E,E,E-S.png,E-S.png,sS,sS,mask-1.png,mask-3.png,s,1,0.9513325998559594,s,1,0.09525020001456141,0.04671580018475652,0.04752619983628392,0.09854800021275878,0.10058900015428662,0.7480772002600133
RSVPLG03,md,20260501-123905,1.0.2,20251105-084826,835,Experiment,Both,1,Automatic,main,38,20260501-124415,local,local,300,H,H,E,A,E-H.png,A-H.png,hH,hH,mask-3.png,mask-3.png,s,0,0.9222646998241544,s,0,0.0707137999124825,0.04753050021827221,0.047646500170230865,0.10164659982547164,0.09976770030334592,0.3012621998786926
RSVPLG03,md,20260501-123905,1.0.2,20251105-084826,835,Experiment,Both,1,Automatic,main,39,20260501-124420,global,global,300,S,S,E,A,S-E.png,S-A.png,sS,sS,mask-3.png,mask-3.png,s,1,0.9943907000124454,s,1,0.09281140007078648,0.047728899866342545,0.04665109980851412,0.1000177999958396,0.09937359998002648,0.3002178003080189
RSVPLG03,md,20260501-123905,1.0.2,20251105-084826,835,Experiment,Both,1,Automatic,main,40,20260501-124425,global,global,300,H,S,A,A,H-A.png,S-A.png,hH,sS,mask-2.png,mask-1.png,h,1,0.8720597000792623,s,1,0.038598500192165375,0.04775899974629283,0.045908999629318714,0.10177429998293519,0.09874379960820079,0.3010786999948323
RSVPLG03,md,20260501-123905,1.0.2,20251105-084826,835,Experiment,Both,1,Automatic,main,41,20260501-124429,global,global,300,H,S,A,A,H-A.png,S-A.png,hH,sS,mask-1.png,mask-4.png,h,1,0.6199631998315454,s,1,0.07366300001740456,0.04775139968842268,0.04774830024689436,0.10064850002527237,0.09984800033271313,0.29989369958639145
RSVPLG03,md,20260501-123905,1.0.2,20251105-084826,835,Experiment,Both,1,Automatic,main,42,20260501-124433,local,local,300,S,H,A,A,A-S.png,A-H.png,sS,hH,mask-2.png,mask-3.png,s,1,0.6217569997534156,h,1,0.05759770004078746,0.04681019997224212,0.047786599956452847,0.10015839990228415,0.10007290029898286,0.2994745997712016
RSVPLG03,md,20260501-123905,1.0.2,20251105-084826,835,Experiment,Both,1,Automatic,main,43,20260501-124438,global,global,300,S,S,E,E,S-E.png,S-E.png,sS,sS,mask-1.png,mask-2.png,s,1,3.7513582999818027,s,1,0.06631040014326572,0.04793220013380051,0.04839360015466809,0.09952870011329651,0.10094150016084313,0.2993817999958992
RSVPLG03,md,20260501-123905,1.0.2,20251105-084826,835,Experiment,Both,1,Automatic,main,44,20260501-124445,local,local,750,H,H,E,A,E-H.png,A-H.png,hH,hH,mask-1.png,mask-2.png,h,1,0.551617500372231,h,1,0.06937139993533492,0.04693839978426695,0.04873589985072613,0.10013579996302724,0.1018241997808218,0.7484979000873864
RSVPLG03,md,20260501-123905,1.0.2,20251105-084826,835,Experiment,Both,1,Automatic,main,45,20260501-124450,local,local,300,S,H,E,E,E-S.png,E-H.png,sS,hH,mask-4.png,mask-3.png,s,1,0.9627530998550355,s,0,0.10685420036315918,0.04594380035996437,0.04693030007183552,0.09861980006098747,0.09920669998973608,0.2999805002473295
RSVPLG03,md,20260501-123905,1.0.2,20251105-084826,835,Experiment,Both,1,Automatic,main,46,20260501-124455,global,global,750,S,H,A,E,S-A.png,H-E.png,sS,hH,mask-3.png,mask-3.png,s,1,0.6555516002699733,h,1,0.10469840001314878,0.0477380002848804,0.04565300000831485,0.10020910017192364,0.09884529979899526,0.7498914003372192
RSVPLG03,md,20260501-123905,1.0.2,20251105-084826,835,Experiment,Both,1,Automatic,main,47,20260501-124500,local,local,300,S,S,A,A,A-S.png,A-S.png,sS,sS,mask-2.png,mask-2.png,s,1,1.0739797996357083,s,1,0.11971609992906451,0.047204399947077036,0.04813300026580691,0.10004430031403899,0.1008367002941668,0.2993455999530852
RSVPLG03,md,20260501-123905,1.0.2,20251105-084826,835,Experiment,Both,1,Automatic,main,48,20260501-124504,local,global,750,S,S,A,A,A-S.png,S-A.png,sS,sS,mask-1.png,mask-3.png,s,1,0.5323240999132395,s,1,0.10401839995756745,0.04881120007485151,0.04770109988749027,0.10098550003021955,0.1003601998090744,0.7496267003007233
RSVPLG03,md,20260501-123905,1.0.2,20251105-084826,835,Experiment,Both,1,Automatic,main,49,20260501-124509,global,local,300,S,S,A,A,S-A.png,A-S.png,sS,sS,mask-4.png,mask-3.png,s,1,0.4169330997392535,s,1,0.08416590001434088,0.04617130011320114,0.04765979992225766,0.10033649997785687,0.0996250999160111,0.30006489995867014
RSVPLG03,md,20260501-123905,1.0.2,20251105-084826,835,Experiment,Both,1,Automatic,main,50,20260501-124513,global,global,300,S,S,E,A,S-E.png,S-A.png,sS,sS,mask-4.png,mask-4.png,s,1,0.5219066999852657,s,1,0.10364700015634298,0.047249400056898594,0.048802600242197514,0.1010508001782,0.09992050006985664,0.29949739994481206
RSVPLG03,md,20260501-123905,1.0.2,20251105-084826,835,Experiment,Both,1,Automatic,main,51,20260501-124554,local,local,300,H,S,A,A,A-H.png,A-S.png,hH,sS,mask-2.png,mask-3.png,h,1,1.282076200004667,s,1,0.09342169994488358,0.04840980004519224,0.047544799745082855,0.09962930018082261,0.09954890003427863,0.3008556002750993
RSVPLG03,md,20260501-123905,1.0.2,20251105-084826,835,Experiment,Both,1,Automatic,main,52,20260501-124559,global,local,750,H,S,A,E,H-A.png,E-S.png,hH,sS,mask-2.png,mask-4.png,h,1,0.6219202000647783,s,1,0.10916370013728738,0.048475699964910746,0.04636080004274845,0.09929559985175729,0.09846499981358647,0.7501544998958707
RSVPLG03,md,20260501-123905,1.0.2,20251105-084826,835,Experiment,Both,1,Automatic,main,53,20260501-124604,local,local,750,H,S,E,A,E-H.png,A-S.png,hH,sS,mask-1.png,mask-1.png,h,1,0.7345642996951938,h,0,0.2153118997812271,0.04752830043435097,0.04740549996495247,0.09950210014358163,0.09906709985807538,0.748558500315994
RSVPLG03,md,20260501-123905,1.0.2,20251105-084826,835,Experiment,Both,1,Automatic,main,54,20260501-124609,local,global,300,H,H,E,E,E-H.png,H-E.png,hH,hH,mask-2.png,mask-3.png,h,1,0.7560026003047824,h,1,0.09235959965735674,0.04767869971692562,0.048672900069504976,0.09984439983963966,0.10085689974948764,0.2992819999344647
RSVPLG03,md,20260501-123905,1.0.2,20251105-084826,835,Experiment,Both,1,Automatic,main,55,20260501-124614,local,local,300,H,S,A,A,A-H.png,A-S.png,hH,sS,mask-1.png,mask-3.png,h,1,0.6181636997498572,s,1,0.10650169989094138,0.04663820005953312,0.04865860007703304,0.09969600010663271,0.09985750028863549,0.2983031999319792
RSVPLG03,md,20260501-123905,1.0.2,20251105-084826,835,Experiment,Both,1,Automatic,main,56,20260501-124618,global,local,300,H,S,E,A,H-E.png,A-S.png,hH,sS,mask-2.png,mask-4.png,h,1,0.516124399844557,s,1,0.07908639963716269,0.047432899940758944,0.04723680019378662,0.10006539989262819,0.0987522997893393,0.30046069994568825
RSVPLG03,md,20260501-123905,1.0.2,20251105-084826,835,Experiment,Both,1,Automatic,main,57,20260501-124622,global,local,300,H,S,A,E,H-A.png,E-S.png,hH,sS,mask-4.png,mask-1.png,h,1,4.079478200059384,s,1,0.42230620002374053,0.04773399978876114,0.046778700314462185,0.1002466999925673,0.09998599998652935,0.2998786997050047
RSVPLG03,md,20260501-123905,1.0.2,20251105-084826,835,Experiment,Both,1,Automatic,main,58,20260501-124631,local,local,300,H,H,E,E,E-H.png,E-H.png,hH,hH,mask-2.png,mask-2.png,h,1,2.7615441996604204,h,1,0.17670509964227676,0.04851329978555441,0.04758650017902255,0.09982750006020069,0.10040410002693534,0.2996423998847604
RSVPLG03,md,20260501-123905,1.0.2,20251105-084826,835,Experiment,Both,1,Automatic,main,59,20260501-124637,local,global,300,S,S,A,E,A-S.png,S-E.png,sS,sS,mask-4.png,mask-2.png,s,1,2.1010718001052737,h,0,0.186343299690634,0.04860570002347231,0.04675380000844598,0.101609299890697,0.10037710005417466,0.3000709000043571
RSVPLG03,md,20260501-123905,1.0.2,20251105-084826,835,Experiment,Both,1,Automatic,main,60,20260501-124643,global,global,300,H,H,A,A,H-A.png,H-A.png,hH,hH,mask-1.png,mask-1.png,h,1,1.194847600068897,h,1,0.10248389979824424,0.04859359981492162,0.04576809983700514,0.10147870006039739,0.09984479984268546,0.3013117001391947
RSVPLG03,md,20260501-123905,1.0.2,20251105-084826,835,Experiment,Both,1,Automatic,main,61,20260501-124648,global,local,300,S,H,E,E,S-E.png,E-H.png,sS,hH,mask-2.png,mask-1.png,s,1,1.4148699003271759,h,1,0.1351792998611927,0.04652249999344349,0.047131000086665154,0.09839499974623322,0.09936910029500723,0.2994184996932745
RSVPLG03,md,20260501-123905,1.0.2,20251105-084826,835,Experiment,Both,1,Automatic,main,62,20260501-124654,global,local,300,S,S,A,A,S-A.png,A-S.png,sS,sS,mask-3.png,mask-4.png,h,0,1.006830499973148,s,1,0.3927914001978934,0.04753320012241602,0.046302900183945894,0.10004839999601245,0.10031430004164577,0.29975489992648363
RSVPLG03,md,20260501-123905,1.0.2,20251105-084826,835,Experiment,Both,1,Automatic,main,63,20260501-124659,global,local,750,S,H,A,A,S-A.png,A-H.png,sS,hH,mask-2.png,mask-1.png,s,1,0.6054211999289691,h,1,0.04057750012725592,0.04776109987869859,0.047654100228101015,0.09999219980090857,0.0998700000345707,0.7504274998791516
RSVPLG03,md,20260501-123905,1.0.2,20251105-084826,835,Experiment,Both,1,Automatic,main,64,20260501-124703,local,global,300,S,H,A,A,A-S.png,H-A.png,sS,hH,mask-1.png,mask-1.png,s,1,1.0353319998830557,s,0,0.09061240032315254,0.04737119982019067,0.04901620000600815,0.10139219975098968,0.10171920014545321,0.29931689985096455
RSVPLG03,md,20260501-123905,1.0.2,20251105-084826,835,Experiment,Both,1,Automatic,main,65,20260501-124708,global,local,300,S,H,A,E,S-A.png,E-H.png,sS,hH,mask-2.png,mask-2.png,s,1,0.6866073999553919,h,1,0.039502200204879045,0.048287099692970514,0.047602000180631876,0.1000879998318851,0.1013756999745965,0.30038779973983765
RSVPLG03,md,20260501-123905,1.0.2,20251105-084826,835,Experiment,Both,1,Automatic,main,66,20260501-124713,local,local,750,S,H,E,E,E-S.png,E-H.png,sS,hH,mask-2.png,mask-2.png,s,1,0.5711849997751415,h,1,0.08907279977574944,0.04595049982890487,0.0486915004439652,0.0992596996948123,0.09927630005404353,0.7481866995804012
RSVPLG03,md,20260501-123905,1.0.2,20251105-084826,835,Experiment,Both,1,Automatic,main,67,20260501-124717,local,global,300,H,H,E,E,E-H.png,H-E.png,hH,hH,mask-2.png,mask-1.png,s,0,0.6452349000610411,s,0,1.7041617999784648,0.045784699730575085,0.04672360001131892,0.0998684000223875,0.09880030015483499,0.2992873997427523
RSVPLG03,md,20260501-123905,1.0.2,20251105-084826,835,Experiment,Both,1,Automatic,main,68,20260501-124724,global,local,750,H,H,A,E,H-A.png,E-H.png,hH,hH,mask-3.png,mask-4.png,s,0,0.9310026001185179,h,1,0.006006699986755848,0.04667640011757612,0.04676089994609356,0.0991406999528408,0.10095949983224273,0.7486702003516257
RSVPLG03,md,20260501-123905,1.0.2,20251105-084826,835,Experiment,Both,1,Automatic,main,69,20260501-124729,local,local,300,S,S,A,A,A-S.png,A-S.png,sS,sS,mask-2.png,mask-4.png,s,1,1.1803036001510918,s,1,0.07005640026181936,0.0486693000420928,0.04755219956859946,0.10053629986941814,0.10048769973218441,0.2998462002724409
RSVPLG03,md,20260501-123905,1.0.2,20251105-084826,835,Experiment,Both,1,Automatic,main,70,20260501-124734,local,global,750,H,S,E,E,E-H.png,S-E.png,hH,sS,mask-1.png,mask-1.png,h,1,0.8281711000017822,s,1,0.14052220014855266,0.04754750011488795,0.047421800438314676,0.09955279994755983,0.09931250009685755,0.749664899893105
RSVPLG03,md,20260501-123905,1.0.2,20251105-084826,835,Experiment,Both,1,Automatic,main,71,20260501-124739,global,local,300,S,H,E,A,S-E.png,A-H.png,sS,hH,mask-4.png,mask-1.png,s,1,0.7185366000048816,h,1,0.06948189996182919,0.04568280000239611,0.047557400073856115,0.0998812997713685,0.0996246999129653,0.29950569989159703
RSVPLG03,md,20260501-123905,1.0.2,20251105-084826,835,Experiment,Both,1,Automatic,main,72,20260501-124743,local,global,750,H,S,A,E,A-H.png,S-E.png,hH,sS,mask-1.png,mask-1.png,h,1,0.629940299782902,s,1,0.07054469967260957,0.048682999797165394,0.04718220001086593,0.09994830004870892,0.10065039992332458,0.7502100998535752
RSVPLG03,md,20260501-123905,1.0.2,20251105-084826,835,Experiment,Both,1,Automatic,main,73,20260501-124748,global,global,300,H,H,A,A,H-A.png,H-A.png,hH,hH,mask-3.png,mask-3.png,h,1,0.8822150998748839,h,1,0.0925266002304852,0.04852159973233938,0.047557900194078684,0.10125279985368252,0.10026849992573261,0.30125779984518886
RSVPLG03,md,20260501-123905,1.0.2,20251105-084826,835,Experiment,Both,1,Automatic,main,74,20260501-124753,local,local,300,H,S,E,A,E-H.png,A-S.png,hH,sS,mask-4.png,mask-2.png,h,1,0.8680126001127064,s,1,0.05215489957481623,0.047893399838358164,0.04715480003505945,0.0991918002255261,0.0993591002188623,0.30026679998263717
RSVPLG03,md,20260501-123905,1.0.2,20251105-084826,835,Experiment,Both,1,Automatic,main,75,20260501-124757,global,global,750,S,S,A,A,S-A.png,S-A.png,sS,sS,mask-4.png,mask-2.png,s,1,0.456644999794662,s,1,0.08863959973677993,0.04702039994299412,0.046954500023275614,0.0988599001429975,0.09854070004075766,0.7502334997989237
RSVPLG03,md,20260501-123905,1.0.2,20251105-084826,835,Experiment,Both,1,Automatic,main,76,20260501-124813,global,local,300,S,H,A,A,S-A.png,A-H.png,sS,hH,mask-3.png,mask-1.png,h,0,0.7830106001347303,h,1,0.06780280033126473,0.04797129984945059,0.04647850012406707,0.10149399982765317,0.10003390023484826,0.3010695995762944
RSVPLG03,md,20260501-123905,1.0.2,20251105-084826,835,Experiment,Both,1,Automatic,main,77,20260501-124817,local,global,300,S,H,A,E,A-S.png,H-E.png,sS,hH,mask-2.png,mask-1.png,s,1,0.6019357000477612,h,1,0.022949399892240763,0.047222299966961145,0.04839420039206743,0.09988210024312139,0.10012520011514425,0.29956139996647835
RSVPLG03,md,20260501-123905,1.0.2,20251105-084826,835,Experiment,Both,1,Automatic,main,78,20260501-124822,global,global,750,S,H,E,A,S-E.png,H-A.png,sS,hH,mask-3.png,mask-3.png,s,1,0.5144298998638988,h,1,0.04131780005991459,0.04622650006785989,0.04635199997574091,0.09810899989679456,0.10012729978188872,0.7497866000048816
RSVPLG03,md,20260501-123905,1.0.2,20251105-084826,835,Experiment,Both,1,Automatic,main,79,20260501-124826,global,global,750,S,S,E,E,S-E.png,S-E.png,sS,sS,mask-4.png,mask-3.png,s,1,0.43705999990925193,s,1,0.06802499992772937,0.04661830002442002,0.04716619988903403,0.09878030000254512,0.10138139966875315,0.7484303000383079
RSVPLG03,md,20260501-123905,1.0.2,20251105-084826,835,Experiment,Both,1,Automatic,main,80,20260501-124831,local,global,750,S,S,E,A,E-S.png,S-A.png,sS,sS,mask-4.png,mask-1.png,s,1,0.4946896000765264,s,1,0.07022050023078918,0.04770789993926883,0.047845599707216024,0.10000750003382564,0.10008729994297028,0.7499580001458526
RSVPLG03,md,20260501-123905,1.0.2,20251105-084826,835,Experiment,Both,1,Automatic,main,81,20260501-124836,global,global,750,H,H,A,A,H-A.png,H-A.png,hH,hH,mask-4.png,mask-2.png,h,1,1.0331385000608861,h,1,0.08551579993218184,0.047486300114542246,0.04850170016288757,0.10048440005630255,0.10051009990274906,0.7494954001158476
RSVPLG03,md,20260501-123905,1.0.2,20251105-084826,835,Experiment,Both,1,Automatic,main,82,20260501-124841,global,global,750,H,S,A,A,H-A.png,S-A.png,hH,sS,mask-2.png,mask-4.png,h,1,0.7050116001628339,s,1,0.20478060003370047,0.046026399824768305,0.048590300139039755,0.09967839997261763,0.09948709979653358,0.748316700104624
RSVPLG03,md,20260501-123905,1.0.2,20251105-084826,835,Experiment,Both,1,Automatic,main,83,20260501-124846,local,local,750,S,S,A,E,A-S.png,E-S.png,sS,sS,mask-3.png,mask-4.png,h,0,0.46952749975025654,s,1,0.1553023997694254,0.046682299580425024,0.04749590018764138,0.09871869999915361,0.10082550020888448,0.748544099740684
RSVPLG03,md,20260501-123905,1.0.2,20251105-084826,835,Experiment,Both,1,Automatic,main,84,20260501-124851,local,local,300,S,H,E,E,E-S.png,E-H.png,sS,hH,mask-1.png,mask-2.png,s,1,0.37769729970023036,h,1,0.14463780028745532,0.04750460013747215,0.04754179995507002,0.1004131999798119,0.09962920006364584,0.3004646999761462
RSVPLG03,md,20260501-123905,1.0.2,20251105-084826,835,Experiment,Both,1,Automatic,main,85,20260501-124855,local,global,750,H,H,A,E,A-H.png,H-E.png,hH,hH,mask-2.png,mask-4.png,h,1,0.6360899000428617,h,1,0.140907300170511,0.04753920016810298,0.047504800371825695,0.09989230008795857,0.09937220020219684,0.7501611998304725
RSVPLG03,md,20260501-123905,1.0.2,20251105-084826,835,Experiment,Both,1,Automatic,main,86,20260501-124900,global,local,300,S,S,A,A,S-A.png,A-S.png,sS,sS,mask-4.png,mask-3.png,s,1,0.8066527000628412,s,1,0.11573729990050197,0.047341200057417154,0.04860420012846589,0.10043200012296438,0.10126850008964539,0.29942520009353757
RSVPLG03,md,20260501-123905,1.0.2,20251105-084826,835,Experiment,Both,1,Automatic,main,87,20260501-124904,local,global,300,H,H,A,E,A-H.png,H-E.png,hH,hH,mask-1.png,mask-3.png,h,1,0.5887982002459466,h,1,0.10114919999614358,0.04763179970905185,0.04749840032309294,0.1008866997435689,0.10009690001606941,0.29944909969344735
RSVPLG03,md,20260501-123905,1.0.2,20251105-084826,835,Experiment,Both,1,Automatic,main,88,20260501-124909,local,local,750,S,H,A,E,A-S.png,E-H.png,sS,hH,mask-4.png,mask-3.png,s,1,0.46982190012931824,h,1,0.11941500008106232,0.04753979993984103,0.04796099988743663,0.0987066999077797,0.10021740011870861,0.7479595998302102
RSVPLG03,md,20260501-123905,1.0.2,20251105-084826,835,Experiment,Both,1,Automatic,main,89,20260501-124914,local,global,750,H,S,A,A,A-H.png,S-A.png,hH,sS,mask-1.png,mask-3.png,h,1,0.7171446001157165,h,0,0.09534509992226958,0.047208200208842754,0.047128299716860056,0.09964710008352995,0.1003278000280261,0.7491140002384782
RSVPLG03,md,20260501-123905,1.0.2,20251105-084826,835,Experiment,Both,1,Automatic,main,90,20260501-124918,global,local,750,H,H,A,E,H-A.png,E-H.png,hH,hH,mask-4.png,mask-1.png,h,1,0.3926392002031207,h,1,0.16848350036889315,0.048080400098115206,0.04874680005013943,0.10049499990418553,0.10095659969374537,0.7501884000375867
RSVPLG03,md,20260501-123905,1.0.2,20251105-084826,835,Experiment,Both,1,Automatic,main,91,20260501-124923,global,local,750,H,S,A,E,H-A.png,E-S.png,hH,sS,mask-4.png,mask-2.png,h,1,0.41687489999458194,s,1,0.12369870021939278,0.04955790005624294,0.04769099969416857,0.10065980022773147,0.0997884999960661,0.7506885002367198
RSVPLG03,md,20260501-123905,1.0.2,20251105-084826,835,Experiment,Both,1,Automatic,main,92,20260501-124928,global,local,300,H,S,E,A,H-E.png,A-S.png,hH,sS,mask-3.png,mask-3.png,h,1,0.46646870020776987,s,1,0.08300739992409945,0.047544900327920914,0.047529099974781275,0.09965019999071956,0.10011180024594069,0.300634500104934
RSVPLG03,md,20260501-123905,1.0.2,20251105-084826,835,Experiment,Both,1,Automatic,main,93,20260501-124932,global,local,750,H,H,A,E,H-A.png,E-H.png,hH,hH,mask-2.png,mask-1.png,h,1,0.3164594997651875,h,1,0.09253000002354383,0.04616110026836395,0.048756500240415335,0.10029069986194372,0.09984740009531379,0.7487098998390138
RSVPLG03,md,20260501-123905,1.0.2,20251105-084826,835,Experiment,Both,1,Automatic,main,94,20260501-124937,local,global,300,H,H,E,E,E-H.png,H-E.png,hH,hH,mask-1.png,mask-3.png,h,1,0.42093579983338714,h,1,0.08682620013132691,0.04566580010578036,0.04809779999777675,0.09998239995911717,0.10043379990383983,0.2986872000619769
RSVPLG03,md,20260501-123905,1.0.2,20251105-084826,835,Experiment,Both,1,Automatic,main,95,20260501-124941,global,global,750,H,S,A,A,H-A.png,S-A.png,hH,sS,mask-3.png,mask-1.png,h,1,0.5815424998290837,s,1,0.06954250019043684,0.04750490002334118,0.0476541998796165,0.1003944999538362,0.09866030002012849,0.7500521000474691
RSVPLG03,md,20260501-123905,1.0.2,20251105-084826,835,Experiment,Both,1,Automatic,main,96,20260501-124946,global,global,750,H,S,E,E,H-E.png,S-E.png,hH,sS,mask-4.png,mask-1.png,h,1,0.4210578999482095,s,1,0.12487780023366213,0.04787330003455281,0.04750930005684495,0.1006237999536097,0.100520099978894,0.7490543997846544
RSVPLG03,md,20260501-123905,1.0.2,20251105-084826,835,Experiment,Both,1,Automatic,main,97,20260501-124950,global,global,300,H,S,A,A,H-A.png,S-A.png,hH,sS,mask-3.png,mask-3.png,h,1,0.4105285997502506,s,1,0.09955779975280166,0.04864579997956753,0.04787079989910126,0.10091400006785989,0.09903099993243814,0.3006111001595855
RSVPLG03,md,20260501-123905,1.0.2,20251105-084826,835,Experiment,Both,1,Automatic,main,98,20260501-124954,local,global,300,S,H,E,A,E-S.png,H-A.png,sS,hH,mask-2.png,mask-3.png,h,0,0.6869995999149978,s,0,0.13899709982797503,0.047704100143164396,0.04668599972501397,0.10136330034583807,0.09886129992082715,0.3011553003452718
RSVPLG03,md,20260501-123905,1.0.2,20251105-084826,835,Experiment,Both,1,Automatic,main,99,20260501-124959,local,global,750,H,S,E,E,E-H.png,S-E.png,hH,sS,mask-4.png,mask-4.png,h,1,0.42202729964628816,s,1,0.1267927000299096,0.04859540006145835,0.04701530002057552,0.10070780012756586,0.09964670008048415,0.7491083997301757
RSVPLG03,md,20260501-123905,1.0.2,20251105-084826,835,Experiment,Both,1,Automatic,main,100,20260501-125004,global,global,750,H,H,E,E,H-E.png,H-E.png,hH,hH,mask-4.png,mask-1.png,h,1,0.3274913001805544,h,1,0.08917929977178574,0.04840599978342652,0.0485620996914804,0.1007443000562489,0.1007661996409297,0.7499706000089645
