exp,exp_initials,runtime,ver,modtime,sub,blocktype,targets,cuetype,mode,trialtype,trial,trialtime,t1_level,t2_level,t2_lag,t1,t2,distractor1,distractor2,stimfile1,stimfile2,t1_corr,t2_corr,maskfile1,maskfile2,t1_resp,t1_acc,t1_rt,t2_resp,t2_acc,t2_rt,t1_dur,t2_dur,t1mask_soa,t2mask_soa,t1t2_soa
RSVPLG03,sg,20260504-153244,1.0.2,20251105-084826,836,Introduction,T1,1,Automatic,main,1,20260504-153352,global,global,750,S,S,A,A,S-A.png,S-A.png,sS,sS,mask-1.png,mask-2.png,s,1,1.4353529000654817,none,-5,0,0.0913742003031075,0.09858610015362501,0.1944373999722302,0.20064620021730661,0.7428409000858665
RSVPLG03,sg,20260504-153244,1.0.2,20251105-084826,836,Introduction,T1,1,Automatic,main,2,20260504-153358,global,local,750,S,H,A,A,S-A.png,A-H.png,sS,hH,mask-4.png,mask-3.png,h,0,0.9249526998028159,none,-5,0,0.09836279973387718,0.09637530008330941,0.2004528995603323,0.2002305998466909,0.7507127998396754
RSVPLG03,sg,20260504-153244,1.0.2,20251105-084826,836,Introduction,T1,1,Automatic,main,3,20260504-153403,local,global,750,H,S,A,A,A-H.png,S-A.png,hH,sS,mask-4.png,mask-2.png,h,1,1.7743760999292135,none,-5,0,0.09846869995817542,0.09749099984765053,0.20034340023994446,0.20035089971497655,0.7505252002738416
RSVPLG03,sg,20260504-153244,1.0.2,20251105-084826,836,Introduction,T1,1,Automatic,main,4,20260504-153409,local,local,750,H,S,E,A,E-H.png,A-S.png,hH,sS,mask-3.png,mask-1.png,s,0,2.4249408999457955,none,-5,0,0.09738299995660782,0.0963628999888897,0.19824740011245012,0.19828919973224401,0.7502047000452876
RSVPLG03,sg,20260504-153244,1.0.2,20251105-084826,836,Introduction,T1,1,Automatic,main,5,20260504-153415,global,global,750,H,S,A,E,H-A.png,S-E.png,hH,sS,mask-1.png,mask-1.png,h,1,0.972885999828577,none,-5,0,0.09838860016316175,0.09723859978839755,0.19982080021873116,0.20013740006834269,0.7509484002366662
RSVPLG03,sg,20260504-153244,1.0.2,20251105-084826,836,Introduction,T1,1,Automatic,main,6,20260504-153421,local,local,750,S,S,A,E,A-S.png,E-S.png,sS,sS,mask-2.png,mask-3.png,s,1,0.9790125000290573,none,-5,0,0.0973939998075366,0.09698900021612644,0.2003514999523759,0.1999699999578297,0.7504503997042775
RSVPLG03,sg,20260504-153244,1.0.2,20251105-084826,836,Introduction,T1,1,Automatic,main,7,20260504-153426,global,local,750,S,H,A,A,S-A.png,A-H.png,sS,hH,mask-1.png,mask-4.png,s,1,1.5793700003996491,none,-5,0,0.09737710002809763,0.09740709979087114,0.2006279001943767,0.2002948997542262,0.7499381001107395
RSVPLG03,sg,20260504-153244,1.0.2,20251105-084826,836,Introduction,T1,1,Automatic,main,8,20260504-153432,local,local,750,H,S,A,A,A-H.png,A-S.png,hH,sS,mask-4.png,mask-3.png,h,1,1.594349800143391,none,-5,0,0.09660219959914684,0.0969845000654459,0.19958029966801405,0.19884680025279522,0.7499233996495605
RSVPLG03,sg,20260504-153244,1.0.2,20251105-084826,836,Introduction,T1,1,Automatic,main,9,20260504-153437,global,local,750,S,H,A,A,S-A.png,A-H.png,sS,hH,mask-1.png,mask-2.png,s,1,1.7217270997352898,none,-5,0,0.09791410015895963,0.097545700147748,0.1988387000747025,0.20045470027253032,0.7493564998731017
RSVPLG03,sg,20260504-153244,1.0.2,20251105-084826,836,Introduction,T1,1,Automatic,main,10,20260504-153443,global,global,750,H,S,A,E,H-A.png,S-E.png,hH,sS,mask-1.png,mask-2.png,h,1,0.5391799001954496,none,-5,0,0.09737930027768016,0.096588300075382,0.20023189997300506,0.2004263000562787,0.7512326999567449
RSVPLG03,sg,20260504-153244,1.0.2,20251105-084826,836,Introduction,T1,1,Automatic,main,11,20260504-153448,global,global,750,S,H,A,E,S-A.png,H-E.png,sS,hH,mask-3.png,mask-4.png,s,1,1.293602999765426,none,-5,0,0.09645279962569475,0.09760760003700852,0.19855259964242578,0.19971180008724332,0.7493766997940838
RSVPLG03,sg,20260504-153244,1.0.2,20251105-084826,836,Introduction,T1,1,Automatic,main,12,20260504-153454,global,local,750,H,H,A,E,H-A.png,E-H.png,hH,hH,mask-2.png,mask-3.png,h,1,0.3985208999365568,none,-5,0,0.09754680003970861,0.09835069999098778,0.19906660029664636,0.20021519996225834,0.7494705999270082
RSVPLG03,sg,20260504-153244,1.0.2,20251105-084826,836,Introduction,T1,1,Automatic,main,13,20260504-153458,local,global,750,H,H,E,E,E-H.png,H-E.png,hH,hH,mask-4.png,mask-4.png,h,1,0.8366973996162415,none,-5,0,0.09587999992072582,0.09930220013484359,0.19982630014419556,0.2012035003863275,0.7482842998579144
RSVPLG03,sg,20260504-153244,1.0.2,20251105-084826,836,Introduction,T1,1,Automatic,main,14,20260504-153503,local,global,750,S,S,E,E,E-S.png,S-E.png,sS,sS,mask-3.png,mask-4.png,s,1,0.4521125997416675,none,-5,0,0.09754149988293648,0.09684220002964139,0.20057239988818765,0.20000419998541474,0.7499576997943223
RSVPLG03,sg,20260504-153244,1.0.2,20251105-084826,836,Introduction,T1,1,Automatic,main,15,20260504-153508,local,global,750,H,H,A,A,A-H.png,H-A.png,hH,hH,mask-4.png,mask-3.png,h,1,0.6018102997913957,none,-5,0,0.09753580018877983,0.09760299976915121,0.19960130006074905,0.19965129997581244,0.7501962003298104
RSVPLG03,sg,20260504-153244,1.0.2,20251105-084826,836,Introduction,T1,1,Automatic,main,16,20260504-153512,local,local,750,H,S,A,A,A-H.png,A-S.png,hH,sS,mask-4.png,mask-4.png,h,1,0.6761310999281704,none,-5,0,0.0972235999070108,0.09945710003376007,0.20136879989877343,0.2005553999915719,0.7497203997336328
RSVPLG03,sg,20260504-153555,1.0.2,20251105-084826,836,Practice,T1,1,Automatic,main,1,20260504-153618,local,global,750,S,S,E,A,E-S.png,S-A.png,sS,sS,mask-2.png,mask-3.png,s,1,0.8670971998944879,none,-5,0,0.04816120024770498,0.047514500096440315,0.1014638002961874,0.0986021002754569,0.7525685001164675
RSVPLG03,sg,20260504-153555,1.0.2,20251105-084826,836,Practice,T1,1,Automatic,main,2,20260504-153623,global,global,300,H,H,E,E,H-E.png,H-E.png,hH,hH,mask-2.png,mask-1.png,h,1,0.9688989999704063,none,-5,0,0.04716330021619797,0.04718919983133674,0.09964710008352995,0.10053749987855554,0.3000273001380265
RSVPLG03,sg,20260504-153555,1.0.2,20251105-084826,836,Practice,T1,1,Automatic,main,3,20260504-153627,global,global,300,S,S,A,E,S-A.png,S-E.png,sS,sS,mask-1.png,mask-2.png,s,1,0.8686239002272487,none,-5,0,0.04769720043987036,0.04661089973524213,0.10051760030910373,0.1002424000762403,0.30027780029922724
RSVPLG03,sg,20260504-153555,1.0.2,20251105-084826,836,Practice,T1,1,Automatic,main,4,20260504-153631,global,local,750,H,S,E,E,H-E.png,E-S.png,hH,sS,mask-2.png,mask-3.png,h,1,1.5266070002689958,none,-5,0,0.047565000131726265,0.047725200187414885,0.10060240002349019,0.09979959996417165,0.7505216002464294
RSVPLG03,sg,20260504-153555,1.0.2,20251105-084826,836,Practice,T1,1,Automatic,main,5,20260504-153637,local,local,750,H,H,E,E,E-H.png,E-H.png,hH,hH,mask-4.png,mask-2.png,h,1,1.0639785001985729,none,-5,0,0.047584999818354845,0.04852990014478564,0.10060010012239218,0.09978350019082427,0.7514419998042285
RSVPLG03,sg,20260504-153555,1.0.2,20251105-084826,836,Practice,T1,1,Automatic,main,6,20260504-153642,local,local,750,H,H,A,E,A-H.png,E-H.png,hH,hH,mask-2.png,mask-1.png,s,0,1.4602185999974608,none,-5,0,0.04656080016866326,0.04673009971156716,0.10062880022451282,0.0985475997440517,0.751651500351727
RSVPLG03,sg,20260504-153555,1.0.2,20251105-084826,836,Practice,T1,1,Automatic,main,7,20260504-153648,local,local,300,S,S,E,E,E-S.png,E-S.png,sS,sS,mask-4.png,mask-4.png,h,0,0.7496628002263606,none,-5,0,0.04622370004653931,0.04641730012372136,0.09976929984986782,0.09986139973625541,0.3002764000557363
RSVPLG03,sg,20260504-153555,1.0.2,20251105-084826,836,Practice,T1,1,Automatic,main,8,20260504-153652,local,global,300,H,S,A,A,A-H.png,S-A.png,hH,sS,mask-1.png,mask-4.png,s,0,0.9019673997536302,none,-5,0,0.04767190013080835,0.04767229966819286,0.10185729991644621,0.09972149971872568,0.3014600002206862
RSVPLG03,sg,20260504-153555,1.0.2,20251105-084826,836,Practice,T1,1,Automatic,main,9,20260504-153656,local,local,300,H,S,A,A,A-H.png,A-S.png,hH,sS,mask-3.png,mask-3.png,h,1,1.4149016998708248,none,-5,0,0.04777450021356344,0.04660349991172552,0.10002980008721352,0.09886020002886653,0.30139580043032765
RSVPLG03,sg,20260504-153555,1.0.2,20251105-084826,836,Practice,T1,1,Automatic,main,10,20260504-153701,global,local,300,S,S,A,A,S-A.png,A-S.png,sS,sS,mask-1.png,mask-1.png,s,1,1.0951594999060035,none,-5,0,0.048104900401085615,0.047766899690032005,0.0991181000135839,0.1015515998005867,0.2994382004253566
RSVPLG03,sg,20260504-153555,1.0.2,20251105-084826,836,Practice,T1,1,Automatic,main,11,20260504-153706,global,local,300,S,H,E,A,S-E.png,A-H.png,sS,hH,mask-1.png,mask-4.png,s,1,1.086448600050062,none,-5,0,0.0475126001983881,0.04750330001115799,0.09950680006295443,0.10151620022952557,0.2997456002049148
RSVPLG03,sg,20260504-153555,1.0.2,20251105-084826,836,Practice,T1,1,Automatic,main,12,20260504-153711,global,global,750,H,S,A,A,H-A.png,S-A.png,hH,sS,mask-3.png,mask-1.png,h,1,1.1458331998437643,none,-5,0,0.047648100182414055,0.04768750024959445,0.09971390012651682,0.09999350039288402,0.7522513000294566
RSVPLG03,sg,20260504-153555,1.0.2,20251105-084826,836,Practice,T1,1,Automatic,main,13,20260504-153716,local,global,750,H,H,A,A,A-H.png,H-A.png,hH,hH,mask-3.png,mask-1.png,h,1,0.712533500045538,none,-5,0,0.04764659982174635,0.04848970007151365,0.09994629956781864,0.10091760009527206,0.7501361998729408
RSVPLG03,sg,20260504-153555,1.0.2,20251105-084826,836,Practice,T1,1,Automatic,main,14,20260504-153721,global,local,750,S,H,E,A,S-E.png,A-H.png,sS,hH,mask-3.png,mask-3.png,s,1,1.4688722998835146,none,-5,0,0.04681580001488328,0.0467010997235775,0.09900749986991286,0.0999678997322917,0.7521409001201391
RSVPLG03,sg,20260504-153555,1.0.2,20251105-084826,836,Practice,T1,1,Automatic,main,15,20260504-153726,global,global,750,H,S,A,E,H-A.png,S-E.png,hH,sS,mask-2.png,mask-3.png,h,1,1.146157800219953,none,-5,0,0.048518599942326546,0.04751250008121133,0.10131159983575344,0.10157679999247193,0.7512520998716354
RSVPLG03,sg,20260504-153555,1.0.2,20251105-084826,836,Practice,T1,1,Automatic,main,16,20260504-153731,local,global,300,H,H,E,E,E-H.png,H-E.png,hH,hH,mask-1.png,mask-3.png,h,1,2.2845707000233233,none,-5,0,0.04754390008747578,0.047517200000584126,0.09956129966303706,0.10064880037680268,0.2998321997001767
RSVPLG03,sg,20260504-153918,1.0.2,20251105-084826,836,Introduction,Both,1,Automatic,main,1,20260504-153940,global,global,750,H,H,E,E,H-E.png,H-E.png,hH,hH,mask-4.png,mask-4.png,h,1,2.028098199982196,s,0,1.0418381998315454,0.09014690015465021,0.09761870000511408,0.19236569991335273,0.19974379986524582,0.7429335000924766
RSVPLG03,sg,20260504-153918,1.0.2,20251105-084826,836,Introduction,Both,1,Automatic,main,2,20260504-153947,local,local,750,S,S,E,A,E-S.png,A-S.png,sS,sS,mask-1.png,mask-4.png,s,1,1.0046386998146772,s,1,0.685419499874115,0.09739100001752377,0.09738299995660782,0.19973200000822544,0.20026669977232814,0.7501068999990821
RSVPLG03,sg,20260504-153918,1.0.2,20251105-084826,836,Introduction,Both,1,Automatic,main,3,20260504-153953,global,global,750,H,H,A,E,H-A.png,H-E.png,hH,hH,mask-2.png,mask-1.png,h,1,0.7805701000615954,h,1,0.9059852999635041,0.09737710002809763,0.09741340018808842,0.20030630007386208,0.20001199981197715,0.7501067998819053
RSVPLG03,sg,20260504-153918,1.0.2,20251105-084826,836,Introduction,Both,1,Automatic,main,4,20260504-153959,local,global,750,S,H,A,A,A-S.png,H-A.png,sS,hH,mask-1.png,mask-2.png,s,1,1.9884424000047147,h,1,1.5278482004068792,0.09741399995982647,0.09750990010797977,0.20020570000633597,0.1994483000598848,0.7505610999651253
RSVPLG03,sg,20260504-153918,1.0.2,20251105-084826,836,Introduction,Both,1,Automatic,main,5,20260504-154007,global,global,750,S,S,A,E,S-A.png,S-E.png,sS,sS,mask-3.png,mask-3.png,h,0,1.29546570032835,s,1,0.008863099850714207,0.09650400001555681,0.09752369998022914,0.2006548997014761,0.20060539990663528,0.7498049000278115
RSVPLG03,sg,20260504-153918,1.0.2,20251105-084826,836,Introduction,Both,1,Automatic,main,6,20260504-154013,local,local,750,H,H,E,A,E-H.png,A-H.png,hH,hH,mask-2.png,mask-2.png,h,1,1.7299422998912632,h,1,0.08937040017917752,0.0975460996851325,0.09745199978351593,0.19891919987276196,0.20038550021126866,0.7498372998088598
RSVPLG03,sg,20260504-153918,1.0.2,20251105-084826,836,Introduction,Both,1,Automatic,main,7,20260504-154019,global,local,750,S,S,E,E,S-E.png,E-S.png,sS,sS,mask-4.png,mask-3.png,h,0,0.9612817000597715,h,0,0.31990590039640665,0.09670830005779862,0.09738719975575805,0.19860560027882457,0.20025639981031418,0.750366700347513
RSVPLG03,sg,20260504-153918,1.0.2,20251105-084826,836,Introduction,Both,1,Automatic,main,8,20260504-154024,global,local,750,S,H,E,E,S-E.png,E-H.png,sS,hH,mask-1.png,mask-1.png,s,1,0.7670449996367097,h,1,0.7133387001231313,0.09743850026279688,0.09725609980523586,0.1993176001124084,0.1996225002221763,0.7513651000335813
RSVPLG03,sg,20260504-153918,1.0.2,20251105-084826,836,Introduction,Both,1,Automatic,main,9,20260504-154030,local,local,750,S,S,A,A,A-S.png,A-S.png,sS,sS,mask-2.png,mask-4.png,s,1,1.7622058000415564,h,0,1.001485399901867,0.09708889992907643,0.09700189996510744,0.1995071000419557,0.1998896999284625,0.7511650999076664
RSVPLG03,sg,20260504-153918,1.0.2,20251105-084826,836,Introduction,Both,1,Automatic,main,10,20260504-154037,local,global,750,S,H,E,A,E-S.png,H-A.png,sS,hH,mask-4.png,mask-3.png,s,1,1.202951899729669,h,1,0.38949349988251925,0.09737479966133833,0.09750059992074966,0.19926159968599677,0.1996061997488141,0.7497135000303388
RSVPLG03,sg,20260504-153918,1.0.2,20251105-084826,836,Introduction,Both,1,Automatic,main,11,20260504-154043,global,global,750,S,H,E,A,S-E.png,H-A.png,sS,hH,mask-3.png,mask-1.png,h,0,2.263177499640733,h,1,0.12353819981217384,0.09676190000027418,0.09654520032927394,0.1999455001205206,0.20054550003260374,0.7499493998475373
RSVPLG03,sg,20260504-153918,1.0.2,20251105-084826,836,Introduction,Both,1,Automatic,main,12,20260504-154050,local,global,750,S,H,E,A,E-S.png,H-A.png,sS,hH,mask-3.png,mask-1.png,s,1,3.061211099848151,h,1,0.5411819000728428,0.09737630002200603,0.09702599979937077,0.1994451000355184,0.20095170009881258,0.7493831999599934
RSVPLG03,sg,20260504-153918,1.0.2,20251105-084826,836,Introduction,Both,1,Automatic,main,13,20260504-154058,local,local,750,H,S,A,A,A-H.png,A-S.png,hH,sS,mask-3.png,mask-1.png,h,1,1.410835100337863,s,1,0.2959793000482023,0.09755729977041483,0.09743679966777563,0.19950120011344552,0.2006953996606171,0.7493320000357926
RSVPLG03,sg,20260504-153918,1.0.2,20251105-084826,836,Introduction,Both,1,Automatic,main,14,20260504-154104,local,global,750,H,S,E,A,E-H.png,S-A.png,hH,sS,mask-2.png,mask-3.png,h,1,1.525582400150597,h,0,1.347223499789834,0.0973892998881638,0.0973705998621881,0.2012469000183046,0.20030569983646274,0.7520106001757085
RSVPLG03,sg,20260504-153918,1.0.2,20251105-084826,836,Introduction,Both,1,Automatic,main,15,20260504-154111,global,local,750,H,H,E,A,H-E.png,A-H.png,hH,hH,mask-1.png,mask-3.png,h,1,2.3613152001053095,h,1,0.3693098002113402,0.09739070013165474,0.09742909995839,0.20029540034011006,0.1983012999407947,0.7521709003485739
RSVPLG03,sg,20260504-153918,1.0.2,20251105-084826,836,Introduction,Both,1,Automatic,main,16,20260504-154118,global,local,750,H,H,E,A,H-E.png,A-H.png,hH,hH,mask-4.png,mask-3.png,h,1,0.5651772003620863,h,1,0.05961860017850995,0.09753039991483092,0.09835359966382384,0.19938799971714616,0.20130289997905493,0.7496730000711977
RSVPLG03,sg,20260504-154139,1.0.2,20251105-084826,836,Practice,Both,1,Automatic,main,1,20260504-154225,local,global,750,S,H,A,A,A-S.png,H-A.png,sS,hH,mask-1.png,mask-2.png,s,1,1.4050655998289585,h,1,0.4737265999428928,0.03899460006505251,0.04761900007724762,0.09229469997808337,0.10184590006247163,0.743977400008589
RSVPLG03,sg,20260504-154139,1.0.2,20251105-084826,836,Practice,Both,1,Automatic,main,2,20260504-154231,global,local,300,H,S,A,E,H-A.png,E-S.png,hH,sS,mask-1.png,mask-2.png,h,1,1.635273199994117,s,1,0.06881189998239279,0.04770260024815798,0.04753480013459921,0.10114479996263981,0.10041760001331568,0.30095669999718666
RSVPLG03,sg,20260504-154139,1.0.2,20251105-084826,836,Practice,Both,1,Automatic,main,3,20260504-154236,local,global,300,H,H,A,A,A-H.png,H-A.png,hH,hH,mask-2.png,mask-1.png,h,1,1.536760900169611,s,0,0.7494717002846301,0.04688699962571263,0.047787700314074755,0.09993369970470667,0.09948799991980195,0.30158189963549376
RSVPLG03,sg,20260504-154139,1.0.2,20251105-084826,836,Practice,Both,1,Automatic,main,4,20260504-154242,global,local,750,S,H,E,E,S-E.png,E-H.png,sS,hH,mask-4.png,mask-2.png,s,1,0.7935661999508739,h,1,0.7925837999209762,0.0465236003510654,0.048515799921005964,0.09957500034943223,0.10050669964402914,0.7510296003893018
RSVPLG03,sg,20260504-154139,1.0.2,20251105-084826,836,Practice,Both,1,Automatic,main,5,20260504-154248,local,global,750,H,S,E,A,E-H.png,S-A.png,hH,sS,mask-2.png,mask-3.png,h,1,1.0123819997534156,s,1,0.02760400017723441,0.046212300192564726,0.04767290037125349,0.0993770002387464,0.1007845001295209,0.7512122998014092
RSVPLG03,sg,20260504-154139,1.0.2,20251105-084826,836,Practice,Both,1,Automatic,main,6,20260504-154253,local,local,750,S,S,A,A,A-S.png,A-S.png,sS,sS,mask-2.png,mask-3.png,h,0,0.7570815999060869,s,1,0.02290920028463006,0.047551400028169155,0.04852320021018386,0.10058620013296604,0.10053540021181107,0.751634799875319
RSVPLG03,sg,20260504-154139,1.0.2,20251105-084826,836,Practice,Both,1,Automatic,main,7,20260504-154258,local,local,300,S,H,A,A,A-S.png,A-H.png,sS,hH,mask-3.png,mask-4.png,s,1,1.3216959000565112,s,0,0.6162598002701998,0.04802210023626685,0.04668979998677969,0.09994770027697086,0.09889669995754957,0.3015328999608755
RSVPLG03,sg,20260504-154139,1.0.2,20251105-084826,836,Practice,Both,1,Automatic,main,8,20260504-154304,local,local,300,S,S,A,A,A-S.png,A-S.png,sS,sS,mask-3.png,mask-1.png,s,1,0.8857454997487366,s,1,0.05624800035730004,0.04858579998835921,0.04766790010035038,0.10161100002005696,0.09985429979860783,0.30206350004300475
RSVPLG03,sg,20260504-154139,1.0.2,20251105-084826,836,Practice,Both,1,Automatic,main,9,20260504-154308,global,global,750,H,H,A,E,H-A.png,H-E.png,hH,hH,mask-3.png,mask-1.png,h,1,0.5975369000807405,h,1,0.07120979996398091,0.04772319970652461,0.04768409999087453,0.09989430010318756,0.09990529995411634,0.7522585997357965
RSVPLG03,sg,20260504-154139,1.0.2,20251105-084826,836,Practice,Both,1,Automatic,main,10,20260504-154313,global,global,750,S,H,E,E,S-E.png,H-E.png,sS,hH,mask-1.png,mask-2.png,s,1,1.3392723998986185,s,0,0.07332279998809099,0.047713200096040964,0.04673819988965988,0.09990639984607697,0.09998330008238554,0.7527359998784959
RSVPLG03,sg,20260504-154139,1.0.2,20251105-084826,836,Practice,Both,1,Automatic,main,11,20260504-154319,local,local,750,H,H,A,A,A-H.png,A-H.png,hH,hH,mask-1.png,mask-4.png,h,1,0.7927311002276838,h,1,0.11749229999259114,0.04857459990307689,0.04751970013603568,0.10058149974793196,0.10053519997745752,0.7525505996309221
RSVPLG03,sg,20260504-154139,1.0.2,20251105-084826,836,Practice,Both,1,Automatic,main,12,20260504-154324,global,local,300,H,H,A,A,H-A.png,A-H.png,hH,hH,mask-1.png,mask-2.png,h,1,2.9195245997980237,s,0,0.040325399953871965,0.04875360010191798,0.0479396004229784,0.10103909997269511,0.10103470040485263,0.3006698996759951
RSVPLG03,sg,20260504-154139,1.0.2,20251105-084826,836,Practice,Both,1,Automatic,main,13,20260504-154330,global,local,750,H,H,E,E,H-E.png,E-H.png,hH,hH,mask-2.png,mask-3.png,h,1,1.5899833999574184,s,0,0.7706507998518646,0.047697000205516815,0.046954600140452385,0.09989990014582872,0.10015159985050559,0.7523039001971483
RSVPLG03,sg,20260504-154139,1.0.2,20251105-084826,836,Practice,Both,1,Automatic,main,14,20260504-154337,global,global,300,H,S,A,E,H-A.png,S-E.png,hH,sS,mask-2.png,mask-4.png,h,1,0.8890461004339159,h,0,0.5221667001023889,0.04872909979894757,0.04875450022518635,0.10095719993114471,0.10106750018894672,0.30069159995764494
RSVPLG03,sg,20260504-154139,1.0.2,20251105-084826,836,Practice,Both,1,Automatic,main,15,20260504-154342,local,global,300,S,S,A,A,A-S.png,S-A.png,sS,sS,mask-4.png,mask-1.png,s,1,0.9983967998996377,h,0,0.10378040000796318,0.045717899687588215,0.04686129977926612,0.0999070000834763,0.09956490015611053,0.29952319990843534
RSVPLG03,sg,20260504-154139,1.0.2,20251105-084826,836,Practice,Both,1,Automatic,main,16,20260504-154347,global,global,300,H,H,A,A,H-A.png,H-A.png,hH,hH,mask-3.png,mask-4.png,h,1,0.8812691001221538,s,0,0.8584187999367714,0.046934899874031544,0.046703200321644545,0.1000785999931395,0.09990370040759444,0.3007151996716857
RSVPLG03,sg,20260504-154416,1.0.2,20251105-084826,836,Practice,Both,1,Automatic,main,1,20260504-154434,global,local,750,H,S,A,E,H-A.png,E-S.png,hH,sS,mask-4.png,mask-1.png,h,1,0.9653795999474823,s,1,1.0775293996557593,0.04525010008364916,0.0465228003449738,0.09728599991649389,0.10070590022951365,0.7492943997494876
RSVPLG03,sg,20260504-154416,1.0.2,20251105-084826,836,Practice,Both,1,Automatic,main,2,20260504-154439,global,local,750,S,S,E,A,S-E.png,A-S.png,sS,sS,mask-1.png,mask-1.png,s,1,1.2777231000363827,h,0,0.4583734995685518,0.046522199641913176,0.0476795001886785,0.09971839981153607,0.10193110024556518,0.7499921997077763
RSVPLG03,sg,20260504-154416,1.0.2,20251105-084826,836,Practice,Both,1,Automatic,main,3,20260504-154445,local,global,750,S,S,A,E,A-S.png,S-E.png,sS,sS,mask-3.png,mask-3.png,s,1,1.3467004001140594,s,1,0.05811479967087507,0.047822399996221066,0.046736199874430895,0.10099670011550188,0.09993579983711243,0.7527017001993954
RSVPLG03,sg,20260504-154416,1.0.2,20251105-084826,836,Practice,Both,1,Automatic,main,4,20260504-154450,global,global,750,H,H,A,A,H-A.png,H-A.png,hH,hH,mask-4.png,mask-1.png,s,0,0.6750936000607908,h,1,0.04380939994007349,0.04779660003259778,0.0455291997641325,0.10034359991550446,0.09924429981037974,0.7531127999536693
RSVPLG03,sg,20260504-154416,1.0.2,20251105-084826,836,Practice,Both,1,Automatic,main,5,20260504-154455,local,local,300,S,H,E,A,E-S.png,A-H.png,sS,hH,mask-2.png,mask-2.png,s,1,1.8991534998640418,s,0,0.10323779983446002,0.04653880000114441,0.047526400070637465,0.0995451002381742,0.10053820023313165,0.29921829979866743
RSVPLG03,sg,20260504-154416,1.0.2,20251105-084826,836,Practice,Both,1,Automatic,main,6,20260504-154501,global,local,300,H,S,A,A,H-A.png,A-S.png,hH,sS,mask-3.png,mask-3.png,s,0,1.483762700110674,h,0,1.6440540999174118,0.04764000000432134,0.04854780016466975,0.10069629969075322,0.09963850025087595,0.30011869966983795
RSVPLG03,sg,20260504-154416,1.0.2,20251105-084826,836,Practice,Both,1,Automatic,main,7,20260504-154506,global,global,300,H,S,E,E,H-E.png,S-E.png,hH,sS,mask-4.png,mask-4.png,h,1,0.6175144999288023,s,1,0.7294295998290181,0.04834589967504144,0.04642580030485988,0.10011379979550838,0.09944180026650429,0.3018453996628523
RSVPLG03,sg,20260504-154416,1.0.2,20251105-084826,836,Practice,Both,1,Automatic,main,8,20260504-154510,global,global,750,S,S,E,A,S-E.png,S-A.png,sS,sS,mask-1.png,mask-3.png,s,1,0.756328699644655,s,1,0.04295950010418892,0.04803940001875162,0.04673589998856187,0.10081249987706542,0.09892249992117286,0.7524482998996973
RSVPLG03,sg,20260504-154416,1.0.2,20251105-084826,836,Practice,Both,1,Automatic,main,9,20260504-154515,local,local,750,S,S,E,A,E-S.png,A-S.png,sS,sS,mask-4.png,mask-1.png,s,1,0.6583467000164092,s,1,0.07757400022819638,0.047541600186377764,0.04862330015748739,0.10057249991223216,0.1005064002238214,0.7504547000862658
RSVPLG03,sg,20260504-154416,1.0.2,20251105-084826,836,Practice,Both,1,Automatic,main,10,20260504-154520,local,global,300,H,H,A,A,A-H.png,H-A.png,hH,hH,mask-1.png,mask-1.png,h,1,0.7043508002534509,s,0,0.05770140001550317,0.047495999839156866,0.0484005999751389,0.101490399800241,0.10129819996654987,0.30075589986518025
RSVPLG03,sg,20260504-154416,1.0.2,20251105-084826,836,Practice,Both,1,Automatic,main,11,20260504-154525,local,global,750,S,H,E,A,E-S.png,H-A.png,sS,hH,mask-2.png,mask-4.png,s,1,0.9758397000841796,h,1,0.10434490023180842,0.047521499916911125,0.04936380032449961,0.09975210018455982,0.10225269990041852,0.7492726999334991
RSVPLG03,sg,20260504-154416,1.0.2,20251105-084826,836,Practice,Both,1,Automatic,main,12,20260504-154530,global,global,300,S,S,E,E,S-E.png,S-E.png,sS,sS,mask-3.png,mask-2.png,s,1,1.1356013999320567,h,0,0.5135713997296989,0.04851140035316348,0.046346799936145544,0.10058040032163262,0.10074789961799979,0.30105840042233467
RSVPLG03,sg,20260504-154416,1.0.2,20251105-084826,836,Practice,Both,1,Automatic,main,13,20260504-154535,local,local,300,H,S,E,A,E-H.png,A-S.png,hH,sS,mask-2.png,mask-4.png,h,1,0.7518883999437094,h,0,0.3760783998295665,0.046713899821043015,0.047665500082075596,0.09949739975854754,0.09972319984808564,0.30003789998590946
RSVPLG03,sg,20260504-154416,1.0.2,20251105-084826,836,Practice,Both,1,Automatic,main,14,20260504-154540,local,global,300,S,H,A,E,A-S.png,H-E.png,sS,hH,mask-3.png,mask-4.png,s,1,0.9255117997527122,h,1,0.04397429991513491,0.04579799994826317,0.04752209968864918,0.09947489993646741,0.10060699982568622,0.29957620007917285
RSVPLG03,sg,20260504-154416,1.0.2,20251105-084826,836,Practice,Both,1,Automatic,main,15,20260504-154545,local,local,750,H,H,E,E,E-H.png,E-H.png,hH,hH,mask-1.png,mask-2.png,h,1,0.744910900015384,h,1,0.10750829987227917,0.04704939993098378,0.047609500121325254,0.09909519972279668,0.09877629997208714,0.751808799803257
RSVPLG03,sg,20260504-154416,1.0.2,20251105-084826,836,Practice,Both,1,Automatic,main,16,20260504-154550,global,local,300,S,H,A,A,S-A.png,A-H.png,sS,hH,mask-4.png,mask-1.png,s,1,1.8188002002425492,h,1,0.026881800033152103,0.0477427002042532,0.04773870017379522,0.09994350001215935,0.09972500009462237,0.3005935000255704
RSVPLG03,sg,20260504-154614,1.0.2,20251105-084826,836,Practice,Both,1,Automatic,main,1,20260504-154635,global,global,300,S,S,E,A,S-E.png,S-A.png,sS,sS,mask-2.png,mask-4.png,s,1,0.6529989000409842,h,0,0.31203690031543374,0.04017399996519089,0.04769919998943806,0.09256080025807023,0.0999070000834763,0.29315639985725284
RSVPLG03,sg,20260504-154614,1.0.2,20251105-084826,836,Practice,Both,1,Automatic,main,2,20260504-154640,global,local,750,S,S,A,E,S-A.png,E-S.png,sS,sS,mask-2.png,mask-4.png,s,1,0.5928771998733282,s,1,0.06083890004083514,0.04772499995306134,0.04769010003656149,0.099811099935323,0.09976070001721382,0.7500287997536361
RSVPLG03,sg,20260504-154614,1.0.2,20251105-084826,836,Practice,Both,1,Automatic,main,3,20260504-154645,global,local,750,H,S,A,E,H-A.png,E-S.png,hH,sS,mask-3.png,mask-4.png,h,1,0.8141060997731984,s,1,0.9588474999181926,0.04651500005275011,0.047664700075984,0.09968179976567626,0.09986449964344501,0.7504809000529349
RSVPLG03,sg,20260504-154614,1.0.2,20251105-084826,836,Practice,Both,1,Automatic,main,4,20260504-154650,local,local,750,S,H,E,E,E-S.png,E-H.png,sS,hH,mask-3.png,mask-2.png,s,1,1.1046965001150966,h,1,0.08513709995895624,0.04661160008981824,0.045956000220030546,0.09980669990181923,0.09995510010048747,0.7514643999747932
RSVPLG03,sg,20260504-154614,1.0.2,20251105-084826,836,Practice,Both,1,Automatic,main,5,20260504-154655,global,global,750,H,S,A,A,H-A.png,S-A.png,hH,sS,mask-3.png,mask-3.png,h,1,1.4735709996894002,s,1,0.06129319965839386,0.04678899981081486,0.04958749981597066,0.09959929995238781,0.10046659968793392,0.749826299957931
RSVPLG03,sg,20260504-154614,1.0.2,20251105-084826,836,Practice,Both,1,Automatic,main,6,20260504-154701,local,global,750,S,H,E,A,E-S.png,H-A.png,sS,hH,mask-3.png,mask-3.png,s,1,1.514484299812466,h,1,0.140332099981606,0.048527800012379885,0.047517700120806694,0.10050830012187362,0.10072650015354156,0.751035800203681
RSVPLG03,sg,20260504-154614,1.0.2,20251105-084826,836,Practice,Both,1,Automatic,main,7,20260504-154706,local,global,300,S,S,A,A,A-S.png,S-A.png,sS,sS,mask-1.png,mask-2.png,s,1,1.4478068999014795,s,1,0.3758825003169477,0.049546100199222565,0.046963300090283155,0.10145989991724491,0.1002373001538217,0.30124880000948906
RSVPLG03,sg,20260504-154614,1.0.2,20251105-084826,836,Practice,Both,1,Automatic,main,8,20260504-154712,global,global,750,H,H,A,E,H-A.png,H-E.png,hH,hH,mask-1.png,mask-4.png,h,1,0.8683564001694322,h,1,0.06645260006189346,0.047700699884444475,0.04756619967520237,0.10090250009670854,0.09876509988680482,0.7519771000370383
RSVPLG03,sg,20260504-154614,1.0.2,20251105-084826,836,Practice,Both,1,Automatic,main,9,20260504-154717,global,global,300,H,H,A,E,H-A.png,H-E.png,hH,hH,mask-1.png,mask-4.png,h,1,0.8024015002883971,h,1,0.09217040007933974,0.04748750012367964,0.04752990044653416,0.09933690028265119,0.09954750025644898,0.3000239999964833
RSVPLG03,sg,20260504-154614,1.0.2,20251105-084826,836,Practice,Both,1,Automatic,main,10,20260504-154721,global,local,300,S,S,E,A,S-E.png,A-S.png,sS,sS,mask-2.png,mask-3.png,s,1,0.6178342001512647,s,1,0.07620650017634034,0.04618959967046976,0.04876499995589256,0.09936109976843,0.10196810029447079,0.29838169971480966
RSVPLG03,sg,20260504-154614,1.0.2,20251105-084826,836,Practice,Both,1,Automatic,main,11,20260504-154726,local,local,750,H,H,A,E,A-H.png,E-H.png,hH,hH,mask-3.png,mask-4.png,h,1,0.9700289000757039,h,1,0.09042949974536896,0.04771370021626353,0.04768249997869134,0.10191360022872686,0.09989139996469021,0.75237140012905
RSVPLG03,sg,20260504-154614,1.0.2,20251105-084826,836,Practice,Both,1,Automatic,main,12,20260504-154731,global,local,300,S,S,A,A,S-A.png,A-S.png,sS,sS,mask-4.png,mask-3.png,s,1,1.2022712999023497,h,0,0.37386849988251925,0.04772179992869496,0.047684899996966124,0.09991889959201217,0.10007020039483905,0.2994064996019006
RSVPLG03,sg,20260504-154614,1.0.2,20251105-084826,836,Practice,Both,1,Automatic,main,13,20260504-154736,local,global,300,H,S,E,A,E-H.png,S-A.png,hH,sS,mask-4.png,mask-2.png,h,1,1.7686768998391926,s,1,0.07693419978022575,0.047683400101959705,0.04876290028914809,0.09996790019795299,0.10096850013360381,0.2992312000133097
RSVPLG03,sg,20260504-154614,1.0.2,20251105-084826,836,Practice,Both,1,Automatic,main,14,20260504-154742,local,local,300,S,S,E,A,E-S.png,A-S.png,sS,sS,mask-1.png,mask-1.png,s,1,0.892344200052321,s,1,0.07761730020865798,0.048680299893021584,0.04761420004069805,0.10100629972293973,0.10064089996740222,0.30079409992322326
RSVPLG03,sg,20260504-154614,1.0.2,20251105-084826,836,Practice,Both,1,Automatic,main,15,20260504-154746,local,global,750,H,H,A,A,A-H.png,H-A.png,hH,hH,mask-1.png,mask-2.png,h,1,1.1958468998782337,h,1,0.091393300332129,0.047791399993002415,0.04687710013240576,0.0993606997653842,0.10014510015025735,0.750760699622333
RSVPLG03,sg,20260504-154614,1.0.2,20251105-084826,836,Practice,Both,1,Automatic,main,16,20260504-154752,local,local,300,S,S,A,A,A-S.png,A-S.png,sS,sS,mask-3.png,mask-2.png,s,1,0.8331900001503527,s,1,0.0707048000767827,0.04756949981674552,0.04864880023524165,0.09960149973630905,0.10161519981920719,0.298836899921298
RSVPLG03,sg,20260504-155013,1.0.2,20251105-084826,836,Experiment,Both,1,Automatic,warmup,1,20260504-155043,local,local,300,S,S,A,E,A-S.png,E-S.png,sS,sS,mask-1.png,mask-4.png,s,1,1.4668107996694744,h,0,0.4522412000223994,0.03942629974335432,0.04673160007223487,0.0933225997723639,0.09994699992239475,0.2940643997862935
RSVPLG03,sg,20260504-155013,1.0.2,20251105-084826,836,Experiment,Both,1,Automatic,warmup,2,20260504-155049,global,local,750,H,S,E,A,H-E.png,A-S.png,hH,sS,mask-2.png,mask-4.png,h,1,0.9914215998724103,s,1,0.4504196997731924,0.04772609984502196,0.04758050013333559,0.10010250005871058,0.09983419999480247,0.7499779998324811
RSVPLG03,sg,20260504-155013,1.0.2,20251105-084826,836,Experiment,Both,1,Automatic,warmup,3,20260504-155055,global,global,750,S,S,E,E,S-E.png,S-E.png,sS,sS,mask-2.png,mask-3.png,s,1,0.6065209000371397,s,1,0.06073090014979243,0.04771249974146485,0.047707200050354004,0.09991690004244447,0.1009475002065301,0.7492690999060869
RSVPLG03,sg,20260504-155013,1.0.2,20251105-084826,836,Experiment,Both,1,Automatic,warmup,4,20260504-155059,local,global,750,S,H,A,A,A-S.png,H-A.png,sS,hH,mask-4.png,mask-2.png,s,1,0.8031838997267187,s,0,0.260833699721843,0.048537200316786766,0.048561100382357836,0.09969189995899796,0.10159140033647418,0.7498572999611497
RSVPLG03,sg,20260504-155013,1.0.2,20251105-084826,836,Experiment,Both,1,Automatic,main,5,20260504-155105,local,local,750,H,S,E,E,E-H.png,E-S.png,hH,sS,mask-2.png,mask-1.png,h,1,0.6131159998476505,s,1,0.7418387001380324,0.04753200011327863,0.04842270025983453,0.09957010019570589,0.10085320007055998,0.7488657999783754
RSVPLG03,sg,20260504-155013,1.0.2,20251105-084826,836,Experiment,Both,1,Automatic,main,6,20260504-155109,local,global,300,S,H,E,A,E-S.png,H-A.png,sS,hH,mask-1.png,mask-4.png,s,1,1.6953433998860419,h,1,0.5721462997607887,0.047554700169712305,0.04753659991547465,0.09858589991927147,0.09957099985331297,0.2989439000375569
RSVPLG03,sg,20260504-155013,1.0.2,20251105-084826,836,Experiment,Both,1,Automatic,main,7,20260504-155115,local,global,300,S,S,A,A,A-S.png,S-A.png,sS,sS,mask-3.png,mask-4.png,s,1,1.3120511998422444,h,0,0.0922668999992311,0.048558699898421764,0.04756190022453666,0.10043990006670356,0.09964990010485053,0.3007649998180568
RSVPLG03,sg,20260504-155013,1.0.2,20251105-084826,836,Experiment,Both,1,Automatic,main,8,20260504-155120,local,local,750,H,H,A,A,A-H.png,A-H.png,hH,hH,mask-1.png,mask-4.png,s,0,0.8817071998491883,s,0,0.05299720028415322,0.047675199806690216,0.0476881000213325,0.09992199996486306,0.10059420019388199,0.7495955997146666
RSVPLG03,sg,20260504-155013,1.0.2,20251105-084826,836,Experiment,Both,1,Automatic,main,9,20260504-155126,local,local,300,S,H,E,E,E-S.png,E-H.png,sS,hH,mask-2.png,mask-3.png,h,0,1.9134609000757337,s,0,1.6534309997223318,0.04784479970112443,0.04854699969291687,0.09980259975418448,0.10054759960621595,0.29988730000332
RSVPLG03,sg,20260504-155013,1.0.2,20251105-084826,836,Experiment,Both,1,Automatic,main,10,20260504-155133,local,global,750,H,S,E,E,E-H.png,S-E.png,hH,sS,mask-3.png,mask-4.png,h,1,1.008883100003004,s,1,0.307190400082618,0.047532400116324425,0.047538500279188156,0.09954770002514124,0.10054920008406043,0.7493493999354541
RSVPLG03,sg,20260504-155013,1.0.2,20251105-084826,836,Experiment,Both,1,Automatic,main,11,20260504-155138,global,global,300,H,S,E,A,H-E.png,S-A.png,hH,sS,mask-2.png,mask-4.png,h,1,0.6559645999222994,s,1,0.023040900006890297,0.047562200110405684,0.04761460004374385,0.09968229988589883,0.0996515997685492,0.3000521999783814
RSVPLG03,sg,20260504-155013,1.0.2,20251105-084826,836,Experiment,Both,1,Automatic,main,12,20260504-155143,global,global,300,H,S,E,A,H-E.png,S-A.png,hH,sS,mask-2.png,mask-1.png,h,1,0.6331179002299905,s,1,0.022323300130665302,0.0483838003128767,0.04597780015319586,0.10129230003803968,0.09857119992375374,0.3012739000841975
RSVPLG03,sg,20260504-155013,1.0.2,20251105-084826,836,Experiment,Both,1,Automatic,main,13,20260504-155147,global,global,750,S,S,E,E,S-E.png,S-E.png,sS,sS,mask-3.png,mask-1.png,s,1,0.5580636998638511,s,1,0.07174499984830618,0.047691499814391136,0.047685100231319666,0.09990799985826015,0.09989890037104487,0.749900299590081
RSVPLG03,sg,20260504-155013,1.0.2,20251105-084826,836,Experiment,Both,1,Automatic,main,14,20260504-155152,local,local,750,S,S,E,E,E-S.png,E-S.png,sS,sS,mask-1.png,mask-3.png,s,1,0.5999909001402557,s,1,0.07102169981226325,0.04769330006092787,0.045768999960273504,0.09890619991347194,0.09998299973085523,0.75039690034464
RSVPLG03,sg,20260504-155013,1.0.2,20251105-084826,836,Experiment,Both,1,Automatic,main,15,20260504-155157,global,local,750,S,S,E,E,S-E.png,E-S.png,sS,sS,mask-3.png,mask-2.png,s,1,0.6187491002492607,s,1,0.07035460043698549,0.047737700399011374,0.04771530022844672,0.10099280020222068,0.10100320028141141,0.7498558000661433
RSVPLG03,sg,20260504-155013,1.0.2,20251105-084826,836,Experiment,Both,1,Automatic,main,16,20260504-155202,local,global,750,S,S,E,A,E-S.png,S-A.png,sS,sS,mask-2.png,mask-2.png,s,1,0.8135869996622205,s,1,0.10962820006534457,0.04762950027361512,0.04684769967570901,0.10165520012378693,0.10048429993912578,0.7512305001728237
RSVPLG03,sg,20260504-155013,1.0.2,20251105-084826,836,Experiment,Both,1,Automatic,main,17,20260504-155207,global,global,300,S,H,E,A,S-E.png,H-A.png,sS,hH,mask-3.png,mask-3.png,s,1,0.9724114998243749,h,1,0.3697798000648618,0.04841239983215928,0.04754780000075698,0.10149460006505251,0.09960449999198318,0.30184549978002906
RSVPLG03,sg,20260504-155013,1.0.2,20251105-084826,836,Experiment,Both,1,Automatic,main,18,20260504-155212,global,global,750,S,H,A,E,S-A.png,H-E.png,sS,hH,mask-3.png,mask-2.png,s,1,0.579137499909848,h,1,0.24461830034852028,0.047546999994665384,0.04700569994747639,0.09956240002065897,0.10088489996269345,0.7488729003816843
RSVPLG03,sg,20260504-155013,1.0.2,20251105-084826,836,Experiment,Both,1,Automatic,main,19,20260504-155217,local,global,750,S,S,A,A,A-S.png,S-A.png,sS,sS,mask-2.png,mask-3.png,s,1,1.1858502998948097,h,0,0.290658799931407,0.046458899974823,0.04834219999611378,0.09954119985923171,0.10052029974758625,0.7483564000576735
RSVPLG03,sg,20260504-155013,1.0.2,20251105-084826,836,Experiment,Both,1,Automatic,main,20,20260504-155222,global,global,750,S,S,A,E,S-A.png,S-E.png,sS,sS,mask-2.png,mask-4.png,s,1,1.0354377999901772,h,0,0.054432600270956755,0.04686320014297962,0.04662220040336251,0.10131460009142756,0.0996508002281189,0.7508080997504294
RSVPLG03,sg,20260504-155013,1.0.2,20251105-084826,836,Experiment,Both,1,Automatic,main,21,20260504-155228,global,global,750,H,S,E,E,H-E.png,S-E.png,hH,sS,mask-3.png,mask-1.png,h,1,0.6044920003041625,s,1,0.006404399871826172,0.047749499790370464,0.04870070004835725,0.09905289998278022,0.10089810006320477,0.7492897999472916
RSVPLG03,sg,20260504-155013,1.0.2,20251105-084826,836,Experiment,Both,1,Automatic,main,22,20260504-155232,local,global,300,H,S,A,A,A-H.png,S-A.png,hH,sS,mask-4.png,mask-4.png,h,1,1.0543672000057995,s,1,1.1255187997594476,0.046703000087291,0.04761249991133809,0.09921889984980226,0.1000989000312984,0.2985923998057842
RSVPLG03,sg,20260504-155013,1.0.2,20251105-084826,836,Experiment,Both,1,Automatic,main,23,20260504-155238,global,global,300,S,H,A,A,S-A.png,H-A.png,sS,hH,mask-3.png,mask-3.png,s,1,1.1852490999735892,h,1,1.01191659970209,0.04771929979324341,0.04746640007942915,0.09897219995036721,0.1005255002528429,0.29971939977258444
RSVPLG03,sg,20260504-155013,1.0.2,20251105-084826,836,Experiment,Both,1,Automatic,main,24,20260504-155244,global,local,300,S,H,E,A,S-E.png,A-H.png,sS,hH,mask-3.png,mask-4.png,s,1,1.021131600253284,h,1,0.33051230013370514,0.04652980016544461,0.04758800007402897,0.09959560027346015,0.10110640013590455,0.2983117001131177
RSVPLG03,sg,20260504-155013,1.0.2,20251105-084826,836,Experiment,Both,1,Automatic,main,25,20260504-155249,global,global,300,H,H,A,A,H-A.png,H-A.png,hH,hH,mask-3.png,mask-3.png,h,1,0.7588947000913322,h,1,0.31637700041756034,0.04858989967033267,0.04762230021879077,0.0996832000091672,0.09866070002317429,0.30110799986869097
RSVPLG03,sg,20260504-155013,1.0.2,20251105-084826,836,Experiment,Both,1,Automatic,main,26,20260504-155309,global,local,300,H,H,A,E,H-A.png,E-H.png,hH,hH,mask-3.png,mask-1.png,h,1,0.5652468996122479,s,0,0.8270316999405622,0.04759240010753274,0.0467357998713851,0.09963770024478436,0.10000390000641346,0.30090250028297305
RSVPLG03,sg,20260504-155013,1.0.2,20251105-084826,836,Experiment,Both,1,Automatic,main,27,20260504-155315,local,global,300,H,H,A,A,A-H.png,H-A.png,hH,hH,mask-3.png,mask-3.png,h,1,1.4889449998736382,s,0,0.17147940024733543,0.047347300220280886,0.04610549984499812,0.09955050004646182,0.1003274000249803,0.30014250008389354
RSVPLG03,sg,20260504-155013,1.0.2,20251105-084826,836,Experiment,Both,1,Automatic,main,28,20260504-155320,global,global,300,S,S,E,A,S-E.png,S-A.png,sS,sS,mask-4.png,mask-2.png,s,1,0.9602389000356197,h,0,1.080039399676025,0.04692359967157245,0.04745010007172823,0.1000926997512579,0.09954390022903681,0.29987029964104295
RSVPLG03,sg,20260504-155013,1.0.2,20251105-084826,836,Experiment,Both,1,Automatic,main,29,20260504-155326,local,local,750,H,S,E,E,E-H.png,E-S.png,hH,sS,mask-2.png,mask-2.png,h,1,1.5243709003552794,h,0,0.44234269997105,0.04670489998534322,0.04764869995415211,0.09995510010048747,0.09991460014134645,0.7500141002237797
RSVPLG03,sg,20260504-155013,1.0.2,20251105-084826,836,Experiment,Both,1,Automatic,main,30,20260504-155332,global,global,750,S,H,A,A,S-A.png,H-A.png,sS,hH,mask-4.png,mask-1.png,s,1,0.5726717002689838,h,1,0.3955013998784125,0.04604210006073117,0.04769850010052323,0.09912179969251156,0.09910370036959648,0.7495247996412218
RSVPLG03,sg,20260504-155013,1.0.2,20251105-084826,836,Experiment,Both,1,Automatic,main,31,20260504-155337,local,global,750,S,H,E,E,E-S.png,H-E.png,sS,hH,mask-4.png,mask-2.png,s,1,1.0240615997463465,s,0,0.09029600024223328,0.0475212000310421,0.04756239987909794,0.09969629999250174,0.09980299975723028,0.7499571000225842
RSVPLG03,sg,20260504-155013,1.0.2,20251105-084826,836,Experiment,Both,1,Automatic,main,32,20260504-155342,global,local,750,H,S,A,E,H-A.png,E-S.png,hH,sS,mask-3.png,mask-4.png,h,1,1.342653799802065,s,1,0.5377024998888373,0.047552000265568495,0.047526400070637465,0.10062850033864379,0.09953249990940094,0.7502541001886129
RSVPLG03,sg,20260504-155013,1.0.2,20251105-084826,836,Experiment,Both,1,Automatic,main,33,20260504-155348,local,global,300,H,H,A,E,A-H.png,H-E.png,hH,hH,mask-2.png,mask-4.png,h,1,0.835506500210613,h,1,0.8275133999995887,0.04653130006045103,0.047524900175631046,0.0978175001218915,0.1005524997599423,0.2981650000438094
RSVPLG03,sg,20260504-155013,1.0.2,20251105-084826,836,Experiment,Both,1,Automatic,main,34,20260504-155354,global,global,750,S,H,E,E,S-E.png,H-E.png,sS,hH,mask-2.png,mask-1.png,s,1,1.0613703997805715,h,1,0.21593810012564063,0.046598199754953384,0.047557500191032887,0.10066859982907772,0.09971840027719736,0.750887899659574
RSVPLG03,sg,20260504-155013,1.0.2,20251105-084826,836,Experiment,Both,1,Automatic,main,35,20260504-155359,global,global,750,H,H,E,E,H-E.png,H-E.png,hH,hH,mask-2.png,mask-1.png,s,0,1.533923199865967,s,0,0.4584198002703488,0.04752250015735626,0.04852660000324249,0.09952840022742748,0.1005937997251749,0.7489782003685832
RSVPLG03,sg,20260504-155013,1.0.2,20251105-084826,836,Experiment,Both,1,Automatic,main,36,20260504-155405,global,local,750,H,H,E,E,H-E.png,E-H.png,hH,hH,mask-1.png,mask-1.png,h,1,0.7965437001548707,s,0,1.0407545999623835,0.04761249991133809,0.04869199963286519,0.10001269960775971,0.09991739969700575,0.7499530999921262
RSVPLG03,sg,20260504-155013,1.0.2,20251105-084826,836,Experiment,Both,1,Automatic,main,37,20260504-155411,local,global,300,S,S,A,E,A-S.png,S-E.png,sS,sS,mask-1.png,mask-4.png,s,1,1.8562755002640188,h,0,0.1184958997182548,0.047750599682331085,0.04774589976295829,0.09996159980073571,0.10014839982613921,0.29958639992401004
RSVPLG03,sg,20260504-155013,1.0.2,20251105-084826,836,Experiment,Both,1,Automatic,main,38,20260504-155417,local,global,750,H,S,E,E,E-H.png,S-E.png,hH,sS,mask-1.png,mask-4.png,h,1,0.7672359999269247,h,0,0.26603149995207787,0.046711900271475315,0.04670549975708127,0.09986540023237467,0.09968610014766455,0.7502242000773549
RSVPLG03,sg,20260504-155013,1.0.2,20251105-084826,836,Experiment,Both,1,Automatic,main,39,20260504-155422,global,local,750,S,S,E,E,S-E.png,E-S.png,sS,sS,mask-2.png,mask-2.png,s,1,0.9929021000862122,s,1,0.13166589988395572,0.04769290005788207,0.04668870009481907,0.10103480005636811,0.09914790000766516,0.750741200055927
RSVPLG03,sg,20260504-155013,1.0.2,20251105-084826,836,Experiment,Both,1,Automatic,main,40,20260504-155428,local,local,300,S,H,E,A,E-S.png,A-H.png,sS,hH,mask-4.png,mask-4.png,s,1,0.78893329994753,h,1,0.2820298997685313,0.04851690027862787,0.04758220026269555,0.09976340038701892,0.09960620012134314,0.30112170008942485
RSVPLG03,sg,20260504-155013,1.0.2,20251105-084826,836,Experiment,Both,1,Automatic,main,41,20260504-155432,global,local,300,H,H,A,E,H-A.png,E-H.png,hH,hH,mask-4.png,mask-4.png,h,1,0.860956999938935,s,0,0.21416450012475252,0.04754380043596029,0.04877100000157952,0.09954409999772906,0.10083070024847984,0.29919160017743707
RSVPLG03,sg,20260504-155013,1.0.2,20251105-084826,836,Experiment,Both,1,Automatic,main,42,20260504-155437,local,local,300,S,H,E,E,E-S.png,E-H.png,sS,hH,mask-3.png,mask-1.png,s,1,0.9484513998031616,h,1,0.29446160001680255,0.04753089975565672,0.047527399845421314,0.09955469984561205,0.10154110006988049,0.2996988999657333
RSVPLG03,sg,20260504-155013,1.0.2,20251105-084826,836,Experiment,Both,1,Automatic,main,43,20260504-155442,global,local,300,H,H,E,A,H-E.png,A-H.png,hH,hH,mask-1.png,mask-4.png,h,1,0.8128011003136635,h,1,0.10367459990084171,0.04683430027216673,0.047532500233501196,0.0989040001295507,0.10054330015555024,0.29828380001708865
RSVPLG03,sg,20260504-155013,1.0.2,20251105-084826,836,Experiment,Both,1,Automatic,main,44,20260504-155447,local,local,300,S,H,E,E,E-S.png,E-H.png,sS,hH,mask-4.png,mask-2.png,s,1,0.6574119003489614,s,0,0.21299120038747787,0.04857750004157424,0.04716499987989664,0.10059620020911098,0.10020999982953072,0.3007475002668798
RSVPLG03,sg,20260504-155013,1.0.2,20251105-084826,836,Experiment,Both,1,Automatic,main,45,20260504-155451,local,global,750,H,S,E,E,E-H.png,S-E.png,hH,sS,mask-4.png,mask-4.png,h,1,0.910972099751234,h,0,0.11401009978726506,0.04680539993569255,0.047611100133508444,0.09893460012972355,0.10079290019348264,0.7492955001071095
RSVPLG03,sg,20260504-155013,1.0.2,20251105-084826,836,Experiment,Both,1,Automatic,main,46,20260504-155457,local,local,300,S,S,E,E,E-S.png,E-S.png,sS,sS,mask-3.png,mask-4.png,s,1,0.8602777002379298,s,1,0.0724300998263061,0.04674470005556941,0.04663279978558421,0.09993579983711243,0.0998391998000443,0.299840500112623
RSVPLG03,sg,20260504-155013,1.0.2,20251105-084826,836,Experiment,Both,1,Automatic,main,47,20260504-155501,local,local,300,H,H,A,A,A-H.png,A-H.png,hH,hH,mask-1.png,mask-3.png,h,1,0.5662833000533283,s,0,0.26611199975013733,0.04789469996467233,0.047291799914091825,0.10090829990804195,0.09848310006782413,0.3015426998026669
RSVPLG03,sg,20260504-155013,1.0.2,20251105-084826,836,Experiment,Both,1,Automatic,main,48,20260504-155506,global,global,750,S,S,A,A,S-A.png,S-A.png,sS,sS,mask-2.png,mask-2.png,s,1,0.5559916002675891,s,1,0.05489969998598099,0.047544899862259626,0.047555699944496155,0.09863730007782578,0.09861679980531335,0.7500942000187933
RSVPLG03,sg,20260504-155013,1.0.2,20251105-084826,836,Experiment,Both,1,Automatic,main,49,20260504-155510,local,local,300,H,S,A,E,A-H.png,E-S.png,hH,sS,mask-2.png,mask-4.png,h,1,0.5621040998958051,h,0,0.05968970013782382,0.0466601001098752,0.04729590006172657,0.09979490004479885,0.10033300006762147,0.3001001998782158
RSVPLG03,sg,20260504-155013,1.0.2,20251105-084826,836,Experiment,Both,1,Automatic,main,50,20260504-155515,local,global,300,S,S,E,E,E-S.png,S-E.png,sS,sS,mask-1.png,mask-1.png,s,1,0.4881719001568854,h,0,0.6401088000275195,0.04763909988105297,0.04621100006625056,0.10052209999412298,0.10027149971574545,0.30183460004627705
RSVPLG03,sg,20260504-155013,1.0.2,20251105-084826,836,Experiment,Both,1,Automatic,main,51,20260504-155523,local,global,750,H,H,A,E,A-H.png,H-E.png,hH,hH,mask-2.png,mask-4.png,s,0,0.9741349997930229,s,0,1.5798202999867499,0.04764809971675277,0.046748900320380926,0.100683500058949,0.09990849997848272,0.7515519997105002
RSVPLG03,sg,20260504-155013,1.0.2,20251105-084826,836,Experiment,Both,1,Automatic,main,52,20260504-155530,global,local,300,S,S,A,E,S-A.png,E-S.png,sS,sS,mask-4.png,mask-3.png,s,1,0.7839870001189411,h,0,0.4081339999102056,0.04742190008983016,0.047568699810653925,0.10036450019106269,0.09925330011174083,0.30072980001568794
RSVPLG03,sg,20260504-155013,1.0.2,20251105-084826,836,Experiment,Both,1,Automatic,main,53,20260504-155535,global,local,300,S,H,A,A,S-A.png,A-H.png,sS,hH,mask-4.png,mask-1.png,s,1,0.7089626998640597,h,1,0.47071059979498386,0.046578800305724144,0.04748720023781061,0.09942880040034652,0.09963549999520183,0.29948920011520386
RSVPLG03,sg,20260504-155013,1.0.2,20251105-084826,836,Experiment,Both,1,Automatic,main,54,20260504-155540,global,local,750,H,H,E,A,H-E.png,A-H.png,hH,hH,mask-1.png,mask-4.png,h,1,0.590289699845016,s,0,0.2771494002081454,0.048871700186282396,0.04841659963130951,0.10098520014435053,0.10153709957376122,0.7500304002314806
RSVPLG03,sg,20260504-155013,1.0.2,20251105-084826,836,Experiment,Both,1,Automatic,main,55,20260504-155545,local,local,300,S,H,A,E,A-S.png,E-H.png,sS,hH,mask-4.png,mask-4.png,s,1,0.575507600326091,s,0,0.36523500038310885,0.04779660003259778,0.047704000025987625,0.0998462000861764,0.09990070015192032,0.3003981998190284
RSVPLG03,sg,20260504-155013,1.0.2,20251105-084826,836,Experiment,Both,1,Automatic,main,56,20260504-155549,local,local,750,H,S,A,A,A-H.png,A-S.png,hH,sS,mask-4.png,mask-3.png,s,0,1.3444659002125263,s,1,0.12546829972416162,0.04780050041154027,0.04770700028166175,0.10093510011211038,0.09993309993296862,0.7509014001116157
RSVPLG03,sg,20260504-155013,1.0.2,20251105-084826,836,Experiment,Both,1,Automatic,main,57,20260504-155555,local,local,750,S,H,E,E,E-S.png,E-H.png,sS,hH,mask-3.png,mask-3.png,s,1,1.5787924998439848,h,1,0.29401040030643344,0.046554400119930506,0.04653349984437227,0.1005894998088479,0.09856479987502098,0.7505362001247704
RSVPLG03,sg,20260504-155013,1.0.2,20251105-084826,836,Experiment,Both,1,Automatic,main,58,20260504-155601,global,global,750,S,S,A,A,S-A.png,S-A.png,sS,sS,mask-3.png,mask-3.png,s,1,0.6760844998061657,s,1,0.0572005002759397,0.04862179979681969,0.04656430007889867,0.09973199991509318,0.09978749975562096,0.7508521000854671
RSVPLG03,sg,20260504-155013,1.0.2,20251105-084826,836,Experiment,Both,1,Automatic,main,59,20260504-155606,global,global,300,H,H,E,E,H-E.png,H-E.png,hH,hH,mask-2.png,mask-1.png,h,1,0.8697767998091877,h,1,0.14634309988468885,0.047209400217980146,0.04754960024729371,0.09824379999190569,0.09958659997209907,0.2986134998500347
RSVPLG03,sg,20260504-155013,1.0.2,20251105-084826,836,Experiment,Both,1,Automatic,main,60,20260504-155611,local,global,300,H,H,A,E,A-H.png,H-E.png,hH,hH,mask-4.png,mask-4.png,h,1,0.5739708999171853,s,0,0.7959639001637697,0.047549699898809195,0.04756550025194883,0.09858090011402965,0.09857900021597743,0.29992559971287847
RSVPLG03,sg,20260504-155013,1.0.2,20251105-084826,836,Experiment,Both,1,Automatic,main,61,20260504-155616,local,global,300,S,S,E,E,E-S.png,S-E.png,sS,sS,mask-3.png,mask-3.png,s,1,0.46439950028434396,s,1,0.05760090006515384,0.046660799998790026,0.04768799990415573,0.09886209992691875,0.09990039980039,0.29951300006359816
RSVPLG03,sg,20260504-155013,1.0.2,20251105-084826,836,Experiment,Both,1,Automatic,main,62,20260504-155620,global,local,300,H,S,A,E,H-A.png,E-S.png,hH,sS,mask-1.png,mask-3.png,h,1,1.2859342000447214,h,0,0.6844885000027716,0.04828740004450083,0.047354199923574924,0.1003052000887692,0.09938410017639399,0.3005272001028061
RSVPLG03,sg,20260504-155013,1.0.2,20251105-084826,836,Experiment,Both,1,Automatic,main,63,20260504-155626,global,local,750,S,H,A,E,S-A.png,E-H.png,sS,hH,mask-1.png,mask-3.png,s,1,1.414033000357449,h,1,0.07228390034288168,0.04753710003569722,0.04752379981800914,0.10155550017952919,0.09852240001782775,0.7517891000024974
RSVPLG03,sg,20260504-155013,1.0.2,20251105-084826,836,Experiment,Both,1,Automatic,main,64,20260504-155631,local,global,300,H,H,A,E,A-H.png,H-E.png,hH,hH,mask-4.png,mask-4.png,h,1,1.536409200169146,s,0,0.35737770004197955,0.04773249989375472,0.04763100016862154,0.10071169957518578,0.09957329975441098,0.3010256998240948
RSVPLG03,sg,20260504-155013,1.0.2,20251105-084826,836,Experiment,Both,1,Automatic,main,65,20260504-155637,global,local,300,H,H,E,A,H-E.png,A-H.png,hH,hH,mask-3.png,mask-3.png,h,1,0.6903957999311388,h,1,0.05335049983114004,0.047639899887144566,0.04560980014503002,0.0998102999292314,0.09970920020714402,0.30044739972800016
RSVPLG03,sg,20260504-155013,1.0.2,20251105-084826,836,Experiment,Both,1,Automatic,main,66,20260504-155641,global,global,300,S,S,A,E,S-A.png,S-E.png,sS,sS,mask-1.png,mask-2.png,s,1,0.4161469000391662,s,1,1.0864387000910938,0.04736750014126301,0.047631800174713135,0.098643499892205,0.0997291998937726,0.3000304000452161
RSVPLG03,sg,20260504-155013,1.0.2,20251105-084826,836,Experiment,Both,1,Automatic,main,67,20260504-155646,local,global,300,S,S,A,E,A-S.png,S-E.png,sS,sS,mask-4.png,mask-2.png,s,1,0.7806589999236166,s,1,0.4596699997782707,0.04753470001742244,0.04817500011995435,0.10162510024383664,0.10124839982017875,0.3000413002446294
RSVPLG03,sg,20260504-155013,1.0.2,20251105-084826,836,Experiment,Both,1,Automatic,main,68,20260504-155651,local,local,750,H,S,E,A,E-H.png,A-S.png,hH,sS,mask-4.png,mask-2.png,h,1,1.0562483998946846,s,1,0.04210889991372824,0.0474584000185132,0.0466534998267889,0.0995537000708282,0.10078320000320673,0.750233500264585
RSVPLG03,sg,20260504-155013,1.0.2,20251105-084826,836,Experiment,Both,1,Automatic,main,69,20260504-155657,global,global,300,H,S,A,E,H-A.png,S-E.png,hH,sS,mask-1.png,mask-1.png,h,1,0.8735560001805425,s,1,0.3483764003030956,0.04752440005540848,0.04751589987426996,0.09959129989147186,0.09882979979738593,0.29987929994240403
RSVPLG03,sg,20260504-155013,1.0.2,20251105-084826,836,Experiment,Both,1,Automatic,main,70,20260504-155702,local,local,300,S,S,A,A,A-S.png,A-S.png,sS,sS,mask-2.png,mask-2.png,s,1,0.6719595999456942,s,1,0.05071859993040562,0.04647289961576462,0.0475988001562655,0.09932499984279275,0.10082920035347342,0.2989554996602237
RSVPLG03,sg,20260504-155013,1.0.2,20251105-084826,836,Experiment,Both,1,Automatic,main,71,20260504-155706,local,global,750,H,S,E,E,E-H.png,S-E.png,hH,sS,mask-2.png,mask-1.png,h,1,0.9181188996881247,h,0,0.1647520000115037,0.046611400321125984,0.0478343004360795,0.09971990017220378,0.10007150005549192,0.7498500999063253
RSVPLG03,sg,20260504-155013,1.0.2,20251105-084826,836,Experiment,Both,1,Automatic,main,72,20260504-155711,global,local,750,S,H,A,A,S-A.png,A-H.png,sS,hH,mask-1.png,mask-1.png,h,0,1.0480785998515785,h,1,0.06078979978337884,0.049148999620229006,0.04572970001026988,0.10030040005221963,0.09990969998762012,0.7521412996575236
RSVPLG03,sg,20260504-155013,1.0.2,20251105-084826,836,Experiment,Both,1,Automatic,main,73,20260504-155717,global,local,300,S,H,E,E,S-E.png,E-H.png,sS,hH,mask-4.png,mask-1.png,s,1,0.5140297999605536,s,0,0.548503799829632,0.04571969993412495,0.047732200007885695,0.09993429994210601,0.09896259987726808,0.29960040003061295
RSVPLG03,sg,20260504-155013,1.0.2,20251105-084826,836,Experiment,Both,1,Automatic,main,74,20260504-155721,local,local,750,H,S,E,E,E-H.png,E-S.png,hH,sS,mask-2.png,mask-3.png,s,0,0.9879156001843512,s,1,0.07834629993885756,0.04670439986512065,0.04670020006597042,0.10009159985929728,0.09990369994193316,0.7499035997316241
RSVPLG03,sg,20260504-155013,1.0.2,20251105-084826,836,Experiment,Both,1,Automatic,main,75,20260504-155727,global,local,300,H,H,E,A,H-E.png,A-H.png,hH,hH,mask-1.png,mask-3.png,h,1,0.6152146998792887,h,1,0.06656639976426959,0.0457179001532495,0.04670609999448061,0.10016930010169744,0.09993400005623698,0.2998974001966417
RSVPLG03,sg,20260504-155013,1.0.2,20251105-084826,836,Experiment,Both,1,Automatic,main,76,20260504-155733,global,local,750,H,H,A,A,H-A.png,A-H.png,hH,hH,mask-3.png,mask-2.png,h,1,0.5279876999557018,h,1,0.09405130008235574,0.04696730012074113,0.04661440011113882,0.10022700019180775,0.09902850026264787,0.7504288000054657
RSVPLG03,sg,20260504-155013,1.0.2,20251105-084826,836,Experiment,Both,1,Automatic,main,77,20260504-155738,local,global,750,H,H,A,A,A-H.png,H-A.png,hH,hH,mask-1.png,mask-4.png,h,1,0.3553547002375126,h,1,0.08930899994447827,0.045723999850451946,0.046714500058442354,0.09994240012019873,0.10108119994401932,0.7491938001476228
RSVPLG03,sg,20260504-155013,1.0.2,20251105-084826,836,Experiment,Both,1,Automatic,main,78,20260504-155743,local,local,300,H,H,E,E,E-H.png,E-H.png,hH,hH,mask-4.png,mask-2.png,s,0,1.0413945000618696,s,0,0.08938769996166229,0.047873500268906355,0.04655040008947253,0.10094209993258119,0.09858390036970377,0.3013464999385178
RSVPLG03,sg,20260504-155013,1.0.2,20251105-084826,836,Experiment,Both,1,Automatic,main,79,20260504-155747,global,local,300,S,S,E,A,S-E.png,A-S.png,sS,sS,mask-1.png,mask-1.png,h,0,0.8602916998788714,s,1,0.3637478002347052,0.047531799878925085,0.04924910003319383,0.09954870026558638,0.10143660008907318,0.29802990006282926
RSVPLG03,sg,20260504-155013,1.0.2,20251105-084826,836,Experiment,Both,1,Automatic,main,80,20260504-155752,global,global,300,H,H,E,E,H-E.png,H-E.png,hH,hH,mask-3.png,mask-2.png,h,1,0.739807500038296,h,1,0.0754517000168562,0.047525899950414896,0.049575299955904484,0.10073669999837875,0.10104390000924468,0.30004030000418425
RSVPLG03,sg,20260504-155013,1.0.2,20251105-084826,836,Experiment,Both,1,Automatic,main,81,20260504-155757,local,global,750,S,H,A,A,A-S.png,H-A.png,sS,hH,mask-2.png,mask-4.png,h,0,1.234154099598527,s,0,0.02198089985176921,0.04776910040527582,0.047661599703133106,0.10017780028283596,0.09902369976043701,0.7502399003133178
RSVPLG03,sg,20260504-155013,1.0.2,20251105-084826,836,Experiment,Both,1,Automatic,main,82,20260504-155802,local,local,750,S,S,A,A,A-S.png,A-S.png,sS,sS,mask-3.png,mask-4.png,s,1,0.5564063000492752,s,1,0.07193059986457229,0.04556740028783679,0.04599179979413748,0.09863740019500256,0.09803720004856586,0.7503284001722932
RSVPLG03,sg,20260504-155013,1.0.2,20251105-084826,836,Experiment,Both,1,Automatic,main,83,20260504-155807,global,global,750,S,H,A,E,S-A.png,H-E.png,sS,hH,mask-3.png,mask-1.png,s,1,1.4408404999412596,h,1,0.05463490029796958,0.047528999857604504,0.04750379966571927,0.10153640015050769,0.09860239969566464,0.7517459001392126
RSVPLG03,sg,20260504-155013,1.0.2,20251105-084826,836,Experiment,Both,1,Automatic,main,84,20260504-155813,local,local,750,H,S,A,A,A-H.png,A-S.png,hH,sS,mask-4.png,mask-1.png,h,1,0.89393649995327,s,1,0.09167760005220771,0.04653170006349683,0.04809900000691414,0.09902100032195449,0.09969709999859333,0.7495340001769364
RSVPLG03,sg,20260504-155013,1.0.2,20251105-084826,836,Experiment,Both,1,Automatic,main,85,20260504-155818,global,global,750,H,S,A,E,H-A.png,S-E.png,hH,sS,mask-1.png,mask-1.png,h,1,0.7025835998356342,s,1,0.037954899948090315,0.04789759963750839,0.04885770007967949,0.10110670002177358,0.10103569971397519,0.7494638999924064
RSVPLG03,sg,20260504-155013,1.0.2,20251105-084826,836,Experiment,Both,1,Automatic,main,86,20260504-155823,global,global,300,S,S,A,E,S-A.png,S-E.png,sS,sS,mask-1.png,mask-3.png,s,1,0.8150804000906646,h,0,0.1545122000388801,0.047537699807435274,0.04578059958294034,0.10056439973413944,0.09888129960745573,0.300668700132519
RSVPLG03,sg,20260504-155013,1.0.2,20251105-084826,836,Experiment,Both,1,Automatic,main,87,20260504-155827,local,local,750,S,S,A,E,A-S.png,E-S.png,sS,sS,mask-1.png,mask-2.png,s,1,0.42636979976668954,s,1,0.050944400019943714,0.04671099968254566,0.045726800337433815,0.09992479998618364,0.0999125000089407,0.750517999753356
RSVPLG03,sg,20260504-155013,1.0.2,20251105-084826,836,Experiment,Both,1,Automatic,main,88,20260504-155832,global,local,300,H,H,A,E,H-A.png,E-H.png,hH,hH,mask-2.png,mask-2.png,h,1,0.7831024997867644,s,0,0.9707287000492215,0.047742999624460936,0.04669750016182661,0.10009049996733665,0.09959569992497563,0.30013309977948666
RSVPLG03,sg,20260504-155013,1.0.2,20251105-084826,836,Experiment,Both,1,Automatic,main,89,20260504-155837,global,local,750,H,H,E,A,H-E.png,A-H.png,hH,hH,mask-4.png,mask-2.png,h,1,0.5110128000378609,h,1,0.07577640004456043,0.047714900225400925,0.047733199782669544,0.09885419998317957,0.09888629987835884,0.7501597004011273
RSVPLG03,sg,20260504-155013,1.0.2,20251105-084826,836,Experiment,Both,1,Automatic,main,90,20260504-155842,global,local,750,H,H,A,E,H-A.png,E-H.png,hH,hH,mask-3.png,mask-3.png,h,1,0.9181669000536203,s,0,0.07651560008525848,0.04771179985255003,0.047566800378263,0.10010059969499707,0.10077930008992553,0.7500815996900201
RSVPLG03,sg,20260504-155013,1.0.2,20251105-084826,836,Experiment,Both,1,Automatic,main,91,20260504-155847,local,local,750,H,H,A,E,A-H.png,E-H.png,hH,hH,mask-1.png,mask-2.png,h,1,0.3447857000865042,h,1,0.07122760033234954,0.046746599953621626,0.04655410023406148,0.09908109996467829,0.09905020007863641,0.750131499953568
RSVPLG03,sg,20260504-155013,1.0.2,20251105-084826,836,Experiment,Both,1,Automatic,main,92,20260504-155852,global,local,750,S,S,A,A,S-A.png,A-S.png,sS,sS,mask-2.png,mask-1.png,s,1,0.46004809997975826,s,1,0.0765830003656447,0.048618000000715256,0.047548600006848574,0.10062320018187165,0.09953430015593767,0.7509833001531661
RSVPLG03,sg,20260504-155013,1.0.2,20251105-084826,836,Experiment,Both,1,Automatic,main,93,20260504-155857,local,local,300,S,S,E,A,E-S.png,A-S.png,sS,sS,mask-3.png,mask-3.png,s,1,0.9981321999803185,s,1,0.2667318996973336,0.0468059997074306,0.0465895002707839,0.09927129978314042,0.099708900321275,0.30016319965943694
RSVPLG03,sg,20260504-155013,1.0.2,20251105-084826,836,Experiment,Both,1,Automatic,main,94,20260504-155902,local,global,750,S,H,A,E,A-S.png,H-E.png,sS,hH,mask-3.png,mask-2.png,s,1,1.180561900138855,h,1,0.04140250012278557,0.047521499916911125,0.04749860009178519,0.10052490001544356,0.09855169989168644,0.7519714999943972
RSVPLG03,sg,20260504-155013,1.0.2,20251105-084826,836,Experiment,Both,1,Automatic,main,95,20260504-155907,global,local,750,H,S,E,A,H-E.png,A-S.png,hH,sS,mask-4.png,mask-3.png,h,1,0.6205772999674082,s,1,0.006417300086468458,0.04760550009086728,0.04668810032308102,0.10064039984717965,0.09998020017519593,0.7509367996826768
RSVPLG03,sg,20260504-155013,1.0.2,20251105-084826,836,Experiment,Both,1,Automatic,main,96,20260504-155912,global,global,750,S,H,E,E,S-E.png,H-E.png,sS,hH,mask-2.png,mask-2.png,h,0,0.5092303999699652,s,0,0.010430000256747007,0.0480741998180747,0.0475559001788497,0.10016740020364523,0.10059010004624724,0.7507274998351932
RSVPLG03,sg,20260504-155013,1.0.2,20251105-084826,836,Experiment,Both,1,Automatic,main,97,20260504-155917,local,local,300,S,S,E,E,E-S.png,E-S.png,sS,sS,mask-1.png,mask-3.png,s,1,0.6110849999822676,s,1,0.07607159996405244,0.04653170006349683,0.045974299777299166,0.09860779996961355,0.09989470010623336,0.29986979998648167
RSVPLG03,sg,20260504-155013,1.0.2,20251105-084826,836,Experiment,Both,1,Automatic,main,98,20260504-155921,global,global,300,S,S,A,A,S-A.png,S-A.png,sS,sS,mask-4.png,mask-4.png,s,1,0.666624799836427,s,1,0.11064380034804344,0.047161100432276726,0.046320199966430664,0.10027960035949945,0.09942759992554784,0.30035890033468604
RSVPLG03,sg,20260504-155013,1.0.2,20251105-084826,836,Experiment,Both,1,Automatic,main,99,20260504-155925,local,global,750,S,H,A,A,A-S.png,H-A.png,sS,hH,mask-3.png,mask-4.png,s,1,0.8165423995815217,s,0,0.10132439993321896,0.046967499889433384,0.04795149993151426,0.10088989976793528,0.10005770018324256,0.7500370997004211
RSVPLG03,sg,20260504-155013,1.0.2,20251105-084826,836,Experiment,Both,1,Automatic,main,100,20260504-155930,local,global,300,S,H,E,A,E-S.png,H-A.png,sS,hH,mask-1.png,mask-4.png,s,1,1.2364694997668266,h,1,0.07167250011116266,0.04819050012156367,0.047455799765884876,0.1002533002756536,0.10034589981660247,0.29966970020905137
RSVPLG03,sg,20260504-160023,1.0.2,20251105-084826,836,Experiment,Both,1,Automatic,warmup,1,20260504-160042,global,global,300,S,H,A,A,S-A.png,H-A.png,sS,hH,mask-2.png,mask-4.png,s,1,0.6044691000133753,h,1,0.0024295002222061157,0.04004530003294349,0.04671640042215586,0.09332149988040328,0.09891440020874143,0.29407359985634685
RSVPLG03,sg,20260504-160023,1.0.2,20251105-084826,836,Experiment,Both,1,Automatic,warmup,2,20260504-160047,global,local,750,H,H,A,A,H-A.png,A-H.png,hH,hH,mask-2.png,mask-1.png,h,1,0.4622911000624299,h,1,0.05439690034836531,0.047560099977999926,0.04752680007368326,0.0995736001059413,0.09953900007531047,0.7499926001764834
RSVPLG03,sg,20260504-160023,1.0.2,20251105-084826,836,Experiment,Both,1,Automatic,warmup,3,20260504-160052,global,global,750,S,H,E,A,S-E.png,H-A.png,sS,hH,mask-4.png,mask-1.png,s,1,0.8428663001395762,h,1,0.1704441998153925,0.04744020011276007,0.047532899770885706,0.09953369991853833,0.09955930011346936,0.7506765001453459
RSVPLG03,sg,20260504-160023,1.0.2,20251105-084826,836,Experiment,Both,1,Automatic,warmup,4,20260504-160057,local,local,750,S,S,A,E,A-S.png,E-S.png,sS,sS,mask-3.png,mask-2.png,s,1,0.42835830012336373,s,1,0.14001019997522235,0.04720210004597902,0.04805450001731515,0.1000895001925528,0.10177090018987656,0.7501052999868989
RSVPLG03,sg,20260504-160023,1.0.2,20251105-084826,836,Experiment,Both,1,Automatic,main,5,20260504-160101,global,local,300,H,S,E,E,H-E.png,E-S.png,hH,sS,mask-2.png,mask-1.png,h,1,0.9176799999549985,s,1,1.0296654999256134,0.04685570020228624,0.047934699803590775,0.09981330018490553,0.10081049986183643,0.2991471001878381
RSVPLG03,sg,20260504-160023,1.0.2,20251105-084826,836,Experiment,Both,1,Automatic,main,6,20260504-160106,global,global,750,H,H,A,A,H-A.png,H-A.png,hH,hH,mask-1.png,mask-1.png,h,1,0.7486960999667645,h,1,0.05908740032464266,0.04665069980546832,0.04800119996070862,0.09930010000243783,0.10021999990567565,0.7492050998844206
RSVPLG03,sg,20260504-160023,1.0.2,20251105-084826,836,Experiment,Both,1,Automatic,main,7,20260504-160111,global,local,750,H,H,E,E,H-E.png,E-H.png,hH,hH,mask-2.png,mask-1.png,h,1,0.7622663998045027,s,0,0.6772786001674831,0.047330199740827084,0.04702629987150431,0.10010419972240925,0.0991925997659564,0.750460600014776
RSVPLG03,sg,20260504-160023,1.0.2,20251105-084826,836,Experiment,Both,1,Automatic,main,8,20260504-160117,global,global,300,H,S,A,A,H-A.png,S-A.png,hH,sS,mask-1.png,mask-1.png,h,1,1.1292866999283433,s,1,0.16767429979518056,0.047776800114661455,0.046499600168317556,0.1004467997699976,0.09959280025213957,0.3018081998452544
RSVPLG03,sg,20260504-160023,1.0.2,20251105-084826,836,Experiment,Both,1,Automatic,main,9,20260504-160122,local,local,750,S,H,A,E,A-S.png,E-H.png,sS,hH,mask-1.png,mask-4.png,s,1,0.8022221000865102,h,1,0.2034541997127235,0.04766409983858466,0.04866329999640584,0.09968530014157295,0.09987850021570921,0.7509165997616947
RSVPLG03,sg,20260504-160023,1.0.2,20251105-084826,836,Experiment,Both,1,Automatic,main,10,20260504-160127,global,local,750,H,H,A,A,H-A.png,A-H.png,hH,hH,mask-4.png,mask-3.png,h,1,0.5576788000762463,h,1,0.15222990000620484,0.04772490030154586,0.04771929979324341,0.09999269992113113,0.10077770007774234,0.7496739001944661
RSVPLG03,sg,20260504-160023,1.0.2,20251105-084826,836,Experiment,Both,1,Automatic,main,11,20260504-160132,global,global,300,H,H,E,E,H-E.png,H-E.png,hH,hH,mask-4.png,mask-3.png,h,1,1.2922976999543607,h,1,0.10641210014000535,0.047849500086158514,0.048531599808484316,0.10116229997947812,0.10056279972195625,0.30047470005229115
RSVPLG03,sg,20260504-160023,1.0.2,20251105-084826,836,Experiment,Both,1,Automatic,main,12,20260504-160137,global,local,300,S,S,E,A,S-E.png,A-S.png,sS,sS,mask-2.png,mask-4.png,s,1,1.1168788997456431,h,0,0.22714889980852604,0.04867100017145276,0.04755350016057491,0.1007326003164053,0.09959369990974665,0.30103510012850165
RSVPLG03,sg,20260504-160023,1.0.2,20251105-084826,836,Experiment,Both,1,Automatic,main,13,20260504-160142,global,local,300,S,S,E,E,S-E.png,E-S.png,sS,sS,mask-3.png,mask-2.png,s,1,1.5459865001030266,h,0,0.02182890009135008,0.047421999741345644,0.047516100108623505,0.09903009980916977,0.099507300183177,0.3004016997292638
RSVPLG03,sg,20260504-160023,1.0.2,20251105-084826,836,Experiment,Both,1,Automatic,main,14,20260504-160147,global,local,750,S,S,E,E,S-E.png,E-S.png,sS,sS,mask-3.png,mask-1.png,s,1,0.3842780999839306,s,1,0.07852749992161989,0.04958450002595782,0.04862260026857257,0.10060800006613135,0.10217060009017587,0.7505768998526037
RSVPLG03,sg,20260504-160023,1.0.2,20251105-084826,836,Experiment,Both,1,Automatic,main,15,20260504-160152,global,local,300,S,S,A,A,S-A.png,A-S.png,sS,sS,mask-1.png,mask-1.png,s,1,0.9571227002888918,h,0,0.1281178998760879,0.04601529985666275,0.04769650008529425,0.09925620025023818,0.10003869980573654,0.2988720000721514
RSVPLG03,sg,20260504-160023,1.0.2,20251105-084826,836,Experiment,Both,1,Automatic,main,16,20260504-160157,global,local,750,S,S,E,E,S-E.png,E-S.png,sS,sS,mask-2.png,mask-4.png,s,1,0.426830000244081,s,1,0.0826710001565516,0.047555200289934874,0.04751469986513257,0.09960560034960508,0.1005715997889638,0.7517507001757622
RSVPLG03,sg,20260504-160023,1.0.2,20251105-084826,836,Experiment,Both,1,Automatic,main,17,20260504-160201,local,global,300,H,H,A,E,A-H.png,H-E.png,hH,hH,mask-2.png,mask-2.png,h,1,0.9308385998010635,s,0,0.01702120015397668,0.04667750000953674,0.048494699876755476,0.09982210025191307,0.10159579990431666,0.29934410005807877
RSVPLG03,sg,20260504-160023,1.0.2,20251105-084826,836,Experiment,Both,1,Automatic,main,18,20260504-160206,global,global,750,S,S,E,E,S-E.png,S-E.png,sS,sS,mask-4.png,mask-4.png,s,1,0.4714767001569271,s,1,0.05549759976565838,0.047886600252240896,0.046502700075507164,0.0992947998456657,0.10006680013611913,0.7515429998748004
RSVPLG03,sg,20260504-160023,1.0.2,20251105-084826,836,Experiment,Both,1,Automatic,main,19,20260504-160211,global,global,300,S,H,A,E,S-A.png,H-E.png,sS,hH,mask-3.png,mask-4.png,s,1,2.0776289999485016,h,1,0.028282799758017063,0.049587300047278404,0.04742139996960759,0.10042469995096326,0.09916870016604662,0.3008536999113858
RSVPLG03,sg,20260504-160023,1.0.2,20251105-084826,836,Experiment,Both,1,Automatic,main,20,20260504-160217,local,global,300,H,H,A,E,A-H.png,H-E.png,hH,hH,mask-1.png,mask-3.png,h,1,1.17487070010975,s,0,0.041882900055497885,0.047597500029951334,0.04757880000397563,0.09977070009335876,0.09950739983469248,0.30016160011291504
RSVPLG03,sg,20260504-160023,1.0.2,20251105-084826,836,Experiment,Both,1,Automatic,main,21,20260504-160221,global,global,300,H,H,E,A,H-E.png,H-A.png,hH,hH,mask-2.png,mask-3.png,h,1,1.2161028999835253,h,1,0.08136209985241294,0.045871200039982796,0.0475637000054121,0.10000390000641346,0.09938379982486367,0.2991563002578914
RSVPLG03,sg,20260504-160023,1.0.2,20251105-084826,836,Experiment,Both,1,Automatic,main,22,20260504-160226,local,local,750,H,S,E,E,E-H.png,E-S.png,hH,sS,mask-1.png,mask-4.png,h,1,0.9401293001137674,s,1,0.05442350031808019,0.047397200018167496,0.046536500100046396,0.10040850006043911,0.09858669992536306,0.7519387002103031
RSVPLG03,sg,20260504-160023,1.0.2,20251105-084826,836,Experiment,Both,1,Automatic,main,23,20260504-160232,global,local,300,S,S,A,E,S-A.png,E-S.png,sS,sS,mask-1.png,mask-3.png,s,1,1.1248892997391522,s,1,0.46467379992827773,0.04609890002757311,0.04655939992517233,0.0993817001581192,0.09960580011829734,0.3007173999212682
RSVPLG03,sg,20260504-160023,1.0.2,20251105-084826,836,Experiment,Both,1,Automatic,main,24,20260504-160237,local,global,300,S,H,E,E,E-S.png,H-E.png,sS,hH,mask-2.png,mask-4.png,s,1,0.9658090001903474,s,0,0.7682920000515878,0.0458290996029973,0.048898300155997276,0.09886689996346831,0.10057550016790628,0.2990342997945845
RSVPLG03,sg,20260504-160023,1.0.2,20251105-084826,836,Experiment,Both,1,Automatic,main,25,20260504-160242,local,local,750,H,H,A,A,A-H.png,A-H.png,hH,hH,mask-1.png,mask-1.png,h,1,0.9215552001260221,s,0,0.34556369995698333,0.046805200167000294,0.0466066999360919,0.09865100029855967,0.09925659978762269,0.7500909003429115
RSVPLG03,sg,20260504-160023,1.0.2,20251105-084826,836,Experiment,Both,1,Automatic,main,26,20260504-160250,global,global,750,S,H,E,E,S-E.png,H-E.png,sS,hH,mask-2.png,mask-4.png,s,1,1.0003868998028338,h,1,0.15042980015277863,0.04841129994019866,0.04762060008943081,0.10245950007811189,0.09970689984038472,0.7529466999694705
RSVPLG03,sg,20260504-160023,1.0.2,20251105-084826,836,Experiment,Both,1,Automatic,main,27,20260504-160255,local,local,300,S,H,A,E,A-S.png,E-H.png,sS,hH,mask-2.png,mask-1.png,s,1,0.5303203999064863,h,1,0.0693520000204444,0.04670350020751357,0.04722530022263527,0.09989670012146235,0.10016239993274212,0.2991744000464678
RSVPLG03,sg,20260504-160023,1.0.2,20251105-084826,836,Experiment,Both,1,Automatic,main,28,20260504-160300,local,global,300,S,S,A,E,A-S.png,S-E.png,sS,sS,mask-3.png,mask-1.png,s,1,0.7690977999009192,s,1,0.09232879988849163,0.04783659987151623,0.04659330006688833,0.09996480029076338,0.09849300002679229,0.3012454998679459
RSVPLG03,sg,20260504-160023,1.0.2,20251105-084826,836,Experiment,Both,1,Automatic,main,29,20260504-160304,global,global,300,S,S,A,A,S-A.png,S-A.png,sS,sS,mask-1.png,mask-3.png,s,1,0.5086399000138044,s,1,0.053807899821549654,0.047498099971562624,0.04654860030859709,0.09851029980927706,0.09982260037213564,0.29976269975304604
RSVPLG03,sg,20260504-160023,1.0.2,20251105-084826,836,Experiment,Both,1,Automatic,main,30,20260504-160308,global,local,300,S,H,E,E,S-E.png,E-H.png,sS,hH,mask-1.png,mask-4.png,s,1,0.6536671002395451,h,1,0.3077253997325897,0.04739669989794493,0.04709549993276596,0.10039989976212382,0.10012990003451705,0.3002579999156296
RSVPLG03,sg,20260504-160023,1.0.2,20251105-084826,836,Experiment,Both,1,Automatic,main,31,20260504-160313,global,local,750,S,H,E,E,S-E.png,E-H.png,sS,hH,mask-1.png,mask-2.png,s,1,0.7927850000560284,s,0,0.1569433999247849,0.04738290002569556,0.04753530025482178,0.10038839979097247,0.09955670032650232,0.751224999781698
RSVPLG03,sg,20260504-160023,1.0.2,20251105-084826,836,Experiment,Both,1,Automatic,main,32,20260504-160318,global,global,750,S,S,E,E,S-E.png,S-E.png,sS,sS,mask-2.png,mask-4.png,s,1,0.4007902001030743,s,1,0.06838969979435205,0.04754630010575056,0.04754670010879636,0.09955279994755983,0.10159539990127087,0.7495875000022352
RSVPLG03,sg,20260504-160023,1.0.2,20251105-084826,836,Experiment,Both,1,Automatic,main,33,20260504-160323,global,global,750,H,H,E,A,H-E.png,H-A.png,hH,hH,mask-1.png,mask-3.png,s,0,1.1096152998507023,h,1,0.02795260027050972,0.049508600030094385,0.048373499885201454,0.1016677999868989,0.10044409986585379,0.7514793002046645
RSVPLG03,sg,20260504-160023,1.0.2,20251105-084826,836,Experiment,Both,1,Automatic,main,34,20260504-160328,global,global,750,S,S,A,A,S-A.png,S-A.png,sS,sS,mask-2.png,mask-1.png,s,1,0.4510089000687003,s,1,0.05368140013888478,0.04775100015103817,0.0478554000146687,0.09998079994693398,0.10094929998740554,0.75038590002805
RSVPLG03,sg,20260504-160023,1.0.2,20251105-084826,836,Experiment,Both,1,Automatic,main,35,20260504-160333,global,global,750,S,H,A,A,S-A.png,H-A.png,sS,hH,mask-2.png,mask-1.png,s,1,0.45354799972847104,h,1,0.12001940002664924,0.047686700243502855,0.048161199782043695,0.09945740038529038,0.09951619990170002,0.7512644003145397
RSVPLG03,sg,20260504-160023,1.0.2,20251105-084826,836,Experiment,Both,1,Automatic,main,36,20260504-160338,local,global,750,S,H,E,E,E-S.png,H-E.png,sS,hH,mask-2.png,mask-3.png,s,1,1.2540237000212073,h,1,0.2174333999864757,0.04611380025744438,0.047608000226318836,0.10061029996722937,0.09863010002300143,0.751802199985832
RSVPLG03,sg,20260504-160023,1.0.2,20251105-084826,836,Experiment,Both,1,Automatic,main,37,20260504-160343,local,local,750,H,H,E,E,E-H.png,E-H.png,hH,hH,mask-2.png,mask-3.png,h,1,0.5021858001127839,h,1,0.10489909956231713,0.04759889980778098,0.04634939972311258,0.0996535001322627,0.09943589987233281,0.7508840002119541
RSVPLG03,sg,20260504-160023,1.0.2,20251105-084826,836,Experiment,Both,1,Automatic,main,38,20260504-160348,local,local,300,H,H,E,E,E-H.png,E-H.png,hH,hH,mask-4.png,mask-2.png,h,1,0.6247802996076643,h,1,0.040062400046736,0.04821190005168319,0.04923629993572831,0.10024680010974407,0.1001172000542283,0.3000354003161192
RSVPLG03,sg,20260504-160023,1.0.2,20251105-084826,836,Experiment,Both,1,Automatic,main,39,20260504-160352,global,local,750,H,S,A,E,H-A.png,E-S.png,hH,sS,mask-2.png,mask-4.png,h,1,0.9769516000524163,s,1,1.0467733996920288,0.04653599997982383,0.046416299883276224,0.10093649988994002,0.09946159971877933,0.751135400030762
RSVPLG03,sg,20260504-160023,1.0.2,20251105-084826,836,Experiment,Both,1,Automatic,main,40,20260504-160358,global,global,750,H,S,A,E,H-A.png,S-E.png,hH,sS,mask-4.png,mask-4.png,h,1,0.42742859991267323,s,1,0.07156379986554384,0.04640580015257001,0.04740130016580224,0.0984407002106309,0.09860990010201931,0.7499913000501692
RSVPLG03,sg,20260504-160023,1.0.2,20251105-084826,836,Experiment,Both,1,Automatic,main,41,20260504-160403,global,local,300,H,H,A,E,H-A.png,E-H.png,hH,hH,mask-4.png,mask-3.png,h,1,1.227381999604404,s,0,0.0443034996278584,0.04606099985539913,0.04655619990080595,0.09955899976193905,0.0995736001059413,0.29984109988436103
RSVPLG03,sg,20260504-160023,1.0.2,20251105-084826,836,Experiment,Both,1,Automatic,main,42,20260504-160408,local,global,300,H,S,E,A,E-H.png,S-A.png,hH,sS,mask-1.png,mask-2.png,h,1,1.0189514998346567,h,0,0.10904919961467385,0.04566190019249916,0.04852139996364713,0.09858229989185929,0.10150559991598129,0.2987705999985337
RSVPLG03,sg,20260504-160023,1.0.2,20251105-084826,836,Experiment,Both,1,Automatic,main,43,20260504-160413,local,local,750,H,S,A,E,A-H.png,E-S.png,hH,sS,mask-4.png,mask-1.png,h,1,0.5691908001899719,s,1,0.09126009978353977,0.04653939977288246,0.047528999857604504,0.09956469992175698,0.09952879976481199,0.7513993000611663
RSVPLG03,sg,20260504-160023,1.0.2,20251105-084826,836,Experiment,Both,1,Automatic,main,44,20260504-160418,local,global,750,H,H,A,E,A-H.png,H-E.png,hH,hH,mask-4.png,mask-1.png,h,1,0.8411845997907221,h,1,0.306695600040257,0.047525699716061354,0.046798200346529484,0.10054869996383786,0.10032630013301969,0.7504198998212814
RSVPLG03,sg,20260504-160023,1.0.2,20251105-084826,836,Experiment,Both,1,Automatic,main,45,20260504-160423,global,global,300,H,S,A,E,H-A.png,S-E.png,hH,sS,mask-2.png,mask-2.png,h,1,0.8283906998112798,s,1,0.028500199783593416,0.04856500029563904,0.047523700166493654,0.10044980002567172,0.09871829999610782,0.3016760000027716
RSVPLG03,sg,20260504-160023,1.0.2,20251105-084826,836,Experiment,Both,1,Automatic,main,46,20260504-160428,local,local,750,S,H,E,A,E-S.png,A-H.png,sS,hH,mask-2.png,mask-3.png,s,1,0.7446640999987721,h,1,0.12160190008580685,0.047493199817836285,0.047300000209361315,0.09867319976910949,0.09958259994164109,0.7504576998762786
RSVPLG03,sg,20260504-160023,1.0.2,20251105-084826,836,Experiment,Both,1,Automatic,main,47,20260504-160433,local,global,750,H,H,A,A,A-H.png,H-A.png,hH,hH,mask-1.png,mask-4.png,h,1,0.7984174997545779,s,0,0.34933909960091114,0.04775850009173155,0.0477423002012074,0.10097989998757839,0.09894850011914968,0.7521110000088811
RSVPLG03,sg,20260504-160023,1.0.2,20251105-084826,836,Experiment,Both,1,Automatic,main,48,20260504-160438,local,global,300,S,S,E,A,E-S.png,S-A.png,sS,sS,mask-1.png,mask-4.png,s,1,0.9881974002346396,h,0,0.740902699995786,0.045545900240540504,0.047553100157529116,0.09971300000324845,0.10063919983804226,0.29921890003606677
RSVPLG03,sg,20260504-160023,1.0.2,20251105-084826,836,Experiment,Both,1,Automatic,main,49,20260504-160444,global,global,300,H,H,E,E,H-E.png,H-E.png,hH,hH,mask-2.png,mask-4.png,h,1,0.7962040002457798,s,0,0.4928172002546489,0.0485495999455452,0.0475683999247849,0.10132759995758533,0.10163210006430745,0.3000982999801636
RSVPLG03,sg,20260504-160023,1.0.2,20251105-084826,836,Experiment,Both,1,Automatic,main,50,20260504-160449,local,global,300,H,S,A,A,A-H.png,S-A.png,hH,sS,mask-1.png,mask-2.png,h,1,0.5626043998636305,h,0,0.06521759973838925,0.04597899969667196,0.04671850008890033,0.09889749996364117,0.09957210021093488,0.29965109983459115
RSVPLG03,sg,20260504-160023,1.0.2,20251105-084826,836,Experiment,Both,1,Automatic,main,51,20260504-160602,local,local,300,H,H,E,E,E-H.png,E-H.png,hH,hH,mask-3.png,mask-1.png,h,1,1.071107900235802,h,1,0.08217209996655583,0.04653949989005923,0.04738220013678074,0.09958870010450482,0.10041900025680661,0.2990775997750461
RSVPLG03,sg,20260504-160023,1.0.2,20251105-084826,836,Experiment,Both,1,Automatic,main,52,20260504-160607,global,local,750,H,S,A,A,H-A.png,A-S.png,hH,sS,mask-2.png,mask-1.png,h,1,0.6977011999115348,s,1,0.3912279000505805,0.04670229973271489,0.04753539990633726,0.09990609996020794,0.09877760009840131,0.7510434999130666
RSVPLG03,sg,20260504-160023,1.0.2,20251105-084826,836,Experiment,Both,1,Automatic,main,53,20260504-160612,local,global,750,H,H,A,A,A-H.png,H-A.png,hH,hH,mask-4.png,mask-2.png,h,1,0.7938169999979436,h,1,0.25838200002908707,0.047688199672847986,0.04668099991977215,0.09988549957051873,0.09887380013242364,0.7506903996691108
RSVPLG03,sg,20260504-160023,1.0.2,20251105-084826,836,Experiment,Both,1,Automatic,main,54,20260504-160617,local,local,750,S,S,A,E,A-S.png,E-S.png,sS,sS,mask-4.png,mask-1.png,s,1,0.8135640001855791,s,1,0.09215000038966537,0.04752850020304322,0.04750759992748499,0.09950389992445707,0.09952809987589717,0.7504439000040293
RSVPLG03,sg,20260504-160023,1.0.2,20251105-084826,836,Experiment,Both,1,Automatic,main,55,20260504-160623,local,global,750,H,H,A,A,A-H.png,H-A.png,hH,hH,mask-1.png,mask-4.png,h,1,0.5594544000923634,h,1,0.5762387998402119,0.04703380027785897,0.04982319986447692,0.10033340007066727,0.10102260019630194,0.7497743000276387
RSVPLG03,sg,20260504-160023,1.0.2,20251105-084826,836,Experiment,Both,1,Automatic,main,56,20260504-160628,global,global,750,H,H,E,E,H-E.png,H-E.png,hH,hH,mask-2.png,mask-3.png,s,0,0.8480398999527097,h,1,0.13816360011696815,0.04774069972336292,0.04584369994699955,0.09996519982814789,0.09994370024651289,0.7521674996241927
RSVPLG03,sg,20260504-160023,1.0.2,20251105-084826,836,Experiment,Both,1,Automatic,main,57,20260504-160633,global,global,300,H,S,A,A,H-A.png,S-A.png,hH,sS,mask-4.png,mask-1.png,h,1,0.5057943998835981,s,1,0.04826040007174015,0.04669969994574785,0.047718499787151814,0.09808499971404672,0.09910579957067966,0.2994427001103759
RSVPLG03,sg,20260504-160023,1.0.2,20251105-084826,836,Experiment,Both,1,Automatic,main,58,20260504-160637,local,global,300,H,S,A,E,A-H.png,S-E.png,hH,sS,mask-3.png,mask-1.png,h,1,0.694639100227505,h,0,0.28194739995524287,0.0487079001031816,0.0487956996075809,0.09991070022806525,0.10195879964157939,0.29983940022066236
RSVPLG03,sg,20260504-160023,1.0.2,20251105-084826,836,Experiment,Both,1,Automatic,main,59,20260504-160642,global,global,750,S,S,E,E,S-E.png,S-E.png,sS,sS,mask-1.png,mask-3.png,s,1,0.6958734001964331,s,1,0.05754349986091256,0.047722899820655584,0.048694499768316746,0.09886049991473556,0.09996859962120652,0.7498535001650453
RSVPLG03,sg,20260504-160023,1.0.2,20251105-084826,836,Experiment,Both,1,Automatic,main,60,20260504-160647,global,local,750,S,H,E,A,S-E.png,A-H.png,sS,hH,mask-4.png,mask-3.png,s,1,0.4699082002043724,h,1,0.12493069982156157,0.0457241996191442,0.04765770025551319,0.09882509987801313,0.10013819998130202,0.750687699764967
RSVPLG03,sg,20260504-160023,1.0.2,20251105-084826,836,Experiment,Both,1,Automatic,main,61,20260504-160652,local,local,300,S,H,E,E,E-S.png,E-H.png,sS,hH,mask-3.png,mask-3.png,s,1,0.8924563997425139,h,1,0.17756959982216358,0.04867299972102046,0.04765610024333,0.10088519984856248,0.099878900218755,0.30055509973317385
RSVPLG03,sg,20260504-160023,1.0.2,20251105-084826,836,Experiment,Both,1,Automatic,main,62,20260504-160656,global,local,750,S,H,A,A,S-A.png,A-H.png,sS,hH,mask-4.png,mask-1.png,s,1,0.44935259968042374,h,1,0.13450559973716736,0.048559300135821104,0.04753630002960563,0.10061069997027516,0.10053069982677698,0.7505830000154674
RSVPLG03,sg,20260504-160023,1.0.2,20251105-084826,836,Experiment,Both,1,Automatic,main,63,20260504-160701,local,local,750,H,H,E,A,E-H.png,A-H.png,hH,hH,mask-4.png,mask-4.png,h,1,0.42638340033590794,h,1,0.08728960016742349,0.04771599965170026,0.046596100088208914,0.09965679980814457,0.10036320006474853,0.7508050999604166
RSVPLG03,sg,20260504-160023,1.0.2,20251105-084826,836,Experiment,Both,1,Automatic,main,64,20260504-160706,local,local,300,H,H,A,E,A-H.png,E-H.png,hH,hH,mask-1.png,mask-1.png,h,1,0.5584073998034,h,1,0.05526569997891784,0.04869870003312826,0.04911210015416145,0.10080999974161386,0.10079509997740388,0.30002979980781674
RSVPLG03,sg,20260504-160023,1.0.2,20251105-084826,836,Experiment,Both,1,Automatic,main,65,20260504-160710,global,global,750,H,H,E,E,H-E.png,H-E.png,hH,hH,mask-2.png,mask-1.png,h,1,0.36220520036295056,h,1,0.06477059982717037,0.04770269989967346,0.04626329988241196,0.0998894996009767,0.10035939980298281,0.7520337998867035
RSVPLG03,sg,20260504-160023,1.0.2,20251105-084826,836,Experiment,Both,1,Automatic,main,66,20260504-160715,local,local,300,S,S,E,A,E-S.png,A-S.png,sS,sS,mask-2.png,mask-2.png,s,1,0.5170487998984754,s,1,0.08471299987286329,0.04778360016644001,0.047799600288271904,0.10004730010405183,0.09991070022806525,0.2998575000092387
RSVPLG03,sg,20260504-160023,1.0.2,20251105-084826,836,Experiment,Both,1,Automatic,main,67,20260504-160719,global,global,750,H,S,E,A,H-E.png,S-A.png,hH,sS,mask-3.png,mask-1.png,h,1,0.5112867001444101,s,1,0.038368099834769964,0.04759069997817278,0.04750120034441352,0.10060890018939972,0.10070300009101629,0.7520027998834848
RSVPLG03,sg,20260504-160023,1.0.2,20251105-084826,836,Experiment,Both,1,Automatic,main,68,20260504-160724,local,local,300,H,S,E,A,E-H.png,A-S.png,hH,sS,mask-3.png,mask-4.png,h,1,0.5332969999872148,s,1,0.023785799741744995,0.04750330001115799,0.04663030011579394,0.098768699914217,0.09972669975832105,0.3000942999497056
RSVPLG03,sg,20260504-160023,1.0.2,20251105-084826,836,Experiment,Both,1,Automatic,main,69,20260504-160728,local,global,750,H,H,E,A,E-H.png,H-A.png,hH,hH,mask-2.png,mask-3.png,h,1,1.1266851001419127,s,0,0.4130298001691699,0.04766240017488599,0.047524800058454275,0.0996586000546813,0.10153040010482073,0.7499111001379788
RSVPLG03,sg,20260504-160023,1.0.2,20251105-084826,836,Experiment,Both,1,Automatic,main,70,20260504-160734,local,global,750,S,H,A,E,A-S.png,H-E.png,sS,hH,mask-3.png,mask-2.png,s,1,0.8583402000367641,s,0,0.1045715999789536,0.04653829988092184,0.046543000265955925,0.09964499995112419,0.1005099001340568,0.7505071996711195
RSVPLG03,sg,20260504-160023,1.0.2,20251105-084826,836,Experiment,Both,1,Automatic,main,71,20260504-160739,global,local,300,H,S,A,E,H-A.png,E-S.png,hH,sS,mask-2.png,mask-4.png,h,1,0.6011286000721157,s,1,0.023610499687492847,0.0475208000279963,0.046506599988788366,0.10051609994843602,0.09950949996709824,0.30110449995845556
RSVPLG03,sg,20260504-160023,1.0.2,20251105-084826,836,Experiment,Both,1,Automatic,main,72,20260504-160743,local,global,300,S,H,E,E,E-S.png,H-E.png,sS,hH,mask-4.png,mask-3.png,s,1,0.8531255000270903,s,0,0.09864199999719858,0.04851630004122853,0.04672029986977577,0.1006082003004849,0.10085549997165799,0.30082690017297864
RSVPLG03,sg,20260504-160023,1.0.2,20251105-084826,836,Experiment,Both,1,Automatic,main,73,20260504-160748,global,local,300,S,S,A,E,S-A.png,E-S.png,sS,sS,mask-2.png,mask-1.png,s,1,1.6004625000059605,h,0,0.023811900056898594,0.047529599629342556,0.04753020033240318,0.09959909971803427,0.10053749987855554,0.2998742996715009
RSVPLG03,sg,20260504-160023,1.0.2,20251105-084826,836,Experiment,Both,1,Automatic,main,74,20260504-160753,local,local,750,H,S,E,A,E-H.png,A-S.png,hH,sS,mask-1.png,mask-4.png,h,1,0.38100309995934367,s,1,0.09330319985747337,0.048554399982094765,0.047622100450098515,0.10058510024100542,0.09863770008087158,0.7520833997987211
RSVPLG03,sg,20260504-160023,1.0.2,20251105-084826,836,Experiment,Both,1,Automatic,main,75,20260504-160758,local,global,750,H,S,A,A,A-H.png,S-A.png,hH,sS,mask-3.png,mask-1.png,h,1,0.7165350001305342,h,0,0.0563527001067996,0.047522100154310465,0.04858950013294816,0.10056339995935559,0.10068499995395541,0.7493658000603318
RSVPLG03,sg,20260504-160023,1.0.2,20251105-084826,836,Experiment,Both,1,Automatic,main,76,20260504-160805,global,local,750,H,H,E,E,H-E.png,E-H.png,hH,hH,mask-2.png,mask-1.png,h,1,0.7827387000434101,h,1,0.07022139988839626,0.047587699722498655,0.04646440036594868,0.09974009962752461,0.09991690004244447,0.7518697995692492
RSVPLG03,sg,20260504-160023,1.0.2,20251105-084826,836,Experiment,Both,1,Automatic,main,77,20260504-160810,global,local,300,S,S,E,A,S-E.png,A-S.png,sS,sS,mask-2.png,mask-1.png,h,0,0.5386447003111243,h,0,0.07376159960404038,0.04772330028936267,0.047753799706697464,0.09994730027392507,0.10083709983155131,0.300745100248605
RSVPLG03,sg,20260504-160023,1.0.2,20251105-084826,836,Experiment,Both,1,Automatic,main,78,20260504-160815,local,global,750,H,H,E,E,E-H.png,H-E.png,hH,hH,mask-3.png,mask-4.png,h,1,1.7124238996766508,s,0,0.05695209978148341,0.046862300019711256,0.047643200028687716,0.1013175998814404,0.09986929967999458,0.7514516999945045
RSVPLG03,sg,20260504-160023,1.0.2,20251105-084826,836,Experiment,Both,1,Automatic,main,79,20260504-160821,global,local,750,S,H,E,E,S-E.png,E-H.png,sS,hH,mask-3.png,mask-4.png,s,1,0.7756700003519654,s,0,0.16288209985941648,0.04868300026282668,0.047568799927830696,0.10088569996878505,0.09953660005703568,0.7510933000594378
RSVPLG03,sg,20260504-160023,1.0.2,20251105-084826,836,Experiment,Both,1,Automatic,main,80,20260504-160826,local,local,300,H,S,E,A,E-H.png,A-S.png,hH,sS,mask-4.png,mask-2.png,h,1,0.8563132998533547,s,1,0.21204120013862848,0.047133099753409624,0.04809430008754134,0.10012939991429448,0.10020090034231544,0.29992879973724484
RSVPLG03,sg,20260504-160023,1.0.2,20251105-084826,836,Experiment,Both,1,Automatic,main,81,20260504-160831,global,local,300,H,H,A,E,H-A.png,E-H.png,hH,hH,mask-3.png,mask-1.png,h,1,0.937895099632442,s,0,0.26808409998193383,0.04670819966122508,0.04750100011005998,0.09977589966729283,0.10153470002114773,0.30003049969673157
RSVPLG03,sg,20260504-160023,1.0.2,20251105-084826,836,Experiment,Both,1,Automatic,main,82,20260504-160836,local,global,750,S,S,E,A,E-S.png,S-A.png,sS,sS,mask-2.png,mask-3.png,s,1,0.5288665001280606,s,1,0.019689399749040604,0.04750670026987791,0.047521499916911125,0.09950490016490221,0.10051140002906322,0.7500534001737833
RSVPLG03,sg,20260504-160023,1.0.2,20251105-084826,836,Experiment,Both,1,Automatic,main,83,20260504-160840,local,local,750,H,S,E,A,E-H.png,A-S.png,hH,sS,mask-2.png,mask-1.png,h,1,0.3147998000495136,s,1,0.26938149984925985,0.048622900154441595,0.04753359965980053,0.09977840026840568,0.09961509983986616,0.7518187002278864
RSVPLG03,sg,20260504-160023,1.0.2,20251105-084826,836,Experiment,Both,1,Automatic,main,84,20260504-160845,local,local,750,S,S,E,A,E-S.png,A-S.png,sS,sS,mask-2.png,mask-2.png,s,1,0.6022759000770748,s,1,0.08406500006094575,0.047754600178450346,0.04773639980703592,0.10051470017060637,0.09993669996038079,0.7517817001789808
RSVPLG03,sg,20260504-160023,1.0.2,20251105-084826,836,Experiment,Both,1,Automatic,main,85,20260504-160850,local,local,300,H,S,A,E,A-H.png,E-S.png,hH,sS,mask-3.png,mask-2.png,h,1,0.9720870000310242,s,1,0.4500792999751866,0.048566299956291914,0.0494590001180768,0.10159069998189807,0.10135020036250353,0.29975949972867966
RSVPLG03,sg,20260504-160023,1.0.2,20251105-084826,836,Experiment,Both,1,Automatic,main,86,20260504-160855,local,global,300,H,S,A,A,A-H.png,S-A.png,hH,sS,mask-1.png,mask-2.png,h,1,0.5250887000001967,h,0,0.34981709998100996,0.04571660002693534,0.047513500321656466,0.09984299959614873,0.09952220041304827,0.30039719957858324
RSVPLG03,sg,20260504-160023,1.0.2,20251105-084826,836,Experiment,Both,1,Automatic,main,87,20260504-160900,local,local,300,H,S,E,E,E-H.png,E-S.png,hH,sS,mask-2.png,mask-3.png,h,1,0.7330591999925673,s,1,0.13712590001523495,0.04635469987988472,0.047124499920755625,0.0996195999905467,0.09870610013604164,0.29993999982252717
RSVPLG03,sg,20260504-160023,1.0.2,20251105-084826,836,Experiment,Both,1,Automatic,main,88,20260504-160905,global,global,300,H,S,E,E,H-E.png,S-E.png,hH,sS,mask-1.png,mask-2.png,h,1,0.763863299973309,s,1,0.17816819995641708,0.04858570033684373,0.04783400008454919,0.10073370020836592,0.10104480013251305,0.30025490000844
RSVPLG03,sg,20260504-160023,1.0.2,20251105-084826,836,Experiment,Both,1,Automatic,main,89,20260504-160909,local,global,750,H,H,E,A,E-H.png,H-A.png,hH,hH,mask-1.png,mask-2.png,h,1,0.5670715998858213,h,1,0.07354009989649057,0.04769399994984269,0.047704700380563736,0.09906249959021807,0.09957840014249086,0.75026989961043
RSVPLG03,sg,20260504-160023,1.0.2,20251105-084826,836,Experiment,Both,1,Automatic,main,90,20260504-160914,local,global,750,S,S,A,A,A-S.png,S-A.png,sS,sS,mask-4.png,mask-3.png,s,1,0.9244303996674716,s,1,0.07651939988136292,0.04755169991403818,0.04725620010867715,0.09862620010972023,0.09967750031501055,0.7507503000088036
RSVPLG03,sg,20260504-160023,1.0.2,20251105-084826,836,Experiment,Both,1,Automatic,main,91,20260504-160919,global,local,750,H,H,A,A,H-A.png,A-H.png,hH,hH,mask-4.png,mask-3.png,h,1,0.6331503000110388,h,1,0.13795229978859425,0.047626799903810024,0.046615200117230415,0.09965059999376535,0.09981059981510043,0.7506897998973727
RSVPLG03,sg,20260504-160023,1.0.2,20251105-084826,836,Experiment,Both,1,Automatic,main,92,20260504-160924,global,global,300,S,S,E,E,S-E.png,S-E.png,sS,sS,mask-2.png,mask-1.png,s,1,0.5522606000304222,s,1,0.07394609972834587,0.04768559988588095,0.04669809993356466,0.09994809981435537,0.0991270998492837,0.30060179997235537
RSVPLG03,sg,20260504-160023,1.0.2,20251105-084826,836,Experiment,Both,1,Automatic,main,93,20260504-160929,global,global,300,H,S,E,E,H-E.png,S-E.png,hH,sS,mask-3.png,mask-4.png,s,0,0.9720524996519089,s,1,0.9532132996246219,0.04866639990359545,0.047554099932312965,0.10006370022892952,0.10072459978982806,0.3005408002063632
RSVPLG03,sg,20260504-160023,1.0.2,20251105-084826,836,Experiment,Both,1,Automatic,main,94,20260504-160934,global,global,300,S,H,E,E,S-E.png,H-E.png,sS,hH,mask-4.png,mask-1.png,s,1,0.667896999977529,h,1,0.20531459990888834,0.046561900060623884,0.04780620010569692,0.09968740027397871,0.10081670014187694,0.2982883001677692
RSVPLG03,sg,20260504-160023,1.0.2,20251105-084826,836,Experiment,Both,1,Automatic,main,95,20260504-160939,local,local,300,H,S,E,E,E-H.png,E-S.png,hH,sS,mask-3.png,mask-2.png,h,1,1.8791460995562375,s,1,0.08609679993242025,0.04752699984237552,0.0475165001116693,0.10059019969776273,0.10153530025854707,0.30013969959691167
RSVPLG03,sg,20260504-160023,1.0.2,20251105-084826,836,Experiment,Both,1,Automatic,main,96,20260504-160945,local,local,300,S,H,E,A,E-S.png,A-H.png,sS,hH,mask-2.png,mask-3.png,s,1,0.5881278999149799,s,0,0.07126470003277063,0.04869880015030503,0.04758569970726967,0.09950290014967322,0.0996761997230351,0.3009264003485441
RSVPLG03,sg,20260504-160023,1.0.2,20251105-084826,836,Experiment,Both,1,Automatic,main,97,20260504-160949,local,global,300,H,S,A,E,A-H.png,S-E.png,hH,sS,mask-4.png,mask-4.png,h,1,0.5889836000278592,s,1,0.10400669975206256,0.047562200110405684,0.04752560006454587,0.10055259987711906,0.09852509992197156,0.3017911999486387
RSVPLG03,sg,20260504-160023,1.0.2,20251105-084826,836,Experiment,Both,1,Automatic,main,98,20260504-160954,global,local,300,S,H,E,E,S-E.png,E-H.png,sS,hH,mask-2.png,mask-4.png,s,1,0.8445087000727654,s,0,0.28161050006747246,0.04679740034043789,0.046622199937701225,0.09920669998973608,0.09962530015036464,0.29961640015244484
RSVPLG03,sg,20260504-160023,1.0.2,20251105-084826,836,Experiment,Both,1,Automatic,main,99,20260504-160958,local,global,300,S,H,E,A,E-S.png,H-A.png,sS,hH,mask-3.png,mask-2.png,s,1,0.5889833001419902,s,0,0.11524010030552745,0.047605300322175026,0.048597400076687336,0.10170500027015805,0.1006869999691844,0.3009101999923587
RSVPLG03,sg,20260504-160023,1.0.2,20251105-084826,836,Experiment,Both,1,Automatic,main,100,20260504-161003,local,local,750,H,H,A,A,A-H.png,A-H.png,hH,hH,mask-2.png,mask-1.png,h,1,0.45419060019776225,h,1,0.11858569970354438,0.047877199947834015,0.0485768998041749,0.09993389993906021,0.10066530015319586,0.7507825000211596
