exp,exp_initials,runtime,ver,modtime,sub,blocktype,targets,cuetype,mode,trialtype,trial,trialtime,t1_level,t2_level,t2_lag,t1,t2,distractor1,distractor2,stimfile1,stimfile2,t1_corr,t2_corr,maskfile1,maskfile2,t1_resp,t1_acc,t1_rt,t2_resp,t2_acc,t2_rt,t1_dur,t2_dur,t1mask_soa,t2mask_soa,t1t2_soa
RSVPLG03,cs,20251023-135446,1.0.1,20251020-085245,715,Introduction,T1,1,Automatic,main,1,20251023-135522,global,global,750,H,S,E,E,H-E.png,S-E.png,hH,sS,mask-4.png,mask-1.png,s,0,1.9395815999887418,none,-5,0,0.09897750000527594,0.09545960000832565,0.1997036999964621,0.19804310001200065,0.7492027999978745
RSVPLG03,cs,20251023-135446,1.0.1,20251020-085245,715,Introduction,T1,1,Automatic,main,2,20251023-135528,global,global,750,S,S,E,E,S-E.png,S-E.png,sS,sS,mask-3.png,mask-4.png,none,-6,0,none,-5,0,0.09794619999593124,0.09770009999920148,0.19950600000447594,0.19974179999553598,0.7486714999977266
RSVPLG03,cs,20251023-135538,1.0.1,20251020-085245,715,Introduction,T1,1,Automatic,main,1,20251023-135601,local,global,750,S,H,E,E,E-S.png,H-E.png,sS,hH,mask-3.png,mask-3.png,s,1,0.7785070999962045,none,-5,0,0.09023480000905693,0.09740169999713544,0.19328620001033414,0.19876129999465775,0.7426833000063198
RSVPLG03,cs,20251023-135538,1.0.1,20251020-085245,715,Introduction,T1,1,Automatic,main,2,20251023-135606,local,global,750,S,H,E,A,E-S.png,H-A.png,sS,hH,mask-1.png,mask-1.png,h,0,1.9486802000028547,none,-5,0,0.09700769999471959,0.09654090000549331,0.19863149999582674,0.19832560000941157,0.7497880999871995
RSVPLG03,cs,20251023-135538,1.0.1,20251020-085245,715,Introduction,T1,1,Automatic,main,3,20251023-135612,local,global,750,S,S,A,E,A-S.png,S-E.png,sS,sS,mask-4.png,mask-2.png,s,1,1.5672803999914322,none,-5,0,0.09483659999386873,0.09757230000104755,0.1979797999956645,0.2008918000065023,0.7467802999890409
RSVPLG03,cs,20251023-135538,1.0.1,20251020-085245,715,Introduction,T1,1,Automatic,main,4,20251023-135618,global,local,750,H,H,A,E,H-A.png,E-H.png,hH,hH,mask-1.png,mask-1.png,h,1,1.2723595999996178,none,-5,0,0.0970765000092797,0.09726249999948777,0.1993722000042908,0.1995759999990696,0.748870800001896
RSVPLG03,cs,20251023-135538,1.0.1,20251020-085245,715,Introduction,T1,1,Automatic,main,5,20251023-135623,local,local,750,H,H,A,A,A-H.png,A-H.png,hH,hH,mask-2.png,mask-4.png,h,1,1.1341412000037963,none,-5,0,0.0974279999936698,0.09731299999111798,0.1988048999919556,0.19928629999049008,0.7492781000037212
RSVPLG03,cs,20251023-135538,1.0.1,20251020-085245,715,Introduction,T1,1,Automatic,main,6,20251023-135628,global,global,750,H,H,A,A,H-A.png,H-A.png,hH,hH,mask-2.png,mask-4.png,h,1,0.9502877000049921,none,-5,0,0.09660459999577142,0.09704280000005383,0.1998872999974992,0.19965359999332577,0.7480065999989165
RSVPLG03,cs,20251023-135538,1.0.1,20251020-085245,715,Introduction,T1,1,Automatic,main,7,20251023-135633,global,global,750,H,H,A,A,H-A.png,H-A.png,hH,hH,mask-3.png,mask-4.png,h,1,0.8443186999938916,none,-5,0,0.0978499000048032,0.09709700000530574,0.19938460001139902,0.19874520000303164,0.7491937000013422
RSVPLG03,cs,20251023-135538,1.0.1,20251020-085245,715,Introduction,T1,1,Automatic,main,8,20251023-135638,global,global,750,H,S,A,E,H-A.png,S-E.png,hH,sS,mask-2.png,mask-1.png,s,0,1.0887746999942465,none,-5,0,0.0971204000088619,0.09696020001138095,0.20073100000445265,0.19933540000056382,0.7487213999993401
RSVPLG03,cs,20251023-135538,1.0.1,20251020-085245,715,Introduction,T1,1,Automatic,main,9,20251023-135643,local,local,750,H,H,E,A,E-H.png,A-H.png,hH,hH,mask-2.png,mask-4.png,h,1,0.647392700004275,none,-5,0,0.09514010000566486,0.0974582999915583,0.19865150000259746,0.2013784000009764,0.7466964000050211
RSVPLG03,cs,20251023-135538,1.0.1,20251020-085245,715,Introduction,T1,1,Automatic,main,10,20251023-135648,global,local,750,H,H,A,E,H-A.png,E-H.png,hH,hH,mask-4.png,mask-2.png,h,1,0.8607934999890858,none,-5,0,0.09739100000297185,0.09626869999920018,0.1982949999946868,0.1993530999898212,0.7478509000065969
RSVPLG03,cs,20251023-135538,1.0.1,20251020-085245,715,Introduction,T1,1,Automatic,main,11,20251023-135653,global,global,750,H,H,E,A,H-E.png,H-A.png,hH,hH,mask-4.png,mask-2.png,h,1,0.9847430000081658,none,-5,0,0.0974489999935031,0.09614400001009926,0.20086099999025464,0.198843999998644,0.7503925999917556
RSVPLG03,cs,20251023-135538,1.0.1,20251020-085245,715,Introduction,T1,1,Automatic,main,12,20251023-135658,local,local,750,S,H,A,A,A-S.png,A-H.png,sS,hH,mask-1.png,mask-1.png,h,0,1.2286909999966156,none,-5,0,0.09622390000731684,0.09628189999784809,0.1986592000030214,0.19953879999229684,0.7486044000106631
RSVPLG03,cs,20251023-135538,1.0.1,20251020-085245,715,Introduction,T1,1,Automatic,main,13,20251023-135704,global,local,750,H,S,A,E,H-A.png,E-S.png,hH,sS,mask-4.png,mask-3.png,s,0,1.8357207000080962,none,-5,0,0.09614839999994729,0.09703969999100082,0.19855880000977777,0.19836079998640344,0.7491395000106422
RSVPLG03,cs,20251023-135538,1.0.1,20251020-085245,715,Introduction,T1,1,Automatic,main,14,20251023-135710,local,local,750,S,H,E,E,E-S.png,E-H.png,sS,hH,mask-2.png,mask-3.png,h,0,1.193846099995426,none,-5,0,0.09566929998982232,0.09786280000116676,0.1976198999909684,0.19927319999260362,0.7474060999957146
RSVPLG03,cs,20251023-135538,1.0.1,20251020-085245,715,Introduction,T1,1,Automatic,main,15,20251023-135715,global,local,750,H,S,E,E,H-E.png,E-S.png,hH,sS,mask-1.png,mask-1.png,s,0,2.5612091999937547,none,-5,0,0.09699320000072476,0.09789260000979993,0.1994736000051489,0.20052850000502076,0.7476686000009067
RSVPLG03,cs,20251023-135538,1.0.1,20251020-085245,715,Introduction,T1,1,Automatic,main,16,20251023-135722,local,global,750,S,H,E,A,E-S.png,H-A.png,sS,hH,mask-2.png,mask-1.png,h,0,0.917233899992425,none,-5,0,0.09786310000345111,0.09575690000201575,0.19910779999918304,0.199628100002883,0.7496699999901466
RSVPLG03,cs,20251023-135742,1.0.1,20251020-085245,715,Practice,T1,1,Automatic,main,1,20251023-135801,local,global,750,H,H,E,E,E-H.png,H-E.png,hH,hH,mask-4.png,mask-3.png,h,1,1.0034807000047294,none,-5,0,0.04715260000375565,0.04614830001082737,0.09992339999007527,0.09896329999901354,0.7534750999911921
RSVPLG03,cs,20251023-135742,1.0.1,20251020-085245,715,Practice,T1,1,Automatic,main,2,20251023-135806,global,global,750,S,H,A,A,S-A.png,H-A.png,sS,hH,mask-2.png,mask-3.png,h,0,0.9689772999990964,none,-5,0,0.046643100009532645,0.04719850000401493,0.10008070000912994,0.09961720000137575,0.7514182000013534
RSVPLG03,cs,20251023-135742,1.0.1,20251020-085245,715,Practice,T1,1,Automatic,main,3,20251023-135811,local,local,300,H,H,A,A,A-H.png,A-H.png,hH,hH,mask-3.png,mask-4.png,h,1,0.7176522000081604,none,-5,0,0.048156799995922484,0.04712350000045262,0.1001481999992393,0.101518199997372,0.30075000000942964
RSVPLG03,cs,20251023-135742,1.0.1,20251020-085245,715,Practice,T1,1,Automatic,main,4,20251023-135815,global,global,300,H,S,A,E,H-A.png,S-E.png,hH,sS,mask-1.png,mask-4.png,s,0,1.024472799996147,none,-5,0,0.047209900003508665,0.048180199999478646,0.09943069999280851,0.09906180000689346,0.30042329999560025
RSVPLG03,cs,20251023-135742,1.0.1,20251020-085245,715,Practice,T1,1,Automatic,main,5,20251023-135820,local,global,750,H,S,E,A,E-H.png,S-A.png,hH,sS,mask-1.png,mask-3.png,s,0,1.1551799000008032,none,-5,0,0.04725979999057017,0.04708530000061728,0.09955929999705404,0.09965830000874121,0.7523824999952922
RSVPLG03,cs,20251023-135742,1.0.1,20251020-085245,715,Practice,T1,1,Automatic,main,6,20251023-135825,global,global,300,H,S,E,E,H-E.png,S-E.png,hH,sS,mask-1.png,mask-3.png,s,0,0.7183174000092549,none,-5,0,0.04732959999819286,0.04778150000493042,0.09999170000082813,0.10113890000502579,0.299832199991215
RSVPLG03,cs,20251023-135742,1.0.1,20251020-085245,715,Practice,T1,1,Automatic,main,7,20251023-135830,global,local,300,S,H,A,A,S-A.png,A-H.png,sS,hH,mask-4.png,mask-2.png,s,1,1.0283009000122547,none,-5,0,0.04744090000167489,0.04742350000014994,0.09943760000169277,0.10112589999334887,0.2999178000027314
RSVPLG03,cs,20251023-135742,1.0.1,20251020-085245,715,Practice,T1,1,Automatic,main,8,20251023-135834,global,local,750,S,H,E,A,S-E.png,A-H.png,sS,hH,mask-2.png,mask-1.png,h,0,0.7172516999999061,none,-5,0,0.048714700009441,0.046370399999432266,0.10189910000190139,0.09886079998977948,0.7544353000121191
RSVPLG03,cs,20251023-135742,1.0.1,20251020-085245,715,Practice,T1,1,Automatic,main,9,20251023-135839,local,global,300,H,S,A,A,A-H.png,S-A.png,hH,sS,mask-2.png,mask-4.png,s,0,0.5913378999975976,none,-5,0,0.04773859999841079,0.04692579999391455,0.10111069999402389,0.10067280000657775,0.30146819999208674
RSVPLG03,cs,20251023-135742,1.0.1,20251020-085245,715,Practice,T1,1,Automatic,main,10,20251023-135843,local,global,300,H,S,E,E,E-H.png,S-E.png,hH,sS,mask-3.png,mask-1.png,s,0,0.6370484999933979,none,-5,0,0.04870079999091104,0.04720679999445565,0.1008497000002535,0.099106199995731,0.3019094000046607
RSVPLG03,cs,20251023-135742,1.0.1,20251020-085245,715,Practice,T1,1,Automatic,main,11,20251023-135847,local,local,750,H,H,E,A,E-H.png,A-H.png,hH,hH,mask-2.png,mask-1.png,h,1,0.5855984000081662,none,-5,0,0.04689739999594167,0.048063200010801665,0.10008099999686237,0.10052330000326037,0.7514890999882482
RSVPLG03,cs,20251023-135742,1.0.1,20251020-085245,715,Practice,T1,1,Automatic,main,12,20251023-135852,local,local,300,H,H,E,A,E-H.png,A-H.png,hH,hH,mask-3.png,mask-3.png,s,0,1.207651500008069,none,-5,0,0.047254699995392,0.047184699986246414,0.10113799999817275,0.10072499999660067,0.30113120000169147
RSVPLG03,cs,20251023-135742,1.0.1,20251020-085245,715,Practice,T1,1,Automatic,main,13,20251023-135857,global,local,300,S,H,A,A,S-A.png,A-H.png,sS,hH,mask-2.png,mask-3.png,s,1,0.40605790000699926,none,-5,0,0.04849100000865292,0.04609299999719951,0.09923230001004413,0.09938640000473242,0.3013095000060275
RSVPLG03,cs,20251023-135742,1.0.1,20251020-085245,715,Practice,T1,1,Automatic,main,14,20251023-135901,global,global,750,H,H,A,A,H-A.png,H-A.png,hH,hH,mask-2.png,mask-2.png,h,1,0.5760894999984885,none,-5,0,0.04670530000294093,0.046991200011689216,0.0989770000014687,0.10013190000609029,0.7520265999919502
RSVPLG03,cs,20251023-135742,1.0.1,20251020-085245,715,Practice,T1,1,Automatic,main,15,20251023-135905,local,local,750,H,H,A,A,A-H.png,A-H.png,hH,hH,mask-4.png,mask-1.png,h,1,0.5139655999955721,none,-5,0,0.04750660000718199,0.04718799999682233,0.09905849999631755,0.10162590000254568,0.7509699000074761
RSVPLG03,cs,20251023-135742,1.0.1,20251020-085245,715,Practice,T1,1,Automatic,main,16,20251023-135910,global,local,750,S,S,E,A,S-E.png,A-S.png,sS,sS,mask-3.png,mask-1.png,s,1,0.6068297000019811,none,-5,0,0.048558199996477924,0.04806319999624975,0.1002645999978995,0.10020830000576098,0.7520529000030365
RSVPLG03,cs,20251023-135928,1.0.1,20251020-085245,715,Practice,T1,1,Automatic,main,1,20251023-135954,local,local,750,H,S,A,A,A-H.png,A-S.png,hH,sS,mask-3.png,mask-4.png,h,1,0.8532176000007894,none,-5,0,0.046491799992509186,0.04671619999862742,0.09957019999274053,0.09972090000519529,0.7480999999970663
RSVPLG03,cs,20251023-135928,1.0.1,20251020-085245,715,Practice,T1,1,Automatic,main,2,20251023-135959,global,global,300,H,H,A,E,H-A.png,H-E.png,hH,hH,mask-4.png,mask-1.png,h,1,0.5113360999966972,none,-5,0,0.046631999997771345,0.047846300003584474,0.09939800000574905,0.10005890000320505,0.2989352000004146
RSVPLG03,cs,20251023-135928,1.0.1,20251020-085245,715,Practice,T1,1,Automatic,main,3,20251023-140003,global,local,300,S,S,A,E,S-A.png,E-S.png,sS,sS,mask-2.png,mask-2.png,s,1,0.4949054000026081,none,-5,0,0.04751009999017697,0.0483723000070313,0.09887149999849498,0.09943460000795312,0.2988020999910077
RSVPLG03,cs,20251023-135928,1.0.1,20251020-085245,715,Practice,T1,1,Automatic,main,4,20251023-140007,global,local,750,H,S,A,E,H-A.png,E-S.png,hH,sS,mask-3.png,mask-4.png,h,1,0.4072691000037594,none,-5,0,0.046652199991513044,0.04712419999123085,0.09983989999454934,0.09955210000043735,0.7489105999993626
RSVPLG03,cs,20251023-135928,1.0.1,20251020-085245,715,Practice,T1,1,Automatic,main,5,20251023-140011,local,local,750,S,S,A,E,A-S.png,E-S.png,sS,sS,mask-2.png,mask-3.png,h,0,0.39370110000891145,none,-5,0,0.04750080000667367,0.04839769999671262,0.0988731999968877,0.10039019999385346,0.7480934000050183
RSVPLG03,cs,20251023-135928,1.0.1,20251020-085245,715,Practice,T1,1,Automatic,main,6,20251023-140016,global,global,300,H,S,E,A,H-E.png,S-A.png,hH,sS,mask-2.png,mask-4.png,h,1,0.4711227000079816,none,-5,0,0.04886110000370536,0.04691080001066439,0.10102400000323541,0.0987440000026254,0.30169379999279045
RSVPLG03,cs,20251023-135928,1.0.1,20251020-085245,715,Practice,T1,1,Automatic,main,7,20251023-140020,local,local,300,S,H,A,E,A-S.png,E-H.png,sS,hH,mask-4.png,mask-4.png,h,0,0.9399384999996983,none,-5,0,0.04683399999339599,0.046833000000333413,0.09920949999650475,0.09802220000710804,0.2998368999978993
RSVPLG03,cs,20251023-135928,1.0.1,20251020-085245,715,Practice,T1,1,Automatic,main,8,20251023-140024,global,local,300,S,S,E,E,S-E.png,E-S.png,sS,sS,mask-4.png,mask-1.png,s,1,0.4601898999972036,none,-5,0,0.049186100004590116,0.046713600007933564,0.10119800000393298,0.09872090000135358,0.30060709999816027
RSVPLG03,cs,20251023-135928,1.0.1,20251020-085245,715,Practice,T1,1,Automatic,main,9,20251023-140028,global,global,750,H,H,E,A,H-E.png,H-A.png,hH,hH,mask-3.png,mask-4.png,h,1,0.4963047000055667,none,-5,0,0.04609129999880679,0.047508299991022795,0.09910500000114553,0.0997600999835413,0.7479445000062697
RSVPLG03,cs,20251023-135928,1.0.1,20251020-085245,715,Practice,T1,1,Automatic,main,10,20251023-140033,global,local,750,H,H,E,A,H-E.png,A-H.png,hH,hH,mask-4.png,mask-1.png,h,1,0.391327099991031,none,-5,0,0.04652659999555908,0.046529200015356764,0.0992281999788247,0.0985466000274755,0.7484108999778982
RSVPLG03,cs,20251023-135928,1.0.1,20251020-085245,715,Practice,T1,1,Automatic,main,11,20251023-140037,local,global,750,S,S,E,A,E-S.png,S-A.png,sS,sS,mask-3.png,mask-2.png,s,1,0.37456689999089576,none,-5,0,0.04751850001048297,0.04703800001880154,0.10151680000126362,0.09964380000019446,0.7487945999891963
RSVPLG03,cs,20251023-135928,1.0.1,20251020-085245,715,Practice,T1,1,Automatic,main,12,20251023-140041,local,local,300,S,H,A,E,A-S.png,E-H.png,sS,hH,mask-4.png,mask-3.png,s,1,0.35475090000545606,none,-5,0,0.04715230001602322,0.047480200009886175,0.09992770000826567,0.09951070000533946,0.29904280000482686
RSVPLG03,cs,20251023-135928,1.0.1,20251020-085245,715,Practice,T1,1,Automatic,main,13,20251023-140045,local,global,300,H,H,A,A,A-H.png,H-A.png,hH,hH,mask-4.png,mask-3.png,h,1,0.2773587999981828,none,-5,0,0.04767959998571314,0.04666500000166707,0.09994729998288676,0.09814139999798499,0.2995572999934666
RSVPLG03,cs,20251023-135928,1.0.1,20251020-085245,715,Practice,T1,1,Automatic,main,14,20251023-140049,global,global,750,H,S,E,E,H-E.png,S-E.png,hH,sS,mask-4.png,mask-3.png,h,1,0.3345807000005152,none,-5,0,0.04765699998824857,0.047541200008708984,0.09909579998929985,0.09975740002118982,0.7487600999884307
RSVPLG03,cs,20251023-135928,1.0.1,20251020-085245,715,Practice,T1,1,Automatic,main,15,20251023-140053,local,global,750,H,S,A,E,A-H.png,S-E.png,hH,sS,mask-3.png,mask-3.png,h,1,0.360122499987483,none,-5,0,0.04778159997658804,0.048954300000332296,0.09931439999490976,0.10006629998679273,0.7476416999998037
RSVPLG03,cs,20251023-135928,1.0.1,20251020-085245,715,Practice,T1,1,Automatic,main,16,20251023-140058,local,global,300,H,H,A,E,A-H.png,H-E.png,hH,hH,mask-4.png,mask-2.png,h,1,0.3305799000081606,none,-5,0,0.04866589998709969,0.047632800007704645,0.09953399997903034,0.09903340000892058,0.30103809997672215
RSVPLG03,cs,20251023-140239,1.0.1,20251020-085245,715,Introduction,Both,1,Automatic,main,1,20251023-140303,global,global,750,S,H,E,E,S-E.png,H-E.png,sS,hH,mask-2.png,mask-4.png,s,1,1.228513500012923,h,1,0.5504397999902721,0.09074819998932071,0.09657809999771416,0.19468859999324195,0.19963190000271425,0.7456442999828141
RSVPLG03,cs,20251023-140239,1.0.1,20251020-085245,715,Introduction,Both,1,Automatic,main,2,20251023-140309,local,local,750,S,H,A,A,A-S.png,A-H.png,sS,hH,mask-4.png,mask-1.png,s,1,1.5667834999912884,h,1,0.3737562999885995,0.09844090000842698,0.09763890001340769,0.19993800000520423,0.20095120000769384,0.7508017999934964
RSVPLG03,cs,20251023-140239,1.0.1,20251020-085245,715,Introduction,Both,1,Automatic,main,3,20251023-140315,global,local,750,H,H,A,E,H-A.png,E-H.png,hH,hH,mask-4.png,mask-1.png,h,1,2.030220799992094,h,1,0.23116399999707937,0.09785619998001494,0.09684950002701953,0.19980209998902865,0.1987727000087034,0.7514001999807078
RSVPLG03,cs,20251023-140239,1.0.1,20251020-085245,715,Introduction,Both,1,Automatic,main,4,20251023-140322,global,local,750,H,S,A,A,H-A.png,A-S.png,hH,sS,mask-4.png,mask-2.png,h,1,1.4365917000104673,h,0,0.41190229999483563,0.09601909999037161,0.09610009999596514,0.1980119000072591,0.19875099998898804,0.7503790000046138
RSVPLG03,cs,20251023-140239,1.0.1,20251020-085245,715,Introduction,Both,1,Automatic,main,5,20251023-140328,global,local,750,H,H,E,A,H-E.png,A-H.png,hH,hH,mask-4.png,mask-3.png,h,1,0.6308582999918144,h,1,0.18415010001626797,0.09685689999605529,0.09785059999558143,0.19957880000583827,0.1991756999923382,0.7495972999895457
RSVPLG03,cs,20251023-140239,1.0.1,20251020-085245,715,Introduction,Both,1,Automatic,main,6,20251023-140333,local,global,750,H,S,E,A,E-H.png,S-A.png,hH,sS,mask-1.png,mask-1.png,h,1,0.9119496000057552,s,1,0.20806699999957345,0.09872229999746196,0.09727040000143461,0.20018449999042787,0.20093170000473037,0.7505339999916032
RSVPLG03,cs,20251023-140239,1.0.1,20251020-085245,715,Introduction,Both,1,Automatic,main,7,20251023-140338,local,local,750,S,H,E,E,E-S.png,E-H.png,sS,hH,mask-2.png,mask-1.png,s,1,1.3758830000006128,s,0,0.35953280000831,0.09745030000340194,0.09696850000182167,0.19976620000670664,0.2011647999752313,0.7508620000153314
RSVPLG03,cs,20251023-140239,1.0.1,20251020-085245,715,Introduction,Both,1,Automatic,main,8,20251023-140344,global,local,750,H,H,A,E,H-A.png,E-H.png,hH,hH,mask-3.png,mask-1.png,h,1,0.5232689999975264,h,1,0.214112199988449,0.09672980001778342,0.09827280000899918,0.19908920000307262,0.20077240001410246,0.7492207000032067
RSVPLG03,cs,20251023-140239,1.0.1,20251020-085245,715,Introduction,Both,1,Automatic,main,9,20251023-140349,global,global,750,S,S,A,A,S-A.png,S-A.png,sS,sS,mask-4.png,mask-3.png,s,1,0.3786021999840159,s,1,0.2066266000038013,0.09843569999793544,0.09830240000155754,0.20068500001798384,0.20108430000254884,0.7496952000074089
RSVPLG03,cs,20251023-140239,1.0.1,20251020-085245,715,Introduction,Both,1,Automatic,main,10,20251023-140354,local,global,750,H,H,A,E,A-H.png,H-E.png,hH,hH,mask-1.png,mask-4.png,h,1,0.6402791999862529,h,1,0.08577780000632629,0.09785920000285842,0.09769089997280389,0.2012449000030756,0.20002319998457097,0.7516944000090007
RSVPLG03,cs,20251023-140239,1.0.1,20251020-085245,715,Introduction,Both,1,Automatic,main,11,20251023-140359,local,local,750,S,S,A,A,A-S.png,A-S.png,sS,sS,mask-2.png,mask-2.png,s,1,0.941108200000599,h,0,0.16384719999041408,0.09661470001447015,0.09928969998145476,0.19985210002050735,0.20086329997866414,0.7489179000258446
RSVPLG03,cs,20251023-140239,1.0.1,20251020-085245,715,Introduction,Both,1,Automatic,main,12,20251023-140405,global,global,750,S,H,E,E,S-E.png,H-E.png,sS,hH,mask-4.png,mask-3.png,s,1,0.5135243999829981,h,1,0.20713480000267737,0.09814640000695363,0.09853170000133105,0.20007240000995807,0.2008215000096243,0.7496329999994487
RSVPLG03,cs,20251023-140239,1.0.1,20251020-085245,715,Introduction,Both,1,Automatic,main,13,20251023-140410,local,local,750,S,S,A,E,A-S.png,E-S.png,sS,sS,mask-3.png,mask-1.png,s,1,0.8770189000060782,s,1,0.16878839998389594,0.09826890000840649,0.0962881000014022,0.20043300001998432,0.1993752999987919,0.7511749000113923
RSVPLG03,cs,20251023-140239,1.0.1,20251020-085245,715,Introduction,Both,1,Automatic,main,14,20251023-140415,local,global,750,S,H,A,A,A-S.png,H-A.png,sS,hH,mask-2.png,mask-1.png,s,1,0.9059853999933694,h,1,0.16459579998627305,0.09693659999174997,0.09867629999644123,0.19915830000536516,0.2016035999986343,0.7487877999956254
RSVPLG03,cs,20251023-140239,1.0.1,20251020-085245,715,Introduction,Both,1,Automatic,main,15,20251023-140420,global,global,750,H,S,A,A,H-A.png,S-A.png,hH,sS,mask-2.png,mask-3.png,h,1,0.36982930000522174,s,1,0.14220660002320074,0.09706059997552074,0.09716320000006817,0.19985369997448288,0.19996119997813366,0.7507910999993328
RSVPLG03,cs,20251023-140239,1.0.1,20251020-085245,715,Introduction,Both,1,Automatic,main,16,20251023-140425,local,global,750,H,H,E,A,E-H.png,H-A.png,hH,hH,mask-4.png,mask-1.png,h,1,0.6612744000158273,h,1,0.10375299997394904,0.09756570000899956,0.09720309998374432,0.1983514000021387,0.19965349999256432,0.7490455000079237
RSVPLG03,cs,20251023-140450,1.0.1,20251020-085245,715,Practice,Both,1,Automatic,main,1,20251023-140507,global,global,750,S,H,A,A,S-A.png,H-A.png,sS,hH,mask-3.png,mask-2.png,s,1,0.7247817000024952,h,1,0.16912750000483356,0.04682469999534078,0.045174799975939095,0.0997200999991037,0.0977771999896504,0.7512657000042964
RSVPLG03,cs,20251023-140450,1.0.1,20251020-085245,715,Practice,Both,1,Automatic,main,2,20251023-140512,global,local,300,H,S,A,E,H-A.png,E-S.png,hH,sS,mask-1.png,mask-3.png,h,1,0.5686943999899086,s,1,0.19897409999975935,0.04639959998894483,0.047389699990162626,0.09881480000331067,0.10076860000845045,0.2986895999929402
RSVPLG03,cs,20251023-140450,1.0.1,20251020-085245,715,Practice,Both,1,Automatic,main,3,20251023-140516,local,global,750,S,S,E,E,E-S.png,S-E.png,sS,sS,mask-4.png,mask-2.png,s,1,0.4109190999879502,s,1,0.07730889998492785,0.0476978000078816,0.04873839998617768,0.09963820001576096,0.10097509998013265,0.749089000019012
RSVPLG03,cs,20251023-140450,1.0.1,20251020-085245,715,Practice,Both,1,Automatic,main,4,20251023-140521,local,local,750,H,S,E,A,E-H.png,A-S.png,hH,sS,mask-2.png,mask-4.png,h,1,0.8170689000107814,s,1,0.13258230002247728,0.0474246000230778,0.04856700001982972,0.0998744000098668,0.10063660002197139,0.7493804999976419
RSVPLG03,cs,20251023-140450,1.0.1,20251020-085245,715,Practice,Both,1,Automatic,main,5,20251023-140526,local,local,300,H,S,E,A,E-H.png,A-S.png,hH,sS,mask-3.png,mask-3.png,h,1,0.679541200021049,h,0,0.2547443000075873,0.04696370000601746,0.04759699999704026,0.09944069999619387,0.10081329999957234,0.29875700001139194
RSVPLG03,cs,20251023-140450,1.0.1,20251020-085245,715,Practice,Both,1,Automatic,main,6,20251023-140530,global,local,300,H,S,A,A,H-A.png,A-S.png,hH,sS,mask-1.png,mask-4.png,h,1,0.5086916000000201,s,1,0.0928878000122495,0.04858360000071116,0.048514299996895716,0.10026129998732358,0.1009640000120271,0.29996289999689907
RSVPLG03,cs,20251023-140450,1.0.1,20251020-085245,715,Practice,Both,1,Automatic,main,7,20251023-140535,local,local,300,S,H,E,E,E-S.png,E-H.png,sS,hH,mask-4.png,mask-4.png,s,1,0.8339547999785282,h,1,0.3271596999838948,0.048096599988639355,0.04654429998481646,0.10154790000524372,0.10049949999665841,0.3016576000081841
RSVPLG03,cs,20251023-140450,1.0.1,20251020-085245,715,Practice,Both,1,Automatic,main,8,20251023-140540,global,local,750,S,H,A,E,S-A.png,E-H.png,sS,hH,mask-1.png,mask-4.png,s,1,0.8644615999946836,h,1,0.23700379999354482,0.04728130000876263,0.0467695000115782,0.099086600006558,0.09861929999897256,0.7504901000065729
RSVPLG03,cs,20251023-140450,1.0.1,20251020-085245,715,Practice,Both,1,Automatic,main,9,20251023-140545,local,local,750,S,H,E,E,E-S.png,E-H.png,sS,hH,mask-4.png,mask-2.png,s,1,0.5650937000173144,h,1,0.2179937000037171,0.04854059999343008,0.047517300001345575,0.09961379997548647,0.09958029998233542,0.7508978999976534
RSVPLG03,cs,20251023-140450,1.0.1,20251020-085245,715,Practice,Both,1,Automatic,main,10,20251023-140550,global,local,750,S,H,E,E,S-E.png,E-H.png,sS,hH,mask-3.png,mask-4.png,s,1,0.6033431999967434,s,0,0.3083133999898564,0.04734419999294914,0.04850460001034662,0.1014044999901671,0.100638700008858,0.7499276000016835
RSVPLG03,cs,20251023-140450,1.0.1,20251020-085245,715,Practice,Both,1,Automatic,main,11,20251023-140555,local,global,300,H,S,E,E,E-H.png,S-E.png,hH,sS,mask-2.png,mask-3.png,h,1,0.8715746000234503,s,1,0.397152300021844,0.04667919999337755,0.04604409998864867,0.10002819998771884,0.09895389998564497,0.30060950000188313
RSVPLG03,cs,20251023-140450,1.0.1,20251020-085245,715,Practice,Both,1,Automatic,main,12,20251023-140600,local,global,750,S,S,A,A,A-S.png,S-A.png,sS,sS,mask-3.png,mask-1.png,s,1,0.8798926000017673,s,1,0.2977119999995921,0.0469427999923937,0.04836709998198785,0.10017159997369163,0.10080289997858927,0.7482791999937035
RSVPLG03,cs,20251023-140450,1.0.1,20251020-085245,715,Practice,Both,1,Automatic,main,13,20251023-140605,global,global,750,S,S,A,E,S-A.png,S-E.png,sS,sS,mask-2.png,mask-3.png,s,1,0.4224097999976948,s,1,0.2642831999983173,0.04708210000535473,0.04800500001874752,0.09965369998826645,0.1008612000150606,0.7488212999887764
RSVPLG03,cs,20251023-140450,1.0.1,20251020-085245,715,Practice,Both,1,Automatic,main,14,20251023-140610,global,global,300,H,S,A,A,H-A.png,S-A.png,hH,sS,mask-4.png,mask-3.png,h,1,0.4916800999781117,s,1,0.2318602000013925,0.04770150000695139,0.04772510001203045,0.10005870001623407,0.10055520001333207,0.29974570000194944
RSVPLG03,cs,20251023-140450,1.0.1,20251020-085245,715,Practice,Both,1,Automatic,main,15,20251023-140614,local,global,300,S,S,E,A,E-S.png,S-A.png,sS,sS,mask-3.png,mask-3.png,s,1,0.6305771000043023,s,1,0.0682327999966219,0.04661540000233799,0.04770950000965968,0.09800739999627694,0.09968959999969229,0.29855639999732375
RSVPLG03,cs,20251023-140450,1.0.1,20251020-085245,715,Practice,Both,1,Automatic,main,16,20251023-140619,global,global,300,S,S,E,E,S-E.png,S-E.png,sS,sS,mask-2.png,mask-1.png,s,1,0.68591749999905,h,0,0.06628509997972287,0.047172499995213,0.048462600010680035,0.09984339997754432,0.10221460001775995,0.2983202999748755
RSVPLG03,cs,20251023-140903,1.0.1,20251020-085245,715,Experiment,Both,1,Automatic,warmup,1,20251023-140925,local,local,750,S,H,A,A,A-S.png,A-H.png,sS,hH,mask-3.png,mask-3.png,s,1,0.9503090000071097,h,1,0.24155610002344474,0.043150799989234656,0.04570720001356676,0.09683579998090863,0.09986919999937527,0.7449604999856092
RSVPLG03,cs,20251023-140903,1.0.1,20251020-085245,715,Experiment,Both,1,Automatic,warmup,2,20251023-140931,local,global,750,H,H,A,E,A-H.png,H-E.png,hH,hH,mask-2.png,mask-3.png,h,1,0.6826665999833494,h,1,0.10309760001837276,0.047626500017941,0.0456590999965556,0.10121600001002662,0.09782789999735542,0.7487675000156742
RSVPLG03,cs,20251023-140903,1.0.1,20251020-085245,715,Experiment,Both,1,Automatic,warmup,3,20251023-140936,local,local,300,S,H,A,A,A-S.png,A-H.png,sS,hH,mask-3.png,mask-1.png,s,1,0.5722849000012502,h,1,0.055500000016763806,0.04868949999217875,0.04775820000213571,0.10075030001462437,0.10097239998867735,0.2984934000123758
RSVPLG03,cs,20251023-140903,1.0.1,20251020-085245,715,Experiment,Both,1,Automatic,warmup,4,20251023-140940,local,global,300,S,H,E,E,E-S.png,H-E.png,sS,hH,mask-4.png,mask-4.png,s,1,0.3926666000043042,h,1,0.08633069999632426,0.047545600013108924,0.04685120002250187,0.0989594999991823,0.09980570001062006,0.2993399999977555
RSVPLG03,cs,20251023-140903,1.0.1,20251020-085245,715,Experiment,Both,1,Automatic,warmup,5,20251023-140944,global,global,750,H,S,E,A,H-E.png,S-A.png,hH,sS,mask-3.png,mask-3.png,h,1,0.3607938000059221,s,1,0.0920687000034377,0.047472799982642755,0.04750349998357706,0.09866259997943416,0.09992109998711385,0.7465830000001006
RSVPLG03,cs,20251023-140903,1.0.1,20251020-085245,715,Experiment,Both,1,Automatic,main,6,20251023-140949,global,global,300,H,S,A,E,H-A.png,S-E.png,hH,sS,mask-2.png,mask-1.png,h,1,0.6022559000120964,h,0,0.07449259998975322,0.04706929999520071,0.048484700004337355,0.10011170001234859,0.0988560999976471,0.29897890001302585
RSVPLG03,cs,20251023-140903,1.0.1,20251020-085245,715,Experiment,Both,1,Automatic,main,7,20251023-140953,global,global,750,S,H,A,E,S-A.png,H-E.png,sS,hH,mask-1.png,mask-2.png,s,1,0.2615354000008665,h,1,0.10923239999101497,0.04765679998672567,0.04629609998664819,0.10011659999145195,0.09930460000759922,0.7480495999916457
RSVPLG03,cs,20251023-140903,1.0.1,20251020-085245,715,Experiment,Both,1,Automatic,main,8,20251023-140957,local,local,300,H,S,E,E,E-H.png,E-S.png,hH,sS,mask-2.png,mask-3.png,h,1,0.6048361000139266,s,1,0.7987450000073295,0.047542499989503995,0.04597229999490082,0.09882629997446202,0.10003609998966567,0.2982344999909401
RSVPLG03,cs,20251023-140903,1.0.1,20251020-085245,715,Experiment,Both,1,Automatic,main,9,20251023-141002,global,local,300,S,S,E,E,S-E.png,E-S.png,sS,sS,mask-1.png,mask-3.png,s,1,0.3982362000097055,h,0,0.17156610000529326,0.04863939998904243,0.04770280001685023,0.09983620001003146,0.09852020000107586,0.2994421999901533
RSVPLG03,cs,20251023-140903,1.0.1,20251020-085245,715,Experiment,Both,1,Automatic,main,10,20251023-141007,local,global,750,S,H,A,E,A-S.png,H-E.png,sS,hH,mask-1.png,mask-1.png,s,1,0.23936120001599193,h,1,0.13879920000908896,0.04567810002481565,0.04567500000121072,0.0988814000156708,0.0988917000067886,0.7473269000183791
RSVPLG03,cs,20251023-140903,1.0.1,20251020-085245,715,Experiment,Both,1,Automatic,main,11,20251023-141011,global,global,750,S,H,E,A,S-E.png,H-A.png,sS,hH,mask-4.png,mask-2.png,s,1,0.2540294000064023,h,1,0.13351350001175888,0.04588250000961125,0.046682599990163,0.09816210001008585,0.09887469999375753,0.7470652000047266
RSVPLG03,cs,20251023-140903,1.0.1,20251020-085245,715,Experiment,Both,1,Automatic,main,12,20251023-141016,global,global,300,H,H,E,A,H-E.png,H-A.png,hH,hH,mask-1.png,mask-3.png,h,1,0.5574328000075184,s,0,0.2011108000006061,0.047819600004004315,0.042423000006238,0.10000430000945926,0.09364249999634922,0.3043048999970779
RSVPLG03,cs,20251023-140903,1.0.1,20251020-085245,715,Experiment,Both,1,Automatic,main,13,20251023-141020,local,local,300,H,S,E,E,E-H.png,E-S.png,hH,sS,mask-4.png,mask-4.png,h,1,0.7170780000160448,h,0,0.07036610000068322,0.046625399991171435,0.047604699997464195,0.09876100000110455,0.09863219998078421,0.298129600007087
RSVPLG03,cs,20251023-140903,1.0.1,20251020-085245,715,Experiment,Both,1,Automatic,main,14,20251023-141024,local,local,300,S,S,A,E,A-S.png,E-S.png,sS,sS,mask-4.png,mask-2.png,h,0,0.8126241999852937,s,1,0.044201600016094744,0.046499499992933124,0.0466234999767039,0.0986304999969434,0.09977929998422042,0.2994978000060655
RSVPLG03,cs,20251023-140903,1.0.1,20251020-085245,715,Experiment,Both,1,Automatic,main,15,20251023-141029,global,local,750,S,H,A,E,S-A.png,E-H.png,sS,hH,mask-1.png,mask-4.png,s,1,0.5835131000203546,h,1,0.32625959999859333,0.04614849999779835,0.0478393999801483,0.0991822000069078,0.10031989999697544,0.7454103000054602
RSVPLG03,cs,20251023-140903,1.0.1,20251020-085245,715,Experiment,Both,1,Automatic,main,16,20251023-141034,local,local,750,S,S,E,A,E-S.png,A-S.png,sS,sS,mask-4.png,mask-4.png,s,1,0.4999100000131875,h,0,0.1770459999970626,0.047668299986980855,0.04714450001483783,0.10135519999312237,0.09933880000608042,0.7476445999927819
RSVPLG03,cs,20251023-140903,1.0.1,20251020-085245,715,Experiment,Both,1,Automatic,main,17,20251023-141039,local,global,300,H,H,A,E,A-H.png,H-E.png,hH,hH,mask-1.png,mask-3.png,h,1,0.5804813000140712,h,1,0.0755522999970708,0.04808390000835061,0.04668269999092445,0.10094830000889488,0.09794010000769049,0.3003305000020191
RSVPLG03,cs,20251023-140903,1.0.1,20251020-085245,715,Experiment,Both,1,Automatic,main,18,20251023-141043,global,global,750,S,S,E,A,S-E.png,S-A.png,sS,sS,mask-1.png,mask-2.png,s,1,1.0007259999983944,s,1,0.08300579999922775,0.04762200001277961,0.04889009997714311,0.0988196000107564,0.10209410000243224,0.7450754000165034
RSVPLG03,cs,20251023-140903,1.0.1,20251020-085245,715,Experiment,Both,1,Automatic,main,19,20251023-141048,global,global,300,H,H,A,A,H-A.png,H-A.png,hH,hH,mask-1.png,mask-3.png,h,1,0.4165309999953024,h,1,0.09334999998100102,0.04667499999050051,0.047628400003304705,0.09885619999840856,0.10054160002619028,0.29786339998827316
RSVPLG03,cs,20251023-140903,1.0.1,20251020-085245,715,Experiment,Both,1,Automatic,main,20,20251023-141052,local,global,750,S,H,E,A,E-S.png,H-A.png,sS,hH,mask-4.png,mask-4.png,s,1,0.3710393000219483,h,1,0.10595399999874644,0.048480199999175966,0.045534900011261925,0.09949399999459274,0.09954180000931956,0.748339899990242
RSVPLG03,cs,20251023-140903,1.0.1,20251020-085245,715,Experiment,Both,1,Automatic,main,21,20251023-141057,local,local,750,S,S,E,E,E-S.png,E-S.png,sS,sS,mask-2.png,mask-3.png,s,1,0.3628798999998253,s,1,0.22944190000998788,0.046834399981889874,0.047508499992545694,0.09995299999718554,0.09952940000221133,0.7479116999893449
RSVPLG03,cs,20251023-140903,1.0.1,20251020-085245,715,Experiment,Both,1,Automatic,main,22,20251023-141101,global,local,300,H,S,A,A,H-A.png,A-S.png,hH,sS,mask-1.png,mask-4.png,h,1,0.5333507999894209,s,1,0.020125799986999482,0.047333399998024106,0.047374799993121997,0.10031189999426715,0.09944419999374077,0.29967750000650994
RSVPLG03,cs,20251023-140903,1.0.1,20251020-085245,715,Experiment,Both,1,Automatic,main,23,20251023-141106,global,local,750,H,H,A,A,H-A.png,A-H.png,hH,hH,mask-4.png,mask-1.png,h,1,0.29290499998023733,h,1,0.06529679999221116,0.047591099981218576,0.047371499997098,0.09963139999308623,0.09940349997486919,0.7476535000023432
RSVPLG03,cs,20251023-140903,1.0.1,20251020-085245,715,Experiment,Both,1,Automatic,main,24,20251023-141110,local,local,750,S,S,A,A,A-S.png,A-S.png,sS,sS,mask-4.png,mask-1.png,s,1,0.4094923000084236,s,1,0.13975309999659657,0.04769110001507215,0.04808100001537241,0.09969030000502244,0.10037820000434294,0.7469305999984499
RSVPLG03,cs,20251023-140903,1.0.1,20251020-085245,715,Experiment,Both,1,Automatic,main,25,20251023-141115,global,global,300,H,S,A,A,H-A.png,S-A.png,hH,sS,mask-4.png,mask-4.png,h,1,0.3761835999903269,s,1,0.025258999987272546,0.04671749999397434,0.046422400017036125,0.09794180002063513,0.09946339999441989,0.29802139999810606
RSVPLG03,cs,20251023-140903,1.0.1,20251020-085245,715,Experiment,Both,1,Automatic,main,26,20251023-141122,local,global,750,H,H,A,A,A-H.png,H-A.png,hH,hH,mask-1.png,mask-1.png,h,1,0.6043175999948289,h,1,0.14263519999803975,0.04746780000277795,0.048661000007996336,0.09938610001699999,0.09984519999125041,0.7462395000038669
RSVPLG03,cs,20251023-140903,1.0.1,20251020-085245,715,Experiment,Both,1,Automatic,main,27,20251023-141127,local,global,300,S,S,A,E,A-S.png,S-E.png,sS,sS,mask-4.png,mask-1.png,s,1,0.628256700001657,s,1,0.2517004999972414,0.04747630000929348,0.04763489999459125,0.09925320002366789,0.09886870000627823,0.29902360000414774
RSVPLG03,cs,20251023-140903,1.0.1,20251020-085245,715,Experiment,Both,1,Automatic,main,28,20251023-141132,global,local,750,H,S,E,E,H-E.png,E-S.png,hH,sS,mask-1.png,mask-1.png,h,1,0.2740408999961801,s,1,0.03802539999014698,0.04768580000381917,0.044986900000367314,0.09989670000504702,0.09826080000493675,0.748077900003409
RSVPLG03,cs,20251023-140903,1.0.1,20251020-085245,715,Experiment,Both,1,Automatic,main,29,20251023-141136,local,global,300,H,S,E,E,E-H.png,S-E.png,hH,sS,mask-1.png,mask-2.png,h,1,0.7369603000115603,h,0,0.13351100002182648,0.046606199990492314,0.04566350000095554,0.0992231999989599,0.0985627000045497,0.29982399998698384
RSVPLG03,cs,20251023-140903,1.0.1,20251020-085245,715,Experiment,Both,1,Automatic,main,30,20251023-141141,local,local,750,S,H,E,A,E-S.png,A-H.png,sS,hH,mask-4.png,mask-3.png,s,1,0.32677750001312234,h,1,0.15625440000439994,0.04841310001211241,0.046551400009775534,0.09948100001201965,0.09853610000573099,0.748593800002709
RSVPLG03,cs,20251023-140903,1.0.1,20251020-085245,715,Experiment,Both,1,Automatic,main,31,20251023-141145,local,global,300,S,S,A,E,A-S.png,S-E.png,sS,sS,mask-3.png,mask-3.png,s,1,0.5156590999977197,s,1,0.10921029999735765,0.04748550002113916,0.04752500000176951,0.10087809999822639,0.0995556999987457,0.3001216000120621
RSVPLG03,cs,20251023-140903,1.0.1,20251020-085245,715,Experiment,Both,1,Automatic,main,32,20251023-141149,local,global,300,H,S,E,A,E-H.png,S-A.png,hH,sS,mask-2.png,mask-1.png,h,1,0.4311549000267405,s,1,0.13532470000791363,0.046549800026696175,0.04763549999915995,0.09783250000327826,0.09983099999953993,0.2982002000208013
RSVPLG03,cs,20251023-140903,1.0.1,20251020-085245,715,Experiment,Both,1,Automatic,main,33,20251023-141154,local,global,750,S,H,E,E,E-S.png,H-E.png,sS,hH,mask-2.png,mask-3.png,s,1,0.40244249999523163,h,1,0.07875630000489764,0.046567500015953556,0.04755749998730607,0.09903850001865067,0.09874519999721088,0.7474255000124685
RSVPLG03,cs,20251023-140903,1.0.1,20251020-085245,715,Experiment,Both,1,Automatic,main,34,20251023-141158,global,global,750,H,H,E,A,H-E.png,H-A.png,hH,hH,mask-2.png,mask-1.png,h,1,0.3352102999924682,h,1,0.09061039998778142,0.04766199999721721,0.047286299988627434,0.09968980000121519,0.10015610000118613,0.7476315000094473
RSVPLG03,cs,20251023-140903,1.0.1,20251020-085245,715,Experiment,Both,1,Automatic,main,35,20251023-141203,global,global,300,H,H,E,E,H-E.png,H-E.png,hH,hH,mask-2.png,mask-4.png,h,1,0.6295403999974951,h,1,0.09330830001272261,0.047561900020809844,0.04754570001387037,0.10058240001671948,0.10057700000470504,0.29951519999303855
RSVPLG03,cs,20251023-140903,1.0.1,20251020-085245,715,Experiment,Both,1,Automatic,main,36,20251023-141207,local,global,300,S,S,A,E,A-S.png,S-E.png,sS,sS,mask-4.png,mask-1.png,s,1,0.5194463999941945,s,1,0.09705509999184869,0.04754939998383634,0.04653449999750592,0.09966529998928308,0.09944890000042506,0.2989159999997355
RSVPLG03,cs,20251023-140903,1.0.1,20251020-085245,715,Experiment,Both,1,Automatic,main,37,20251023-141211,global,global,300,S,S,A,E,S-A.png,S-E.png,sS,sS,mask-3.png,mask-3.png,s,1,0.5075011999870185,s,1,0.31433449999894947,0.047532000025967136,0.04657969999243505,0.09861490002367646,0.09858980000717565,0.29892140001174994
RSVPLG03,cs,20251023-140903,1.0.1,20251020-085245,715,Experiment,Both,1,Automatic,main,38,20251023-141216,global,global,750,S,H,E,E,S-E.png,H-E.png,sS,hH,mask-4.png,mask-1.png,s,1,0.29044570002588443,h,1,0.10839639999903738,0.04850899998564273,0.048586799995973706,0.1005691000027582,0.10035160000552423,0.7470538000052329
RSVPLG03,cs,20251023-140903,1.0.1,20251020-085245,715,Experiment,Both,1,Automatic,main,39,20251023-141220,global,global,300,H,S,E,E,H-E.png,S-E.png,hH,sS,mask-1.png,mask-4.png,h,1,0.4242272999836132,h,0,0.05818140000337735,0.04751830000896007,0.04753250000067055,0.09950780001236126,0.09864800001378171,0.2994425999931991
RSVPLG03,cs,20251023-140903,1.0.1,20251020-085245,715,Experiment,Both,1,Automatic,main,40,20251023-141224,global,local,750,H,H,E,E,H-E.png,E-H.png,hH,hH,mask-2.png,mask-4.png,h,1,0.3630356999929063,s,0,0.05609319999348372,0.048500900011276826,0.047525999980280176,0.10049539999454282,0.09958119998918846,0.7472192000132054
RSVPLG03,cs,20251023-140903,1.0.1,20251020-085245,715,Experiment,Both,1,Automatic,main,41,20251023-141229,global,local,300,H,H,E,A,H-E.png,A-H.png,hH,hH,mask-1.png,mask-3.png,h,1,0.3725728999997955,s,0,0.0036293000157456845,0.04651610000291839,0.046825299999909475,0.1005734000063967,0.0980682999943383,0.2999450000061188
RSVPLG03,cs,20251023-140903,1.0.1,20251020-085245,715,Experiment,Both,1,Automatic,main,42,20251023-141233,global,local,300,H,S,A,A,H-A.png,A-S.png,hH,sS,mask-3.png,mask-1.png,h,1,0.3628074000007473,s,1,0.003983200003858656,0.047669999999925494,0.0487888999923598,0.09974009997677058,0.1009759999869857,0.2985562999965623
RSVPLG03,cs,20251023-140903,1.0.1,20251020-085245,715,Experiment,Both,1,Automatic,main,43,20251023-141237,local,global,300,H,S,E,A,E-H.png,S-A.png,hH,sS,mask-1.png,mask-2.png,h,1,1.853147199988598,h,0,0.10342950001358986,0.04762950001168065,0.04660239999066107,0.09930840000743046,0.09865200001513585,0.29963389999466017
RSVPLG03,cs,20251023-140903,1.0.1,20251020-085245,715,Experiment,Both,1,Automatic,main,44,20251023-141242,global,global,750,H,H,A,E,H-A.png,H-E.png,hH,hH,mask-4.png,mask-1.png,h,1,0.6467246999964118,h,1,0.07091660000151023,0.046886299998732284,0.045681699994020164,0.09813510000822134,0.09987090001231991,0.74754350000876
RSVPLG03,cs,20251023-140903,1.0.1,20251020-085245,715,Experiment,Both,1,Automatic,main,45,20251023-141247,local,global,300,H,S,A,E,A-H.png,S-E.png,hH,sS,mask-4.png,mask-2.png,h,1,0.3224680000275839,s,1,0.5829117000102997,0.04660050000529736,0.04566470001009293,0.09963250000146218,0.09838509999099188,0.29998300000443123
RSVPLG03,cs,20251023-140903,1.0.1,20251020-085245,715,Experiment,Both,1,Automatic,main,46,20251023-141252,local,global,300,H,H,E,E,E-H.png,H-E.png,hH,hH,mask-1.png,mask-3.png,h,1,1.0036521000147332,s,0,0.02042539999820292,0.04770739999366924,0.04708650000975467,0.10086909998790361,0.09898100001737475,0.30021299998043105
RSVPLG03,cs,20251023-140903,1.0.1,20251020-085245,715,Experiment,Both,1,Automatic,main,47,20251023-141256,local,local,300,S,S,E,E,E-S.png,E-S.png,sS,sS,mask-1.png,mask-4.png,s,1,0.31107450000126846,s,1,0.07067780001671053,0.047615000017685816,0.048494299990125,0.10061940000741743,0.1008682000101544,0.2989813000021968
RSVPLG03,cs,20251023-140903,1.0.1,20251020-085245,715,Experiment,Both,1,Automatic,main,48,20251023-141300,local,local,300,S,S,E,A,E-S.png,A-S.png,sS,sS,mask-4.png,mask-3.png,s,1,0.39242609997745603,h,0,0.06763269999646582,0.047499399981461465,0.04550790000939742,0.10050259999115951,0.09951150001143105,0.30001809998066165
RSVPLG03,cs,20251023-140903,1.0.1,20251020-085245,715,Experiment,Both,1,Automatic,main,49,20251023-141305,local,local,300,H,H,E,A,E-H.png,A-H.png,hH,hH,mask-4.png,mask-4.png,h,1,0.45626869998523034,s,0,0.07048569998005405,0.04756499998620711,0.04654799998388626,0.10076149998349138,0.09853269997984171,0.29932540000299923
RSVPLG03,cs,20251023-140903,1.0.1,20251020-085245,715,Experiment,Both,1,Automatic,main,50,20251023-141309,local,local,750,S,S,A,A,A-S.png,A-S.png,sS,sS,mask-1.png,mask-4.png,s,1,0.45412079998641275,h,0,0.34785740001825616,0.047502599976724014,0.047407500009285286,0.099513900000602,0.1003086999990046,0.746053499984555
RSVPLG03,cs,20251023-140903,1.0.1,20251020-085245,715,Experiment,Both,1,Automatic,main,51,20251023-141314,local,global,300,S,H,A,A,A-S.png,H-A.png,sS,hH,mask-2.png,mask-1.png,h,0,0.47533849999308586,h,1,0.11944519999087788,0.0462485000025481,0.04750139999669045,0.09883699999772944,0.0995114000106696,0.2994055000017397
RSVPLG03,cs,20251023-140903,1.0.1,20251020-085245,715,Experiment,Both,1,Automatic,main,52,20251023-141318,local,local,750,S,S,E,E,E-S.png,E-S.png,sS,sS,mask-4.png,mask-2.png,s,1,0.6376140000065789,s,1,0.10190940002212301,0.047531899996101856,0.04755370001657866,0.09882329998072237,0.10063930001342669,0.7459999999846332
RSVPLG03,cs,20251023-140903,1.0.1,20251020-085245,715,Experiment,Both,1,Automatic,main,53,20251023-141323,local,global,750,S,H,E,A,E-S.png,H-A.png,sS,hH,mask-3.png,mask-1.png,s,1,0.2725724000192713,h,1,0.14751840001554228,0.046607700001914054,0.046534900000551715,0.09961080001085065,0.09856469999067485,0.7469668000121601
RSVPLG03,cs,20251023-140903,1.0.1,20251020-085245,715,Experiment,Both,1,Automatic,main,54,20251023-141328,global,global,750,S,S,A,A,S-A.png,S-A.png,sS,sS,mask-4.png,mask-3.png,s,1,0.3441004000196699,s,1,0.09042399999452755,0.046654799982206896,0.047672899992903695,0.09984019998228177,0.09988460000022314,0.7461593000043649
RSVPLG03,cs,20251023-140903,1.0.1,20251020-085245,715,Experiment,Both,1,Automatic,main,55,20251023-141332,global,local,300,S,H,A,A,S-A.png,A-H.png,sS,hH,mask-4.png,mask-4.png,s,1,0.4130863999889698,h,1,0.14997879997827113,0.04725129998405464,0.04853020000155084,0.099222999997437,0.09954470000229776,0.29849889999604784
RSVPLG03,cs,20251023-140903,1.0.1,20251020-085245,715,Experiment,Both,1,Automatic,main,56,20251023-141337,local,local,300,S,H,E,E,E-S.png,E-H.png,sS,hH,mask-1.png,mask-4.png,s,1,0.4658042000082787,s,0,0.09060639998642728,0.04796060000080615,0.04766909999307245,0.10016679999534972,0.09984829998575151,0.2984798999968916
RSVPLG03,cs,20251023-140903,1.0.1,20251020-085245,715,Experiment,Both,1,Automatic,main,57,20251023-141341,local,global,750,H,H,E,A,E-H.png,H-A.png,hH,hH,mask-1.png,mask-2.png,h,1,0.29505250000511296,h,1,0.07320380001328886,0.046714199997950345,0.047047700005350634,0.09946409999975003,0.09805410000262782,0.7482385000039358
RSVPLG03,cs,20251023-140903,1.0.1,20251020-085245,715,Experiment,Both,1,Automatic,main,58,20251023-141345,global,local,300,H,S,A,A,H-A.png,A-S.png,hH,sS,mask-2.png,mask-3.png,h,1,0.3912070000078529,s,1,0.03836810000939295,0.04839799998444505,0.04755519999889657,0.10042329999851063,0.0995767000131309,0.29823069999110885
RSVPLG03,cs,20251023-140903,1.0.1,20251020-085245,715,Experiment,Both,1,Automatic,main,59,20251023-141349,global,local,300,S,S,A,A,S-A.png,A-S.png,sS,sS,mask-2.png,mask-2.png,s,1,0.4085270000214223,h,0,0.052583100012270734,0.04663489997619763,0.045496199978515506,0.09966609999537468,0.09848299997975118,0.298888999997871
RSVPLG03,cs,20251023-140903,1.0.1,20251020-085245,715,Experiment,Both,1,Automatic,main,60,20251023-141353,local,local,300,H,H,A,E,A-H.png,E-H.png,hH,hH,mask-4.png,mask-3.png,h,1,0.3380008999956772,s,0,0.03293300000950694,0.048282000003382564,0.04717860001255758,0.1003305000194814,0.09817990000010468,0.30017830000724643
RSVPLG03,cs,20251023-140903,1.0.1,20251020-085245,715,Experiment,Both,1,Automatic,main,61,20251023-141357,local,global,750,H,H,A,A,A-H.png,H-A.png,hH,hH,mask-3.png,mask-2.png,h,1,0.3205444000195712,h,1,0.09369650000007823,0.047643400001106784,0.0465124000038486,0.09958169999299571,0.09852420000243,0.747014799999306
RSVPLG03,cs,20251023-140903,1.0.1,20251020-085245,715,Experiment,Both,1,Automatic,main,62,20251023-141402,global,local,750,H,H,E,E,H-E.png,E-H.png,hH,hH,mask-1.png,mask-4.png,h,1,0.9930689000175335,h,1,0.08478799997828901,0.0474953000084497,0.04750300000887364,0.10059069999260828,0.09948529998655431,0.7483377000025939
RSVPLG03,cs,20251023-140903,1.0.1,20251020-085245,715,Experiment,Both,1,Automatic,main,63,20251023-141407,global,global,750,S,H,E,E,S-E.png,H-E.png,sS,hH,mask-1.png,mask-3.png,s,1,0.4447992999921553,h,1,0.5392530999961309,0.04750790001708083,0.04829249999602325,0.09861660000751726,0.09926499999710359,0.7461892999999691
RSVPLG03,cs,20251023-140903,1.0.1,20251020-085245,715,Experiment,Both,1,Automatic,main,64,20251023-141412,local,global,750,H,H,E,A,E-H.png,H-A.png,hH,hH,mask-4.png,mask-3.png,h,1,1.1910384999937378,h,1,0.11488169999211095,0.046811900014290586,0.04668730002595112,0.09940020000794902,0.0979603000159841,0.7486089000012726
RSVPLG03,cs,20251023-140903,1.0.1,20251020-085245,715,Experiment,Both,1,Automatic,main,65,20251023-141417,local,local,750,H,H,E,A,E-H.png,A-H.png,hH,hH,mask-2.png,mask-1.png,h,1,0.29045790000236593,h,1,0.062302199978148565,0.04770920000737533,0.04866230001789518,0.09990520001156256,0.10019860000465997,0.7461734999960754
RSVPLG03,cs,20251023-140903,1.0.1,20251020-085245,715,Experiment,Both,1,Automatic,main,66,20251023-141422,local,global,750,S,S,E,A,E-S.png,S-A.png,sS,sS,mask-4.png,mask-2.png,s,1,0.4960078000149224,s,1,0.10178080000332557,0.04768129999865778,0.04654130002018064,0.10078429998247884,0.09877520002191886,0.7482350999780465
RSVPLG03,cs,20251023-140903,1.0.1,20251020-085245,715,Experiment,Both,1,Automatic,main,67,20251023-141426,local,local,300,S,H,E,E,E-S.png,E-H.png,sS,hH,mask-4.png,mask-2.png,s,1,0.49491770000895485,h,1,0.04223300001467578,0.04665770000428893,0.047488999989582226,0.10009150000405498,0.09815969999181107,0.2999134999990929
RSVPLG03,cs,20251023-140903,1.0.1,20251020-085245,715,Experiment,Both,1,Automatic,main,68,20251023-141431,local,local,750,H,S,E,E,E-H.png,E-S.png,hH,sS,mask-2.png,mask-1.png,h,1,0.37016779999248683,s,1,0.03741739998804405,0.04688340000575408,0.0485315999831073,0.09998389999964274,0.09952819999307394,0.7464424000063445
RSVPLG03,cs,20251023-140903,1.0.1,20251020-085245,715,Experiment,Both,1,Automatic,main,69,20251023-141435,local,local,750,H,H,A,A,A-H.png,A-H.png,hH,hH,mask-2.png,mask-3.png,h,1,0.34344560001045465,h,1,0.08544149997760542,0.047515699989162385,0.046481500001391396,0.10053579998202622,0.10049099999014288,0.7472741999954451
RSVPLG03,cs,20251023-140903,1.0.1,20251020-085245,715,Experiment,Both,1,Automatic,main,70,20251023-141440,global,global,750,H,S,E,E,H-E.png,S-E.png,hH,sS,mask-3.png,mask-3.png,h,1,0.30099250000785105,s,1,0.016956399980699643,0.04760540000279434,0.047023699997225776,0.09864200002630241,0.1009974000044167,0.7465111000055913
RSVPLG03,cs,20251023-140903,1.0.1,20251020-085245,715,Experiment,Both,1,Automatic,main,71,20251023-141444,global,local,750,H,H,A,A,H-A.png,A-H.png,hH,hH,mask-3.png,mask-4.png,h,1,0.3384645000041928,h,1,0.07832239998970181,0.045656299975235015,0.04771800001617521,0.09963459998834878,0.0997481000085827,0.7459036999789532
RSVPLG03,cs,20251023-140903,1.0.1,20251020-085245,715,Experiment,Both,1,Automatic,main,72,20251023-141449,global,global,750,S,H,E,A,S-E.png,H-A.png,sS,hH,mask-4.png,mask-2.png,s,1,0.5138732999912463,h,1,0.038249800010817125,0.04753919999348,0.047526199981803074,0.09855819999938831,0.10101929999655113,0.7462871000170708
RSVPLG03,cs,20251023-140903,1.0.1,20251020-085245,715,Experiment,Both,1,Automatic,main,73,20251023-141453,global,global,750,S,S,A,A,S-A.png,S-A.png,sS,sS,mask-2.png,mask-4.png,s,1,0.34897710001678206,s,1,0.0848493000085,0.04798879998270422,0.04857400001492351,0.1001127999916207,0.09960929999942891,0.7470437999872956
RSVPLG03,cs,20251023-140903,1.0.1,20251020-085245,715,Experiment,Both,1,Automatic,main,74,20251023-141458,local,global,300,S,S,E,A,E-S.png,S-A.png,sS,sS,mask-2.png,mask-2.png,s,1,0.4927023999916855,h,0,0.025226300000213087,0.04651829999056645,0.048601699993014336,0.09980329999234527,0.10064879999845289,0.29851459999918006
RSVPLG03,cs,20251023-140903,1.0.1,20251020-085245,715,Experiment,Both,1,Automatic,main,75,20251023-141502,local,global,300,S,H,E,A,E-S.png,H-A.png,sS,hH,mask-2.png,mask-1.png,s,1,0.407306899985997,h,1,0.07375589999719523,0.045696299988776445,0.04703249997692183,0.09930050000548363,0.10029780000331812,0.29789710001205094
RSVPLG03,cs,20251023-140903,1.0.1,20251020-085245,715,Experiment,Both,1,Automatic,main,76,20251023-141506,local,global,750,H,S,E,A,E-H.png,S-A.png,hH,sS,mask-1.png,mask-2.png,h,1,0.5689282999956049,h,0,0.2488073999993503,0.04754020000109449,0.04749440000159666,0.0995822999975644,0.09851710000657476,0.747617299988633
RSVPLG03,cs,20251023-140903,1.0.1,20251020-085245,715,Experiment,Both,1,Automatic,main,77,20251023-141511,global,local,300,S,S,A,A,S-A.png,A-S.png,sS,sS,mask-3.png,mask-4.png,s,1,0.4177141000109259,h,0,0.06125210001482628,0.04672260000370443,0.04760220000753179,0.09878339999704622,0.0988008999847807,0.29836310000973754
RSVPLG03,cs,20251023-140903,1.0.1,20251020-085245,715,Experiment,Both,1,Automatic,main,78,20251023-141515,local,local,750,H,H,A,A,A-H.png,A-H.png,hH,hH,mask-2.png,mask-4.png,h,1,0.4728270000196062,h,1,0.05388740001944825,0.04744150000624359,0.04860989999724552,0.09950440001557581,0.10057130001951009,0.7471442999958526
RSVPLG03,cs,20251023-140903,1.0.1,20251020-085245,715,Experiment,Both,1,Automatic,main,79,20251023-141520,local,global,750,S,H,E,E,E-S.png,H-E.png,sS,hH,mask-1.png,mask-1.png,s,1,0.6188598000153434,s,0,0.08523359999526292,0.047492200013948604,0.04747499999939464,0.09902750002220273,0.09850570000708103,0.7476657000079285
RSVPLG03,cs,20251023-140903,1.0.1,20251020-085245,715,Experiment,Both,1,Automatic,main,80,20251023-141525,global,local,750,S,H,A,A,S-A.png,A-H.png,sS,hH,mask-1.png,mask-2.png,s,1,0.29921000002650544,h,1,0.06708790000993758,0.04745909999473952,0.047577900026226416,0.10070739997900091,0.09952880002674647,0.7482812999805901
RSVPLG03,cs,20251023-140903,1.0.1,20251020-085245,715,Experiment,Both,1,Automatic,main,81,20251023-141529,global,local,750,S,S,E,E,S-E.png,E-S.png,sS,sS,mask-4.png,mask-1.png,s,1,0.33343269999022596,s,1,0.2840274999907706,0.04753770001116209,0.046515499998349696,0.09929150002426468,0.1005044000048656,0.7464052000141237
RSVPLG03,cs,20251023-140903,1.0.1,20251020-085245,715,Experiment,Both,1,Automatic,main,82,20251023-141534,local,global,300,S,S,E,E,E-S.png,S-E.png,sS,sS,mask-1.png,mask-2.png,s,1,0.36352859999169596,h,0,0.17288130000815727,0.04664670000784099,0.047672799992142245,0.09983729998930357,0.09969000000273809,0.2981318999954965
RSVPLG03,cs,20251023-140903,1.0.1,20251020-085245,715,Experiment,Both,1,Automatic,main,83,20251023-141538,local,local,300,H,S,E,E,E-H.png,E-S.png,hH,sS,mask-2.png,mask-3.png,h,1,0.3173222000186797,s,1,0.137535999994725,0.04665850001038052,0.046642999979667366,0.09791470001800917,0.09884229997987859,0.29766450001625344
RSVPLG03,cs,20251023-140903,1.0.1,20251020-085245,715,Experiment,Both,1,Automatic,main,84,20251023-141542,global,local,750,H,S,E,A,H-E.png,A-S.png,hH,sS,mask-1.png,mask-4.png,h,1,0.4360852999961935,h,0,0.05902370001422241,0.045720299996901304,0.04698169999755919,0.0979665000049863,0.10006070000235923,0.7461980000080075
RSVPLG03,cs,20251023-140903,1.0.1,20251020-085245,715,Experiment,Both,1,Automatic,main,85,20251023-141547,local,local,750,S,S,A,A,A-S.png,A-S.png,sS,sS,mask-1.png,mask-2.png,h,0,0.525082600011956,s,1,0.03896350000286475,0.0463533999864012,0.048351500008720905,0.09863369999220595,0.09936150000430644,0.7475374999921769
RSVPLG03,cs,20251023-140903,1.0.1,20251020-085245,715,Experiment,Both,1,Automatic,main,86,20251023-141552,global,local,750,S,H,A,E,S-A.png,E-H.png,sS,hH,mask-2.png,mask-4.png,s,1,0.4990803000109736,s,0,0.12422659998992458,0.04752300001564436,0.04754160001175478,0.09960010001668707,0.10162520001176745,0.7463655000028666
RSVPLG03,cs,20251023-140903,1.0.1,20251020-085245,715,Experiment,Both,1,Automatic,main,87,20251023-141556,global,global,750,S,S,A,E,S-A.png,S-E.png,sS,sS,mask-2.png,mask-4.png,s,1,0.5831907000101637,s,1,0.9876710000098683,0.04751969999051653,0.04689840000355616,0.09949779999442399,0.09994480002205819,0.7470767999766394
RSVPLG03,cs,20251023-140903,1.0.1,20251020-085245,715,Experiment,Both,1,Automatic,main,88,20251023-141602,global,global,750,S,S,A,A,S-A.png,S-A.png,sS,sS,mask-2.png,mask-4.png,s,1,0.34365550000802614,s,1,0.08883439999772236,0.04751380000379868,0.04648679998354055,0.10039879998657852,0.09850599998026155,0.747234100010246
RSVPLG03,cs,20251023-140903,1.0.1,20251020-085245,715,Experiment,Both,1,Automatic,main,89,20251023-141606,global,global,300,S,S,A,A,S-A.png,S-A.png,sS,sS,mask-1.png,mask-3.png,s,1,0.3849404999928083,h,0,0.05257370002800599,0.048612900020089,0.04745749998255633,0.10162319999653846,0.09916279997560196,0.29995440001948737
RSVPLG03,cs,20251023-140903,1.0.1,20251020-085245,715,Experiment,Both,1,Automatic,main,90,20251023-141610,local,local,750,S,S,E,A,E-S.png,A-S.png,sS,sS,mask-4.png,mask-2.png,s,1,0.4163745000259951,h,0,0.09244800001033582,0.047372100001666695,0.047502700006589293,0.10041450001881458,0.09949819999746978,0.7465769000118598
RSVPLG03,cs,20251023-140903,1.0.1,20251020-085245,715,Experiment,Both,1,Automatic,main,91,20251023-141615,local,local,750,H,H,E,E,E-H.png,E-H.png,hH,hH,mask-2.png,mask-1.png,h,1,0.6623087999760173,h,1,0.17167030001292005,0.04855559999123216,0.048563399992417544,0.09957759999088012,0.10100920000695623,0.747229000000516
RSVPLG03,cs,20251023-140903,1.0.1,20251020-085245,715,Experiment,Both,1,Automatic,main,92,20251023-141620,global,global,300,S,S,A,A,S-A.png,S-A.png,sS,sS,mask-1.png,mask-3.png,s,1,0.7647723999980371,s,1,0.6780743999988772,0.04814600001554936,0.04646469998988323,0.09914410000783391,0.10027339999214746,0.2989962999999989
RSVPLG03,cs,20251023-140903,1.0.1,20251020-085245,715,Experiment,Both,1,Automatic,main,93,20251023-141625,global,local,750,S,H,E,A,S-E.png,A-H.png,sS,hH,mask-3.png,mask-2.png,s,1,0.19625899998936802,h,1,0.09282830002484843,0.048489299981156364,0.047628200001781806,0.10058349999599159,0.10114290000637993,0.7474112999916542
RSVPLG03,cs,20251023-140903,1.0.1,20251020-085245,715,Experiment,Both,1,Automatic,main,94,20251023-141629,global,local,300,S,S,A,A,S-A.png,A-S.png,sS,sS,mask-2.png,mask-2.png,s,1,0.34612400000332855,h,0,0.10622459999285638,0.04772809997666627,0.04670050001004711,0.09995939998771064,0.09990480000851676,0.2996901999867987
RSVPLG03,cs,20251023-140903,1.0.1,20251020-085245,715,Experiment,Both,1,Automatic,main,95,20251023-141634,local,local,300,S,H,A,A,A-S.png,A-H.png,sS,hH,mask-2.png,mask-2.png,s,1,0.5604078999895137,h,1,0.5249307999911252,0.04763200000161305,0.0474646000075154,0.09906670000054874,0.09943900001235306,0.2993580999900587
RSVPLG03,cs,20251023-140903,1.0.1,20251020-085245,715,Experiment,Both,1,Automatic,main,96,20251023-141638,global,global,300,H,H,A,E,H-A.png,H-E.png,hH,hH,mask-4.png,mask-1.png,h,1,0.6432105000130832,h,1,0.09224979998543859,0.046555699984310195,0.0465152999968268,0.09860529997968115,0.09955730001092888,0.2988762999884784
RSVPLG03,cs,20251023-140903,1.0.1,20251020-085245,715,Experiment,Both,1,Automatic,main,97,20251023-141643,global,global,300,H,S,A,A,H-A.png,S-A.png,hH,sS,mask-3.png,mask-3.png,h,1,0.3000787000055425,s,1,0.009553499985486269,0.04751100001158193,0.0475049999949988,0.09959349999553524,0.09955809998791665,0.29819440000574104
RSVPLG03,cs,20251023-140903,1.0.1,20251020-085245,715,Experiment,Both,1,Automatic,main,98,20251023-141647,global,local,300,S,H,E,A,S-E.png,A-H.png,sS,hH,mask-1.png,mask-4.png,s,1,0.4071494000090752,h,1,0.10226370001328178,0.047560199978761375,0.04729260000749491,0.0994557999947574,0.09956310002598912,0.2973387999809347
RSVPLG03,cs,20251023-140903,1.0.1,20251020-085245,715,Experiment,Both,1,Automatic,main,99,20251023-141651,local,global,750,H,S,A,E,A-H.png,S-E.png,hH,sS,mask-1.png,mask-3.png,h,1,0.31468239999958314,s,1,0.04542749997926876,0.04750469999271445,0.0468494999804534,0.0994492000027094,0.09993569998187013,0.7473796000122093
RSVPLG03,cs,20251023-140903,1.0.1,20251020-085245,715,Experiment,Both,1,Automatic,main,100,20251023-141655,global,global,300,H,H,A,A,H-A.png,H-A.png,hH,hH,mask-4.png,mask-4.png,h,1,0.5631113999988884,h,1,0.05427270001382567,0.047654900001361966,0.046466599975246936,0.09986190000199713,0.09864189999643713,0.29931000000215136
RSVPLG03,cs,20251023-140903,1.0.1,20251020-085245,715,Experiment,Both,1,Automatic,main,101,20251023-141700,local,local,750,S,S,A,E,A-S.png,E-S.png,sS,sS,mask-2.png,mask-3.png,h,0,0.3263444000040181,s,1,0.05262979998951778,0.04750310000963509,0.044962799991481006,0.09946979998494498,0.09763269999530166,0.747518799995305
RSVPLG03,cs,20251023-140903,1.0.1,20251020-085245,715,Experiment,Both,1,Automatic,main,102,20251023-141705,local,global,750,S,S,A,A,A-S.png,S-A.png,sS,sS,mask-3.png,mask-2.png,s,1,0.4246327999862842,h,0,0.04171000001952052,0.04650999998557381,0.04773089999798685,0.09969020000426099,0.09998150001047179,0.7475799999956507
RSVPLG03,cs,20251023-140903,1.0.1,20251020-085245,715,Experiment,Both,1,Automatic,main,103,20251023-141709,local,global,300,H,H,E,A,E-H.png,H-A.png,hH,hH,mask-2.png,mask-2.png,h,1,0.5072752999840304,h,1,0.053791800019098446,0.048231599997961894,0.04768099999637343,0.0991607999894768,0.09986420001951046,0.2986825999978464
RSVPLG03,cs,20251023-140903,1.0.1,20251020-085245,715,Experiment,Both,1,Automatic,main,104,20251023-141714,local,local,300,S,H,E,A,E-S.png,A-H.png,sS,hH,mask-2.png,mask-4.png,s,1,0.3808407000033185,h,1,0.11419290001504123,0.04860799998277798,0.047505399998044595,0.09971829998539761,0.09953310000128113,0.29922179999994114
RSVPLG03,cs,20251023-140903,1.0.1,20251020-085245,715,Experiment,Both,1,Automatic,main,105,20251023-141718,global,local,300,H,H,A,E,H-A.png,E-H.png,hH,hH,mask-2.png,mask-3.png,h,1,0.3779841000214219,s,0,0.05955439998069778,0.04668530001072213,0.04768859999603592,0.09909970001899637,0.0996080000186339,0.29908789999899454
RSVPLG03,cs,20251023-140903,1.0.1,20251020-085245,715,Experiment,Both,1,Automatic,main,106,20251023-141722,global,global,750,H,H,A,A,H-A.png,H-A.png,hH,hH,mask-1.png,mask-2.png,h,1,0.3697425000136718,h,1,0.056778900005156174,0.04761120001785457,0.046690599992871284,0.09997650000150315,0.09925379999913275,0.7474053000041749
RSVPLG03,cs,20251023-140903,1.0.1,20251020-085245,715,Experiment,Both,1,Automatic,main,107,20251023-141726,local,global,300,S,H,A,A,A-S.png,H-A.png,sS,hH,mask-2.png,mask-2.png,s,1,0.35292910001589917,h,1,0.1509860999940429,0.04750630000489764,0.047274399985326454,0.09933309999178164,0.09844989998964593,0.2995439000078477
RSVPLG03,cs,20251023-140903,1.0.1,20251020-085245,715,Experiment,Both,1,Automatic,main,108,20251023-141731,global,global,750,H,S,A,A,H-A.png,S-A.png,hH,sS,mask-4.png,mask-4.png,h,1,0.659758800000418,h,0,0.18530360001022927,0.04657740000402555,0.04768980000517331,0.09863799999584444,0.09965420002117753,0.7471012999885716
RSVPLG03,cs,20251023-140903,1.0.1,20251020-085245,715,Experiment,Both,1,Automatic,main,109,20251023-141736,local,global,750,S,S,E,E,E-S.png,S-E.png,sS,sS,mask-1.png,mask-2.png,s,1,0.30809529998805374,s,1,0.0696514000010211,0.04571170001872815,0.04705260001355782,0.09791579999728128,0.10008120001293719,0.7467426999937743
RSVPLG03,cs,20251023-140903,1.0.1,20251020-085245,715,Experiment,Both,1,Automatic,main,110,20251023-141740,global,global,300,H,S,A,E,H-A.png,S-E.png,hH,sS,mask-4.png,mask-4.png,h,1,0.4757839999801945,s,1,0.09114730000146665,0.048718699981691316,0.046718900004634634,0.0999493999988772,0.09890539999469183,0.30056750000221655
RSVPLG03,cs,20251023-140903,1.0.1,20251020-085245,715,Experiment,Both,1,Automatic,main,111,20251023-141744,global,global,300,H,S,A,E,H-A.png,S-E.png,hH,sS,mask-2.png,mask-2.png,h,1,0.43218350000097416,s,1,0.0398169000109192,0.047424099990166724,0.04636509998817928,0.10017299998435192,0.09914939998998307,0.2991856999869924
RSVPLG03,cs,20251023-140903,1.0.1,20251020-085245,715,Experiment,Both,1,Automatic,main,112,20251023-141748,global,local,300,H,S,A,A,H-A.png,A-S.png,hH,sS,mask-1.png,mask-1.png,h,1,0.41781970000010915,s,1,0.10208870001952164,0.046801200020127,0.04847370000788942,0.09985490000690334,0.10032339999452233,0.29929039999842644
RSVPLG03,cs,20251023-140903,1.0.1,20251020-085245,715,Experiment,Both,1,Automatic,main,113,20251023-141752,global,global,300,H,S,E,A,H-E.png,S-A.png,hH,sS,mask-2.png,mask-1.png,h,1,0.41280839999672025,s,1,0.5249951000150759,0.04769159998977557,0.04760979997809045,0.09989509999286383,0.09941519997664727,0.29829330000211485
RSVPLG03,cs,20251023-140903,1.0.1,20251020-085245,715,Experiment,Both,1,Automatic,main,114,20251023-141756,global,local,300,H,H,E,A,H-E.png,A-H.png,hH,hH,mask-3.png,mask-3.png,h,1,0.37481780000962317,h,1,0.04985000001033768,0.04767359999823384,0.04766019998351112,0.09989459998905659,0.09988029999658465,0.2985181999974884
RSVPLG03,cs,20251023-140903,1.0.1,20251020-085245,715,Experiment,Both,1,Automatic,main,115,20251023-141801,local,local,300,H,S,E,E,E-H.png,E-S.png,hH,sS,mask-2.png,mask-2.png,h,1,0.282366200000979,s,1,0.020218499994371086,0.04774939999333583,0.04663180001080036,0.09983490000013262,0.10042020000400953,0.29961619997629896
RSVPLG03,cs,20251023-140903,1.0.1,20251020-085245,715,Experiment,Both,1,Automatic,main,116,20251023-141804,global,local,750,H,H,E,E,H-E.png,E-H.png,hH,hH,mask-3.png,mask-2.png,h,1,0.6634949000144843,h,1,0.037137300008907914,0.04750750001403503,0.047514300007605925,0.09851300000445917,0.10054009998566471,0.7459647000068799
RSVPLG03,cs,20251023-140903,1.0.1,20251020-085245,715,Experiment,Both,1,Automatic,main,117,20251023-141809,global,local,750,S,S,E,A,S-E.png,A-S.png,sS,sS,mask-3.png,mask-2.png,s,1,0.5578124999883585,s,1,0.10310899998876266,0.04671600001165643,0.04759020000346936,0.09890509999240749,0.09957700001541525,0.7464673999929801
RSVPLG03,cs,20251023-140903,1.0.1,20251020-085245,715,Experiment,Both,1,Automatic,main,118,20251023-141814,global,local,300,S,H,A,A,S-A.png,A-H.png,sS,hH,mask-1.png,mask-4.png,s,1,0.5457720999838784,h,1,0.043490199983352795,0.047757399996044114,0.04710179998073727,0.0989586999930907,0.09935330000007525,0.2988582999969367
RSVPLG03,cs,20251023-140903,1.0.1,20251020-085245,715,Experiment,Both,1,Automatic,main,119,20251023-141818,global,local,750,H,H,A,A,H-A.png,A-H.png,hH,hH,mask-2.png,mask-4.png,h,1,0.24745560000883415,h,1,0.07913230001577176,0.04653009999310598,0.045724199997494,0.09879940000246279,0.09874940000008792,0.7479151999868918
RSVPLG03,cs,20251023-140903,1.0.1,20251020-085245,715,Experiment,Both,1,Automatic,main,120,20251023-141823,local,local,750,S,S,A,E,A-S.png,E-S.png,sS,sS,mask-2.png,mask-3.png,s,1,0.29368100001011044,s,1,0.0760794999951031,0.04634629999054596,0.04758300000685267,0.09837269998388365,0.09960139999748208,0.7459772999864072
RSVPLG03,cs,20251023-140903,1.0.1,20251020-085245,715,Experiment,Both,1,Automatic,main,121,20251023-141827,global,local,300,H,S,E,A,H-E.png,A-S.png,hH,sS,mask-1.png,mask-1.png,h,1,0.29424929997185245,s,1,0.03153179999208078,0.047473000013269484,0.04750299997976981,0.10209639999084175,0.10013739997521043,0.2990787000162527
RSVPLG03,cs,20251023-140903,1.0.1,20251020-085245,715,Experiment,Both,1,Automatic,main,122,20251023-141831,local,local,300,S,S,A,E,A-S.png,E-S.png,sS,sS,mask-3.png,mask-3.png,h,0,0.6020484000036959,h,0,0.07155110000167042,0.04663500000606291,0.04767989998799749,0.09985100000631064,0.09975200000917539,0.2988521000079345
RSVPLG03,cs,20251023-140903,1.0.1,20251020-085245,715,Experiment,Both,1,Automatic,main,123,20251023-141835,local,global,750,S,H,A,A,A-S.png,H-A.png,sS,hH,mask-3.png,mask-4.png,s,1,0.4151516999991145,h,1,0.06003269998473115,0.04754430000321008,0.04757290001725778,0.09892109999782406,0.09969990001991391,0.7468541999987792
RSVPLG03,cs,20251023-140903,1.0.1,20251020-085245,715,Experiment,Both,1,Automatic,main,124,20251023-141840,local,local,300,S,H,E,E,E-S.png,E-H.png,sS,hH,mask-1.png,mask-3.png,s,1,0.4582081999978982,h,1,0.10781159999896772,0.04769139998825267,0.04560569999739528,0.09963280000374652,0.0997594999789726,0.3001817000040319
RSVPLG03,cs,20251023-140903,1.0.1,20251020-085245,715,Experiment,Both,1,Automatic,main,125,20251023-141844,global,local,750,S,S,A,A,S-A.png,A-S.png,sS,sS,mask-2.png,mask-4.png,s,1,0.2392258000036236,s,1,0.0738345000136178,0.04855219999444671,0.04761000000871718,0.10052169999107718,0.09862010000506416,0.7477683999750298
RSVPLG03,cs,20251023-142323,1.0.1,20251020-085245,715,Experiment,Both,1,Automatic,warmup,1,20251023-142344,global,global,750,S,H,E,E,S-E.png,H-E.png,sS,hH,mask-4.png,mask-2.png,s,1,0.4930824000039138,h,1,0.0379794999898877,0.04243339999811724,0.048671299999114126,0.09333379997406155,0.10088049998739734,0.7437767999945208
RSVPLG03,cs,20251023-142323,1.0.1,20251020-085245,715,Experiment,Both,1,Automatic,warmup,2,20251023-142349,global,local,750,H,S,A,E,H-A.png,E-S.png,hH,sS,mask-3.png,mask-3.png,h,1,0.301762899995083,s,1,0.0666864000086207,0.04650129997753538,0.04753190002520569,0.09965009998995811,0.10171020001871511,0.7488426999771036
RSVPLG03,cs,20251023-142323,1.0.1,20251020-085245,715,Experiment,Both,1,Automatic,warmup,3,20251023-142353,local,global,750,S,H,A,E,A-S.png,H-E.png,sS,hH,mask-4.png,mask-3.png,s,1,0.20386989999678917,h,1,0.3161569999938365,0.048523100005695596,0.048504199978196993,0.0998844999994617,0.09956079997937195,0.7504688000190072
RSVPLG03,cs,20251023-142323,1.0.1,20251020-085245,715,Experiment,Both,1,Automatic,warmup,4,20251023-142358,local,local,750,S,H,A,A,A-S.png,A-H.png,sS,hH,mask-1.png,mask-3.png,s,1,0.22873169998638332,h,1,0.03754369998932816,0.04751110001234338,0.048715999990236014,0.09881490000407211,0.09975240001222119,0.748910900001647
RSVPLG03,cs,20251023-142323,1.0.1,20251020-085245,715,Experiment,Both,1,Automatic,warmup,5,20251023-142402,global,local,300,S,S,E,A,S-E.png,A-S.png,sS,sS,mask-3.png,mask-4.png,s,1,0.5256645000190474,h,0,0.05987860000459477,0.04751899998518638,0.04616990001522936,0.10055080000893213,0.09897600000840612,0.30025599998771213
RSVPLG03,cs,20251023-142323,1.0.1,20251020-085245,715,Experiment,Both,1,Automatic,main,6,20251023-142406,local,global,750,H,S,A,E,A-H.png,S-E.png,hH,sS,mask-3.png,mask-1.png,h,1,0.3576113000162877,s,1,0.5352887000190094,0.04671920000691898,0.04734459999599494,0.10091760000796057,0.10149380000075325,0.7493619000015315
RSVPLG03,cs,20251023-142323,1.0.1,20251020-085245,715,Experiment,Both,1,Automatic,main,7,20251023-142411,local,global,750,H,H,A,E,A-H.png,H-E.png,hH,hH,mask-3.png,mask-1.png,h,1,0.29662909999024123,h,1,0.0662595999892801,0.047530799987725914,0.04758070001844317,0.09955459999036975,0.0997044000250753,0.7496728999831248
RSVPLG03,cs,20251023-142323,1.0.1,20251020-085245,715,Experiment,Both,1,Automatic,main,8,20251023-142416,global,local,300,H,S,A,E,H-A.png,E-S.png,hH,sS,mask-3.png,mask-3.png,h,1,0.5054473000054713,s,1,0.08777729998109862,0.04669279998051934,0.04691550001734868,0.09989779998431914,0.09923400002298877,0.30083599998033606
RSVPLG03,cs,20251023-142323,1.0.1,20251020-085245,715,Experiment,Both,1,Automatic,main,9,20251023-142420,local,global,300,H,H,A,E,A-H.png,H-E.png,hH,hH,mask-1.png,mask-2.png,h,1,0.6882150000019465,h,1,0.07056469999952242,0.04678290002630092,0.048338199994759634,0.10098720001406036,0.10139530000742525,0.2995480000099633
RSVPLG03,cs,20251023-142323,1.0.1,20251020-085245,715,Experiment,Both,1,Automatic,main,10,20251023-142424,local,global,300,S,H,A,E,A-S.png,H-E.png,sS,hH,mask-4.png,mask-3.png,s,1,0.4134161999973003,h,1,0.0806346999888774,0.04783659998793155,0.04700120000052266,0.10019480000482872,0.099921799992444,0.29988740000408143
RSVPLG03,cs,20251023-142323,1.0.1,20251020-085245,715,Experiment,Both,1,Automatic,main,11,20251023-142429,global,global,750,S,H,A,A,S-A.png,H-A.png,sS,hH,mask-3.png,mask-2.png,s,1,0.23900099997990765,h,1,0.2414959000016097,0.04850350000197068,0.04683539998950437,0.10053739999420941,0.09949480000068434,0.7501509999856353
RSVPLG03,cs,20251023-142323,1.0.1,20251020-085245,715,Experiment,Both,1,Automatic,main,12,20251023-142433,global,global,300,H,H,E,A,H-E.png,H-A.png,hH,hH,mask-3.png,mask-2.png,h,1,0.36605949999648146,h,1,0.05489510000916198,0.04725180001696572,0.048507100000279024,0.09909249999327585,0.10053429999970831,0.29914800002006814
RSVPLG03,cs,20251023-142323,1.0.1,20251020-085245,715,Experiment,Both,1,Automatic,main,13,20251023-142437,global,global,750,S,S,E,E,S-E.png,S-E.png,sS,sS,mask-3.png,mask-2.png,s,1,0.2866005999967456,s,1,0.06889059999957681,0.04752130000269972,0.04750159999821335,0.10150509999948554,0.09848780001630075,0.7513943999947514
RSVPLG03,cs,20251023-142323,1.0.1,20251020-085245,715,Experiment,Both,1,Automatic,main,14,20251023-142442,global,global,300,H,S,A,A,H-A.png,S-A.png,hH,sS,mask-2.png,mask-1.png,h,1,0.32259560000966303,s,1,0.43474590001278557,0.04635759998927824,0.046671399992192164,0.0986239000048954,0.0998457999958191,0.30025440000463277
RSVPLG03,cs,20251023-142323,1.0.1,20251020-085245,715,Experiment,Both,1,Automatic,main,15,20251023-142446,local,global,300,S,S,E,E,E-S.png,S-E.png,sS,sS,mask-1.png,mask-1.png,s,1,0.5952074000088032,h,0,0.026502599997911602,0.0484887000056915,0.047592599992640316,0.10077049999381416,0.09946649998892099,0.3009485999937169
RSVPLG03,cs,20251023-142323,1.0.1,20251020-085245,715,Experiment,Both,1,Automatic,main,16,20251023-142450,global,global,300,S,H,E,E,S-E.png,H-E.png,sS,hH,mask-1.png,mask-3.png,s,1,0.3152610000106506,h,1,0.026330199994845316,0.04593269998440519,0.048499700002139434,0.0990313999936916,0.09950769998249598,0.29925929999444634
RSVPLG03,cs,20251023-142323,1.0.1,20251020-085245,715,Experiment,Both,1,Automatic,main,17,20251023-142454,global,global,300,S,H,A,A,S-A.png,H-A.png,sS,hH,mask-1.png,mask-3.png,s,1,0.33909680001670495,h,1,0.02473110001301393,0.04652999999234453,0.04768400001921691,0.09920120000606403,0.09992130001774058,0.3005403999995906
RSVPLG03,cs,20251023-142323,1.0.1,20251020-085245,715,Experiment,Both,1,Automatic,main,18,20251023-142458,global,local,300,H,H,E,A,H-E.png,A-H.png,hH,hH,mask-3.png,mask-2.png,h,1,0.37365259998477995,h,1,0.0569305999961216,0.047511499986285344,0.0485560999950394,0.09950429998571053,0.10064590000547469,0.2982733999961056
RSVPLG03,cs,20251023-142323,1.0.1,20251020-085245,715,Experiment,Both,1,Automatic,main,19,20251023-142502,global,global,300,S,S,E,A,S-E.png,S-A.png,sS,sS,mask-4.png,mask-2.png,s,1,0.33908960002008826,s,1,0.08901580001111142,0.04765890000271611,0.04573150002397597,0.09984159999294207,0.09831050000502728,0.3015397999843117
RSVPLG03,cs,20251023-142323,1.0.1,20251020-085245,715,Experiment,Both,1,Automatic,main,20,20251023-142506,local,global,750,S,S,A,E,A-S.png,S-E.png,sS,sS,mask-3.png,mask-4.png,s,1,0.3823631999839563,s,1,0.14902339997934178,0.04667300000437535,0.04675959999440238,0.1004726999963168,0.09984830001485534,0.7507983999967109
RSVPLG03,cs,20251023-142323,1.0.1,20251020-085245,715,Experiment,Both,1,Automatic,main,21,20251023-142511,local,local,750,S,S,E,E,E-S.png,E-S.png,sS,sS,mask-1.png,mask-4.png,s,1,0.2309155999973882,s,1,0.0845190999971237,0.04775779999908991,0.04649999999674037,0.10072930000023916,0.09952429999248125,0.7508880000095814
RSVPLG03,cs,20251023-142323,1.0.1,20251020-085245,715,Experiment,Both,1,Automatic,main,22,20251023-142515,global,local,300,H,S,A,A,H-A.png,A-S.png,hH,sS,mask-3.png,mask-2.png,h,1,0.3133391000155825,s,1,0.5606660000048578,0.04773270001169294,0.046437200013315305,0.10093130002496764,0.09849520001444034,0.30080150000867434
RSVPLG03,cs,20251023-142323,1.0.1,20251020-085245,715,Experiment,Both,1,Automatic,main,23,20251023-142519,local,global,750,S,S,E,E,E-S.png,S-E.png,sS,sS,mask-2.png,mask-3.png,s,1,0.3376644999952987,s,1,0.1346983999828808,0.047773500002222136,0.04579500001273118,0.09992050001164898,0.0986624000070151,0.7502027000009548
RSVPLG03,cs,20251023-142323,1.0.1,20251020-085245,715,Experiment,Both,1,Automatic,main,24,20251023-142524,local,local,300,H,H,E,A,E-H.png,A-H.png,hH,hH,mask-4.png,mask-2.png,h,1,0.4668173000100069,h,1,0.34659089997876436,0.04772420000517741,0.04855500001576729,0.10091320000356063,0.09974890001467429,0.30050509999273345
RSVPLG03,cs,20251023-142323,1.0.1,20251020-085245,715,Experiment,Both,1,Automatic,main,25,20251023-142529,local,local,300,S,S,A,A,A-S.png,A-S.png,sS,sS,mask-1.png,mask-3.png,s,1,0.6956376000016462,h,0,0.15673469999455847,0.04765759999281727,0.047671200009062886,0.09982410000520758,0.10085429999162443,0.29950120000285096
RSVPLG03,cs,20251023-142323,1.0.1,20251020-085245,715,Experiment,Both,1,Automatic,main,26,20251023-142541,local,global,750,H,S,A,A,A-H.png,S-A.png,hH,sS,mask-3.png,mask-1.png,h,1,0.2574857999861706,s,1,0.023162700003013015,0.04754329999559559,0.04868000000715256,0.09874149999814108,0.09968169999774545,0.7487155999988317
RSVPLG03,cs,20251023-142323,1.0.1,20251020-085245,715,Experiment,Both,1,Automatic,main,27,20251023-142546,local,global,750,H,S,E,E,E-H.png,S-E.png,hH,sS,mask-2.png,mask-4.png,h,1,0.21181660000002012,s,1,0.16929170000366867,0.04771380001329817,0.04831049998756498,0.09992710000369698,0.10052680000080727,0.749777000019094
RSVPLG03,cs,20251023-142323,1.0.1,20251020-085245,715,Experiment,Both,1,Automatic,main,28,20251023-142550,global,local,300,H,H,A,E,H-A.png,E-H.png,hH,hH,mask-2.png,mask-4.png,h,1,0.3434338000079151,h,1,0.8165447000064887,0.0486590999935288,0.04875560000073165,0.10085280000930652,0.10094840000965632,0.2999222000071313
RSVPLG03,cs,20251023-142323,1.0.1,20251020-085245,715,Experiment,Both,1,Automatic,main,29,20251023-142555,global,local,750,S,S,A,A,S-A.png,A-S.png,sS,sS,mask-2.png,mask-1.png,s,1,0.5761043000093196,h,0,0.3436568999895826,0.047506900009466335,0.04695519999950193,0.10154989999136887,0.09903199999826029,0.7511246000067331
RSVPLG03,cs,20251023-142323,1.0.1,20251020-085245,715,Experiment,Both,1,Automatic,main,30,20251023-142600,global,local,750,H,H,A,A,H-A.png,A-H.png,hH,hH,mask-1.png,mask-3.png,h,1,0.22822429999359883,h,1,0.07538429999840446,0.0475412999803666,0.0465400000102818,0.0998808000003919,0.10013299999991432,0.7501365999924019
RSVPLG03,cs,20251023-142323,1.0.1,20251020-085245,715,Experiment,Both,1,Automatic,main,31,20251023-142604,local,global,750,H,H,E,A,E-H.png,H-A.png,hH,hH,mask-4.png,mask-1.png,h,1,1.1887984999921173,h,1,0.16909759998088703,0.047512999997707084,0.047555800003465265,0.09952039999188855,0.10065340000437573,0.7498151999898255
RSVPLG03,cs,20251023-142323,1.0.1,20251020-085245,715,Experiment,Both,1,Automatic,main,32,20251023-142610,local,local,750,S,H,E,E,E-S.png,E-H.png,sS,hH,mask-4.png,mask-3.png,s,1,0.99750359999598,h,1,0.10378919998765923,0.04868740000529215,0.04783209998277016,0.10073400000692345,0.10025180000229739,0.7496229000098538
RSVPLG03,cs,20251023-142323,1.0.1,20251020-085245,715,Experiment,Both,1,Automatic,main,33,20251023-142615,global,global,300,S,S,A,E,S-A.png,S-E.png,sS,sS,mask-4.png,mask-4.png,s,1,0.7121299999998882,s,1,0.10263159999158233,0.04744989998289384,0.04747520000091754,0.10052059998270124,0.1004994000250008,0.30030899998382665
RSVPLG03,cs,20251023-142323,1.0.1,20251020-085245,715,Experiment,Both,1,Automatic,main,34,20251023-142619,local,local,750,H,H,A,A,A-H.png,A-H.png,hH,hH,mask-3.png,mask-1.png,h,1,0.3050617999979295,h,1,0.050547099992400035,0.047536700003547594,0.048502599995117635,0.0995829000021331,0.09955640000407584,0.7488048000086565
RSVPLG03,cs,20251023-142323,1.0.1,20251020-085245,715,Experiment,Both,1,Automatic,main,35,20251023-142624,local,local,750,H,S,E,E,E-H.png,E-S.png,hH,sS,mask-3.png,mask-3.png,h,1,0.37063009999110363,s,1,0.34687349997693673,0.04850669999723323,0.046374900004593655,0.10060609999345616,0.09918049999396317,0.75099629999022
RSVPLG03,cs,20251023-142323,1.0.1,20251020-085245,715,Experiment,Both,1,Automatic,main,36,20251023-142629,local,local,300,H,H,A,E,A-H.png,E-H.png,hH,hH,mask-2.png,mask-1.png,h,1,0.3744693999760784,h,1,0.5229500000132248,0.04744400002527982,0.04751030000625178,0.10033430001931265,0.1001974000246264,0.2995657999999821
RSVPLG03,cs,20251023-142323,1.0.1,20251020-085245,715,Experiment,Both,1,Automatic,main,37,20251023-142633,local,global,750,H,H,E,A,E-H.png,H-A.png,hH,hH,mask-3.png,mask-1.png,h,1,0.31807629999821074,h,1,0.06986370001686737,0.047539399995002896,0.04753310000523925,0.09955269997590221,0.0995247999962885,0.7498844999936409
RSVPLG03,cs,20251023-142323,1.0.1,20251020-085245,715,Experiment,Both,1,Automatic,main,38,20251023-142638,global,global,750,S,H,E,E,S-E.png,H-E.png,sS,hH,mask-4.png,mask-3.png,s,1,0.25340860002324916,h,1,0.1321128999989014,0.046066700015217066,0.046087499998975545,0.09784329999820329,0.0999807000043802,0.7497051999962423
RSVPLG03,cs,20251023-142323,1.0.1,20251020-085245,715,Experiment,Both,1,Automatic,main,39,20251023-142642,global,local,750,S,S,E,A,S-E.png,A-S.png,sS,sS,mask-2.png,mask-2.png,s,1,0.2623061000194866,h,0,0.30095069998060353,0.04851120000239462,0.046529099985491484,0.10079910000786185,0.09954659998766147,0.7508907000010367
RSVPLG03,cs,20251023-142323,1.0.1,20251020-085245,715,Experiment,Both,1,Automatic,main,40,20251023-142647,global,local,300,S,H,A,A,S-A.png,A-H.png,sS,hH,mask-1.png,mask-2.png,s,1,0.41392649998306297,h,1,0.07690429998910986,0.04570619997684844,0.04893410002114251,0.0998546999762766,0.09924340000725351,0.29843919997802004
RSVPLG03,cs,20251023-142323,1.0.1,20251020-085245,715,Experiment,Both,1,Automatic,main,41,20251023-142651,global,local,300,H,S,E,A,H-E.png,A-S.png,hH,sS,mask-4.png,mask-4.png,h,1,0.33107710001058877,s,1,0.18867709999904037,0.04756879998603836,0.04656190000241622,0.10051609997753985,0.09969529998488724,0.3017735999892466
RSVPLG03,cs,20251023-142323,1.0.1,20251020-085245,715,Experiment,Both,1,Automatic,main,42,20251023-142655,global,local,300,H,H,A,E,H-A.png,E-H.png,hH,hH,mask-3.png,mask-2.png,h,1,0.7182335999968927,h,1,0.056840999983251095,0.04748980002477765,0.04755479999585077,0.10048030002508312,0.10055810000631027,0.2998166000179481
RSVPLG03,cs,20251023-142323,1.0.1,20251020-085245,715,Experiment,Both,1,Automatic,main,43,20251023-142700,local,global,300,S,H,A,A,A-S.png,H-A.png,sS,hH,mask-1.png,mask-2.png,s,1,0.3561774999834597,h,1,0.13496940000914037,0.04696440001134761,0.046943699999246746,0.10009580000769347,0.09916770001291297,0.30000119999749586
RSVPLG03,cs,20251023-142323,1.0.1,20251020-085245,715,Experiment,Both,1,Automatic,main,44,20251023-142704,local,global,300,S,S,A,E,A-S.png,S-E.png,sS,sS,mask-3.png,mask-3.png,s,1,0.6155838000122458,s,1,0.06847100000595674,0.04627210000762716,0.047718699992401525,0.09961289999773726,0.09996490000048652,0.2992060999968089
RSVPLG03,cs,20251023-142323,1.0.1,20251020-085245,715,Experiment,Both,1,Automatic,main,45,20251023-142708,local,local,300,S,S,E,A,E-S.png,A-S.png,sS,sS,mask-1.png,mask-1.png,s,1,0.6336779999837745,s,1,0.07106449999264441,0.04672860002028756,0.04757740002241917,0.10003080000751652,0.1006696000113152,0.2995226999919396
RSVPLG03,cs,20251023-142323,1.0.1,20251020-085245,715,Experiment,Both,1,Automatic,main,46,20251023-142712,local,global,300,S,H,A,E,A-S.png,H-E.png,sS,hH,mask-4.png,mask-4.png,s,1,0.319641700014472,h,1,0.07030009999289177,0.04752409999491647,0.047991300001740456,0.10049989999970421,0.09996170000522397,0.2997957000043243
RSVPLG03,cs,20251023-142323,1.0.1,20251020-085245,715,Experiment,Both,1,Automatic,main,47,20251023-142716,local,global,300,H,S,A,E,A-H.png,S-E.png,hH,sS,mask-2.png,mask-4.png,h,1,0.2662423999863677,h,0,0.3583474999759346,0.047618200012948364,0.047586899978341535,0.1022895000060089,0.09959810000145808,0.30066550002084114
RSVPLG03,cs,20251023-142323,1.0.1,20251020-085245,715,Experiment,Both,1,Automatic,main,48,20251023-142721,local,global,300,S,S,E,A,E-S.png,S-A.png,sS,sS,mask-2.png,mask-4.png,s,1,0.5269174999848474,h,0,0.30226070000207983,0.04879040000378154,0.04565980000188574,0.10097139998106286,0.09984320000512525,0.3014641999907326
RSVPLG03,cs,20251023-142323,1.0.1,20251020-085245,715,Experiment,Both,1,Automatic,main,49,20251023-142725,global,local,750,S,H,A,A,S-A.png,A-H.png,sS,hH,mask-2.png,mask-2.png,s,1,0.2673715999990236,h,1,0.019597500009695068,0.04779029998462647,0.045719899993855506,0.10138730000471696,0.09888309999951161,0.7513687000027858
RSVPLG03,cs,20251023-142323,1.0.1,20251020-085245,715,Experiment,Both,1,Automatic,main,50,20251023-142730,local,global,750,S,S,E,A,E-S.png,S-A.png,sS,sS,mask-4.png,mask-2.png,s,1,0.8747832999797538,h,0,0.0893969000026118,0.04738149998593144,0.04662919999100268,0.10131879997788928,0.09980090000317432,0.7503441000008024
RSVPLG03,cs,20251023-142323,1.0.1,20251020-085245,715,Experiment,Both,1,Automatic,main,51,20251023-142735,global,local,750,S,S,A,E,S-A.png,E-S.png,sS,sS,mask-3.png,mask-1.png,s,1,0.28896049998002127,s,1,0.14005109999561682,0.048490999994101,0.04566629999317229,0.1013669999956619,0.0998533999954816,0.7514808000123594
RSVPLG03,cs,20251023-142323,1.0.1,20251020-085245,715,Experiment,Both,1,Automatic,main,52,20251023-142740,global,local,300,S,S,A,A,S-A.png,A-S.png,sS,sS,mask-2.png,mask-3.png,s,1,0.3252990000182763,s,1,0.31132660000002943,0.04852410001331009,0.04751040000701323,0.10153030001674779,0.10150520000024699,0.3003189000010025
RSVPLG03,cs,20251023-142323,1.0.1,20251020-085245,715,Experiment,Both,1,Automatic,main,53,20251023-142744,global,local,750,S,H,A,E,S-A.png,E-H.png,sS,hH,mask-3.png,mask-4.png,s,1,0.2680458999820985,h,1,0.0566607000073418,0.04667199999676086,0.048683199973311275,0.09988880000310019,0.10087559997919016,0.7483811000129208
RSVPLG03,cs,20251023-142323,1.0.1,20251020-085245,715,Experiment,Both,1,Automatic,main,54,20251023-142748,global,global,300,S,S,E,E,S-E.png,S-E.png,sS,sS,mask-1.png,mask-2.png,s,1,0.7474394000018947,h,0,0.21624089998658746,0.04719930002465844,0.04754140001023188,0.09979080001357943,0.1008315000217408,0.2991152000031434
RSVPLG03,cs,20251023-142323,1.0.1,20251020-085245,715,Experiment,Both,1,Automatic,main,55,20251023-142753,local,local,300,H,H,A,A,A-H.png,A-H.png,hH,hH,mask-1.png,mask-1.png,h,1,0.3796470999950543,h,1,0.04930529999546707,0.048550100007560104,0.04669559997273609,0.09925400000065565,0.09935699999914505,0.30042120002326556
RSVPLG03,cs,20251023-142323,1.0.1,20251020-085245,715,Experiment,Both,1,Automatic,main,56,20251023-142757,global,local,750,H,S,E,E,H-E.png,E-S.png,hH,sS,mask-4.png,mask-4.png,h,1,0.3108217999979388,s,1,0.0286777000001166,0.04769020000821911,0.04869729999336414,0.0999125000089407,0.10015329997986555,0.7498388000240084
RSVPLG03,cs,20251023-142323,1.0.1,20251020-085245,715,Experiment,Both,1,Automatic,main,57,20251023-142801,local,global,750,H,S,A,E,A-H.png,S-E.png,hH,sS,mask-3.png,mask-3.png,h,1,0.2695403000107035,s,1,0.05836339999223128,0.04849859999376349,0.047498100000666454,0.09910609998041764,0.10050719999708235,0.7497607999830507
RSVPLG03,cs,20251023-142323,1.0.1,20251020-085245,715,Experiment,Both,1,Automatic,main,58,20251023-142806,local,global,750,S,H,E,A,E-S.png,H-A.png,sS,hH,mask-3.png,mask-1.png,s,1,0.22900880000088364,h,1,0.02545849999296479,0.04780970001593232,0.04888709998340346,0.09914950001984835,0.10112959999241866,0.7492569000169169
RSVPLG03,cs,20251023-142323,1.0.1,20251020-085245,715,Experiment,Both,1,Automatic,main,59,20251023-142810,local,global,300,S,H,A,A,A-S.png,H-A.png,sS,hH,mask-4.png,mask-1.png,s,1,0.4933517000172287,h,1,0.0538650999951642,0.047707099991384894,0.04767359999823384,0.09990329999709502,0.09907679999014363,0.2985337999998592
RSVPLG03,cs,20251023-142323,1.0.1,20251020-085245,715,Experiment,Both,1,Automatic,main,60,20251023-142814,global,local,300,H,S,A,E,H-A.png,E-S.png,hH,sS,mask-3.png,mask-2.png,h,1,0.2788820000132546,s,1,0.05486329999985173,0.0476998999947682,0.04767659999197349,0.0998832999903243,0.10028849999071099,0.3011376000067685
RSVPLG03,cs,20251023-142323,1.0.1,20251020-085245,715,Experiment,Both,1,Automatic,main,61,20251023-142818,local,local,750,S,H,E,A,E-S.png,A-H.png,sS,hH,mask-1.png,mask-3.png,s,1,0.16021870000986382,h,1,0.05408020000322722,0.048653399979230016,0.048693799995817244,0.09982430000673048,0.10089569998672232,0.7499009000021033
RSVPLG03,cs,20251023-142323,1.0.1,20251020-085245,715,Experiment,Both,1,Automatic,main,62,20251023-142823,local,local,750,H,H,A,A,A-H.png,A-H.png,hH,hH,mask-2.png,mask-3.png,h,1,0.13966610000352375,h,1,0.05866400001104921,0.04652720000012778,0.048660899978131056,0.09970640001120046,0.10080529999686405,0.7487645000219345
RSVPLG03,cs,20251023-142323,1.0.1,20251020-085245,715,Experiment,Both,1,Automatic,main,63,20251023-142827,local,local,300,H,S,A,A,A-H.png,A-S.png,hH,sS,mask-1.png,mask-4.png,h,1,0.2150610999960918,s,1,0.04126709999400191,0.04573220000020228,0.04666880000149831,0.10009950000676326,0.09968820001813583,0.2997375999984797
RSVPLG03,cs,20251023-142323,1.0.1,20251020-085245,715,Experiment,Both,1,Automatic,main,64,20251023-142831,global,local,750,S,S,E,E,S-E.png,E-S.png,sS,sS,mask-1.png,mask-4.png,s,1,0.17633849999401718,s,1,0.066945400001714,0.04863959999056533,0.04588230000808835,0.09999299998162314,0.10006080000312068,0.7514532999775838
RSVPLG03,cs,20251023-142323,1.0.1,20251020-085245,715,Experiment,Both,1,Automatic,main,65,20251023-142835,local,global,300,S,S,E,E,E-S.png,S-E.png,sS,sS,mask-4.png,mask-2.png,s,1,0.27702189999399707,h,0,0.027850300015415996,0.046512800006894395,0.047693700005766004,0.09961469998233952,0.09990760000073351,0.30019589999574237
RSVPLG03,cs,20251023-142323,1.0.1,20251020-085245,715,Experiment,Both,1,Automatic,main,66,20251023-142839,global,global,300,H,S,A,E,H-A.png,S-E.png,hH,sS,mask-4.png,mask-2.png,h,1,0.8369079999974929,h,0,0.06007030000910163,0.047496499988483265,0.04748810001183301,0.09949839999899268,0.09948920001625083,0.30006549999234267
RSVPLG03,cs,20251023-142323,1.0.1,20251020-085245,715,Experiment,Both,1,Automatic,main,67,20251023-142844,global,global,750,H,H,A,E,H-A.png,H-E.png,hH,hH,mask-4.png,mask-4.png,h,1,0.3963815000024624,h,1,0.09020200002123602,0.04756139998789877,0.04748680000193417,0.09913719998439774,0.09971399998175912,0.7502726000093389
RSVPLG03,cs,20251023-142323,1.0.1,20251020-085245,715,Experiment,Both,1,Automatic,main,68,20251023-142848,local,local,750,H,H,A,E,A-H.png,E-H.png,hH,hH,mask-4.png,mask-2.png,h,1,0.766655899991747,h,1,0.37463219999335706,0.04771660000551492,0.04574470000807196,0.10108259998378344,0.10017920000245795,0.7507966999837663
RSVPLG03,cs,20251023-142323,1.0.1,20251020-085245,715,Experiment,Both,1,Automatic,main,69,20251023-142854,local,global,300,H,S,E,A,E-H.png,S-A.png,hH,sS,mask-3.png,mask-4.png,h,1,0.6242198999971151,h,0,0.05813389999093488,0.04624060000060126,0.04868809998151846,0.09936590000870638,0.10179709998192266,0.2979975000198465
RSVPLG03,cs,20251023-142323,1.0.1,20251020-085245,715,Experiment,Both,1,Automatic,main,70,20251023-142858,global,local,750,S,S,E,E,S-E.png,E-S.png,sS,sS,mask-2.png,mask-4.png,s,1,0.2819261000258848,s,1,0.0732172999996692,0.047512699995422736,0.047532299999147654,0.09832509999978356,0.0994209999917075,0.7486035999900196
RSVPLG03,cs,20251023-142323,1.0.1,20251020-085245,715,Experiment,Both,1,Automatic,main,71,20251023-142902,global,local,750,S,S,A,E,S-A.png,E-S.png,sS,sS,mask-1.png,mask-2.png,s,1,0.26589539999258704,s,1,0.07268440001644194,0.047496400016825646,0.04751459998078644,0.10049060001620091,0.09851619999972172,0.7516380000161007
RSVPLG03,cs,20251023-142323,1.0.1,20251020-085245,715,Experiment,Both,1,Automatic,main,72,20251023-142907,local,local,750,H,H,A,E,A-H.png,E-H.png,hH,hH,mask-4.png,mask-1.png,h,1,0.2919621999899391,h,1,0.05503229997702874,0.04650730002322234,0.047554299992043525,0.0995217000017874,0.0991228999919258,0.7486197000253014
RSVPLG03,cs,20251023-142323,1.0.1,20251020-085245,715,Experiment,Both,1,Automatic,main,73,20251023-142911,local,local,750,S,S,A,E,A-S.png,E-S.png,sS,sS,mask-2.png,mask-2.png,s,1,0.21900189999723807,s,1,0.07045759999891743,0.048668300005374476,0.04766579999704845,0.09985830000368878,0.10011529998155311,0.7499783000093885
RSVPLG03,cs,20251023-142323,1.0.1,20251020-085245,715,Experiment,Both,1,Automatic,main,74,20251023-142916,global,global,750,H,H,A,A,H-A.png,H-A.png,hH,hH,mask-1.png,mask-4.png,h,1,0.2620817999995779,h,1,0.037479399994481355,0.04572659998666495,0.04908649998833425,0.0999452999967616,0.10127939999802038,0.7480849999992643
RSVPLG03,cs,20251023-142323,1.0.1,20251020-085245,715,Experiment,Both,1,Automatic,main,75,20251023-142920,global,global,750,S,S,A,A,S-A.png,S-A.png,sS,sS,mask-4.png,mask-4.png,s,1,0.300164299987955,s,1,0.05407250000280328,0.04860949999419972,0.047124799981247634,0.10062129999278113,0.0983328000002075,0.7514377000043169
RSVPLG03,cs,20251023-142323,1.0.1,20251020-085245,715,Experiment,Both,1,Automatic,main,76,20251023-142925,local,local,300,S,H,A,E,A-S.png,E-H.png,sS,hH,mask-1.png,mask-1.png,s,1,0.872306600009324,h,1,0.9847873999970034,0.047443100018426776,0.04851759999291971,0.10053470000275411,0.1005697000073269,0.29998360000899993
RSVPLG03,cs,20251023-142323,1.0.1,20251020-085245,715,Experiment,Both,1,Automatic,main,77,20251023-142929,local,local,300,S,S,A,A,A-S.png,A-S.png,sS,sS,mask-4.png,mask-2.png,s,1,0.6705958000093233,s,1,0.05941220000386238,0.047315900010289624,0.04756069998256862,0.10030460002599284,0.10056099999928847,0.3005360000242945
RSVPLG03,cs,20251023-142323,1.0.1,20251020-085245,715,Experiment,Both,1,Automatic,main,78,20251023-142934,local,local,300,H,S,E,E,E-H.png,E-S.png,hH,sS,mask-1.png,mask-2.png,h,1,0.4209499999997206,s,1,0.5668062999902759,0.046717199991689995,0.0467159999825526,0.09892589997616597,0.09940179999102838,0.3000924999942072
RSVPLG03,cs,20251023-142323,1.0.1,20251020-085245,715,Experiment,Both,1,Automatic,main,79,20251023-142938,global,global,300,S,S,E,A,S-E.png,S-A.png,sS,sS,mask-4.png,mask-3.png,s,1,1.0186375000048429,s,1,0.13357280002674088,0.04669839999405667,0.04671819999930449,0.09893649999867193,0.09894130000611767,0.30064479997963645
RSVPLG03,cs,20251023-142323,1.0.1,20251020-085245,715,Experiment,Both,1,Automatic,main,80,20251023-142943,global,local,750,S,S,E,E,S-E.png,E-S.png,sS,sS,mask-3.png,mask-4.png,s,1,0.24815830000443384,s,1,0.027314300008583814,0.04758350001065992,0.04755960000329651,0.09857249999186024,0.10057109998888336,0.7484719000058249
RSVPLG03,cs,20251023-142323,1.0.1,20251020-085245,715,Experiment,Both,1,Automatic,main,81,20251023-142948,global,global,300,H,S,E,E,H-E.png,S-E.png,hH,sS,mask-3.png,mask-4.png,h,1,0.5525451999856159,h,0,0.45338160000392236,0.04854210000485182,0.04864900000393391,0.10055189998820424,0.10065800001029857,0.30019899999024346
RSVPLG03,cs,20251023-142323,1.0.1,20251020-085245,715,Experiment,Both,1,Automatic,main,82,20251023-142952,global,local,300,S,H,E,A,S-E.png,A-H.png,sS,hH,mask-4.png,mask-1.png,s,1,0.30262679999577813,h,1,0.02162970000063069,0.04774670000188053,0.04718349999166094,0.0990874000126496,0.09935459998087026,0.2998778000182938
RSVPLG03,cs,20251023-142323,1.0.1,20251020-085245,715,Experiment,Both,1,Automatic,main,83,20251023-142956,local,local,750,H,S,E,A,E-H.png,A-S.png,hH,sS,mask-3.png,mask-3.png,h,1,0.38766790000954643,s,1,0.07427170002483763,0.04847389998030849,0.047158600005786866,0.10048659998574294,0.10089450000668876,0.7494019999867305
RSVPLG03,cs,20251023-142323,1.0.1,20251020-085245,715,Experiment,Both,1,Automatic,main,84,20251023-143001,local,local,300,H,H,A,E,A-H.png,E-H.png,hH,hH,mask-2.png,mask-1.png,h,1,1.290994300012244,h,1,0.05550290000974201,0.047512899996945634,0.04658300001756288,0.10056179997627623,0.09861730001284741,0.3006907999806572
RSVPLG03,cs,20251023-142323,1.0.1,20251020-085245,715,Experiment,Both,1,Automatic,main,85,20251023-143006,global,local,750,S,S,A,E,S-A.png,E-S.png,sS,sS,mask-3.png,mask-4.png,s,1,0.2522350999934133,s,1,0.055471799976658076,0.048512999986996874,0.04760869999881834,0.09992740000598133,0.10047999999369495,0.7497862000018358
RSVPLG03,cs,20251023-142323,1.0.1,20251020-085245,715,Experiment,Both,1,Automatic,main,86,20251023-143010,global,global,750,S,H,A,A,S-A.png,H-A.png,sS,hH,mask-3.png,mask-4.png,s,1,0.23842430001241155,h,1,0.06946860000607558,0.04930879999301396,0.04658649998600595,0.10034179998910986,0.10061560000758618,0.750921600003494
RSVPLG03,cs,20251023-142323,1.0.1,20251020-085245,715,Experiment,Both,1,Automatic,main,87,20251023-143015,global,global,750,S,H,A,A,S-A.png,H-A.png,sS,hH,mask-1.png,mask-1.png,s,1,0.21870379999745637,h,1,0.021728099993197247,0.048025399999460205,0.04770349999307655,0.09987000000546686,0.1010715999873355,0.7503841000143439
RSVPLG03,cs,20251023-142323,1.0.1,20251020-085245,715,Experiment,Both,1,Automatic,main,88,20251023-143019,global,local,300,S,S,E,E,S-E.png,E-S.png,sS,sS,mask-3.png,mask-4.png,s,1,0.5153900000150315,s,1,0.057802800001809373,0.04867970000486821,0.04726469999877736,0.10086609999416396,0.09847590001299977,0.3015243999834638
RSVPLG03,cs,20251023-142323,1.0.1,20251020-085245,715,Experiment,Both,1,Automatic,main,89,20251023-143023,local,global,750,H,H,E,E,E-H.png,H-E.png,hH,hH,mask-4.png,mask-3.png,h,1,0.32024150001234375,h,1,0.05670970000210218,0.045792799995979294,0.048859800008358434,0.09897609998006374,0.1000738000147976,0.7486718999862205
RSVPLG03,cs,20251023-142323,1.0.1,20251020-085245,715,Experiment,Both,1,Automatic,main,90,20251023-143028,global,global,300,H,S,E,A,H-E.png,S-A.png,hH,sS,mask-2.png,mask-2.png,h,1,0.4727425000164658,s,1,0.034569700015708804,0.04768390001845546,0.04871810000622645,0.09985590001451783,0.10083500001928769,0.29950570000801235
RSVPLG03,cs,20251023-142323,1.0.1,20251020-085245,715,Experiment,Both,1,Automatic,main,91,20251023-143032,local,local,750,H,H,A,A,A-H.png,A-H.png,hH,hH,mask-4.png,mask-4.png,h,1,0.2566400000068825,h,1,0.036098600015975535,0.045874300005380064,0.04882759999600239,0.10004130000015721,0.10192400001687929,0.7481737000052817
RSVPLG03,cs,20251023-142323,1.0.1,20251020-085245,715,Experiment,Both,1,Automatic,main,92,20251023-143036,global,local,750,H,H,A,E,H-A.png,E-H.png,hH,hH,mask-1.png,mask-4.png,h,1,0.524065099976724,h,1,0.03926799999317154,0.04725259999395348,0.047552799980621785,0.10032670001965016,0.0989895999955479,0.7514283000200521
RSVPLG03,cs,20251023-142323,1.0.1,20251020-085245,715,Experiment,Both,1,Automatic,main,93,20251023-143041,local,global,300,H,H,A,E,A-H.png,H-E.png,hH,hH,mask-1.png,mask-1.png,h,1,0.54091630000039,h,1,0.06626240001060069,0.04590470000403002,0.04861009999876842,0.09981980000156909,0.10185049998108298,0.298430000024382
RSVPLG03,cs,20251023-142323,1.0.1,20251020-085245,715,Experiment,Both,1,Automatic,main,94,20251023-143045,local,global,750,S,H,A,A,A-S.png,H-A.png,sS,hH,mask-2.png,mask-4.png,s,1,0.3107603999960702,h,1,0.05878719998872839,0.046763199992710724,0.04871549998642877,0.09893790000933222,0.1020643999800086,0.7479411000094842
RSVPLG03,cs,20251023-142323,1.0.1,20251020-085245,715,Experiment,Both,1,Automatic,main,95,20251023-143050,global,local,300,H,S,E,E,H-E.png,E-S.png,hH,sS,mask-3.png,mask-4.png,h,1,0.2127885000081733,s,1,0.033619800000451505,0.046711399976629764,0.04668410000158474,0.09892069999477826,0.09994660000666045,0.29988809998030774
RSVPLG03,cs,20251023-142323,1.0.1,20251020-085245,715,Experiment,Both,1,Automatic,main,96,20251023-143054,local,global,300,H,S,E,A,E-H.png,S-A.png,hH,sS,mask-2.png,mask-3.png,h,1,0.4582892000034917,s,1,0.044534999993629754,0.04835349999484606,0.047385199985001236,0.10124099999666214,0.09919660000014119,0.3017332000017632
RSVPLG03,cs,20251023-142323,1.0.1,20251020-085245,715,Experiment,Both,1,Automatic,main,97,20251023-143058,global,local,750,S,H,A,A,S-A.png,A-H.png,sS,hH,mask-4.png,mask-3.png,s,1,0.1223974000022281,h,1,0.002464799996232614,0.04744689998915419,0.04750069999136031,0.09940429998096079,0.10051889999886043,0.7501532000023872
RSVPLG03,cs,20251023-142323,1.0.1,20251020-085245,715,Experiment,Both,1,Automatic,main,98,20251023-143102,local,global,750,S,S,E,E,E-S.png,S-E.png,sS,sS,mask-3.png,mask-3.png,s,1,0.856832299992675,s,1,0.05932229998870753,0.04778059999807738,0.04774770000949502,0.09899589998531155,0.10180840000975877,0.7487567999924067
RSVPLG03,cs,20251023-142323,1.0.1,20251020-085245,715,Experiment,Both,1,Automatic,main,99,20251023-143107,local,local,300,S,H,A,A,A-S.png,A-H.png,sS,hH,mask-2.png,mask-2.png,s,1,0.6718425000144634,s,0,0.06116539999493398,0.04866770000080578,0.048718000005465,0.1008432999951765,0.0997448000125587,0.3002738999784924
RSVPLG03,cs,20251023-142323,1.0.1,20251020-085245,715,Experiment,Both,1,Automatic,main,100,20251023-143111,global,global,750,H,S,A,A,H-A.png,S-A.png,hH,sS,mask-1.png,mask-1.png,h,1,0.48338680001324974,s,1,0.5167526000004727,0.04744390002451837,0.04863259999547154,0.10056980000808835,0.10094020000542514,0.7497880000155419
RSVPLG03,cs,20251023-142323,1.0.1,20251020-085245,715,Experiment,Both,1,Automatic,main,101,20251023-143117,local,global,750,H,H,E,E,E-H.png,H-E.png,hH,hH,mask-3.png,mask-1.png,h,1,0.33566710000741296,h,1,0.05941950000124052,0.04622409999137744,0.04558309999993071,0.09919969999464229,0.09866290001082234,0.7510075999889523
RSVPLG03,cs,20251023-142323,1.0.1,20251020-085245,715,Experiment,Both,1,Automatic,main,102,20251023-143121,global,global,750,H,H,E,E,H-E.png,H-E.png,hH,hH,mask-2.png,mask-3.png,h,1,0.2538724000041839,h,1,0.05785509999259375,0.046521399985067546,0.046965899993665516,0.09967879997566342,0.10019819997251034,0.7497135000012349
RSVPLG03,cs,20251023-142323,1.0.1,20251020-085245,715,Experiment,Both,1,Automatic,main,103,20251023-143126,global,global,300,S,S,E,A,S-E.png,S-A.png,sS,sS,mask-1.png,mask-3.png,s,1,0.5863406000135001,h,0,0.012288499972783029,0.046508500003255904,0.046692200005054474,0.09851390001131222,0.10153859999263659,0.298642200010363
RSVPLG03,cs,20251023-142323,1.0.1,20251020-085245,715,Experiment,Both,1,Automatic,main,104,20251023-143130,local,local,750,S,S,E,A,E-S.png,A-S.png,sS,sS,mask-4.png,mask-2.png,s,1,0.32467559998622164,s,1,0.07712129998253658,0.04660500001045875,0.04557529999874532,0.10082530000363477,0.0996253999765031,0.7509169000259135
RSVPLG03,cs,20251023-142323,1.0.1,20251020-085245,715,Experiment,Both,1,Automatic,main,105,20251023-143135,local,local,300,H,H,E,E,E-H.png,E-H.png,hH,hH,mask-3.png,mask-2.png,h,1,0.5710065999883227,h,1,0.08239959998172708,0.04849269997794181,0.047551299998303875,0.09949849999975413,0.10156790001201443,0.29944229999091476
