exp,exp_initials,runtime,ver,modtime,sub,blocktype,targets,cuetype,mode,trialtype,trial,trialtime,t1_level,t2_level,t2_lag,t1,t2,distractor1,distractor2,stimfile1,stimfile2,t1_corr,t2_corr,maskfile1,maskfile2,t1_resp,t1_acc,t1_rt,t2_resp,t2_acc,t2_rt,t1_dur,t2_dur,t1mask_soa,t2mask_soa,t1t2_soa
RSVPLG03,JM,20260326-103131,1.0.2,20251105-084826,812,Introduction,T1,1,Automatic,main,1,20260326-103156,local,global,750,H,H,E,A,E-H.png,H-A.png,hH,hH,mask-2.png,mask-1.png,h,1,1.8176581000443548,none,-5,0,0.0891952000092715,0.0964665999636054,0.1930343999993056,0.20040460000745952,0.7420496998820454
RSVPLG03,JM,20260326-103131,1.0.2,20251105-084826,812,Introduction,T1,1,Automatic,main,2,20260326-103202,local,local,750,H,H,E,A,E-H.png,A-H.png,hH,hH,mask-2.png,mask-3.png,h,1,1.717943900031969,none,-5,0,0.09710659994743764,0.09724030015058815,0.20017289998941123,0.19939299998804927,0.7499745998065919
RSVPLG03,JM,20260326-103131,1.0.2,20251105-084826,812,Introduction,T1,1,Automatic,main,3,20260326-103208,local,global,750,H,H,A,A,A-H.png,H-A.png,hH,hH,mask-2.png,mask-4.png,h,1,1.0597251001745462,none,-5,0,0.09735539997927845,0.09776280005462468,0.19994150009006262,0.19999420014210045,0.7501143999397755
RSVPLG03,JM,20260326-103131,1.0.2,20251105-084826,812,Introduction,T1,1,Automatic,main,4,20260326-103213,global,global,750,S,S,E,A,S-E.png,S-A.png,sS,sS,mask-2.png,mask-3.png,s,1,0.9630213999189436,none,-5,0,0.09855080000124872,0.09815980005078018,0.2017838000319898,0.2007456999272108,0.7508819999638945
RSVPLG03,JM,20260326-103131,1.0.2,20251105-084826,812,Introduction,T1,1,Automatic,main,5,20260326-103218,global,local,750,H,S,A,A,H-A.png,A-S.png,hH,sS,mask-4.png,mask-3.png,h,1,1.2358731999993324,none,-5,0,0.09712329995818436,0.09848689986392856,0.19832730013877153,0.20159409986808896,0.7476968001574278
RSVPLG03,JM,20260326-103131,1.0.2,20251105-084826,812,Introduction,T1,1,Automatic,main,6,20260326-103224,local,global,750,S,S,E,E,E-S.png,S-E.png,sS,sS,mask-3.png,mask-2.png,s,1,0.7724837998393923,none,-5,0,0.0977972000837326,0.0978457999881357,0.19923779997043312,0.20017719990573823,0.7490527001209557
RSVPLG03,JM,20260326-103131,1.0.2,20251105-084826,812,Introduction,T1,1,Automatic,main,7,20260326-103228,global,global,750,S,S,A,A,S-A.png,S-A.png,sS,sS,mask-3.png,mask-3.png,s,1,0.6287376000545919,none,-5,0,0.09780049999244511,0.0982232999522239,0.19921039999462664,0.199153000023216,0.7486602999269962
RSVPLG03,JM,20260326-103131,1.0.2,20251105-084826,812,Introduction,T1,1,Automatic,main,8,20260326-103233,global,global,750,S,S,E,A,S-E.png,S-A.png,sS,sS,mask-2.png,mask-1.png,s,1,0.5297826000023633,none,-5,0,0.09877069992944598,0.09634170006029308,0.20031380001455545,0.2007375000976026,0.7507829999085516
RSVPLG03,JM,20260326-103131,1.0.2,20251105-084826,812,Introduction,T1,1,Automatic,main,9,20260326-103238,local,global,750,S,S,E,A,E-S.png,S-A.png,sS,sS,mask-2.png,mask-3.png,s,1,0.3552973000332713,none,-5,0,0.09895510016940534,0.09827199997380376,0.20107950014062226,0.2003015000373125,0.7500553000718355
RSVPLG03,JM,20260326-103131,1.0.2,20251105-084826,812,Introduction,T1,1,Automatic,main,10,20260326-103242,local,local,750,H,H,E,E,E-H.png,E-H.png,hH,hH,mask-3.png,mask-3.png,s,0,0.384206400020048,none,-5,0,0.09592579980380833,0.09698210004717112,0.19816669984720647,0.20041640009731054,0.7489689998328686
RSVPLG03,JM,20260326-103131,1.0.2,20251105-084826,812,Introduction,T1,1,Automatic,main,11,20260326-103247,global,local,750,H,S,A,A,H-A.png,A-S.png,hH,sS,mask-1.png,mask-3.png,h,1,1.0085128000937402,none,-5,0,0.09605309995822608,0.09736690018326044,0.19851740007288754,0.2008245000615716,0.7479163999669254
RSVPLG03,JM,20260326-103131,1.0.2,20251105-084826,812,Introduction,T1,1,Automatic,main,12,20260326-103252,global,global,750,H,S,A,A,H-A.png,S-A.png,hH,sS,mask-4.png,mask-4.png,s,0,2.7431671998929232,none,-5,0,0.09707899997010827,0.09685390000231564,0.20034850016236305,0.1992593000177294,0.7499001000542194
RSVPLG03,JM,20260326-103131,1.0.2,20251105-084826,812,Introduction,T1,1,Automatic,main,13,20260326-103259,global,local,750,H,S,E,A,H-E.png,A-S.png,hH,sS,mask-3.png,mask-1.png,h,1,1.1692091999575496,none,-5,0,0.09698249981738627,0.09688900015316904,0.19911409984342754,0.19934789999388158,0.7495024998206645
RSVPLG03,JM,20260326-103131,1.0.2,20251105-084826,812,Introduction,T1,1,Automatic,main,14,20260326-103304,global,local,750,S,H,A,A,S-A.png,A-H.png,sS,hH,mask-1.png,mask-1.png,s,1,0.7419557999819517,none,-5,0,0.09790599998086691,0.09844950004480779,0.19958220003172755,0.200385200092569,0.7489418999757618
RSVPLG03,JM,20260326-103131,1.0.2,20251105-084826,812,Introduction,T1,1,Automatic,main,15,20260326-103309,local,local,750,S,S,A,A,A-S.png,A-S.png,sS,sS,mask-3.png,mask-2.png,h,0,1.1761346000712365,none,-5,0,0.0973193000536412,0.09691630001179874,0.19966379995457828,0.20009870012290776,0.7495283999014646
RSVPLG03,JM,20260326-103131,1.0.2,20251105-084826,812,Introduction,T1,1,Automatic,main,16,20260326-103314,local,local,750,S,H,A,E,A-S.png,E-H.png,sS,hH,mask-2.png,mask-1.png,h,0,1.3772881999611855,none,-5,0,0.09718100004829466,0.09640409983694553,0.20013750018551946,0.1983223999850452,0.7506360001862049
RSVPLG03,JM,20260326-103342,1.0.2,20251105-084826,812,Introduction,Both,1,Automatic,main,1,20260326-103425,global,local,750,H,H,E,A,H-E.png,A-H.png,hH,hH,mask-1.png,mask-1.png,h,1,1.0273903999477625,h,1,2.294737600022927,0.09291539993137121,0.09668669989332557,0.19457089994102716,0.19944479991681874,0.7439234000630677
RSVPLG03,JM,20260326-103342,1.0.2,20251105-084826,812,Introduction,Both,1,Automatic,main,2,20260326-103432,global,global,750,S,S,E,A,S-E.png,S-A.png,sS,sS,mask-4.png,mask-4.png,s,1,1.1940377000719309,s,1,1.0050376001745462,0.09836039994843304,0.09716650005429983,0.19972170004621148,0.19968329998664558,0.7481134999543428
RSVPLG03,JM,20260326-103342,1.0.2,20251105-084826,812,Introduction,Both,1,Automatic,main,3,20260326-103439,global,local,750,S,H,A,A,S-A.png,A-H.png,sS,hH,mask-2.png,mask-2.png,s,1,1.897926300065592,h,1,0.8307344999630004,0.09749199985526502,0.09907360002398491,0.19875489990226924,0.2011369001120329,0.7471945998258889
RSVPLG03,JM,20260326-103342,1.0.2,20251105-084826,812,Introduction,Both,1,Automatic,main,4,20260326-103446,global,local,750,H,H,A,A,H-A.png,A-H.png,hH,hH,mask-2.png,mask-2.png,h,1,1.0089920000173151,h,1,0.28859829995781183,0.09777799993753433,0.0986204999499023,0.20056440006010234,0.2000419998075813,0.7485732000786811
RSVPLG03,JM,20260326-103342,1.0.2,20251105-084826,812,Introduction,Both,1,Automatic,main,5,20260326-103451,local,local,750,H,S,A,E,A-H.png,E-S.png,hH,sS,mask-2.png,mask-2.png,h,1,1.2028310000896454,s,1,0.6342948998790234,0.09720199997536838,0.09745819983072579,0.1993215000256896,0.1998219999950379,0.7475273001473397
RSVPLG03,JM,20260326-103342,1.0.2,20251105-084826,812,Introduction,Both,1,Automatic,main,6,20260326-103457,global,global,750,H,H,A,E,H-A.png,H-E.png,hH,hH,mask-2.png,mask-2.png,h,1,0.6983622999396175,h,1,0.31619349983520806,0.09737229999154806,0.09640159993432462,0.19936410011723638,0.19998289993964136,0.7472290000878274
RSVPLG03,JM,20260326-103342,1.0.2,20251105-084826,812,Introduction,Both,1,Automatic,main,7,20260326-103503,local,global,750,H,H,E,E,E-H.png,H-E.png,hH,hH,mask-1.png,mask-4.png,h,1,0.6519820999819785,h,1,0.3029287999961525,0.09651529998518527,0.09915969986468554,0.2003200000617653,0.20117519982159138,0.747316500172019
RSVPLG03,JM,20260326-103342,1.0.2,20251105-084826,812,Introduction,Both,1,Automatic,main,8,20260326-103508,local,local,750,S,H,A,E,A-S.png,E-H.png,sS,hH,mask-3.png,mask-2.png,h,0,0.6683091998565942,h,1,0.2525630001910031,0.09714849991723895,0.09710790007375181,0.20029429998248816,0.200035999994725,0.7476206999272108
RSVPLG03,JM,20260326-103342,1.0.2,20251105-084826,812,Introduction,Both,1,Automatic,main,9,20260326-103513,local,global,750,H,H,E,A,E-H.png,H-A.png,hH,hH,mask-2.png,mask-4.png,h,1,1.315564300166443,h,1,0.2815581001341343,0.09825229994021356,0.09636279987171292,0.2003352998290211,0.1991257998161018,0.7502166000194848
RSVPLG03,JM,20260326-103342,1.0.2,20251105-084826,812,Introduction,Both,1,Automatic,main,10,20260326-103519,global,global,750,H,H,E,A,H-E.png,H-A.png,hH,hH,mask-4.png,mask-4.png,h,1,0.6098203998990357,h,1,0.18777740001678467,0.09755260008387268,0.09740650001913309,0.20137059991247952,0.199698599986732,0.748632499948144
RSVPLG03,JM,20260326-103342,1.0.2,20251105-084826,812,Introduction,Both,1,Automatic,main,11,20260326-103524,local,global,750,S,S,E,E,E-S.png,S-E.png,sS,sS,mask-1.png,mask-4.png,h,0,1.63391809980385,s,1,1.0170322000049055,0.09705980005674064,0.09948530001565814,0.19983709999360144,0.20046099997125566,0.7480727999936789
RSVPLG03,JM,20260326-103342,1.0.2,20251105-084826,812,Introduction,Both,1,Automatic,main,12,20260326-103531,global,global,750,S,H,A,E,S-A.png,H-E.png,sS,hH,mask-1.png,mask-3.png,s,1,0.8283408998977393,h,1,0.616811600048095,0.09765099990181625,0.09566370001994073,0.20078319986350834,0.19816350005567074,0.7497804998420179
RSVPLG03,JM,20260326-103342,1.0.2,20251105-084826,812,Introduction,Both,1,Automatic,main,13,20260326-103536,local,global,750,S,H,E,E,E-S.png,H-E.png,sS,hH,mask-3.png,mask-4.png,s,1,0.8704609000124037,h,1,0.32576890010386705,0.0976549000479281,0.0980846001766622,0.19982509990222752,0.20010450016707182,0.7482232998590916
RSVPLG03,JM,20260326-103342,1.0.2,20251105-084826,812,Introduction,Both,1,Automatic,main,14,20260326-103542,global,local,750,H,H,E,A,H-E.png,A-H.png,hH,hH,mask-1.png,mask-4.png,h,1,0.6646644999273121,h,1,0.24487469997256994,0.09750839998014271,0.09682870004326105,0.19855100009590387,0.19879049994051456,0.7488269000314176
RSVPLG03,JM,20260326-103342,1.0.2,20251105-084826,812,Introduction,Both,1,Automatic,main,15,20260326-103547,local,local,750,S,S,A,E,A-S.png,E-S.png,sS,sS,mask-1.png,mask-3.png,h,0,1.0701939999125898,s,1,0.2668379999231547,0.09690640005283058,0.09658619994297624,0.20069229998625815,0.1985132999252528,0.7489114000927657
RSVPLG03,JM,20260326-103342,1.0.2,20251105-084826,812,Introduction,Both,1,Automatic,main,16,20260326-103552,local,local,750,H,H,A,E,A-H.png,E-H.png,hH,hH,mask-4.png,mask-4.png,h,1,0.6803768998943269,h,1,0.23469389998354018,0.09676290000788867,0.0984515999443829,0.19981869985349476,0.20067659998312593,0.7481933999806643
RSVPLG03,JM,20260326-103617,1.0.2,20251105-084826,812,Practice,T1,1,Automatic,main,1,20260326-103636,local,global,300,H,H,E,E,E-H.png,H-E.png,hH,hH,mask-4.png,mask-4.png,s,0,1.2328672998119146,none,-5,0,0.04798320005647838,0.04751929990015924,0.10206880001351237,0.09953000000678003,0.3013021999504417
RSVPLG03,JM,20260326-103617,1.0.2,20251105-084826,812,Practice,T1,1,Automatic,main,2,20260326-103640,global,local,750,S,S,E,E,S-E.png,E-S.png,sS,sS,mask-4.png,mask-1.png,s,1,1.077233900083229,none,-5,0,0.047418899834156036,0.04739049985073507,0.09942969982512295,0.10136119998060167,0.7485056000296026
RSVPLG03,JM,20260326-103617,1.0.2,20251105-084826,812,Practice,T1,1,Automatic,main,3,20260326-103645,global,global,300,S,H,A,A,S-A.png,H-A.png,sS,hH,mask-3.png,mask-1.png,s,1,0.5034018999431282,none,-5,0,0.04748419998213649,0.047504100017249584,0.0993675000499934,0.0995494001545012,0.3006557000335306
RSVPLG03,JM,20260326-103617,1.0.2,20251105-084826,812,Practice,T1,1,Automatic,main,4,20260326-103650,local,global,750,H,H,A,E,A-H.png,H-E.png,hH,hH,mask-2.png,mask-4.png,h,1,0.8933612001128495,none,-5,0,0.047676000045612454,0.04738950007595122,0.10185370012186468,0.09957600012421608,0.7505111000500619
RSVPLG03,JM,20260326-103617,1.0.2,20251105-084826,812,Practice,T1,1,Automatic,main,5,20260326-103654,global,global,750,H,S,A,A,H-A.png,S-A.png,hH,sS,mask-1.png,mask-2.png,h,1,0.9257008000276983,none,-5,0,0.04735379992052913,0.04737309995107353,0.09923429996706545,0.10019819997251034,0.7496388000436127
RSVPLG03,JM,20260326-103617,1.0.2,20251105-084826,812,Practice,T1,1,Automatic,main,6,20260326-103659,local,global,750,H,S,E,E,E-H.png,S-E.png,hH,sS,mask-4.png,mask-2.png,s,0,0.7033329999540001,none,-5,0,0.0467703000176698,0.047747999895364046,0.0998740999493748,0.09933870006352663,0.7502152000088245
RSVPLG03,JM,20260326-103617,1.0.2,20251105-084826,812,Practice,T1,1,Automatic,main,7,20260326-103704,global,local,750,S,S,A,A,S-A.png,A-S.png,sS,sS,mask-2.png,mask-4.png,s,1,0.6064583999104798,none,-5,0,0.047715900000184774,0.048812700202688575,0.10168419987894595,0.10186010017059743,0.7498859998304397
RSVPLG03,JM,20260326-103617,1.0.2,20251105-084826,812,Practice,T1,1,Automatic,main,8,20260326-103709,local,global,300,S,H,E,A,E-S.png,H-A.png,sS,hH,mask-1.png,mask-3.png,s,1,0.6239121002145112,none,-5,0,0.04676049994304776,0.047529200091958046,0.09965019999071956,0.09896390000358224,0.30096299992874265
RSVPLG03,JM,20260326-103617,1.0.2,20251105-084826,812,Practice,T1,1,Automatic,main,9,20260326-103713,local,local,300,H,S,A,E,A-H.png,E-S.png,hH,sS,mask-1.png,mask-2.png,h,1,0.9112571999430656,none,-5,0,0.047063899924978614,0.04666810017079115,0.09971989993937314,0.09922490012831986,0.30037999991327524
RSVPLG03,JM,20260326-103617,1.0.2,20251105-084826,812,Practice,T1,1,Automatic,main,10,20260326-103717,local,local,300,H,H,E,A,E-H.png,A-H.png,hH,hH,mask-1.png,mask-2.png,h,1,0.706496600061655,none,-5,0,0.047526400070637465,0.04667179984971881,0.09952700021676719,0.09949419996701181,0.2998775001615286
RSVPLG03,JM,20260326-103617,1.0.2,20251105-084826,812,Practice,T1,1,Automatic,main,11,20260326-103721,local,local,750,S,S,E,E,E-S.png,E-S.png,sS,sS,mask-2.png,mask-4.png,s,1,0.6893743998371065,none,-5,0,0.045743499882519245,0.047657900024205446,0.09981269994750619,0.10009839991107583,0.7489559999667108
RSVPLG03,JM,20260326-103617,1.0.2,20251105-084826,812,Practice,T1,1,Automatic,main,12,20260326-103726,global,global,300,S,S,A,E,S-A.png,S-E.png,sS,sS,mask-4.png,mask-3.png,s,1,0.7081859998870641,none,-5,0,0.04652870004065335,0.04726210003718734,0.10067109996452928,0.09963679988868535,0.30045720003545284
RSVPLG03,JM,20260326-103617,1.0.2,20251105-084826,812,Practice,T1,1,Automatic,main,13,20260326-103730,global,local,300,H,S,E,E,H-E.png,E-S.png,hH,sS,mask-3.png,mask-2.png,h,1,0.5837771999649704,none,-5,0,0.04576990008354187,0.0475399000570178,0.09840310015715659,0.09955200017429888,0.29979329998604953
RSVPLG03,JM,20260326-103617,1.0.2,20251105-084826,812,Practice,T1,1,Automatic,main,14,20260326-103734,local,local,750,H,H,A,E,A-H.png,E-H.png,hH,hH,mask-3.png,mask-3.png,h,1,0.44143959996290505,none,-5,0,0.04722209996543825,0.047075900016352534,0.09860590007156134,0.0995417998638004,0.7501521001104265
RSVPLG03,JM,20260326-103617,1.0.2,20251105-084826,812,Practice,T1,1,Automatic,main,15,20260326-103739,global,local,300,H,H,A,A,H-A.png,A-H.png,hH,hH,mask-1.png,mask-4.png,h,1,0.6347326000686735,none,-5,0,0.04501069989055395,0.04646739992313087,0.09850240009836853,0.09982429980300367,0.2995019000954926
RSVPLG03,JM,20260326-103617,1.0.2,20251105-084826,812,Practice,T1,1,Automatic,main,16,20260326-103743,global,global,750,H,H,E,E,H-E.png,H-E.png,hH,hH,mask-3.png,mask-1.png,h,1,0.5025606001727283,none,-5,0,0.04748399998061359,0.04663060000166297,0.09936619992367923,0.1004576999694109,0.7491931000258774
RSVPLG03,JM,20260326-103821,1.0.2,20251105-084826,812,Practice,Both,1,Automatic,main,1,20260326-103914,local,local,750,S,S,A,A,A-S.png,A-S.png,sS,sS,mask-3.png,mask-1.png,h,0,0.9631845999974757,s,1,0.9338545000646263,0.04286490008234978,0.04770320001989603,0.09574030013754964,0.1000214999075979,0.7446906000841409
RSVPLG03,JM,20260326-103821,1.0.2,20251105-084826,812,Practice,Both,1,Automatic,main,2,20260326-103920,global,local,750,H,S,A,A,H-A.png,A-S.png,hH,sS,mask-3.png,mask-1.png,h,1,0.8731508001219481,h,0,0.6181449999567121,0.047673299908638,0.04608069988898933,0.09993619984015822,0.09914099983870983,0.7477565000299364
RSVPLG03,JM,20260326-103821,1.0.2,20251105-084826,812,Practice,Both,1,Automatic,main,3,20260326-103926,global,local,750,S,S,E,E,S-E.png,E-S.png,sS,sS,mask-3.png,mask-3.png,s,1,0.7908924999646842,s,1,0.6540858999360353,0.04743879986926913,0.04753129999153316,0.09902839991264045,0.10070660011842847,0.7474773998837918
RSVPLG03,JM,20260326-103821,1.0.2,20251105-084826,812,Practice,Both,1,Automatic,main,4,20260326-103931,local,global,300,S,S,E,A,E-S.png,S-A.png,sS,sS,mask-4.png,mask-2.png,h,0,2.161722700111568,h,0,0.4919737000018358,0.04625160014256835,0.04696670011617243,0.09864610014483333,0.10059930011630058,0.2987748000305146
RSVPLG03,JM,20260326-103821,1.0.2,20251105-084826,812,Practice,Both,1,Automatic,main,5,20260326-103938,local,global,750,S,H,E,E,E-S.png,H-E.png,sS,hH,mask-2.png,mask-4.png,s,1,0.6991383000276983,h,1,0.35965300002135336,0.04783090017735958,0.047576700104400516,0.0996393000241369,0.09981240006163716,0.7477923000697047
RSVPLG03,JM,20260326-103821,1.0.2,20251105-084826,812,Practice,Both,1,Automatic,main,6,20260326-103943,global,local,300,H,H,E,A,H-E.png,A-H.png,hH,hH,mask-3.png,mask-4.png,h,1,0.7838693000376225,s,0,0.7477589000482112,0.046838599955663085,0.04785319999791682,0.09924339991994202,0.09966060006991029,0.2985302999150008
RSVPLG03,JM,20260326-103821,1.0.2,20251105-084826,812,Practice,Both,1,Automatic,main,7,20260326-103948,global,global,750,S,S,E,A,S-E.png,S-A.png,sS,sS,mask-2.png,mask-2.png,s,1,1.0644119000062346,s,1,0.33287869999185205,0.04819570016115904,0.04707970004528761,0.10084990016184747,0.09967099991627038,0.7488033000845462
RSVPLG03,JM,20260326-103821,1.0.2,20251105-084826,812,Practice,Both,1,Automatic,main,8,20260326-103953,global,global,300,S,S,A,E,S-A.png,S-E.png,sS,sS,mask-3.png,mask-1.png,s,1,0.9722114999312907,s,1,0.6990833999589086,0.04750279989093542,0.047883300110697746,0.10152380005456507,0.09951049997471273,0.2999668999109417
RSVPLG03,JM,20260326-103821,1.0.2,20251105-084826,812,Practice,Both,1,Automatic,main,9,20260326-103959,global,local,300,S,H,E,A,S-E.png,A-H.png,sS,hH,mask-4.png,mask-2.png,s,1,1.2063607000745833,h,1,0.6989424999337643,0.04814019985496998,0.04686480015516281,0.09889089991338551,0.09960040007717907,0.2990388998296112
RSVPLG03,JM,20260326-103821,1.0.2,20251105-084826,812,Practice,Both,1,Automatic,main,10,20260326-104004,local,global,300,S,H,E,E,E-S.png,H-E.png,sS,hH,mask-2.png,mask-1.png,s,1,0.8058680000249296,h,1,0.6365791999269277,0.048482699785381556,0.04717419994994998,0.09949229983612895,0.09921459993347526,0.2996433998923749
RSVPLG03,JM,20260326-103821,1.0.2,20251105-084826,812,Practice,Both,1,Automatic,main,11,20260326-104009,local,local,300,S,S,E,E,E-S.png,E-S.png,sS,sS,mask-4.png,mask-2.png,s,1,0.8380422000773251,s,1,0.20607850002124906,0.045432399958372116,0.04618480009958148,0.09788340004161,0.09825560008175671,0.2992232998367399
RSVPLG03,JM,20260326-103821,1.0.2,20251105-084826,812,Practice,Both,1,Automatic,main,12,20260326-104014,local,local,750,S,S,E,A,E-S.png,A-S.png,sS,sS,mask-2.png,mask-2.png,s,1,0.758531800005585,h,0,0.2997671999037266,0.04779660003259778,0.046447400003671646,0.09967459994368255,0.0992280999198556,0.7491302001290023
RSVPLG03,JM,20260326-103821,1.0.2,20251105-084826,812,Practice,Both,1,Automatic,main,13,20260326-104019,local,local,300,S,S,E,E,E-S.png,E-S.png,sS,sS,mask-4.png,mask-1.png,s,1,0.9742578000295907,h,0,0.34515170007944107,0.04822729993611574,0.04710459988564253,0.10053559998050332,0.10011529992334545,0.30011940002441406
RSVPLG03,JM,20260326-103821,1.0.2,20251105-084826,812,Practice,Both,1,Automatic,main,14,20260326-104024,global,global,300,S,H,A,A,S-A.png,H-A.png,sS,hH,mask-2.png,mask-4.png,s,1,1.562551099807024,h,1,0.31549390009604394,0.04653679998591542,0.04744280013255775,0.1003674000967294,0.09967010002583265,0.29791339999064803
RSVPLG03,JM,20260326-103821,1.0.2,20251105-084826,812,Practice,Both,1,Automatic,main,15,20260326-104029,local,global,750,S,S,E,E,E-S.png,S-E.png,sS,sS,mask-3.png,mask-4.png,s,1,0.9664168001618236,h,0,0.6638770999852568,0.048025500029325485,0.04670129995793104,0.09950849995948374,0.09865599987097085,0.7485184001270682
RSVPLG03,JM,20260326-103821,1.0.2,20251105-084826,812,Practice,Both,1,Automatic,main,16,20260326-104035,global,global,750,H,S,E,E,H-E.png,S-E.png,hH,sS,mask-1.png,mask-2.png,h,1,0.9326779001858085,s,1,0.246331499889493,0.047207599971443415,0.04755619983188808,0.09992179996334016,0.0995390999596566,0.7476814000401646
RSVPLG03,JM,20260326-104110,1.0.2,20251105-084826,812,Practice,Both,1,Automatic,main,1,20260326-104157,local,global,300,S,S,E,E,E-S.png,S-E.png,sS,sS,mask-3.png,mask-4.png,s,1,0.8180489998776466,h,0,0.5230016999412328,0.046028299955651164,0.04883809993043542,0.09949399996548891,0.1003434001468122,0.29810799984261394
RSVPLG03,JM,20260326-104110,1.0.2,20251105-084826,812,Practice,Both,1,Automatic,main,2,20260326-104202,local,local,750,H,S,A,A,A-H.png,A-S.png,hH,sS,mask-1.png,mask-1.png,h,1,0.9400833998806775,s,1,0.6202609001193196,0.04630289995111525,0.04570279992185533,0.09877149993553758,0.0983084999024868,0.7515096000861377
RSVPLG03,JM,20260326-104110,1.0.2,20251105-084826,812,Practice,Both,1,Automatic,main,3,20260326-104207,global,local,300,S,S,E,E,S-E.png,E-S.png,sS,sS,mask-3.png,mask-4.png,s,1,0.9103351000230759,h,0,0.2540496999863535,0.047134000109508634,0.047392999986186624,0.09942260012030602,0.09944699984043837,0.3005197001621127
RSVPLG03,JM,20260326-104110,1.0.2,20251105-084826,812,Practice,Both,1,Automatic,main,4,20260326-104212,local,local,300,S,H,E,A,E-S.png,A-H.png,sS,hH,mask-4.png,mask-1.png,s,1,0.6028163998853415,h,1,0.22011910006403923,0.04717410006560385,0.047179599991068244,0.10076160007156432,0.10078729991801083,0.30024050013162196
RSVPLG03,JM,20260326-104110,1.0.2,20251105-084826,812,Practice,Both,1,Automatic,main,5,20260326-104216,global,global,750,H,S,E,E,H-E.png,S-E.png,hH,sS,mask-2.png,mask-4.png,h,1,0.5602008998394012,s,1,0.18900540005415678,0.04737679986283183,0.04586399998515844,0.09944069990888238,0.09897619998082519,0.7514501998666674
RSVPLG03,JM,20260326-104110,1.0.2,20251105-084826,812,Practice,Both,1,Automatic,main,6,20260326-104221,local,global,750,S,H,A,A,A-S.png,H-A.png,sS,hH,mask-2.png,mask-2.png,h,0,0.8362267999909818,s,0,0.18778300005942583,0.04668230004608631,0.048680500127375126,0.09905639989301562,0.10091360006481409,0.750357799930498
RSVPLG03,JM,20260326-104110,1.0.2,20251105-084826,812,Practice,Both,1,Automatic,main,7,20260326-104226,local,global,750,S,H,A,A,A-S.png,H-A.png,sS,hH,mask-2.png,mask-1.png,s,1,0.9737761002033949,h,1,0.2206695000641048,0.047554700169712305,0.04752300004474819,0.09962920006364584,0.10061760013923049,0.7508968999609351
RSVPLG03,JM,20260326-104110,1.0.2,20251105-084826,812,Practice,Both,1,Automatic,main,8,20260326-104232,global,local,750,H,S,E,E,H-E.png,E-S.png,hH,sS,mask-1.png,mask-1.png,h,1,0.5717832001391798,s,1,0.2034424999728799,0.049067100044339895,0.04811490001156926,0.10149820009246469,0.10170060000382364,0.7512144001666456
RSVPLG03,JM,20260326-104110,1.0.2,20251105-084826,812,Practice,Both,1,Automatic,main,9,20260326-104236,global,global,300,H,H,A,E,H-A.png,H-E.png,hH,hH,mask-3.png,mask-1.png,h,1,0.8454828001558781,h,1,0.11009359988383949,0.0479802000336349,0.04733129986561835,0.1016673999838531,0.09958579996600747,0.30245480011217296
RSVPLG03,JM,20260326-104110,1.0.2,20251105-084826,812,Practice,Both,1,Automatic,main,10,20260326-104241,global,global,750,H,H,A,E,H-A.png,H-E.png,hH,hH,mask-2.png,mask-2.png,h,1,0.6693256997969002,h,1,0.09134960011579096,0.04652810003608465,0.047147100092843175,0.09897590009495616,0.10178390005603433,0.7499945999588817
RSVPLG03,JM,20260326-104110,1.0.2,20251105-084826,812,Practice,Both,1,Automatic,main,11,20260326-104246,local,local,750,H,H,A,E,A-H.png,E-H.png,hH,hH,mask-2.png,mask-4.png,h,1,0.7109320999588817,s,0,0.20429870020598173,0.048492199974134564,0.04764840006828308,0.10082629998214543,0.10115360002964735,0.7519415998831391
RSVPLG03,JM,20260326-104110,1.0.2,20251105-084826,812,Practice,Both,1,Automatic,main,12,20260326-104251,global,local,750,H,H,E,E,H-E.png,E-H.png,hH,hH,mask-1.png,mask-2.png,h,1,0.5425754999741912,h,1,0.12498570000752807,0.04847360006533563,0.047339600045233965,0.09962410014122725,0.09963940014131367,0.7529591999482363
RSVPLG03,JM,20260326-104110,1.0.2,20251105-084826,812,Practice,Both,1,Automatic,main,13,20260326-104256,local,local,300,H,S,E,A,E-H.png,A-S.png,hH,sS,mask-4.png,mask-4.png,h,1,0.5518644000403583,h,0,0.0928505000192672,0.04805829981341958,0.0479141001123935,0.09926809999160469,0.10028539993800223,0.3009990998543799
RSVPLG03,JM,20260326-104110,1.0.2,20251105-084826,812,Practice,Both,1,Automatic,main,14,20260326-104300,global,global,300,S,S,A,A,S-A.png,S-A.png,sS,sS,mask-3.png,mask-1.png,s,1,1.8426526000257581,h,0,0.4137091999873519,0.04719180008396506,0.04702750011347234,0.0999891001265496,0.09975020005367696,0.3015133000444621
RSVPLG03,JM,20260326-104110,1.0.2,20251105-084826,812,Practice,Both,1,Automatic,main,15,20260326-104306,global,local,300,H,S,E,E,H-E.png,E-S.png,hH,sS,mask-4.png,mask-4.png,h,1,0.6914804000407457,s,1,0.16685599996708333,0.047014799900352955,0.048379800049588084,0.1005473998375237,0.10081730014644563,0.3006034998688847
RSVPLG03,JM,20260326-104110,1.0.2,20251105-084826,812,Practice,Both,1,Automatic,main,16,20260326-104310,local,global,300,S,H,E,A,E-S.png,H-A.png,sS,hH,mask-3.png,mask-3.png,h,0,2.5367964999750257,s,0,0.1527207000181079,0.04744830005802214,0.04823340009897947,0.10129619995132089,0.09984849998727441,0.30069609987549484
RSVPLG03,JM,20260326-104345,1.0.2,20251105-084826,812,Practice,Both,1,Automatic,main,1,20260326-104411,local,global,750,S,H,E,E,E-S.png,H-E.png,sS,hH,mask-3.png,mask-3.png,s,1,0.6161080000456423,h,1,0.21496080001816154,0.0442240999545902,0.049102399963885546,0.09699879982508719,0.09965939982794225,0.7446061000227928
RSVPLG03,JM,20260326-104345,1.0.2,20251105-084826,812,Practice,Both,1,Automatic,main,2,20260326-104415,local,global,750,H,S,A,A,A-H.png,S-A.png,hH,sS,mask-3.png,mask-4.png,h,1,1.444819499971345,s,1,0.6399874000344425,0.048606300028041005,0.04808020009659231,0.09917900012806058,0.09925059997476637,0.7493622000329196
RSVPLG03,JM,20260326-104345,1.0.2,20251105-084826,812,Practice,Both,1,Automatic,main,3,20260326-104422,global,global,750,S,S,A,A,S-A.png,S-A.png,sS,sS,mask-3.png,mask-3.png,s,1,0.6520422999747097,s,1,0.14032309991307557,0.04724740004166961,0.047416500048711896,0.10073689999990165,0.0995106000918895,0.7478451998904347
RSVPLG03,JM,20260326-104345,1.0.2,20251105-084826,812,Practice,Both,1,Automatic,main,4,20260326-104426,local,local,750,S,H,A,A,A-S.png,A-H.png,sS,hH,mask-1.png,mask-2.png,s,1,0.8040425998624414,h,1,0.18400989985093474,0.047546799993142486,0.047067200066521764,0.10120959999039769,0.10058060009032488,0.748521100031212
RSVPLG03,JM,20260326-104345,1.0.2,20251105-084826,812,Practice,Both,1,Automatic,main,5,20260326-104431,global,local,750,S,H,E,E,S-E.png,E-H.png,sS,hH,mask-2.png,mask-2.png,s,1,0.7481442999560386,s,0,0.09681020001880825,0.047139700036495924,0.046065300004556775,0.10060920007526875,0.09959869994781911,0.7499379001092166
RSVPLG03,JM,20260326-104345,1.0.2,20251105-084826,812,Practice,Both,1,Automatic,main,6,20260326-104436,global,local,300,S,H,E,E,S-E.png,E-H.png,sS,hH,mask-3.png,mask-1.png,s,1,1.3698917999863625,s,0,0.0558402999304235,0.04728400008752942,0.04616160015575588,0.0997438000049442,0.0994687001220882,0.30056739994324744
RSVPLG03,JM,20260326-104345,1.0.2,20251105-084826,812,Practice,Both,1,Automatic,main,7,20260326-104441,local,global,300,S,H,A,E,A-S.png,H-E.png,sS,hH,mask-1.png,mask-4.png,s,1,0.7372786998748779,h,1,0.23129849997349083,0.0454927000682801,0.04736290010623634,0.09903070004656911,0.09998900000937283,0.2986920999828726
RSVPLG03,JM,20260326-104345,1.0.2,20251105-084826,812,Practice,Both,1,Automatic,main,8,20260326-104446,local,local,300,S,S,E,A,E-S.png,A-S.png,sS,sS,mask-1.png,mask-3.png,s,1,0.710553599987179,h,0,0.2059793001972139,0.04725389997474849,0.048635799903422594,0.09903670009225607,0.10126099991612136,0.29836100013926625
RSVPLG03,JM,20260326-104345,1.0.2,20251105-084826,812,Practice,Both,1,Automatic,main,9,20260326-104450,global,global,300,H,H,A,E,H-A.png,H-E.png,hH,hH,mask-4.png,mask-2.png,h,1,0.7489124999847263,h,1,0.0767994998022914,0.04830929986201227,0.04637859994545579,0.10134599986486137,0.09871959988959134,0.30010370002128184
RSVPLG03,JM,20260326-104345,1.0.2,20251105-084826,812,Practice,Both,1,Automatic,main,10,20260326-104455,global,local,750,S,H,A,A,S-A.png,A-H.png,sS,hH,mask-3.png,mask-4.png,s,1,0.8597670001909137,h,1,0.1819739998318255,0.048249099869281054,0.045972099993377924,0.09955669986084104,0.0988503999542445,0.7502091999631375
RSVPLG03,JM,20260326-104345,1.0.2,20251105-084826,812,Practice,Both,1,Automatic,main,11,20260326-104500,local,local,300,S,S,A,E,A-S.png,E-S.png,sS,sS,mask-2.png,mask-1.png,h,0,0.8986366000026464,s,1,0.18800640013068914,0.04630129993893206,0.047880300087854266,0.09863390005193651,0.10034179990179837,0.29778759996406734
RSVPLG03,JM,20260326-104345,1.0.2,20251105-084826,812,Practice,Both,1,Automatic,main,12,20260326-104504,local,local,750,H,S,A,A,A-H.png,A-S.png,hH,sS,mask-3.png,mask-4.png,h,1,0.5203822997864336,h,0,0.1099925001617521,0.04685519984923303,0.04713200009427965,0.10053459997288883,0.0993043000344187,0.7481699998024851
RSVPLG03,JM,20260326-104345,1.0.2,20251105-084826,812,Practice,Both,1,Automatic,main,13,20260326-104509,global,global,300,S,S,E,A,S-E.png,S-A.png,sS,sS,mask-4.png,mask-3.png,s,1,0.7214518999680877,s,1,0.04719790001399815,0.04791980003938079,0.04900099989026785,0.10026840004138649,0.1012508999556303,0.2985204001888633
RSVPLG03,JM,20260326-104345,1.0.2,20251105-084826,812,Practice,Both,1,Automatic,main,14,20260326-104513,global,local,300,H,H,A,E,H-A.png,E-H.png,hH,hH,mask-3.png,mask-1.png,h,1,0.6378043999429792,h,1,0.07043389999307692,0.04729649983346462,0.04734640009701252,0.10018109995871782,0.10013980022631586,0.30023229983635247
RSVPLG03,JM,20260326-104345,1.0.2,20251105-084826,812,Practice,Both,1,Automatic,main,15,20260326-104518,global,global,750,H,H,A,E,H-A.png,H-E.png,hH,hH,mask-2.png,mask-4.png,h,1,0.47455409984104335,h,1,0.06151639996096492,0.0469134000595659,0.04739459999836981,0.09836590010672808,0.0996669998858124,0.7484931000508368
RSVPLG03,JM,20260326-104345,1.0.2,20251105-084826,812,Practice,Both,1,Automatic,main,16,20260326-104522,local,global,300,H,S,E,A,E-H.png,S-A.png,hH,sS,mask-3.png,mask-2.png,h,1,0.7954637999646366,s,1,0.2061781999655068,0.04675199999473989,0.04791459999978542,0.09972819988615811,0.10039949999190867,0.2986991999205202
RSVPLG03,JM,20260326-104602,1.0.2,20251105-084826,812,Experiment,T1,1,Automatic,warmup,1,20260326-104642,local,local,750,H,S,A,A,A-H.png,A-S.png,hH,sS,mask-4.png,mask-3.png,h,1,0.9134653001092374,none,-5,0,0.04500699997879565,0.04852180019952357,0.09857150004245341,0.10125340009108186,0.747701299842447
RSVPLG03,JM,20260326-104602,1.0.2,20251105-084826,812,Experiment,T1,1,Automatic,warmup,2,20260326-104647,global,local,750,S,H,A,A,S-A.png,A-H.png,sS,hH,mask-2.png,mask-3.png,s,1,0.60400680010207,none,-5,0,0.046268299920484424,0.04593180003575981,0.09871919988654554,0.10032039997167885,0.7499955999664962
RSVPLG03,JM,20260326-104602,1.0.2,20251105-084826,812,Experiment,T1,1,Automatic,warmup,3,20260326-104651,global,global,750,S,H,E,E,S-E.png,H-E.png,sS,hH,mask-4.png,mask-4.png,s,1,0.29865190014243126,none,-5,0,0.04859809996560216,0.04764840006828308,0.10068019991740584,0.09927880018949509,0.7512180998455733
RSVPLG03,JM,20260326-104602,1.0.2,20251105-084826,812,Experiment,T1,1,Automatic,warmup,4,20260326-104655,global,global,300,H,S,E,A,H-E.png,S-A.png,hH,sS,mask-3.png,mask-2.png,h,1,0.5418930999003351,none,-5,0,0.04670460009947419,0.04670429998077452,0.09890029998496175,0.10030729998834431,0.2988770001102239
RSVPLG03,JM,20260326-104602,1.0.2,20251105-084826,812,Experiment,T1,1,Automatic,main,5,20260326-104700,local,local,300,S,H,E,E,E-S.png,E-H.png,sS,hH,mask-3.png,mask-2.png,s,1,0.4839235001709312,none,-5,0,0.046625199960544705,0.048152599949389696,0.09901000000536442,0.10082939988933504,0.29967950005084276
RSVPLG03,JM,20260326-104602,1.0.2,20251105-084826,812,Experiment,T1,1,Automatic,main,6,20260326-104704,local,global,750,S,S,A,E,A-S.png,S-E.png,sS,sS,mask-2.png,mask-2.png,h,0,0.37200369988568127,none,-5,0,0.04746619984507561,0.04754780000075698,0.10023459978401661,0.10032420000061393,0.7500718999654055
RSVPLG03,JM,20260326-104602,1.0.2,20251105-084826,812,Experiment,T1,1,Automatic,main,7,20260326-104708,local,local,300,S,H,E,E,E-S.png,E-H.png,sS,hH,mask-2.png,mask-2.png,s,1,0.44416369986720383,none,-5,0,0.04657020000740886,0.046501399949193,0.0991018998902291,0.10012100008316338,0.29904189985245466
RSVPLG03,JM,20260326-104602,1.0.2,20251105-084826,812,Experiment,T1,1,Automatic,main,8,20260326-104712,local,local,750,H,H,A,A,A-H.png,A-H.png,hH,hH,mask-4.png,mask-4.png,h,1,0.7237666000146419,none,-5,0,0.04656410007737577,0.04736039997078478,0.09985620016232133,0.09985569980926812,0.7494118001777679
RSVPLG03,JM,20260326-104602,1.0.2,20251105-084826,812,Experiment,T1,1,Automatic,main,9,20260326-104717,global,local,300,S,H,A,E,S-A.png,E-H.png,sS,hH,mask-4.png,mask-4.png,s,1,0.5664846000727266,none,-5,0,0.04712540004402399,0.047216800041496754,0.10009820014238358,0.09997890004888177,0.29986870009452105
RSVPLG03,JM,20260326-104602,1.0.2,20251105-084826,812,Experiment,T1,1,Automatic,main,10,20260326-104721,local,global,750,S,S,E,A,E-S.png,S-A.png,sS,sS,mask-3.png,mask-1.png,s,1,0.6157952998764813,none,-5,0,0.048143400112167,0.045727499993517995,0.09960710001178086,0.0998462000861764,0.7515744999982417
RSVPLG03,JM,20260326-104602,1.0.2,20251105-084826,812,Experiment,T1,1,Automatic,main,11,20260326-104725,global,global,300,S,H,A,A,S-A.png,H-A.png,sS,hH,mask-3.png,mask-4.png,s,1,0.5164791999850422,none,-5,0,0.04823459987528622,0.04816729994490743,0.10019259992986917,0.10089379991404712,0.299818699946627
RSVPLG03,JM,20260326-104602,1.0.2,20251105-084826,812,Experiment,T1,1,Automatic,main,12,20260326-104729,global,local,750,S,H,A,A,S-A.png,A-H.png,sS,hH,mask-1.png,mask-4.png,s,1,0.27913439995609224,none,-5,0,0.04787779995240271,0.047792800003662705,0.1002277999650687,0.1001848999876529,0.7503901000600308
RSVPLG03,JM,20260326-104602,1.0.2,20251105-084826,812,Experiment,T1,1,Automatic,main,13,20260326-104734,local,global,750,S,H,E,E,E-S.png,H-E.png,sS,hH,mask-2.png,mask-3.png,s,1,0.23491619993001223,none,-5,0,0.04818319994956255,0.04635859979316592,0.10055009997449815,0.09817389980889857,0.7517933000344783
RSVPLG03,JM,20260326-104602,1.0.2,20251105-084826,812,Experiment,T1,1,Automatic,main,14,20260326-104738,global,local,750,H,S,A,A,H-A.png,A-S.png,hH,sS,mask-4.png,mask-3.png,h,1,0.45641819993034005,none,-5,0,0.046582400100305676,0.046514700166881084,0.09889500006102026,0.09877989999949932,0.7501391000114381
RSVPLG03,JM,20260326-104602,1.0.2,20251105-084826,812,Experiment,T1,1,Automatic,main,15,20260326-104742,local,local,300,S,H,A,A,A-S.png,A-H.png,sS,hH,mask-2.png,mask-4.png,h,0,0.3333262000232935,none,-5,0,0.04596899985335767,0.046189700020477176,0.09829999995417893,0.09978939988650382,0.2995307999663055
RSVPLG03,JM,20260326-104602,1.0.2,20251105-084826,812,Experiment,T1,1,Automatic,main,16,20260326-104746,local,local,750,S,H,E,A,E-S.png,A-H.png,sS,hH,mask-2.png,mask-4.png,s,1,0.9993313001468778,none,-5,0,0.0474781000521034,0.04716659989207983,0.09896619990468025,0.09942159987986088,0.7498592000920326
RSVPLG03,JM,20260326-104602,1.0.2,20251105-084826,812,Experiment,T1,1,Automatic,main,17,20260326-104751,local,local,750,H,S,A,A,A-H.png,A-S.png,hH,sS,mask-1.png,mask-4.png,h,1,0.6471377001143992,none,-5,0,0.047156999818980694,0.048459299840033054,0.10058369999751449,0.10025749984197319,0.7493582000024617
RSVPLG03,JM,20260326-104602,1.0.2,20251105-084826,812,Experiment,T1,1,Automatic,main,18,20260326-104756,local,local,750,S,S,E,E,E-S.png,E-S.png,sS,sS,mask-4.png,mask-3.png,s,1,0.41968440008349717,none,-5,0,0.04735619993880391,0.046681900043040514,0.09972689999267459,0.09892369993031025,0.751050699967891
RSVPLG03,JM,20260326-104602,1.0.2,20251105-084826,812,Experiment,T1,1,Automatic,main,19,20260326-104800,local,local,300,S,S,E,A,E-S.png,A-S.png,sS,sS,mask-3.png,mask-2.png,s,1,0.6445599000435323,none,-5,0,0.046744999941438437,0.04619690007530153,0.09938860009424388,0.09838600014336407,0.3006998999044299
RSVPLG03,JM,20260326-104602,1.0.2,20251105-084826,812,Experiment,T1,1,Automatic,main,20,20260326-104804,global,local,750,S,H,E,A,S-E.png,A-H.png,sS,hH,mask-3.png,mask-1.png,s,1,0.48327180021442473,none,-5,0,0.04701450001448393,0.048006199998781085,0.10050450009293854,0.0997409000992775,0.7501562000252306
RSVPLG03,JM,20260326-104602,1.0.2,20251105-084826,812,Experiment,T1,1,Automatic,main,21,20260326-104809,global,local,750,S,H,A,E,S-A.png,E-H.png,sS,hH,mask-2.png,mask-3.png,s,1,0.4190722999628633,none,-5,0,0.049068700056523085,0.04784070001915097,0.10050840000621974,0.09961539995856583,0.7507378999143839
RSVPLG03,JM,20260326-104602,1.0.2,20251105-084826,812,Experiment,T1,1,Automatic,main,22,20260326-104813,global,global,750,S,S,A,A,S-A.png,S-A.png,sS,sS,mask-2.png,mask-2.png,s,1,0.9116160999983549,none,-5,0,0.04752429993823171,0.045924599980935454,0.1016299999319017,0.09848539996892214,0.7513735999818891
RSVPLG03,JM,20260326-104602,1.0.2,20251105-084826,812,Experiment,T1,1,Automatic,main,23,20260326-104818,local,global,300,S,H,E,A,E-S.png,H-A.png,sS,hH,mask-2.png,mask-3.png,s,1,0.6241349000483751,none,-5,0,0.046174399787560105,0.04702010005712509,0.0995417998638004,0.09952079993672669,0.2990931998938322
RSVPLG03,JM,20260326-104602,1.0.2,20251105-084826,812,Experiment,T1,1,Automatic,main,24,20260326-104822,local,local,300,S,H,A,A,A-S.png,A-H.png,sS,hH,mask-2.png,mask-1.png,s,1,0.592847399879247,none,-5,0,0.047414000146090984,0.049389100167900324,0.099238800117746,0.09973000013269484,0.298624400049448
RSVPLG03,JM,20260326-104602,1.0.2,20251105-084826,812,Experiment,T1,1,Automatic,main,25,20260326-104826,global,global,750,S,H,E,E,S-E.png,H-E.png,sS,hH,mask-4.png,mask-3.png,s,1,0.32590719987638295,none,-5,0,0.04709580005146563,0.047104999888688326,0.0996828000061214,0.10079199983738363,0.7487683000508696
RSVPLG03,JM,20260326-104602,1.0.2,20251105-084826,812,Experiment,T1,1,Automatic,main,26,20260326-104833,global,local,300,S,S,A,A,S-A.png,A-S.png,sS,sS,mask-3.png,mask-2.png,s,1,0.5691306998487562,none,-5,0,0.04720390005968511,0.04815359995700419,0.10029810015112162,0.10048509994521737,0.29951300006359816
RSVPLG03,JM,20260326-104602,1.0.2,20251105-084826,812,Experiment,T1,1,Automatic,main,27,20260326-104837,global,global,300,H,H,E,E,H-E.png,H-E.png,hH,hH,mask-1.png,mask-2.png,h,1,0.6365348999388516,none,-5,0,0.04627029993571341,0.04752869997173548,0.09869179991073906,0.09958759997971356,0.2985072999726981
RSVPLG03,JM,20260326-104602,1.0.2,20251105-084826,812,Experiment,T1,1,Automatic,main,28,20260326-104841,local,global,300,S,S,E,A,E-S.png,S-A.png,sS,sS,mask-2.png,mask-4.png,s,1,0.5818506001960486,none,-5,0,0.046035599894821644,0.04734009993262589,0.0995653998106718,0.10117139993235469,0.2990138998720795
RSVPLG03,JM,20260326-104602,1.0.2,20251105-084826,812,Experiment,T1,1,Automatic,main,29,20260326-104846,local,global,750,H,S,E,E,E-H.png,S-E.png,hH,sS,mask-1.png,mask-3.png,h,1,0.709516900125891,none,-5,0,0.0468939000274986,0.047170500038191676,0.09998710011132061,0.09988570003770292,0.7499045000877231
RSVPLG03,JM,20260326-104602,1.0.2,20251105-084826,812,Experiment,T1,1,Automatic,main,30,20260326-104850,local,global,300,S,H,A,A,A-S.png,H-A.png,sS,hH,mask-2.png,mask-3.png,h,0,0.20183130004443228,none,-5,0,0.047385300043970346,0.046584000112488866,0.1002088999375701,0.0991323001217097,0.30031169997528195
RSVPLG03,JM,20260326-104602,1.0.2,20251105-084826,812,Experiment,T1,1,Automatic,main,31,20260326-104854,global,local,300,S,H,A,A,S-A.png,A-H.png,sS,hH,mask-4.png,mask-1.png,s,1,0.5199436000548303,none,-5,0,0.04834940005093813,0.04779260000213981,0.10120829986408353,0.09944160003215075,0.30095710000023246
RSVPLG03,JM,20260326-104602,1.0.2,20251105-084826,812,Experiment,T1,1,Automatic,main,32,20260326-104858,local,local,750,S,S,E,A,E-S.png,A-S.png,sS,sS,mask-2.png,mask-2.png,s,1,0.33531690016388893,none,-5,0,0.04609710001386702,0.047146699856966734,0.09983749990351498,0.10082219983451068,0.749193700030446
RSVPLG03,JM,20260326-104602,1.0.2,20251105-084826,812,Experiment,T1,1,Automatic,main,33,20260326-104902,local,global,750,S,S,E,E,E-S.png,S-E.png,sS,sS,mask-4.png,mask-1.png,s,1,0.2429239999037236,none,-5,0,0.04797129984945059,0.04736660001799464,0.09929519984871149,0.10158929997123778,0.7492835000157356
RSVPLG03,JM,20260326-104602,1.0.2,20251105-084826,812,Experiment,T1,1,Automatic,main,34,20260326-104907,global,local,300,S,S,E,A,S-E.png,A-S.png,sS,sS,mask-1.png,mask-4.png,s,1,0.3364643999375403,none,-5,0,0.04728060006164014,0.04749669996090233,0.10073569999076426,0.09977669990621507,0.3009411001112312
RSVPLG03,JM,20260326-104602,1.0.2,20251105-084826,812,Experiment,T1,1,Automatic,main,35,20260326-104910,global,global,750,H,H,A,E,H-A.png,H-E.png,hH,hH,mask-3.png,mask-2.png,h,1,0.7405950000975281,none,-5,0,0.04798070015385747,0.048132700147107244,0.10019690007902682,0.10098450002260506,0.7494169999845326
RSVPLG03,JM,20260326-104602,1.0.2,20251105-084826,812,Experiment,T1,1,Automatic,main,36,20260326-104915,local,local,750,S,H,E,E,E-S.png,E-H.png,sS,hH,mask-1.png,mask-1.png,s,1,0.5754587999545038,none,-5,0,0.04605869995430112,0.0466410000808537,0.09850500011816621,0.09815189987421036,0.7503609000705183
RSVPLG03,JM,20260326-104602,1.0.2,20251105-084826,812,Experiment,T1,1,Automatic,main,37,20260326-104920,global,global,300,S,H,A,A,S-A.png,H-A.png,sS,hH,mask-1.png,mask-3.png,s,1,1.1651786998845637,none,-5,0,0.04732999997213483,0.049163500079885125,0.09899039985612035,0.10037779994308949,0.2992864998523146
RSVPLG03,JM,20260326-104602,1.0.2,20251105-084826,812,Experiment,T1,1,Automatic,main,38,20260326-104924,global,local,300,S,S,A,E,S-A.png,E-S.png,sS,sS,mask-1.png,mask-4.png,s,1,0.45038599986582994,none,-5,0,0.046128999907523394,0.04614050011150539,0.09851279994472861,0.09830320021137595,0.30015279981307685
RSVPLG03,JM,20260326-104602,1.0.2,20251105-084826,812,Experiment,T1,1,Automatic,main,39,20260326-104928,global,local,300,S,H,E,A,S-E.png,A-H.png,sS,hH,mask-2.png,mask-1.png,s,1,0.47323539992794394,none,-5,0,0.046877400018274784,0.04559349990449846,0.09924519993364811,0.09926599985919893,0.30106099997647107
RSVPLG03,JM,20260326-104602,1.0.2,20251105-084826,812,Experiment,T1,1,Automatic,main,40,20260326-104932,local,global,300,H,H,A,A,A-H.png,H-A.png,hH,hH,mask-2.png,mask-3.png,h,1,0.729206999996677,none,-5,0,0.04718940006569028,0.04646859993226826,0.10031659994274378,0.10024469997733831,0.3004097000230104
RSVPLG03,JM,20260326-104602,1.0.2,20251105-084826,812,Experiment,T1,1,Automatic,main,41,20260326-104936,local,local,750,H,S,E,E,E-H.png,E-S.png,hH,sS,mask-3.png,mask-4.png,s,0,0.6443239999935031,none,-5,0,0.04620209988206625,0.04814890003763139,0.0988973998464644,0.10074059991165996,0.7484997999854386
RSVPLG03,JM,20260326-104602,1.0.2,20251105-084826,812,Experiment,T1,1,Automatic,main,42,20260326-104941,global,local,750,S,S,E,E,S-E.png,E-S.png,sS,sS,mask-2.png,mask-1.png,s,1,0.4711687001399696,none,-5,0,0.049834599951282144,0.04597229999490082,0.10191990016028285,0.1001222999766469,0.7514730000402778
RSVPLG03,JM,20260326-104602,1.0.2,20251105-084826,812,Experiment,T1,1,Automatic,main,43,20260326-104946,global,global,750,S,H,A,A,S-A.png,H-A.png,sS,hH,mask-1.png,mask-3.png,s,1,0.4395638999994844,none,-5,0,0.04732550005428493,0.04669290012679994,0.10037730005569756,0.09911289997398853,0.7506597000174224
RSVPLG03,JM,20260326-104602,1.0.2,20251105-084826,812,Experiment,T1,1,Automatic,main,44,20260326-104950,global,global,750,H,S,E,E,H-E.png,S-E.png,hH,sS,mask-4.png,mask-2.png,h,1,0.4824010001029819,none,-5,0,0.04871029988862574,0.04771790001541376,0.10003139986656606,0.09942900016903877,0.7502317999023944
RSVPLG03,JM,20260326-104602,1.0.2,20251105-084826,812,Experiment,T1,1,Automatic,main,45,20260326-104954,global,global,300,H,S,A,E,H-A.png,S-E.png,hH,sS,mask-3.png,mask-1.png,h,1,0.31932950019836426,none,-5,0,0.04758050013333559,0.048583999974653125,0.09970739996060729,0.10150189977139235,0.2994173001497984
RSVPLG03,JM,20260326-104602,1.0.2,20251105-084826,812,Experiment,T1,1,Automatic,main,46,20260326-104958,global,local,750,H,H,A,A,H-A.png,A-H.png,hH,hH,mask-2.png,mask-1.png,h,1,0.2491061999462545,none,-5,0,0.04782039998099208,0.04781010001897812,0.09915559994988143,0.09899579989723861,0.7498532000463456
RSVPLG03,JM,20260326-104602,1.0.2,20251105-084826,812,Experiment,T1,1,Automatic,main,47,20260326-105002,global,global,300,H,H,A,A,H-A.png,H-A.png,hH,hH,mask-3.png,mask-3.png,h,1,0.1695600999519229,none,-5,0,0.04676000005565584,0.047735500149428844,0.09998530009761453,0.10005390015430748,0.2997542000375688
RSVPLG03,JM,20260326-104602,1.0.2,20251105-084826,812,Experiment,T1,1,Automatic,main,48,20260326-105006,local,local,750,S,H,E,E,E-S.png,E-H.png,sS,hH,mask-3.png,mask-3.png,s,1,0.3659403999336064,none,-5,0,0.0467745999339968,0.048734699841588736,0.10093609988689423,0.0993474000133574,0.7496559000574052
RSVPLG03,JM,20260326-104602,1.0.2,20251105-084826,812,Experiment,T1,1,Automatic,main,49,20260326-105011,global,global,300,H,H,A,E,H-A.png,H-E.png,hH,hH,mask-1.png,mask-2.png,h,1,0.613253700081259,none,-5,0,0.049227100098505616,0.049079000018537045,0.10018980014137924,0.10011599981226027,0.30011610011570156
RSVPLG03,JM,20260326-104602,1.0.2,20251105-084826,812,Experiment,T1,1,Automatic,main,50,20260326-105015,local,global,750,S,S,E,E,E-S.png,S-E.png,sS,sS,mask-1.png,mask-2.png,s,1,0.4040468998719007,none,-5,0,0.04758419981226325,0.04600080009549856,0.09908730001188815,0.10011960007250309,0.7504933997988701
RSVPLG03,JM,20260326-104602,1.0.2,20251105-084826,812,Experiment,T1,1,Automatic,main,51,20260326-105020,local,global,750,S,H,A,E,A-S.png,H-E.png,sS,hH,mask-2.png,mask-1.png,h,0,0.6560411001555622,none,-5,0,0.048090900061652064,0.04871120001189411,0.10137760010547936,0.10092320013791323,0.7500513999257237
RSVPLG03,JM,20260326-104602,1.0.2,20251105-084826,812,Experiment,T1,1,Automatic,main,52,20260326-105025,local,global,300,H,H,E,E,E-H.png,H-E.png,hH,hH,mask-3.png,mask-3.png,h,1,0.5052243999671191,none,-5,0,0.048672000179067254,0.04664089996367693,0.10053770011290908,0.09978109993971884,0.3011298000346869
RSVPLG03,JM,20260326-104602,1.0.2,20251105-084826,812,Experiment,T1,1,Automatic,main,53,20260326-105029,local,global,300,S,S,A,A,A-S.png,S-A.png,sS,sS,mask-4.png,mask-4.png,h,0,0.3238555998541415,none,-5,0,0.04771810001693666,0.047080400167033076,0.09984040004201233,0.09917920012958348,0.3010575999505818
RSVPLG03,JM,20260326-104602,1.0.2,20251105-084826,812,Experiment,T1,1,Automatic,main,54,20260326-105032,local,local,300,H,H,E,A,E-H.png,A-H.png,hH,hH,mask-3.png,mask-2.png,h,1,0.3911514999344945,none,-5,0,0.04820320010185242,0.04788230010308325,0.1004534000530839,0.10019190004095435,0.3000586999114603
RSVPLG03,JM,20260326-104602,1.0.2,20251105-084826,812,Experiment,T1,1,Automatic,main,55,20260326-105036,global,local,750,S,S,E,A,S-E.png,A-S.png,sS,sS,mask-1.png,mask-2.png,s,1,0.4183205000590533,none,-5,0,0.04766089981421828,0.04674229980446398,0.09873700002208352,0.10093309986405075,0.7494063000194728
RSVPLG03,JM,20260326-104602,1.0.2,20251105-084826,812,Experiment,T1,1,Automatic,main,56,20260326-105041,global,local,300,H,S,A,E,H-A.png,E-S.png,hH,sS,mask-2.png,mask-3.png,h,1,0.5492785000242293,none,-5,0,0.04949750006198883,0.04772509983740747,0.1008490000385791,0.10045569995418191,0.30022000009194016
RSVPLG03,JM,20260326-104602,1.0.2,20251105-084826,812,Experiment,T1,1,Automatic,main,57,20260326-105045,global,local,300,H,H,A,A,H-A.png,A-H.png,hH,hH,mask-4.png,mask-4.png,h,1,0.7721421997994184,none,-5,0,0.04733669990673661,0.04753590002655983,0.10032239998690784,0.09961869986727834,0.3009303000289947
RSVPLG03,JM,20260326-104602,1.0.2,20251105-084826,812,Experiment,T1,1,Automatic,main,58,20260326-105049,local,global,750,H,H,A,E,A-H.png,H-E.png,hH,hH,mask-1.png,mask-2.png,h,1,0.41631870018318295,none,-5,0,0.04773420002311468,0.046496700029820204,0.09993829997256398,0.09869950008578598,0.7515123998746276
RSVPLG03,JM,20260326-104602,1.0.2,20251105-084826,812,Experiment,T1,1,Automatic,main,59,20260326-105054,global,global,750,H,S,A,E,H-A.png,S-E.png,hH,sS,mask-4.png,mask-2.png,h,1,0.7821742999367416,none,-5,0,0.04719349998049438,0.048360500019043684,0.10043380013667047,0.09957620012573898,0.749830299988389
RSVPLG03,JM,20260326-104602,1.0.2,20251105-084826,812,Experiment,T1,1,Automatic,main,60,20260326-105058,local,global,300,S,H,E,E,E-S.png,H-E.png,sS,hH,mask-1.png,mask-3.png,h,0,0.2249733000062406,none,-5,0,0.04761350015178323,0.04765519988723099,0.09777300013229251,0.09971209987998009,0.3002145001664758
RSVPLG03,JM,20260326-104602,1.0.2,20251105-084826,812,Experiment,T1,1,Automatic,main,61,20260326-105102,local,global,750,H,S,A,E,A-H.png,S-E.png,hH,sS,mask-3.png,mask-4.png,h,1,0.6489636001642793,none,-5,0,0.04847130016423762,0.04755660006776452,0.09950220002792776,0.099639100022614,0.7495528999716043
RSVPLG03,JM,20260326-104602,1.0.2,20251105-084826,812,Experiment,T1,1,Automatic,main,62,20260326-105107,local,local,750,S,S,A,A,A-S.png,A-S.png,sS,sS,mask-3.png,mask-2.png,h,0,0.321641500107944,none,-5,0,0.04756720014847815,0.04675309988670051,0.09963040007278323,0.09909179992973804,0.7496955001261085
RSVPLG03,JM,20260326-104602,1.0.2,20251105-084826,812,Experiment,T1,1,Automatic,main,63,20260326-105111,global,global,750,S,H,A,E,S-A.png,H-E.png,sS,hH,mask-3.png,mask-4.png,s,1,0.5857166000641882,none,-5,0,0.04758429992944002,0.04852840001694858,0.09960409998893738,0.100515800062567,0.7490538998972625
RSVPLG03,JM,20260326-104602,1.0.2,20251105-084826,812,Experiment,T1,1,Automatic,main,64,20260326-105116,global,global,300,S,S,A,E,S-A.png,S-E.png,sS,sS,mask-2.png,mask-4.png,s,1,0.6620109002105892,none,-5,0,0.047568000154569745,0.048046400072053075,0.10092290001921356,0.10012550000101328,0.300448999973014
RSVPLG03,JM,20260326-104602,1.0.2,20251105-084826,812,Experiment,T1,1,Automatic,main,65,20260326-105120,global,local,750,H,S,E,A,H-E.png,A-S.png,hH,sS,mask-4.png,mask-3.png,h,1,0.6226995000615716,none,-5,0,0.04757379996590316,0.04857009998522699,0.10063150012865663,0.09965469990856946,0.7494387000333518
RSVPLG03,JM,20260326-104602,1.0.2,20251105-084826,812,Experiment,T1,1,Automatic,main,66,20260326-105125,local,global,300,H,H,A,E,A-H.png,H-E.png,hH,hH,mask-4.png,mask-4.png,h,1,0.484891900094226,none,-5,0,0.04754059994593263,0.04655459988862276,0.09956540004350245,0.09862970001995564,0.2999648000113666
RSVPLG03,JM,20260326-104602,1.0.2,20251105-084826,812,Experiment,T1,1,Automatic,main,67,20260326-105129,global,local,300,H,H,E,E,H-E.png,E-H.png,hH,hH,mask-2.png,mask-3.png,h,1,0.6138253000099212,none,-5,0,0.04735800018534064,0.047561899991706014,0.09919950016774237,0.09958790009841323,0.2996320000384003
RSVPLG03,JM,20260326-104602,1.0.2,20251105-084826,812,Experiment,T1,1,Automatic,main,68,20260326-105133,local,local,750,H,S,E,A,E-H.png,A-S.png,hH,sS,mask-1.png,mask-2.png,h,1,0.5621897000819445,none,-5,0,0.04653099994175136,0.047538899816572666,0.09955209982581437,0.09886020002886653,0.7492780999746174
RSVPLG03,JM,20260326-104602,1.0.2,20251105-084826,812,Experiment,T1,1,Automatic,main,69,20260326-105137,local,local,300,H,S,A,E,A-H.png,E-S.png,hH,sS,mask-2.png,mask-4.png,h,1,0.30822560004889965,none,-5,0,0.047716000117361546,0.04852280020713806,0.09992119995877147,0.09986230009235442,0.3002341999672353
RSVPLG03,JM,20260326-104602,1.0.2,20251105-084826,812,Experiment,T1,1,Automatic,main,70,20260326-105141,global,global,750,S,S,A,A,S-A.png,S-A.png,sS,sS,mask-4.png,mask-1.png,s,1,0.5054250000976026,none,-5,0,0.04765990003943443,0.0465985001064837,0.09913670015521348,0.0996393000241369,0.750080700032413
RSVPLG03,JM,20260326-104602,1.0.2,20251105-084826,812,Experiment,T1,1,Automatic,main,71,20260326-105146,global,local,750,H,H,E,A,H-E.png,A-H.png,hH,hH,mask-2.png,mask-1.png,h,1,0.5546869998797774,none,-5,0,0.04786579986102879,0.04895860003307462,0.09899029997177422,0.10103649995289743,0.7490248000249267
RSVPLG03,JM,20260326-104602,1.0.2,20251105-084826,812,Experiment,T1,1,Automatic,main,72,20260326-105150,global,global,300,H,H,E,A,H-E.png,H-A.png,hH,hH,mask-3.png,mask-3.png,h,1,0.48106150003150105,none,-5,0,0.046834800159558654,0.04751760000362992,0.09993330016732216,0.10053830011747777,0.3001935000065714
RSVPLG03,JM,20260326-104602,1.0.2,20251105-084826,812,Experiment,T1,1,Automatic,main,73,20260326-105154,local,local,750,S,H,E,E,E-S.png,E-H.png,sS,hH,mask-3.png,mask-4.png,s,1,0.5172826999332756,none,-5,0,0.048888699850067496,0.046781899873167276,0.10111159994266927,0.10051389993168414,0.7498268999624997
RSVPLG03,JM,20260326-104602,1.0.2,20251105-084826,812,Experiment,T1,1,Automatic,main,74,20260326-105159,global,global,300,S,S,E,A,S-E.png,S-A.png,sS,sS,mask-2.png,mask-1.png,s,1,0.670432000188157,none,-5,0,0.04762259987182915,0.04678360000252724,0.09882009983994067,0.10097349993884563,0.29887329996563494
RSVPLG03,JM,20260326-104602,1.0.2,20251105-084826,812,Experiment,T1,1,Automatic,main,75,20260326-105203,global,global,750,S,H,A,A,S-A.png,H-A.png,sS,hH,mask-4.png,mask-1.png,s,1,0.5195762000512332,none,-5,0,0.04767400003038347,0.046703899977728724,0.09981469996273518,0.09819760010577738,0.7497594999149442
RSVPLG03,JM,20260326-104602,1.0.2,20251105-084826,812,Experiment,T1,1,Automatic,main,76,20260326-105209,local,local,300,H,H,A,E,A-H.png,E-H.png,hH,hH,mask-3.png,mask-4.png,h,1,0.6133965000044554,none,-5,0,0.04777260008268058,0.047576299868524075,0.0999655001796782,0.10054749995470047,0.299519200110808
RSVPLG03,JM,20260326-104602,1.0.2,20251105-084826,812,Experiment,T1,1,Automatic,main,77,20260326-105213,global,local,300,S,S,A,A,S-A.png,A-S.png,sS,sS,mask-4.png,mask-3.png,s,1,0.4845342000480741,none,-5,0,0.04667910002171993,0.046591199934482574,0.09904240001924336,0.09855080000124872,0.29932590015232563
RSVPLG03,JM,20260326-104602,1.0.2,20251105-084826,812,Experiment,T1,1,Automatic,main,78,20260326-105217,local,global,750,S,S,E,E,E-S.png,S-E.png,sS,sS,mask-2.png,mask-2.png,s,1,0.4690201999619603,none,-5,0,0.04628290003165603,0.04719950002618134,0.0984902000054717,0.09841679991222918,0.7500792001374066
RSVPLG03,JM,20260326-104602,1.0.2,20251105-084826,812,Experiment,T1,1,Automatic,main,79,20260326-105222,local,local,300,S,S,A,E,A-S.png,E-S.png,sS,sS,mask-4.png,mask-3.png,s,1,0.35418729996308684,none,-5,0,0.045955499866977334,0.04763479996472597,0.09959939983673394,0.10061579989269376,0.2987158999312669
RSVPLG03,JM,20260326-104602,1.0.2,20251105-084826,812,Experiment,T1,1,Automatic,main,80,20260326-105225,global,global,300,S,S,E,E,S-E.png,S-E.png,sS,sS,mask-1.png,mask-2.png,s,1,0.2402594001032412,none,-5,0,0.04766599996946752,0.046870999969542027,0.0988650000654161,0.09971389989368618,0.2999144000932574
RSVPLG03,JM,20260326-104602,1.0.2,20251105-084826,812,Experiment,T1,1,Automatic,main,81,20260326-105229,global,global,750,S,H,E,A,S-E.png,H-A.png,sS,hH,mask-1.png,mask-2.png,h,0,0.9308462000917643,none,-5,0,0.04768659989349544,0.04867219994775951,0.09912350005470216,0.10028850007802248,0.7490226000081748
RSVPLG03,JM,20260326-104602,1.0.2,20251105-084826,812,Experiment,T1,1,Automatic,main,82,20260326-105234,global,local,300,S,H,E,A,S-E.png,A-H.png,sS,hH,mask-2.png,mask-2.png,s,1,0.5728019999805838,none,-5,0,0.0475555001758039,0.047357500065118074,0.10078580002300441,0.0992846000008285,0.30026290006935596
RSVPLG03,JM,20260326-104602,1.0.2,20251105-084826,812,Experiment,T1,1,Automatic,main,83,20260326-105238,global,global,300,S,H,E,E,S-E.png,H-E.png,sS,hH,mask-3.png,mask-2.png,s,1,0.11089759995229542,none,-5,0,0.04635879979468882,0.04745780001394451,0.09936419990845025,0.10026969993487,0.2984790999908
RSVPLG03,JM,20260326-104602,1.0.2,20251105-084826,812,Experiment,T1,1,Automatic,main,84,20260326-105242,global,local,750,S,S,A,A,S-A.png,A-S.png,sS,sS,mask-1.png,mask-4.png,s,1,0.3083021000493318,none,-5,0,0.04851939994841814,0.047396200010553,0.10082460008561611,0.10136729991063476,0.7499134000390768
RSVPLG03,JM,20260326-104602,1.0.2,20251105-084826,812,Experiment,T1,1,Automatic,main,85,20260326-105246,local,global,750,H,H,A,E,A-H.png,H-E.png,hH,hH,mask-1.png,mask-2.png,h,1,0.34438040014356375,none,-5,0,0.047521800035610795,0.047535100020468235,0.10157350008375943,0.09863290004432201,0.7514888001605868
RSVPLG03,JM,20260326-104602,1.0.2,20251105-084826,812,Experiment,T1,1,Automatic,main,86,20260326-105251,local,local,300,S,H,E,A,E-S.png,A-H.png,sS,hH,mask-4.png,mask-1.png,s,1,0.47420580009929836,none,-5,0,0.04715670016594231,0.046942299930378795,0.1003247001208365,0.10012389998883009,0.300337600056082
RSVPLG03,JM,20260326-104602,1.0.2,20251105-084826,812,Experiment,T1,1,Automatic,main,87,20260326-105255,local,local,750,H,S,E,E,E-H.png,E-S.png,hH,sS,mask-2.png,mask-1.png,s,0,0.9598762998357415,none,-5,0,0.04735470004379749,0.04736839979887009,0.09856070019304752,0.10036559985019267,0.7502396001946181
RSVPLG03,JM,20260326-104602,1.0.2,20251105-084826,812,Experiment,T1,1,Automatic,main,88,20260326-105300,local,local,300,H,S,A,A,A-H.png,A-S.png,hH,sS,mask-4.png,mask-4.png,h,1,0.3439215000253171,none,-5,0,0.04771340009756386,0.04713499988429248,0.0999470001552254,0.09879259997978806,0.2997755000833422
RSVPLG03,JM,20260326-104602,1.0.2,20251105-084826,812,Experiment,T1,1,Automatic,main,89,20260326-105304,local,local,300,S,H,A,A,A-S.png,A-H.png,sS,hH,mask-2.png,mask-4.png,h,0,0.19647160009481013,none,-5,0,0.04773409990593791,0.04820959991775453,0.10098579991608858,0.10139249986968935,0.29950630012899637
RSVPLG03,JM,20260326-104602,1.0.2,20251105-084826,812,Experiment,T1,1,Automatic,main,90,20260326-105307,global,local,300,S,H,A,E,S-A.png,E-H.png,sS,hH,mask-2.png,mask-4.png,s,1,1.6507150998804718,none,-5,0,0.04880660003982484,0.047514399979263544,0.10180689999833703,0.10053449985571206,0.30109590012580156
RSVPLG03,JM,20260326-104602,1.0.2,20251105-084826,812,Experiment,T1,1,Automatic,main,91,20260326-105312,global,global,300,S,H,A,E,S-A.png,H-E.png,sS,hH,mask-3.png,mask-2.png,s,1,0.30251840013079345,none,-5,0,0.04756550001911819,0.04776560002937913,0.09892489993944764,0.10173420002683997,0.2986753999721259
RSVPLG03,JM,20260326-104602,1.0.2,20251105-084826,812,Experiment,T1,1,Automatic,main,92,20260326-105316,local,global,300,S,H,A,A,A-S.png,H-A.png,sS,hH,mask-1.png,mask-3.png,h,0,0.56714679999277,none,-5,0,0.04733589990064502,0.04719220008701086,0.10155649995431304,0.10038760001771152,0.3001302999909967
RSVPLG03,JM,20260326-104602,1.0.2,20251105-084826,812,Experiment,T1,1,Automatic,main,93,20260326-105320,local,global,300,H,S,E,E,E-H.png,S-E.png,hH,sS,mask-2.png,mask-3.png,s,0,0.7663980000652373,none,-5,0,0.04770629992708564,0.04713740013539791,0.09894699999131262,0.09926900011487305,0.29992039990611374
RSVPLG03,JM,20260326-104602,1.0.2,20251105-084826,812,Experiment,T1,1,Automatic,main,94,20260326-105325,global,global,750,S,S,E,E,S-E.png,S-E.png,sS,sS,mask-2.png,mask-4.png,s,1,0.6460579000413418,none,-5,0,0.047307000029832125,0.04694889998063445,0.10057229991070926,0.09981210017576814,0.7503098999150097
RSVPLG03,JM,20260326-104602,1.0.2,20251105-084826,812,Experiment,T1,1,Automatic,main,95,20260326-105329,local,global,750,S,S,A,E,A-S.png,S-E.png,sS,sS,mask-2.png,mask-2.png,s,1,0.5811445999424905,none,-5,0,0.047572199953719974,0.0461348001845181,0.10029380000196397,0.09871780010871589,0.750913699856028
RSVPLG03,JM,20260326-104602,1.0.2,20251105-084826,812,Experiment,T1,1,Automatic,main,96,20260326-105334,global,local,750,S,S,E,A,S-E.png,A-S.png,sS,sS,mask-2.png,mask-1.png,s,1,0.2929568002000451,none,-5,0,0.046820699935778975,0.04733279999345541,0.09937389986589551,0.09935729997232556,0.7507358998991549
RSVPLG03,JM,20260326-104602,1.0.2,20251105-084826,812,Experiment,T1,1,Automatic,main,97,20260326-105338,global,local,750,H,S,A,E,H-A.png,E-S.png,hH,sS,mask-3.png,mask-1.png,s,0,0.3710235001053661,none,-5,0,0.0467121999245137,0.047702299896627665,0.09911569999530911,0.09990789997391403,0.7496756000909954
RSVPLG03,JM,20260326-104602,1.0.2,20251105-084826,812,Experiment,T1,1,Automatic,main,98,20260326-105343,local,global,300,H,S,A,E,A-H.png,S-E.png,hH,sS,mask-1.png,mask-1.png,h,1,0.2766543000470847,none,-5,0,0.04756629979237914,0.04552779998630285,0.10148399998433888,0.09926000004634261,0.301744099939242
RSVPLG03,JM,20260326-104602,1.0.2,20251105-084826,812,Experiment,T1,1,Automatic,main,99,20260326-105346,local,global,300,H,S,E,A,E-H.png,S-A.png,hH,sS,mask-4.png,mask-3.png,h,1,0.4702129999641329,none,-5,0,0.04759200010448694,0.04652740014716983,0.09881450003013015,0.09874700009822845,0.3002851000055671
RSVPLG03,JM,20260326-104602,1.0.2,20251105-084826,812,Experiment,T1,1,Automatic,main,100,20260326-105350,global,global,750,S,H,E,A,S-E.png,H-A.png,sS,hH,mask-3.png,mask-2.png,s,1,0.6291102999821305,none,-5,0,0.04750930005684495,0.047512599965557456,0.09853249997831881,0.101188899949193,0.7484011000487953
RSVPLG03,JM,20260326-105410,1.0.2,20251105-084826,812,Experiment,Both,1,Automatic,warmup,1,20260326-105431,global,global,300,S,S,E,A,S-E.png,S-A.png,sS,sS,mask-2.png,mask-4.png,s,1,2.5557832999620587,h,0,0.7966899999883026,0.040172999957576394,0.04740369995124638,0.0918231001123786,0.10022070002742112,0.292918800143525
RSVPLG03,JM,20260326-105410,1.0.2,20251105-084826,812,Experiment,Both,1,Automatic,warmup,2,20260326-105438,global,local,300,H,S,A,A,H-A.png,A-S.png,hH,sS,mask-2.png,mask-1.png,h,1,0.6410383000038564,s,1,0.1982223999220878,0.04868649994023144,0.04752709995955229,0.1008774999063462,0.09973150002770126,0.300590300001204
RSVPLG03,JM,20260326-105410,1.0.2,20251105-084826,812,Experiment,Both,1,Automatic,warmup,3,20260326-105442,global,local,750,S,H,E,A,S-E.png,A-H.png,sS,hH,mask-3.png,mask-4.png,s,1,0.4883299001958221,h,1,0.24881079979240894,0.047652099980041385,0.045898300129920244,0.10010939999483526,0.09839699999429286,0.7509206999093294
RSVPLG03,JM,20260326-105410,1.0.2,20251105-084826,812,Experiment,Both,1,Automatic,warmup,4,20260326-105447,local,local,750,H,S,A,E,A-H.png,E-S.png,hH,sS,mask-1.png,mask-3.png,h,1,0.6782796001061797,s,1,0.19604820013046265,0.046539500122889876,0.047484900103881955,0.10058240010403097,0.10050929989665747,0.7497819000855088
RSVPLG03,JM,20260326-105410,1.0.2,20251105-084826,812,Experiment,Both,1,Automatic,main,5,20260326-105452,global,local,750,S,H,E,E,S-E.png,E-H.png,sS,hH,mask-2.png,mask-1.png,s,1,0.6637013000436127,s,0,0.07621329999528825,0.04768970003351569,0.048504400067031384,0.10033290018327534,0.1019991000648588,0.7499611000530422
RSVPLG03,JM,20260326-105410,1.0.2,20251105-084826,812,Experiment,Both,1,Automatic,main,6,20260326-105457,local,local,750,H,H,A,E,A-H.png,E-H.png,hH,hH,mask-3.png,mask-4.png,h,1,1.7184282001107931,s,0,1.4533786999527365,0.04870599997229874,0.04655340011231601,0.10078589990735054,0.09890500013716519,0.7514896998181939
RSVPLG03,JM,20260326-105410,1.0.2,20251105-084826,812,Experiment,Both,1,Automatic,main,7,20260326-105504,local,global,300,S,H,E,A,E-S.png,H-A.png,sS,hH,mask-1.png,mask-4.png,s,1,0.6477530999109149,h,1,0.18638619990088046,0.04676379985176027,0.047521699918434024,0.0997254999820143,0.10057369992136955,0.2989765000529587
RSVPLG03,JM,20260326-105410,1.0.2,20251105-084826,812,Experiment,Both,1,Automatic,main,8,20260326-105508,global,global,750,S,H,A,A,S-A.png,H-A.png,sS,hH,mask-4.png,mask-4.png,s,1,0.7337337001226842,h,1,0.1981453001499176,0.04855210008099675,0.04763309983536601,0.09956530015915632,0.10059549985453486,0.7513392001856118
RSVPLG03,JM,20260326-105410,1.0.2,20251105-084826,812,Experiment,Both,1,Automatic,main,9,20260326-105513,global,global,300,H,H,E,E,H-E.png,H-E.png,hH,hH,mask-2.png,mask-1.png,h,1,0.6507985999342054,h,1,0.1485791001468897,0.04855410009622574,0.04842199990525842,0.10152280004695058,0.09949330007657409,0.3009091999847442
RSVPLG03,JM,20260326-105410,1.0.2,20251105-084826,812,Experiment,Both,1,Automatic,main,10,20260326-105518,global,global,750,S,S,E,E,S-E.png,S-E.png,sS,sS,mask-3.png,mask-2.png,s,1,0.9460583999752998,s,1,0.38863789988681674,0.04662050004117191,0.04654900007881224,0.09963129996322095,0.09948180010542274,0.7509915998671204
RSVPLG03,JM,20260326-105410,1.0.2,20251105-084826,812,Experiment,Both,1,Automatic,main,11,20260326-105523,local,local,750,S,H,A,E,A-S.png,E-H.png,sS,hH,mask-3.png,mask-2.png,h,0,0.7797824998851866,h,1,0.19420390017330647,0.04759379988536239,0.04663449991494417,0.09979189978912473,0.09868220007047057,0.7508924999274313
RSVPLG03,JM,20260326-105410,1.0.2,20251105-084826,812,Experiment,Both,1,Automatic,main,12,20260326-105528,local,local,750,S,H,A,E,A-S.png,E-H.png,sS,hH,mask-3.png,mask-3.png,h,0,0.7484651999548078,s,0,0.21729950001463294,0.047685799887403846,0.046587200136855245,0.10085769998840988,0.09970879997126758,0.7510025999508798
RSVPLG03,JM,20260326-105410,1.0.2,20251105-084826,812,Experiment,Both,1,Automatic,main,13,20260326-105533,global,local,750,H,H,A,A,H-A.png,A-H.png,hH,hH,mask-2.png,mask-1.png,h,1,0.6358349998481572,h,1,0.15017580008134246,0.04662520019337535,0.04653849988244474,0.10066470014862716,0.09959749993868172,0.750882200198248
RSVPLG03,JM,20260326-105410,1.0.2,20251105-084826,812,Experiment,Both,1,Automatic,main,14,20260326-105538,local,local,300,S,S,A,E,A-S.png,E-S.png,sS,sS,mask-2.png,mask-2.png,h,0,0.9758138998877257,s,1,0.4212493000086397,0.047507200157269835,0.04753259988501668,0.10047930013388395,0.09960529999807477,0.3001040001399815
RSVPLG03,JM,20260326-105410,1.0.2,20251105-084826,812,Experiment,Both,1,Automatic,main,15,20260326-105543,local,global,750,S,S,E,A,E-S.png,S-A.png,sS,sS,mask-3.png,mask-3.png,s,1,0.6935298999305815,s,1,0.19796469993889332,0.04766089981421828,0.047716999892145395,0.10202359990216792,0.09933899994939566,0.7516105999238789
RSVPLG03,JM,20260326-105410,1.0.2,20251105-084826,812,Experiment,Both,1,Automatic,main,16,20260326-105548,global,local,300,H,S,A,A,H-A.png,A-S.png,hH,sS,mask-2.png,mask-4.png,h,1,0.5498240999877453,h,0,0.14993920014239848,0.0473342000041157,0.04735049977898598,0.10018820012919605,0.09963189996778965,0.30015310016460717
RSVPLG03,JM,20260326-105410,1.0.2,20251105-084826,812,Experiment,Both,1,Automatic,main,17,20260326-105552,global,local,750,H,H,E,A,H-E.png,A-H.png,hH,hH,mask-3.png,mask-4.png,h,1,0.35466339997947216,h,1,0.20361139997839928,0.04750800016336143,0.04761569993570447,0.09957420011050999,0.09862899989821017,0.7510926001705229
RSVPLG03,JM,20260326-105410,1.0.2,20251105-084826,812,Experiment,Both,1,Automatic,main,18,20260326-105557,global,local,750,S,H,E,A,S-E.png,A-H.png,sS,hH,mask-4.png,mask-3.png,s,1,0.872543100034818,s,0,0.23594849999062717,0.04751059995032847,0.047412400133907795,0.10051649995148182,0.10025310004130006,0.7515219999477267
RSVPLG03,JM,20260326-105410,1.0.2,20251105-084826,812,Experiment,Both,1,Automatic,main,19,20260326-105602,global,local,300,H,S,E,E,H-E.png,E-S.png,hH,sS,mask-1.png,mask-1.png,h,1,0.5326463000383228,h,0,0.1562942999880761,0.04717979999259114,0.04723939998075366,0.10021359985694289,0.10024179983884096,0.30003240006044507
RSVPLG03,JM,20260326-105410,1.0.2,20251105-084826,812,Experiment,Both,1,Automatic,main,20,20260326-105607,local,global,750,H,H,A,A,A-H.png,H-A.png,hH,hH,mask-4.png,mask-2.png,h,1,0.383778200019151,h,1,0.278957000002265,0.04752540006302297,0.046579299960285425,0.1014535001013428,0.09861139999702573,0.7520288000814617
RSVPLG03,JM,20260326-105410,1.0.2,20251105-084826,812,Experiment,Both,1,Automatic,main,21,20260326-105611,local,local,300,H,S,E,A,E-H.png,A-S.png,hH,sS,mask-2.png,mask-3.png,h,1,0.519538399996236,h,0,0.1318961998913437,0.04759040009230375,0.04752540006302297,0.09923650021664798,0.10023900005035102,0.29955320013687015
RSVPLG03,JM,20260326-105410,1.0.2,20251105-084826,812,Experiment,Both,1,Automatic,main,22,20260326-105616,global,local,750,S,H,A,E,S-A.png,E-H.png,sS,hH,mask-3.png,mask-1.png,s,1,0.714987900108099,s,0,0.14125119987875223,0.047506900038570166,0.04670060006901622,0.10051809996366501,0.09977520001120865,0.7523767000529915
RSVPLG03,JM,20260326-105410,1.0.2,20251105-084826,812,Experiment,Both,1,Automatic,main,23,20260326-105621,global,global,300,S,S,A,A,S-A.png,S-A.png,sS,sS,mask-2.png,mask-3.png,h,0,2.2876917999237776,h,0,0.10365730011835694,0.04753419989719987,0.04752089991234243,0.1005384000018239,0.1004329000134021,0.2999322998803109
RSVPLG03,JM,20260326-105410,1.0.2,20251105-084826,812,Experiment,Both,1,Automatic,main,24,20260326-105627,local,local,750,S,H,A,A,A-S.png,A-H.png,sS,hH,mask-4.png,mask-4.png,h,0,0.3044120999984443,h,1,0.22511829994618893,0.04749150015413761,0.04749769996851683,0.10051890020258725,0.09881029999814928,0.7516853001434356
RSVPLG03,JM,20260326-105410,1.0.2,20251105-084826,812,Experiment,Both,1,Automatic,main,25,20260326-105631,local,global,750,H,S,E,E,E-H.png,S-E.png,hH,sS,mask-1.png,mask-4.png,h,1,0.8345763999968767,s,1,0.40376159991137683,0.04849210008978844,0.0494252999778837,0.1015537001658231,0.10091309994459152,0.7511257000733167
RSVPLG03,JM,20260326-105410,1.0.2,20251105-084826,812,Experiment,Both,1,Automatic,main,26,20260326-105642,local,global,300,S,H,A,A,A-S.png,H-A.png,sS,hH,mask-3.png,mask-2.png,h,0,0.6516871000640094,h,1,0.10448729991912842,0.04661879991181195,0.04754670010879636,0.09872450004331768,0.10060620005242527,0.30002789990976453
RSVPLG03,JM,20260326-105410,1.0.2,20251105-084826,812,Experiment,Both,1,Automatic,main,27,20260326-105647,local,global,750,S,S,E,E,E-S.png,S-E.png,sS,sS,mask-4.png,mask-4.png,h,0,0.6161295000929385,h,0,0.15213810000568628,0.04672079998999834,0.04768099985085428,0.09997999994084239,0.09986189985647798,0.7496793000027537
RSVPLG03,JM,20260326-105410,1.0.2,20251105-084826,812,Experiment,Both,1,Automatic,main,28,20260326-105652,local,global,300,H,H,A,A,A-H.png,H-A.png,hH,hH,mask-2.png,mask-2.png,h,1,0.6083468000870198,h,1,0.11969220009632409,0.04597500013187528,0.04868980008177459,0.09926060005091131,0.1017535999417305,0.29861170006915927
RSVPLG03,JM,20260326-105410,1.0.2,20251105-084826,812,Experiment,Both,1,Automatic,main,29,20260326-105656,local,global,300,H,H,A,A,A-H.png,H-A.png,hH,hH,mask-2.png,mask-1.png,h,1,0.3472738000564277,h,1,0.11924750008620322,0.04846620000898838,0.048581300070509315,0.10036120004951954,0.10059799998998642,0.30029949988238513
RSVPLG03,JM,20260326-105410,1.0.2,20251105-084826,812,Experiment,Both,1,Automatic,main,30,20260326-105700,local,local,750,S,H,E,E,E-S.png,E-H.png,sS,hH,mask-4.png,mask-3.png,s,1,0.9885617000982165,h,1,0.806735800113529,0.04756379988975823,0.046832700027152896,0.0997454000171274,0.10012089996598661,0.7516524000093341
RSVPLG03,JM,20260326-105410,1.0.2,20251105-084826,812,Experiment,Both,1,Automatic,main,31,20260326-105706,global,global,750,H,H,A,E,H-A.png,H-E.png,hH,hH,mask-1.png,mask-4.png,h,1,0.6131492001004517,h,1,0.13400560012087226,0.04769509984180331,0.04876499995589256,0.10192759986966848,0.10095970006659627,0.7506780999246985
RSVPLG03,JM,20260326-105410,1.0.2,20251105-084826,812,Experiment,Both,1,Automatic,main,32,20260326-105711,global,local,300,H,H,E,A,H-E.png,A-H.png,hH,hH,mask-2.png,mask-1.png,h,1,0.35774910007603467,h,1,0.20313120004720986,0.04890629998408258,0.04832589998841286,0.10081520001403987,0.10116209997795522,0.30014359997585416
RSVPLG03,JM,20260326-105410,1.0.2,20251105-084826,812,Experiment,Both,1,Automatic,main,33,20260326-105715,local,local,300,H,S,A,E,A-H.png,E-S.png,hH,sS,mask-4.png,mask-1.png,h,1,0.44457919988781214,s,1,0.24434570013545454,0.04668700019828975,0.04583080019801855,0.09967800020240247,0.09864159999415278,0.3002826999872923
RSVPLG03,JM,20260326-105410,1.0.2,20251105-084826,812,Experiment,Both,1,Automatic,main,34,20260326-105719,global,local,300,S,S,A,A,S-A.png,A-S.png,sS,sS,mask-4.png,mask-3.png,s,1,0.6799679999239743,s,1,0.09179039997979999,0.04751159995794296,0.04696809989400208,0.10052810003980994,0.09921939997002482,0.3004036999773234
RSVPLG03,JM,20260326-105410,1.0.2,20251105-084826,812,Experiment,Both,1,Automatic,main,35,20260326-105724,local,local,300,S,H,E,E,E-S.png,E-H.png,sS,hH,mask-3.png,mask-4.png,s,1,0.6879239999689162,h,1,2.140622500097379,0.04750859993509948,0.04754469986073673,0.10052930004894733,0.0986867998726666,0.30078370007686317
RSVPLG03,JM,20260326-105410,1.0.2,20251105-084826,812,Experiment,Both,1,Automatic,main,36,20260326-105730,global,local,750,S,S,A,E,S-A.png,E-S.png,sS,sS,mask-3.png,mask-1.png,s,1,0.6506551001220942,s,1,0.13981970003806055,0.04749600007198751,0.04753169999457896,0.10152949998155236,0.09877439984120429,0.7518460000865161
RSVPLG03,JM,20260326-105410,1.0.2,20251105-084826,812,Experiment,Both,1,Automatic,main,37,20260326-105735,global,global,300,S,H,A,A,S-A.png,H-A.png,sS,hH,mask-4.png,mask-2.png,s,1,0.8253373999614269,s,0,0.08655919996090233,0.047516899881884456,0.04847789998166263,0.09886329993605614,0.1003562998957932,0.2984696999192238
RSVPLG03,JM,20260326-105410,1.0.2,20251105-084826,812,Experiment,Both,1,Automatic,main,38,20260326-105740,local,global,300,S,S,A,A,A-S.png,S-A.png,sS,sS,mask-1.png,mask-2.png,h,0,0.9460240001790226,s,1,0.18626039987429976,0.04709050012752414,0.04726299992762506,0.1000840999186039,0.10031759995035827,0.2999605000950396
RSVPLG03,JM,20260326-105410,1.0.2,20251105-084826,812,Experiment,Both,1,Automatic,main,39,20260326-105744,global,global,300,S,H,E,A,S-E.png,H-A.png,sS,hH,mask-4.png,mask-3.png,s,1,0.855132799828425,h,1,0.6910260000731796,0.04707139986567199,0.04754659999161959,0.10019619995728135,0.10041159996762872,0.29918020009063184
RSVPLG03,JM,20260326-105410,1.0.2,20251105-084826,812,Experiment,Both,1,Automatic,main,40,20260326-105750,global,local,750,H,S,A,A,H-A.png,A-S.png,hH,sS,mask-2.png,mask-2.png,h,1,0.6069713998585939,h,0,0.1561861999798566,0.04669420002028346,0.04873889987356961,0.09994599991478026,0.10076319985091686,0.7493567001074553
RSVPLG03,JM,20260326-105410,1.0.2,20251105-084826,812,Experiment,Both,1,Automatic,main,41,20260326-105754,local,global,750,H,H,E,E,E-H.png,H-E.png,hH,hH,mask-2.png,mask-4.png,s,0,0.9761812998913229,h,1,0.18837930005975068,0.046530199935659766,0.04754309984855354,0.09954340010881424,0.09961479995399714,0.7503907000645995
RSVPLG03,JM,20260326-105410,1.0.2,20251105-084826,812,Experiment,Both,1,Automatic,main,42,20260326-105759,local,local,300,S,S,A,A,A-S.png,A-S.png,sS,sS,mask-4.png,mask-3.png,s,1,0.7346973000094295,s,1,0.0745613002218306,0.04682909999974072,0.047492000041529536,0.09986620000563562,0.10049680015072227,0.3000964999664575
RSVPLG03,JM,20260326-105410,1.0.2,20251105-084826,812,Experiment,Both,1,Automatic,main,43,20260326-105804,global,global,750,H,H,E,A,H-E.png,H-A.png,hH,hH,mask-4.png,mask-2.png,h,1,0.4972552000544965,h,1,0.08422650001011789,0.0475019000004977,0.048518599942326546,0.1005581000354141,0.09956609993241727,0.7507180001121014
RSVPLG03,JM,20260326-105410,1.0.2,20251105-084826,812,Experiment,Both,1,Automatic,main,44,20260326-105808,global,local,300,H,H,A,E,H-A.png,E-H.png,hH,hH,mask-1.png,mask-1.png,h,1,0.5911139999516308,h,1,0.054561799857765436,0.04728540009818971,0.047220699954777956,0.10065710009075701,0.10032309987582266,0.30008010007441044
RSVPLG03,JM,20260326-105410,1.0.2,20251105-084826,812,Experiment,Both,1,Automatic,main,45,20260326-105813,local,global,750,S,H,E,A,E-S.png,H-A.png,sS,hH,mask-2.png,mask-2.png,s,1,0.7524685999378562,h,1,0.18020449997857213,0.04830359993502498,0.04849470010958612,0.10142490011639893,0.10054320003837347,0.7510857000015676
RSVPLG03,JM,20260326-105410,1.0.2,20251105-084826,812,Experiment,Both,1,Automatic,main,46,20260326-105818,local,local,750,H,H,E,E,E-H.png,E-H.png,hH,hH,mask-2.png,mask-1.png,h,1,0.6351018000859767,h,1,0.8287144000642002,0.04754319996573031,0.046505500096827745,0.09959899983368814,0.09950180002488196,0.751131699886173
RSVPLG03,JM,20260326-105410,1.0.2,20251105-084826,812,Experiment,Both,1,Automatic,main,47,20260326-105823,global,local,300,H,S,E,A,H-E.png,A-S.png,hH,sS,mask-3.png,mask-3.png,h,1,0.4504678000230342,h,0,0.05930580012500286,0.046311100013554096,0.04767009988427162,0.09854829986579716,0.10075380001217127,0.29928350006230175
RSVPLG03,JM,20260326-105410,1.0.2,20251105-084826,812,Experiment,Both,1,Automatic,main,48,20260326-105828,global,local,300,H,H,E,E,H-E.png,E-H.png,hH,hH,mask-3.png,mask-4.png,h,1,0.8959241001866758,h,1,0.06850269995629787,0.04773340001702309,0.047661899821832776,0.10085769998840988,0.09986769990064204,0.30068510002456605
RSVPLG03,JM,20260326-105410,1.0.2,20251105-084826,812,Experiment,Both,1,Automatic,main,49,20260326-105832,global,global,750,S,S,E,A,S-E.png,S-A.png,sS,sS,mask-1.png,mask-2.png,s,1,0.6820524998474866,s,1,0.06270609982311726,0.04670230019837618,0.04769529984332621,0.10000520013272762,0.10088040004484355,0.7495304001495242
RSVPLG03,JM,20260326-105410,1.0.2,20251105-084826,812,Experiment,Both,1,Automatic,main,50,20260326-105837,global,global,300,H,S,A,A,H-A.png,S-A.png,hH,sS,mask-3.png,mask-4.png,h,1,1.8647380999755114,s,1,0.13444619998335838,0.04758580005727708,0.04690279997885227,0.0998019000981003,0.10000109998509288,0.29984920006245375
RSVPLG03,JM,20260326-105410,1.0.2,20251105-084826,812,Experiment,Both,1,Automatic,main,51,20260326-105850,local,global,300,H,H,A,A,A-H.png,H-A.png,hH,hH,mask-1.png,mask-1.png,h,1,0.5331741000991315,h,1,0.07041610009036958,0.046534499851986766,0.0475063999183476,0.09961169981397688,0.10000819992274046,0.2990518999285996
RSVPLG03,JM,20260326-105410,1.0.2,20251105-084826,812,Experiment,Both,1,Automatic,main,52,20260326-105854,local,local,300,S,S,A,E,A-S.png,E-S.png,sS,sS,mask-4.png,mask-1.png,s,1,0.68806799990125,h,0,0.16524580004625022,0.04934919998049736,0.04745030007325113,0.10019240016117692,0.09955159993842244,0.30220460006967187
RSVPLG03,JM,20260326-105410,1.0.2,20251105-084826,812,Experiment,Both,1,Automatic,main,53,20260326-105859,local,global,300,S,S,A,E,A-S.png,S-E.png,sS,sS,mask-2.png,mask-4.png,h,0,0.5783521998673677,s,1,0.16847949987277389,0.04654609994031489,0.047288999892771244,0.09965160000137985,0.09927219990640879,0.29997990000993013
RSVPLG03,JM,20260326-105410,1.0.2,20251105-084826,812,Experiment,Both,1,Automatic,main,54,20260326-105903,global,global,750,H,H,A,E,H-A.png,H-E.png,hH,hH,mask-1.png,mask-4.png,h,1,0.6782227999065071,h,1,0.10174189996905625,0.048496499890461564,0.04748880001716316,0.10050900001078844,0.10046340012922883,0.751054999884218
RSVPLG03,JM,20260326-105410,1.0.2,20251105-084826,812,Experiment,Both,1,Automatic,main,55,20260326-105908,local,global,750,S,S,E,A,E-S.png,S-A.png,sS,sS,mask-3.png,mask-1.png,s,1,0.6859530999790877,s,1,0.06900710007175803,0.048062399961054325,0.04700220003724098,0.09995910013094544,0.10011060000397265,0.7501787000801414
RSVPLG03,JM,20260326-105410,1.0.2,20251105-084826,812,Experiment,Both,1,Automatic,main,56,20260326-105913,local,global,300,H,S,E,A,E-H.png,S-A.png,hH,sS,mask-4.png,mask-2.png,h,1,1.0927901999093592,s,1,0.19764030002988875,0.047612200025469065,0.04564039991237223,0.09983470011502504,0.09823509980924428,0.30143170012161136
RSVPLG03,JM,20260326-105410,1.0.2,20251105-084826,812,Experiment,Both,1,Automatic,main,57,20260326-105918,local,local,300,S,H,A,A,A-S.png,A-H.png,sS,hH,mask-4.png,mask-2.png,h,0,0.6986666000448167,h,1,0.10921240015886724,0.04765299987047911,0.047610800014808774,0.09962029987946153,0.09936390002258122,0.2999958998989314
RSVPLG03,JM,20260326-105410,1.0.2,20251105-084826,812,Experiment,Both,1,Automatic,main,58,20260326-105922,local,global,750,H,S,E,A,E-H.png,S-A.png,hH,sS,mask-2.png,mask-2.png,h,1,0.6639503000769764,h,0,0.07653279998339713,0.04838680010288954,0.047860899940133095,0.10046270000748336,0.10015309997834265,0.750010299962014
RSVPLG03,JM,20260326-105410,1.0.2,20251105-084826,812,Experiment,Both,1,Automatic,main,59,20260326-105927,local,global,300,H,S,A,A,A-H.png,S-A.png,hH,sS,mask-3.png,mask-1.png,h,1,0.5941792000085115,s,1,0.2131089000031352,0.047524800058454275,0.047576299868524075,0.10052819992415607,0.10066929995082319,0.2993944000918418
RSVPLG03,JM,20260326-105410,1.0.2,20251105-084826,812,Experiment,Both,1,Automatic,main,60,20260326-105931,local,local,300,S,S,E,A,E-S.png,A-S.png,sS,sS,mask-1.png,mask-2.png,s,1,0.9279950000345707,h,0,0.1829494999255985,0.047506900038570166,0.04950940003618598,0.10051669995300472,0.10102060018107295,0.2997460998594761
RSVPLG03,JM,20260326-105410,1.0.2,20251105-084826,812,Experiment,Both,1,Automatic,main,61,20260326-105936,local,global,300,S,S,A,A,A-S.png,S-A.png,sS,sS,mask-3.png,mask-4.png,h,0,1.1834700000472367,s,1,0.20513540017418563,0.046570600010454655,0.04725859989412129,0.09961430006660521,0.09928429988212883,0.29937270004302263
RSVPLG03,JM,20260326-105410,1.0.2,20251105-084826,812,Experiment,Both,1,Automatic,main,62,20260326-105941,local,global,750,S,H,A,E,A-S.png,H-E.png,sS,hH,mask-4.png,mask-1.png,h,0,0.5707928000483662,h,1,0.0445830998942256,0.04749600007198751,0.047296599950641394,0.09949980000965297,0.09892949997447431,0.7518447001930326
RSVPLG03,JM,20260326-105410,1.0.2,20251105-084826,812,Experiment,Both,1,Automatic,main,63,20260326-105946,local,local,750,S,S,E,E,E-S.png,E-S.png,sS,sS,mask-2.png,mask-1.png,s,1,1.3272361000999808,h,0,0.37250160006806254,0.048130800016224384,0.04771560011431575,0.10120889986865222,0.09990789997391403,0.7513035999145359
RSVPLG03,JM,20260326-105410,1.0.2,20251105-084826,812,Experiment,Both,1,Automatic,main,64,20260326-105952,local,local,300,S,H,A,A,A-S.png,A-H.png,sS,hH,mask-3.png,mask-4.png,h,0,0.6097814999520779,h,1,0.07644440000876784,0.048738199984654784,0.04864320019260049,0.1019397999625653,0.10166110005229712,0.3004926999565214
RSVPLG03,JM,20260326-105410,1.0.2,20251105-084826,812,Experiment,Both,1,Automatic,main,65,20260326-105956,global,local,300,S,H,E,A,S-E.png,A-H.png,sS,hH,mask-4.png,mask-3.png,s,1,1.515141800045967,h,1,0.20171609986573458,0.04739240021444857,0.04709280002862215,0.10040830005891621,0.10010099993087351,0.3002528001088649
RSVPLG03,JM,20260326-105410,1.0.2,20251105-084826,812,Experiment,Both,1,Automatic,main,66,20260326-110001,local,local,750,H,S,A,A,A-H.png,A-S.png,hH,sS,mask-1.png,mask-3.png,h,1,0.4939523998182267,h,0,0.06066149985417724,0.04734060005284846,0.048376900143921375,0.10021409997716546,0.10121260001324117,0.7502637999132276
RSVPLG03,JM,20260326-105410,1.0.2,20251105-084826,812,Experiment,Both,1,Automatic,main,67,20260326-110006,local,global,750,S,H,A,A,A-S.png,H-A.png,sS,hH,mask-4.png,mask-3.png,h,0,0.9316730999853462,h,1,0.22941299993544817,0.04668810009025037,0.04747540014795959,0.10038700001314282,0.10049710003659129,0.7510601000394672
RSVPLG03,JM,20260326-105410,1.0.2,20251105-084826,812,Experiment,Both,1,Automatic,main,68,20260326-110011,global,global,750,S,H,E,A,S-E.png,H-A.png,sS,hH,mask-3.png,mask-4.png,s,1,0.7009279001504183,h,1,0.1542229000478983,0.04703020001761615,0.04723779996857047,0.1001340001821518,0.10039769997820258,0.7495969000738114
RSVPLG03,JM,20260326-105410,1.0.2,20251105-084826,812,Experiment,Both,1,Automatic,main,69,20260326-110016,global,global,750,H,S,A,A,H-A.png,S-A.png,hH,sS,mask-4.png,mask-1.png,h,1,0.625369600020349,s,1,0.19987639994360507,0.04757900000549853,0.04667970002628863,0.09941719984635711,0.09839669987559319,0.7512717000208795
RSVPLG03,JM,20260326-105410,1.0.2,20251105-084826,812,Experiment,Both,1,Automatic,main,70,20260326-110021,local,global,300,S,H,E,E,E-S.png,H-E.png,sS,hH,mask-3.png,mask-1.png,s,1,0.7494289001915604,h,1,0.16587429982610047,0.04571030009537935,0.04767480003647506,0.09955210005864501,0.09993010014295578,0.3000310999341309
RSVPLG03,JM,20260326-105410,1.0.2,20251105-084826,812,Experiment,Both,1,Automatic,main,71,20260326-110025,global,local,300,H,S,E,E,H-E.png,E-S.png,hH,sS,mask-4.png,mask-1.png,h,1,0.7623870999086648,h,0,0.1257791998796165,0.04771280009299517,0.046731799840927124,0.1008935000281781,0.09985789982602,0.30118050007149577
RSVPLG03,JM,20260326-105410,1.0.2,20251105-084826,812,Experiment,Both,1,Automatic,main,72,20260326-110030,global,global,300,S,H,A,A,S-A.png,H-A.png,sS,hH,mask-1.png,mask-4.png,s,1,0.6874297000467777,h,1,0.17291339999064803,0.04609870002605021,0.04757840000092983,0.0990162999369204,0.10058009997010231,0.2996036000549793
RSVPLG03,JM,20260326-105410,1.0.2,20251105-084826,812,Experiment,Both,1,Automatic,main,73,20260326-110034,global,global,300,H,H,E,A,H-E.png,H-A.png,hH,hH,mask-2.png,mask-4.png,h,1,0.5444720000959933,h,1,0.07910859980620444,0.047550000017508864,0.0476972998585552,0.09987589996308088,0.0999352999497205,0.30044950009323657
RSVPLG03,JM,20260326-105410,1.0.2,20251105-084826,812,Experiment,Both,1,Automatic,main,74,20260326-110039,global,local,750,H,H,A,A,H-A.png,A-H.png,hH,hH,mask-2.png,mask-3.png,h,1,0.36644420004449785,h,1,0.0913210001308471,0.04770549992099404,0.046709700021892786,0.10077929985709488,0.09890969982370734,0.751513299997896
RSVPLG03,JM,20260326-105410,1.0.2,20251105-084826,812,Experiment,Both,1,Automatic,main,75,20260326-110043,local,local,750,H,S,E,A,E-H.png,A-S.png,hH,sS,mask-4.png,mask-4.png,s,0,1.512612200109288,h,0,0.15118950000032783,0.047466699965298176,0.046828800113871694,0.09966429998166859,0.09972390020266175,0.7513124998658895
RSVPLG03,JM,20260326-105410,1.0.2,20251105-084826,812,Experiment,Both,1,Automatic,main,76,20260326-110057,global,global,300,H,S,A,A,H-A.png,S-A.png,hH,sS,mask-2.png,mask-3.png,h,1,0.6718256000895053,s,1,0.20255899988114834,0.047561899991706014,0.047406099969521165,0.10107340011745691,0.09940099995583296,0.3013045000843704
RSVPLG03,JM,20260326-105410,1.0.2,20251105-084826,812,Experiment,Both,1,Automatic,main,77,20260326-110101,global,local,300,S,H,E,A,S-E.png,A-H.png,sS,hH,mask-3.png,mask-4.png,s,1,0.6100039000157267,h,1,0.15548640000633895,0.04739430011250079,0.049086600076407194,0.10038890014402568,0.10110610001720488,0.3002963000908494
RSVPLG03,JM,20260326-105410,1.0.2,20251105-084826,812,Experiment,Both,1,Automatic,main,78,20260326-110106,global,global,300,S,H,A,E,S-A.png,H-E.png,sS,hH,mask-4.png,mask-3.png,s,1,0.5611258000135422,h,1,0.13908079988323152,0.04747069999575615,0.04740100004710257,0.1014610999263823,0.0999555999878794,0.3016802000347525
RSVPLG03,JM,20260326-105410,1.0.2,20251105-084826,812,Experiment,Both,1,Automatic,main,79,20260326-110110,global,local,750,S,S,E,A,S-E.png,A-S.png,sS,sS,mask-1.png,mask-4.png,s,1,0.5405214000493288,s,1,0.03577230009250343,0.04738279990851879,0.04770470014773309,0.0991609999909997,0.09986280021257699,0.7504248998593539
RSVPLG03,JM,20260326-105410,1.0.2,20251105-084826,812,Experiment,Both,1,Automatic,main,80,20260326-110114,global,global,750,S,H,E,E,S-E.png,H-E.png,sS,hH,mask-3.png,mask-3.png,s,1,0.7507672000210732,h,1,0.1741118999198079,0.047747999895364046,0.046606400050222874,0.09995279996655881,0.09978930000215769,0.7505697999149561
RSVPLG03,JM,20260326-105410,1.0.2,20251105-084826,812,Experiment,Both,1,Automatic,main,81,20260326-110119,global,global,300,H,S,E,E,H-E.png,S-E.png,hH,sS,mask-2.png,mask-2.png,h,1,0.679679999826476,s,1,0.17258599982596934,0.04754590010270476,0.0469754000660032,0.10064420010894537,0.10013940022327006,0.30065319989807904
RSVPLG03,JM,20260326-105410,1.0.2,20251105-084826,812,Experiment,Both,1,Automatic,main,82,20260326-110124,global,global,750,S,H,A,E,S-A.png,H-E.png,sS,hH,mask-4.png,mask-4.png,s,1,0.48108769999817014,h,1,0.17997320019640028,0.04669729992747307,0.04769439995288849,0.09991279989480972,0.0999171999283135,0.7497499999590218
RSVPLG03,JM,20260326-105410,1.0.2,20251105-084826,812,Experiment,Both,1,Automatic,main,83,20260326-110129,local,local,750,H,H,E,E,E-H.png,E-H.png,hH,hH,mask-4.png,mask-2.png,s,0,1.2162234999705106,h,1,0.1526782000437379,0.04764569993130863,0.047642899909988046,0.09969369997270405,0.10171719989739358,0.750032200012356
RSVPLG03,JM,20260326-105410,1.0.2,20251105-084826,812,Experiment,Both,1,Automatic,main,84,20260326-110134,local,local,300,S,S,A,A,A-S.png,A-S.png,sS,sS,mask-1.png,mask-2.png,h,0,0.33287160005420446,h,0,0.26228870009072125,0.04773499979637563,0.04694729996845126,0.09997889981605113,0.09992639999836683,0.2996651998255402
RSVPLG03,JM,20260326-105410,1.0.2,20251105-084826,812,Experiment,Both,1,Automatic,main,85,20260326-110138,local,local,300,S,S,A,E,A-S.png,E-S.png,sS,sS,mask-2.png,mask-1.png,h,0,1.0765199998859316,h,0,0.9097031001001596,0.04754609987139702,0.048542199889197946,0.09956889995373785,0.10157809988595545,0.2998420000076294
RSVPLG03,JM,20260326-105410,1.0.2,20251105-084826,812,Experiment,Both,1,Automatic,main,86,20260326-110144,global,global,750,S,S,E,E,S-E.png,S-E.png,sS,sS,mask-1.png,mask-2.png,h,0,0.7019764999859035,s,1,0.18727500014938414,0.04755529994145036,0.047505600145086646,0.09957149997353554,0.1005396000109613,0.7498025000095367
RSVPLG03,JM,20260326-105410,1.0.2,20251105-084826,812,Experiment,Both,1,Automatic,main,87,20260326-110149,local,global,750,S,H,E,A,E-S.png,H-A.png,sS,hH,mask-4.png,mask-4.png,s,1,0.6973590000998229,s,0,0.05469670007005334,0.04749269993044436,0.0475210000295192,0.09945380012504756,0.09953160001896322,0.7507539999205619
RSVPLG03,JM,20260326-105410,1.0.2,20251105-084826,812,Experiment,Both,1,Automatic,main,88,20260326-110154,local,local,750,H,S,A,A,A-H.png,A-S.png,hH,sS,mask-3.png,mask-1.png,h,1,0.7713955999352038,h,0,0.036946300184354186,0.04755680006928742,0.04656559997238219,0.09867890016175807,0.09977420000359416,0.7506069000810385
RSVPLG03,JM,20260326-105410,1.0.2,20251105-084826,812,Experiment,Both,1,Automatic,main,89,20260326-110158,global,local,750,H,S,A,A,H-A.png,A-S.png,hH,sS,mask-2.png,mask-2.png,h,1,0.3622115000616759,h,0,0.09368949988856912,0.0477116999682039,0.046940800035372376,0.09967319993302226,0.10025750007480383,0.7494136998429894
RSVPLG03,JM,20260326-105410,1.0.2,20251105-084826,812,Experiment,Both,1,Automatic,main,90,20260326-110203,global,local,750,S,S,E,E,S-E.png,E-S.png,sS,sS,mask-4.png,mask-4.png,s,1,0.5723495001439005,s,1,0.07602649996988475,0.04930770001374185,0.047509899828583,0.1011179001070559,0.09950819984078407,0.752032000105828
RSVPLG03,JM,20260326-105410,1.0.2,20251105-084826,812,Experiment,Both,1,Automatic,main,91,20260326-110208,local,local,750,H,H,A,A,A-H.png,A-H.png,hH,hH,mask-3.png,mask-4.png,h,1,0.6155230000149459,h,1,0.11534669995307922,0.04673959990032017,0.048578300047665834,0.09857610007748008,0.10083899996243417,0.7498069000430405
RSVPLG03,JM,20260326-105410,1.0.2,20251105-084826,812,Experiment,Both,1,Automatic,main,92,20260326-110213,global,global,300,S,H,A,E,S-A.png,H-E.png,sS,hH,mask-4.png,mask-4.png,s,1,0.632927100174129,h,1,0.18092829990200698,0.04653279995545745,0.04772420017980039,0.10003189998678863,0.10081480001099408,0.29965089983306825
RSVPLG03,JM,20260326-105410,1.0.2,20251105-084826,812,Experiment,Both,1,Automatic,main,93,20260326-110217,local,global,300,H,S,A,E,A-H.png,S-E.png,hH,sS,mask-4.png,mask-3.png,h,1,0.5903678999748081,s,1,0.18333450006321073,0.04714849987067282,0.04728779988363385,0.09930249978788197,0.10040730005130172,0.2998607999179512
RSVPLG03,JM,20260326-105410,1.0.2,20251105-084826,812,Experiment,Both,1,Automatic,main,94,20260326-110221,global,local,300,S,S,A,E,S-A.png,E-S.png,sS,sS,mask-1.png,mask-3.png,s,1,0.4738859999924898,s,1,0.07633240008726716,0.0478474001865834,0.04751359997317195,0.1008219001814723,0.10058009997010231,0.3011360000818968
RSVPLG03,JM,20260326-105410,1.0.2,20251105-084826,812,Experiment,Both,1,Automatic,main,95,20260326-110225,global,global,300,S,H,A,E,S-A.png,H-E.png,sS,hH,mask-2.png,mask-1.png,s,1,0.5378992999903858,h,1,0.75473009981215,0.04750119987875223,0.04747540014795959,0.10052069998346269,0.09826799994334579,0.30075389984995127
RSVPLG03,JM,20260326-105410,1.0.2,20251105-084826,812,Experiment,Both,1,Automatic,main,96,20260326-110230,local,global,750,H,S,A,E,A-H.png,S-E.png,hH,sS,mask-3.png,mask-1.png,h,1,0.6079161001835018,s,1,0.15149070019833744,0.04671749984845519,0.04921299987472594,0.09883749997243285,0.1002320998813957,0.7494189999997616
RSVPLG03,JM,20260326-105410,1.0.2,20251105-084826,812,Experiment,Both,1,Automatic,main,97,20260326-110235,global,global,750,S,S,A,A,S-A.png,S-A.png,sS,sS,mask-1.png,mask-3.png,s,1,0.6129350000992417,s,1,0.13626099983230233,0.04749320005066693,0.04750970005989075,0.09952510008588433,0.0995535000693053,0.7503339999821037
RSVPLG03,JM,20260326-105410,1.0.2,20251105-084826,812,Experiment,Both,1,Automatic,main,98,20260326-110240,global,local,300,H,S,E,A,H-E.png,A-S.png,hH,sS,mask-3.png,mask-3.png,h,1,0.6661837000865489,h,0,0.13619609992019832,0.047507999930530787,0.04848099988885224,0.0993476000148803,0.10035459999926388,0.2993236999027431
RSVPLG03,JM,20260326-105410,1.0.2,20251105-084826,812,Experiment,Both,1,Automatic,main,99,20260326-110244,global,local,750,H,H,E,E,H-E.png,E-H.png,hH,hH,mask-3.png,mask-3.png,h,1,0.48148529999889433,h,1,0.13955500000156462,0.04850469995290041,0.047533399891108274,0.10148090007714927,0.09853950003162026,0.7525921000633389
RSVPLG03,JM,20260326-105410,1.0.2,20251105-084826,812,Experiment,Both,1,Automatic,main,100,20260326-110249,local,local,300,H,H,E,A,E-H.png,A-H.png,hH,hH,mask-4.png,mask-3.png,h,1,0.41855990001931787,s,0,0.18144039995968342,0.04753169999457896,0.04755749995820224,0.09978609997779131,0.09978719986975193,0.2999032000079751
