exp,exp_initials,runtime,ver,modtime,sub,blocktype,targets,cuetype,mode,trialtype,trial,trialtime,t1_level,t2_level,t2_lag,t1,t2,distractor1,distractor2,stimfile1,stimfile2,t1_corr,t2_corr,maskfile1,maskfile2,t1_resp,t1_acc,t1_rt,t2_resp,t2_acc,t2_rt,t1_dur,t2_dur,t1mask_soa,t2mask_soa,t1t2_soa
RSVPLG03,km,20251023-110157,1.0.1,20251023-100704,712,Introduction,T1,1,Automatic,main,1,20251023-110228,global,local,750,H,S,A,A,H-A.png,A-S.png,hH,sS,mask-3.png,mask-3.png,h,1,2.440524899997399,none,-5,0,0.08986410000943579,0.10071749999769963,0.19050710000738036,0.2005561999976635,0.7406189000030281
RSVPLG03,km,20251023-110157,1.0.1,20251023-100704,712,Introduction,T1,1,Automatic,main,2,20251023-110235,local,local,750,S,H,E,A,E-S.png,A-H.png,sS,hH,mask-4.png,mask-4.png,s,1,1.5190540000039618,none,-5,0,0.09954929999366868,0.09969170000113081,0.19997019998845644,0.19948009999643546,0.7504530000005616
RSVPLG03,km,20251023-110157,1.0.1,20251023-100704,712,Introduction,T1,1,Automatic,main,3,20251023-110241,global,local,750,H,S,E,E,H-E.png,E-S.png,hH,sS,mask-3.png,mask-1.png,h,1,2.0302502999984426,none,-5,0,0.10172099999908824,0.09969610000553075,0.20160559999931138,0.19961209999746643,0.7516504999948665
RSVPLG03,km,20251023-110157,1.0.1,20251023-100704,712,Introduction,T1,1,Automatic,main,4,20251023-110247,local,local,750,H,H,E,A,E-H.png,A-H.png,hH,hH,mask-4.png,mask-1.png,s,0,2.7046956999984104,none,-5,0,0.09957890000077896,0.09911219999776222,0.19952720000583213,0.1996350999979768,0.7507402000046568
RSVPLG03,km,20251023-110157,1.0.1,20251023-100704,712,Introduction,T1,1,Automatic,main,5,20251023-110254,global,global,750,S,S,A,A,S-A.png,S-A.png,sS,sS,mask-4.png,mask-4.png,s,1,1.336852699998417,none,-5,0,0.099671899995883,0.1007223999913549,0.19962329999543726,0.2004804000025615,0.7493373000033898
RSVPLG03,km,20251023-110157,1.0.1,20251023-100704,712,Introduction,T1,1,Automatic,main,6,20251023-110259,global,local,750,H,H,E,E,H-E.png,E-H.png,hH,hH,mask-4.png,mask-1.png,h,1,0.4540700000070501,none,-5,0,0.10156700000516139,0.09935839999525342,0.2015354000031948,0.1992921000055503,0.7521316000056686
RSVPLG03,km,20251023-110157,1.0.1,20251023-100704,712,Introduction,T1,1,Automatic,main,7,20251023-110304,local,local,750,S,S,A,E,A-S.png,E-S.png,sS,sS,mask-1.png,mask-1.png,s,1,0.9351494000002276,none,-5,0,0.09899969999969471,0.09947049999027513,0.19990449999750126,0.20090359999448992,0.7497389000054682
RSVPLG03,km,20251023-110157,1.0.1,20251023-100704,712,Introduction,T1,1,Automatic,main,8,20251023-110309,local,global,750,S,H,E,E,E-S.png,H-E.png,sS,hH,mask-3.png,mask-2.png,s,1,1.1367676999943797,none,-5,0,0.09986709999793675,0.0998535999970045,0.19974929999443702,0.1993849999998929,0.7500989999971353
RSVPLG03,km,20251023-110157,1.0.1,20251023-100704,712,Introduction,T1,1,Automatic,main,9,20251023-110314,global,global,750,S,S,A,A,S-A.png,S-A.png,sS,sS,mask-3.png,mask-4.png,s,1,0.7594424999988405,none,-5,0,0.09878770000068471,0.09940390000701882,0.20091559999855235,0.198963900009403,0.7508135999960359
RSVPLG03,km,20251023-110157,1.0.1,20251023-100704,712,Introduction,T1,1,Automatic,main,10,20251023-110319,global,local,750,H,H,A,A,H-A.png,A-H.png,hH,hH,mask-2.png,mask-1.png,h,1,1.1726584999996703,none,-5,0,0.09976509999250993,0.10040029999800026,0.19961260000127368,0.20079119999718387,0.7490683999931207
RSVPLG03,km,20251023-110157,1.0.1,20251023-100704,712,Introduction,T1,1,Automatic,main,11,20251023-110325,local,global,750,S,S,A,A,A-S.png,S-A.png,sS,sS,mask-2.png,mask-4.png,s,1,1.017066900007194,none,-5,0,0.0995344999973895,0.1007852000038838,0.199989499989897,0.19977380000636913,0.7500789999903645
RSVPLG03,km,20251023-110157,1.0.1,20251023-100704,712,Introduction,T1,1,Automatic,main,12,20251023-110330,local,global,750,S,H,E,A,E-S.png,H-A.png,sS,hH,mask-1.png,mask-1.png,h,0,0.9933696999942185,none,-5,0,0.10059860000910703,0.1001105000032112,0.20043230000010226,0.1994680000061635,0.7516147999995155
RSVPLG03,km,20251023-110157,1.0.1,20251023-100704,712,Introduction,T1,1,Automatic,main,13,20251023-110335,global,global,750,H,H,A,E,H-A.png,H-E.png,hH,hH,mask-2.png,mask-1.png,h,1,0.2819387000054121,none,-5,0,0.0995870000042487,0.09952540000085719,0.2005834000010509,0.20041619999392424,0.7512162000057288
RSVPLG03,km,20251023-110157,1.0.1,20251023-100704,712,Introduction,T1,1,Automatic,main,14,20251023-110339,global,global,750,H,H,E,E,H-E.png,H-E.png,hH,hH,mask-3.png,mask-2.png,h,1,0.33304369999677874,none,-5,0,0.1001210000104038,0.09983439999632537,0.19930150000436697,0.19973449999815784,0.7502703000063775
RSVPLG03,km,20251023-110157,1.0.1,20251023-100704,712,Introduction,T1,1,Automatic,main,15,20251023-110344,local,local,750,S,H,E,E,E-S.png,E-H.png,sS,hH,mask-1.png,mask-2.png,s,1,0.586479200006579,none,-5,0,0.0997328999947058,0.10163429999374785,0.20034969999687746,0.20034100000339095,0.7499787999986438
RSVPLG03,km,20251023-110157,1.0.1,20251023-100704,712,Introduction,T1,1,Automatic,main,16,20251023-110349,local,global,750,S,S,E,E,E-S.png,S-E.png,sS,sS,mask-2.png,mask-2.png,s,1,0.6138642000005348,none,-5,0,0.10040080000180751,0.09983140000258572,0.20067020000715274,0.1986213000054704,0.7525242999981856
RSVPLG03,km,20251023-110411,1.0.1,20251023-100704,712,Practice,T1,1,Automatic,main,1,20251023-110427,global,global,750,H,H,A,A,H-A.png,H-A.png,hH,hH,mask-2.png,mask-1.png,h,1,1.561551699996926,none,-5,0,0.046852200001012534,0.049765499992645346,0.09788000000116881,0.10166040000331122,0.7494616000039969
RSVPLG03,km,20251023-110411,1.0.1,20251023-100704,712,Practice,T1,1,Automatic,main,2,20251023-110433,local,global,750,S,H,A,E,A-S.png,H-E.png,sS,hH,mask-2.png,mask-1.png,s,1,1.3429769000067608,none,-5,0,0.05035259999567643,0.04943739999725949,0.10113360000832472,0.10039189999224618,0.7506217000045581
RSVPLG03,km,20251023-110411,1.0.1,20251023-100704,712,Practice,T1,1,Automatic,main,3,20251023-110438,local,local,750,H,S,E,E,E-H.png,E-S.png,hH,sS,mask-2.png,mask-3.png,h,1,0.7547248000046238,none,-5,0,0.05001939999056049,0.049264000001130626,0.10154029999102931,0.09964339999714866,0.751959999994142
RSVPLG03,km,20251023-110411,1.0.1,20251023-100704,712,Practice,T1,1,Automatic,main,4,20251023-110443,local,global,750,S,S,A,E,A-S.png,S-E.png,sS,sS,mask-4.png,mask-1.png,h,0,0.42767650001042057,none,-5,0,0.051354700000956655,0.0515400000003865,0.10187199999927543,0.10019369999645278,0.7519086999964202
RSVPLG03,km,20251023-110411,1.0.1,20251023-100704,712,Practice,T1,1,Automatic,main,5,20251023-110447,local,global,300,H,S,A,E,A-H.png,S-E.png,hH,sS,mask-4.png,mask-4.png,h,1,0.593630999996094,none,-5,0,0.04993839999951888,0.04804860000149347,0.09994869999354705,0.10050510001019575,0.29994349999469705
RSVPLG03,km,20251023-110411,1.0.1,20251023-100704,712,Practice,T1,1,Automatic,main,6,20251023-110451,global,global,300,S,S,E,A,S-E.png,S-A.png,sS,sS,mask-4.png,mask-1.png,s,1,1.0318995999987237,none,-5,0,0.05185699999856297,0.049617399999988265,0.10142829999676906,0.09970449999673292,0.3012222999968799
RSVPLG03,km,20251023-110411,1.0.1,20251023-100704,712,Practice,T1,1,Automatic,main,7,20251023-110456,global,global,750,S,H,A,E,S-A.png,H-E.png,sS,hH,mask-3.png,mask-1.png,s,1,0.28563449998910073,none,-5,0,0.04963789999601431,0.05157360000885092,0.10058159999607597,0.10124329999962356,0.7513190999889048
RSVPLG03,km,20251023-110411,1.0.1,20251023-100704,712,Practice,T1,1,Automatic,main,8,20251023-110500,local,local,750,S,H,E,A,E-S.png,A-H.png,sS,hH,mask-4.png,mask-4.png,s,1,0.41386400000192225,none,-5,0,0.04980750000686385,0.0498241000022972,0.10050410000258125,0.09979619999649003,0.751175700002932
RSVPLG03,km,20251023-110411,1.0.1,20251023-100704,712,Practice,T1,1,Automatic,main,9,20251023-110505,local,local,300,H,H,A,E,A-H.png,E-H.png,hH,hH,mask-4.png,mask-1.png,h,1,0.44201469999097753,none,-5,0,0.049509399992530234,0.05026449999422766,0.10081299999728799,0.10138310000183992,0.29999709999538027
RSVPLG03,km,20251023-110411,1.0.1,20251023-100704,712,Practice,T1,1,Automatic,main,10,20251023-110509,global,local,300,H,H,A,A,H-A.png,A-H.png,hH,hH,mask-3.png,mask-4.png,h,1,0.3626201000006404,none,-5,0,0.05108000000473112,0.05167440000514034,0.10198520000267308,0.10233520000474527,0.3007503999979235
RSVPLG03,km,20251023-110411,1.0.1,20251023-100704,712,Practice,T1,1,Automatic,main,11,20251023-110513,local,local,300,H,H,A,A,A-H.png,A-H.png,hH,hH,mask-1.png,mask-4.png,h,1,0.26726069999858737,none,-5,0,0.049810900003649294,0.0495154999953229,0.09745129999646451,0.09917380000115372,0.29969379999965895
RSVPLG03,km,20251023-110411,1.0.1,20251023-100704,712,Practice,T1,1,Automatic,main,12,20251023-110516,local,global,300,H,S,A,E,A-H.png,S-E.png,hH,sS,mask-4.png,mask-4.png,h,1,0.3233114999893587,none,-5,0,0.05082550000224728,0.05131779999646824,0.10067790000175592,0.10024179999891203,0.30002070000045933
RSVPLG03,km,20251023-110411,1.0.1,20251023-100704,712,Practice,T1,1,Automatic,main,13,20251023-110520,global,local,750,S,S,E,A,S-E.png,A-S.png,sS,sS,mask-3.png,mask-4.png,s,1,0.6179016000096453,none,-5,0,0.05013989999133628,0.049942099998588674,0.10180789999139961,0.1004248999961419,0.7537601999938488
RSVPLG03,km,20251023-110411,1.0.1,20251023-100704,712,Practice,T1,1,Automatic,main,14,20251023-110525,global,local,750,H,S,A,E,H-A.png,E-S.png,hH,sS,mask-3.png,mask-4.png,h,1,0.2441990000079386,none,-5,0,0.05121309999958612,0.05085939999844413,0.10107639999478124,0.10075089999008924,0.7516031999984989
RSVPLG03,km,20251023-110411,1.0.1,20251023-100704,712,Practice,T1,1,Automatic,main,15,20251023-110529,global,global,300,S,H,E,A,S-E.png,H-A.png,sS,hH,mask-4.png,mask-2.png,s,1,0.7179255999944871,none,-5,0,0.04870080000546295,0.05073580000316724,0.10052279999945313,0.10056299999996554,0.2997324000025401
RSVPLG03,km,20251023-110411,1.0.1,20251023-100704,712,Practice,T1,1,Automatic,main,16,20251023-110534,global,local,300,H,H,A,A,H-A.png,A-H.png,hH,hH,mask-1.png,mask-4.png,h,1,0.21249989999341778,none,-5,0,0.050669899996137246,0.048521999997319654,0.10063639999134466,0.0986094999971101,0.30056730000069365
RSVPLG03,km,20251023-110609,1.0.1,20251023-100704,712,Introduction,Both,1,Automatic,main,1,20251023-110637,global,local,750,H,H,E,A,H-E.png,A-H.png,hH,hH,mask-3.png,mask-3.png,h,1,0.9655650999920908,h,1,2.206421599999885,0.09271009999793023,0.10002140000869986,0.1911441999982344,0.20053810000536032,0.7414550999965286
RSVPLG03,km,20251023-110609,1.0.1,20251023-100704,712,Introduction,Both,1,Automatic,main,2,20251023-110644,global,local,750,H,S,A,E,H-A.png,E-S.png,hH,sS,mask-3.png,mask-2.png,h,1,0.6113721000001533,s,1,0.7029624999995576,0.09937500000523869,0.09985680000681896,0.19823490000271704,0.19986510000308044,0.7500375999952666
RSVPLG03,km,20251023-110609,1.0.1,20251023-100704,712,Introduction,Both,1,Automatic,main,3,20251023-110650,global,global,750,S,H,A,E,S-A.png,H-E.png,sS,hH,mask-1.png,mask-4.png,s,1,0.5845452000066871,h,1,0.8768535999988671,0.09970410000823904,0.09955309999349993,0.20150700000522193,0.19907940000121016,0.7517170000064652
RSVPLG03,km,20251023-110609,1.0.1,20251023-100704,712,Introduction,Both,1,Automatic,main,4,20251023-110656,local,local,750,H,S,A,A,A-H.png,A-S.png,hH,sS,mask-1.png,mask-2.png,h,1,0.779882800008636,s,1,0.4818055999930948,0.09963870000501629,0.09914010000647977,0.1995314999949187,0.19973990001017228,0.7520111999911023
RSVPLG03,km,20251023-110609,1.0.1,20251023-100704,712,Introduction,Both,1,Automatic,main,5,20251023-110701,local,global,750,S,S,E,A,E-S.png,S-A.png,sS,sS,mask-4.png,mask-1.png,s,1,1.4912056000030134,s,1,0.25481939999735914,0.09884939999028575,0.09953029999451246,0.19972849999612663,0.1996311999973841,0.7500740999967093
RSVPLG03,km,20251023-110609,1.0.1,20251023-100704,712,Introduction,Both,1,Automatic,main,6,20251023-110707,local,global,750,H,S,E,E,E-H.png,S-E.png,hH,sS,mask-3.png,mask-4.png,h,1,0.9156747999950312,s,1,0.28670250000141095,0.09876880000228994,0.09918540000217035,0.19870860000082757,0.19952360000752378,0.7499698999890825
RSVPLG03,km,20251023-110609,1.0.1,20251023-100704,712,Introduction,Both,1,Automatic,main,7,20251023-110713,local,local,750,S,S,E,A,E-S.png,A-S.png,sS,sS,mask-3.png,mask-1.png,s,1,0.374234200004139,s,1,0.3839014999975916,0.09979829999792855,0.10102500001084991,0.2001921999908518,0.2008712000097148,0.75090659999114
RSVPLG03,km,20251023-110609,1.0.1,20251023-100704,712,Introduction,Both,1,Automatic,main,8,20251023-110718,local,local,750,S,S,A,A,A-S.png,A-S.png,sS,sS,mask-1.png,mask-1.png,s,1,0.3236341000010725,s,1,0.23555759999726433,0.09846250001282897,0.09976050000113901,0.20012310000311118,0.1995593000028748,0.7505460000102175
RSVPLG03,km,20251023-110609,1.0.1,20251023-100704,712,Introduction,Both,1,Automatic,main,9,20251023-110723,global,global,750,S,S,A,A,S-A.png,S-A.png,sS,sS,mask-2.png,mask-2.png,s,1,0.45959890000813175,s,1,0.2860980999976164,0.10033489999477752,0.1004667000088375,0.2002690000081202,0.20127710000087973,0.7513756999978796
RSVPLG03,km,20251023-110609,1.0.1,20251023-100704,712,Introduction,Both,1,Automatic,main,10,20251023-110728,global,global,750,H,H,E,A,H-E.png,H-A.png,hH,hH,mask-1.png,mask-1.png,h,1,0.35585370000626426,h,1,0.26588200000696816,0.09938240000337828,0.10069729998940602,0.19903709999925923,0.2009125999902608,0.7494912000111071
RSVPLG03,km,20251023-110609,1.0.1,20251023-100704,712,Introduction,Both,1,Automatic,main,11,20251023-110733,global,local,750,S,S,E,E,S-E.png,E-S.png,sS,sS,mask-2.png,mask-3.png,s,1,0.4241805000056047,s,1,0.3656459000048926,0.09943799999018665,0.10067770000023302,0.2000757999921916,0.20049820000713225,0.7500046999921324
RSVPLG03,km,20251023-110609,1.0.1,20251023-100704,712,Introduction,Both,1,Automatic,main,12,20251023-110738,local,global,750,H,H,A,E,A-H.png,H-E.png,hH,hH,mask-4.png,mask-2.png,h,1,0.35895259999961127,h,1,0.3041036000067834,0.10130289998778608,0.09842809999827296,0.20069149999471847,0.20027609998942353,0.7531013999978313
RSVPLG03,km,20251023-110609,1.0.1,20251023-100704,712,Introduction,Both,1,Automatic,main,13,20251023-110743,global,local,750,H,S,E,A,H-E.png,A-S.png,hH,sS,mask-4.png,mask-4.png,h,1,0.7090936000022339,s,1,0.30206689999613445,0.09995839999464806,0.10023559999535792,0.20011229999363422,0.20105449999391567,0.7517308999958914
RSVPLG03,km,20251023-110609,1.0.1,20251023-100704,712,Introduction,Both,1,Automatic,main,14,20251023-110749,local,global,750,H,S,A,A,A-H.png,S-A.png,hH,sS,mask-2.png,mask-4.png,h,1,0.3112546000047587,s,1,0.23879950000264216,0.10137040000699926,0.10054929999751039,0.20010880001063924,0.20052379999833647,0.7515544000052614
RSVPLG03,km,20251023-110609,1.0.1,20251023-100704,712,Introduction,Both,1,Automatic,main,15,20251023-110753,global,global,750,H,S,E,A,H-E.png,S-A.png,hH,sS,mask-3.png,mask-4.png,h,1,0.33269330000621267,s,1,0.20704200000909623,0.09861660000751726,0.09955669999180827,0.19907869999588002,0.19952229999762494,0.7509295000054408
RSVPLG03,km,20251023-110609,1.0.1,20251023-100704,712,Introduction,Both,1,Automatic,main,16,20251023-110758,local,local,750,H,H,A,A,A-H.png,A-H.png,hH,hH,mask-2.png,mask-1.png,h,1,0.2305149000021629,h,1,0.2666220999963116,0.0994459000066854,0.09843719999480527,0.2000121000019135,0.19933439999294933,0.7518063000024995
RSVPLG03,km,20251023-110823,1.0.1,20251023-100704,712,Practice,Both,1,Automatic,main,1,20251023-110844,local,local,300,S,H,E,A,E-S.png,A-H.png,sS,hH,mask-4.png,mask-4.png,s,1,1.1531789999862667,h,1,2.58928480000759,0.03874000000359956,0.04939369999920018,0.09010480000870302,0.0999557999894023,0.2903575000091223
RSVPLG03,km,20251023-110823,1.0.1,20251023-100704,712,Practice,Both,1,Automatic,main,2,20251023-110851,local,local,750,S,S,E,A,E-S.png,A-S.png,sS,sS,mask-2.png,mask-4.png,s,1,0.5915534000087064,h,0,0.2371871000068495,0.049793600002885796,0.04852649998792913,0.10018749999289867,0.10015669999120291,0.7508836000051815
RSVPLG03,km,20251023-110823,1.0.1,20251023-100704,712,Practice,Both,1,Automatic,main,3,20251023-110856,local,global,750,S,H,A,A,A-S.png,H-A.png,sS,hH,mask-4.png,mask-1.png,s,1,0.7986954000080004,h,1,0.2856041000050027,0.04900330000964459,0.05075080000096932,0.10093369999958668,0.09883410000475124,0.7494858999998542
RSVPLG03,km,20251023-110823,1.0.1,20251023-100704,712,Practice,Both,1,Automatic,main,4,20251023-110902,local,global,750,H,H,A,E,A-H.png,H-E.png,hH,hH,mask-2.png,mask-3.png,h,1,0.3959749999921769,h,1,0.22252239999943413,0.04979559998901095,0.048967900002026,0.09875229999306612,0.09924039999896195,0.748147299993434
RSVPLG03,km,20251023-110823,1.0.1,20251023-100704,712,Practice,Both,1,Automatic,main,5,20251023-110906,global,local,300,H,H,E,A,H-E.png,A-H.png,hH,hH,mask-1.png,mask-3.png,h,1,0.5176623000006657,s,0,1.3256648999958998,0.049480499990750104,0.05049340000550728,0.09930879999592435,0.09986090000893455,0.29944939998677
RSVPLG03,km,20251023-110823,1.0.1,20251023-100704,712,Practice,Both,1,Automatic,main,6,20251023-110912,global,local,750,S,H,A,E,S-A.png,E-H.png,sS,hH,mask-3.png,mask-1.png,s,1,0.560527199995704,s,0,0.2906351999990875,0.04972219999763183,0.04993339999055024,0.09935399999085348,0.09934859999339096,0.749890699997195
RSVPLG03,km,20251023-110823,1.0.1,20251023-100704,712,Practice,Both,1,Automatic,main,7,20251023-110917,local,global,300,H,H,A,E,A-H.png,H-E.png,hH,hH,mask-4.png,mask-3.png,h,1,0.4027903999958653,h,1,1.1478761000034865,0.049707300000591204,0.04869999999937136,0.09914620000927243,0.09858540000277571,0.29976650000025984
RSVPLG03,km,20251023-110823,1.0.1,20251023-100704,712,Practice,Both,1,Automatic,main,8,20251023-110922,global,local,300,S,H,E,A,S-E.png,A-H.png,sS,hH,mask-4.png,mask-2.png,s,1,0.54985910000687,h,1,0.14236019999952987,0.05053269999916665,0.0506430000095861,0.10061290000157896,0.10057110000343528,0.2996162999916123
RSVPLG03,km,20251023-110823,1.0.1,20251023-100704,712,Practice,Both,1,Automatic,main,9,20251023-110927,global,local,750,H,H,E,A,H-E.png,A-H.png,hH,hH,mask-2.png,mask-3.png,h,1,0.40502120000019204,h,1,0.20574809999379795,0.05137109999486711,0.04969820000405889,0.09989939999650232,0.09953439999662805,0.7503643999953056
RSVPLG03,km,20251023-110823,1.0.1,20251023-100704,712,Practice,Both,1,Automatic,main,10,20251023-110932,global,global,750,H,H,A,E,H-A.png,H-E.png,hH,hH,mask-4.png,mask-4.png,h,1,0.34834339999360964,h,1,0.3820920999860391,0.04975549998925999,0.04970809999213088,0.09962649999943096,0.10071280000556726,0.7492444999952568
RSVPLG03,km,20251023-110823,1.0.1,20251023-100704,712,Practice,Both,1,Automatic,main,11,20251023-110937,local,local,300,H,S,E,A,E-H.png,A-S.png,hH,sS,mask-4.png,mask-1.png,h,1,0.3759791999909794,h,0,0.1736945000011474,0.04988200000661891,0.04973660000541713,0.10039490000053775,0.10056000000622589,0.30032460000074934
RSVPLG03,km,20251023-110823,1.0.1,20251023-100704,712,Practice,Both,1,Automatic,main,12,20251023-110941,global,global,750,H,H,A,E,H-A.png,H-E.png,hH,hH,mask-3.png,mask-2.png,h,1,0.29040929999609943,h,1,0.20497330000216607,0.04850669999723323,0.05006680000224151,0.10023889999138191,0.09992320000310428,0.7504478999908315
RSVPLG03,km,20251023-110823,1.0.1,20251023-100704,712,Practice,Both,1,Automatic,main,13,20251023-110946,global,global,300,H,S,E,E,H-E.png,S-E.png,hH,sS,mask-2.png,mask-3.png,h,1,0.30662040000606794,s,1,0.12442010000813752,0.050139500002842396,0.05157579999649897,0.10010779999720398,0.10199619999912102,0.29789570000139065
RSVPLG03,km,20251023-110823,1.0.1,20251023-100704,712,Practice,Both,1,Automatic,main,14,20251023-110950,local,local,750,H,H,E,A,E-H.png,A-H.png,hH,hH,mask-1.png,mask-4.png,h,1,0.623992900000303,h,1,0.14292159999604337,0.04968820000067353,0.04873310000402853,0.09955749999789987,0.09972179999749642,0.7498775999993086
RSVPLG03,km,20251023-110823,1.0.1,20251023-100704,712,Practice,Both,1,Automatic,main,15,20251023-110955,local,global,300,S,H,A,A,A-S.png,H-A.png,sS,hH,mask-1.png,mask-2.png,s,1,0.3691821999964304,h,1,0.07754070000373758,0.05172829999355599,0.04967920000490267,0.10158509999746457,0.10022210000897758,0.3011503999878187
RSVPLG03,km,20251023-110823,1.0.1,20251023-100704,712,Practice,Both,1,Automatic,main,16,20251023-110959,global,global,300,S,H,A,A,S-A.png,H-A.png,sS,hH,mask-4.png,mask-1.png,s,1,0.28454179999243934,h,1,0.15854960000433493,0.05060529999900609,0.05148989999725018,0.10104130000399891,0.10090930000296794,0.2993101000029128
RSVPLG03,km,20251023-111103,1.0.1,20251023-100704,712,Experiment,Both,1,Automatic,warmup,1,20251023-111127,local,local,300,H,S,A,E,A-H.png,E-S.png,hH,sS,mask-4.png,mask-2.png,h,1,0.520468400005484,s,1,0.38452790000883397,0.037571299995761365,0.05068990000290796,0.0878041999967536,0.09999420000531245,0.2877404999890132
RSVPLG03,km,20251023-111103,1.0.1,20251023-100704,712,Experiment,Both,1,Automatic,warmup,2,20251023-111131,global,global,750,S,S,E,E,S-E.png,S-E.png,sS,sS,mask-3.png,mask-1.png,s,1,0.28627150000829715,s,1,0.17142100000637583,0.04972369999450166,0.05047230000491254,0.10152620000008028,0.10023050000017975,0.749352099999669
RSVPLG03,km,20251023-111103,1.0.1,20251023-100704,712,Experiment,Both,1,Automatic,warmup,3,20251023-111136,global,local,300,S,H,A,E,S-A.png,E-H.png,sS,hH,mask-2.png,mask-2.png,s,1,0.5695862000138732,s,0,1.1010929999902146,0.04756150000321213,0.05055729999730829,0.09894250000070315,0.1000726000056602,0.29781720000028145
RSVPLG03,km,20251023-111103,1.0.1,20251023-100704,712,Experiment,Both,1,Automatic,warmup,4,20251023-111141,local,global,300,H,S,E,A,E-H.png,S-A.png,hH,sS,mask-1.png,mask-3.png,s,0,0.4916310999979032,h,0,0.19063240000104997,0.04874790000030771,0.04870970000047237,0.1003101000096649,0.10035079999943264,0.2998401000077138
RSVPLG03,km,20251023-111103,1.0.1,20251023-100704,712,Experiment,Both,1,Automatic,warmup,5,20251023-111146,local,global,750,S,H,E,E,E-S.png,H-E.png,sS,hH,mask-4.png,mask-3.png,s,1,0.27959949999058153,h,1,0.1583178000000771,0.050042500006384216,0.049712099993485026,0.10129170000436716,0.10017049999441952,0.750092800008133
RSVPLG03,km,20251023-111103,1.0.1,20251023-100704,712,Experiment,Both,1,Automatic,main,6,20251023-111150,local,local,750,H,H,E,A,E-H.png,A-H.png,hH,hH,mask-3.png,mask-2.png,s,0,0.8576159999938682,h,1,0.12351679999846965,0.04784319999453146,0.050927199990837835,0.0988089000020409,0.10056510000140406,0.7471051000029547
RSVPLG03,km,20251023-111103,1.0.1,20251023-100704,712,Experiment,Both,1,Automatic,main,7,20251023-111156,global,local,300,S,S,E,E,S-E.png,E-S.png,sS,sS,mask-3.png,mask-4.png,s,1,0.3643607999983942,h,0,0.1435014000016963,0.049380999989807606,0.04918159999942873,0.09832859999733046,0.09956400000373833,0.2991094999888446
RSVPLG03,km,20251023-111103,1.0.1,20251023-100704,712,Experiment,Both,1,Automatic,main,8,20251023-111200,local,local,300,H,H,E,E,E-H.png,E-H.png,hH,hH,mask-3.png,mask-2.png,h,1,1.5056247000029543,h,1,0.4936617000057595,0.049466900003608316,0.0506801000010455,0.10000039999431465,0.1007168000069214,0.29989959999511484
RSVPLG03,km,20251023-111103,1.0.1,20251023-100704,712,Experiment,Both,1,Automatic,main,9,20251023-111206,local,global,750,S,H,A,A,A-S.png,H-A.png,sS,hH,mask-2.png,mask-2.png,h,0,1.1247413999954006,h,1,0.7020046000106959,0.04981699999189004,0.04922230000374839,0.10066929999447893,0.09958560000814032,0.7500852999946801
RSVPLG03,km,20251023-111103,1.0.1,20251023-100704,712,Experiment,Both,1,Automatic,main,10,20251023-111212,global,local,750,S,H,A,A,S-A.png,A-H.png,sS,hH,mask-3.png,mask-3.png,s,1,0.630332399989129,s,0,0.17393920000176877,0.049777599997469224,0.04971490000025369,0.09865899999567773,0.09942929999670014,0.7484345999982907
RSVPLG03,km,20251023-111103,1.0.1,20251023-100704,712,Experiment,Both,1,Automatic,main,11,20251023-111217,local,global,750,H,S,A,E,A-H.png,S-E.png,hH,sS,mask-4.png,mask-2.png,h,1,0.7130330999934813,s,1,0.20662959999754094,0.049220300003071316,0.04975759999069851,0.0989566000062041,0.0998006999870995,0.7494110000116052
RSVPLG03,km,20251023-111103,1.0.1,20251023-100704,712,Experiment,Both,1,Automatic,main,12,20251023-111222,global,global,750,S,S,E,E,S-E.png,S-E.png,sS,sS,mask-3.png,mask-3.png,s,1,0.31740470000659116,s,1,0.17550919999484904,0.049792299992986955,0.049822600005427375,0.09966379999241326,0.09853580000344664,0.7496043999999529
RSVPLG03,km,20251023-111103,1.0.1,20251023-100704,712,Experiment,Both,1,Automatic,main,13,20251023-111227,global,local,750,S,S,E,A,S-E.png,A-S.png,sS,sS,mask-4.png,mask-3.png,s,1,0.2880429000069853,s,1,1.1144186000019545,0.05042919999687001,0.04957560000184458,0.09935210000548977,0.09925820000353269,0.7491828000056557
RSVPLG03,km,20251023-111103,1.0.1,20251023-100704,712,Experiment,Both,1,Automatic,main,14,20251023-111232,global,local,300,H,H,A,E,H-A.png,E-H.png,hH,hH,mask-3.png,mask-1.png,h,1,0.43473989999620244,s,0,0.20562300000165123,0.048874500003876165,0.049334299998008646,0.0994046999985585,0.0998053999937838,0.29951230000006035
RSVPLG03,km,20251023-111103,1.0.1,20251023-100704,712,Experiment,Both,1,Automatic,main,15,20251023-111237,local,global,300,S,H,E,E,E-S.png,H-E.png,sS,hH,mask-2.png,mask-4.png,s,1,0.4424373000074411,h,1,1.0862532000028295,0.05029929999727756,0.050863999989815056,0.10014740000769962,0.10072499999660067,0.2998365000094054
RSVPLG03,km,20251023-111103,1.0.1,20251023-100704,712,Experiment,Both,1,Automatic,main,16,20251023-111242,global,global,300,S,S,E,A,S-E.png,S-A.png,sS,sS,mask-3.png,mask-3.png,s,1,0.23664289999578614,h,0,0.7008370000112336,0.04761300000245683,0.04839389999688137,0.09774640000250656,0.09996880000107922,0.29877269999997225
RSVPLG03,km,20251023-111103,1.0.1,20251023-100704,712,Experiment,Both,1,Automatic,main,17,20251023-111247,local,local,750,S,H,E,E,E-S.png,E-H.png,sS,hH,mask-3.png,mask-2.png,s,1,0.19559429999208078,s,0,0.1537365999975009,0.04967429999669548,0.05069569998886436,0.1004967999906512,0.10053559999505524,0.7499887000012677
RSVPLG03,km,20251023-111103,1.0.1,20251023-100704,712,Experiment,Both,1,Automatic,main,18,20251023-111251,global,global,300,H,H,A,A,H-A.png,H-A.png,hH,hH,mask-1.png,mask-2.png,h,1,0.4973920999909751,s,0,0.23774100000446197,0.05165360000682995,0.04963420001149643,0.10015130000829231,0.10036670000408776,0.3006205999990925
RSVPLG03,km,20251023-111103,1.0.1,20251023-100704,712,Experiment,Both,1,Automatic,main,19,20251023-111256,local,global,750,S,H,E,A,E-S.png,H-A.png,sS,hH,mask-2.png,mask-4.png,s,1,0.31897100000060163,h,1,0.1425337000109721,0.049753599989344366,0.050396699996781535,0.09856800000125077,0.09980009999708273,0.748178599998937
RSVPLG03,km,20251023-111103,1.0.1,20251023-100704,712,Experiment,Both,1,Automatic,main,20,20251023-111301,local,global,750,S,H,A,A,A-S.png,H-A.png,sS,hH,mask-2.png,mask-2.png,s,1,0.34991509999963455,h,1,0.15929930000856984,0.04957069999363739,0.04978329999721609,0.09789889999956358,0.0997159999969881,0.7485897000005934
RSVPLG03,km,20251023-111103,1.0.1,20251023-100704,712,Experiment,Both,1,Automatic,main,21,20251023-111305,local,global,300,S,S,A,A,A-S.png,S-A.png,sS,sS,mask-1.png,mask-1.png,s,1,0.28337330000067595,h,0,0.3845084000058705,0.04978020000271499,0.04975619999459013,0.0987953000003472,0.09980880000512116,0.298699699997087
RSVPLG03,km,20251023-111103,1.0.1,20251023-100704,712,Experiment,Both,1,Automatic,main,22,20251023-111310,global,global,300,S,H,A,A,S-A.png,H-A.png,sS,hH,mask-2.png,mask-1.png,s,1,0.22264870000071824,s,0,0.1902970999944955,0.05074759999115486,0.049613099996349774,0.10049029999936465,0.10008399999060202,0.30090020000352524
RSVPLG03,km,20251023-111103,1.0.1,20251023-100704,712,Experiment,Both,1,Automatic,main,23,20251023-111314,local,global,300,S,S,A,E,A-S.png,S-E.png,sS,sS,mask-3.png,mask-4.png,s,1,0.18765869998605922,h,0,0.10987970000132918,0.0492855999909807,0.04920530000526924,0.10071549999702256,0.09995420000632294,0.3000439999887021
RSVPLG03,km,20251023-111103,1.0.1,20251023-100704,712,Experiment,Both,1,Automatic,main,24,20251023-111318,global,local,750,H,S,A,A,H-A.png,A-S.png,hH,sS,mask-1.png,mask-2.png,h,1,2.0912433000048622,s,1,0.24184929998591542,0.05113000000710599,0.05049280000093859,0.1018095000035828,0.10054560001299251,0.749584799996228
RSVPLG03,km,20251023-111103,1.0.1,20251023-100704,712,Experiment,Both,1,Automatic,main,25,20251023-111325,local,local,750,S,H,A,A,A-S.png,A-H.png,sS,hH,mask-2.png,mask-3.png,s,1,2.133065499991062,h,1,0.22165450001193676,0.049813799996627495,0.05014470001333393,0.10081839999475051,0.1015431000123499,0.748693599991384
RSVPLG03,km,20251023-111103,1.0.1,20251023-100704,712,Experiment,Both,1,Automatic,main,26,20251023-111335,local,global,300,S,H,A,E,A-S.png,H-E.png,sS,hH,mask-2.png,mask-1.png,s,1,0.38945410000451375,h,1,0.2240153000020655,0.04980150000483263,0.05065689999901224,0.09960729999875184,0.10015019999991637,0.2991148000000976
RSVPLG03,km,20251023-111103,1.0.1,20251023-100704,712,Experiment,Both,1,Automatic,main,27,20251023-111339,local,global,750,S,S,A,E,A-S.png,S-E.png,sS,sS,mask-1.png,mask-2.png,s,1,0.4654405999899609,h,0,0.8146106000058353,0.04973709999467246,0.049717499990947545,0.09954139999172185,0.09961159998783842,0.7486395000014454
RSVPLG03,km,20251023-111103,1.0.1,20251023-100704,712,Experiment,Both,1,Automatic,main,28,20251023-111345,global,global,300,S,H,E,A,S-E.png,H-A.png,sS,hH,mask-4.png,mask-3.png,s,1,0.40497299999697134,h,1,0.2648366000066744,0.04965719999745488,0.050691399999777786,0.09875319999991916,0.0999934999999823,0.2987887000053888
RSVPLG03,km,20251023-111103,1.0.1,20251023-100704,712,Experiment,Both,1,Automatic,main,29,20251023-111349,local,local,750,H,H,E,E,E-H.png,E-H.png,hH,hH,mask-1.png,mask-1.png,h,1,0.5573475000128383,s,0,0.46141970000462607,0.04972280000220053,0.0487386000022525,0.0994972000044072,0.09952829999383539,0.7501431999990018
RSVPLG03,km,20251023-111103,1.0.1,20251023-100704,712,Experiment,Both,1,Automatic,main,30,20251023-111355,local,local,300,S,H,A,E,A-S.png,E-H.png,sS,hH,mask-4.png,mask-2.png,s,1,0.30347009999968577,h,1,1.0045993999956409,0.04942819999996573,0.05011270000250079,0.10057779999624472,0.10162929999933112,0.2990241999941645
RSVPLG03,km,20251023-111103,1.0.1,20251023-100704,712,Experiment,Both,1,Automatic,main,31,20251023-111400,local,local,750,S,H,A,E,A-S.png,E-H.png,sS,hH,mask-3.png,mask-2.png,s,1,0.599231600004714,h,1,0.0782556000049226,0.048676699996576644,0.049782399990363047,0.09951000000000931,0.09982359998684842,0.7493771000008564
RSVPLG03,km,20251023-111103,1.0.1,20251023-100704,712,Experiment,Both,1,Automatic,main,32,20251023-111405,global,global,750,H,H,A,E,H-A.png,H-E.png,hH,hH,mask-4.png,mask-4.png,h,1,0.30060629999206867,s,0,0.49479679999058135,0.051200499990954995,0.049919700002647005,0.10152669998933561,0.09984120000444818,0.7502879999956349
RSVPLG03,km,20251023-111103,1.0.1,20251023-100704,712,Experiment,Both,1,Automatic,main,33,20251023-111410,local,global,750,S,S,A,A,A-S.png,S-A.png,sS,sS,mask-1.png,mask-2.png,s,1,0.2805106000014348,h,0,0.1759794000099646,0.04968589999771211,0.04871040000580251,0.0983970999950543,0.09855140000581741,0.7494868999929167
RSVPLG03,km,20251023-111103,1.0.1,20251023-100704,712,Experiment,Both,1,Automatic,main,34,20251023-111414,global,local,750,S,S,A,A,S-A.png,A-S.png,sS,sS,mask-3.png,mask-4.png,s,1,0.3448833000002196,h,0,0.1724988000059966,0.050547199993161485,0.049676099995849654,0.10007749999931548,0.09947739999915939,0.7505436999927042
RSVPLG03,km,20251023-111103,1.0.1,20251023-100704,712,Experiment,Both,1,Automatic,main,35,20251023-111419,local,local,300,S,H,A,A,A-S.png,A-H.png,sS,hH,mask-1.png,mask-4.png,s,1,0.928318100006436,s,0,0.6869458000001032,0.05073259999335278,0.04975249999552034,0.10055989999091253,0.09983019999344833,0.29941649999818765
RSVPLG03,km,20251023-111103,1.0.1,20251023-100704,712,Experiment,Both,1,Automatic,main,36,20251023-111425,local,global,750,S,S,E,E,E-S.png,S-E.png,sS,sS,mask-4.png,mask-4.png,s,1,0.34951729999738745,s,1,0.1726968000002671,0.05039269999542739,0.050224999999045394,0.10037079999165144,0.09997809999913443,0.7483166000019992
RSVPLG03,km,20251023-111103,1.0.1,20251023-100704,712,Experiment,Both,1,Automatic,main,37,20251023-111429,global,local,750,H,H,A,E,H-A.png,E-H.png,hH,hH,mask-4.png,mask-3.png,h,1,0.25656350000645034,s,0,0.06157429999439046,0.04990120000729803,0.049564799992367625,0.09983910000300966,0.0991552000050433,0.7500177000038093
RSVPLG03,km,20251023-111103,1.0.1,20251023-100704,712,Experiment,Both,1,Automatic,main,38,20251023-111434,local,local,750,S,H,E,A,E-S.png,A-H.png,sS,hH,mask-1.png,mask-4.png,s,1,0.5284399000083795,h,1,0.2073882999975467,0.04861130000790581,0.05015779999666847,0.09991069999523461,0.10049460000300314,0.7487727999978233
RSVPLG03,km,20251023-111103,1.0.1,20251023-100704,712,Experiment,Both,1,Automatic,main,39,20251023-111439,global,local,300,H,S,A,A,H-A.png,A-S.png,hH,sS,mask-4.png,mask-1.png,h,1,0.5708307000022614,h,0,0.46262299999943934,0.04959229999803938,0.04919710000103805,0.09992710000369698,0.09954670000297483,0.30024779999803286
RSVPLG03,km,20251023-111103,1.0.1,20251023-100704,712,Experiment,Both,1,Automatic,main,40,20251023-111444,global,local,750,H,H,E,A,H-E.png,A-H.png,hH,hH,mask-4.png,mask-2.png,h,1,0.2620759999990696,h,1,0.17446199999540113,0.049713700005668215,0.049552099997526966,0.09968500000832137,0.09824560000561178,0.7498967999999877
RSVPLG03,km,20251023-111103,1.0.1,20251023-100704,712,Experiment,Both,1,Automatic,main,41,20251023-111448,local,global,300,S,S,E,E,E-S.png,S-E.png,sS,sS,mask-3.png,mask-4.png,s,1,0.31365749999531545,s,1,0.18908450000162702,0.04973249998874962,0.04933659998641815,0.1005822999868542,0.0995103999885032,0.30098960000032093
RSVPLG03,km,20251023-111103,1.0.1,20251023-100704,712,Experiment,Both,1,Automatic,main,42,20251023-111453,global,global,300,S,S,A,A,S-A.png,S-A.png,sS,sS,mask-2.png,mask-4.png,s,1,0.28167620000022,s,1,0.15600170000107028,0.050243600009707734,0.050447999994503334,0.10028860000602435,0.10054529999615625,0.2998570000054315
RSVPLG03,km,20251023-111103,1.0.1,20251023-100704,712,Experiment,Both,1,Automatic,main,43,20251023-111457,local,local,750,H,H,E,A,E-H.png,A-H.png,hH,hH,mask-2.png,mask-3.png,s,0,0.34397339999850374,h,1,0.4960145999939414,0.04994230000011157,0.04851280000002589,0.09997589999693446,0.09968980000121519,0.7494605999963824
RSVPLG03,km,20251023-111103,1.0.1,20251023-100704,712,Experiment,Both,1,Automatic,main,44,20251023-111502,global,global,750,H,S,E,A,H-E.png,S-A.png,hH,sS,mask-1.png,mask-3.png,h,1,0.1546607999916887,s,1,0.14161439999588765,0.04984910000348464,0.04983489999722224,0.09982469999522436,0.09996039999532513,0.7504903000080958
RSVPLG03,km,20251023-111103,1.0.1,20251023-100704,712,Experiment,Both,1,Automatic,main,45,20251023-111506,global,global,300,H,S,A,A,H-A.png,S-A.png,hH,sS,mask-1.png,mask-3.png,h,1,0.6299081000033766,s,1,0.0430322000029264,0.050833900008001365,0.050681799999438226,0.10005360000650398,0.10007529999711551,0.2995771000132663
RSVPLG03,km,20251023-111103,1.0.1,20251023-100704,712,Experiment,Both,1,Automatic,main,46,20251023-111511,local,global,750,H,H,A,A,A-H.png,H-A.png,hH,hH,mask-3.png,mask-3.png,h,1,0.14449690000037663,h,1,0.17409580000094138,0.05068260000552982,0.05080660000385251,0.10130530000606086,0.10072190000209957,0.7499660000030417
RSVPLG03,km,20251023-111103,1.0.1,20251023-100704,712,Experiment,Both,1,Automatic,main,47,20251023-111515,global,global,750,H,S,A,E,H-A.png,S-E.png,hH,sS,mask-3.png,mask-2.png,h,1,0.2681157000042731,s,1,0.12514560000272468,0.04972029999771621,0.050152399999205954,0.0994998999958625,0.10001940000802279,0.7472995999996783
RSVPLG03,km,20251023-111103,1.0.1,20251023-100704,712,Experiment,Both,1,Automatic,main,48,20251023-111520,global,local,300,S,S,A,E,S-A.png,E-S.png,sS,sS,mask-1.png,mask-3.png,s,1,0.24546689999988303,s,1,0.18889640000998043,0.049100999996881,0.05107299999508541,0.09914330000174232,0.1008981000049971,0.29885409999405965
RSVPLG03,km,20251023-111103,1.0.1,20251023-100704,712,Experiment,Both,1,Automatic,main,49,20251023-111524,local,global,300,S,S,E,A,E-S.png,S-A.png,sS,sS,mask-4.png,mask-3.png,s,1,0.8387172000075225,h,0,0.429390000004787,0.049707300000591204,0.05008040000393521,0.09957929998927284,0.09923690000141505,0.2994534999888856
RSVPLG03,km,20251023-111103,1.0.1,20251023-100704,712,Experiment,Both,1,Automatic,main,50,20251023-111529,global,local,750,H,H,A,A,H-A.png,A-H.png,hH,hH,mask-3.png,mask-3.png,h,1,0.6112632000003941,s,0,0.14141840000229422,0.04886409999744501,0.04972979999729432,0.0971789000032004,0.0995658000028925,0.7471602000005078
RSVPLG03,km,20251023-111103,1.0.1,20251023-100704,712,Experiment,Both,1,Automatic,main,51,20251023-111537,global,local,300,H,S,A,E,H-A.png,E-S.png,hH,sS,mask-1.png,mask-1.png,h,1,0.308386699995026,h,0,0.3516494000068633,0.049689999999827705,0.049699600000167266,0.09957659999781754,0.09957360000407789,0.30018619999464136
RSVPLG03,km,20251023-111103,1.0.1,20251023-100704,712,Experiment,Both,1,Automatic,main,52,20251023-111541,global,global,300,S,S,A,A,S-A.png,S-A.png,sS,sS,mask-1.png,mask-3.png,s,1,0.42425229999935254,s,1,0.15650869999080896,0.05069550000189338,0.04941530000360217,0.10050119999505114,0.10111230000620708,0.2993335999926785
RSVPLG03,km,20251023-111103,1.0.1,20251023-100704,712,Experiment,Both,1,Automatic,main,53,20251023-111545,local,local,300,H,S,A,E,A-H.png,E-S.png,hH,sS,mask-1.png,mask-2.png,s,0,1.1046878999914043,s,1,0.14358740000170656,0.049530000003869645,0.049046200001612306,0.10020510001049843,0.09974849999707658,0.3006195000052685
RSVPLG03,km,20251023-111103,1.0.1,20251023-100704,712,Experiment,Both,1,Automatic,main,54,20251023-111550,global,global,300,S,S,E,E,S-E.png,S-E.png,sS,sS,mask-1.png,mask-2.png,s,1,0.23385330000019167,s,1,0.17354019999038428,0.0497758999990765,0.049757400003727525,0.09871829999610782,0.09993510000640526,0.29852549999486655
RSVPLG03,km,20251023-111103,1.0.1,20251023-100704,712,Experiment,Both,1,Automatic,main,55,20251023-111555,global,global,300,H,H,E,E,H-E.png,H-E.png,hH,hH,mask-1.png,mask-2.png,h,1,0.16545879999466706,h,1,0.1745057999942219,0.04882680000446271,0.049682999990182,0.0997882999945432,0.09952669999620412,0.29843670000263955
RSVPLG03,km,20251023-111103,1.0.1,20251023-100704,712,Experiment,Both,1,Automatic,main,56,20251023-111559,local,local,750,S,S,A,A,A-S.png,A-S.png,sS,sS,mask-2.png,mask-2.png,s,1,0.9773115999996662,s,1,0.6535072000115179,0.04958410000836011,0.050282900003367104,0.09999529999913648,0.09897580000688322,0.7505444999987958
RSVPLG03,km,20251023-111103,1.0.1,20251023-100704,712,Experiment,Both,1,Automatic,main,57,20251023-111605,global,global,750,S,H,E,A,S-E.png,H-A.png,sS,hH,mask-4.png,mask-1.png,s,1,0.5371022999897832,h,1,0.1900051000120584,0.04972999999881722,0.05001349998929072,0.09871740000380669,0.10018539999146014,0.7486120000103256
RSVPLG03,km,20251023-111103,1.0.1,20251023-100704,712,Experiment,Both,1,Automatic,main,58,20251023-111610,local,global,750,S,H,A,E,A-S.png,H-E.png,sS,hH,mask-1.png,mask-4.png,s,1,0.8576216000074055,h,1,1.9498133000015514,0.0487074999982724,0.04950519998965319,0.09942279999086168,0.1006539999943925,0.7481714000023203
RSVPLG03,km,20251023-111103,1.0.1,20251023-100704,712,Experiment,Both,1,Automatic,main,59,20251023-111617,local,global,750,S,H,A,E,A-S.png,H-E.png,sS,hH,mask-1.png,mask-1.png,s,1,0.10579580000194255,h,1,0.5554824999999255,0.04888959998788778,0.04878630000166595,0.09892829999444075,0.1000167999882251,0.7489067999995314
RSVPLG03,km,20251023-111103,1.0.1,20251023-100704,712,Experiment,Both,1,Automatic,main,60,20251023-111622,local,global,300,S,S,E,A,E-S.png,S-A.png,sS,sS,mask-1.png,mask-2.png,s,1,0.27344170000287704,s,1,0.23739190000924282,0.04877880000276491,0.049490800010971725,0.09861919999821112,0.09837210000841878,0.30010029999539256
RSVPLG03,km,20251023-111103,1.0.1,20251023-100704,712,Experiment,Both,1,Automatic,main,61,20251023-111626,global,global,750,S,S,A,A,S-A.png,S-A.png,sS,sS,mask-3.png,mask-2.png,s,1,0.14443939999910071,s,1,0.11056840000674129,0.050731799987261184,0.04894809999677818,0.10060729998804163,0.09978369998862036,0.7496845999994548
RSVPLG03,km,20251023-111103,1.0.1,20251023-100704,712,Experiment,Both,1,Automatic,main,62,20251023-111630,local,local,300,H,H,A,A,A-H.png,A-H.png,hH,hH,mask-3.png,mask-3.png,h,1,0.22838210000190884,h,1,0.09422480000648648,0.050701300002401695,0.04824940000253264,0.09953849999874365,0.09942510000837501,0.30082609999226406
RSVPLG03,km,20251023-111103,1.0.1,20251023-100704,712,Experiment,Both,1,Automatic,main,63,20251023-111634,global,local,300,H,H,A,A,H-A.png,A-H.png,hH,hH,mask-2.png,mask-1.png,h,1,0.2901614000002155,h,1,0.13061959999322426,0.05157490000419784,0.050219800003105775,0.10082259999762755,0.10005009999440517,0.30107200000202283
RSVPLG03,km,20251023-111103,1.0.1,20251023-100704,712,Experiment,Both,1,Automatic,main,64,20251023-111639,local,local,300,H,H,A,A,A-H.png,A-H.png,hH,hH,mask-4.png,mask-1.png,h,1,0.16337629999907222,h,1,0.204423900009715,0.05071329999191221,0.049761899994337,0.10052719998930115,0.09908159999758936,0.3005245999956969
RSVPLG03,km,20251023-111103,1.0.1,20251023-100704,712,Experiment,Both,1,Automatic,main,65,20251023-111643,global,local,300,S,H,A,A,S-A.png,A-H.png,sS,hH,mask-4.png,mask-4.png,s,1,0.15264590000151657,s,0,0.174922999998671,0.049010499991709366,0.05021050000505056,0.09993260000192095,0.09998129999439698,0.2990191999997478
RSVPLG03,km,20251023-111103,1.0.1,20251023-100704,712,Experiment,Both,1,Automatic,main,66,20251023-111647,global,global,750,S,H,A,E,S-A.png,H-E.png,sS,hH,mask-3.png,mask-2.png,s,1,0.9124829999927897,h,1,0.11056030000327155,0.04889530000218656,0.0515536000020802,0.0989145999919856,0.10040580001077615,0.7482310999912443
RSVPLG03,km,20251023-111103,1.0.1,20251023-100704,712,Experiment,Both,1,Automatic,main,67,20251023-111652,global,local,300,H,S,E,A,H-E.png,A-S.png,hH,sS,mask-3.png,mask-2.png,h,1,0.2684283999988111,h,0,0.13903779999236576,0.0506009999953676,0.05058969999663532,0.0995653999998467,0.10004970000591129,0.2985655999946175
RSVPLG03,km,20251023-111103,1.0.1,20251023-100704,712,Experiment,Both,1,Automatic,main,68,20251023-111656,global,global,300,S,S,A,A,S-A.png,S-A.png,sS,sS,mask-3.png,mask-3.png,s,1,0.12792070000432432,s,1,0.13997410000592936,0.0496794999926351,0.05126429999654647,0.10081699999864213,0.10163230000762269,0.2990245999972103
RSVPLG03,km,20251023-111103,1.0.1,20251023-100704,712,Experiment,Both,1,Automatic,main,69,20251023-111700,local,local,750,S,S,E,E,E-S.png,E-S.png,sS,sS,mask-4.png,mask-3.png,h,0,3.345341799999005,h,0,0.1264112000062596,0.051579899998614565,0.04953409999143332,0.1013820000080159,0.10120659999665804,0.7495936000050278
RSVPLG03,km,20251023-111103,1.0.1,20251023-100704,712,Experiment,Both,1,Automatic,main,70,20251023-111708,global,local,750,S,H,E,E,S-E.png,E-H.png,sS,hH,mask-4.png,mask-2.png,s,1,0.29091860000335146,s,0,0.34985579999920446,0.050335799998720177,0.05028209999727551,0.09942919999593869,0.09959199999866541,0.7498249000054784
RSVPLG03,km,20251023-111103,1.0.1,20251023-100704,712,Experiment,Both,1,Automatic,main,71,20251023-111713,local,local,300,H,S,A,E,A-H.png,E-S.png,hH,sS,mask-2.png,mask-1.png,h,1,1.0105734999960987,s,1,0.1423108000017237,0.050348599994322285,0.049649099993985146,0.10161599999992177,0.0981407999934163,0.301415599999018
RSVPLG03,km,20251023-111103,1.0.1,20251023-100704,712,Experiment,Both,1,Automatic,main,72,20251023-111718,local,local,750,S,S,E,E,E-S.png,E-S.png,sS,sS,mask-4.png,mask-4.png,s,1,0.33244189999822993,s,1,0.1284836999984691,0.04970109999703709,0.04953559998830315,0.10097749999840744,0.09940879998612218,0.749914500003797
RSVPLG03,km,20251023-111103,1.0.1,20251023-100704,712,Experiment,Both,1,Automatic,main,73,20251023-111722,global,local,300,H,H,A,A,H-A.png,A-H.png,hH,hH,mask-3.png,mask-3.png,h,1,0.4324912000010954,s,0,0.07908520000637509,0.050762099999701604,0.04942299998947419,0.10096920000796672,0.09915059999912046,0.30031800000870135
RSVPLG03,km,20251023-111103,1.0.1,20251023-100704,712,Experiment,Both,1,Automatic,main,74,20251023-111727,local,local,750,H,S,A,E,A-H.png,E-S.png,hH,sS,mask-2.png,mask-1.png,h,1,0.17673019999347162,s,1,0.3663945999869611,0.04868700000224635,0.04970359998696949,0.09864260000176728,0.09855619999871124,0.7500858000130393
RSVPLG03,km,20251023-111103,1.0.1,20251023-100704,712,Experiment,Both,1,Automatic,main,75,20251023-111731,global,local,300,S,S,A,A,S-A.png,A-S.png,sS,sS,mask-3.png,mask-4.png,s,1,0.3097628999967128,h,0,0.5875506000011228,0.050669400006881915,0.05004840000765398,0.10167800000635907,0.10170549999747891,0.2998410000000149
RSVPLG03,km,20251023-111103,1.0.1,20251023-100704,712,Experiment,Both,1,Automatic,main,76,20251023-111738,global,local,300,H,S,A,A,H-A.png,A-S.png,hH,sS,mask-1.png,mask-4.png,s,0,0.5705988999980036,h,0,0.1445330999995349,0.05101259998627938,0.04759550000017043,0.10095679998630658,0.09922479999659117,0.3014480999991065
RSVPLG03,km,20251023-111103,1.0.1,20251023-100704,712,Experiment,Both,1,Automatic,main,77,20251023-111743,global,local,750,S,S,A,A,S-A.png,A-S.png,sS,sS,mask-1.png,mask-1.png,s,1,0.20577610000327695,s,1,0.20626969999284483,0.04988809999485966,0.049336600000970066,0.09991309999895748,0.10124319999886211,0.7483893000026001
RSVPLG03,km,20251023-111103,1.0.1,20251023-100704,712,Experiment,Both,1,Automatic,main,78,20251023-111747,global,local,750,S,H,E,E,S-E.png,E-H.png,sS,hH,mask-3.png,mask-2.png,s,1,0.11385969999537338,s,0,0.635885399999097,0.04970289999619126,0.04969860000710469,0.09950989999924786,0.09822830000484828,0.7497282999975141
RSVPLG03,km,20251023-111103,1.0.1,20251023-100704,712,Experiment,Both,1,Automatic,main,79,20251023-111752,global,local,300,S,H,A,E,S-A.png,E-H.png,sS,hH,mask-4.png,mask-3.png,s,1,0.24035219999495894,s,0,0.23844660000759177,0.050696000005700625,0.049151599989272654,0.09993470000335947,0.10004989999288227,0.3005723000096623
RSVPLG03,km,20251023-111103,1.0.1,20251023-100704,712,Experiment,Both,1,Automatic,main,80,20251023-111756,global,local,750,H,H,A,E,H-A.png,E-H.png,hH,hH,mask-1.png,mask-1.png,h,1,0.292199100003927,h,1,0.9618390999967232,0.0499091999954544,0.04920959999435581,0.09992039999633562,0.09927330000209622,0.7493733000010252
RSVPLG03,km,20251023-111103,1.0.1,20251023-100704,712,Experiment,Both,1,Automatic,main,81,20251023-111802,global,global,750,S,S,E,A,S-E.png,S-A.png,sS,sS,mask-3.png,mask-1.png,s,1,0.3737618000013754,h,0,0.2392556999984663,0.05045559999416582,0.04954010000801645,0.09996680000040215,0.09841040000901558,0.7505456999933813
RSVPLG03,km,20251023-111103,1.0.1,20251023-100704,712,Experiment,Both,1,Automatic,main,82,20251023-111807,local,local,300,H,S,A,E,A-H.png,E-S.png,hH,sS,mask-3.png,mask-3.png,h,1,0.3262438999954611,s,1,0.22151899999880698,0.051727400001254864,0.04861729999538511,0.10159659999771975,0.09867249999660999,0.3002295000042068
RSVPLG03,km,20251023-111103,1.0.1,20251023-100704,712,Experiment,Both,1,Automatic,main,83,20251023-111811,global,local,750,H,S,A,A,H-A.png,A-S.png,hH,sS,mask-2.png,mask-2.png,h,1,0.1463201000005938,h,0,0.7521411000052467,0.0488096999906702,0.0497048000106588,0.10000829999626148,0.09957740000390913,0.7497980999905849
RSVPLG03,km,20251023-111103,1.0.1,20251023-100704,712,Experiment,Both,1,Automatic,main,84,20251023-111816,local,local,750,H,S,A,A,A-H.png,A-S.png,hH,sS,mask-4.png,mask-2.png,h,1,0.41758090000075754,s,1,0.1415782000112813,0.04935489999479614,0.049685599995427765,0.09906439999758732,0.09846090000064578,0.749743699998362
RSVPLG03,km,20251023-111103,1.0.1,20251023-100704,712,Experiment,Both,1,Automatic,main,85,20251023-111821,global,local,300,S,S,E,A,S-E.png,A-S.png,sS,sS,mask-4.png,mask-1.png,s,1,0.48360380000667647,h,0,0.1274532000097679,0.04985469998791814,0.04873640000005253,0.10051829999429174,0.09928080000099726,0.3005861999990884
RSVPLG03,km,20251023-111103,1.0.1,20251023-100704,712,Experiment,Both,1,Automatic,main,86,20251023-111825,local,local,750,S,S,E,A,E-S.png,A-S.png,sS,sS,mask-4.png,mask-1.png,s,1,0.6794456000061473,h,0,0.22254229999089148,0.04859839999699034,0.049726500001270324,0.0993159000063315,0.09955539999646135,0.7483473000029335
RSVPLG03,km,20251023-111103,1.0.1,20251023-100704,712,Experiment,Both,1,Automatic,main,87,20251023-111830,local,local,750,H,S,E,A,E-H.png,A-S.png,hH,sS,mask-2.png,mask-3.png,h,1,0.3006823000032455,s,1,0.14192069999990053,0.050370299999485724,0.04959330000565387,0.09997540000767913,0.10145319999719504,0.7492700000002515
RSVPLG03,km,20251023-111103,1.0.1,20251023-100704,712,Experiment,Both,1,Automatic,main,88,20251023-111835,local,local,300,S,H,A,E,A-S.png,E-H.png,sS,hH,mask-2.png,mask-2.png,s,1,0.5115674000116996,s,0,1.0050118000071961,0.050737400000798516,0.04832869999518152,0.10070989999803714,0.09872139999060892,0.3007534000062151
RSVPLG03,km,20251023-111103,1.0.1,20251023-100704,712,Experiment,Both,1,Automatic,main,89,20251023-111840,local,local,300,H,S,A,E,A-H.png,E-S.png,hH,sS,mask-2.png,mask-2.png,h,1,0.4394603999971878,s,1,0.174495700004627,0.04766890000610147,0.049815799997304566,0.0980044000025373,0.10047760000452399,0.2991997000062838
RSVPLG03,km,20251023-111103,1.0.1,20251023-100704,712,Experiment,Both,1,Automatic,main,90,20251023-111845,local,local,300,H,S,E,E,E-H.png,E-S.png,hH,sS,mask-1.png,mask-3.png,h,1,0.15239079999446403,s,1,0.19119189999764785,0.04997849999926984,0.048989800008712336,0.09787170001072809,0.10092880000593141,0.2985932000010507
RSVPLG03,km,20251023-111103,1.0.1,20251023-100704,712,Experiment,Both,1,Automatic,main,91,20251023-111849,global,global,300,H,S,A,E,H-A.png,S-E.png,hH,sS,mask-2.png,mask-1.png,h,1,0.4038117999880342,s,1,0.1745398000057321,0.05139590000908356,0.04826359999424312,0.10169150000729132,0.09915629999886733,0.30172430000675377
RSVPLG03,km,20251023-111103,1.0.1,20251023-100704,712,Experiment,Both,1,Automatic,main,92,20251023-111853,global,global,300,S,H,A,E,S-A.png,H-E.png,sS,hH,mask-4.png,mask-4.png,h,0,1.0759382999967784,s,0,0.12627329998940695,0.05054050000035204,0.05105870000261348,0.10048419999657199,0.10022389999357983,0.29931450000731274
RSVPLG03,km,20251023-111103,1.0.1,20251023-100704,712,Experiment,Both,1,Automatic,main,93,20251023-111858,local,local,300,S,S,A,A,A-S.png,A-S.png,sS,sS,mask-4.png,mask-4.png,s,1,0.20498910000605974,s,1,0.33419660000072327,0.049629200002527796,0.04844670000602491,0.09983449999708682,0.10022870000102557,0.30000859999563545
RSVPLG03,km,20251023-111103,1.0.1,20251023-100704,712,Experiment,Both,1,Automatic,main,94,20251023-111902,local,global,300,H,S,A,E,A-H.png,S-E.png,hH,sS,mask-2.png,mask-4.png,h,1,0.0405344999890076,s,1,0.17092140000022482,0.04967400000896305,0.048642399997333996,0.09949300000153016,0.09936520000337623,0.2999529000080656
RSVPLG03,km,20251023-111103,1.0.1,20251023-100704,712,Experiment,Both,1,Automatic,main,95,20251023-111906,global,local,300,H,S,A,E,H-A.png,E-S.png,hH,sS,mask-2.png,mask-4.png,h,1,0.16649999999208376,s,1,0.14153920000535436,0.04873270000098273,0.047807499999180436,0.10005539999110624,0.09914810000918806,0.2994293999945512
RSVPLG03,km,20251023-111103,1.0.1,20251023-100704,712,Experiment,Both,1,Automatic,main,96,20251023-111911,global,local,300,H,H,E,A,H-E.png,A-H.png,hH,hH,mask-1.png,mask-4.png,h,1,0.13186449999921024,s,0,0.11181790000409819,0.05029620000277646,0.04927509999834001,0.0997056999913184,0.09968710000975989,0.2998380999924848
RSVPLG03,km,20251023-111103,1.0.1,20251023-100704,712,Experiment,Both,1,Automatic,main,97,20251023-111915,global,global,300,H,H,E,A,H-E.png,H-A.png,hH,hH,mask-4.png,mask-4.png,h,1,0.034313800002564676,s,0,0.1413414999988163,0.04870220000157133,0.05036069999914616,0.09854800000903197,0.1017924000043422,0.29764499999873806
RSVPLG03,km,20251023-111103,1.0.1,20251023-100704,712,Experiment,Both,1,Automatic,main,98,20251023-111919,global,local,750,S,S,A,E,S-A.png,E-S.png,sS,sS,mask-2.png,mask-4.png,h,0,0.2655209000076866,s,1,0.1266821000026539,0.04943519999505952,0.050619000001461245,0.09899139999470208,0.10187559999758378,0.7471388999983901
RSVPLG03,km,20251023-111103,1.0.1,20251023-100704,712,Experiment,Both,1,Automatic,main,99,20251023-111923,local,global,750,S,S,A,A,A-S.png,S-A.png,sS,sS,mask-4.png,mask-3.png,s,1,0.3780505000031553,h,0,0.65330140000151,0.04837599999154918,0.049709899991285056,0.09841320000123233,0.09955579999950714,0.7488575000024866
RSVPLG03,km,20251023-111103,1.0.1,20251023-100704,712,Experiment,Both,1,Automatic,main,100,20251023-111928,local,local,750,H,S,A,A,A-H.png,A-S.png,hH,sS,mask-4.png,mask-1.png,h,1,0.25177100001019426,s,1,0.12505780000356026,0.05037179999635555,0.04976009999518283,0.1001484000007622,0.0987637999933213,0.7487576999992598
RSVPLG03,km,20251023-111103,1.0.1,20251023-100704,712,Experiment,Both,1,Automatic,main,101,20251023-111936,local,global,750,S,H,E,A,E-S.png,H-A.png,sS,hH,mask-1.png,mask-3.png,s,1,0.3715525000006892,h,1,0.2555427999905078,0.049815100006526336,0.04981289998977445,0.10003539999888744,0.09977689999504946,0.749448400005349
RSVPLG03,km,20251023-111103,1.0.1,20251023-100704,712,Experiment,Both,1,Automatic,main,102,20251023-111940,local,global,300,S,H,E,E,E-S.png,H-E.png,sS,hH,mask-3.png,mask-1.png,s,1,0.46505539999634493,h,1,0.27162739999766927,0.04904800000076648,0.050501399993663654,0.09983009999268688,0.09991920000175014,0.29853390000062063
RSVPLG03,km,20251023-111103,1.0.1,20251023-100704,712,Experiment,Both,1,Automatic,main,103,20251023-111945,global,local,750,S,S,A,A,S-A.png,A-S.png,sS,sS,mask-3.png,mask-4.png,s,1,1.0575338000053307,s,1,0.2218542000046,0.05158239998854697,0.05038510001031682,0.10026939999079332,0.09988980001071468,0.7498686999897473
RSVPLG03,km,20251023-111103,1.0.1,20251023-100704,712,Experiment,Both,1,Automatic,main,104,20251023-111950,global,global,750,H,S,A,A,H-A.png,S-A.png,hH,sS,mask-2.png,mask-2.png,s,0,1.7475452000071527,s,1,0.20580850000260398,0.047760199988260865,0.04981919999409001,0.09962929999164771,0.09788830000616144,0.7499821999954293
RSVPLG03,km,20251023-111103,1.0.1,20251023-100704,712,Experiment,Both,1,Automatic,main,105,20251023-111957,global,global,300,S,H,E,E,S-E.png,H-E.png,sS,hH,mask-3.png,mask-2.png,s,1,0.4205870000005234,s,0,0.20764469999994617,0.050853100008680485,0.04877900000428781,0.10079039999982342,0.10016860000905581,0.299827800001367
RSVPLG03,km,20251023-111103,1.0.1,20251023-100704,712,Experiment,Both,1,Automatic,main,106,20251023-112001,local,local,300,S,S,A,E,A-S.png,E-S.png,sS,sS,mask-1.png,mask-4.png,s,1,0.5451098999910755,s,1,0.22216269999626093,0.0499891000072239,0.049356799994711764,0.09858260001055896,0.10094859999662731,0.29908480000449345
RSVPLG03,km,20251023-111103,1.0.1,20251023-100704,712,Experiment,Both,1,Automatic,main,107,20251023-112005,local,global,300,S,H,E,A,E-S.png,H-A.png,sS,hH,mask-1.png,mask-4.png,s,1,0.5240912000008393,h,1,0.15516190000926144,0.05081430000427645,0.049481699999887496,0.1016451000032248,0.09910849999869242,0.3013571000046795
RSVPLG03,km,20251023-111103,1.0.1,20251023-100704,712,Experiment,Both,1,Automatic,main,108,20251023-112010,local,global,300,S,H,A,E,A-S.png,H-E.png,sS,hH,mask-2.png,mask-1.png,s,1,0.3688567999924999,h,1,0.6709514000103809,0.04955720000725705,0.05053149999002926,0.09942860000592191,0.10023389999696519,0.29926340001111384
RSVPLG03,km,20251023-111103,1.0.1,20251023-100704,712,Experiment,Both,1,Automatic,main,109,20251023-112015,global,global,300,S,H,E,A,S-E.png,H-A.png,sS,hH,mask-2.png,mask-2.png,s,1,0.2552517000003718,h,1,0.09468059999926481,0.04870970000047237,0.04834629999822937,0.09954999999899883,0.09988379999413155,0.29908460000297055
RSVPLG03,km,20251023-111103,1.0.1,20251023-100704,712,Experiment,Both,1,Automatic,main,110,20251023-112019,global,global,750,S,H,A,E,S-A.png,H-E.png,sS,hH,mask-2.png,mask-4.png,s,1,0.28665470000123605,h,1,0.05872590000217315,0.04983689999789931,0.04993829999875743,0.09968870000739116,0.09979259999818169,0.749555300004431
RSVPLG03,km,20251023-111103,1.0.1,20251023-100704,712,Experiment,Both,1,Automatic,main,111,20251023-112023,local,global,750,S,H,E,A,E-S.png,H-A.png,sS,hH,mask-4.png,mask-2.png,s,1,0.6849957999947947,h,1,0.07876119999855291,0.04965479999373201,0.04987430000619497,0.10010640000109561,0.09984190000977833,0.7509659999923315
RSVPLG03,km,20251023-111103,1.0.1,20251023-100704,712,Experiment,Both,1,Automatic,main,112,20251023-112028,global,global,750,H,S,A,A,H-A.png,S-A.png,hH,sS,mask-4.png,mask-2.png,h,1,0.050808100000722334,s,1,0.15858409999054857,0.04991119999613147,0.048989800008712336,0.09880659999907948,0.09920370001054835,0.7498168999882182
RSVPLG03,km,20251023-111103,1.0.1,20251023-100704,712,Experiment,Both,1,Automatic,main,113,20251023-112033,local,global,300,S,S,A,E,A-S.png,S-E.png,sS,sS,mask-2.png,mask-1.png,h,0,0.8014303999952972,s,1,0.30308850000437815,0.04951490000530612,0.04930400000012014,0.09990390000166371,0.09878559999924619,0.3001204000029247
RSVPLG03,km,20251023-111103,1.0.1,20251023-100704,712,Experiment,Both,1,Automatic,main,114,20251023-112038,global,global,750,S,H,E,A,S-E.png,H-A.png,sS,hH,mask-3.png,mask-1.png,s,1,0.1983334999968065,h,1,0.09182509999664035,0.05187800001294818,0.04968149999331217,0.09772600000724196,0.10150289999728557,0.7481531000084942
RSVPLG03,km,20251023-111103,1.0.1,20251023-100704,712,Experiment,Both,1,Automatic,main,115,20251023-112042,local,global,750,H,S,A,E,A-H.png,S-E.png,hH,sS,mask-1.png,mask-3.png,h,1,0.05438989998947363,s,1,0.1420226000045659,0.049694500004989095,0.049266200003330596,0.0995241999917198,0.09962209999503102,0.749686399998609
RSVPLG03,km,20251023-111103,1.0.1,20251023-100704,712,Experiment,Both,1,Automatic,main,116,20251023-112047,local,global,300,S,H,E,E,E-S.png,H-E.png,sS,hH,mask-4.png,mask-2.png,s,1,0.5372834000008879,h,1,0.0631474999972852,0.05067579999740701,0.050142799998866394,0.10042719999910332,0.09989610000047833,0.3003873999987263
RSVPLG03,km,20251023-111103,1.0.1,20251023-100704,712,Experiment,Both,1,Automatic,main,117,20251023-112051,global,global,750,S,H,E,E,S-E.png,H-E.png,sS,hH,mask-1.png,mask-3.png,s,1,0.22466500000155065,h,1,0.0956780999986222,0.04882279998855665,0.050614000007044524,0.09914889998617582,0.10058650000428315,0.7479019999882439
RSVPLG03,km,20251023-111103,1.0.1,20251023-100704,712,Experiment,Both,1,Automatic,main,118,20251023-112055,local,local,300,H,H,A,E,A-H.png,E-H.png,hH,hH,mask-4.png,mask-2.png,h,1,0.23542139999335632,s,0,0.11192329999175854,0.05085859999235254,0.05140750001010019,0.10156130000541452,0.10017200000584126,0.29987059999257326
RSVPLG03,km,20251023-111103,1.0.1,20251023-100704,712,Experiment,Both,1,Automatic,main,119,20251023-112100,local,local,300,H,H,A,A,A-H.png,A-H.png,hH,hH,mask-3.png,mask-1.png,h,1,0.8481961000070442,s,0,0.43150510000123177,0.04921440000180155,0.048594199994113296,0.09991930000251159,0.09827299999597017,0.29967570000735577
RSVPLG03,km,20251023-111103,1.0.1,20251023-100704,712,Experiment,Both,1,Automatic,main,120,20251023-112105,global,global,750,H,H,A,E,H-A.png,H-E.png,hH,hH,mask-1.png,mask-1.png,h,1,0.2163389999914216,h,1,0.17519940000784118,0.05025599998771213,0.049872100003995,0.10032419998606201,0.09995109999726992,0.7502991999936057
RSVPLG03,km,20251023-111103,1.0.1,20251023-100704,712,Experiment,Both,1,Automatic,main,121,20251023-112109,global,global,750,H,S,A,A,H-A.png,S-A.png,hH,sS,mask-2.png,mask-1.png,h,1,0.22242970000661444,s,1,0.15529569999489468,0.049383199992007576,0.0497417000005953,0.09902109998802189,0.10128019998956006,0.7478212999994867
RSVPLG03,km,20251023-111103,1.0.1,20251023-100704,712,Experiment,Both,1,Automatic,main,122,20251023-112114,local,global,300,H,H,A,A,A-H.png,H-A.png,hH,hH,mask-2.png,mask-1.png,h,1,0.5138143000076525,h,1,0.19042289999197237,0.049690599989844486,0.05002609999792185,0.09840609999082517,0.09943349999957718,0.2983889999886742
RSVPLG03,km,20251023-111103,1.0.1,20251023-100704,712,Experiment,Both,1,Automatic,main,123,20251023-112118,local,global,750,H,H,E,A,E-H.png,H-A.png,hH,hH,mask-3.png,mask-1.png,s,0,2.3541460999986157,h,1,0.06226040000910871,0.05070219999470282,0.048823899996932596,0.09967649998725392,0.09995599999092519,0.7505366999976104
RSVPLG03,km,20251023-111103,1.0.1,20251023-100704,712,Experiment,Both,1,Automatic,main,124,20251023-112125,global,local,750,S,S,E,E,S-E.png,E-S.png,sS,sS,mask-3.png,mask-3.png,s,1,0.02150200000323821,h,0,0.2080802999989828,0.04974810000567231,0.05077640000672545,0.09999600000446662,0.10063410000293516,0.7493810000014491
RSVPLG03,km,20251023-111103,1.0.1,20251023-100704,712,Experiment,Both,1,Automatic,main,125,20251023-112129,local,global,300,H,H,A,E,A-H.png,H-E.png,hH,hH,mask-1.png,mask-3.png,h,1,0.27253239999117795,h,1,0.1728350000048522,0.04818650000379421,0.05164829999557696,0.09727610000118148,0.09976779999851715,0.29775170001084916
RSVPLG03,km,20251023-112200,1.0.1,20251023-100704,712,Experiment,Both,1,Automatic,warmup,1,20251023-112223,global,global,750,H,S,E,A,H-E.png,S-A.png,hH,sS,mask-1.png,mask-2.png,h,1,0.28720130000147037,s,1,0.2378955999884056,0.039836699987063184,0.049683499993989244,0.09029779999400489,0.09948069999518339,0.740772899996955
RSVPLG03,km,20251023-112200,1.0.1,20251023-100704,712,Experiment,Both,1,Automatic,warmup,2,20251023-112227,global,local,300,H,H,E,E,H-E.png,E-H.png,hH,hH,mask-2.png,mask-1.png,h,1,0.31810040000709705,s,0,0.15881269999954384,0.050725799999781884,0.04928359999030363,0.10038889999850653,0.09904329999699257,0.301240400003735
RSVPLG03,km,20251023-112200,1.0.1,20251023-100704,712,Experiment,Both,1,Automatic,warmup,3,20251023-112231,global,global,300,S,H,E,E,S-E.png,H-E.png,sS,hH,mask-2.png,mask-1.png,s,1,0.3284997000009753,h,1,0.14143410000542644,0.0496936999988975,0.05009259999496862,0.10045859999081586,0.09887600000365637,0.30048039999383036
RSVPLG03,km,20251023-112200,1.0.1,20251023-100704,712,Experiment,Both,1,Automatic,warmup,4,20251023-112236,local,local,750,H,S,A,A,A-H.png,A-S.png,hH,sS,mask-3.png,mask-2.png,h,1,0.6745437000063248,h,0,0.19086780000361614,0.04981979999865871,0.05066790001001209,0.09961150000162888,0.10009059999720193,0.7508482999983244
RSVPLG03,km,20251023-112200,1.0.1,20251023-100704,712,Experiment,Both,1,Automatic,warmup,5,20251023-112241,local,local,300,S,S,A,E,A-S.png,E-S.png,sS,sS,mask-2.png,mask-4.png,h,0,0.4449011000106111,s,1,0.1257360999879893,0.049153100000694394,0.04996659999596886,0.09952250000787899,0.100784800000838,0.298892100006924
RSVPLG03,km,20251023-112200,1.0.1,20251023-100704,712,Experiment,Both,1,Automatic,main,6,20251023-112245,local,global,750,S,S,A,A,A-S.png,S-A.png,sS,sS,mask-4.png,mask-3.png,h,0,0.8582119999919087,s,1,0.09390750000602566,0.051502000002074055,0.05179219999990892,0.10206130000005942,0.09940999999525957,0.7511027000000468
RSVPLG03,km,20251023-112200,1.0.1,20251023-100704,712,Experiment,Both,1,Automatic,main,7,20251023-112250,global,global,750,H,H,E,E,H-E.png,H-E.png,hH,hH,mask-3.png,mask-4.png,h,1,0.4446562999946764,h,1,0.18730330000107642,0.050783700004103594,0.05066560000705067,0.10021190000406932,0.09959369999705814,0.7502556999970693
RSVPLG03,km,20251023-112200,1.0.1,20251023-100704,712,Experiment,Both,1,Automatic,main,8,20251023-112255,global,global,750,H,H,E,A,H-E.png,H-A.png,hH,hH,mask-2.png,mask-4.png,h,1,0.2907001000130549,h,1,0.17759629999636672,0.05156700000225101,0.05068680000840686,0.10043150000274181,0.10047859999758657,0.7515465000033146
RSVPLG03,km,20251023-112200,1.0.1,20251023-100704,712,Experiment,Both,1,Automatic,main,9,20251023-112300,global,global,750,S,S,E,E,S-E.png,S-E.png,sS,sS,mask-3.png,mask-1.png,s,1,0.1975493999925675,s,1,0.17598569999972824,0.04966809999314137,0.04929199999605771,0.10046570000122301,0.10003519999736454,0.7520300000032876
RSVPLG03,km,20251023-112200,1.0.1,20251023-100704,712,Experiment,Both,1,Automatic,main,10,20251023-112304,global,local,300,S,S,E,A,S-E.png,A-S.png,sS,sS,mask-2.png,mask-4.png,s,1,0.3455785999976797,h,0,0.30180109999491833,0.05139569999300875,0.04930210000020452,0.10115309999673627,0.09989020001376048,0.300896599990665
RSVPLG03,km,20251023-112200,1.0.1,20251023-100704,712,Experiment,Both,1,Automatic,main,11,20251023-112309,global,local,300,S,H,E,E,S-E.png,E-H.png,sS,hH,mask-3.png,mask-4.png,s,1,0.4042887999967206,s,0,0.14228079999156762,0.05068520001077559,0.050069899996742606,0.10028710000915453,0.09997039999871049,0.3007479000079911
RSVPLG03,km,20251023-112200,1.0.1,20251023-100704,712,Experiment,Both,1,Automatic,main,12,20251023-112313,global,local,750,H,S,E,A,H-E.png,A-S.png,hH,sS,mask-2.png,mask-4.png,h,1,0.31280889999470674,h,0,0.2194181000086246,0.04879489999439102,0.049460999987786636,0.09953379999205936,0.0994351999979699,0.7509348000021419
RSVPLG03,km,20251023-112200,1.0.1,20251023-100704,712,Experiment,Both,1,Automatic,main,13,20251023-112318,local,local,300,H,H,E,A,E-H.png,A-H.png,hH,hH,mask-1.png,mask-3.png,h,1,0.43344179999257904,s,0,1.054130400007125,0.05017499999667052,0.05018080001173075,0.09951980000187177,0.09907120000571012,0.300808899992262
RSVPLG03,km,20251023-112200,1.0.1,20251023-100704,712,Experiment,Both,1,Automatic,main,14,20251023-112323,global,global,750,H,H,E,E,H-E.png,H-E.png,hH,hH,mask-1.png,mask-3.png,h,1,0.16527440000209026,h,1,0.1425024000054691,0.05058110000391025,0.05026200000429526,0.10034629999427125,0.10056279999844264,0.749782500002766
RSVPLG03,km,20251023-112200,1.0.1,20251023-100704,712,Experiment,Both,1,Automatic,main,15,20251023-112328,global,local,300,S,H,E,E,S-E.png,E-H.png,sS,hH,mask-4.png,mask-4.png,s,1,0.13655159999325406,s,0,0.14239600001019426,0.04994609999994282,0.050019499991321936,0.0997499999939464,0.09876599999552127,0.30130360000475775
RSVPLG03,km,20251023-112200,1.0.1,20251023-100704,712,Experiment,Both,1,Automatic,main,16,20251023-112332,global,local,300,H,S,A,E,H-A.png,E-S.png,hH,sS,mask-3.png,mask-4.png,h,1,0.7215203000087058,h,0,0.1258098000107566,0.04888790000404697,0.04868140000326093,0.09971209999639541,0.0999226000130875,0.3000443999917479
RSVPLG03,km,20251023-112200,1.0.1,20251023-100704,712,Experiment,Both,1,Automatic,main,17,20251023-112337,local,local,300,H,S,A,E,A-H.png,E-S.png,hH,sS,mask-4.png,mask-4.png,h,1,0.24329740001121536,s,1,0.2717787000001408,0.049653599999146536,0.049721000003046356,0.09845049999421462,0.10054369999852497,0.29994349999469705
RSVPLG03,km,20251023-112200,1.0.1,20251023-100704,712,Experiment,Both,1,Automatic,main,18,20251023-112341,global,local,750,H,H,E,A,H-E.png,A-H.png,hH,hH,mask-3.png,mask-3.png,h,1,0.35967689999961294,h,1,0.1907472000020789,0.049822500004665926,0.04859320000105072,0.098558800003957,0.09832560000359081,0.7511207000061404
RSVPLG03,km,20251023-112200,1.0.1,20251023-100704,712,Experiment,Both,1,Automatic,main,19,20251023-112346,global,global,300,H,S,E,E,H-E.png,S-E.png,hH,sS,mask-1.png,mask-3.png,h,1,0.20126000000163913,s,1,0.09250129999418277,0.04984619999595452,0.0496397000097204,0.09994079999160022,0.09970090001297649,0.30164399999193847
RSVPLG03,km,20251023-112200,1.0.1,20251023-100704,712,Experiment,Both,1,Automatic,main,20,20251023-112350,local,local,300,S,S,E,A,E-S.png,A-S.png,sS,sS,mask-2.png,mask-3.png,s,1,0.3063843999989331,h,0,0.14247910000267439,0.050723399996059015,0.049750100006349385,0.10068259999388829,0.10098309999739286,0.30052629999408964
RSVPLG03,km,20251023-112200,1.0.1,20251023-100704,712,Experiment,Both,1,Automatic,main,21,20251023-112354,local,local,300,S,H,A,E,A-S.png,E-H.png,sS,hH,mask-4.png,mask-1.png,h,0,0.2356078000011621,s,0,0.2248290999996243,0.04976090000127442,0.047783899994101375,0.09869280000566505,0.09947299999475945,0.3001374000014039
RSVPLG03,km,20251023-112200,1.0.1,20251023-100704,712,Experiment,Both,1,Automatic,main,22,20251023-112358,local,global,750,S,S,E,A,E-S.png,S-A.png,sS,sS,mask-4.png,mask-4.png,s,1,0.3255963999981759,s,1,0.6849843999953009,0.04988830001093447,0.04968489999009762,0.09991879999870434,0.1004726999963168,0.7513444000069285
RSVPLG03,km,20251023-112200,1.0.1,20251023-100704,712,Experiment,Both,1,Automatic,main,23,20251023-112404,local,global,300,H,S,A,A,A-H.png,S-A.png,hH,sS,mask-2.png,mask-2.png,h,1,0.27747649999218993,s,1,0.130308599997079,0.051386499995714985,0.04933700000401586,0.10138159999041818,0.09988149999117013,0.3015205999981845
RSVPLG03,km,20251023-112200,1.0.1,20251023-100704,712,Experiment,Both,1,Automatic,main,24,20251023-112408,local,local,750,S,S,E,A,E-S.png,A-S.png,sS,sS,mask-2.png,mask-1.png,s,1,0.2487979000143241,s,1,0.15955039999971632,0.04968560000997968,0.049979900009930134,0.09950300000491552,0.10078330000396818,0.7505145000031916
RSVPLG03,km,20251023-112200,1.0.1,20251023-100704,712,Experiment,Both,1,Automatic,main,25,20251023-112413,local,local,750,H,H,A,A,A-H.png,A-H.png,hH,hH,mask-2.png,mask-2.png,h,1,0.21741650000330992,h,1,0.22136209999735001,0.051656700001331046,0.049506499999552034,0.10170519999519456,0.09980379999615252,0.7514807999978075
RSVPLG03,km,20251023-112200,1.0.1,20251023-100704,712,Experiment,Both,1,Automatic,main,26,20251023-112419,local,global,750,S,S,E,E,E-S.png,S-E.png,sS,sS,mask-4.png,mask-3.png,s,1,0.15460360000724904,s,1,0.19416450000426266,0.05035040000802837,0.049090000000433065,0.0997994000063045,0.09970469999825582,0.751357300003292
RSVPLG03,km,20251023-112200,1.0.1,20251023-100704,712,Experiment,Both,1,Automatic,main,27,20251023-112424,global,local,300,H,S,A,A,H-A.png,A-S.png,hH,sS,mask-1.png,mask-1.png,h,1,3.8112543000024743,h,0,0.3024479000014253,0.05069319999893196,0.04871979999006726,0.09949370000686031,0.10021109999797773,0.30107840000709984
RSVPLG03,km,20251023-112200,1.0.1,20251023-100704,712,Experiment,Both,1,Automatic,main,28,20251023-112432,local,global,300,H,S,E,E,E-H.png,S-E.png,hH,sS,mask-2.png,mask-3.png,h,1,0.5096410999976797,s,1,0.3814715999906184,0.050210999994305894,0.04822400001285132,0.10152389999711886,0.099627400006284,0.3016878999915207
RSVPLG03,km,20251023-112200,1.0.1,20251023-100704,712,Experiment,Both,1,Automatic,main,29,20251023-112436,global,global,300,S,H,E,E,S-E.png,H-E.png,sS,hH,mask-3.png,mask-1.png,s,1,0.17229370000131894,h,1,0.1408108000032371,0.05029389999981504,0.05081939999945462,0.10082530000363477,0.09999650000827387,0.30003579999902286
RSVPLG03,km,20251023-112200,1.0.1,20251023-100704,712,Experiment,Both,1,Automatic,main,30,20251023-112441,global,local,750,H,H,E,E,H-E.png,E-H.png,hH,hH,mask-1.png,mask-4.png,h,1,0.1962234999955399,h,1,0.47760259998904075,0.049276100005954504,0.049556900004972704,0.09909130001324229,0.10006700000667479,0.7502963000006275
RSVPLG03,km,20251023-112200,1.0.1,20251023-100704,712,Experiment,Both,1,Automatic,main,31,20251023-112445,local,local,750,S,H,E,E,E-S.png,E-H.png,sS,hH,mask-1.png,mask-2.png,s,1,0.21628280000004452,h,1,0.2393721000116784,0.049987999998847954,0.049854600001708604,0.098777399995015,0.09964660000696313,0.7507829999958631
RSVPLG03,km,20251023-112200,1.0.1,20251023-100704,712,Experiment,Both,1,Automatic,main,32,20251023-112450,global,local,750,H,H,A,E,H-A.png,E-H.png,hH,hH,mask-1.png,mask-1.png,h,1,0.28203729999950156,h,1,0.23905560000275727,0.048826099999132566,0.050810100001399405,0.09877209999831393,0.10075979999965057,0.7498288999922806
RSVPLG03,km,20251023-112200,1.0.1,20251023-100704,712,Experiment,Both,1,Automatic,main,33,20251023-112455,global,local,300,H,H,E,E,H-E.png,E-H.png,hH,hH,mask-1.png,mask-4.png,h,1,0.2032504999951925,h,1,0.26874869999301154,0.051446500001475215,0.050552499989862554,0.1001959999994142,0.0998667999956524,0.299771400008467
RSVPLG03,km,20251023-112200,1.0.1,20251023-100704,712,Experiment,Both,1,Automatic,main,34,20251023-112459,local,global,750,S,S,A,E,A-S.png,S-E.png,sS,sS,mask-2.png,mask-1.png,s,1,0.1705950000032317,h,0,0.18850029999157414,0.049766900003305636,0.050282700001844205,0.09976280000410043,0.10038600000552833,0.7498636999953305
RSVPLG03,km,20251023-112200,1.0.1,20251023-100704,712,Experiment,Both,1,Automatic,main,35,20251023-112504,global,global,300,S,S,A,A,S-A.png,S-A.png,sS,sS,mask-3.png,mask-4.png,s,1,0.20478390000062063,s,1,0.2355880000104662,0.050418999991961755,0.04990289999113884,0.10042049999174196,0.09993219999887515,0.30069129999901634
RSVPLG03,km,20251023-112200,1.0.1,20251023-100704,712,Experiment,Both,1,Automatic,main,36,20251023-112508,local,local,750,S,S,A,E,A-S.png,E-S.png,sS,sS,mask-4.png,mask-1.png,h,0,0.22571149999566842,s,1,0.23685580000164919,0.04967050001141615,0.049656499992124736,0.10073200000624638,0.09850539999024477,0.7518496000120649
RSVPLG03,km,20251023-112200,1.0.1,20251023-100704,712,Experiment,Both,1,Automatic,main,37,20251023-112513,local,local,300,S,H,A,A,A-S.png,A-H.png,sS,hH,mask-4.png,mask-4.png,s,1,0.1375151999964146,s,0,0.23629679999430664,0.049696700007189065,0.04968090000329539,0.10048090000054799,0.10049230000004172,0.3006588999996893
RSVPLG03,km,20251023-112200,1.0.1,20251023-100704,712,Experiment,Both,1,Automatic,main,38,20251023-112517,global,global,300,H,S,E,A,H-E.png,S-A.png,hH,sS,mask-2.png,mask-3.png,h,1,0.21342720001121052,s,1,0.20705850000376813,0.04977389999839943,0.05183050000050571,0.0992751000012504,0.10161680000601336,0.2985747999919113
RSVPLG03,km,20251023-112200,1.0.1,20251023-100704,712,Experiment,Both,1,Automatic,main,39,20251023-112521,local,local,750,S,S,E,E,E-S.png,E-S.png,sS,sS,mask-1.png,mask-4.png,s,1,0.22997549999854527,s,1,0.23742209999181796,0.05042929999763146,0.0485393999988446,0.10025150000001304,0.09825890000502113,0.752061599996523
RSVPLG03,km,20251023-112200,1.0.1,20251023-100704,712,Experiment,Both,1,Automatic,main,40,20251023-112526,global,global,300,S,S,A,E,S-A.png,S-E.png,sS,sS,mask-4.png,mask-2.png,s,1,0.13840029999846593,s,1,0.17423869999765884,0.05014740000478923,0.04906069999560714,0.1003270000073826,0.1002574000012828,0.30174880000413395
RSVPLG03,km,20251023-112200,1.0.1,20251023-100704,712,Experiment,Both,1,Automatic,main,41,20251023-112530,global,local,750,H,S,E,A,H-E.png,A-S.png,hH,sS,mask-1.png,mask-1.png,h,1,0.057792400009930134,s,1,0.2081222999986494,0.049669900006847456,0.04964040000049863,0.0991824000084307,0.09989179999683984,0.7503088000084972
RSVPLG03,km,20251023-112200,1.0.1,20251023-100704,712,Experiment,Both,1,Automatic,main,42,20251023-112534,global,global,750,H,S,E,A,H-E.png,S-A.png,hH,sS,mask-3.png,mask-3.png,h,1,0.24855199999001343,s,1,0.701845300005516,0.049634700000751764,0.048688700000639074,0.09902339999098331,0.0985006999981124,0.7515763999981573
RSVPLG03,km,20251023-112200,1.0.1,20251023-100704,712,Experiment,Both,1,Automatic,main,43,20251023-112540,global,global,300,H,S,A,A,H-A.png,S-A.png,hH,sS,mask-2.png,mask-2.png,h,1,0.2862374000105774,s,1,0.09273399999074172,0.05080420000012964,0.0498576999962097,0.1009978000074625,0.09986380000191275,0.30124410000280477
RSVPLG03,km,20251023-112200,1.0.1,20251023-100704,712,Experiment,Both,1,Automatic,main,44,20251023-112544,global,local,300,S,H,A,E,S-A.png,E-H.png,sS,hH,mask-1.png,mask-3.png,s,1,0.4706885999912629,s,0,0.5109270000102697,0.05067209999833722,0.05084519999218173,0.09947570000076666,0.09906879998743534,0.300715700010187
RSVPLG03,km,20251023-112200,1.0.1,20251023-100704,712,Experiment,Both,1,Automatic,main,45,20251023-112549,global,local,750,S,H,A,A,S-A.png,A-H.png,sS,hH,mask-1.png,mask-2.png,s,1,0.16062729999248404,h,1,0.12818509999488015,0.04980799999611918,0.05060239999147598,0.10167469999578316,0.10129579999193083,0.7518753000040306
RSVPLG03,km,20251023-112200,1.0.1,20251023-100704,712,Experiment,Both,1,Automatic,main,46,20251023-112553,local,global,750,S,H,E,E,E-S.png,H-E.png,sS,hH,mask-2.png,mask-1.png,s,1,0.1650768999970751,h,1,0.12622369999007788,0.04932079999707639,0.048397500009741634,0.10032139999384526,0.09969020000426099,0.7509717999928398
RSVPLG03,km,20251023-112200,1.0.1,20251023-100704,712,Experiment,Both,1,Automatic,main,47,20251023-112558,global,local,300,S,H,A,A,S-A.png,A-H.png,sS,hH,mask-3.png,mask-4.png,s,1,0.206675900000846,h,1,0.07574000000022352,0.0485391999973217,0.049346100000548176,0.09865470000659116,0.09942579999915324,0.299179900001036
RSVPLG03,km,20251023-112200,1.0.1,20251023-100704,712,Experiment,Both,1,Automatic,main,48,20251023-112602,local,local,300,H,S,A,A,A-H.png,A-S.png,hH,sS,mask-4.png,mask-3.png,h,1,0.1089493999897968,h,0,0.10985380000784062,0.051446400000713766,0.04935050000494812,0.10032430000137538,0.09968410000146832,0.3018843000027118
RSVPLG03,km,20251023-112200,1.0.1,20251023-100704,712,Experiment,Both,1,Automatic,main,49,20251023-112606,global,local,300,H,S,E,A,H-E.png,A-S.png,hH,sS,mask-4.png,mask-3.png,h,1,0.11708809999981895,s,1,0.2372328000055859,0.04880550000234507,0.049961099997744896,0.09975419999682344,0.10003780000261031,0.2998483999981545
RSVPLG03,km,20251023-112200,1.0.1,20251023-100704,712,Experiment,Both,1,Automatic,main,50,20251023-112610,local,global,750,S,H,E,A,E-S.png,H-A.png,sS,hH,mask-1.png,mask-1.png,s,1,1.1931753999961074,h,1,0.10972659999970347,0.04842289999942295,0.049675400005071424,0.09993059998669196,0.0999327000026824,0.7504130999877816
RSVPLG03,km,20251023-112200,1.0.1,20251023-100704,712,Experiment,Both,1,Automatic,main,51,20251023-112618,global,global,750,H,S,E,E,H-E.png,S-E.png,hH,sS,mask-2.png,mask-1.png,h,1,0.17308300000149757,s,1,0.06166760000633076,0.050761799997417256,0.05182229999627452,0.10058980000030715,0.10178700000687968,0.7502372000017203
RSVPLG03,km,20251023-112200,1.0.1,20251023-100704,712,Experiment,Both,1,Automatic,main,52,20251023-112622,local,global,750,H,S,A,E,A-H.png,S-E.png,hH,sS,mask-2.png,mask-1.png,h,1,0.07165530000929721,s,1,0.10682739999901969,0.049856800003908575,0.04994890000671148,0.09973400000308175,0.09907820000080392,0.7517226000054507
RSVPLG03,km,20251023-112200,1.0.1,20251023-100704,712,Experiment,Both,1,Automatic,main,53,20251023-112627,local,global,300,S,H,A,A,A-S.png,H-A.png,sS,hH,mask-3.png,mask-1.png,s,1,0.2555992999987211,h,1,0.10699529999692459,0.049566199988476,0.05060839999350719,0.09918019999167882,0.10031519999029115,0.3005343999975594
RSVPLG03,km,20251023-112200,1.0.1,20251023-100704,712,Experiment,Both,1,Automatic,main,54,20251023-112631,global,global,300,H,H,E,E,H-E.png,H-E.png,hH,hH,mask-3.png,mask-1.png,h,1,0.23994780000066385,h,1,0.1103618000051938,0.048811999993631616,0.04988010000670329,0.0993328000040492,0.09986640000715852,0.29929019999690354
RSVPLG03,km,20251023-112200,1.0.1,20251023-100704,712,Experiment,Both,1,Automatic,main,55,20251023-112635,local,local,300,H,H,E,A,E-H.png,A-H.png,hH,hH,mask-3.png,mask-4.png,h,1,0.23228919999382924,s,0,0.24003020000236575,0.050444100008462556,0.05194859999755863,0.10020870000880677,0.10079599999880884,0.30143710000265855
RSVPLG03,km,20251023-112200,1.0.1,20251023-100704,712,Experiment,Both,1,Automatic,main,56,20251023-112639,global,global,300,S,S,A,E,S-A.png,S-E.png,sS,sS,mask-2.png,mask-3.png,s,1,0.47395709999545943,h,0,0.11007840000092983,0.05030829999304842,0.04964900000777561,0.10008019999077078,0.0980357000080403,0.3022109999874374
RSVPLG03,km,20251023-112200,1.0.1,20251023-100704,712,Experiment,Both,1,Automatic,main,57,20251023-112643,global,global,300,H,H,E,E,H-E.png,H-E.png,hH,hH,mask-4.png,mask-4.png,h,1,0.12501940000220202,h,1,0.1611553999973694,0.050501699995948,0.048989800008712336,0.1003091000020504,0.09990770000149496,0.3009659999952419
RSVPLG03,km,20251023-112200,1.0.1,20251023-100704,712,Experiment,Both,1,Automatic,main,58,20251023-112647,local,local,300,S,H,E,A,E-S.png,A-H.png,sS,hH,mask-2.png,mask-4.png,s,1,0.3111549000022933,h,1,0.18753579999611247,0.04968889999145176,0.049598799989325926,0.09937739999440964,0.09991629999422003,0.29987180000171065
RSVPLG03,km,20251023-112200,1.0.1,20251023-100704,712,Experiment,Both,1,Automatic,main,59,20251023-112652,local,global,750,S,H,E,E,E-S.png,H-E.png,sS,hH,mask-2.png,mask-2.png,h,0,0.32495930000732187,h,1,1.117677600006573,0.05003570001281332,0.04998899999191053,0.09935800000675954,0.09901180000451859,0.7511897000076715
RSVPLG03,km,20251023-112200,1.0.1,20251023-100704,712,Experiment,Both,1,Automatic,main,60,20251023-112658,global,global,750,H,H,A,A,H-A.png,H-A.png,hH,hH,mask-1.png,mask-4.png,h,1,0.24751990000368096,h,1,0.4953943000000436,0.050969400006579235,0.04963110000244342,0.10079290000430774,0.0994704000040656,0.7527687999972841
RSVPLG03,km,20251023-112200,1.0.1,20251023-100704,712,Experiment,Both,1,Automatic,main,61,20251023-112703,global,global,300,H,H,E,A,H-E.png,H-A.png,hH,hH,mask-3.png,mask-1.png,h,1,0.08344309999665711,h,1,0.2047318999975687,0.0498890000017127,0.04837689999840222,0.09981949999928474,0.10027949999494012,0.29953849999583326
RSVPLG03,km,20251023-112200,1.0.1,20251023-100704,712,Experiment,Both,1,Automatic,main,62,20251023-112707,local,global,300,H,S,E,A,E-H.png,S-A.png,hH,sS,mask-4.png,mask-3.png,h,1,0.2178418999974383,s,1,0.17355260001204442,0.04978960000153165,0.05042980000143871,0.10059450000699144,0.10093439999036491,0.29840660000627395
RSVPLG03,km,20251023-112200,1.0.1,20251023-100704,712,Experiment,Both,1,Automatic,main,63,20251023-112711,local,global,750,S,H,E,E,E-S.png,H-E.png,sS,hH,mask-2.png,mask-3.png,s,1,0.2570306999987224,h,1,0.06323600000177976,0.049169500009156764,0.05023999999684747,0.10095820001151878,0.0998812000034377,0.7506563000060851
RSVPLG03,km,20251023-112200,1.0.1,20251023-100704,712,Experiment,Both,1,Automatic,main,64,20251023-112715,global,local,750,H,H,A,E,H-A.png,E-H.png,hH,hH,mask-3.png,mask-1.png,h,1,0.14946049998980016,s,0,1.3273044999950798,0.05054839998774696,0.050077599997166544,0.1012194999930216,0.10021869999764021,0.7540102999919327
RSVPLG03,km,20251023-112200,1.0.1,20251023-100704,712,Experiment,Both,1,Automatic,main,65,20251023-112721,local,global,300,S,H,E,A,E-S.png,H-A.png,sS,hH,mask-4.png,mask-1.png,s,1,0.18573760001163464,h,1,0.21070399999734946,0.05105500000354368,0.04881019999447744,0.10004400000616442,0.09994060000462923,0.30108150000160094
RSVPLG03,km,20251023-112200,1.0.1,20251023-100704,712,Experiment,Both,1,Automatic,main,66,20251023-112725,local,global,300,H,H,A,E,A-H.png,H-E.png,hH,hH,mask-2.png,mask-4.png,h,1,0.21277009999903385,h,1,0.17838250000204425,0.050393900004564784,0.051601300001493655,0.10064190000412054,0.10090959999070037,0.29914250000729226
RSVPLG03,km,20251023-112200,1.0.1,20251023-100704,712,Experiment,Both,1,Automatic,main,67,20251023-112729,global,global,750,S,S,A,E,S-A.png,S-E.png,sS,sS,mask-2.png,mask-1.png,s,1,0.39804329999606125,h,0,0.15753229999972973,0.04963750000752043,0.04980569999315776,0.10002110000641551,0.09971349999250378,0.7506967000081204
RSVPLG03,km,20251023-112200,1.0.1,20251023-100704,712,Experiment,Both,1,Automatic,main,68,20251023-112734,local,global,750,S,S,A,E,A-S.png,S-E.png,sS,sS,mask-1.png,mask-2.png,h,0,0.3660037000081502,s,1,0.11050960001011845,0.04975190000550356,0.0497726000030525,0.10052600000926759,0.09965879999799654,0.7515952000103425
RSVPLG03,km,20251023-112200,1.0.1,20251023-100704,712,Experiment,Both,1,Automatic,main,69,20251023-112739,global,global,300,H,H,A,E,H-A.png,H-E.png,hH,hH,mask-2.png,mask-2.png,h,1,0.47696169999835547,s,0,1.5838402999943355,0.04806470000767149,0.051359799996134825,0.09881310000491794,0.10162590000254568,0.2992746000090847
RSVPLG03,km,20251023-112200,1.0.1,20251023-100704,712,Experiment,Both,1,Automatic,main,70,20251023-112745,local,global,300,H,S,E,E,E-H.png,S-E.png,hH,sS,mask-2.png,mask-4.png,h,1,0.6199579999956768,s,1,0.12648400000762194,0.04881629999727011,0.050867800004198216,0.09984940000867937,0.10084939999796916,0.2988383000047179
RSVPLG03,km,20251023-112200,1.0.1,20251023-100704,712,Experiment,Both,1,Automatic,main,71,20251023-112749,global,local,750,S,S,A,E,S-A.png,E-S.png,sS,sS,mask-1.png,mask-2.png,s,1,0.24880940000002738,s,1,0.763785100003588,0.04978659999324009,0.048768499997095205,0.09970380000595469,0.0986791000032099,0.7514641000016127
RSVPLG03,km,20251023-112200,1.0.1,20251023-100704,712,Experiment,Both,1,Automatic,main,72,20251023-112755,local,global,750,H,S,A,E,A-H.png,S-E.png,hH,sS,mask-1.png,mask-3.png,h,1,0.05618660000618547,s,1,0.25149189999501687,0.04979920000187121,0.04974840000795666,0.09971710000536405,0.10067690000869334,0.7495121999963885
RSVPLG03,km,20251023-112200,1.0.1,20251023-100704,712,Experiment,Both,1,Automatic,main,73,20251023-112759,local,local,300,H,S,E,A,E-H.png,A-S.png,hH,sS,mask-3.png,mask-1.png,h,1,1.3685237999889068,s,1,0.11017030000220984,0.05132020000019111,0.0498102999990806,0.10170560001279227,0.0996364999882644,0.30188930001168046
RSVPLG03,km,20251023-112200,1.0.1,20251023-100704,712,Experiment,Both,1,Automatic,main,74,20251023-112804,local,local,300,S,S,A,A,A-S.png,A-S.png,sS,sS,mask-2.png,mask-3.png,h,0,0.168710199999623,h,0,0.13959340000292286,0.051226700001279823,0.0485049999988405,0.10087639999983367,0.09911260000080802,0.30145690000790637
RSVPLG03,km,20251023-112200,1.0.1,20251023-100704,712,Experiment,Both,1,Automatic,main,75,20251023-112809,global,local,300,H,H,E,E,H-E.png,E-H.png,hH,hH,mask-1.png,mask-1.png,h,1,0.15585210001154337,s,0,0.2543928999948548,0.04968870000448078,0.048671299999114126,0.09849459999531973,0.09947199998714495,0.3009121000068262
RSVPLG03,km,20251023-112200,1.0.1,20251023-100704,712,Experiment,Both,1,Automatic,main,76,20251023-112815,local,global,300,S,H,A,A,A-S.png,H-A.png,sS,hH,mask-3.png,mask-3.png,h,0,0.3137648999982048,h,1,0.15816239999548998,0.05062890000408515,0.047549699986120686,0.0994213999947533,0.09904299999470823,0.30100730000413023
RSVPLG03,km,20251023-112200,1.0.1,20251023-100704,712,Experiment,Both,1,Automatic,main,77,20251023-112819,local,global,750,S,S,E,A,E-S.png,S-A.png,sS,sS,mask-1.png,mask-4.png,s,1,0.16059970000060275,h,0,0.22038159999647178,0.0506632000033278,0.050415899997460656,0.0994215999962762,0.10030599999299739,0.7500830000062706
RSVPLG03,km,20251023-112200,1.0.1,20251023-100704,712,Experiment,Both,1,Automatic,main,78,20251023-112824,local,local,750,S,S,E,E,E-S.png,E-S.png,sS,sS,mask-2.png,mask-2.png,s,1,0.44358600000850856,s,1,0.18976630001270678,0.049668399995425716,0.048681100000976585,0.09945729999162722,0.09845819999463856,0.7515492999955313
RSVPLG03,km,20251023-112200,1.0.1,20251023-100704,712,Experiment,Both,1,Automatic,main,79,20251023-112829,local,global,300,H,H,E,A,E-H.png,H-A.png,hH,hH,mask-4.png,mask-3.png,h,1,0.33157670000218786,h,1,1.3388730000006035,0.050468700006604195,0.050478200006182306,0.10090640000998974,0.09986339999886695,0.30060519999824464
RSVPLG03,km,20251023-112200,1.0.1,20251023-100704,712,Experiment,Both,1,Automatic,main,80,20251023-112834,global,local,750,S,S,A,E,S-A.png,E-S.png,sS,sS,mask-3.png,mask-1.png,h,0,0.9613228999951389,s,1,0.1581925000064075,0.04947480000555515,0.049723500007530674,0.10012190000270493,0.10050580000097398,0.7508346999966307
RSVPLG03,km,20251023-112200,1.0.1,20251023-100704,712,Experiment,Both,1,Automatic,main,81,20251023-112840,global,local,750,H,H,E,A,H-E.png,A-H.png,hH,hH,mask-4.png,mask-1.png,h,1,0.5044706000044243,s,0,0.2552611999999499,0.05030109999643173,0.04938350000884384,0.10187609998683911,0.10015900000871625,0.752416399991489
RSVPLG03,km,20251023-112200,1.0.1,20251023-100704,712,Experiment,Both,1,Automatic,main,82,20251023-112845,global,global,750,S,S,E,E,S-E.png,S-E.png,sS,sS,mask-3.png,mask-2.png,s,1,0.710985099998652,h,0,0.5103341999929398,0.04989160000695847,0.04930510000849608,0.09988680000242312,0.09972589999961201,0.7503553999995347
RSVPLG03,km,20251023-112200,1.0.1,20251023-100704,712,Experiment,Both,1,Automatic,main,83,20251023-112850,local,global,750,S,S,E,A,E-S.png,S-A.png,sS,sS,mask-2.png,mask-2.png,s,1,0.4718094999989262,h,0,0.12542369999573566,0.04925720000755973,0.04979309999907855,0.09927930000412744,0.09984209999674931,0.7500483000039821
RSVPLG03,km,20251023-112200,1.0.1,20251023-100704,712,Experiment,Both,1,Automatic,main,84,20251023-112855,global,local,750,H,S,A,A,H-A.png,A-S.png,hH,sS,mask-2.png,mask-1.png,h,1,0.2633271000086097,s,1,0.1266994000034174,0.051437799993436784,0.05000000000291038,0.10091310000279918,0.10009079999872483,0.7524955999979284
RSVPLG03,km,20251023-112200,1.0.1,20251023-100704,712,Experiment,Both,1,Automatic,main,85,20251023-112900,global,local,750,S,H,A,A,S-A.png,A-H.png,sS,hH,mask-1.png,mask-2.png,h,0,0.8749931000056677,s,0,0.33113720000255853,0.04997810001077596,0.05078200000571087,0.09870990000490565,0.10094319999916479,0.7496411000029184
RSVPLG03,km,20251023-112200,1.0.1,20251023-100704,712,Experiment,Both,1,Automatic,main,86,20251023-112905,global,global,300,H,S,E,A,H-E.png,S-A.png,hH,sS,mask-2.png,mask-2.png,h,1,0.2810907000093721,s,1,0.2525011999969138,0.05142160000104923,0.049965700003667735,0.10207780000928324,0.10003780000261031,0.3021130999986781
RSVPLG03,km,20251023-112200,1.0.1,20251023-100704,712,Experiment,Both,1,Automatic,main,87,20251023-112909,global,local,750,H,S,E,A,H-E.png,A-S.png,hH,sS,mask-2.png,mask-1.png,h,1,0.04252950000227429,h,0,0.3986832999944454,0.05070809999597259,0.0495599999994738,0.09948189998976886,0.10081239999271929,0.7508042999979807
RSVPLG03,km,20251023-112200,1.0.1,20251023-100704,712,Experiment,Both,1,Automatic,main,88,20251023-112914,local,local,300,H,H,E,E,E-H.png,E-H.png,hH,hH,mask-1.png,mask-1.png,h,1,0.7184191999986069,h,1,0.35416659999464173,0.04838520000339486,0.05077929999970365,0.09885700000450015,0.10046660000807606,0.2982404999929713
RSVPLG03,km,20251023-112200,1.0.1,20251023-100704,712,Experiment,Both,1,Automatic,main,89,20251023-112919,local,local,750,S,H,A,E,A-S.png,E-H.png,sS,hH,mask-2.png,mask-3.png,h,0,0.5042466000013519,s,0,0.17223130000638776,0.04968479998933617,0.0496090000087861,0.10048489998735022,0.10022780000872444,0.7509537999867462
RSVPLG03,km,20251023-112200,1.0.1,20251023-100704,712,Experiment,Both,1,Automatic,main,90,20251023-112924,local,global,300,S,H,A,A,A-S.png,H-A.png,sS,hH,mask-1.png,mask-1.png,h,0,0.5525767000071937,h,1,0.14220129999739584,0.04837200000474695,0.048654500002157874,0.09824800000933465,0.100683000011486,0.29996679999749176
RSVPLG03,km,20251023-112200,1.0.1,20251023-100704,712,Experiment,Both,1,Automatic,main,91,20251023-112928,local,local,300,S,S,E,A,E-S.png,A-S.png,sS,sS,mask-4.png,mask-4.png,h,0,0.5555975000024773,s,1,0.2535576999944169,0.04852729999402072,0.04946350000682287,0.10170359999756329,0.09813080000458285,0.3006935000012163
RSVPLG03,km,20251023-112200,1.0.1,20251023-100704,712,Experiment,Both,1,Automatic,main,92,20251023-112933,global,global,750,S,H,E,A,S-E.png,H-A.png,sS,hH,mask-2.png,mask-3.png,s,1,0.1766127000009874,h,1,0.12477870000293478,0.04948370000056457,0.050027700010105036,0.10070490000362042,0.09967799999867566,0.7511082999990322
RSVPLG03,km,20251023-112200,1.0.1,20251023-100704,712,Experiment,Both,1,Automatic,main,93,20251023-112938,global,local,300,H,S,A,A,H-A.png,A-S.png,hH,sS,mask-4.png,mask-2.png,h,1,0.4126790999871446,h,0,0.23825540000689216,0.05104900000151247,0.04942080000182614,0.10087449999991804,0.09928180000861175,0.3021650000009686
RSVPLG03,km,20251023-112200,1.0.1,20251023-100704,712,Experiment,Both,1,Automatic,main,94,20251023-112942,local,local,750,S,S,A,A,A-S.png,A-S.png,sS,sS,mask-3.png,mask-2.png,s,1,0.29675969999516383,s,1,0.18759319999662694,0.047132899999269284,0.04960299999220297,0.0976782999932766,0.09938419998798054,0.7499405999988085
RSVPLG03,km,20251023-112200,1.0.1,20251023-100704,712,Experiment,Both,1,Automatic,main,95,20251023-112947,global,local,750,H,S,E,A,H-E.png,A-S.png,hH,sS,mask-2.png,mask-1.png,h,1,0.6283890000049723,h,0,0.5445180000097025,0.04952719999710098,0.04862840000714641,0.09873030000017025,0.10049700000672601,0.7512145999935456
RSVPLG03,km,20251023-112200,1.0.1,20251023-100704,712,Experiment,Both,1,Automatic,main,96,20251023-112952,local,local,750,S,H,A,E,A-S.png,E-H.png,sS,hH,mask-1.png,mask-3.png,s,1,0.4395741000043927,h,1,0.5750815999926999,0.05087209999328479,0.04813080000167247,0.0999807000043802,0.10011430000304244,0.7527056999970227
RSVPLG03,km,20251023-112200,1.0.1,20251023-100704,712,Experiment,Both,1,Automatic,main,97,20251023-112957,global,local,750,S,S,A,E,S-A.png,E-S.png,sS,sS,mask-1.png,mask-2.png,s,1,0.2970550000027288,s,1,0.15828039999178145,0.04952460000640713,0.05004450000706129,0.09823509999841917,0.10082420000981074,0.7492711999948369
RSVPLG03,km,20251023-112200,1.0.1,20251023-100704,712,Experiment,Both,1,Automatic,main,98,20251023-113002,local,global,300,S,H,A,E,A-S.png,H-E.png,sS,hH,mask-2.png,mask-3.png,s,1,0.8971911000116961,h,1,0.496098500007065,0.04980239999713376,0.050699100000201724,0.09950349999417085,0.1003950000012992,0.29927189998852555
RSVPLG03,km,20251023-112200,1.0.1,20251023-100704,712,Experiment,Both,1,Automatic,main,99,20251023-113007,local,global,300,H,H,E,A,E-H.png,H-A.png,hH,hH,mask-3.png,mask-2.png,h,1,0.4898615999991307,h,1,1.4878931999992346,0.04936039999302011,0.050776200005202554,0.10004900000058115,0.1005243999970844,0.2994053000002168
RSVPLG03,km,20251023-112200,1.0.1,20251023-100704,712,Experiment,Both,1,Automatic,main,100,20251023-113013,local,local,300,S,S,E,A,E-S.png,A-S.png,sS,sS,mask-4.png,mask-3.png,s,1,0.29933799999707844,s,1,0.20715159999963362,0.04950300000200514,0.04982670000754297,0.10012540000025183,0.09987649999675341,0.30080339999403805
RSVPLG03,km,20251023-112200,1.0.1,20251023-100704,712,Experiment,Both,1,Automatic,main,101,20251023-113019,local,local,750,H,S,A,E,A-H.png,E-S.png,hH,sS,mask-3.png,mask-1.png,h,1,0.2578125,h,0,0.1740834999945946,0.049954699992667884,0.04970879999746103,0.09899999998742715,0.09952240000711754,0.7499624999909429
RSVPLG03,km,20251023-112200,1.0.1,20251023-100704,712,Experiment,Both,1,Automatic,main,102,20251023-113023,local,local,300,S,H,E,E,E-S.png,E-H.png,sS,hH,mask-4.png,mask-4.png,s,1,0.10084060000372119,h,1,0.16295650000392925,0.04898900000262074,0.05077049999090377,0.09880190000694711,0.10086849999788683,0.2987199000053806
RSVPLG03,km,20251023-112200,1.0.1,20251023-100704,712,Experiment,Both,1,Automatic,main,103,20251023-113028,global,global,750,H,S,A,A,H-A.png,S-A.png,hH,sS,mask-3.png,mask-3.png,h,1,0.17195220000576228,s,1,0.205960999999661,0.04929870000341907,0.04725279999547638,0.10097949999908451,0.09820500000205357,0.7524789000017336
RSVPLG03,km,20251023-112200,1.0.1,20251023-100704,712,Experiment,Both,1,Automatic,main,104,20251023-113032,local,local,750,H,H,A,A,A-H.png,A-H.png,hH,hH,mask-4.png,mask-1.png,h,1,0.10304879999603145,h,1,0.15774310000415426,0.048479700009920634,0.051184900003136136,0.09991650001029484,0.10065350000513718,0.7498860000050627
RSVPLG03,km,20251023-112200,1.0.1,20251023-100704,712,Experiment,Both,1,Automatic,main,105,20251023-113037,local,local,750,H,H,E,E,E-H.png,E-H.png,hH,hH,mask-2.png,mask-4.png,h,1,0.11850160000903998,h,1,0.2055296000035014,0.050754800002323464,0.048695899997255765,0.09965370000281837,0.10035029999562539,0.7521697000047425
RSVPLG03,km,20251023-112200,1.0.1,20251023-100704,712,Experiment,Both,1,Automatic,main,106,20251023-113041,local,local,750,H,S,E,E,E-H.png,E-S.png,hH,sS,mask-3.png,mask-4.png,h,1,0.2080658999911975,s,1,0.19164370000362396,0.050721299994620495,0.05032789999677334,0.10184600000502542,0.09876490000169724,0.7519742000004044
RSVPLG03,km,20251023-112200,1.0.1,20251023-100704,712,Experiment,Both,1,Automatic,main,107,20251023-113046,global,global,300,S,H,A,A,S-A.png,H-A.png,sS,hH,mask-1.png,mask-3.png,h,0,1.1214303000015207,s,0,0.254530899997917,0.049308299989206716,0.049951599998166785,0.09882899999502115,0.09940330000245012,0.29985799999849405
RSVPLG03,km,20251023-112200,1.0.1,20251023-100704,712,Experiment,Both,1,Automatic,main,108,20251023-113051,global,local,300,H,H,E,E,H-E.png,E-H.png,hH,hH,mask-2.png,mask-1.png,h,1,0.31329530000220984,s,0,0.14403199999651406,0.04968130000634119,0.05166800000006333,0.09946789999958128,0.10147460000007413,0.2999070999940159
RSVPLG03,km,20251023-112200,1.0.1,20251023-100704,712,Experiment,Both,1,Automatic,main,109,20251023-113055,local,local,750,S,S,E,E,E-S.png,E-S.png,sS,sS,mask-2.png,mask-2.png,s,1,0.15316869999514893,s,1,0.20571590001054574,0.04869930000859313,0.049501899993629195,0.09934520001115743,0.10052879998693243,0.749556400012807
RSVPLG03,km,20251023-112200,1.0.1,20251023-100704,712,Experiment,Both,1,Automatic,main,110,20251023-113100,local,global,750,H,S,E,A,E-H.png,S-A.png,hH,sS,mask-3.png,mask-3.png,h,1,0.05254999999306165,s,1,0.9262939000036567,0.04920660000061616,0.04895940001006238,0.09966059999715071,0.09898209999664687,0.7519027999951504
RSVPLG03,km,20251023-112200,1.0.1,20251023-100704,712,Experiment,Both,1,Automatic,main,111,20251023-113105,local,local,750,H,S,A,A,A-H.png,A-S.png,hH,sS,mask-2.png,mask-3.png,h,1,0.20488330000080168,s,1,0.462271199998213,0.049671000000671484,0.04969580000033602,0.0995487000036519,0.10047340000164695,0.7498193999927025
RSVPLG03,km,20251023-112200,1.0.1,20251023-100704,712,Experiment,Both,1,Automatic,main,112,20251023-113110,global,local,300,S,S,A,A,S-A.png,A-S.png,sS,sS,mask-3.png,mask-2.png,s,1,0.3825152000063099,s,1,0.12681030000385363,0.05048620000889059,0.04991380000137724,0.10078880000219215,0.09955630000331439,0.3007069000013871
RSVPLG03,km,20251023-112200,1.0.1,20251023-100704,712,Experiment,Both,1,Automatic,main,113,20251023-113114,global,global,750,H,S,E,E,H-E.png,S-E.png,hH,sS,mask-2.png,mask-3.png,s,0,0.3707423000014387,h,0,1.3758525000012014,0.04836140001134481,0.049700499992468394,0.099740900011966,0.1005919999879552,0.7503855000104522
RSVPLG03,km,20251023-112200,1.0.1,20251023-100704,712,Experiment,Both,1,Automatic,main,114,20251023-113120,local,global,300,S,S,A,A,A-S.png,S-A.png,sS,sS,mask-1.png,mask-2.png,s,1,0.3006005999923218,s,1,0.6715807000000495,0.05040869998629205,0.048296599998138845,0.10089859999425244,0.09871259999636095,0.3020249999972293
RSVPLG03,km,20251023-112200,1.0.1,20251023-100704,712,Experiment,Both,1,Automatic,main,115,20251023-113125,global,global,750,S,S,E,E,S-E.png,S-E.png,sS,sS,mask-2.png,mask-2.png,s,1,0.17379950000031386,s,1,0.14164819999132305,0.04991590000281576,0.0499063000024762,0.0990215000056196,0.09985650000453461,0.749747900001239
RSVPLG03,km,20251023-112200,1.0.1,20251023-100704,712,Experiment,Both,1,Automatic,main,116,20251023-113129,global,global,750,S,S,A,E,S-A.png,S-E.png,sS,sS,mask-2.png,mask-2.png,s,1,0.20043440000154078,s,1,0.13962039999023546,0.049489999990328215,0.05170159999397583,0.09931569999025669,0.10057490000326652,0.7493820999952732
RSVPLG03,km,20251023-112200,1.0.1,20251023-100704,712,Experiment,Both,1,Automatic,main,117,20251023-113134,global,global,300,S,S,E,A,S-E.png,S-A.png,sS,sS,mask-3.png,mask-1.png,s,1,0.20483859999512788,s,1,0.23884089999774005,0.050254599991603754,0.05026239999278914,0.10056979999353644,0.09956679999595508,0.3001957999949809
RSVPLG03,km,20251023-112200,1.0.1,20251023-100704,712,Experiment,Both,1,Automatic,main,118,20251023-113138,global,local,300,H,H,E,E,H-E.png,E-H.png,hH,hH,mask-3.png,mask-1.png,h,1,0.15215850000095088,s,0,0.20724869999685325,0.049692300002789125,0.050647800002479926,0.0995002999989083,0.10050120000960305,0.299806199996965
RSVPLG03,km,20251023-112200,1.0.1,20251023-100704,712,Experiment,Both,1,Automatic,main,119,20251023-113142,local,global,750,S,H,E,A,E-S.png,H-A.png,sS,hH,mask-2.png,mask-4.png,s,1,0.2002065999986371,h,1,0.3955323000118369,0.05030079999414738,0.0498243000038201,0.10098499999730848,0.09970400000747759,0.7517987999890465
RSVPLG03,km,20251023-112200,1.0.1,20251023-100704,712,Experiment,Both,1,Automatic,main,120,20251023-113147,local,local,300,S,S,E,E,E-S.png,E-S.png,sS,sS,mask-3.png,mask-1.png,s,1,0.19839320000028238,s,1,0.14163130000815727,0.05106089999026153,0.04954120000184048,0.10058209999988321,0.09973629999149125,0.30192349999560975
RSVPLG03,km,20251023-112200,1.0.1,20251023-100704,712,Experiment,Both,1,Automatic,main,121,20251023-113151,global,local,300,H,H,A,E,H-A.png,E-H.png,hH,hH,mask-1.png,mask-4.png,h,1,0.23034290000214241,s,0,0.12800959999731276,0.04875890001130756,0.04950219999591354,0.10034640000958461,0.10009439999703318,0.3004761000047438
RSVPLG03,km,20251023-112200,1.0.1,20251023-100704,712,Experiment,Both,1,Automatic,main,122,20251023-113156,global,global,750,H,H,A,A,H-A.png,H-A.png,hH,hH,mask-1.png,mask-1.png,h,1,0.1327267999877222,h,1,0.17138790000171866,0.04979260000982322,0.049823299996205606,0.09972890000790358,0.10077869999804534,0.7512700000079349
