exp,exp_initials,runtime,ver,modtime,sub,blocktype,targets,cuetype,mode,trialtype,trial,trialtime,t1_level,t2_level,t2_lag,t1,t2,distractor1,distractor2,stimfile1,stimfile2,t1_corr,t2_corr,maskfile1,maskfile2,t1_resp,t1_acc,t1_rt,t2_resp,t2_acc,t2_rt,t1_dur,t2_dur,t1mask_soa,t2mask_soa,t1t2_soa
RSVPLG03,sg,20260504-173223,1.0.2,20251105-084826,838,Introduction,T1,1,Automatic,main,1,20260504-173251,global,global,750,H,H,A,E,H-A.png,H-E.png,hH,hH,mask-3.png,mask-2.png,h,1,0.897392800077796,none,-5,0,0.09868759987875819,0.09659169986844063,0.20176990004256368,0.20072979992255569,0.7524530999362469
RSVPLG03,sg,20260504-173223,1.0.2,20251105-084826,838,Introduction,T1,1,Automatic,main,2,20260504-173256,local,global,750,S,H,E,E,E-S.png,H-E.png,sS,hH,mask-1.png,mask-4.png,h,0,1.1784874997101724,none,-5,0,0.09755139984190464,0.09616040019318461,0.19967180024832487,0.19989640032872558,0.7515711998566985
RSVPLG03,sg,20260504-173223,1.0.2,20251105-084826,838,Introduction,T1,1,Automatic,main,3,20260504-173301,local,local,750,H,H,A,A,A-H.png,A-H.png,hH,hH,mask-2.png,mask-3.png,h,1,1.022147599607706,none,-5,0,0.09948459966108203,0.0972886998206377,0.20134739996865392,0.2001697001978755,0.751505599822849
RSVPLG03,sg,20260504-173223,1.0.2,20251105-084826,838,Introduction,T1,1,Automatic,main,4,20260504-173306,local,global,750,H,H,A,A,A-H.png,H-A.png,hH,hH,mask-4.png,mask-1.png,h,1,0.5898376000113785,none,-5,0,0.09660559985786676,0.09945299988612533,0.199222800321877,0.2017697999253869,0.7496670000255108
RSVPLG03,sg,20260504-173223,1.0.2,20251105-084826,838,Introduction,T1,1,Automatic,main,5,20260504-173311,global,global,750,S,H,A,A,S-A.png,H-A.png,sS,hH,mask-2.png,mask-4.png,multiple,-2,1.006657499819994,none,-5,0,0.0975846997462213,0.09581079985946417,0.1995628997683525,0.20037189964205027,0.7510755001567304
RSVPLG03,sg,20260504-173223,1.0.2,20251105-084826,838,Introduction,T1,1,Automatic,main,6,20260504-173316,global,local,750,H,S,E,E,H-E.png,E-S.png,hH,sS,mask-4.png,mask-4.png,h,1,1.020176200196147,none,-5,0,0.09744579996913671,0.09719419991597533,0.2015158999711275,0.20103840017691255,0.7508159000426531
RSVPLG03,sg,20260504-173223,1.0.2,20251105-084826,838,Introduction,T1,1,Automatic,main,7,20260504-173322,global,global,750,H,H,E,A,H-E.png,H-A.png,hH,hH,mask-4.png,mask-4.png,h,1,0.6220358996652067,none,-5,0,0.09858139976859093,0.09661910030990839,0.20062359981238842,0.19972830032929778,0.7510797996073961
RSVPLG03,sg,20260504-173223,1.0.2,20251105-084826,838,Introduction,T1,1,Automatic,main,8,20260504-173326,local,global,750,H,H,A,A,A-H.png,H-A.png,hH,hH,mask-4.png,mask-4.png,h,1,0.41630000015720725,none,-5,0,0.09719370026141405,0.09686900023370981,0.20030259992927313,0.19994560023769736,0.750741200055927
RSVPLG03,sg,20260504-173223,1.0.2,20251105-084826,838,Introduction,T1,1,Automatic,main,9,20260504-173331,local,local,750,S,H,A,E,A-S.png,E-H.png,sS,hH,mask-1.png,mask-1.png,s,1,0.7514641000889242,none,-5,0,0.0962392003275454,0.09733950020745397,0.20034119999036193,0.20046309987083077,0.7500100000761449
RSVPLG03,sg,20260504-173223,1.0.2,20251105-084826,838,Introduction,T1,1,Automatic,main,10,20260504-173336,global,local,750,S,S,E,A,S-E.png,A-S.png,sS,sS,mask-4.png,mask-2.png,s,1,0.383320199791342,none,-5,0,0.09676609979942441,0.09597479971125722,0.199908799957484,0.1992969997227192,0.7503978000022471
RSVPLG03,sg,20260504-173223,1.0.2,20251105-084826,838,Introduction,T1,1,Automatic,main,11,20260504-173341,local,global,750,S,H,E,A,E-S.png,H-A.png,sS,hH,mask-1.png,mask-2.png,h,0,0.3214131002314389,none,-5,0,0.09638960007578135,0.09645979991182685,0.198696400038898,0.19930220022797585,0.7500819000415504
RSVPLG03,sg,20260504-173223,1.0.2,20251105-084826,838,Introduction,T1,1,Automatic,main,12,20260504-173345,global,local,750,H,S,A,A,H-A.png,A-S.png,hH,sS,mask-4.png,mask-4.png,h,1,1.2166066002100706,none,-5,0,0.09742720006033778,0.09846600005403161,0.19939219998195767,0.2004657001234591,0.7497779000550508
RSVPLG03,sg,20260504-173223,1.0.2,20251105-084826,838,Introduction,T1,1,Automatic,main,13,20260504-173351,global,local,750,S,H,A,E,S-A.png,E-H.png,sS,hH,mask-3.png,mask-3.png,s,1,0.6808635001070797,none,-5,0,0.09692570008337498,0.09755579987540841,0.2008092999458313,0.200501199811697,0.7506091999821365
RSVPLG03,sg,20260504-173223,1.0.2,20251105-084826,838,Introduction,T1,1,Automatic,main,14,20260504-173355,global,global,750,S,H,E,E,S-E.png,H-E.png,sS,hH,mask-2.png,mask-1.png,s,1,0.620696899946779,none,-5,0,0.09659670013934374,0.09740230021998286,0.19853870011866093,0.2002797001041472,0.7502366998232901
RSVPLG03,sg,20260504-173223,1.0.2,20251105-084826,838,Introduction,T1,1,Automatic,main,15,20260504-173400,local,local,750,S,S,A,E,A-S.png,E-S.png,sS,sS,mask-3.png,mask-4.png,s,1,0.5364916999824345,none,-5,0,0.0962037998251617,0.09723640000447631,0.20018719974905252,0.20041829999536276,0.7498129000887275
RSVPLG03,sg,20260504-173223,1.0.2,20251105-084826,838,Introduction,T1,1,Automatic,main,16,20260504-173405,local,local,750,H,S,A,A,A-H.png,A-S.png,hH,sS,mask-2.png,mask-3.png,s,0,0.6785249002277851,none,-5,0,0.09765570005401969,0.09755769977346063,0.19961730018258095,0.20064559997990727,0.751131100114435
RSVPLG03,sg,20260504-173505,1.0.2,20251105-084826,838,Practice,T1,1,Automatic,main,1,20260504-173524,global,local,300,H,H,A,A,H-A.png,A-H.png,hH,hH,mask-1.png,mask-3.png,h,1,0.5702746002934873,none,-5,0,0.048864600248634815,0.048799500335007906,0.10089770006015897,0.09979060012847185,0.3008226999081671
RSVPLG03,sg,20260504-173505,1.0.2,20251105-084826,838,Practice,T1,1,Automatic,main,2,20260504-173528,global,global,750,H,H,A,E,H-A.png,H-E.png,hH,hH,mask-3.png,mask-2.png,h,1,0.5011558001860976,none,-5,0,0.04649239964783192,0.04869859991595149,0.09879299998283386,0.10018999967724085,0.7493773000314832
RSVPLG03,sg,20260504-173505,1.0.2,20251105-084826,838,Practice,T1,1,Automatic,main,3,20260504-173533,local,global,750,S,H,A,A,A-S.png,H-A.png,sS,hH,mask-2.png,mask-2.png,h,0,0.5310093001462519,none,-5,0,0.04785099998116493,0.04775740019977093,0.10066429991275072,0.10001400019973516,0.7509225001558661
RSVPLG03,sg,20260504-173505,1.0.2,20251105-084826,838,Practice,T1,1,Automatic,main,4,20260504-173537,local,local,300,H,S,A,E,A-H.png,E-S.png,hH,sS,mask-3.png,mask-4.png,h,1,1.2772068995982409,none,-5,0,0.04757580021396279,0.045189100317656994,0.10059599997475743,0.09901040000841022,0.3013047999702394
RSVPLG03,sg,20260504-173505,1.0.2,20251105-084826,838,Practice,T1,1,Automatic,main,5,20260504-173542,local,local,750,S,S,E,A,E-S.png,A-S.png,sS,sS,mask-3.png,mask-4.png,s,1,0.37720140023157,none,-5,0,0.046784000005573034,0.047727399971336126,0.09873660001903772,0.09993959963321686,0.7501667002215981
RSVPLG03,sg,20260504-173505,1.0.2,20251105-084826,838,Practice,T1,1,Automatic,main,6,20260504-173546,global,local,750,S,S,E,E,S-E.png,E-S.png,sS,sS,mask-3.png,mask-2.png,s,1,0.6187306996434927,none,-5,0,0.04641709988936782,0.04753720015287399,0.0994297000579536,0.10103460028767586,0.7497056997381151
RSVPLG03,sg,20260504-173505,1.0.2,20251105-084826,838,Practice,T1,1,Automatic,main,7,20260504-173551,global,global,750,H,H,E,A,H-E.png,H-A.png,hH,hH,mask-1.png,mask-1.png,h,1,0.5522936000488698,none,-5,0,0.04647029982879758,0.046901300083845854,0.09970169980078936,0.10020799981430173,0.7499823998659849
RSVPLG03,sg,20260504-173505,1.0.2,20251105-084826,838,Practice,T1,1,Automatic,main,8,20260504-173556,local,global,300,H,S,A,A,A-H.png,S-A.png,hH,sS,mask-1.png,mask-1.png,s,0,0.7234174995683134,none,-5,0,0.04845030000433326,0.04734600009396672,0.10064349975436926,0.10174900013953447,0.3008235995657742
RSVPLG03,sg,20260504-173505,1.0.2,20251105-084826,838,Practice,T1,1,Automatic,main,9,20260504-173600,local,global,750,H,S,A,E,A-H.png,S-E.png,hH,sS,mask-1.png,mask-3.png,h,1,0.5890554999932647,none,-5,0,0.04747190000489354,0.04769070027396083,0.1006788001395762,0.09787900000810623,0.7517748000100255
RSVPLG03,sg,20260504-173505,1.0.2,20251105-084826,838,Practice,T1,1,Automatic,main,10,20260504-173605,local,global,300,H,H,A,A,A-H.png,H-A.png,hH,hH,mask-2.png,mask-2.png,h,1,0.5122679998166859,none,-5,0,0.04772720020264387,0.046431999653577805,0.0999218001961708,0.09963099984452128,0.3013043003156781
RSVPLG03,sg,20260504-173505,1.0.2,20251105-084826,838,Practice,T1,1,Automatic,main,11,20260504-173609,local,local,750,H,S,A,A,A-H.png,A-S.png,hH,sS,mask-4.png,mask-2.png,h,1,0.5752491001039743,none,-5,0,0.04842100013047457,0.04851169977337122,0.1012949999421835,0.09954999992623925,0.7508280002512038
RSVPLG03,sg,20260504-173505,1.0.2,20251105-084826,838,Practice,T1,1,Automatic,main,12,20260504-173613,global,local,750,H,H,A,E,H-A.png,E-H.png,hH,hH,mask-4.png,mask-1.png,h,1,0.47025529993698,none,-5,0,0.04770160000771284,0.04874370014294982,0.09999070037156343,0.10095780016854405,0.7488139001652598
RSVPLG03,sg,20260504-173505,1.0.2,20251105-084826,838,Practice,T1,1,Automatic,main,13,20260504-173618,global,global,300,H,S,A,A,H-A.png,S-A.png,hH,sS,mask-4.png,mask-1.png,s,0,0.6168181002140045,none,-5,0,0.04718929994851351,0.04736980004236102,0.09937580022960901,0.09943609964102507,0.2999137002043426
RSVPLG03,sg,20260504-173505,1.0.2,20251105-084826,838,Practice,T1,1,Automatic,main,14,20260504-173622,local,local,300,S,S,A,A,A-S.png,A-S.png,sS,sS,mask-3.png,mask-1.png,h,0,0.45222320035099983,none,-5,0,0.04681349964812398,0.04873490007594228,0.1009537996724248,0.10070599988102913,0.2995599997229874
RSVPLG03,sg,20260504-173505,1.0.2,20251105-084826,838,Practice,T1,1,Automatic,main,15,20260504-173626,global,local,300,S,H,E,E,S-E.png,E-H.png,sS,hH,mask-1.png,mask-1.png,s,1,0.35217349976301193,none,-5,0,0.04748759977519512,0.048811799846589565,0.09892569994553924,0.10077119991183281,0.29889019997790456
RSVPLG03,sg,20260504-173505,1.0.2,20251105-084826,838,Practice,T1,1,Automatic,main,16,20260504-173630,global,global,300,S,H,A,E,S-A.png,H-E.png,sS,hH,mask-2.png,mask-2.png,s,1,0.40683180000633,none,-5,0,0.04774289997294545,0.04755009990185499,0.10103400005027652,0.09951400011777878,0.3000365998595953
RSVPLG03,sg,20260504-173659,1.0.2,20251105-084826,838,Practice,T1,1,Automatic,main,1,20260504-173716,global,local,750,S,H,A,A,S-A.png,A-H.png,sS,hH,mask-2.png,mask-4.png,s,1,0.8394578997977078,none,-5,0,0.04103469988331199,0.04660019977018237,0.09207000024616718,0.10060909995809197,0.7436502003110945
RSVPLG03,sg,20260504-173659,1.0.2,20251105-084826,838,Practice,T1,1,Automatic,main,2,20260504-173721,local,global,750,S,S,E,A,E-S.png,S-A.png,sS,sS,mask-4.png,mask-2.png,h,0,1.5356014999561012,none,-5,0,0.04858840024098754,0.0477033001370728,0.1006046999245882,0.10199759993702173,0.7508759000338614
RSVPLG03,sg,20260504-173659,1.0.2,20251105-084826,838,Practice,T1,1,Automatic,main,3,20260504-173726,local,local,300,S,H,A,E,A-S.png,E-H.png,sS,hH,mask-4.png,mask-4.png,s,1,1.8541479003615677,none,-5,0,0.04777480009943247,0.04784390004351735,0.09996449993923306,0.10030370019376278,0.29900059988722205
RSVPLG03,sg,20260504-173659,1.0.2,20251105-084826,838,Practice,T1,1,Automatic,main,4,20260504-173732,global,global,750,H,H,A,E,H-A.png,H-E.png,hH,hH,mask-3.png,mask-2.png,h,1,0.45069949980825186,none,-5,0,0.04687020042911172,0.04753299988806248,0.10096220020204782,0.10056230006739497,0.7501261001452804
RSVPLG03,sg,20260504-173659,1.0.2,20251105-084826,838,Practice,T1,1,Automatic,main,5,20260504-173736,global,global,750,H,H,A,A,H-A.png,H-A.png,hH,hH,mask-1.png,mask-1.png,h,1,0.49208549968898296,none,-5,0,0.046749300323426723,0.04771520011126995,0.0997935002669692,0.09990570042282343,0.7496589999645948
RSVPLG03,sg,20260504-173659,1.0.2,20251105-084826,838,Practice,T1,1,Automatic,main,6,20260504-173741,local,global,300,S,H,A,A,A-S.png,H-A.png,sS,hH,mask-4.png,mask-4.png,h,0,0.721792200114578,none,-5,0,0.04726439993828535,0.04752880008891225,0.09987729974091053,0.10039180004969239,0.29969479981809855
RSVPLG03,sg,20260504-173659,1.0.2,20251105-084826,838,Practice,T1,1,Automatic,main,7,20260504-173745,local,local,300,S,H,E,E,E-S.png,E-H.png,sS,hH,mask-1.png,mask-2.png,h,0,0.9272495997138321,none,-5,0,0.04769460018724203,0.04649929981678724,0.09990980010479689,0.09870729967951775,0.3015716001391411
RSVPLG03,sg,20260504-173659,1.0.2,20251105-084826,838,Practice,T1,1,Automatic,main,8,20260504-173750,global,global,300,H,H,A,A,H-A.png,H-A.png,hH,hH,mask-4.png,mask-3.png,h,1,11.520774300210178,none,-5,0,0.048465900123119354,0.047142399940639734,0.09970459993928671,0.09920760011300445,0.30094469990581274
RSVPLG03,sg,20260504-173659,1.0.2,20251105-084826,838,Practice,T1,1,Automatic,main,9,20260504-173805,local,global,750,S,S,A,E,A-S.png,S-E.png,sS,sS,mask-4.png,mask-4.png,s,1,0.6507696998305619,none,-5,0,0.04864579997956753,0.046835099812597036,0.09971150010824203,0.09996839985251427,0.7518033999949694
RSVPLG03,sg,20260504-173659,1.0.2,20251105-084826,838,Practice,T1,1,Automatic,main,10,20260504-173809,global,local,300,H,H,E,E,H-E.png,E-H.png,hH,hH,mask-3.png,mask-2.png,h,1,0.4068134999834001,none,-5,0,0.047224000096321106,0.04751150030642748,0.09922900004312396,0.10153069999068975,0.29850189993157983
RSVPLG03,sg,20260504-173659,1.0.2,20251105-084826,838,Practice,T1,1,Automatic,main,11,20260504-173813,local,local,750,S,S,A,E,A-S.png,E-S.png,sS,sS,mask-2.png,mask-4.png,h,0,0.6714490000158548,none,-5,0,0.04755549971014261,0.047543099615722895,0.09957209974527359,0.09961369959637523,0.750791700091213
RSVPLG03,sg,20260504-173659,1.0.2,20251105-084826,838,Practice,T1,1,Automatic,main,12,20260504-173818,local,global,300,H,S,E,E,E-H.png,S-E.png,hH,sS,mask-4.png,mask-2.png,s,0,1.5481505002826452,none,-5,0,0.047690399922430515,0.04684779979288578,0.09981620032340288,0.09959919983521104,0.301218300126493
RSVPLG03,sg,20260504-173659,1.0.2,20251105-084826,838,Practice,T1,1,Automatic,main,13,20260504-173823,global,local,750,S,S,A,E,S-A.png,E-S.png,sS,sS,mask-2.png,mask-4.png,h,0,1.6091857999563217,none,-5,0,0.0476007997058332,0.04876579996198416,0.09998479997739196,0.10100030014291406,0.7501794998534024
RSVPLG03,sg,20260504-173659,1.0.2,20251105-084826,838,Practice,T1,1,Automatic,main,14,20260504-173829,local,local,750,H,S,A,E,A-H.png,E-S.png,hH,sS,mask-2.png,mask-4.png,h,1,3.6269102999940515,none,-5,0,0.047571000177413225,0.04759390000253916,0.10053770011290908,0.09906340017914772,0.7515026000328362
RSVPLG03,sg,20260504-173659,1.0.2,20251105-084826,838,Practice,T1,1,Automatic,main,15,20260504-173836,global,local,300,H,S,A,A,H-A.png,A-S.png,hH,sS,mask-2.png,mask-2.png,h,1,0.344128199853003,none,-5,0,0.04572420008480549,0.048731000162661076,0.09895450016483665,0.09978129994124174,0.298766499850899
RSVPLG03,sg,20260504-173659,1.0.2,20251105-084826,838,Practice,T1,1,Automatic,main,16,20260504-173840,global,global,300,S,H,A,E,S-A.png,H-E.png,sS,hH,mask-2.png,mask-4.png,s,1,0.40277709998190403,none,-5,0,0.04757050005719066,0.04776049964129925,0.1013573999516666,0.0996862999163568,0.3009608001448214
RSVPLG03,sg,20260504-173944,1.0.2,20251105-084826,838,Practice,T1,1,Automatic,main,1,20260504-174000,local,global,750,H,H,E,A,E-H.png,H-A.png,hH,hH,mask-3.png,mask-3.png,h,1,0.5668651000596583,none,-5,0,0.04221230000257492,0.047830100171267986,0.09528710041195154,0.10098340036347508,0.7453298000618815
RSVPLG03,sg,20260504-173944,1.0.2,20251105-084826,838,Practice,T1,1,Automatic,main,2,20260504-174005,global,global,300,H,S,A,A,H-A.png,S-A.png,hH,sS,mask-4.png,mask-3.png,h,1,0.6468758997507393,none,-5,0,0.047860899940133095,0.04751850012689829,0.10022980021312833,0.0997358001768589,0.3007666999474168
RSVPLG03,sg,20260504-173944,1.0.2,20251105-084826,838,Practice,T1,1,Automatic,main,3,20260504-174009,global,global,750,S,H,E,A,S-E.png,H-A.png,sS,hH,mask-2.png,mask-2.png,s,1,0.4253361001610756,none,-5,0,0.047657900024205446,0.047717700246721506,0.0996122001670301,0.0996738001704216,0.7520753000862896
RSVPLG03,sg,20260504-173944,1.0.2,20251105-084826,838,Practice,T1,1,Automatic,main,4,20260504-174013,local,local,750,S,H,E,A,E-S.png,A-H.png,sS,hH,mask-4.png,mask-1.png,h,0,0.5512803997844458,none,-5,0,0.04751380020752549,0.04658869979903102,0.09953780006617308,0.09863639995455742,0.7526171002537012
RSVPLG03,sg,20260504-173944,1.0.2,20251105-084826,838,Practice,T1,1,Automatic,main,5,20260504-174018,local,global,750,H,H,E,A,E-H.png,H-A.png,hH,hH,mask-3.png,mask-1.png,h,1,0.6671616998501122,none,-5,0,0.0477360999211669,0.045711699873209,0.09990380005910993,0.09912749985232949,0.752078500110656
RSVPLG03,sg,20260504-173944,1.0.2,20251105-084826,838,Practice,T1,1,Automatic,main,6,20260504-174023,local,local,300,S,S,A,A,A-S.png,A-S.png,sS,sS,mask-3.png,mask-1.png,h,0,0.5095847002230585,none,-5,0,0.04818269982933998,0.047619299963116646,0.1003414997830987,0.09863500017672777,0.3018445996567607
RSVPLG03,sg,20260504-173944,1.0.2,20251105-084826,838,Practice,T1,1,Automatic,main,7,20260504-174027,local,global,300,S,S,E,E,E-S.png,S-E.png,sS,sS,mask-3.png,mask-2.png,s,1,0.443444199860096,none,-5,0,0.047558899968862534,0.04808990005403757,0.1015671999193728,0.1000481997616589,0.3007359001785517
RSVPLG03,sg,20260504-173944,1.0.2,20251105-084826,838,Practice,T1,1,Automatic,main,8,20260504-174031,global,local,750,H,H,E,E,H-E.png,E-H.png,hH,hH,mask-2.png,mask-3.png,h,1,0.8353639002889395,none,-5,0,0.047578500118106604,0.04689580015838146,0.10029239999130368,0.09990840032696724,0.7520471001043916
RSVPLG03,sg,20260504-173944,1.0.2,20251105-084826,838,Practice,T1,1,Automatic,main,9,20260504-174036,global,global,300,H,S,A,A,H-A.png,S-A.png,hH,sS,mask-2.png,mask-1.png,h,1,0.5245384001173079,none,-5,0,0.04776819981634617,0.04798669973388314,0.09983070008456707,0.09970750007778406,0.3013387001119554
RSVPLG03,sg,20260504-173944,1.0.2,20251105-084826,838,Practice,T1,1,Automatic,main,10,20260504-174040,global,global,750,S,H,A,A,S-A.png,H-A.png,sS,hH,mask-1.png,mask-2.png,s,1,0.3979843002744019,none,-5,0,0.04675799980759621,0.04724059998989105,0.10015049995854497,0.10039130039513111,0.751613199710846
RSVPLG03,sg,20260504-173944,1.0.2,20251105-084826,838,Practice,T1,1,Automatic,main,11,20260504-174044,global,local,750,S,H,A,A,S-A.png,A-H.png,sS,hH,mask-1.png,mask-4.png,s,1,1.7194133000448346,none,-5,0,0.047459499910473824,0.04703789995983243,0.1003052000887692,0.10096759954467416,0.7529222001321614
RSVPLG03,sg,20260504-173944,1.0.2,20251105-084826,838,Practice,T1,1,Automatic,main,12,20260504-174050,local,local,300,S,S,A,E,A-S.png,E-S.png,sS,sS,mask-3.png,mask-1.png,h,0,0.47756809974089265,none,-5,0,0.04752429993823171,0.04714810010045767,0.10053610010072589,0.10036549996584654,0.30193760013207793
RSVPLG03,sg,20260504-173944,1.0.2,20251105-084826,838,Practice,T1,1,Automatic,main,13,20260504-174054,local,global,300,S,H,A,A,A-S.png,H-A.png,sS,hH,mask-1.png,mask-2.png,h,0,0.4252464999444783,none,-5,0,0.04773909971117973,0.04729220038279891,0.10084789991378784,0.10011070035398006,0.30078549962490797
RSVPLG03,sg,20260504-173944,1.0.2,20251105-084826,838,Practice,T1,1,Automatic,main,14,20260504-174058,global,local,300,H,S,E,A,H-E.png,A-S.png,hH,sS,mask-3.png,mask-1.png,h,1,0.329288300126791,none,-5,0,0.04877629969269037,0.04724610038101673,0.10085459984838963,0.10145860025659204,0.3009710996411741
RSVPLG03,sg,20260504-173944,1.0.2,20251105-084826,838,Practice,T1,1,Automatic,main,15,20260504-174102,global,local,300,S,S,E,A,S-E.png,A-S.png,sS,sS,mask-3.png,mask-4.png,s,1,0.49759369995445013,none,-5,0,0.04902759985998273,0.04823049996048212,0.10114839999005198,0.10127849970012903,0.30037679988890886
RSVPLG03,sg,20260504-173944,1.0.2,20251105-084826,838,Practice,T1,1,Automatic,main,16,20260504-174106,local,local,750,H,H,A,A,A-H.png,A-H.png,hH,hH,mask-4.png,mask-4.png,h,1,0.39816809957847,none,-5,0,0.04839599970728159,0.04868820030242205,0.10035319998860359,0.09984409995377064,0.7517856997437775
RSVPLG03,sg,20260504-174150,1.0.2,20251105-084826,838,Introduction,T1,1,Automatic,main,1,20260504-174211,local,local,750,S,H,E,E,E-S.png,E-H.png,sS,hH,mask-4.png,mask-1.png,h,0,0.5132288997992873,none,-5,0,0.09142699977383018,0.09774870006367564,0.19323020009323955,0.2000577999278903,0.7425223998725414
RSVPLG03,sg,20260504-174150,1.0.2,20251105-084826,838,Introduction,T1,1,Automatic,main,2,20260504-174215,local,global,750,S,H,A,A,A-S.png,H-A.png,sS,hH,mask-3.png,mask-2.png,h,0,0.5119218998588622,none,-5,0,0.0973807000555098,0.09664230002090335,0.19940940011292696,0.19857909996062517,0.7494029002264142
RSVPLG03,sg,20260504-174150,1.0.2,20251105-084826,838,Introduction,T1,1,Automatic,main,3,20260504-174220,local,local,750,H,H,A,A,A-H.png,A-H.png,hH,hH,mask-4.png,mask-1.png,h,1,0.5115282996557653,none,-5,0,0.09605849999934435,0.09780459990724921,0.1999544003047049,0.19993119966238737,0.747635300271213
RSVPLG03,sg,20260504-174150,1.0.2,20251105-084826,838,Introduction,T1,1,Automatic,main,4,20260504-174225,local,global,750,S,S,A,A,A-S.png,S-A.png,sS,sS,mask-1.png,mask-4.png,s,1,0.6374139999970794,none,-5,0,0.09860699996352196,0.09731089975684881,0.20138730015605688,0.19871369982138276,0.7492672000080347
RSVPLG03,sg,20260504-174150,1.0.2,20251105-084826,838,Introduction,T1,1,Automatic,main,5,20260504-174230,global,local,750,S,S,A,E,S-A.png,E-S.png,sS,sS,mask-2.png,mask-2.png,s,1,0.5209483001381159,none,-5,0,0.09764270018786192,0.09635300002992153,0.19851010013371706,0.1990129998885095,0.7490892000496387
RSVPLG03,sg,20260504-174150,1.0.2,20251105-084826,838,Introduction,T1,1,Automatic,main,6,20260504-174234,local,local,750,H,S,A,A,A-H.png,A-S.png,hH,sS,mask-3.png,mask-1.png,h,1,0.621673199813813,none,-5,0,0.09944709995761514,0.09737140033394098,0.2003697999753058,0.20027990033850074,0.7506275996565819
RSVPLG03,sg,20260504-174150,1.0.2,20251105-084826,838,Introduction,T1,1,Automatic,main,7,20260504-174239,global,global,750,H,H,A,E,H-A.png,H-E.png,hH,hH,mask-4.png,mask-4.png,h,1,0.3897881000302732,none,-5,0,0.09784419974312186,0.09752579964697361,0.20106389978900552,0.20002599991858006,0.7498314999975264
RSVPLG03,sg,20260504-174150,1.0.2,20251105-084826,838,Introduction,T1,1,Automatic,main,8,20260504-174244,global,global,750,H,H,E,A,H-E.png,H-A.png,hH,hH,mask-4.png,mask-1.png,h,1,0.4413903998211026,none,-5,0,0.09736069990321994,0.09837059956043959,0.19904009997844696,0.20009439997375011,0.7489319001324475
RSVPLG03,sg,20260504-174150,1.0.2,20251105-084826,838,Introduction,T1,1,Automatic,main,9,20260504-174248,global,global,750,S,H,E,A,S-E.png,H-A.png,sS,hH,mask-3.png,mask-4.png,s,1,0.3273009997792542,none,-5,0,0.09577189991250634,0.09639249974861741,0.19879400031641126,0.1991237998008728,0.7495952001772821
RSVPLG03,sg,20260504-174150,1.0.2,20251105-084826,838,Introduction,T1,1,Automatic,main,10,20260504-174253,local,global,750,S,S,A,A,A-S.png,S-A.png,sS,sS,mask-3.png,mask-4.png,h,0,0.3192080999724567,none,-5,0,0.09653460001572967,0.09847649978473783,0.20072720013558865,0.20059609971940517,0.7483644001185894
RSVPLG03,sg,20260504-174150,1.0.2,20251105-084826,838,Introduction,T1,1,Automatic,main,11,20260504-174257,global,local,750,S,H,E,A,S-E.png,A-H.png,sS,hH,mask-4.png,mask-3.png,s,1,0.37566669983789325,none,-5,0,0.09658649982884526,0.0976217002607882,0.19983729999512434,0.20048030000180006,0.7489343998022377
RSVPLG03,sg,20260504-174150,1.0.2,20251105-084826,838,Introduction,T1,1,Automatic,main,12,20260504-174302,global,global,750,S,H,E,A,S-E.png,H-A.png,sS,hH,mask-2.png,mask-3.png,s,1,0.30401180032640696,none,-5,0,0.09785109991207719,0.09744379995390773,0.1996315000578761,0.19923890009522438,0.7486006999388337
RSVPLG03,sg,20260504-174150,1.0.2,20251105-084826,838,Introduction,T1,1,Automatic,main,13,20260504-174306,global,local,750,H,S,E,E,H-E.png,E-S.png,hH,sS,mask-2.png,mask-2.png,h,1,0.5350898997858167,none,-5,0,0.09636959992349148,0.09769160021096468,0.19864440010860562,0.19952489994466305,0.7480521998368204
RSVPLG03,sg,20260504-174150,1.0.2,20251105-084826,838,Introduction,T1,1,Automatic,main,14,20260504-174311,local,global,750,S,H,A,E,A-S.png,H-E.png,sS,hH,mask-1.png,mask-4.png,h,0,0.29890980012714863,none,-5,0,0.0975597002543509,0.0966826998628676,0.19963590009137988,0.20041200006380677,0.7492084000259638
RSVPLG03,sg,20260504-174150,1.0.2,20251105-084826,838,Introduction,T1,1,Automatic,main,15,20260504-174316,local,local,750,S,S,A,A,A-S.png,A-S.png,sS,sS,mask-2.png,mask-2.png,h,0,1.395301700104028,none,-5,0,0.09656939981505275,0.0975870001129806,0.1986620002426207,0.19975890032947063,0.7492356998845935
RSVPLG03,sg,20260504-174150,1.0.2,20251105-084826,838,Introduction,T1,1,Automatic,main,16,20260504-174321,global,local,750,S,H,A,A,S-A.png,A-H.png,sS,hH,mask-1.png,mask-3.png,s,1,0.17729949997738004,none,-5,0,0.0963694998063147,0.09731750003993511,0.1988613000139594,0.20023189997300506,0.7475037998519838
RSVPLG03,sg,20260504-174341,1.0.2,20251105-084826,838,Practice,Both,1,Automatic,main,1,20260504-174503,local,global,300,S,S,A,E,A-S.png,S-E.png,sS,sS,mask-4.png,mask-1.png,s,1,2.5122684999369085,h,0,0.14060269994661212,0.03986010001972318,0.0485987002030015,0.09299709973856807,0.10065310029312968,0.2926475997082889
RSVPLG03,sg,20260504-174341,1.0.2,20251105-084826,838,Practice,Both,1,Automatic,main,2,20260504-174510,local,local,750,S,H,E,A,E-S.png,A-H.png,sS,hH,mask-4.png,mask-4.png,s,1,1.1316988002508879,s,0,1.7761630001477897,0.0482804998755455,0.04702979978173971,0.10010079992935061,0.10024549998342991,0.7505328999832273
RSVPLG03,sg,20260504-174341,1.0.2,20251105-084826,838,Practice,Both,1,Automatic,main,3,20260504-174517,global,local,300,H,H,E,A,H-E.png,A-H.png,hH,hH,mask-4.png,mask-4.png,h,1,1.0601298999972641,h,1,0.45814030012115836,0.04754299996420741,0.04653490008786321,0.0995502001605928,0.09975800011307001,0.2998369000852108
RSVPLG03,sg,20260504-174341,1.0.2,20251105-084826,838,Practice,Both,1,Automatic,main,4,20260504-174522,local,global,750,H,H,E,E,E-H.png,H-E.png,hH,hH,mask-4.png,mask-1.png,h,1,0.6476138997823,h,1,0.3909362000413239,0.047692100051790476,0.04743430018424988,0.09994379989802837,0.10129289980977774,0.748985500074923
RSVPLG03,sg,20260504-174341,1.0.2,20251105-084826,838,Practice,Both,1,Automatic,main,5,20260504-174527,global,local,300,S,S,A,E,S-A.png,E-S.png,sS,sS,mask-3.png,mask-3.png,s,1,0.7756304000504315,s,1,0.3554541999474168,0.048686400055885315,0.04667200008407235,0.10078899981454015,0.09992010006681085,0.3014970999211073
RSVPLG03,sg,20260504-174341,1.0.2,20251105-084826,838,Practice,Both,1,Automatic,main,6,20260504-174532,global,local,750,S,H,E,A,S-E.png,A-H.png,sS,hH,mask-3.png,mask-3.png,s,1,0.9183308999054134,h,1,0.2475318000651896,0.04767639981582761,0.047432100400328636,0.10008300002664328,0.10046440036967397,0.749855499714613
RSVPLG03,sg,20260504-174341,1.0.2,20251105-084826,838,Practice,Both,1,Automatic,main,7,20260504-174538,local,local,300,H,H,A,A,A-H.png,A-H.png,hH,hH,mask-4.png,mask-4.png,h,1,0.9722627000883222,s,0,0.5606514001265168,0.046277899760752916,0.049653599970042706,0.09936479991301894,0.1015730001963675,0.29864729987457395
RSVPLG03,sg,20260504-174341,1.0.2,20251105-084826,838,Practice,Both,1,Automatic,main,8,20260504-174543,global,global,300,H,H,E,E,H-E.png,H-E.png,hH,hH,mask-4.png,mask-3.png,h,1,0.6042658998630941,h,1,0.2996781002730131,0.04749040026217699,0.046728699933737516,0.10054350038990378,0.0999511000700295,0.3007923001423478
RSVPLG03,sg,20260504-174341,1.0.2,20251105-084826,838,Practice,Both,1,Automatic,main,9,20260504-174548,global,global,300,S,S,A,E,S-A.png,S-E.png,sS,sS,mask-1.png,mask-2.png,h,0,2.192695999983698,s,1,0.21297039976343513,0.04751239996403456,0.047486800234764814,0.10040740016847849,0.09997070021927357,0.30041699996218085
RSVPLG03,sg,20260504-174341,1.0.2,20251105-084826,838,Practice,Both,1,Automatic,main,10,20260504-174554,local,global,750,H,S,E,E,E-H.png,S-E.png,hH,sS,mask-4.png,mask-4.png,h,1,0.7194729000329971,h,0,0.6308635999448597,0.04769570007920265,0.04553960030898452,0.10049029998481274,0.0995638002641499,0.7516796998679638
RSVPLG03,sg,20260504-174341,1.0.2,20251105-084826,838,Practice,Both,1,Automatic,main,11,20260504-174559,local,local,300,S,H,A,E,A-S.png,E-H.png,sS,hH,mask-4.png,mask-4.png,s,1,0.7728125997819006,h,1,0.45924900006502867,0.04695439990609884,0.04803729988634586,0.09961210004985332,0.0996663998812437,0.29940570006147027
RSVPLG03,sg,20260504-174341,1.0.2,20251105-084826,838,Practice,Both,1,Automatic,main,12,20260504-174604,global,global,750,S,S,A,A,S-A.png,S-A.png,sS,sS,mask-3.png,mask-4.png,s,1,0.5207886002026498,s,1,0.26924469973891973,0.04595019994303584,0.04793259967118502,0.09837740007787943,0.10053829988464713,0.7486081002280116
RSVPLG03,sg,20260504-174341,1.0.2,20251105-084826,838,Practice,Both,1,Automatic,main,13,20260504-174609,local,local,750,H,S,A,E,A-H.png,E-S.png,hH,sS,mask-4.png,mask-4.png,h,1,0.9023551000282168,h,0,0.849454099778086,0.04637880017980933,0.04695660015568137,0.09859970025718212,0.0994589002802968,0.7492831000126898
RSVPLG03,sg,20260504-174341,1.0.2,20251105-084826,838,Practice,Both,1,Automatic,main,14,20260504-174615,global,local,750,H,H,A,E,H-A.png,E-H.png,hH,hH,mask-4.png,mask-4.png,h,1,0.693690599873662,h,1,0.2885115002281964,0.04685859987512231,0.0473535000346601,0.0991543997079134,0.10007519973441958,0.7501068999990821
RSVPLG03,sg,20260504-174341,1.0.2,20251105-084826,838,Practice,Both,1,Automatic,main,15,20260504-174620,global,global,750,H,H,A,E,H-A.png,H-E.png,hH,hH,mask-4.png,mask-2.png,h,1,0.5413139001466334,h,1,0.2507968000136316,0.048423100262880325,0.04557640012353659,0.09991840040311217,0.09784639999270439,0.7520977002568543
RSVPLG03,sg,20260504-174341,1.0.2,20251105-084826,838,Practice,Both,1,Automatic,main,16,20260504-174625,local,global,300,H,H,E,E,E-H.png,H-E.png,hH,hH,mask-4.png,mask-3.png,h,1,0.7234831000678241,h,1,0.1757104997523129,0.04769450007006526,0.046779199969023466,0.10007680021226406,0.10018069995567203,0.30020880000665784
RSVPLG03,sg,20260504-174716,1.0.2,20251105-084826,838,Practice,Both,1,Automatic,main,1,20260504-174736,global,global,300,S,H,E,E,S-E.png,H-E.png,sS,hH,mask-2.png,mask-3.png,h,0,0.5460386998020113,h,1,0.1835900000296533,0.04808350000530481,0.04729359969496727,0.10059549985453486,0.1001690998673439,0.3004018999636173
RSVPLG03,sg,20260504-174716,1.0.2,20251105-084826,838,Practice,Both,1,Automatic,main,2,20260504-174741,global,global,750,S,S,E,E,S-E.png,S-E.png,sS,sS,mask-3.png,mask-2.png,s,1,1.2831772002391517,s,1,0.07112249964848161,0.04695319989696145,0.0465251998975873,0.09958560019731522,0.09884680015966296,0.7490042001008987
RSVPLG03,sg,20260504-174716,1.0.2,20251105-084826,838,Practice,Both,1,Automatic,main,3,20260504-174746,global,local,300,S,H,A,A,S-A.png,A-H.png,sS,hH,mask-3.png,mask-2.png,s,1,0.7675970001146197,h,1,0.17610960034653544,0.04887219984084368,0.04763519996777177,0.10144740017130971,0.10002969997003675,0.2996832001954317
RSVPLG03,sg,20260504-174716,1.0.2,20251105-084826,838,Practice,Both,1,Automatic,main,4,20260504-174751,global,local,750,S,S,E,E,S-E.png,E-S.png,sS,sS,mask-2.png,mask-1.png,s,1,0.7835515001788735,h,0,0.31958500016480684,0.047156000044196844,0.04726070025935769,0.09978510020300746,0.10009100008755922,0.7482198998332024
RSVPLG03,sg,20260504-174716,1.0.2,20251105-084826,838,Practice,Both,1,Automatic,main,5,20260504-174756,local,local,750,S,S,A,A,A-S.png,A-S.png,sS,sS,mask-2.png,mask-4.png,h,0,0.31174239981919527,h,0,0.11702629970386624,0.04619630007073283,0.047237600199878216,0.09869170002639294,0.09991340013220906,0.7481197998858988
RSVPLG03,sg,20260504-174716,1.0.2,20251105-084826,838,Practice,Both,1,Automatic,main,6,20260504-174801,local,global,750,H,S,A,E,A-H.png,S-E.png,hH,sS,mask-2.png,mask-3.png,h,1,0.9216768001206219,s,1,0.07108720019459724,0.048201399855315685,0.04685220029205084,0.10074640018865466,0.09937510034069419,0.7486896999180317
RSVPLG03,sg,20260504-174716,1.0.2,20251105-084826,838,Practice,Both,1,Automatic,main,7,20260504-174806,local,local,750,S,S,E,A,E-S.png,A-S.png,sS,sS,mask-4.png,mask-4.png,h,0,0.9158240999095142,s,1,0.4258274999447167,0.04880840005353093,0.047545299865305424,0.10037910006940365,0.09971849992871284,0.7504022000357509
RSVPLG03,sg,20260504-174716,1.0.2,20251105-084826,838,Practice,Both,1,Automatic,main,8,20260504-174811,local,global,300,H,H,A,A,A-H.png,H-A.png,hH,hH,mask-3.png,mask-3.png,h,1,0.4312947001308203,h,1,0.3352884999476373,0.04792999988421798,0.047808799892663956,0.10060419980436563,0.10006269998848438,0.29880139976739883
RSVPLG03,sg,20260504-174716,1.0.2,20251105-084826,838,Practice,Both,1,Automatic,main,9,20260504-174816,global,local,750,S,S,A,A,S-A.png,A-S.png,sS,sS,mask-3.png,mask-2.png,s,1,0.8394889002665877,h,0,0.12771590007469058,0.04716520011425018,0.0477746999822557,0.1006694003008306,0.10016799997538328,0.7484544003382325
RSVPLG03,sg,20260504-174716,1.0.2,20251105-084826,838,Practice,Both,1,Automatic,main,10,20260504-174821,local,global,750,H,S,A,E,A-H.png,S-E.png,hH,sS,mask-1.png,mask-3.png,h,1,0.5896910997107625,s,1,0.44509829999879,0.047600199934095144,0.0485920999199152,0.0988782998174429,0.10092550003901124,0.7471468998119235
RSVPLG03,sg,20260504-174716,1.0.2,20251105-084826,838,Practice,Both,1,Automatic,main,11,20260504-174826,local,local,300,H,S,A,E,A-H.png,E-S.png,hH,sS,mask-4.png,mask-1.png,h,1,0.8138703000731766,s,1,0.16732320003211498,0.046898600179702044,0.04672669991850853,0.0991851999424398,0.0994449001736939,0.29955080011859536
RSVPLG03,sg,20260504-174716,1.0.2,20251105-084826,838,Practice,Both,1,Automatic,main,12,20260504-174831,local,local,300,H,S,A,A,A-H.png,A-S.png,hH,sS,mask-1.png,mask-3.png,h,1,0.6387825002893806,s,1,0.159508700016886,0.04717790009453893,0.04802019987255335,0.09961359994485974,0.10063929995521903,0.29891799995675683
RSVPLG03,sg,20260504-174716,1.0.2,20251105-084826,838,Practice,Both,1,Automatic,main,13,20260504-174835,global,global,750,H,S,A,E,H-A.png,S-E.png,hH,sS,mask-4.png,mask-3.png,h,1,0.5226166998036206,s,1,0.11128320032730699,0.04714020015671849,0.04603500012308359,0.10029960004612803,0.09854810032993555,0.7494487999938428
RSVPLG03,sg,20260504-174716,1.0.2,20251105-084826,838,Practice,Both,1,Automatic,main,14,20260504-174840,local,global,300,S,S,A,E,A-S.png,S-E.png,sS,sS,mask-2.png,mask-2.png,h,0,0.8776849000714719,s,1,0.07077159965410829,0.04915690002962947,0.04716529976576567,0.0997167001478374,0.0988060999661684,0.3007748001255095
RSVPLG03,sg,20260504-174716,1.0.2,20251105-084826,838,Practice,Both,1,Automatic,main,15,20260504-174845,global,global,300,H,H,E,A,H-E.png,H-A.png,hH,hH,mask-3.png,mask-1.png,h,1,0.5759796001948416,h,1,0.11937010008841753,0.046706399880349636,0.04828679980710149,0.09841290023177862,0.09920749999582767,0.2986834002658725
RSVPLG03,sg,20260504-174716,1.0.2,20251105-084826,838,Practice,Both,1,Automatic,main,16,20260504-174849,global,local,300,S,S,E,E,S-E.png,E-S.png,sS,sS,mask-4.png,mask-2.png,s,1,1.5740414997562766,h,0,0.11198349995538592,0.047925999853760004,0.04705440020188689,0.09931420022621751,0.0992042999714613,0.29956059996038675
RSVPLG03,sg,20260504-174916,1.0.2,20251105-084826,838,Practice,Both,1,Automatic,main,1,20260504-174948,local,global,300,S,H,A,E,A-S.png,H-E.png,sS,hH,mask-2.png,mask-4.png,s,1,0.6225306000560522,h,1,1.1111234999261796,0.04747769981622696,0.04901030007749796,0.10100999986752868,0.10045369993895292,0.2999893999658525
RSVPLG03,sg,20260504-174916,1.0.2,20251105-084826,838,Practice,Both,1,Automatic,main,2,20260504-174953,global,global,300,S,H,A,A,S-A.png,H-A.png,sS,hH,mask-1.png,mask-2.png,s,1,0.3715397003106773,h,1,0.10515320021659136,0.04771059984341264,0.04744469979777932,0.1000688998028636,0.09974429989233613,0.29997229995206
RSVPLG03,sg,20260504-174916,1.0.2,20251105-084826,838,Practice,Both,1,Automatic,main,3,20260504-174957,global,global,750,H,H,A,A,H-A.png,H-A.png,hH,hH,mask-4.png,mask-1.png,h,1,0.5521593000739813,h,1,0.07351740030571818,0.04704610025510192,0.049039799720048904,0.09848410030826926,0.10056019993498921,0.7477875002659857
RSVPLG03,sg,20260504-174916,1.0.2,20251105-084826,838,Practice,Both,1,Automatic,main,4,20260504-175002,global,local,750,H,H,A,E,H-A.png,E-H.png,hH,hH,mask-4.png,mask-2.png,h,1,0.42439649999141693,h,1,0.09584429999813437,0.04822780005633831,0.04847249994054437,0.10062939999625087,0.10086299991235137,0.7496285000815988
RSVPLG03,sg,20260504-174916,1.0.2,20251105-084826,838,Practice,Both,1,Automatic,main,5,20260504-175007,local,local,750,S,S,E,A,E-S.png,A-S.png,sS,sS,mask-1.png,mask-2.png,s,1,0.5173571999184787,s,1,0.5281306002289057,0.047967900056391954,0.04563229996711016,0.10097860032692552,0.09920089971274137,0.7513415003195405
RSVPLG03,sg,20260504-174916,1.0.2,20251105-084826,838,Practice,Both,1,Automatic,main,6,20260504-175012,global,local,300,S,H,E,E,S-E.png,E-H.png,sS,hH,mask-2.png,mask-3.png,s,1,0.7465764996595681,s,0,0.13736099982634187,0.048224699683487415,0.04814090020954609,0.0997958998195827,0.10061779990792274,0.30029919976368546
RSVPLG03,sg,20260504-174916,1.0.2,20251105-084826,838,Practice,Both,1,Automatic,main,7,20260504-175017,global,local,300,S,S,A,E,S-A.png,E-S.png,sS,sS,mask-3.png,mask-1.png,s,1,0.5990046001970768,h,0,0.13597049983218312,0.046985600143671036,0.046489099971950054,0.09965240024030209,0.09935729997232556,0.300632799975574
RSVPLG03,sg,20260504-174916,1.0.2,20251105-084826,838,Practice,Both,1,Automatic,main,8,20260504-175021,local,local,750,S,S,A,E,A-S.png,E-S.png,sS,sS,mask-3.png,mask-4.png,h,0,0.5313446996733546,s,1,0.15037989988923073,0.04931490030139685,0.04854830028489232,0.10003080032765865,0.1002666000276804,0.749634699895978
RSVPLG03,sg,20260504-174916,1.0.2,20251105-084826,838,Practice,Both,1,Automatic,main,9,20260504-175026,global,global,750,H,S,E,A,H-E.png,S-A.png,hH,sS,mask-3.png,mask-4.png,h,1,0.5240767998620868,s,1,0.13281159987673163,0.04901529988273978,0.04717040015384555,0.10159869957715273,0.09876530012115836,0.7508768998086452
RSVPLG03,sg,20260504-174916,1.0.2,20251105-084826,838,Practice,Both,1,Automatic,main,10,20260504-175031,local,global,750,S,H,A,E,A-S.png,H-E.png,sS,hH,mask-2.png,mask-3.png,h,0,0.3559419000521302,h,1,0.28099700016900897,0.04715629993006587,0.048142800107598305,0.10057229967787862,0.09958630008623004,0.7497127996757627
RSVPLG03,sg,20260504-174916,1.0.2,20251105-084826,838,Practice,Both,1,Automatic,main,11,20260504-175036,local,local,300,S,S,E,E,E-S.png,E-S.png,sS,sS,mask-3.png,mask-2.png,s,1,1.8035030998289585,h,0,0.09455300029367208,0.04749569995328784,0.04678909992799163,0.09939350001513958,0.09838319988921285,0.30002110032364726
RSVPLG03,sg,20260504-174916,1.0.2,20251105-084826,838,Practice,Both,1,Automatic,main,12,20260504-175041,local,local,300,H,S,A,A,A-H.png,A-S.png,hH,sS,mask-3.png,mask-2.png,h,1,0.879793499596417,h,0,0.13494870020076632,0.046127500012516975,0.0475637000054121,0.09991349978372455,0.10004029981791973,0.2996072000823915
RSVPLG03,sg,20260504-174916,1.0.2,20251105-084826,838,Practice,Both,1,Automatic,main,13,20260504-175046,global,local,750,H,H,A,A,H-A.png,A-H.png,hH,hH,mask-3.png,mask-2.png,h,1,0.7074526003561914,h,1,0.10861170012503862,0.04659150028601289,0.048437200020998716,0.10088809998705983,0.09965660003945231,0.7491272003389895
RSVPLG03,sg,20260504-174916,1.0.2,20251105-084826,838,Practice,Both,1,Automatic,main,14,20260504-175051,local,global,300,S,H,A,E,A-S.png,H-E.png,sS,hH,mask-3.png,mask-1.png,h,0,0.6736000999808311,h,1,0.34605260007083416,0.046346799936145544,0.04562370013445616,0.0987912998534739,0.09897099994122982,0.30019469978287816
RSVPLG03,sg,20260504-174916,1.0.2,20251105-084826,838,Practice,Both,1,Automatic,main,15,20260504-175056,local,global,750,S,S,A,E,A-S.png,S-E.png,sS,sS,mask-4.png,mask-3.png,h,0,0.4337617000564933,s,1,0.02033390011638403,0.04687130032107234,0.0485640000551939,0.09929840033873916,0.09949229983612895,0.748451900202781
RSVPLG03,sg,20260504-174916,1.0.2,20251105-084826,838,Practice,Both,1,Automatic,main,16,20260504-175100,global,global,300,H,S,A,E,H-A.png,S-E.png,hH,sS,mask-2.png,mask-2.png,h,1,0.38026880007237196,s,1,0.0614739996381104,0.04698409978300333,0.04647629987448454,0.10005029989406466,0.0987172001041472,0.2997381999157369
RSVPLG03,sg,20260504-175120,1.0.2,20251105-084826,838,Practice,Both,1,Automatic,main,1,20260504-175138,global,local,300,S,S,E,E,S-E.png,E-S.png,sS,sS,mask-1.png,mask-3.png,s,1,2.6487727998755872,h,0,0.19245419977232814,0.049102199729532,0.04818930011242628,0.10181659972295165,0.1008776999078691,0.30062869982793927
RSVPLG03,sg,20260504-175120,1.0.2,20251105-084826,838,Practice,Both,1,Automatic,main,2,20260504-175144,global,global,750,H,S,A,A,H-A.png,S-A.png,hH,sS,mask-1.png,mask-1.png,h,1,0.6744289002381265,s,1,0.19991330010816455,0.046477199997752905,0.04923009965568781,0.09970179991796613,0.09997119987383485,0.7494349000044167
RSVPLG03,sg,20260504-175120,1.0.2,20251105-084826,838,Practice,Both,1,Automatic,main,3,20260504-175149,global,global,300,H,H,E,A,H-E.png,H-A.png,hH,hH,mask-4.png,mask-2.png,h,1,0.9102957998402417,h,1,0.3590251002460718,0.04696739977225661,0.048004900105297565,0.09944459982216358,0.10008280025795102,0.2999686999246478
RSVPLG03,sg,20260504-175120,1.0.2,20251105-084826,838,Practice,Both,1,Automatic,main,4,20260504-175154,global,local,300,S,S,E,A,S-E.png,A-S.png,sS,sS,mask-3.png,mask-2.png,s,1,0.6314662001095712,h,0,0.2498755999840796,0.04960639961063862,0.04641549987718463,0.10111279971897602,0.09885709965601563,0.3016747999936342
RSVPLG03,sg,20260504-175120,1.0.2,20251105-084826,838,Practice,Both,1,Automatic,main,5,20260504-175159,local,local,300,S,S,A,E,A-S.png,E-S.png,sS,sS,mask-1.png,mask-4.png,h,0,2.0595873999409378,s,1,0.983051999937743,0.04694070015102625,0.047050700057297945,0.09868789976462722,0.10126439994201064,0.29908639984205365
RSVPLG03,sg,20260504-175120,1.0.2,20251105-084826,838,Practice,Both,1,Automatic,main,6,20260504-175206,global,local,750,S,H,A,A,S-A.png,A-H.png,sS,hH,mask-1.png,mask-4.png,s,1,0.6453279997222126,h,1,0.23952770000323653,0.045649600215256214,0.04883840028196573,0.10020009987056255,0.10009720036759973,0.7496664999052882
RSVPLG03,sg,20260504-175120,1.0.2,20251105-084826,838,Practice,Both,1,Automatic,main,7,20260504-175211,local,global,300,H,S,E,E,E-H.png,S-E.png,hH,sS,mask-1.png,mask-1.png,h,1,1.9823428001254797,h,0,1.2170831002295017,0.047901700250804424,0.04709249967709184,0.10057320026680827,0.09926119958981872,0.30090020038187504
RSVPLG03,sg,20260504-175120,1.0.2,20251105-084826,838,Practice,Both,1,Automatic,main,8,20260504-175217,local,global,750,S,H,E,A,E-S.png,H-A.png,sS,hH,mask-2.png,mask-1.png,s,1,1.0115727996453643,h,1,0.26030349964275956,0.04805559990927577,0.047448699828237295,0.1006503002718091,0.10087230009958148,0.750657900236547
RSVPLG03,sg,20260504-175120,1.0.2,20251105-084826,838,Practice,Both,1,Automatic,main,9,20260504-175223,local,global,300,S,H,E,E,E-S.png,H-E.png,sS,hH,mask-2.png,mask-2.png,s,1,1.1021149000152946,h,1,0.18451059982180595,0.04792849998921156,0.047867400106042624,0.10165599966421723,0.10054690018296242,0.3006706996820867
RSVPLG03,sg,20260504-175120,1.0.2,20251105-084826,838,Practice,Both,1,Automatic,main,10,20260504-175228,global,global,300,H,H,E,E,H-E.png,H-E.png,hH,hH,mask-3.png,mask-3.png,h,1,0.6901862998493016,s,0,1.245635099709034,0.048327399883419275,0.04788829991593957,0.10110040009021759,0.10085709998384118,0.299753500148654
RSVPLG03,sg,20260504-175120,1.0.2,20251105-084826,838,Practice,Both,1,Automatic,main,11,20260504-175234,local,local,750,H,H,A,E,A-H.png,E-H.png,hH,hH,mask-3.png,mask-4.png,h,1,0.5122076999396086,h,1,0.11263270024210215,0.04792809998616576,0.04663989972323179,0.09941750019788742,0.09972849953919649,0.7512497003190219
RSVPLG03,sg,20260504-175120,1.0.2,20251105-084826,838,Practice,Both,1,Automatic,main,12,20260504-175238,local,global,750,S,H,A,A,A-S.png,H-A.png,sS,hH,mask-4.png,mask-1.png,h,0,0.33258659997954965,h,1,0.31470429990440607,0.045613900292664766,0.04774940013885498,0.09958379995077848,0.10027689998969436,0.7496675001457334
RSVPLG03,sg,20260504-175120,1.0.2,20251105-084826,838,Practice,Both,1,Automatic,main,13,20260504-175243,global,local,750,S,S,A,A,S-A.png,A-S.png,sS,sS,mask-3.png,mask-3.png,s,1,0.3762409999035299,h,0,0.23096049996092916,0.04738369956612587,0.046331099700182676,0.10079759964719415,0.09933469956740737,0.7512680999934673
RSVPLG03,sg,20260504-175120,1.0.2,20251105-084826,838,Practice,Both,1,Automatic,main,14,20260504-175248,global,global,750,H,H,E,A,H-E.png,H-A.png,hH,hH,mask-1.png,mask-2.png,h,1,0.3806547997519374,h,1,0.10494189988821745,0.047250499948859215,0.04824900021776557,0.09816429996863008,0.10064959991723299,0.7490039998665452
RSVPLG03,sg,20260504-175120,1.0.2,20251105-084826,838,Practice,Both,1,Automatic,main,15,20260504-175253,local,local,300,S,S,A,A,A-S.png,A-S.png,sS,sS,mask-1.png,mask-4.png,h,0,0.6997425998561084,s,1,0.9644635999575257,0.047683900222182274,0.047442799899727106,0.09990020003169775,0.10150890005752444,0.2987004001624882
RSVPLG03,sg,20260504-175120,1.0.2,20251105-084826,838,Practice,Both,1,Automatic,main,16,20260504-175258,local,local,750,S,S,A,E,A-S.png,E-S.png,sS,sS,mask-1.png,mask-2.png,h,0,0.31077690003439784,s,1,0.12096819980069995,0.047665500082075596,0.04721929971128702,0.09909790009260178,0.10006299987435341,0.7512263003736734
RSVPLG03,sg,20260504-175330,1.0.2,20251105-084826,838,Experiment,Both,1,Automatic,warmup,1,20260504-175523,global,global,300,H,S,A,A,H-A.png,S-A.png,hH,sS,mask-1.png,mask-2.png,h,1,0.37914490001276135,s,1,0.4712557001039386,0.043659199960529804,0.04797559976577759,0.09450670005753636,0.09991820016875863,0.29534609988331795
RSVPLG03,sg,20260504-175330,1.0.2,20251105-084826,838,Experiment,Both,1,Automatic,warmup,2,20260504-175528,local,local,750,H,H,A,E,A-H.png,E-H.png,hH,hH,mask-4.png,mask-3.png,h,1,0.3250142000615597,h,1,0.0650333003140986,0.0474740001372993,0.04793570004403591,0.09967999998480082,0.1002899999730289,0.7488084002397954
RSVPLG03,sg,20260504-175330,1.0.2,20251105-084826,838,Experiment,Both,1,Automatic,warmup,3,20260504-175532,local,global,750,S,H,E,A,E-S.png,H-A.png,sS,hH,mask-1.png,mask-1.png,s,1,0.40260819997638464,h,1,0.04011460021138191,0.04614759981632233,0.048595300409942865,0.09884409978985786,0.1014162003993988,0.7487841998226941
RSVPLG03,sg,20260504-175330,1.0.2,20251105-084826,838,Experiment,Both,1,Automatic,warmup,4,20260504-175537,global,global,750,H,S,A,E,H-A.png,S-E.png,hH,sS,mask-4.png,mask-3.png,h,1,0.41891290014609694,s,1,0.5631105001084507,0.048494100105017424,0.04810409992933273,0.10147699993103743,0.1000150996260345,0.7512233001179993
RSVPLG03,sg,20260504-175330,1.0.2,20251105-084826,838,Experiment,Both,1,Automatic,main,5,20260504-175542,global,global,750,S,S,A,E,S-A.png,S-E.png,sS,sS,mask-2.png,mask-2.png,s,1,0.5677191000431776,s,1,0.11267630010843277,0.04701939970254898,0.04855700023472309,0.09894539974629879,0.09959360025823116,0.7486935998313129
RSVPLG03,sg,20260504-175330,1.0.2,20251105-084826,838,Experiment,Both,1,Automatic,main,6,20260504-175546,global,local,300,S,S,E,A,S-E.png,A-S.png,sS,sS,mask-1.png,mask-2.png,s,1,1.2569804000668228,h,0,0.04858510009944439,0.04823400033637881,0.04649649979546666,0.09978889999911189,0.0993715999647975,0.3004102003760636
RSVPLG03,sg,20260504-175330,1.0.2,20251105-084826,838,Experiment,Both,1,Automatic,main,7,20260504-175551,local,local,300,H,H,E,E,E-H.png,E-H.png,hH,hH,mask-3.png,mask-1.png,s,0,0.6423394996672869,h,1,0.16479770001024008,0.0468839998356998,0.047679000068455935,0.09914719965308905,0.1009475002065301,0.2993155997246504
RSVPLG03,sg,20260504-175330,1.0.2,20251105-084826,838,Experiment,Both,1,Automatic,main,8,20260504-175556,global,local,750,H,H,A,E,H-A.png,E-H.png,hH,hH,mask-3.png,mask-4.png,h,1,0.3562730997800827,h,1,0.044335400220006704,0.04701549978926778,0.04714269982650876,0.09973909985274076,0.09976759972050786,0.7499206000939012
RSVPLG03,sg,20260504-175330,1.0.2,20251105-084826,838,Experiment,Both,1,Automatic,main,9,20260504-175600,local,global,750,S,H,A,A,A-S.png,H-A.png,sS,hH,mask-4.png,mask-3.png,h,0,0.2972107999958098,h,1,0.12130869971588254,0.046924099791795015,0.04748639976605773,0.09957419987767935,0.09987829998135567,0.7497521000914276
RSVPLG03,sg,20260504-175330,1.0.2,20251105-084826,838,Experiment,Both,1,Automatic,main,10,20260504-175605,global,global,300,S,H,E,A,S-E.png,H-A.png,sS,hH,mask-1.png,mask-1.png,s,1,0.30622150003910065,h,1,0.1022117999382317,0.04633609997108579,0.047406299971044064,0.09940960025414824,0.10022420017048717,0.3000686001032591
RSVPLG03,sg,20260504-175330,1.0.2,20251105-084826,838,Experiment,Both,1,Automatic,main,11,20260504-175609,local,local,300,H,H,E,E,E-H.png,E-H.png,hH,hH,mask-2.png,mask-3.png,h,1,1.1507259998470545,h,1,0.19149039965122938,0.04567949986085296,0.047596999909728765,0.09874569997191429,0.10099379997700453,0.29941600002348423
RSVPLG03,sg,20260504-175330,1.0.2,20251105-084826,838,Experiment,Both,1,Automatic,main,12,20260504-175614,global,local,750,H,S,E,E,H-E.png,E-S.png,hH,sS,mask-4.png,mask-2.png,h,1,0.5304610002785921,s,1,0.1581550999544561,0.047289200127124786,0.046360500156879425,0.09939169976860285,0.09799579996615648,0.7509964997880161
RSVPLG03,sg,20260504-175330,1.0.2,20251105-084826,838,Experiment,Both,1,Automatic,main,13,20260504-175619,local,local,300,H,H,A,E,A-H.png,E-H.png,hH,hH,mask-3.png,mask-1.png,h,1,0.5611761999316514,s,0,0.18883629981428385,0.04756359988823533,0.04685269994661212,0.0996141997165978,0.09924500016495585,0.300946899689734
RSVPLG03,sg,20260504-175330,1.0.2,20251105-084826,838,Experiment,Both,1,Automatic,main,14,20260504-175623,global,local,750,H,H,E,A,H-E.png,A-H.png,hH,hH,mask-2.png,mask-1.png,h,1,0.43914050003513694,h,1,0.26845169998705387,0.048387699760496616,0.04742400022223592,0.1005859998986125,0.10084829991683364,0.7486157999373972
RSVPLG03,sg,20260504-175330,1.0.2,20251105-084826,838,Experiment,Both,1,Automatic,main,15,20260504-175628,local,local,300,H,H,A,A,A-H.png,A-H.png,hH,hH,mask-4.png,mask-3.png,h,1,0.3580354996956885,h,1,0.22445910004898906,0.04703080002218485,0.04749009991064668,0.0995240998454392,0.10007999977096915,0.2991166999563575
RSVPLG03,sg,20260504-175330,1.0.2,20251105-084826,838,Experiment,Both,1,Automatic,main,16,20260504-175632,local,local,300,H,S,A,E,A-H.png,E-S.png,hH,sS,mask-1.png,mask-1.png,h,1,0.32003000006079674,s,1,0.04281229991465807,0.046115399803966284,0.04688320029526949,0.09966469975188375,0.10048440005630255,0.29948849976062775
RSVPLG03,sg,20260504-175330,1.0.2,20251105-084826,838,Experiment,Both,1,Automatic,main,17,20260504-175636,global,local,750,H,H,A,A,H-A.png,A-H.png,hH,hH,mask-2.png,mask-2.png,h,1,0.4033121997490525,h,1,0.11122520035132766,0.04752300027757883,0.048029199708253145,0.10033420007675886,0.1006593001075089,0.7502701003104448
RSVPLG03,sg,20260504-175330,1.0.2,20251105-084826,838,Experiment,Both,1,Automatic,main,18,20260504-175641,local,global,750,H,S,E,E,E-H.png,S-E.png,hH,sS,mask-4.png,mask-1.png,h,1,0.46670900005847216,s,1,0.054349999874830246,0.049366800114512444,0.04779749969020486,0.10036930022761226,0.09831100003793836,0.7511408003047109
RSVPLG03,sg,20260504-175330,1.0.2,20251105-084826,838,Experiment,Both,1,Automatic,main,19,20260504-175646,local,local,300,H,S,A,A,A-H.png,A-S.png,hH,sS,mask-4.png,mask-1.png,h,1,0.4484198000282049,h,0,0.12227319972589612,0.0476331003010273,0.0474396999925375,0.10020139999687672,0.1008004997856915,0.2997328001074493
RSVPLG03,sg,20260504-175330,1.0.2,20251105-084826,838,Experiment,Both,1,Automatic,main,20,20260504-175650,local,local,750,S,S,A,E,A-S.png,E-S.png,sS,sS,mask-4.png,mask-3.png,s,1,0.3134110001847148,s,1,0.19826789991930127,0.047300399746745825,0.046973100397735834,0.10110009973868728,0.0997884999960661,0.7497994997538626
RSVPLG03,sg,20260504-175330,1.0.2,20251105-084826,838,Experiment,Both,1,Automatic,main,21,20260504-175655,global,global,750,S,S,A,A,S-A.png,S-A.png,sS,sS,mask-3.png,mask-1.png,s,1,0.31110689975321293,s,1,0.1264375001192093,0.046543500386178493,0.04918320011347532,0.10041840001940727,0.10149300005286932,0.7483443999662995
RSVPLG03,sg,20260504-175330,1.0.2,20251105-084826,838,Experiment,Both,1,Automatic,main,22,20260504-175659,local,global,300,H,S,E,A,E-H.png,S-A.png,hH,sS,mask-1.png,mask-2.png,h,1,0.40233709989115596,s,1,0.039275200106203556,0.047475900035351515,0.0472723999992013,0.09944620030000806,0.1007786002010107,0.2997956001199782
RSVPLG03,sg,20260504-175330,1.0.2,20251105-084826,838,Experiment,Both,1,Automatic,main,23,20260504-175703,local,global,300,H,H,E,A,E-H.png,H-A.png,hH,hH,mask-1.png,mask-2.png,s,0,0.5659787999466062,h,1,0.04277990013360977,0.04653170006349683,0.0469459998421371,0.10104689979925752,0.09928199974820018,0.29962190007790923
RSVPLG03,sg,20260504-175330,1.0.2,20251105-084826,838,Experiment,Both,1,Automatic,main,24,20260504-175708,global,global,300,H,S,E,E,H-E.png,S-E.png,hH,sS,mask-3.png,mask-4.png,h,1,0.36232229974120855,s,1,0.10283870017156005,0.04699169984087348,0.0460997000336647,0.10070159984752536,0.09882350033149123,0.30106009962037206
RSVPLG03,sg,20260504-175330,1.0.2,20251105-084826,838,Experiment,Both,1,Automatic,main,25,20260504-175712,local,global,750,H,S,A,E,A-H.png,S-E.png,hH,sS,mask-1.png,mask-1.png,h,1,0.409689299762249,s,1,0.8589661000296474,0.04732370004057884,0.048659199848771095,0.10157949989661574,0.10108530009165406,0.7495242999866605
RSVPLG03,sg,20260504-175330,1.0.2,20251105-084826,838,Experiment,Both,1,Automatic,main,26,20260504-175718,global,global,300,S,H,A,A,S-A.png,H-A.png,sS,hH,mask-4.png,mask-2.png,s,1,0.3728043003939092,h,1,0.238429999910295,0.04701239988207817,0.04691509995609522,0.09950699983164668,0.0996511997655034,0.3001550999470055
RSVPLG03,sg,20260504-175330,1.0.2,20251105-084826,838,Experiment,Both,1,Automatic,main,27,20260504-175722,local,global,300,S,H,A,A,A-S.png,H-A.png,sS,hH,mask-4.png,mask-4.png,s,1,0.4034120002761483,h,1,0.1169043998233974,0.04697110038250685,0.04807939985767007,0.09943090006709099,0.10047490010038018,0.2996053001843393
RSVPLG03,sg,20260504-175330,1.0.2,20251105-084826,838,Experiment,Both,1,Automatic,main,28,20260504-175726,global,global,300,S,H,A,A,S-A.png,H-A.png,sS,hH,mask-1.png,mask-4.png,s,1,0.5100524998269975,h,1,0.2445749999023974,0.04858290031552315,0.04650150006636977,0.09903370030224323,0.10034570004791021,0.30050559993833303
RSVPLG03,sg,20260504-175330,1.0.2,20251105-084826,838,Experiment,Both,1,Automatic,main,29,20260504-175731,global,local,300,S,H,E,E,S-E.png,E-H.png,sS,hH,mask-4.png,mask-4.png,s,1,0.5253373999148607,s,0,0.19143699994310737,0.04652349976822734,0.047607900109142065,0.10028439993038774,0.10043200012296438,0.2987553998827934
RSVPLG03,sg,20260504-175330,1.0.2,20251105-084826,838,Experiment,Both,1,Automatic,main,30,20260504-175735,global,local,750,S,H,A,A,S-A.png,A-H.png,sS,hH,mask-3.png,mask-2.png,s,1,0.6470683002844453,h,1,0.1192633998580277,0.047041499987244606,0.04687909968197346,0.09992319997400045,0.09935889998450875,0.7488097003661096
RSVPLG03,sg,20260504-175330,1.0.2,20251105-084826,838,Experiment,Both,1,Automatic,main,31,20260504-175740,global,global,300,S,H,E,E,S-E.png,H-E.png,sS,hH,mask-3.png,mask-3.png,s,1,0.44100739993155,h,1,0.6658867998048663,0.048831399995833635,0.046852400060743093,0.10127290012314916,0.10066629992797971,0.3005221001803875
RSVPLG03,sg,20260504-175330,1.0.2,20251105-084826,838,Experiment,Both,1,Automatic,main,32,20260504-175745,local,local,300,S,S,A,E,A-S.png,E-S.png,sS,sS,mask-4.png,mask-4.png,h,0,0.41764539992436767,s,1,1.016816500108689,0.04809350008144975,0.046782399993389845,0.10111090028658509,0.09888069983571768,0.30058860033750534
RSVPLG03,sg,20260504-175330,1.0.2,20251105-084826,838,Experiment,Both,1,Automatic,main,33,20260504-175750,local,local,750,H,H,E,E,E-H.png,E-H.png,hH,hH,mask-2.png,mask-2.png,h,1,0.5595009000971913,h,1,0.16074369987472892,0.04735999973490834,0.04674739995971322,0.10132519993931055,0.09902579989284277,0.7506802999414504
RSVPLG03,sg,20260504-175330,1.0.2,20251105-084826,838,Experiment,Both,1,Automatic,main,34,20260504-175755,global,local,300,H,H,A,A,H-A.png,A-H.png,hH,hH,mask-3.png,mask-1.png,h,1,0.3805716000497341,h,1,0.1393590997904539,0.045986699871718884,0.04733339976519346,0.09887149976566434,0.10086630005389452,0.2992970999330282
RSVPLG03,sg,20260504-175330,1.0.2,20251105-084826,838,Experiment,Both,1,Automatic,main,35,20260504-175759,local,global,300,H,H,A,A,A-H.png,H-A.png,hH,hH,mask-1.png,mask-3.png,h,1,0.5324625000357628,h,1,0.1235750000923872,0.04686519969254732,0.046353400219231844,0.10058069974184036,0.09847339987754822,0.3012326997704804
RSVPLG03,sg,20260504-175330,1.0.2,20251105-084826,838,Experiment,Both,1,Automatic,main,36,20260504-175804,local,global,750,S,S,A,E,A-S.png,S-E.png,sS,sS,mask-3.png,mask-1.png,h,0,0.31359959999099374,h,0,0.10183919966220856,0.04752560006454587,0.04589120019227266,0.0997697003185749,0.09870560001581907,0.7494556000456214
RSVPLG03,sg,20260504-175330,1.0.2,20251105-084826,838,Experiment,Both,1,Automatic,main,37,20260504-175808,local,local,750,S,H,A,E,A-S.png,E-H.png,sS,hH,mask-3.png,mask-4.png,s,1,1.310536699835211,h,1,0.08657220005989075,0.04731379961594939,0.04746640007942915,0.0998052996583283,0.09914209973067045,0.7505284999497235
RSVPLG03,sg,20260504-175330,1.0.2,20251105-084826,838,Experiment,Both,1,Automatic,main,38,20260504-175814,local,local,750,S,S,E,A,E-S.png,A-S.png,sS,sS,mask-1.png,mask-2.png,s,1,0.6983519997447729,s,1,0.14915149984881282,0.049035200383514166,0.04726589983329177,0.10160059994086623,0.1000684997998178,0.7503432002849877
RSVPLG03,sg,20260504-175330,1.0.2,20251105-084826,838,Experiment,Both,1,Automatic,main,39,20260504-175819,local,global,750,H,H,A,A,A-H.png,H-A.png,hH,hH,mask-3.png,mask-3.png,h,1,0.1708949003368616,h,1,0.1281475001014769,0.04708250006660819,0.04777259984984994,0.09911590022966266,0.09930639993399382,0.7499034004285932
RSVPLG03,sg,20260504-175330,1.0.2,20251105-084826,838,Experiment,Both,1,Automatic,main,40,20260504-175823,global,local,300,S,S,E,A,S-E.png,A-S.png,sS,sS,mask-4.png,mask-3.png,s,1,0.5698433998040855,h,0,0.051808899734169245,0.04866380011662841,0.04687979957088828,0.10052239987999201,0.09826109977439046,0.3010006002150476
RSVPLG03,sg,20260504-175330,1.0.2,20251105-084826,838,Experiment,Both,1,Automatic,main,41,20260504-175828,local,local,750,H,S,E,E,E-H.png,E-S.png,hH,sS,mask-3.png,mask-2.png,h,1,0.4329492002725601,h,0,0.28030209988355637,0.04636010015383363,0.04585879994556308,0.09949540020897985,0.09906340017914772,0.7505266000516713
RSVPLG03,sg,20260504-175330,1.0.2,20251105-084826,838,Experiment,Both,1,Automatic,main,42,20260504-175832,local,local,750,S,S,A,E,A-S.png,E-S.png,sS,sS,mask-4.png,mask-3.png,h,0,0.5119984000921249,h,0,0.17717580031603575,0.04915589978918433,0.04839350003749132,0.10152880009263754,0.1014346000738442,0.7506312998011708
RSVPLG03,sg,20260504-175330,1.0.2,20251105-084826,838,Experiment,Both,1,Automatic,main,43,20260504-175837,global,local,300,H,H,A,E,H-A.png,E-H.png,hH,hH,mask-2.png,mask-3.png,h,1,0.3494760002940893,h,1,0.15276760002598166,0.04691520007327199,0.046614100225269794,0.09925549989566207,0.10025120014324784,0.2994492999278009
RSVPLG03,sg,20260504-175330,1.0.2,20251105-084826,838,Experiment,Both,1,Automatic,main,44,20260504-175841,global,global,750,S,S,E,E,S-E.png,S-E.png,sS,sS,mask-4.png,mask-2.png,s,1,0.4265773999504745,s,1,0.15549430018290877,0.04723819997161627,0.0476342998445034,0.09818390011787415,0.10048050014302135,0.748367799911648
RSVPLG03,sg,20260504-175330,1.0.2,20251105-084826,838,Experiment,Both,1,Automatic,main,45,20260504-175846,global,local,750,H,H,E,E,H-E.png,E-H.png,hH,hH,mask-2.png,mask-2.png,h,1,0.2924768999218941,h,1,0.25675390008836985,0.04587190039455891,0.04801970021799207,0.09863770008087158,0.1015472998842597,0.7485512001439929
RSVPLG03,sg,20260504-175330,1.0.2,20251105-084826,838,Experiment,Both,1,Automatic,main,46,20260504-175851,global,global,750,S,S,E,E,S-E.png,S-E.png,sS,sS,mask-1.png,mask-4.png,s,1,0.23644830007106066,s,1,0.2673132000491023,0.045866199769079685,0.04623300023376942,0.09901480004191399,0.0985842002555728,0.7498095999471843
RSVPLG03,sg,20260504-175330,1.0.2,20251105-084826,838,Experiment,Both,1,Automatic,main,47,20260504-175855,local,local,300,H,S,E,A,E-H.png,A-S.png,hH,sS,mask-2.png,mask-4.png,h,1,0.46664079977199435,h,0,0.298006699886173,0.0477961003780365,0.04826839966699481,0.10102180019021034,0.1008827998302877,0.2991759004071355
RSVPLG03,sg,20260504-175330,1.0.2,20251105-084826,838,Experiment,Both,1,Automatic,main,48,20260504-175900,global,local,300,H,S,E,A,H-E.png,A-S.png,hH,sS,mask-4.png,mask-1.png,h,1,0.5753784999251366,h,0,0.3517359998077154,0.048445699736475945,0.04581579985097051,0.09990220004692674,0.09939040010794997,0.3009252999909222
RSVPLG03,sg,20260504-175330,1.0.2,20251105-084826,838,Experiment,Both,1,Automatic,main,49,20260504-175905,global,global,300,S,S,A,A,S-A.png,S-A.png,sS,sS,mask-4.png,mask-2.png,h,0,0.564048099797219,s,1,0.2996139000169933,0.049320099875330925,0.04699809988960624,0.10013779997825623,0.09926779987290502,0.3007260002195835
RSVPLG03,sg,20260504-175330,1.0.2,20251105-084826,838,Experiment,Both,1,Automatic,main,50,20260504-175909,local,local,300,S,H,E,A,E-S.png,A-H.png,sS,hH,mask-4.png,mask-2.png,s,1,0.42464910028502345,h,1,0.24996980000287294,0.04679040005430579,0.047475299797952175,0.09968520002439618,0.09955779975280166,0.29924160009250045
RSVPLG03,sg,20260504-175330,1.0.2,20251105-084826,838,Experiment,Both,1,Automatic,main,51,20260504-175916,global,local,300,H,S,E,A,H-E.png,A-S.png,hH,sS,mask-2.png,mask-4.png,h,1,0.4321400998160243,h,0,0.2672764998860657,0.048318199813365936,0.047312000300735235,0.09998039994388819,0.10049540037289262,0.2997955996543169
RSVPLG03,sg,20260504-175330,1.0.2,20251105-084826,838,Experiment,Both,1,Automatic,main,52,20260504-175920,global,local,750,S,H,A,E,S-A.png,E-H.png,sS,hH,mask-2.png,mask-2.png,s,1,0.3315666997805238,s,0,0.15962280007079244,0.046274700202047825,0.048089600168168545,0.09888319997116923,0.09991930006071925,0.7485094000585377
RSVPLG03,sg,20260504-175330,1.0.2,20251105-084826,838,Experiment,Both,1,Automatic,main,53,20260504-175924,local,global,300,S,H,A,E,A-S.png,H-E.png,sS,hH,mask-4.png,mask-2.png,h,0,0.34034299990162253,h,1,1.7350367000326514,0.047681599855422974,0.04749629972502589,0.09947149967774749,0.10143409995362163,0.29883409989997745
RSVPLG03,sg,20260504-175330,1.0.2,20251105-084826,838,Experiment,Both,1,Automatic,main,54,20260504-175930,local,local,750,S,S,E,E,E-S.png,E-S.png,sS,sS,mask-2.png,mask-4.png,s,1,1.8387251999229193,s,1,0.32458879984915257,0.048770100343972445,0.04792959988117218,0.10158050013706088,0.09994470002129674,0.7510878001339734
RSVPLG03,sg,20260504-175330,1.0.2,20251105-084826,838,Experiment,Both,1,Automatic,main,55,20260504-175936,global,global,300,S,S,E,A,S-E.png,S-A.png,sS,sS,mask-4.png,mask-1.png,s,1,0.23419510014355183,h,0,0.4564612000249326,0.04812789987772703,0.04685600008815527,0.10197430010885,0.09945660037919879,0.30134559981524944
RSVPLG03,sg,20260504-175330,1.0.2,20251105-084826,838,Experiment,Both,1,Automatic,main,56,20260504-175941,global,global,300,H,S,E,A,H-E.png,S-A.png,hH,sS,mask-1.png,mask-3.png,h,1,0.1654246998950839,h,0,1.3080388996750116,0.04784699995070696,0.04665679996833205,0.10169269982725382,0.10069529991596937,0.3009783998131752
RSVPLG03,sg,20260504-175330,1.0.2,20251105-084826,838,Experiment,Both,1,Automatic,main,57,20260504-175946,local,local,300,H,H,E,E,E-H.png,E-H.png,hH,hH,mask-2.png,mask-3.png,s,0,1.8734268001280725,h,1,0.12185940006747842,0.046550999861210585,0.04818259971216321,0.09870869992300868,0.10103709995746613,0.29930640012025833
RSVPLG03,sg,20260504-175330,1.0.2,20251105-084826,838,Experiment,Both,1,Automatic,main,58,20260504-175952,local,global,750,H,S,E,E,E-H.png,S-E.png,hH,sS,mask-3.png,mask-3.png,h,1,0.7509683999232948,h,0,0.3016293002292514,0.04624629998579621,0.04652959993109107,0.09987370017915964,0.0995771000161767,0.7496230998076499
RSVPLG03,sg,20260504-175330,1.0.2,20251105-084826,838,Experiment,Both,1,Automatic,main,59,20260504-175957,local,global,300,S,S,A,A,A-S.png,S-A.png,sS,sS,mask-1.png,mask-4.png,h,0,0.6745536997914314,s,1,0.3430531998164952,0.048187300097197294,0.04729440016672015,0.09948650002479553,0.1001881998963654,0.298993700183928
RSVPLG03,sg,20260504-175330,1.0.2,20251105-084826,838,Experiment,Both,1,Automatic,main,60,20260504-180002,global,global,750,H,H,A,A,H-A.png,H-A.png,hH,hH,mask-1.png,mask-2.png,h,1,0.26580410031601787,h,1,1.5911174002103508,0.045951999723911285,0.048182399943470955,0.09828560007736087,0.10115549992769957,0.7481439998373389
RSVPLG03,sg,20260504-175330,1.0.2,20251105-084826,838,Experiment,Both,1,Automatic,main,61,20260504-180008,global,global,300,S,H,E,E,S-E.png,H-E.png,sS,hH,mask-3.png,mask-2.png,s,1,0.692768800072372,h,1,0.8080909000709653,0.046123099979013205,0.049124700017273426,0.09918079990893602,0.10054169967770576,0.29881920013576746
RSVPLG03,sg,20260504-175330,1.0.2,20251105-084826,838,Experiment,Both,1,Automatic,main,62,20260504-180013,local,global,750,H,H,E,A,E-H.png,H-A.png,hH,hH,mask-3.png,mask-2.png,h,1,0.4258976997807622,h,1,0.3334466000087559,0.04857099987566471,0.047635399736464024,0.10144219966605306,0.10014929994940758,0.7509184000082314
RSVPLG03,sg,20260504-175330,1.0.2,20251105-084826,838,Experiment,Both,1,Automatic,main,63,20260504-180018,global,global,750,S,H,E,E,S-E.png,H-E.png,sS,hH,mask-1.png,mask-4.png,s,1,0.3016981999389827,h,1,0.47741869976744056,0.04689229978248477,0.046228999737650156,0.0994702996686101,0.0996679998934269,0.7500853999517858
RSVPLG03,sg,20260504-175330,1.0.2,20251105-084826,838,Experiment,Both,1,Automatic,main,64,20260504-180023,local,global,300,S,H,E,E,E-S.png,H-E.png,sS,hH,mask-4.png,mask-2.png,s,1,0.4795896001160145,h,1,0.117041299585253,0.04792749974876642,0.04909679992124438,0.09933539992198348,0.10111799975857139,0.2996106999926269
RSVPLG03,sg,20260504-175330,1.0.2,20251105-084826,838,Experiment,Both,1,Automatic,main,65,20260504-180027,local,global,300,S,H,E,E,E-S.png,H-E.png,sS,hH,mask-3.png,mask-1.png,s,1,0.41838210029527545,h,1,0.07338190032169223,0.04844929976388812,0.04780380008742213,0.100318499840796,0.10012409975752234,0.30087519995868206
RSVPLG03,sg,20260504-175330,1.0.2,20251105-084826,838,Experiment,Both,1,Automatic,main,66,20260504-180031,local,local,750,H,H,E,E,E-H.png,E-H.png,hH,hH,mask-1.png,mask-4.png,h,1,1.2196042002178729,s,0,0.1084655998274684,0.04877519980072975,0.04805150022730231,0.10026829969137907,0.1005883002653718,0.7499423995614052
RSVPLG03,sg,20260504-175330,1.0.2,20251105-084826,838,Experiment,Both,1,Automatic,main,67,20260504-180037,global,global,750,S,S,E,A,S-E.png,S-A.png,sS,sS,mask-2.png,mask-2.png,s,1,0.4217205001041293,s,1,0.09426290029659867,0.04784050025045872,0.04656219994649291,0.10049320012331009,0.10017829993739724,0.7506766002625227
RSVPLG03,sg,20260504-175330,1.0.2,20251105-084826,838,Experiment,Both,1,Automatic,main,68,20260504-180042,local,global,300,H,H,A,E,A-H.png,H-E.png,hH,hH,mask-1.png,mask-1.png,h,1,0.5105881001800299,h,1,0.1182876001112163,0.04785790015012026,0.04651500005275011,0.10065359994769096,0.10051079979166389,0.30050170002505183
RSVPLG03,sg,20260504-175330,1.0.2,20251105-084826,838,Experiment,Both,1,Automatic,main,69,20260504-180046,global,local,300,H,H,E,E,H-E.png,E-H.png,hH,hH,mask-3.png,mask-4.png,h,1,0.60306779993698,h,1,0.1496908999979496,0.047283700201660395,0.04702629987150431,0.09955919999629259,0.10008630016818643,0.3005844000726938
RSVPLG03,sg,20260504-175330,1.0.2,20251105-084826,838,Experiment,Both,1,Automatic,main,70,20260504-180050,global,local,750,S,H,A,A,S-A.png,A-H.png,sS,hH,mask-3.png,mask-1.png,s,1,0.3020731001161039,h,1,0.1740081999450922,0.047917500138282776,0.04686030000448227,0.098588100168854,0.09961439995095134,0.7495854999870062
RSVPLG03,sg,20260504-175330,1.0.2,20251105-084826,838,Experiment,Both,1,Automatic,main,71,20260504-180055,local,global,300,S,S,A,E,A-S.png,S-E.png,sS,sS,mask-2.png,mask-3.png,h,0,0.5760715999640524,s,1,0.09055140009149909,0.0480792997404933,0.048886800184845924,0.10085520008578897,0.10039430018514395,0.30005119973793626
RSVPLG03,sg,20260504-175330,1.0.2,20251105-084826,838,Experiment,Both,1,Automatic,main,72,20260504-180059,global,global,750,H,H,E,E,H-E.png,H-E.png,hH,hH,mask-3.png,mask-1.png,h,1,0.861585000064224,h,1,0.5089310999028385,0.04739579977467656,0.047152900137007236,0.0991769996471703,0.09966039983555675,0.7496842998079956
RSVPLG03,sg,20260504-175330,1.0.2,20251105-084826,838,Experiment,Both,1,Automatic,main,73,20260504-180105,local,global,300,S,H,E,E,E-S.png,H-E.png,sS,hH,mask-2.png,mask-2.png,h,0,0.5989165003411472,h,1,0.1433533001691103,0.04707519989460707,0.0470957001671195,0.09961500018835068,0.09971580002456903,0.29997910000383854
RSVPLG03,sg,20260504-175330,1.0.2,20251105-084826,838,Experiment,Both,1,Automatic,main,74,20260504-180109,global,local,750,S,H,A,E,S-A.png,E-H.png,sS,hH,mask-1.png,mask-1.png,s,1,0.41137560037896037,s,0,0.12751899985596538,0.04733920004218817,0.04729859996587038,0.09972309973090887,0.0996941002085805,0.7495125997811556
RSVPLG03,sg,20260504-175330,1.0.2,20251105-084826,838,Experiment,Both,1,Automatic,main,75,20260504-180114,global,local,750,H,H,A,E,H-A.png,E-H.png,hH,hH,mask-1.png,mask-2.png,h,1,0.5505311000160873,h,1,0.2533644996583462,0.046069000381976366,0.04695230023935437,0.0988412001170218,0.0999733000062406,0.7497426001355052
RSVPLG03,sg,20260504-175330,1.0.2,20251105-084826,838,Experiment,Both,1,Automatic,main,76,20260504-180121,global,global,300,H,S,A,E,H-A.png,S-E.png,hH,sS,mask-1.png,mask-1.png,h,1,0.7314877999015152,s,1,0.13483229978010058,0.0469249002635479,0.047067000064998865,0.09973530005663633,0.09934110008180141,0.29974270006641746
RSVPLG03,sg,20260504-175330,1.0.2,20251105-084826,838,Experiment,Both,1,Automatic,main,77,20260504-180126,local,global,750,H,S,E,E,E-H.png,S-E.png,hH,sS,mask-2.png,mask-3.png,h,1,0.36605329997837543,s,1,0.33247809996828437,0.04960120003670454,0.04958220012485981,0.10115939984098077,0.10024489974603057,0.7498852000571787
RSVPLG03,sg,20260504-175330,1.0.2,20251105-084826,838,Experiment,Both,1,Automatic,main,78,20260504-180131,local,global,750,S,S,E,A,E-S.png,S-A.png,sS,sS,mask-2.png,mask-3.png,s,1,0.32481939997524023,s,1,0.10492879990488291,0.04582449980080128,0.047534000128507614,0.09874329995363951,0.10067469999194145,0.7489523999392986
RSVPLG03,sg,20260504-175330,1.0.2,20251105-084826,838,Experiment,Both,1,Automatic,main,79,20260504-180135,global,global,750,H,H,E,E,H-E.png,H-E.png,hH,hH,mask-1.png,mask-4.png,h,1,0.2728724000044167,h,1,0.11647100001573563,0.048179199919104576,0.04706040024757385,0.1007236996665597,0.09976979997009039,0.7497557997703552
RSVPLG03,sg,20260504-175330,1.0.2,20251105-084826,838,Experiment,Both,1,Automatic,main,80,20260504-180140,global,global,300,H,H,E,A,H-E.png,H-A.png,hH,hH,mask-4.png,mask-3.png,h,1,0.3651306997053325,h,1,0.1254142001271248,0.04819579981267452,0.047724599950015545,0.10157829988747835,0.10010700020939112,0.29956419998779893
RSVPLG03,sg,20260504-175330,1.0.2,20251105-084826,838,Experiment,Both,1,Automatic,main,81,20260504-180144,local,global,750,H,H,E,A,E-H.png,H-A.png,hH,hH,mask-1.png,mask-3.png,h,1,0.18210169998928905,h,1,0.34576880000531673,0.049007400404661894,0.04759910004213452,0.10164810018613935,0.09961619973182678,0.7502399003133178
RSVPLG03,sg,20260504-175330,1.0.2,20251105-084826,838,Experiment,Both,1,Automatic,main,82,20260504-180149,global,global,300,S,S,E,E,S-E.png,S-E.png,sS,sS,mask-1.png,mask-1.png,s,1,0.3497868999838829,s,1,0.16944760037586093,0.0475637000054121,0.04816759983077645,0.1013405998237431,0.09928390011191368,0.30067359982058406
RSVPLG03,sg,20260504-175330,1.0.2,20251105-084826,838,Experiment,Both,1,Automatic,main,83,20260504-180153,global,local,300,S,H,A,A,S-A.png,A-H.png,sS,hH,mask-2.png,mask-2.png,s,1,0.4099345002323389,h,1,0.7338300999253988,0.04728830000385642,0.046841599978506565,0.0992307998239994,0.09978710021823645,0.3007852998562157
RSVPLG03,sg,20260504-175330,1.0.2,20251105-084826,838,Experiment,Both,1,Automatic,main,84,20260504-180158,global,local,300,H,H,A,E,H-A.png,E-H.png,hH,hH,mask-2.png,mask-3.png,h,1,0.4848301997408271,h,1,0.11775720026344061,0.047406400088220835,0.047613199800252914,0.10109200002625585,0.09869100013747811,0.30085580004379153
RSVPLG03,sg,20260504-175330,1.0.2,20251105-084826,838,Experiment,Both,1,Automatic,main,85,20260504-180202,local,local,300,H,S,A,A,A-H.png,A-S.png,hH,sS,mask-3.png,mask-2.png,h,1,0.35208050021901727,h,0,0.10969340009614825,0.04790830006822944,0.04757330007851124,0.10101070022210479,0.10074539994820952,0.30030270013958216
RSVPLG03,sg,20260504-175330,1.0.2,20251105-084826,838,Experiment,Both,1,Automatic,main,86,20260504-180206,global,local,300,H,S,A,A,H-A.png,A-S.png,hH,sS,mask-1.png,mask-1.png,h,1,0.39028949989005923,h,0,0.11812169989570975,0.04763519996777177,0.04833069955930114,0.09921490028500557,0.09946589963510633,0.3002393003553152
RSVPLG03,sg,20260504-175330,1.0.2,20251105-084826,838,Experiment,Both,1,Automatic,main,87,20260504-180211,local,global,750,S,S,E,A,E-S.png,S-A.png,sS,sS,mask-2.png,mask-3.png,h,0,0.9387477999553084,s,1,0.08644350012764335,0.048449099995195866,0.04755329992622137,0.10012899991124868,0.09883869998157024,0.751297399867326
RSVPLG03,sg,20260504-175330,1.0.2,20251105-084826,838,Experiment,Both,1,Automatic,main,88,20260504-180216,global,local,750,S,H,E,E,S-E.png,E-H.png,sS,hH,mask-4.png,mask-2.png,s,1,0.29557309998199344,s,0,0.2852838998660445,0.04806479997932911,0.048304200172424316,0.09967799996957183,0.09981220029294491,0.7501250999048352
RSVPLG03,sg,20260504-175330,1.0.2,20251105-084826,838,Experiment,Both,1,Automatic,main,89,20260504-180221,global,global,750,S,H,A,E,S-A.png,H-E.png,sS,hH,mask-3.png,mask-1.png,s,1,0.5230364999733865,h,1,0.10420199995860457,0.0487317000515759,0.04780050041154027,0.09938370017334819,0.10115250013768673,0.7490802998654544
RSVPLG03,sg,20260504-175330,1.0.2,20251105-084826,838,Experiment,Both,1,Automatic,main,90,20260504-180225,global,global,750,H,H,A,E,H-A.png,H-E.png,hH,hH,mask-4.png,mask-3.png,h,1,0.2223966997116804,h,1,0.10888580000028014,0.04739089962095022,0.046944300178438425,0.1002209996804595,0.10012050019577146,0.7504852996207774
RSVPLG03,sg,20260504-175330,1.0.2,20251105-084826,838,Experiment,Both,1,Automatic,main,91,20260504-180230,local,local,750,H,S,E,E,E-H.png,E-S.png,hH,sS,mask-4.png,mask-1.png,s,0,0.6521640000864863,s,1,0.12519489973783493,0.048572400119155645,0.04655299987643957,0.10064650001004338,0.09936119988560677,0.749932300299406
RSVPLG03,sg,20260504-175330,1.0.2,20251105-084826,838,Experiment,Both,1,Automatic,main,92,20260504-180235,global,local,300,S,H,E,A,S-E.png,A-H.png,sS,hH,mask-1.png,mask-2.png,s,1,0.3807526999153197,h,1,0.22559389984235168,0.046411999966949224,0.047508999705314636,0.09889159956946969,0.09950919961556792,0.29989559995010495
RSVPLG03,sg,20260504-175330,1.0.2,20251105-084826,838,Experiment,Both,1,Automatic,main,93,20260504-180239,global,local,750,H,H,E,E,H-E.png,E-H.png,hH,hH,mask-4.png,mask-3.png,h,1,0.45675239991396666,s,0,0.5882546002976596,0.04752729972824454,0.045886400155723095,0.09884609980508685,0.09945300035178661,0.7506701997481287
RSVPLG03,sg,20260504-175330,1.0.2,20251105-084826,838,Experiment,Both,1,Automatic,main,94,20260504-180245,global,global,750,H,S,E,A,H-E.png,S-A.png,hH,sS,mask-4.png,mask-2.png,h,1,0.42326429998502135,s,1,0.12528999987989664,0.0478433002717793,0.046522300224751234,0.09957160009071231,0.10000970028340816,0.7500211000442505
RSVPLG03,sg,20260504-175330,1.0.2,20251105-084826,838,Experiment,Both,1,Automatic,main,95,20260504-180249,local,local,750,S,H,A,A,A-S.png,A-H.png,sS,hH,mask-4.png,mask-2.png,h,0,0.49386350018903613,h,1,0.10920560033991933,0.04581760009750724,0.0481904000043869,0.09885630011558533,0.09891040017828345,0.749415900092572
RSVPLG03,sg,20260504-175330,1.0.2,20251105-084826,838,Experiment,Both,1,Automatic,main,96,20260504-180254,local,global,300,H,S,E,E,E-H.png,S-E.png,hH,sS,mask-4.png,mask-4.png,h,1,0.42930150032043457,s,1,0.30987370014190674,0.04799770005047321,0.0480449995957315,0.10091260029003024,0.10176269989460707,0.2992565003223717
RSVPLG03,sg,20260504-175330,1.0.2,20251105-084826,838,Experiment,Both,1,Automatic,main,97,20260504-180258,local,local,300,S,H,A,E,A-S.png,E-H.png,sS,hH,mask-3.png,mask-4.png,h,0,0.38999769976362586,s,0,0.03704829979687929,0.04655700037255883,0.04680959973484278,0.09858180023729801,0.10016879998147488,0.29891710029914975
RSVPLG03,sg,20260504-175330,1.0.2,20251105-084826,838,Experiment,Both,1,Automatic,main,98,20260504-180303,local,global,750,H,H,E,A,E-H.png,H-A.png,hH,hH,mask-4.png,mask-1.png,h,1,0.5911861998029053,h,1,1.3104610997252166,0.046812199987471104,0.04674689983949065,0.10083569958806038,0.10047030029818416,0.7501193997450173
RSVPLG03,sg,20260504-175330,1.0.2,20251105-084826,838,Experiment,Both,1,Automatic,main,99,20260504-180309,local,local,750,S,H,E,E,E-S.png,E-H.png,sS,hH,mask-4.png,mask-3.png,h,0,0.3711618999950588,h,1,0.43946069991216063,0.04713129997253418,0.047105600126087666,0.09978889999911189,0.10109050013124943,0.7491317996755242
RSVPLG03,sg,20260504-175330,1.0.2,20251105-084826,838,Experiment,Both,1,Automatic,main,100,20260504-180314,local,local,750,S,S,A,E,A-S.png,E-S.png,sS,sS,mask-3.png,mask-4.png,h,0,1.456866899970919,s,1,0.022465600166469812,0.04830690007656813,0.04663080023601651,0.10011780029162765,0.09902149997651577,0.7516560000367463
RSVPLG03,sg,20260504-180350,1.0.2,20251105-084826,838,Experiment,Both,1,Automatic,warmup,1,20260504-180409,global,local,750,S,S,A,A,S-A.png,A-S.png,sS,sS,mask-2.png,mask-2.png,s,1,0.456305299885571,s,1,0.08830709988251328,0.04646670026704669,0.04722160007804632,0.09809690015390515,0.10176560003310442,0.7495329002849758
RSVPLG03,sg,20260504-180350,1.0.2,20251105-084826,838,Experiment,Both,1,Automatic,warmup,2,20260504-180414,local,global,300,S,S,A,A,A-S.png,S-A.png,sS,sS,mask-3.png,mask-4.png,s,1,0.568177199922502,h,0,0.011556500103324652,0.04756420012563467,0.04825610015541315,0.10070550022646785,0.10080339992418885,0.30036470014601946
RSVPLG03,sg,20260504-180350,1.0.2,20251105-084826,838,Experiment,Both,1,Automatic,warmup,3,20260504-180418,local,local,750,H,H,A,A,A-H.png,A-H.png,hH,hH,mask-3.png,mask-2.png,h,1,0.2723365002311766,h,1,0.09093960002064705,0.04731609998270869,0.04646930005401373,0.10006910003721714,0.09901890018954873,0.7513480000197887
RSVPLG03,sg,20260504-180350,1.0.2,20251105-084826,838,Experiment,Both,1,Automatic,warmup,4,20260504-180423,local,local,300,S,H,E,E,E-S.png,E-H.png,sS,hH,mask-1.png,mask-2.png,s,1,0.3528817002661526,h,1,0.03828870039433241,0.04708100017160177,0.046176299918442965,0.09864210011437535,0.09911390021443367,0.30011550011113286
RSVPLG03,sg,20260504-180350,1.0.2,20251105-084826,838,Experiment,Both,1,Automatic,main,5,20260504-180427,local,global,750,H,S,A,E,A-H.png,S-E.png,hH,sS,mask-1.png,mask-1.png,h,1,0.672620499972254,s,1,0.06558110006153584,0.047079899813979864,0.04677109979093075,0.09959169989451766,0.10026249988004565,0.7516318000853062
RSVPLG03,sg,20260504-180350,1.0.2,20251105-084826,838,Experiment,Both,1,Automatic,main,6,20260504-180431,local,local,750,S,H,E,A,E-S.png,A-H.png,sS,hH,mask-2.png,mask-1.png,s,1,0.588767800014466,h,1,0.08124790014699101,0.04732090001925826,0.0463426997885108,0.10004290007054806,0.0999397998675704,0.7515019001439214
RSVPLG03,sg,20260504-180350,1.0.2,20251105-084826,838,Experiment,Both,1,Automatic,main,7,20260504-180436,global,global,300,S,H,E,E,S-E.png,H-E.png,sS,hH,mask-4.png,mask-3.png,s,1,0.7881602998822927,h,1,0.18978539993986487,0.047427999787032604,0.04941020021215081,0.09970779996365309,0.10156919993460178,0.29958709981292486
RSVPLG03,sg,20260504-180350,1.0.2,20251105-084826,838,Experiment,Both,1,Automatic,main,8,20260504-180441,local,local,750,H,S,E,A,E-H.png,A-S.png,hH,sS,mask-4.png,mask-1.png,h,1,0.450242199935019,s,1,0.07752719987183809,0.048217599745839834,0.046125299762934446,0.10163069982081652,0.09855470014736056,0.7529267999343574
RSVPLG03,sg,20260504-180350,1.0.2,20251105-084826,838,Experiment,Both,1,Automatic,main,9,20260504-180446,local,global,300,S,S,E,A,E-S.png,S-A.png,sS,sS,mask-1.png,mask-2.png,h,0,0.3745898003689945,s,1,0.04325779993087053,0.04694060003384948,0.04864529985934496,0.09968230035156012,0.10077770007774234,0.3000440001487732
RSVPLG03,sg,20260504-180350,1.0.2,20251105-084826,838,Experiment,Both,1,Automatic,main,10,20260504-180450,global,local,300,H,H,A,E,H-A.png,E-H.png,hH,hH,mask-1.png,mask-4.png,h,1,0.4657412995584309,h,1,0.43268359964713454,0.047421100083738565,0.04728850023820996,0.10067189997062087,0.10092200012877584,0.3004518998786807
RSVPLG03,sg,20260504-180350,1.0.2,20251105-084826,838,Experiment,Both,1,Automatic,main,11,20260504-180454,global,local,300,H,H,A,E,H-A.png,E-H.png,hH,hH,mask-3.png,mask-3.png,h,1,0.4385856003500521,h,1,0.14509329991415143,0.0475231003947556,0.048175300005823374,0.0997943002730608,0.09975709998980165,0.3004577001556754
RSVPLG03,sg,20260504-180350,1.0.2,20251105-084826,838,Experiment,Both,1,Automatic,main,12,20260504-180458,local,global,750,H,S,E,A,E-H.png,S-A.png,hH,sS,mask-3.png,mask-4.png,h,1,0.3572023999877274,s,1,0.10511940019205213,0.04717870010063052,0.04904940025880933,0.10098979994654655,0.10049430001527071,0.7511601997539401
RSVPLG03,sg,20260504-180350,1.0.2,20251105-084826,838,Experiment,Both,1,Automatic,main,13,20260504-180503,global,global,750,S,H,E,E,S-E.png,H-E.png,sS,hH,mask-1.png,mask-4.png,h,0,0.706689199898392,h,1,0.12848629988729954,0.04816249990835786,0.04622830031439662,0.10013539995998144,0.10099030006676912,0.7516160998493433
RSVPLG03,sg,20260504-180350,1.0.2,20251105-084826,838,Experiment,Both,1,Automatic,main,14,20260504-180508,local,global,750,S,S,E,A,E-S.png,S-A.png,sS,sS,mask-4.png,mask-2.png,h,0,1.5394561998546124,s,1,0.6528621003963053,0.04937879974022508,0.047047299798578024,0.10127459978684783,0.0993212996982038,0.7527944999746978
RSVPLG03,sg,20260504-180350,1.0.2,20251105-084826,838,Experiment,Both,1,Automatic,main,15,20260504-180514,global,global,300,H,S,A,A,H-A.png,S-A.png,hH,sS,mask-1.png,mask-4.png,h,1,1.0875572999939322,s,1,0.11641959985718131,0.04599210014566779,0.04795029992237687,0.09900279995054007,0.1004802999086678,0.2999379001557827
RSVPLG03,sg,20260504-180350,1.0.2,20251105-084826,838,Experiment,Both,1,Automatic,main,16,20260504-180519,global,local,300,S,H,E,E,S-E.png,E-H.png,sS,hH,mask-4.png,mask-3.png,s,1,0.31879759998992085,h,1,0.2048498997464776,0.04765839967876673,0.04712749971076846,0.09996169991791248,0.09965439978986979,0.30072630010545254
RSVPLG03,sg,20260504-180350,1.0.2,20251105-084826,838,Experiment,Both,1,Automatic,main,17,20260504-180523,global,local,300,S,S,E,E,S-E.png,E-S.png,sS,sS,mask-2.png,mask-2.png,s,1,0.43570079980418086,h,0,0.11172010004520416,0.04793820017948747,0.04732890008017421,0.10018840013071895,0.09980229986831546,0.3013614001683891
RSVPLG03,sg,20260504-180350,1.0.2,20251105-084826,838,Experiment,Both,1,Automatic,main,18,20260504-180528,local,local,300,S,S,A,E,A-S.png,E-S.png,sS,sS,mask-4.png,mask-3.png,s,1,0.36295720003545284,h,0,0.12073739990592003,0.048059200402349234,0.04733229987323284,0.1008847001940012,0.10084059974178672,0.3007447002455592
RSVPLG03,sg,20260504-180350,1.0.2,20251105-084826,838,Experiment,Both,1,Automatic,main,19,20260504-180532,global,local,750,H,H,E,E,H-E.png,E-H.png,hH,hH,mask-4.png,mask-4.png,h,1,0.8175065000541508,s,0,0.03021490015089512,0.04727309988811612,0.04779260000213981,0.10061109997332096,0.10026139998808503,0.7516483999788761
RSVPLG03,sg,20260504-180350,1.0.2,20251105-084826,838,Experiment,Both,1,Automatic,main,20,20260504-180537,global,local,300,H,H,E,A,H-E.png,A-H.png,hH,hH,mask-1.png,mask-4.png,h,1,0.7727296003140509,s,0,0.13488160027191043,0.04833050025627017,0.04578310018405318,0.100721700116992,0.09937930013984442,0.30137629993259907
RSVPLG03,sg,20260504-180350,1.0.2,20251105-084826,838,Experiment,Both,1,Automatic,main,21,20260504-180541,global,global,750,H,H,A,E,H-A.png,H-E.png,hH,hH,mask-4.png,mask-1.png,h,1,0.3305736002512276,h,1,0.12564289988949895,0.04805580014362931,0.04795139981433749,0.10083349980413914,0.09970710007473826,0.7512318999506533
RSVPLG03,sg,20260504-180350,1.0.2,20251105-084826,838,Experiment,Both,1,Automatic,main,22,20260504-180546,local,local,750,H,S,E,A,E-H.png,A-S.png,hH,sS,mask-4.png,mask-1.png,s,0,0.5807952997274697,s,1,0.07774849981069565,0.04737289994955063,0.04922450007870793,0.10147510003298521,0.10085689974948764,0.7508096001110971
RSVPLG03,sg,20260504-180350,1.0.2,20251105-084826,838,Experiment,Both,1,Automatic,main,23,20260504-180551,global,local,750,S,H,E,A,S-E.png,A-H.png,sS,hH,mask-2.png,mask-1.png,h,0,0.5499979997985065,h,1,0.11044399999082088,0.04871149966493249,0.045894399750977755,0.10104449978098273,0.09834920009598136,0.7528826999478042
RSVPLG03,sg,20260504-180350,1.0.2,20251105-084826,838,Experiment,Both,1,Automatic,main,24,20260504-180556,global,local,750,S,S,E,A,S-E.png,A-S.png,sS,sS,mask-2.png,mask-3.png,h,0,0.8748782998882234,s,1,0.07866110000759363,0.04908189969137311,0.04781509982421994,0.10139189986512065,0.10016189981251955,0.7509675999172032
RSVPLG03,sg,20260504-180350,1.0.2,20251105-084826,838,Experiment,Both,1,Automatic,main,25,20260504-180601,local,global,750,H,H,E,A,E-H.png,H-A.png,hH,hH,mask-2.png,mask-4.png,h,1,0.6268007000908256,h,1,0.09378380002453923,0.04741720017045736,0.04905469994992018,0.099840700160712,0.10036460030823946,0.7499007000587881
RSVPLG03,sg,20260504-180350,1.0.2,20251105-084826,838,Experiment,Both,1,Automatic,main,26,20260504-180608,global,global,300,H,S,A,A,H-A.png,S-A.png,hH,sS,mask-3.png,mask-4.png,h,1,0.37377900024876,s,1,0.4699956001713872,0.046556799672544,0.048675000201910734,0.09905749978497624,0.10038379998877645,0.2993978997692466
RSVPLG03,sg,20260504-180350,1.0.2,20251105-084826,838,Experiment,Both,1,Automatic,main,27,20260504-180612,global,local,750,H,S,E,E,H-E.png,E-S.png,hH,sS,mask-3.png,mask-3.png,h,1,0.3588743996806443,s,1,0.4869558997452259,0.04777800012379885,0.04742549965158105,0.100314199924469,0.09958199970424175,0.7506977003067732
RSVPLG03,sg,20260504-180350,1.0.2,20251105-084826,838,Experiment,Both,1,Automatic,main,28,20260504-180617,global,global,300,H,H,A,E,H-A.png,H-E.png,hH,hH,mask-2.png,mask-3.png,h,1,0.8545549996197224,s,0,0.6848657997325063,0.04838609974831343,0.04633700009435415,0.10052079986780882,0.09917330043390393,0.3017416996881366
RSVPLG03,sg,20260504-180350,1.0.2,20251105-084826,838,Experiment,Both,1,Automatic,main,29,20260504-180622,global,global,750,S,S,A,A,S-A.png,S-A.png,sS,sS,mask-3.png,mask-1.png,s,1,0.2534977998584509,s,1,0.09382400009781122,0.047116899862885475,0.047521499916911125,0.10101779969409108,0.10075580002740026,0.751471399795264
RSVPLG03,sg,20260504-180350,1.0.2,20251105-084826,838,Experiment,Both,1,Automatic,main,30,20260504-180627,local,global,750,S,S,A,A,A-S.png,S-A.png,sS,sS,mask-3.png,mask-3.png,h,0,0.9828275996260345,s,1,0.50824090000242,0.04711200017482042,0.04847150016576052,0.09958859998732805,0.09881180012598634,0.7522252001799643
RSVPLG03,sg,20260504-180350,1.0.2,20251105-084826,838,Experiment,Both,1,Automatic,main,31,20260504-180632,global,local,300,H,H,E,A,H-E.png,A-H.png,hH,hH,mask-1.png,mask-2.png,h,1,0.500299499835819,s,0,0.3499829997308552,0.045799500308930874,0.04710039962083101,0.09845960000529885,0.10101869981735945,0.2986350003629923
RSVPLG03,sg,20260504-180350,1.0.2,20251105-084826,838,Experiment,Both,1,Automatic,main,32,20260504-180637,local,local,300,H,H,A,A,A-H.png,A-H.png,hH,hH,mask-1.png,mask-3.png,h,1,0.4566391999833286,h,1,0.09006790025159717,0.047699599992483854,0.04688700009137392,0.10009510023519397,0.09940530033782125,0.3011425998993218
RSVPLG03,sg,20260504-180350,1.0.2,20251105-084826,838,Experiment,Both,1,Automatic,main,33,20260504-180641,local,local,300,H,H,A,A,A-H.png,A-H.png,hH,hH,mask-2.png,mask-2.png,h,1,0.4327302002348006,h,1,0.0987639999948442,0.04859649995341897,0.04681440023705363,0.10112030012533069,0.09945620037615299,0.30216339975595474
RSVPLG03,sg,20260504-180350,1.0.2,20251105-084826,838,Experiment,Both,1,Automatic,main,34,20260504-180646,local,local,300,H,S,A,E,A-H.png,E-S.png,hH,sS,mask-3.png,mask-3.png,h,1,0.5100700999610126,s,1,0.05472869984805584,0.04881999967619777,0.04749739961698651,0.10007659997791052,0.10075429966673255,0.30054019996896386
RSVPLG03,sg,20260504-180350,1.0.2,20251105-084826,838,Experiment,Both,1,Automatic,main,35,20260504-180650,local,local,750,S,H,A,A,A-S.png,A-H.png,sS,hH,mask-1.png,mask-3.png,h,0,0.2734484001994133,h,1,0.08518970012664795,0.047379199881106615,0.046539600007236004,0.09878570027649403,0.09942430024966598,0.7512884000316262
RSVPLG03,sg,20260504-180350,1.0.2,20251105-084826,838,Experiment,Both,1,Automatic,main,36,20260504-180654,global,local,750,H,S,A,E,H-A.png,E-S.png,hH,sS,mask-3.png,mask-4.png,h,1,0.5595808997750282,s,1,0.006478600203990936,0.048311800230294466,0.046061200089752674,0.101091000251472,0.09930690005421638,0.7530713998712599
RSVPLG03,sg,20260504-180350,1.0.2,20251105-084826,838,Experiment,Both,1,Automatic,main,37,20260504-180659,local,global,750,S,H,E,A,E-S.png,H-A.png,sS,hH,mask-3.png,mask-4.png,h,0,0.5580517002381384,h,1,0.08762660017237067,0.047030999790877104,0.04683930007740855,0.1008199998177588,0.10037379991263151,0.7513240999542177
RSVPLG03,sg,20260504-180350,1.0.2,20251105-084826,838,Experiment,Both,1,Automatic,main,38,20260504-180704,local,local,750,H,S,E,A,E-H.png,A-S.png,hH,sS,mask-3.png,mask-3.png,h,1,0.3186722001992166,h,0,0.2375654997304082,0.04586099972948432,0.04818390030413866,0.09886689996346831,0.1004253001883626,0.749596799723804
RSVPLG03,sg,20260504-180350,1.0.2,20251105-084826,838,Experiment,Both,1,Automatic,main,39,20260504-180708,local,global,300,S,S,A,E,A-S.png,S-E.png,sS,sS,mask-4.png,mask-4.png,h,0,0.39290159987285733,s,1,0.5371797000989318,0.04730949969962239,0.048066799994558096,0.1001632995903492,0.09903970034793019,0.30022479966282845
RSVPLG03,sg,20260504-180350,1.0.2,20251105-084826,838,Experiment,Both,1,Automatic,main,40,20260504-180713,global,local,750,H,H,A,A,H-A.png,A-H.png,hH,hH,mask-1.png,mask-2.png,h,1,0.2134162001311779,s,0,0.11619290011003613,0.047910300083458424,0.04685280006378889,0.10049880016595125,0.10009230021387339,0.752216000109911
RSVPLG03,sg,20260504-180350,1.0.2,20251105-084826,838,Experiment,Both,1,Automatic,main,41,20260504-180717,local,local,750,H,S,A,A,A-H.png,A-S.png,hH,sS,mask-1.png,mask-3.png,s,0,0.3840354001149535,h,0,0.07386350026354194,0.04802579991519451,0.046497699804604053,0.1003554998897016,0.09932160004973412,0.7511217999272048
RSVPLG03,sg,20260504-180350,1.0.2,20251105-084826,838,Experiment,Both,1,Automatic,main,42,20260504-180722,global,global,300,S,S,A,E,S-A.png,S-E.png,sS,sS,mask-4.png,mask-2.png,h,0,0.6515919002704322,s,1,0.5032197004184127,0.04756320035085082,0.04836910031735897,0.10048620030283928,0.10092750005424023,0.29878839990124106
RSVPLG03,sg,20260504-180350,1.0.2,20251105-084826,838,Experiment,Both,1,Automatic,main,43,20260504-180727,local,global,300,H,H,E,E,E-H.png,H-E.png,hH,hH,mask-4.png,mask-3.png,h,1,0.36048399982973933,h,1,0.1561463000252843,0.046736099757254124,0.04735459992662072,0.09981049969792366,0.10061699990183115,0.30015229992568493
RSVPLG03,sg,20260504-180350,1.0.2,20251105-084826,838,Experiment,Both,1,Automatic,main,44,20260504-180731,local,global,750,S,H,A,A,A-S.png,H-A.png,sS,hH,mask-2.png,mask-2.png,h,0,0.23809979995712638,h,1,0.054166399873793125,0.04854290001094341,0.04729630006477237,0.10161559982225299,0.09862210042774677,0.7524354998022318
RSVPLG03,sg,20260504-180350,1.0.2,20251105-084826,838,Experiment,Both,1,Automatic,main,45,20260504-180735,global,local,750,S,H,E,E,S-E.png,E-H.png,sS,hH,mask-4.png,mask-4.png,h,0,0.37938360031694174,s,0,0.04511510021984577,0.04784039966762066,0.047817500308156013,0.10005469992756844,0.10001539997756481,0.7516624997369945
RSVPLG03,sg,20260504-180350,1.0.2,20251105-084826,838,Experiment,Both,1,Automatic,main,46,20260504-180740,global,local,300,H,S,E,A,H-E.png,A-S.png,hH,sS,mask-1.png,mask-1.png,h,1,0.37138620018959045,s,1,0.08696379978209734,0.04769070027396083,0.04755230015143752,0.10087270010262728,0.10173470014706254,0.3004502998664975
RSVPLG03,sg,20260504-180350,1.0.2,20251105-084826,838,Experiment,Both,1,Automatic,main,47,20260504-180744,local,local,300,S,S,A,E,A-S.png,E-S.png,sS,sS,mask-1.png,mask-2.png,h,0,0.3343779998831451,s,1,0.012633599806576967,0.04825810017064214,0.04659889964386821,0.10108890011906624,0.10089919995516539,0.30151910008862615
RSVPLG03,sg,20260504-180350,1.0.2,20251105-084826,838,Experiment,Both,1,Automatic,main,48,20260504-180748,global,global,750,S,H,A,E,S-A.png,H-E.png,sS,hH,mask-3.png,mask-2.png,h,0,1.4772927002049983,s,0,0.02482170006260276,0.048580999951809645,0.04754279972985387,0.10062890034168959,0.1007060999982059,0.7506314003840089
RSVPLG03,sg,20260504-180350,1.0.2,20251105-084826,838,Experiment,Both,1,Automatic,main,49,20260504-180754,global,global,300,S,H,E,A,S-E.png,H-A.png,sS,hH,mask-3.png,mask-2.png,h,0,0.4485607002861798,s,0,0.04201949993148446,0.047750700265169144,0.046671800315380096,0.1018366003409028,0.10010039992630482,0.3016375000588596
RSVPLG03,sg,20260504-180350,1.0.2,20251105-084826,838,Experiment,Both,1,Automatic,main,50,20260504-180758,local,local,300,S,H,E,E,E-S.png,E-H.png,sS,hH,mask-3.png,mask-1.png,s,1,0.8063457999378443,h,1,0.02281189989298582,0.046738400124013424,0.04673920013010502,0.0999117000028491,0.09997209999710321,0.3014062000438571
RSVPLG03,sg,20260504-180350,1.0.2,20251105-084826,838,Experiment,Both,1,Automatic,main,51,20260504-180807,global,global,750,S,S,E,E,S-E.png,S-E.png,sS,sS,mask-1.png,mask-2.png,s,1,0.895047599915415,s,1,0.07803789991885424,0.047657900024205446,0.04767540004104376,0.10052960040047765,0.09969029994681478,0.7528574001044035
RSVPLG03,sg,20260504-180350,1.0.2,20251105-084826,838,Experiment,Both,1,Automatic,main,52,20260504-180812,local,global,300,S,H,E,A,E-S.png,H-A.png,sS,hH,mask-1.png,mask-3.png,s,1,0.48433970008045435,h,1,0.07148290006443858,0.047480300068855286,0.047506299801170826,0.10053439997136593,0.09951579989865422,0.30082140024751425
RSVPLG03,sg,20260504-180350,1.0.2,20251105-084826,838,Experiment,Both,1,Automatic,main,53,20260504-180817,global,global,750,S,S,E,A,S-E.png,S-A.png,sS,sS,mask-4.png,mask-2.png,s,1,0.502715100068599,s,1,0.09043709980323911,0.04761679982766509,0.047524300403892994,0.10149589972570539,0.09915700042620301,0.7522803996689618
RSVPLG03,sg,20260504-180350,1.0.2,20251105-084826,838,Experiment,Both,1,Automatic,main,54,20260504-180821,local,global,750,S,S,E,E,E-S.png,S-E.png,sS,sS,mask-3.png,mask-4.png,s,1,0.27530690003186464,s,1,0.10054959962144494,0.04645590018481016,0.04953500023111701,0.0993743003346026,0.10061739990487695,0.7497553001157939
RSVPLG03,sg,20260504-180350,1.0.2,20251105-084826,838,Experiment,Both,1,Automatic,main,55,20260504-180826,global,global,750,H,H,E,A,H-E.png,H-A.png,hH,hH,mask-3.png,mask-1.png,h,1,0.23284790012985468,h,1,0.12538890028372407,0.04848570004105568,0.047508500050753355,0.10122080007568002,0.09959879983216524,0.7527811001054943
RSVPLG03,sg,20260504-180350,1.0.2,20251105-084826,838,Experiment,Both,1,Automatic,main,56,20260504-180830,local,global,750,H,S,A,E,A-H.png,S-E.png,hH,sS,mask-3.png,mask-3.png,h,1,0.45111200027167797,s,1,0.06823519989848137,0.04792129993438721,0.04753689980134368,0.100832499563694,0.10160990012809634,0.7508597997948527
RSVPLG03,sg,20260504-180350,1.0.2,20251105-084826,838,Experiment,Both,1,Automatic,main,57,20260504-180835,local,local,750,S,H,E,E,E-S.png,E-H.png,sS,hH,mask-2.png,mask-1.png,s,1,0.48591839987784624,s,0,0.10289950016885996,0.04872479988262057,0.0485807997174561,0.10182749992236495,0.10163069982081652,0.7511816001497209
RSVPLG03,sg,20260504-180350,1.0.2,20251105-084826,838,Experiment,Both,1,Automatic,main,58,20260504-180840,global,global,750,S,S,E,E,S-E.png,S-E.png,sS,sS,mask-4.png,mask-1.png,s,1,0.36950100027024746,s,1,0.09109310014173388,0.048480500001460314,0.047506799921393394,0.10050790011882782,0.10030770022422075,0.7525116000324488
RSVPLG03,sg,20260504-180350,1.0.2,20251105-084826,838,Experiment,Both,1,Automatic,main,59,20260504-180844,global,global,300,S,H,A,E,S-A.png,H-E.png,sS,hH,mask-2.png,mask-1.png,s,1,0.4296583002433181,h,1,0.09821199998259544,0.04729550005868077,0.04751710034906864,0.0985058001242578,0.10153029998764396,0.2993076997809112
RSVPLG03,sg,20260504-180350,1.0.2,20251105-084826,838,Experiment,Both,1,Automatic,main,60,20260504-180849,local,global,300,S,S,E,E,E-S.png,S-E.png,sS,sS,mask-3.png,mask-2.png,s,1,0.5471465000882745,s,1,0.10008809994906187,0.0475332997739315,0.048387200105935335,0.10070779966190457,0.09939880017191172,0.3009436996653676
RSVPLG03,sg,20260504-180350,1.0.2,20251105-084826,838,Experiment,Both,1,Automatic,main,61,20260504-180853,global,global,750,H,H,E,E,H-E.png,H-E.png,hH,hH,mask-1.png,mask-3.png,h,1,0.11107999971136451,h,1,0.10171449976041913,0.047532299999147654,0.04674299992620945,0.098932099994272,0.1009295997209847,0.7506706002168357
RSVPLG03,sg,20260504-180350,1.0.2,20251105-084826,838,Experiment,Both,1,Automatic,main,62,20260504-180857,global,local,300,H,S,E,A,H-E.png,A-S.png,hH,sS,mask-1.png,mask-4.png,h,1,0.4535246002487838,h,0,0.09117310028523207,0.045665299985557795,0.04638940002769232,0.0993411997333169,0.09892799984663725,0.30170940002426505
RSVPLG03,sg,20260504-180350,1.0.2,20251105-084826,838,Experiment,Both,1,Automatic,main,63,20260504-180902,global,local,300,S,H,A,A,S-A.png,A-H.png,sS,hH,mask-1.png,mask-3.png,s,1,0.44514509988948703,h,1,0.044371800031512976,0.04874699981883168,0.04729039967060089,0.10002289991825819,0.10058739967644215,0.30080740014091134
RSVPLG03,sg,20260504-180350,1.0.2,20251105-084826,838,Experiment,Both,1,Automatic,main,64,20260504-180906,global,local,750,H,S,E,A,H-E.png,A-S.png,hH,sS,mask-1.png,mask-1.png,h,1,0.2364422003738582,h,0,0.0911893998272717,0.0456964997574687,0.047720800153911114,0.09914799965918064,0.09879849990829825,0.751002499833703
RSVPLG03,sg,20260504-180350,1.0.2,20251105-084826,838,Experiment,Both,1,Automatic,main,65,20260504-180910,global,local,750,S,S,A,E,S-A.png,E-S.png,sS,sS,mask-4.png,mask-2.png,s,1,0.40083560021594167,s,1,0.053517399821430445,0.04769229982048273,0.04763600043952465,0.09989759977906942,0.0999140003696084,0.7502973997034132
RSVPLG03,sg,20260504-180350,1.0.2,20251105-084826,838,Experiment,Both,1,Automatic,main,66,20260504-180915,global,global,750,H,S,E,E,H-E.png,S-E.png,hH,sS,mask-3.png,mask-1.png,h,1,0.7325356001965702,s,1,0.2849868997000158,0.04861279996111989,0.0460973996669054,0.10075269965454936,0.09968459978699684,0.7525488999672234
RSVPLG03,sg,20260504-180350,1.0.2,20251105-084826,838,Experiment,Both,1,Automatic,main,67,20260504-180920,local,local,300,S,H,A,A,A-S.png,A-H.png,sS,hH,mask-2.png,mask-2.png,h,0,1.5305642001330853,s,0,0.2457507001236081,0.04759990004822612,0.0475336997769773,0.0992343001998961,0.09936799993738532,0.30023440020158887
RSVPLG03,sg,20260504-180350,1.0.2,20251105-084826,838,Experiment,Both,1,Automatic,main,68,20260504-180926,local,local,300,H,S,A,E,A-H.png,E-S.png,hH,sS,mask-1.png,mask-2.png,s,0,1.3432660000398755,s,1,0.06859000027179718,0.04726130003109574,0.047498300205916166,0.1002462999895215,0.10151080042123795,0.3002998000010848
RSVPLG03,sg,20260504-180350,1.0.2,20251105-084826,838,Experiment,Both,1,Automatic,main,69,20260504-180931,local,local,750,S,S,E,A,E-S.png,A-S.png,sS,sS,mask-3.png,mask-1.png,s,1,0.7600866998545825,s,1,0.2521717995405197,0.0476927999407053,0.04744620015844703,0.09993259981274605,0.10116779990494251,0.7507445998489857
RSVPLG03,sg,20260504-180350,1.0.2,20251105-084826,838,Experiment,Both,1,Automatic,main,70,20260504-180936,global,local,300,S,H,A,E,S-A.png,E-H.png,sS,hH,mask-3.png,mask-3.png,s,1,1.474608900025487,h,1,0.2621296001598239,0.047525400295853615,0.046563700307160616,0.09960070019587874,0.09914010018110275,0.30030540004372597
