exp,exp_initials,runtime,ver,modtime,sub,blocktype,targets,cuetype,mode,trialtype,trial,trialtime,t1_level,t2_level,t2_lag,t1,t2,distractor1,distractor2,stimfile1,stimfile2,t1_corr,t2_corr,maskfile1,maskfile2,t1_resp,t1_acc,t1_rt,t2_resp,t2_acc,t2_rt,t1_dur,t2_dur,t1mask_soa,t2mask_soa,t1t2_soa
RSVPLG03,md,20260310-092244,1.0.2,20251105-084826,796,Introduction,T1,1,Automatic,main,1,20260310-100935,local,global,750,S,S,A,E,A-S.png,S-E.png,sS,sS,mask-1.png,mask-2.png,s,1,2.8228185998741537,none,-5,0,0.09746980015188456,0.09467499982565641,0.19983049994334579,0.1978851999156177,0.7508104001171887
RSVPLG03,md,20260310-092244,1.0.2,20251105-084826,796,Introduction,T1,1,Automatic,main,2,20260310-100942,global,global,750,H,H,A,E,H-A.png,H-E.png,hH,hH,mask-4.png,mask-2.png,h,1,2.4897032000590116,none,-5,0,0.09799590008333325,0.09539850009605289,0.20106499991379678,0.1990639001596719,0.7511104999575764
RSVPLG03,md,20260310-092244,1.0.2,20251105-084826,796,Introduction,T1,1,Automatic,main,3,20260310-100949,global,local,750,S,S,A,A,S-A.png,A-S.png,sS,sS,mask-1.png,mask-3.png,s,1,1.7195561998523772,none,-5,0,0.09811979997903109,0.09805099992081523,0.20120270014740527,0.2002008999697864,0.7495502000674605
RSVPLG03,md,20260310-092244,1.0.2,20251105-084826,796,Introduction,T1,1,Automatic,main,4,20260310-100955,local,local,750,H,S,E,A,E-H.png,A-S.png,hH,sS,mask-3.png,mask-2.png,h,1,1.0551145998761058,none,-5,0,0.09693249990232289,0.09727840009145439,0.19927549990825355,0.2004893000703305,0.7477628998458385
RSVPLG03,md,20260310-092244,1.0.2,20251105-084826,796,Introduction,T1,1,Automatic,main,5,20260310-101000,global,local,750,S,S,E,A,S-E.png,A-S.png,sS,sS,mask-1.png,mask-3.png,s,1,0.8355390999931842,none,-5,0,0.09718000004068017,0.09535499988123775,0.19945820001885295,0.19771089986898005,0.7511867000721395
RSVPLG03,md,20260310-092244,1.0.2,20251105-084826,796,Introduction,T1,1,Automatic,main,6,20260310-101005,local,local,750,H,S,A,A,A-H.png,A-S.png,hH,sS,mask-4.png,mask-1.png,h,1,0.7796070999465883,none,-5,0,0.0973896998912096,0.0972382000181824,0.20000479998998344,0.1999132998753339,0.7486276000272483
RSVPLG03,md,20260310-092244,1.0.2,20251105-084826,796,Introduction,T1,1,Automatic,main,7,20260310-101010,local,global,750,H,S,A,A,A-H.png,S-A.png,hH,sS,mask-3.png,mask-4.png,h,1,0.830478300107643,none,-5,0,0.09771859995089471,0.09694459987804294,0.19820769992657006,0.2002451999578625,0.7489052000455558
RSVPLG03,md,20260310-092244,1.0.2,20251105-084826,796,Introduction,T1,1,Automatic,main,8,20260310-101015,global,local,750,S,S,E,A,S-E.png,A-S.png,sS,sS,mask-1.png,mask-4.png,s,1,0.8755681000184268,none,-5,0,0.09727400005795062,0.09495820011943579,0.2000712000299245,0.1980677000246942,0.7508594000246376
RSVPLG03,md,20260310-092244,1.0.2,20251105-084826,796,Introduction,T1,1,Automatic,main,9,20260310-101020,local,local,750,S,H,E,E,E-S.png,E-H.png,sS,hH,mask-3.png,mask-4.png,s,1,1.4435064001008868,none,-5,0,0.09699470014311373,0.09587409999221563,0.20057740015909076,0.19812379986979067,0.7503709001466632
RSVPLG03,md,20260310-092244,1.0.2,20251105-084826,796,Introduction,T1,1,Automatic,main,10,20260310-101026,global,global,750,H,H,E,A,H-E.png,H-A.png,hH,hH,mask-3.png,mask-4.png,h,1,1.1259082998149097,none,-5,0,0.09730780008248985,0.09659269987605512,0.19972170004621148,0.1995337000116706,0.7501223001163453
RSVPLG03,md,20260310-092244,1.0.2,20251105-084826,796,Introduction,T1,1,Automatic,main,11,20260310-101031,global,global,750,S,S,E,A,S-E.png,S-A.png,sS,sS,mask-2.png,mask-1.png,s,1,0.6877152000088245,none,-5,0,0.09750819997861981,0.09792719990946352,0.199155000038445,0.20050389994867146,0.7500657001510262
RSVPLG03,md,20260310-092244,1.0.2,20251105-084826,796,Introduction,T1,1,Automatic,main,12,20260310-101036,local,global,750,H,S,A,A,A-H.png,S-A.png,hH,sS,mask-3.png,mask-3.png,s,0,0.6817290999460965,none,-5,0,0.0975536999758333,0.09796330006793141,0.19899130007252097,0.20110659999772906,0.7494898999575526
RSVPLG03,md,20260310-092244,1.0.2,20251105-084826,796,Introduction,T1,1,Automatic,main,13,20260310-101041,local,local,750,S,S,A,A,A-S.png,A-S.png,sS,sS,mask-2.png,mask-2.png,s,1,1.1264083001296967,none,-5,0,0.09867549990303814,0.09623520006425679,0.20098560000769794,0.19928130018524826,0.7502171997912228
RSVPLG03,md,20260310-092244,1.0.2,20251105-084826,796,Introduction,T1,1,Automatic,main,14,20260310-101046,global,global,750,H,H,E,A,H-E.png,H-A.png,hH,hH,mask-1.png,mask-4.png,h,1,1.0442244000732899,none,-5,0,0.09793190006166697,0.0977213999722153,0.19822439993731678,0.2012243999633938,0.7477357999887317
RSVPLG03,md,20260310-092244,1.0.2,20251105-084826,796,Introduction,T1,1,Automatic,main,15,20260310-101051,local,global,750,S,H,A,E,A-S.png,H-E.png,sS,hH,mask-2.png,mask-1.png,h,0,1.080777000170201,none,-5,0,0.09814380016177893,0.09606070001609623,0.20051420014351606,0.1983195999637246,0.7501629001926631
RSVPLG03,md,20260310-092244,1.0.2,20251105-084826,796,Introduction,T1,1,Automatic,main,16,20260310-101057,global,local,750,S,S,A,A,S-A.png,A-S.png,sS,sS,mask-1.png,mask-2.png,s,1,1.0489460001699626,none,-5,0,0.09693610016256571,0.09812799980863929,0.19935310003347695,0.1997079998254776,0.7482319001574069
RSVPLG03,md,20260310-101134,1.0.2,20251105-084826,796,Practice,T1,1,Automatic,main,1,20260310-101202,global,local,300,H,S,A,E,H-A.png,E-S.png,hH,sS,mask-3.png,mask-1.png,h,1,1.0086360001005232,none,-5,0,0.04703960008919239,0.04649480013176799,0.09914449998177588,0.09861510014161468,0.30096099991351366
RSVPLG03,md,20260310-101134,1.0.2,20251105-084826,796,Practice,T1,1,Automatic,main,2,20260310-101206,global,global,300,S,H,A,E,S-A.png,H-E.png,sS,hH,mask-2.png,mask-1.png,s,1,0.4803515998646617,none,-5,0,0.04685849999077618,0.04831620003096759,0.0993953999131918,0.10047570010647178,0.29935979982838035
RSVPLG03,md,20260310-101134,1.0.2,20251105-084826,796,Practice,T1,1,Automatic,main,3,20260310-101210,local,global,750,H,S,A,E,A-H.png,S-E.png,hH,sS,mask-2.png,mask-4.png,h,1,0.6863571999128908,none,-5,0,0.04779620002955198,0.04674780019558966,0.0997604001313448,0.09968170011416078,0.749830299988389
RSVPLG03,md,20260310-101134,1.0.2,20251105-084826,796,Practice,T1,1,Automatic,main,4,20260310-101215,global,local,750,H,S,E,A,H-E.png,A-S.png,hH,sS,mask-2.png,mask-2.png,h,1,1.328995699994266,none,-5,0,0.04701419989578426,0.048546999925747514,0.10093899979256094,0.10058029997162521,0.749250799883157
RSVPLG03,md,20260310-101134,1.0.2,20251105-084826,796,Practice,T1,1,Automatic,main,5,20260310-101220,local,local,300,H,H,E,E,E-H.png,E-H.png,hH,hH,mask-1.png,mask-1.png,h,1,0.7986312999855727,none,-5,0,0.047260900028049946,0.04707229998894036,0.09856770001351833,0.09830289985984564,0.3001887002028525
RSVPLG03,md,20260310-101134,1.0.2,20251105-084826,796,Practice,T1,1,Automatic,main,6,20260310-101225,local,global,300,H,H,A,A,A-H.png,H-A.png,hH,hH,mask-3.png,mask-1.png,h,1,0.697096899850294,none,-5,0,0.04833579994738102,0.04733319999650121,0.10032549989409745,0.10032429988496006,0.30118680000305176
RSVPLG03,md,20260310-101134,1.0.2,20251105-084826,796,Practice,T1,1,Automatic,main,7,20260310-101229,local,global,750,S,S,E,E,E-S.png,S-E.png,sS,sS,mask-2.png,mask-2.png,s,1,0.4357461999170482,none,-5,0,0.047563400119543076,0.04764229990541935,0.10043970006518066,0.10041640000417829,0.7488200000952929
RSVPLG03,md,20260310-101134,1.0.2,20251105-084826,796,Practice,T1,1,Automatic,main,8,20260310-101234,global,global,300,S,S,A,E,S-A.png,S-E.png,sS,sS,mask-4.png,mask-2.png,s,1,0.45340320002287626,none,-5,0,0.048018099972978234,0.04796140012331307,0.10051370016299188,0.1001535002142191,0.30127419997006655
RSVPLG03,md,20260310-101134,1.0.2,20251105-084826,796,Practice,T1,1,Automatic,main,9,20260310-101238,global,local,300,S,H,A,A,S-A.png,A-H.png,sS,hH,mask-2.png,mask-2.png,s,1,0.7302516999188811,none,-5,0,0.04632829991169274,0.04670620011165738,0.09858980006538332,0.09974420000799,0.3000314999371767
RSVPLG03,md,20260310-101134,1.0.2,20251105-084826,796,Practice,T1,1,Automatic,main,10,20260310-101242,local,local,300,H,H,A,E,A-H.png,E-H.png,hH,hH,mask-4.png,mask-4.png,h,1,0.7213332001119852,none,-5,0,0.04814930004067719,0.04775759996846318,0.10134479985572398,0.09870029985904694,0.3011302000377327
RSVPLG03,md,20260310-101134,1.0.2,20251105-084826,796,Practice,T1,1,Automatic,main,11,20260310-101247,local,global,300,H,H,A,E,A-H.png,H-E.png,hH,hH,mask-4.png,mask-2.png,h,1,0.7948467000387609,none,-5,0,0.049062399892136455,0.046727400040254,0.10077459993772209,0.09895780007354915,0.3010783998761326
RSVPLG03,md,20260310-101134,1.0.2,20251105-084826,796,Practice,T1,1,Automatic,main,12,20260310-101251,global,local,750,S,S,E,A,S-E.png,A-S.png,sS,sS,mask-2.png,mask-1.png,s,1,0.6104367000516504,none,-5,0,0.04676399985328317,0.0499615001026541,0.10101979994215071,0.10217660013586283,0.7485099998302758
RSVPLG03,md,20260310-101134,1.0.2,20251105-084826,796,Practice,T1,1,Automatic,main,13,20260310-101256,global,global,750,H,H,E,A,H-E.png,H-A.png,hH,hH,mask-3.png,mask-4.png,h,1,0.6744480000343174,none,-5,0,0.04672500002197921,0.04710179986432195,0.09888529987074435,0.0987821000162512,0.749210000038147
RSVPLG03,md,20260310-101134,1.0.2,20251105-084826,796,Practice,T1,1,Automatic,main,14,20260310-101300,local,local,750,S,H,A,A,A-S.png,A-H.png,sS,hH,mask-4.png,mask-2.png,s,1,0.7448099001776427,none,-5,0,0.0463253001216799,0.04836799995973706,0.09860100015066564,0.10071519995108247,0.7485340000130236
RSVPLG03,md,20260310-101134,1.0.2,20251105-084826,796,Practice,T1,1,Automatic,main,15,20260310-101305,local,local,750,H,H,A,A,A-H.png,A-H.png,hH,hH,mask-2.png,mask-2.png,h,1,0.6344411999452859,none,-5,0,0.049117600079625845,0.04713600012473762,0.10171770001761615,0.09976420016027987,0.7507239000406116
RSVPLG03,md,20260310-101134,1.0.2,20251105-084826,796,Practice,T1,1,Automatic,main,16,20260310-101310,global,global,750,S,H,E,A,S-E.png,H-A.png,sS,hH,mask-1.png,mask-2.png,s,1,0.7386610999237746,none,-5,0,0.04715329990722239,0.04858119995333254,0.09992729988880455,0.10049430001527071,0.7487337000202388
RSVPLG03,md,20260310-101349,1.0.2,20251105-084826,796,Practice,Both,1,Automatic,main,1,20260310-101432,global,local,750,S,S,E,A,S-E.png,A-S.png,sS,sS,mask-2.png,mask-3.png,s,1,2.0797099999617785,s,1,1.74052880005911,0.04002860002219677,0.04725239984691143,0.09305209992453456,0.09965099999681115,0.7427006000652909
RSVPLG03,md,20260310-101349,1.0.2,20251105-084826,796,Practice,Both,1,Automatic,main,2,20260310-101440,global,global,750,H,H,E,E,H-E.png,H-E.png,hH,hH,mask-1.png,mask-1.png,h,1,1.060833000112325,s,0,1.1864697998389602,0.049061300000175834,0.047385199926793575,0.10078969993628561,0.10029119998216629,0.751373500097543
RSVPLG03,md,20260310-101349,1.0.2,20251105-084826,796,Practice,Both,1,Automatic,main,3,20260310-101446,local,global,300,S,S,A,A,A-S.png,S-A.png,sS,sS,mask-3.png,mask-3.png,s,1,0.9505584998987615,h,0,0.6398867000825703,0.04753099987283349,0.04649800015613437,0.09905359987169504,0.09894150006584823,0.3002638998441398
RSVPLG03,md,20260310-101349,1.0.2,20251105-084826,796,Practice,Both,1,Automatic,main,4,20260310-101452,global,local,300,S,H,A,E,S-A.png,E-H.png,sS,hH,mask-2.png,mask-2.png,s,1,1.5506706000305712,h,1,1.147764600114897,0.04958939994685352,0.04652300011366606,0.1012990998569876,0.09899700013920665,0.3016178999096155
RSVPLG03,md,20260310-101349,1.0.2,20251105-084826,796,Practice,Both,1,Automatic,main,5,20260310-101458,local,local,750,S,H,A,A,A-S.png,A-H.png,sS,hH,mask-3.png,mask-1.png,s,1,1.3021674000192434,h,1,0.40048580011352897,0.047317099990323186,0.048491899855434895,0.09884900017641485,0.10012949979864061,0.7491805001627654
RSVPLG03,md,20260310-101349,1.0.2,20251105-084826,796,Practice,Both,1,Automatic,main,6,20260310-101504,local,local,300,H,H,E,A,E-H.png,A-H.png,hH,hH,mask-1.png,mask-3.png,h,1,0.7493585001211613,h,1,0.6361928000114858,0.04879889986477792,0.046680300030857325,0.1010012999176979,0.0988874000031501,0.3017284998204559
RSVPLG03,md,20260310-101349,1.0.2,20251105-084826,796,Practice,Both,1,Automatic,main,7,20260310-101509,local,local,750,H,S,A,E,A-H.png,E-S.png,hH,sS,mask-4.png,mask-4.png,h,1,1.7810276001691818,s,1,0.8076570997945964,0.047454999992623925,0.047706699930131435,0.09924460016191006,0.09975969977676868,0.7483734001871198
RSVPLG03,md,20260310-101349,1.0.2,20251105-084826,796,Practice,Both,1,Automatic,main,8,20260310-101516,local,local,300,S,S,E,E,E-S.png,E-S.png,sS,sS,mask-4.png,mask-1.png,s,1,1.1791578000411391,s,1,0.5697516000363976,0.046077300095930696,0.04643370001576841,0.0993240000680089,0.0996240999083966,0.30025209998711944
RSVPLG03,md,20260310-101349,1.0.2,20251105-084826,796,Practice,Both,1,Automatic,main,9,20260310-101522,local,global,750,H,S,E,E,E-H.png,S-E.png,hH,sS,mask-1.png,mask-3.png,h,1,0.7868476000148803,s,1,0.3820560001768172,0.0472567998804152,0.04701139987446368,0.09922019997611642,0.09961869986727834,0.7493171999230981
RSVPLG03,md,20260310-101349,1.0.2,20251105-084826,796,Practice,Both,1,Automatic,main,10,20260310-101527,global,global,300,H,S,A,A,H-A.png,S-A.png,hH,sS,mask-1.png,mask-4.png,h,1,0.9115202000830323,s,1,0.37973829987458885,0.04680430004373193,0.048423799918964505,0.09933029999956489,0.10073989978991449,0.2995777002070099
RSVPLG03,md,20260310-101349,1.0.2,20251105-084826,796,Practice,Both,1,Automatic,main,11,20260310-101532,local,global,750,S,S,A,A,A-S.png,S-A.png,sS,sS,mask-3.png,mask-1.png,s,1,0.7149447998963296,s,1,0.43722750013694167,0.04745570011436939,0.047320600133389235,0.10019050003029406,0.09921900019980967,0.7507056000176817
RSVPLG03,md,20260310-101349,1.0.2,20251105-084826,796,Practice,Both,1,Automatic,main,12,20260310-101538,global,local,300,S,H,A,A,S-A.png,A-H.png,sS,hH,mask-4.png,mask-4.png,s,1,0.7256803000345826,s,0,0.40997190005145967,0.04895059997215867,0.04650490009225905,0.10107610002160072,0.09832650003954768,0.3023443999700248
RSVPLG03,md,20260310-101349,1.0.2,20251105-084826,796,Practice,Both,1,Automatic,main,13,20260310-101543,global,global,300,S,S,E,A,S-E.png,S-A.png,sS,sS,mask-4.png,mask-1.png,s,1,0.7611514001619071,s,1,0.33488789992406964,0.047316000098362565,0.04845899995416403,0.10031320014968514,0.09942260012030602,0.29938860004767776
RSVPLG03,md,20260310-101349,1.0.2,20251105-084826,796,Practice,Both,1,Automatic,main,14,20260310-101548,global,local,750,H,H,E,A,H-E.png,A-H.png,hH,hH,mask-3.png,mask-4.png,s,0,1.209973500110209,h,1,0.4193567999172956,0.04572680010460317,0.04795810021460056,0.0998070000205189,0.09933170001022518,0.7487574999686331
RSVPLG03,md,20260310-101349,1.0.2,20251105-084826,796,Practice,Both,1,Automatic,main,15,20260310-101554,local,global,300,H,H,E,A,E-H.png,H-A.png,hH,hH,mask-1.png,mask-3.png,h,1,1.193646099884063,h,1,0.7159064000006765,0.04760339995846152,0.047591800102964044,0.09960990003310144,0.10060780006460845,0.2999634000007063
RSVPLG03,md,20260310-101349,1.0.2,20251105-084826,796,Practice,Both,1,Automatic,main,16,20260310-101559,global,global,750,S,S,A,A,S-A.png,S-A.png,sS,sS,mask-2.png,mask-2.png,s,1,0.9807865999173373,s,1,0.44327579997479916,0.04757389985024929,0.04575460008345544,0.09955329983495176,0.09935070015490055,0.7505573998205364
RSVPLG03,md,20260310-101719,1.0.2,20251105-084826,796,Experiment,Both,1,Automatic,warmup,1,20260310-101818,global,global,750,S,H,A,A,S-A.png,H-A.png,sS,hH,mask-3.png,mask-4.png,h,0,1.9023865000344813,s,0,0.8325011001434177,0.043638099916279316,0.0486884000711143,0.09587449999526143,0.10095089999958873,0.7442484998609871
RSVPLG03,md,20260310-101719,1.0.2,20251105-084826,796,Experiment,Both,1,Automatic,warmup,2,20260310-101825,global,local,300,S,S,E,E,S-E.png,E-S.png,sS,sS,mask-4.png,mask-3.png,s,1,1.9667772999964654,h,0,0.6929399999789894,0.04848810005933046,0.047286700224503875,0.10053289984352887,0.09912710008211434,0.3007077998481691
RSVPLG03,md,20260310-101719,1.0.2,20251105-084826,796,Experiment,Both,1,Automatic,warmup,3,20260310-101832,global,global,300,H,H,A,A,H-A.png,H-A.png,hH,hH,mask-4.png,mask-1.png,h,1,1.6052474998869002,h,1,0.3374026999808848,0.047462400048971176,0.04732670006342232,0.10155669995583594,0.09833840001374483,0.30167489987798035
RSVPLG03,md,20260310-101719,1.0.2,20251105-084826,796,Experiment,Both,1,Automatic,warmup,4,20260310-101837,local,local,750,H,S,A,E,A-H.png,E-S.png,hH,sS,mask-1.png,mask-3.png,s,0,0.9839246000628918,s,1,0.2771371998824179,0.0482534000184387,0.04768979991786182,0.10029860003851354,0.09989079996012151,0.7495192000642419
RSVPLG03,md,20260310-101719,1.0.2,20251105-084826,796,Experiment,Both,1,Automatic,main,5,20260310-101843,global,local,300,S,S,A,E,S-A.png,E-S.png,sS,sS,mask-1.png,mask-1.png,s,1,0.5264521001372486,s,1,0.5219817999750376,0.04849570011720061,0.04686159989796579,0.09969560010358691,0.09959189989604056,0.30047550005838275
RSVPLG03,md,20260310-101719,1.0.2,20251105-084826,796,Experiment,Both,1,Automatic,main,6,20260310-101848,global,local,750,S,H,A,E,S-A.png,E-H.png,sS,hH,mask-3.png,mask-3.png,s,1,0.4697352999355644,s,0,0.3108218000270426,0.04713890003040433,0.047684800112619996,0.10022710007615387,0.09990530018694699,0.7510470999404788
RSVPLG03,md,20260310-101719,1.0.2,20251105-084826,796,Experiment,Both,1,Automatic,main,7,20260310-101853,local,global,300,H,H,E,E,E-H.png,H-E.png,hH,hH,mask-1.png,mask-4.png,h,1,1.0111338999122381,s,0,0.42765269987285137,0.04682500008493662,0.047614699928089976,0.10105179995298386,0.10105669987387955,0.2992523000575602
RSVPLG03,md,20260310-101719,1.0.2,20251105-084826,796,Experiment,Both,1,Automatic,main,8,20260310-101858,local,local,750,H,S,E,A,E-H.png,A-S.png,hH,sS,mask-3.png,mask-4.png,h,1,0.7887295000255108,h,0,0.3659967998974025,0.047604399966076016,0.04902540007606149,0.09975160006433725,0.1013323999941349,0.747244100086391
RSVPLG03,md,20260310-101719,1.0.2,20251105-084826,796,Experiment,Both,1,Automatic,main,9,20260310-101903,local,local,750,H,H,E,E,E-H.png,E-H.png,hH,hH,mask-1.png,mask-2.png,h,1,1.0747355001512915,h,1,0.573460599873215,0.047529400093480945,0.0477035001385957,0.09942590002901852,0.0999121000058949,0.750008000060916
RSVPLG03,md,20260310-101719,1.0.2,20251105-084826,796,Experiment,Both,1,Automatic,main,10,20260310-101909,local,local,750,H,S,A,A,A-H.png,A-S.png,hH,sS,mask-3.png,mask-2.png,h,1,0.8876749000046402,s,1,0.336132800206542,0.04773130011744797,0.04745529987849295,0.09995650011114776,0.0986585000064224,0.751438100123778
RSVPLG03,md,20260310-101719,1.0.2,20251105-084826,796,Experiment,Both,1,Automatic,main,11,20260310-101915,global,local,750,H,S,E,A,H-E.png,A-S.png,hH,sS,mask-4.png,mask-4.png,h,1,1.4619015001226217,s,1,0.30453919991850853,0.04795360006392002,0.048525599995628,0.09980409988202155,0.10056910011917353,0.7487484999001026
RSVPLG03,md,20260310-101719,1.0.2,20251105-084826,796,Experiment,Both,1,Automatic,main,12,20260310-101921,local,global,750,S,H,A,A,A-S.png,H-A.png,sS,hH,mask-3.png,mask-3.png,s,1,0.647550699999556,s,0,0.49224559986032546,0.04651889996603131,0.04550620005466044,0.09984919987618923,0.09953020000830293,0.7496809000149369
RSVPLG03,md,20260310-101719,1.0.2,20251105-084826,796,Experiment,Both,1,Automatic,main,13,20260310-101926,local,global,750,H,S,A,E,A-H.png,S-E.png,hH,sS,mask-4.png,mask-2.png,h,1,2.1673445000778884,h,0,1.273281899979338,0.046525799902155995,0.04767920006997883,0.09954059985466301,0.0998929999768734,0.7491329999174923
RSVPLG03,md,20260310-101719,1.0.2,20251105-084826,796,Experiment,Both,1,Automatic,main,14,20260310-101934,global,local,750,S,H,E,E,S-E.png,E-H.png,sS,hH,mask-1.png,mask-2.png,s,1,0.7248503000009805,s,0,0.2737180998083204,0.04695339989848435,0.04668290005065501,0.10057229991070926,0.09911839989945292,0.7514593000523746
RSVPLG03,md,20260310-101719,1.0.2,20251105-084826,796,Experiment,Both,1,Automatic,main,15,20260310-101939,global,local,300,H,H,A,A,H-A.png,A-H.png,hH,hH,mask-2.png,mask-2.png,h,1,0.8932237999979407,s,0,0.4430420999415219,0.04671260016039014,0.04683090001344681,0.09892240003682673,0.09902470000088215,0.29973680013790727
RSVPLG03,md,20260310-101719,1.0.2,20251105-084826,796,Experiment,Both,1,Automatic,main,16,20260310-101944,local,local,750,S,S,E,E,E-S.png,E-S.png,sS,sS,mask-3.png,mask-2.png,s,1,0.5243969999719411,s,1,0.408746600151062,0.04865290015004575,0.04753120010718703,0.10054729995317757,0.09900170005857944,0.7500662000384182
RSVPLG03,md,20260310-101719,1.0.2,20251105-084826,796,Experiment,Both,1,Automatic,main,17,20260310-101949,global,local,750,H,S,E,E,H-E.png,E-S.png,hH,sS,mask-3.png,mask-1.png,h,1,0.6067387000657618,s,1,0.2796410000883043,0.047683400101959705,0.047512900084257126,0.09988570003770292,0.09978550020605326,0.7493435998912901
RSVPLG03,md,20260310-101719,1.0.2,20251105-084826,796,Experiment,Both,1,Automatic,main,18,20260310-101954,local,local,750,S,S,E,A,E-S.png,A-S.png,sS,sS,mask-3.png,mask-4.png,s,1,0.5006496999412775,s,1,0.2514418000355363,0.048597299959510565,0.04748049983754754,0.09969959990121424,0.09949819999746978,0.7508398999925703
RSVPLG03,md,20260310-101719,1.0.2,20251105-084826,796,Experiment,Both,1,Automatic,main,19,20260310-101959,local,global,750,H,H,E,A,E-H.png,H-A.png,hH,hH,mask-1.png,mask-3.png,h,1,0.6874704000074416,h,1,0.34572479990310967,0.04655659990385175,0.048682300141081214,0.09978639986366034,0.10089110000990331,0.7484745997935534
RSVPLG03,md,20260310-101719,1.0.2,20251105-084826,796,Experiment,Both,1,Automatic,main,20,20260310-102005,local,global,750,S,S,E,A,E-S.png,S-A.png,sS,sS,mask-1.png,mask-3.png,s,1,0.6949324000161141,h,0,0.31312139984220266,0.04782650014385581,0.04811830003745854,0.09912899998016655,0.09989750012755394,0.7485054000280797
RSVPLG03,md,20260310-101719,1.0.2,20251105-084826,796,Experiment,Both,1,Automatic,main,21,20260310-102010,local,global,750,S,S,A,A,A-S.png,S-A.png,sS,sS,mask-3.png,mask-4.png,s,1,0.862961099948734,h,0,0.27133330004289746,0.04760850011371076,0.04772070003673434,0.1008150998968631,0.0999123000074178,0.7501876999158412
RSVPLG03,md,20260310-101719,1.0.2,20251105-084826,796,Experiment,Both,1,Automatic,main,22,20260310-102015,global,local,300,H,H,E,E,H-E.png,E-H.png,hH,hH,mask-1.png,mask-3.png,h,1,0.9655753001570702,h,1,0.5054536000825465,0.04630009992979467,0.04739049985073507,0.09958959999494255,0.09846229990944266,0.29931110003963113
RSVPLG03,md,20260310-101719,1.0.2,20251105-084826,796,Experiment,Both,1,Automatic,main,23,20260310-102020,local,global,750,S,H,A,E,A-S.png,H-E.png,sS,hH,mask-4.png,mask-4.png,s,1,0.7163637999910861,h,1,0.3508868000935763,0.047701000003144145,0.048729199916124344,0.09996729996055365,0.10080910008400679,0.7494149999693036
RSVPLG03,md,20260310-101719,1.0.2,20251105-084826,796,Experiment,Both,1,Automatic,main,24,20260310-102026,global,global,750,S,S,E,A,S-E.png,S-A.png,sS,sS,mask-1.png,mask-3.png,s,1,1.0722730001434684,s,1,0.4742839999962598,0.04706170014105737,0.046742300037294626,0.09845510008744895,0.10084820003248751,0.7487564999610186
RSVPLG03,md,20260310-101719,1.0.2,20251105-084826,796,Experiment,Both,1,Automatic,main,25,20260310-102032,global,local,300,S,H,A,A,S-A.png,A-H.png,sS,hH,mask-2.png,mask-3.png,s,1,0.7857065999414772,h,1,0.33550720009952784,0.04868989996612072,0.047721700044348836,0.10000550001859665,0.09971900004893541,0.2997053998988122
RSVPLG03,md,20260310-101719,1.0.2,20251105-084826,796,Experiment,Both,1,Automatic,main,26,20260310-102110,local,local,300,S,S,E,E,E-S.png,E-S.png,sS,sS,mask-4.png,mask-3.png,s,1,0.6402763999067247,s,1,0.35765139991417527,0.047619600081816316,0.047524199821054935,0.10094700008630753,0.09920619986951351,0.3009198000654578
RSVPLG03,md,20260310-101719,1.0.2,20251105-084826,796,Experiment,Both,1,Automatic,main,27,20260310-102114,global,local,300,S,H,A,E,S-A.png,E-H.png,sS,hH,mask-4.png,mask-2.png,s,1,0.7740776999853551,s,0,0.5909338998608291,0.04775510006584227,0.04771580011583865,0.09944569994695485,0.10044559999369085,0.3001558999530971
RSVPLG03,md,20260310-101719,1.0.2,20251105-084826,796,Experiment,Both,1,Automatic,main,28,20260310-102120,local,local,300,H,S,A,E,A-H.png,E-S.png,hH,sS,mask-4.png,mask-3.png,s,0,0.572349299909547,s,1,1.4500285999383777,0.047257000114768744,0.04743789997883141,0.10121869994327426,0.10115240002050996,0.30010490003041923
RSVPLG03,md,20260310-101719,1.0.2,20251105-084826,796,Experiment,Both,1,Automatic,main,29,20260310-102125,local,local,300,S,S,E,E,E-S.png,E-S.png,sS,sS,mask-3.png,mask-3.png,s,1,0.4555683999788016,s,1,0.35915450006723404,0.04684389987960458,0.047802100190892816,0.10013070004060864,0.1005542001221329,0.29887659987434745
RSVPLG03,md,20260310-101719,1.0.2,20251105-084826,796,Experiment,Both,1,Automatic,main,30,20260310-102130,local,global,750,S,H,E,A,E-S.png,H-A.png,sS,hH,mask-2.png,mask-4.png,s,1,1.032341199927032,h,1,0.3380302998702973,0.04824539995752275,0.0473581999540329,0.10078940005041659,0.09985110000707209,0.7498459001071751
RSVPLG03,md,20260310-101719,1.0.2,20251105-084826,796,Experiment,Both,1,Automatic,main,31,20260310-102136,local,global,300,S,H,E,E,E-S.png,H-E.png,sS,hH,mask-2.png,mask-4.png,s,1,0.6348869998473674,s,0,0.3100190998520702,0.04870659997686744,0.04790939996019006,0.10013739997521043,0.1004564999602735,0.29981349990703166
RSVPLG03,md,20260310-101719,1.0.2,20251105-084826,796,Experiment,Both,1,Automatic,main,32,20260310-102140,local,local,300,H,H,E,A,E-H.png,A-H.png,hH,hH,mask-1.png,mask-2.png,h,1,0.5085709001868963,h,1,0.3365300998557359,0.04669869993813336,0.04738970007747412,0.09917980013415217,0.09894719999283552,0.29870739998295903
RSVPLG03,md,20260310-101719,1.0.2,20251105-084826,796,Experiment,Both,1,Automatic,main,33,20260310-102145,local,local,300,H,H,A,A,A-H.png,A-H.png,hH,hH,mask-2.png,mask-4.png,h,1,0.8002820999827236,h,1,0.3029767000116408,0.047660599928349257,0.04667509999126196,0.09989700000733137,0.10022570006549358,0.2990075999405235
RSVPLG03,md,20260310-101719,1.0.2,20251105-084826,796,Experiment,Both,1,Automatic,main,34,20260310-102150,global,global,300,S,S,E,A,S-E.png,S-A.png,sS,sS,mask-2.png,mask-4.png,s,1,2.1722782000433654,h,0,0.14324919995851815,0.04691540007479489,0.047837099991738796,0.09981329995207489,0.10035660001449287,0.30054629989899695
RSVPLG03,md,20260310-101719,1.0.2,20251105-084826,796,Experiment,Both,1,Automatic,main,35,20260310-102156,local,global,300,S,H,E,A,E-S.png,H-A.png,sS,hH,mask-3.png,mask-4.png,s,1,0.8423062998335809,s,0,0.3431283999234438,0.047146999975666404,0.04747370001859963,0.1000846999231726,0.10079810000024736,0.2982459000777453
RSVPLG03,md,20260310-101719,1.0.2,20251105-084826,796,Experiment,Both,1,Automatic,main,36,20260310-102201,global,global,750,S,H,E,A,S-E.png,H-A.png,sS,hH,mask-4.png,mask-3.png,s,1,0.7499323999509215,h,1,0.5379494000226259,0.0464542000554502,0.04640259989537299,0.09983050008304417,0.09950529993511736,0.7506159001495689
RSVPLG03,md,20260310-101719,1.0.2,20251105-084826,796,Experiment,Both,1,Automatic,main,37,20260310-102206,global,global,300,H,H,E,A,H-E.png,H-A.png,hH,hH,mask-2.png,mask-3.png,h,1,0.9629240001086146,h,1,0.619718800066039,0.046692200005054474,0.04741579992696643,0.10032660001888871,0.09981429995968938,0.2990896000992507
RSVPLG03,md,20260310-101719,1.0.2,20251105-084826,796,Experiment,Both,1,Automatic,main,38,20260310-102212,global,global,750,H,S,E,A,H-E.png,S-A.png,hH,sS,mask-1.png,mask-4.png,h,1,0.8284587999805808,s,1,0.7123732999898493,0.04761340003460646,0.0476257000118494,0.10182540002278984,0.09865720011293888,0.7509345998987556
RSVPLG03,md,20260310-101719,1.0.2,20251105-084826,796,Experiment,Both,1,Automatic,main,39,20260310-102217,global,global,750,H,H,E,A,H-E.png,H-A.png,hH,hH,mask-3.png,mask-2.png,h,1,0.538201600080356,h,1,0.33339740009978414,0.04750610003247857,0.04749409994110465,0.10052020009607077,0.09853730001486838,0.7499303000513464
RSVPLG03,md,20260310-101719,1.0.2,20251105-084826,796,Experiment,Both,1,Automatic,main,40,20260310-102223,local,global,300,S,S,A,E,A-S.png,S-E.png,sS,sS,mask-4.png,mask-4.png,s,1,0.8074463000521064,s,1,0.3749571000225842,0.04650590009987354,0.04791920003481209,0.09963320009410381,0.10003660013899207,0.2989624000620097
RSVPLG03,md,20260310-101719,1.0.2,20251105-084826,796,Experiment,Both,1,Automatic,main,41,20260310-102228,global,local,750,S,S,E,E,S-E.png,E-S.png,sS,sS,mask-1.png,mask-3.png,s,1,0.7254668998066336,s,1,0.30333259981125593,0.04751209984533489,0.046514500165358186,0.09992039995267987,0.09854270005598664,0.7500618998892605
RSVPLG03,md,20260310-101719,1.0.2,20251105-084826,796,Experiment,Both,1,Automatic,main,42,20260310-102233,local,local,300,H,H,E,E,E-H.png,E-H.png,hH,hH,mask-2.png,mask-2.png,h,1,0.951286599971354,h,1,0.3249951999168843,0.047522000037133694,0.04663320002146065,0.09952809987589717,0.09935689996927977,0.2994413999840617
RSVPLG03,md,20260310-101719,1.0.2,20251105-084826,796,Experiment,Both,1,Automatic,main,43,20260310-102238,local,global,300,H,H,E,E,E-H.png,H-E.png,hH,hH,mask-2.png,mask-1.png,h,1,1.6633256999775767,s,0,0.7947809000033885,0.048725000116974115,0.04652099986560643,0.10022120014764369,0.10051249992102385,0.30011060019023716
RSVPLG03,md,20260310-101719,1.0.2,20251105-084826,796,Experiment,Both,1,Automatic,main,44,20260310-102244,global,local,750,S,H,A,A,S-A.png,A-H.png,sS,hH,mask-1.png,mask-4.png,s,1,0.9794733999297023,h,1,0.6341069000773132,0.04809569986537099,0.0477318000048399,0.10140489996410906,0.10163000016473234,0.7496727998368442
RSVPLG03,md,20260310-101719,1.0.2,20251105-084826,796,Experiment,Both,1,Automatic,main,45,20260310-102250,global,local,300,H,H,E,A,H-E.png,A-H.png,hH,hH,mask-3.png,mask-2.png,h,1,0.900475800037384,h,1,0.3432194998022169,0.04566269996576011,0.04689310002140701,0.09973310003988445,0.09954599989578128,0.29943470004945993
RSVPLG03,md,20260310-101719,1.0.2,20251105-084826,796,Experiment,Both,1,Automatic,main,46,20260310-102255,global,local,750,H,S,A,A,H-A.png,A-S.png,hH,sS,mask-2.png,mask-3.png,h,1,1.0652054999954998,s,1,0.16398370009846985,0.04681560001336038,0.04770999983884394,0.09900110005401075,0.09910109988413751,0.7487872000783682
RSVPLG03,md,20260310-101719,1.0.2,20251105-084826,796,Experiment,Both,1,Automatic,main,47,20260310-102301,local,global,300,H,H,A,A,A-H.png,H-A.png,hH,hH,mask-4.png,mask-3.png,h,1,0.6947069999296218,h,1,0.31009710021317005,0.04760859999805689,0.04652390000410378,0.10109359980560839,0.09970019990578294,0.30121139995753765
RSVPLG03,md,20260310-101719,1.0.2,20251105-084826,796,Experiment,Both,1,Automatic,main,48,20260310-102306,global,global,300,S,S,E,E,S-E.png,S-E.png,sS,sS,mask-3.png,mask-4.png,s,1,0.46594739984720945,s,1,0.28637520014308393,0.04713280010037124,0.04755100002512336,0.0999741000123322,0.10108990012668073,0.29851330001838505
RSVPLG03,md,20260310-101719,1.0.2,20251105-084826,796,Experiment,Both,1,Automatic,main,49,20260310-102310,global,local,300,H,S,E,A,H-E.png,A-S.png,hH,sS,mask-4.png,mask-1.png,h,1,0.6151080999989063,s,1,0.19440120016224682,0.04673569998703897,0.04783400008454919,0.09846229990944266,0.10234540002420545,0.2980935999657959
RSVPLG03,md,20260310-101719,1.0.2,20251105-084826,796,Experiment,Both,1,Automatic,main,50,20260310-102315,global,local,750,S,H,E,E,S-E.png,E-H.png,sS,hH,mask-2.png,mask-1.png,s,1,0.48914530011825264,s,0,0.34602699987590313,0.04657300002872944,0.04749150015413761,0.10004110005684197,0.10048430017195642,0.7485154999885708
RSVPLG03,md,20260310-101719,1.0.2,20251105-084826,796,Experiment,Both,1,Automatic,main,51,20260310-102409,local,local,750,H,H,E,A,E-H.png,A-H.png,hH,hH,mask-4.png,mask-1.png,h,1,0.4738851999863982,h,1,0.27677179989404976,0.0476885000243783,0.04799519991502166,0.10088420007377863,0.09908879990689456,0.749628100078553
RSVPLG03,md,20260310-101719,1.0.2,20251105-084826,796,Experiment,Both,1,Automatic,main,52,20260310-102414,global,global,750,S,H,E,E,S-E.png,H-E.png,sS,hH,mask-2.png,mask-2.png,s,1,0.8664712000172585,h,1,0.2214426000136882,0.04737940011546016,0.04751219996251166,0.10032179998233914,0.10061850002966821,0.7500062000472099
RSVPLG03,md,20260310-101719,1.0.2,20251105-084826,796,Experiment,Both,1,Automatic,main,53,20260310-102419,local,local,300,H,S,A,A,A-H.png,A-S.png,hH,sS,mask-1.png,mask-4.png,h,1,0.8420766000635922,s,1,0.3154875000473112,0.04582619993016124,0.04670760012231767,0.09840160002931952,0.09968540002591908,0.2989658999722451
RSVPLG03,md,20260310-101719,1.0.2,20251105-084826,796,Experiment,Both,1,Automatic,main,54,20260310-102424,local,local,300,S,H,A,E,A-S.png,E-H.png,sS,hH,mask-3.png,mask-4.png,s,1,0.9465927998535335,h,1,0.28788749990053475,0.048673300072550774,0.04758869996294379,0.09911580011248589,0.10061829979531467,0.29947170009836555
RSVPLG03,md,20260310-101719,1.0.2,20251105-084826,796,Experiment,Both,1,Automatic,main,55,20260310-102429,global,global,750,H,S,E,A,H-E.png,S-A.png,hH,sS,mask-2.png,mask-1.png,h,1,0.6886031001340598,s,1,0.27110889996401966,0.047732200007885695,0.04770419979467988,0.09903630008921027,0.09945039986632764,0.7486969002056867
RSVPLG03,md,20260310-101719,1.0.2,20251105-084826,796,Experiment,Both,1,Automatic,main,56,20260310-102434,local,global,300,S,S,E,A,E-S.png,S-A.png,sS,sS,mask-1.png,mask-4.png,s,1,0.8599681998603046,h,0,0.2018551998771727,0.04852140019647777,0.047429800033569336,0.10155870020389557,0.09841420012526214,0.30047490005381405
RSVPLG03,md,20260310-101719,1.0.2,20251105-084826,796,Experiment,Both,1,Automatic,main,57,20260310-102439,global,local,300,S,H,A,A,S-A.png,A-H.png,sS,hH,mask-1.png,mask-1.png,s,1,0.8426389000378549,s,0,0.3304525001440197,0.04771509999409318,0.0486502000130713,0.09933870006352663,0.10086860018782318,0.29903679993003607
RSVPLG03,md,20260310-101719,1.0.2,20251105-084826,796,Experiment,Both,1,Automatic,main,58,20260310-102444,global,local,750,H,S,A,A,H-A.png,A-S.png,hH,sS,mask-1.png,mask-1.png,h,1,0.4920604000799358,h,0,0.272051400039345,0.04768219985999167,0.04768049996346235,0.10090829990804195,0.09909619996324182,0.7494117000605911
RSVPLG03,md,20260310-101719,1.0.2,20251105-084826,796,Experiment,Both,1,Automatic,main,59,20260310-102449,global,global,300,H,H,E,A,H-E.png,H-A.png,hH,hH,mask-1.png,mask-4.png,h,1,0.5481177000328898,h,1,0.2010969000402838,0.04766659997403622,0.04748740000650287,0.10105179995298386,0.10054909996688366,0.30020270007662475
RSVPLG03,md,20260310-101719,1.0.2,20251105-084826,796,Experiment,Both,1,Automatic,main,60,20260310-102453,global,global,300,S,S,E,A,S-E.png,S-A.png,sS,sS,mask-3.png,mask-2.png,s,1,0.46562590007670224,s,1,0.31343169999308884,0.048340699868276715,0.04554899991489947,0.1003755999263376,0.09858860005624592,0.30164960003457963
RSVPLG03,md,20260310-101719,1.0.2,20251105-084826,796,Experiment,Both,1,Automatic,main,61,20260310-102458,local,local,300,S,H,E,A,E-S.png,A-H.png,sS,hH,mask-1.png,mask-3.png,s,1,0.9031907999888062,h,1,0.22496769996359944,0.046547799836844206,0.048505800077691674,0.09973109979182482,0.10023429989814758,0.2980539998970926
RSVPLG03,md,20260310-101719,1.0.2,20251105-084826,796,Experiment,Both,1,Automatic,main,62,20260310-102503,local,local,750,H,S,E,E,E-H.png,E-S.png,hH,sS,mask-4.png,mask-4.png,h,1,0.5037795000243932,s,1,0.2352992999367416,0.04567330004647374,0.04769599996507168,0.09992239996790886,0.10012239986099303,0.7478086999617517
RSVPLG03,md,20260310-101719,1.0.2,20251105-084826,796,Experiment,Both,1,Automatic,main,63,20260310-102508,local,global,750,H,H,E,A,E-H.png,H-A.png,hH,hH,mask-3.png,mask-4.png,h,1,0.7633187000174075,h,1,0.2960010999813676,0.04672829993069172,0.04752720007672906,0.0998340998776257,0.09972709999419749,0.7482059998437762
RSVPLG03,md,20260310-101719,1.0.2,20251105-084826,796,Experiment,Both,1,Automatic,main,64,20260310-102513,local,global,750,S,H,A,E,A-S.png,H-E.png,sS,hH,mask-4.png,mask-1.png,s,1,0.5819385000504553,s,0,0.2172148998361081,0.047535100020468235,0.04655619990080595,0.0995431998744607,0.0992846000008285,0.7490572999231517
RSVPLG03,md,20260310-101719,1.0.2,20251105-084826,796,Experiment,Both,1,Automatic,main,65,20260310-102518,local,global,300,S,H,E,A,E-S.png,H-A.png,sS,hH,mask-4.png,mask-1.png,s,1,0.7029070002026856,h,1,0.15552420006133616,0.046685000183060765,0.04772879998199642,0.09993740008212626,0.09929999988526106,0.2995675001293421
RSVPLG03,md,20260310-101719,1.0.2,20251105-084826,796,Experiment,Both,1,Automatic,main,66,20260310-102523,global,global,300,H,H,A,E,H-A.png,H-E.png,hH,hH,mask-3.png,mask-3.png,h,1,0.7138598000165075,h,1,0.2579114001709968,0.04665010003373027,0.0475100998301059,0.09947660006582737,0.09784679999575019,0.29972250014543533
RSVPLG03,md,20260310-101719,1.0.2,20251105-084826,796,Experiment,Both,1,Automatic,main,67,20260310-102527,global,local,300,H,H,E,A,H-E.png,A-H.png,hH,hH,mask-4.png,mask-1.png,h,1,0.3974186999257654,h,1,0.262026600074023,0.048664100002497435,0.04692250001244247,0.10174820013344288,0.09986989991739392,0.30139350006356835
RSVPLG03,md,20260310-101719,1.0.2,20251105-084826,796,Experiment,Both,1,Automatic,main,68,20260310-102532,local,global,750,H,H,E,E,E-H.png,H-E.png,hH,hH,mask-2.png,mask-2.png,h,1,0.6341826000716537,h,1,0.25068000005558133,0.04570249980315566,0.046696199802681804,0.09914379986003041,0.09987689997069538,0.7486376999877393
RSVPLG03,md,20260310-101719,1.0.2,20251105-084826,796,Experiment,Both,1,Automatic,main,69,20260310-102537,local,local,750,S,H,A,A,A-S.png,A-H.png,sS,hH,mask-1.png,mask-2.png,h,0,1.3753214001189917,s,0,0.347887699957937,0.04866019985638559,0.04800189984962344,0.09980569989420474,0.10080309980548918,0.7500696000643075
RSVPLG03,md,20260310-101719,1.0.2,20251105-084826,796,Experiment,Both,1,Automatic,main,70,20260310-102543,global,global,750,H,S,E,E,H-E.png,S-E.png,hH,sS,mask-4.png,mask-1.png,h,1,0.5128667999524623,s,1,0.25830490002408624,0.047128599835559726,0.04677250003442168,0.09942690003663301,0.09996909997425973,0.7489889999851584
RSVPLG03,md,20260310-101719,1.0.2,20251105-084826,796,Experiment,Both,1,Automatic,main,71,20260310-102548,global,global,300,H,S,E,A,H-E.png,S-A.png,hH,sS,mask-1.png,mask-3.png,h,1,0.44064190005883574,s,1,0.28584119980223477,0.04740580008365214,0.04750910005532205,0.10019140015356243,0.09934550011530519,0.3004880000371486
RSVPLG03,md,20260310-101719,1.0.2,20251105-084826,796,Experiment,Both,1,Automatic,main,72,20260310-102553,local,local,750,H,S,A,E,A-H.png,E-S.png,hH,sS,mask-4.png,mask-1.png,h,1,0.6290762999560684,s,1,0.23688480001874268,0.04815060016699135,0.04841000004671514,0.10144180012866855,0.10021770000457764,0.7501384001225233
RSVPLG03,md,20260310-101719,1.0.2,20251105-084826,796,Experiment,Both,1,Automatic,main,73,20260310-102558,local,global,750,H,S,E,E,E-H.png,S-E.png,hH,sS,mask-4.png,mask-4.png,h,1,0.8543799999170005,s,1,0.13809449994005263,0.04550660005770624,0.04855749988928437,0.09871389996260405,0.09985170001164079,0.7473969999700785
RSVPLG03,md,20260310-101719,1.0.2,20251105-084826,796,Experiment,Both,1,Automatic,main,74,20260310-102603,global,global,300,S,H,A,A,S-A.png,H-A.png,sS,hH,mask-4.png,mask-1.png,h,0,0.6274764998815954,h,1,1.8878328998107463,0.047827200032770634,0.04739189986139536,0.09918770007789135,0.10086099989712238,0.2994423001073301
RSVPLG03,md,20260310-101719,1.0.2,20251105-084826,796,Experiment,Both,1,Automatic,main,75,20260310-102609,global,global,300,H,S,E,A,H-E.png,S-A.png,hH,sS,mask-3.png,mask-3.png,h,1,0.7576657999306917,s,1,0.14890650007873774,0.04984369990415871,0.049883499974384904,0.10101379989646375,0.09969520010054111,0.2999891999643296
RSVPLG03,md,20260310-101719,1.0.2,20251105-084826,796,Experiment,Both,1,Automatic,main,76,20260310-102629,global,local,300,H,H,A,A,H-A.png,A-H.png,hH,hH,mask-1.png,mask-1.png,h,1,0.548274900065735,s,0,0.2771604999434203,0.04669050010852516,0.0477309999987483,0.09984020004048944,0.09895310015417635,0.29952299990691245
RSVPLG03,md,20260310-101719,1.0.2,20251105-084826,796,Experiment,Both,1,Automatic,main,77,20260310-102634,global,global,750,H,S,A,A,H-A.png,S-A.png,hH,sS,mask-4.png,mask-3.png,h,1,0.8592183000873774,s,1,0.28384819999337196,0.046876100124791265,0.048484599916264415,0.09788570017553866,0.09948559990152717,0.7480644001625478
RSVPLG03,md,20260310-101719,1.0.2,20251105-084826,796,Experiment,Both,1,Automatic,main,78,20260310-102639,global,global,750,H,H,A,E,H-A.png,H-E.png,hH,hH,mask-1.png,mask-4.png,h,1,0.7025025999173522,h,1,0.556061799870804,0.04553569993004203,0.04552859999239445,0.09942330000922084,0.09854459995403886,0.7499750000424683
RSVPLG03,md,20260310-101719,1.0.2,20251105-084826,796,Experiment,Both,1,Automatic,main,79,20260310-102645,local,local,750,S,S,A,E,A-S.png,E-S.png,sS,sS,mask-3.png,mask-1.png,s,1,2.022567099891603,s,1,0.17113139992579818,0.04749259981326759,0.04758600005879998,0.10150159988552332,0.10059909988194704,0.7494981999043375
RSVPLG03,md,20260310-101719,1.0.2,20251105-084826,796,Experiment,Both,1,Automatic,main,80,20260310-102651,local,global,300,S,S,E,E,E-S.png,S-E.png,sS,sS,mask-2.png,mask-4.png,s,1,0.9670765001792461,h,0,0.35288220015354455,0.04749659984372556,0.04748800001107156,0.10049629979766905,0.0993315998930484,0.30008079996332526
RSVPLG03,md,20260310-101719,1.0.2,20251105-084826,796,Experiment,Both,1,Automatic,main,81,20260310-102656,local,local,300,H,H,E,E,E-H.png,E-H.png,hH,hH,mask-3.png,mask-1.png,h,1,0.4489175998605788,h,1,0.34907559980638325,0.04774790001101792,0.04752220003865659,0.09992270008660853,0.10053249984048307,0.2998333000577986
RSVPLG03,md,20260310-101719,1.0.2,20251105-084826,796,Experiment,Both,1,Automatic,main,82,20260310-102701,local,local,300,H,H,A,A,A-H.png,A-H.png,hH,hH,mask-3.png,mask-2.png,h,1,0.8971462000627071,h,1,0.3269809999037534,0.045716899912804365,0.048825599951669574,0.0989152998663485,0.10029029985889792,0.29851410002447665
RSVPLG03,md,20260310-101719,1.0.2,20251105-084826,796,Experiment,Both,1,Automatic,main,83,20260310-102706,global,local,300,H,H,E,A,H-E.png,A-H.png,hH,hH,mask-2.png,mask-1.png,h,1,0.5109884000848979,h,1,0.38402960007078946,0.04731540009379387,0.047423699870705605,0.09871749999001622,0.10081409988924861,0.2990994001738727
RSVPLG03,md,20260310-101719,1.0.2,20251105-084826,796,Experiment,Both,1,Automatic,main,84,20260310-102711,local,local,750,S,H,E,A,E-S.png,A-H.png,sS,hH,mask-3.png,mask-3.png,s,1,1.447878599865362,h,1,0.4113904000259936,0.047731899889186025,0.04772590007632971,0.10010349983349442,0.099958699895069,0.7494840999133885
RSVPLG03,md,20260310-101719,1.0.2,20251105-084826,796,Experiment,Both,1,Automatic,main,85,20260310-102717,global,local,300,S,H,A,E,S-A.png,E-H.png,sS,hH,mask-2.png,mask-4.png,s,1,0.7330602000001818,h,1,0.3734764000400901,0.04767690016888082,0.04765570000745356,0.10191570012830198,0.10185390012338758,0.2998856999911368
RSVPLG03,md,20260310-101719,1.0.2,20251105-084826,796,Experiment,Both,1,Automatic,main,86,20260310-102722,global,global,750,H,H,E,A,H-E.png,H-A.png,hH,hH,mask-4.png,mask-4.png,h,1,0.7273701000958681,h,1,0.46031680004671216,0.04761689994484186,0.046727800043299794,0.10045640007592738,0.0999080000910908,0.7503130999393761
RSVPLG03,md,20260310-101719,1.0.2,20251105-084826,796,Experiment,Both,1,Automatic,main,87,20260310-102727,global,global,750,S,S,E,A,S-E.png,S-A.png,sS,sS,mask-3.png,mask-1.png,s,1,0.40293810004368424,s,1,0.4132608000654727,0.04772939998656511,0.047114300075918436,0.10182660003192723,0.09943710011430085,0.750830499920994
RSVPLG03,md,20260310-101719,1.0.2,20251105-084826,796,Experiment,Both,1,Automatic,main,88,20260310-102732,global,global,300,S,H,E,E,S-E.png,H-E.png,sS,hH,mask-4.png,mask-2.png,s,1,0.5899131998885423,h,1,0.5539232001174241,0.04855239996686578,0.04915199987590313,0.10056650009937584,0.10002360004000366,0.299652700079605
RSVPLG03,md,20260310-101719,1.0.2,20251105-084826,796,Experiment,Both,1,Automatic,main,89,20260310-102737,global,local,750,S,S,E,E,S-E.png,E-S.png,sS,sS,mask-2.png,mask-3.png,s,1,0.4249544001650065,s,1,0.3478872000705451,0.046879000030457973,0.0474974000826478,0.10018419986590743,0.09952000016346574,0.7502279998734593
RSVPLG03,md,20260310-101719,1.0.2,20251105-084826,796,Experiment,Both,1,Automatic,main,90,20260310-102742,global,global,300,S,S,E,A,S-E.png,S-A.png,sS,sS,mask-1.png,mask-3.png,s,1,0.4714216999709606,s,1,0.31622639996930957,0.04655450000427663,0.047598399920389056,0.09959809994325042,0.09862040006555617,0.29933619988150895
RSVPLG03,md,20260310-101719,1.0.2,20251105-084826,796,Experiment,Both,1,Automatic,main,91,20260310-102747,local,global,300,H,S,A,A,A-H.png,S-A.png,hH,sS,mask-2.png,mask-3.png,h,1,0.49746949994005263,s,1,0.2977255000732839,0.04661069996654987,0.04652170022018254,0.09906799998134375,0.09937280020676553,0.29990149987861514
RSVPLG03,md,20260310-101719,1.0.2,20251105-084826,796,Experiment,Both,1,Automatic,main,92,20260310-102751,global,global,750,H,H,E,E,H-E.png,H-E.png,hH,hH,mask-3.png,mask-4.png,h,1,0.7302240000572056,s,0,0.2146532000042498,0.047518600011244416,0.04870690009556711,0.09954839991405606,0.10048500006087124,0.7491941000334918
RSVPLG03,md,20260310-101719,1.0.2,20251105-084826,796,Experiment,Both,1,Automatic,main,93,20260310-102757,local,global,300,S,H,A,A,A-S.png,H-A.png,sS,hH,mask-1.png,mask-2.png,h,0,0.9904165000189096,s,0,0.13855170016177,0.04749689996242523,0.04592359997332096,0.10049129999242723,0.0987839000299573,0.30144020006991923
RSVPLG03,md,20260310-101719,1.0.2,20251105-084826,796,Experiment,Both,1,Automatic,main,94,20260310-102802,local,local,300,H,S,E,A,E-H.png,A-S.png,hH,sS,mask-4.png,mask-4.png,s,0,0.6983370000962168,h,0,0.25282870000228286,0.047825400019064546,0.04773909994401038,0.10013659996911883,0.09999539982527494,0.29998720018193126
RSVPLG03,md,20260310-101719,1.0.2,20251105-084826,796,Experiment,Both,1,Automatic,main,95,20260310-102807,local,local,750,H,S,A,A,A-H.png,A-S.png,hH,sS,mask-3.png,mask-3.png,h,1,0.6970178000628948,s,1,0.20494709978811443,0.046384100103750825,0.04767949995584786,0.09936500014737248,0.09937479998916388,0.7488790000788867
RSVPLG03,md,20260310-101719,1.0.2,20251105-084826,796,Experiment,Both,1,Automatic,main,96,20260310-102812,global,global,300,S,H,E,E,S-E.png,H-E.png,sS,hH,mask-4.png,mask-4.png,s,1,0.8775806000921875,h,1,0.2479296000674367,0.047652099980041385,0.048398900078609586,0.09887450002133846,0.10105800000019372,0.2984285999555141
RSVPLG03,md,20260310-101719,1.0.2,20251105-084826,796,Experiment,Both,1,Automatic,main,97,20260310-102817,local,global,750,S,S,A,A,A-S.png,S-A.png,sS,sS,mask-1.png,mask-4.png,s,1,0.9248891999013722,h,0,0.19188740011304617,0.047502700006589293,0.04751780000515282,0.09870650013908744,0.09952359995804727,0.7495668001938611
RSVPLG03,md,20260310-101719,1.0.2,20251105-084826,796,Experiment,Both,1,Automatic,main,98,20260310-102822,global,local,750,S,S,E,A,S-E.png,A-S.png,sS,sS,mask-1.png,mask-4.png,s,1,1.22197479987517,s,1,0.3319526999257505,0.045494999969378114,0.0465404000133276,0.09953959984704852,0.09960740013048053,0.7489465998951346
RSVPLG03,md,20260310-101719,1.0.2,20251105-084826,796,Experiment,Both,1,Automatic,main,99,20260310-102828,local,global,300,S,S,E,E,E-S.png,S-E.png,sS,sS,mask-4.png,mask-2.png,s,1,0.5761698000133038,h,0,0.17392329988069832,0.04753340012393892,0.04657749994657934,0.09956020000390708,0.10056659998372197,0.29922470008023083
RSVPLG03,md,20260310-101719,1.0.2,20251105-084826,796,Experiment,Both,1,Automatic,main,100,20260310-102832,global,local,750,H,S,A,A,H-A.png,A-S.png,hH,sS,mask-3.png,mask-4.png,h,1,0.6368362999055535,h,0,0.3574426998384297,0.0475021000020206,0.04863950004801154,0.09895189991220832,0.10166450007818639,0.748371799942106
RSVPLG03,md,20260310-102943,1.0.2,20251105-084826,796,Experiment,Both,1,Automatic,warmup,1,20260310-103013,local,local,750,H,S,A,A,A-H.png,A-S.png,hH,sS,mask-4.png,mask-3.png,h,1,0.4724594000726938,s,1,0.1892483001574874,0.040583400055766106,0.04764140001498163,0.09447310003452003,0.09979670005850494,0.743700799997896
RSVPLG03,md,20260310-102943,1.0.2,20251105-084826,796,Experiment,Both,1,Automatic,warmup,2,20260310-103018,global,global,300,H,H,A,A,H-A.png,H-A.png,hH,hH,mask-4.png,mask-3.png,h,1,0.4993505000602454,h,1,0.24703249987214804,0.047662199940532446,0.045668400125578046,0.10184809984639287,0.09899610001593828,0.30173929990269244
RSVPLG03,md,20260310-102943,1.0.2,20251105-084826,796,Experiment,Both,1,Automatic,warmup,3,20260310-103022,local,global,300,S,H,A,A,A-S.png,H-A.png,sS,hH,mask-4.png,mask-2.png,s,1,0.8055815999396145,h,1,0.1812905000988394,0.04742589988745749,0.04822200001217425,0.10028779995627701,0.10146729997359216,0.2988668999169022
RSVPLG03,md,20260310-102943,1.0.2,20251105-084826,796,Experiment,Both,1,Automatic,warmup,4,20260310-103027,global,local,750,H,H,E,A,H-E.png,A-H.png,hH,hH,mask-3.png,mask-2.png,h,1,0.6848542001098394,h,1,0.5675608001183718,0.0465444999281317,0.046711600152775645,0.09951269999146461,0.09955810010433197,0.7496960998978466
RSVPLG03,md,20260310-102943,1.0.2,20251105-084826,796,Experiment,Both,1,Automatic,main,5,20260310-103033,global,global,300,S,S,A,E,S-A.png,S-E.png,sS,sS,mask-3.png,mask-1.png,s,1,0.5228796000592411,s,1,0.3103999001905322,0.04767929995432496,0.04669160000048578,0.10146469995379448,0.0987556001637131,0.30106939980760217
RSVPLG03,md,20260310-102943,1.0.2,20251105-084826,796,Experiment,Both,1,Automatic,main,6,20260310-103037,local,local,750,S,H,E,A,E-S.png,A-H.png,sS,hH,mask-2.png,mask-3.png,s,1,0.455815700115636,h,1,0.3948689999524504,0.04665900021791458,0.047668399987742305,0.09982830006629229,0.09987049992196262,0.7491225001867861
RSVPLG03,md,20260310-102943,1.0.2,20251105-084826,796,Experiment,Both,1,Automatic,main,7,20260310-103042,global,global,300,H,S,A,A,H-A.png,S-A.png,hH,sS,mask-2.png,mask-4.png,h,1,0.6136699998751283,h,0,0.5872966998722404,0.04871089989319444,0.04716019984334707,0.10056519997306168,0.10026149987243116,0.30125240003690124
RSVPLG03,md,20260310-102943,1.0.2,20251105-084826,796,Experiment,Both,1,Automatic,main,8,20260310-103047,local,local,750,S,S,A,A,A-S.png,A-S.png,sS,sS,mask-4.png,mask-3.png,s,1,0.8538843002170324,s,1,0.3748985999263823,0.04727400001138449,0.04674169979989529,0.10044179996475577,0.10078829992562532,0.7496384000405669
RSVPLG03,md,20260310-102943,1.0.2,20251105-084826,796,Experiment,Both,1,Automatic,main,9,20260310-103053,global,local,750,H,H,E,E,H-E.png,E-H.png,hH,hH,mask-2.png,mask-1.png,h,1,1.0155048999004066,s,0,0.5179518999066204,0.04572479985654354,0.04807180003263056,0.09892209991812706,0.10115959984250367,0.7475399000104517
RSVPLG03,md,20260310-102943,1.0.2,20251105-084826,796,Experiment,Both,1,Automatic,main,10,20260310-103059,local,local,750,S,H,E,A,E-S.png,A-H.png,sS,hH,mask-4.png,mask-3.png,s,1,1.3676867000758648,h,1,0.20146050001494586,0.04676000005565584,0.04769930010661483,0.09992199996486306,0.09928039996884763,0.7494818998966366
RSVPLG03,md,20260310-102943,1.0.2,20251105-084826,796,Experiment,Both,1,Automatic,main,11,20260310-103104,local,local,750,S,H,A,A,A-S.png,A-H.png,sS,hH,mask-4.png,mask-3.png,s,1,0.8534079000819474,h,1,0.23264999990351498,0.04861699999310076,0.048609300050884485,0.09921319992281497,0.10082890000194311,0.749258799944073
RSVPLG03,md,20260310-102943,1.0.2,20251105-084826,796,Experiment,Both,1,Automatic,main,12,20260310-103110,global,local,300,H,S,E,A,H-E.png,A-S.png,hH,sS,mask-1.png,mask-1.png,h,1,0.47440580022521317,h,0,0.26197850005701184,0.04774500010535121,0.04739469988271594,0.09887170000001788,0.10034119989722967,0.29819980007596314
RSVPLG03,md,20260310-102943,1.0.2,20251105-084826,796,Experiment,Both,1,Automatic,main,13,20260310-103114,local,global,300,H,S,E,E,E-H.png,S-E.png,hH,sS,mask-3.png,mask-2.png,h,1,0.9157726000994444,s,1,0.11329080001451075,0.04659350006841123,0.047502199886366725,0.10061369999311864,0.1004145999904722,0.2988199000246823
RSVPLG03,md,20260310-102943,1.0.2,20251105-084826,796,Experiment,Both,1,Automatic,main,14,20260310-103119,local,global,750,H,S,A,E,A-H.png,S-E.png,hH,sS,mask-4.png,mask-3.png,h,1,1.015673000132665,s,1,0.05593200004659593,0.04774870001710951,0.04749160003848374,0.10122309997677803,0.10048600006848574,0.750852599972859
RSVPLG03,md,20260310-102943,1.0.2,20251105-084826,796,Experiment,Both,1,Automatic,main,15,20260310-103124,local,global,300,S,S,A,E,A-S.png,S-E.png,sS,sS,mask-1.png,mask-4.png,h,0,0.712191800121218,s,1,0.12699329992756248,0.04767700005322695,0.04707810003310442,0.1010404999833554,0.09975269995629787,0.30111239990219474
RSVPLG03,md,20260310-102943,1.0.2,20251105-084826,796,Experiment,Both,1,Automatic,main,16,20260310-103129,global,local,300,H,S,E,A,H-E.png,A-S.png,hH,sS,mask-4.png,mask-2.png,h,1,0.5972484999801964,h,0,0.18578710011206567,0.04749450017698109,0.04749609995633364,0.1016159001737833,0.09997169999405742,0.29984570015221834
RSVPLG03,md,20260310-102943,1.0.2,20251105-084826,796,Experiment,Both,1,Automatic,main,17,20260310-103134,local,global,750,S,S,E,A,E-S.png,S-A.png,sS,sS,mask-1.png,mask-2.png,s,1,0.7424414998386055,h,0,0.7273347000591457,0.04768699989654124,0.046683300053700805,0.10187870007939637,0.09988550003618002,0.7515000998973846
RSVPLG03,md,20260310-102943,1.0.2,20251105-084826,796,Experiment,Both,1,Automatic,main,18,20260310-103140,global,global,300,H,H,E,A,H-E.png,H-A.png,hH,hH,mask-4.png,mask-3.png,h,1,1.302075499901548,h,1,0.336270899977535,0.04828079999424517,0.045931699918583035,0.10083879996091127,0.10001689987257123,0.30104689998552203
RSVPLG03,md,20260310-102943,1.0.2,20251105-084826,796,Experiment,Both,1,Automatic,main,19,20260310-103145,local,global,300,H,H,A,A,A-H.png,H-A.png,hH,hH,mask-3.png,mask-1.png,h,1,1.094536199932918,s,0,0.15910360007546842,0.04746800009161234,0.047556100180372596,0.09942939993925393,0.09933959995396435,0.2995102999266237
RSVPLG03,md,20260310-102943,1.0.2,20251105-084826,796,Experiment,Both,1,Automatic,main,20,20260310-103150,local,global,750,S,S,E,E,E-S.png,S-E.png,sS,sS,mask-1.png,mask-3.png,s,1,1.1357350999023765,s,1,0.3552105000708252,0.04583019996061921,0.048332100035622716,0.0986347000580281,0.09933659993112087,0.749056699918583
RSVPLG03,md,20260310-102943,1.0.2,20251105-084826,796,Experiment,Both,1,Automatic,main,21,20260310-103156,global,local,750,H,S,A,A,H-A.png,A-S.png,hH,sS,mask-4.png,mask-4.png,h,1,0.7469603000208735,h,0,0.39678249997086823,0.04861449985764921,0.047482999972999096,0.10161820007488132,0.10045400005765259,0.7495015999302268
RSVPLG03,md,20260310-102943,1.0.2,20251105-084826,796,Experiment,Both,1,Automatic,main,22,20260310-103201,global,global,750,H,S,E,A,H-E.png,S-A.png,hH,sS,mask-2.png,mask-3.png,h,1,0.7974020999390632,s,1,0.30768220010213554,0.04748339997604489,0.048796100076287985,0.10148479999043047,0.1008343999274075,0.7495776999276131
RSVPLG03,md,20260310-102943,1.0.2,20251105-084826,796,Experiment,Both,1,Automatic,main,23,20260310-103206,global,global,750,H,S,E,A,H-E.png,S-A.png,hH,sS,mask-2.png,mask-4.png,h,1,0.6793920998461545,s,1,0.22529800003394485,0.04670220008119941,0.04649229999631643,0.09832740016281605,0.09964300016872585,0.7496329999994487
RSVPLG03,md,20260310-102943,1.0.2,20251105-084826,796,Experiment,Both,1,Automatic,main,24,20260310-103212,global,local,750,H,H,E,E,H-E.png,E-H.png,hH,hH,mask-2.png,mask-3.png,h,1,0.6432470998261124,s,0,0.23734829993918538,0.04650920000858605,0.04655059985816479,0.0987021999899298,0.09853790001943707,0.7490922999568284
RSVPLG03,md,20260310-102943,1.0.2,20251105-084826,796,Experiment,Both,1,Automatic,main,25,20260310-103217,global,local,750,S,H,E,A,S-E.png,A-H.png,sS,hH,mask-1.png,mask-3.png,s,1,0.47280810005031526,s,0,0.2988136999774724,0.04732079990208149,0.047633999958634377,0.0989514000248164,0.10143540007993579,0.7486443999223411
RSVPLG03,md,20260310-102943,1.0.2,20251105-084826,796,Experiment,Both,1,Automatic,main,26,20260310-103249,global,local,750,H,H,E,A,H-E.png,A-H.png,hH,hH,mask-4.png,mask-2.png,h,1,0.38924709986895323,h,1,0.31505620013922453,0.0475208000279963,0.04631250002421439,0.09851190005429089,0.09925469988957047,0.7499639000743628
RSVPLG03,md,20260310-102943,1.0.2,20251105-084826,796,Experiment,Both,1,Automatic,main,27,20260310-103254,global,local,300,S,H,E,E,S-E.png,E-H.png,sS,hH,mask-3.png,mask-2.png,s,1,0.4717182000167668,h,1,0.4060710999183357,0.04691060003824532,0.047664100071415305,0.10014920006506145,0.10082009993493557,0.29976300010457635
RSVPLG03,md,20260310-102943,1.0.2,20251105-084826,796,Experiment,Both,1,Automatic,main,28,20260310-103258,global,local,750,S,S,E,A,S-E.png,A-S.png,sS,sS,mask-4.png,mask-1.png,s,1,0.4815897000953555,s,1,0.26298090000636876,0.04779959982261062,0.04766769986599684,0.10049719992093742,0.0998352998867631,0.7508580000139773
RSVPLG03,md,20260310-102943,1.0.2,20251105-084826,796,Experiment,Both,1,Automatic,main,29,20260310-103303,global,global,750,H,S,A,E,H-A.png,S-E.png,hH,sS,mask-1.png,mask-3.png,h,1,1.4219750000629574,s,1,0.6361246998421848,0.04748890013433993,0.048385600093752146,0.10045900009572506,0.1002422000747174,0.7491673999466002
RSVPLG03,md,20260310-102943,1.0.2,20251105-084826,796,Experiment,Both,1,Automatic,main,30,20260310-103310,global,local,750,H,S,E,E,H-E.png,E-S.png,hH,sS,mask-3.png,mask-1.png,h,1,0.5913692999165505,s,1,0.19371160003356636,0.04754339996725321,0.04736170009709895,0.09957599989138544,0.09969770000316203,0.7490592999383807
RSVPLG03,md,20260310-102943,1.0.2,20251105-084826,796,Experiment,Both,1,Automatic,main,31,20260310-103315,global,global,750,S,H,A,A,S-A.png,H-A.png,sS,hH,mask-2.png,mask-2.png,s,1,0.6637766999192536,h,1,0.25698710000142455,0.04749190015718341,0.0464973000343889,0.09948790003545582,0.09883229993283749,0.7503238001372665
RSVPLG03,md,20260310-102943,1.0.2,20251105-084826,796,Experiment,Both,1,Automatic,main,32,20260310-103320,local,local,750,H,H,E,A,E-H.png,A-H.png,hH,hH,mask-1.png,mask-2.png,s,0,0.6244685999117792,s,0,0.2465065000578761,0.04756249999627471,0.0475169001147151,0.1005548001267016,0.09946180018596351,0.7501632999628782
RSVPLG03,md,20260310-102943,1.0.2,20251105-084826,796,Experiment,Both,1,Automatic,main,33,20260310-103325,global,local,300,S,H,A,E,S-A.png,E-H.png,sS,hH,mask-1.png,mask-4.png,s,1,0.5906629001256078,s,0,0.1857445000205189,0.04815110005438328,0.048077299958094954,0.09887650003656745,0.09889240004122257,0.3002749001607299
RSVPLG03,md,20260310-102943,1.0.2,20251105-084826,796,Experiment,Both,1,Automatic,main,34,20260310-103330,local,global,300,S,S,E,A,E-S.png,S-A.png,sS,sS,mask-2.png,mask-3.png,s,1,0.841765700140968,h,0,0.3126666001044214,0.04763990011997521,0.04767920006997883,0.1007841001264751,0.09968630014918745,0.3003271999768913
RSVPLG03,md,20260310-102943,1.0.2,20251105-084826,796,Experiment,Both,1,Automatic,main,35,20260310-103335,global,global,750,S,H,A,A,S-A.png,H-A.png,sS,hH,mask-1.png,mask-1.png,s,1,0.6939645998645574,h,1,0.6132525000721216,0.048487599939107895,0.047800099942833185,0.10149709996767342,0.10098230000585318,0.749252500012517
RSVPLG03,md,20260310-102943,1.0.2,20251105-084826,796,Experiment,Both,1,Automatic,main,36,20260310-103340,global,global,300,S,S,E,A,S-E.png,S-A.png,sS,sS,mask-1.png,mask-3.png,s,1,0.4035756001248956,s,1,0.43793549994006753,0.04669449990615249,0.046709700021892786,0.09888199996203184,0.09925620001740754,0.29934959998354316
RSVPLG03,md,20260310-102943,1.0.2,20251105-084826,796,Experiment,Both,1,Automatic,main,37,20260310-103345,local,global,750,H,H,E,A,E-H.png,H-A.png,hH,hH,mask-4.png,mask-3.png,s,0,0.6976525001227856,h,1,0.15580889978446066,0.04650130006484687,0.04765929980203509,0.09966160007752478,0.09900499996729195,0.7494789001066238
RSVPLG03,md,20260310-102943,1.0.2,20251105-084826,796,Experiment,Both,1,Automatic,main,38,20260310-103350,global,global,750,H,S,A,A,H-A.png,S-A.png,hH,sS,mask-2.png,mask-1.png,h,1,0.7292650998570025,s,1,0.283571699867025,0.046137799974530935,0.046730499947443604,0.0991128000896424,0.10026389989070594,0.750018100021407
RSVPLG03,md,20260310-102943,1.0.2,20251105-084826,796,Experiment,Both,1,Automatic,main,39,20260310-103355,local,local,300,S,S,A,E,A-S.png,E-S.png,sS,sS,mask-3.png,mask-3.png,s,1,0.46940180007368326,s,1,0.37544240010902286,0.04665649984963238,0.04766910010948777,0.09886839985847473,0.09912510006688535,0.2984662998933345
RSVPLG03,md,20260310-102943,1.0.2,20251105-084826,796,Experiment,Both,1,Automatic,main,40,20260310-103400,global,global,750,S,H,E,E,S-E.png,H-E.png,sS,hH,mask-2.png,mask-3.png,s,1,0.46612769993953407,h,1,0.423509799875319,0.04653279995545745,0.047685000114142895,0.09983589989133179,0.1019737001042813,0.7483939998783171
RSVPLG03,md,20260310-102943,1.0.2,20251105-084826,796,Experiment,Both,1,Automatic,main,41,20260310-103405,global,local,750,H,H,A,A,H-A.png,A-H.png,hH,hH,mask-3.png,mask-1.png,h,1,0.5171992001123726,h,1,0.4398325998336077,0.04669540002942085,0.04764869995415211,0.09836100018583238,0.1009156999643892,0.7491125001106411
RSVPLG03,md,20260310-102943,1.0.2,20251105-084826,796,Experiment,Both,1,Automatic,main,42,20260310-103410,local,global,300,S,H,A,E,A-S.png,H-E.png,sS,hH,mask-3.png,mask-1.png,s,1,0.6543415000196546,s,0,0.31091620004735887,0.04767980007454753,0.0459521000739187,0.09990509995259345,0.10044079995714128,0.2999919999856502
RSVPLG03,md,20260310-102943,1.0.2,20251105-084826,796,Experiment,Both,1,Automatic,main,43,20260310-103415,local,local,750,H,H,E,E,E-H.png,E-H.png,hH,hH,mask-1.png,mask-2.png,h,1,0.592533899936825,h,1,0.23165099998004735,0.047775400104001164,0.0461623000446707,0.09984700009226799,0.0998058000113815,0.7505427999421954
RSVPLG03,md,20260310-102943,1.0.2,20251105-084826,796,Experiment,Both,1,Automatic,main,44,20260310-103420,local,global,750,S,S,A,A,A-S.png,S-A.png,sS,sS,mask-3.png,mask-2.png,s,1,1.3206132999621332,h,0,0.07451949990354478,0.0466068999376148,0.04750439990311861,0.10061859991401434,0.10056940000504255,0.7491399999707937
RSVPLG03,md,20260310-102943,1.0.2,20251105-084826,796,Experiment,Both,1,Automatic,main,45,20260310-103426,local,global,300,H,H,E,A,E-H.png,H-A.png,hH,hH,mask-2.png,mask-1.png,h,1,2.379931400064379,s,0,0.16553599992766976,0.047498099971562624,0.047502199886366725,0.09957009996287525,0.09880329994484782,0.29978789994493127
RSVPLG03,md,20260310-102943,1.0.2,20251105-084826,796,Experiment,Both,1,Automatic,main,46,20260310-103432,local,local,750,S,S,E,E,E-S.png,E-S.png,sS,sS,mask-1.png,mask-2.png,s,1,0.4614178999327123,s,1,0.24134350009262562,0.04650010005570948,0.046153799863532186,0.09851370006799698,0.09885949990712106,0.7493383002001792
RSVPLG03,md,20260310-102943,1.0.2,20251105-084826,796,Experiment,Both,1,Automatic,main,47,20260310-103437,local,local,300,S,S,A,A,A-S.png,A-S.png,sS,sS,mask-2.png,mask-1.png,s,1,0.7056721998378634,h,0,0.45101850014179945,0.048596999840810895,0.047980699921026826,0.09960489999502897,0.10119089996442199,0.29957769997417927
RSVPLG03,md,20260310-102943,1.0.2,20251105-084826,796,Experiment,Both,1,Automatic,main,48,20260310-103442,local,global,750,H,S,A,A,A-H.png,S-A.png,hH,sS,mask-3.png,mask-4.png,s,0,0.5396294998936355,h,0,0.7705113000702113,0.049244599882513285,0.04749389993958175,0.10145729989744723,0.1004536000546068,0.7492537999060005
RSVPLG03,md,20260310-102943,1.0.2,20251105-084826,796,Experiment,Both,1,Automatic,main,49,20260310-103448,local,global,750,H,S,E,A,E-H.png,S-A.png,hH,sS,mask-4.png,mask-4.png,h,1,1.2689796001650393,h,0,0.1827533000614494,0.04734459985047579,0.04749950021505356,0.09868120006285608,0.09952120017260313,0.7505005998536944
RSVPLG03,md,20260310-102943,1.0.2,20251105-084826,796,Experiment,Both,1,Automatic,main,50,20260310-103453,global,local,300,S,S,E,E,S-E.png,E-S.png,sS,sS,mask-3.png,mask-3.png,s,1,0.5755470998119563,s,1,0.31713149999268353,0.04750139988027513,0.047497000079602,0.09880639985203743,0.10088340006768703,0.2980781998485327
RSVPLG03,md,20260310-102943,1.0.2,20251105-084826,796,Experiment,Both,1,Automatic,main,51,20260310-103538,global,global,300,S,S,E,E,S-E.png,S-E.png,sS,sS,mask-3.png,mask-1.png,s,1,0.4199546999298036,s,1,0.2600839000660926,0.04826049995608628,0.04667990002781153,0.10054000001400709,0.09988319990225136,0.30057900003157556
RSVPLG03,md,20260310-102943,1.0.2,20251105-084826,796,Experiment,Both,1,Automatic,main,52,20260310-103543,local,local,300,S,S,E,A,E-S.png,A-S.png,sS,sS,mask-1.png,mask-2.png,s,1,0.8804434000048786,h,0,0.30046329996548593,0.046502399956807494,0.04771830001845956,0.0985534000210464,0.0997492999304086,0.2992002998944372
RSVPLG03,md,20260310-102943,1.0.2,20251105-084826,796,Experiment,Both,1,Automatic,main,53,20260310-103548,global,global,300,S,H,A,E,S-A.png,H-E.png,sS,hH,mask-3.png,mask-1.png,s,1,0.5659705998841673,h,1,0.30636769998818636,0.046785200014710426,0.04747690004296601,0.0991609999909997,0.10051380004733801,0.29960589995607734
RSVPLG03,md,20260310-102943,1.0.2,20251105-084826,796,Experiment,Both,1,Automatic,main,54,20260310-103552,global,local,300,H,H,E,E,H-E.png,E-H.png,hH,hH,mask-4.png,mask-3.png,h,1,0.5280590001493692,h,1,0.24871030007489026,0.04861109983175993,0.04721539979800582,0.10166419995948672,0.10021810000762343,0.3014513000380248
RSVPLG03,md,20260310-102943,1.0.2,20251105-084826,796,Experiment,Both,1,Automatic,main,55,20260310-103557,local,local,750,S,H,A,E,A-S.png,E-H.png,sS,hH,mask-2.png,mask-3.png,s,1,0.5574703000020236,s,0,0.08486790000461042,0.04598289984278381,0.048158599995076656,0.09764539985917509,0.1003989998716861,0.7479516000021249
RSVPLG03,md,20260310-102943,1.0.2,20251105-084826,796,Experiment,Both,1,Automatic,main,56,20260310-103602,local,local,750,S,S,E,A,E-S.png,A-S.png,sS,sS,mask-4.png,mask-4.png,s,1,0.48724679998122156,s,1,0.24530860013328493,0.04682340007275343,0.04668679996393621,0.09996240003965795,0.09989350009709597,0.7504803000483662
RSVPLG03,md,20260310-102943,1.0.2,20251105-084826,796,Experiment,Both,1,Automatic,main,57,20260310-103607,global,local,750,S,S,E,E,S-E.png,E-S.png,sS,sS,mask-1.png,mask-1.png,s,1,0.41485109995119274,s,1,0.3822118998505175,0.047689400147646666,0.04828369989991188,0.10108230006881058,0.101332199992612,0.7492576001677662
RSVPLG03,md,20260310-102943,1.0.2,20251105-084826,796,Experiment,Both,1,Automatic,main,58,20260310-103612,global,local,300,S,H,A,A,S-A.png,A-H.png,sS,hH,mask-4.png,mask-2.png,s,1,0.6448031000327319,s,0,0.3161638998426497,0.04865780007094145,0.048591600032523274,0.10082029993645847,0.10068849986419082,0.2996960000600666
RSVPLG03,md,20260310-102943,1.0.2,20251105-084826,796,Experiment,Both,1,Automatic,main,59,20260310-103617,local,global,750,H,S,E,A,E-H.png,S-A.png,hH,sS,mask-1.png,mask-1.png,h,1,0.770607199985534,h,0,0.3769894000142813,0.047577999997884035,0.04749170015566051,0.1000875998288393,0.099444700172171,0.7482331998180598
RSVPLG03,md,20260310-102943,1.0.2,20251105-084826,796,Experiment,Both,1,Automatic,main,60,20260310-103622,local,global,750,S,H,A,E,A-S.png,H-E.png,sS,hH,mask-1.png,mask-1.png,s,1,1.8258778001181781,h,1,0.4405203000642359,0.04749309993349016,0.04672470013611019,0.10049539990723133,0.09914860012941062,0.7496121998410672
RSVPLG03,md,20260310-102943,1.0.2,20251105-084826,796,Experiment,Both,1,Automatic,main,61,20260310-103628,global,global,750,S,H,A,E,S-A.png,H-E.png,sS,hH,mask-4.png,mask-4.png,s,1,0.596734199905768,h,1,0.10208129999227822,0.04738130001351237,0.04748970014043152,0.1002182001248002,0.09968400001525879,0.7494536000303924
RSVPLG03,md,20260310-102943,1.0.2,20251105-084826,796,Experiment,Both,1,Automatic,main,62,20260310-103633,local,global,300,H,H,A,A,A-H.png,H-A.png,hH,hH,mask-3.png,mask-3.png,h,1,0.9775266000069678,s,0,0.17604249995201826,0.04691180004738271,0.04752409993670881,0.10003189998678863,0.09878710005432367,0.30039680004119873
RSVPLG03,md,20260310-102943,1.0.2,20251105-084826,796,Experiment,Both,1,Automatic,main,63,20260310-103638,local,global,300,S,S,A,E,A-S.png,S-E.png,sS,sS,mask-1.png,mask-2.png,s,1,0.9829910998232663,h,0,0.059894700068980455,0.04852450010366738,0.0467697000131011,0.10052300011739135,0.09981800010427833,0.2997304000891745
RSVPLG03,md,20260310-102943,1.0.2,20251105-084826,796,Experiment,Both,1,Automatic,main,64,20260310-103643,global,global,750,S,H,A,A,S-A.png,H-A.png,sS,hH,mask-3.png,mask-2.png,s,1,0.7531432998366654,h,1,0.2253769999369979,0.04784110002219677,0.04774129996076226,0.1011413000524044,0.09879840002395213,0.7504938999190927
RSVPLG03,md,20260310-102943,1.0.2,20251105-084826,796,Experiment,Both,1,Automatic,main,65,20260310-103648,local,local,300,H,H,E,E,E-H.png,E-H.png,hH,hH,mask-3.png,mask-3.png,h,1,1.008630899945274,h,1,0.5698368998710066,0.047670300118625164,0.04665120015852153,0.09984440007247031,0.0998403001576662,0.30039889994077384
RSVPLG03,md,20260310-102943,1.0.2,20251105-084826,796,Experiment,Both,1,Automatic,main,66,20260310-103654,global,local,750,H,S,A,E,H-A.png,E-S.png,hH,sS,mask-2.png,mask-4.png,h,1,1.0498473001644015,s,1,0.2903787998948246,0.04770039999857545,0.04808390000835061,0.100188999902457,0.1003709000069648,0.7484805998392403
RSVPLG03,md,20260310-102943,1.0.2,20251105-084826,796,Experiment,Both,1,Automatic,main,67,20260310-103659,global,global,750,S,H,E,E,S-E.png,H-E.png,sS,hH,mask-1.png,mask-1.png,s,1,0.6609044999349862,h,1,0.3488684000913054,0.047466399846598506,0.047481599962338805,0.10050169983878732,0.10050699999555945,0.7499098000116646
RSVPLG03,md,20260310-102943,1.0.2,20251105-084826,796,Experiment,Both,1,Automatic,main,68,20260310-103704,local,local,750,H,H,A,E,A-H.png,E-H.png,hH,hH,mask-4.png,mask-4.png,h,1,1.5319684001151472,s,0,0.10850120009854436,0.04722449998371303,0.046894000144675374,0.10023670014925301,0.09991089999675751,0.7504386999644339
RSVPLG03,md,20260310-102943,1.0.2,20251105-084826,796,Experiment,Both,1,Automatic,main,69,20260310-103710,local,local,300,S,H,A,E,A-S.png,E-H.png,sS,hH,mask-1.png,mask-3.png,s,1,1.296512900153175,h,1,0.05867920001037419,0.04774800012819469,0.046712700044736266,0.098954499932006,0.10012389998883009,0.2997385000344366
RSVPLG03,md,20260310-102943,1.0.2,20251105-084826,796,Experiment,Both,1,Automatic,main,70,20260310-103716,global,global,750,S,S,A,A,S-A.png,S-A.png,sS,sS,mask-1.png,mask-3.png,s,1,0.9026902001351118,s,1,0.3799306000582874,0.04877210012637079,0.04770680004730821,0.10099639999680221,0.09989419998601079,0.7512761000543833
RSVPLG03,md,20260310-102943,1.0.2,20251105-084826,796,Experiment,Both,1,Automatic,main,71,20260310-103721,global,global,300,S,H,A,A,S-A.png,H-A.png,sS,hH,mask-1.png,mask-2.png,s,1,0.776587599888444,h,1,0.06829459988512099,0.047648000065237284,0.047613800037652254,0.0988255999982357,0.10144190001301467,0.2984485998749733
RSVPLG03,md,20260310-102943,1.0.2,20251105-084826,796,Experiment,Both,1,Automatic,main,72,20260310-103726,global,local,300,S,H,E,E,S-E.png,E-H.png,sS,hH,mask-4.png,mask-2.png,s,1,0.6000384998042136,s,0,0.367750900099054,0.047683600103482604,0.04784110002219677,0.10086750006303191,0.10002839984372258,0.2997680001426488
RSVPLG03,md,20260310-102943,1.0.2,20251105-084826,796,Experiment,Both,1,Automatic,main,73,20260310-103731,local,local,300,S,H,A,E,A-S.png,E-H.png,sS,hH,mask-3.png,mask-1.png,s,1,3.575494999997318,h,1,0.09097699983976781,0.04784399992786348,0.04666300001554191,0.0999982999637723,0.09893399989232421,0.3010360999032855
RSVPLG03,md,20260310-102943,1.0.2,20251105-084826,796,Experiment,Both,1,Automatic,main,74,20260310-103738,global,local,750,H,S,E,E,H-E.png,E-S.png,hH,sS,mask-2.png,mask-1.png,h,1,0.5708043000195175,h,0,0.5834411000832915,0.04760570009239018,0.04693110007792711,0.1002424000762403,0.09913550014607608,0.750198399880901
RSVPLG03,md,20260310-102943,1.0.2,20251105-084826,796,Experiment,Both,1,Automatic,main,75,20260310-103743,local,local,750,S,H,E,E,E-S.png,E-H.png,sS,hH,mask-2.png,mask-3.png,s,1,0.7442224998958409,h,1,0.2471252998802811,0.048410800052806735,0.047033100156113505,0.10166599997319281,0.10011140001006424,0.7506754999049008
RSVPLG03,md,20260310-102943,1.0.2,20251105-084826,796,Experiment,Both,1,Automatic,main,76,20260310-103819,global,global,300,S,S,E,E,S-E.png,S-E.png,sS,sS,mask-2.png,mask-1.png,s,1,0.4551898001227528,h,0,0.21325089992024004,0.04646209999918938,0.047358900075778365,0.0993870000820607,0.09918990009464324,0.29932520003058016
RSVPLG03,md,20260310-102943,1.0.2,20251105-084826,796,Experiment,Both,1,Automatic,main,77,20260310-103824,local,local,300,H,H,E,E,E-H.png,E-H.png,hH,hH,mask-1.png,mask-2.png,h,1,0.712093299953267,h,1,0.20118409977294505,0.04748069983907044,0.04810020001605153,0.10018670000135899,0.10010750009678304,0.299495899816975
RSVPLG03,md,20260310-102943,1.0.2,20251105-084826,796,Experiment,Both,1,Automatic,main,78,20260310-103828,local,global,750,H,S,A,A,A-H.png,S-A.png,hH,sS,mask-4.png,mask-4.png,h,1,2.980088399956003,s,1,0.24372999998740852,0.04751370009034872,0.04753399989567697,0.09952570009045303,0.09948689979501069,0.7495896001346409
RSVPLG03,md,20260310-102943,1.0.2,20251105-084826,796,Experiment,Both,1,Automatic,main,79,20260310-103836,local,local,300,S,H,A,A,A-S.png,A-H.png,sS,hH,mask-4.png,mask-1.png,s,1,0.7304424000903964,h,1,0.24214840005151927,0.04856209992431104,0.047484599985182285,0.10155180003494024,0.1014763000421226,0.2997673999052495
RSVPLG03,md,20260310-102943,1.0.2,20251105-084826,796,Experiment,Both,1,Automatic,main,80,20260310-103841,global,local,300,S,S,A,A,S-A.png,A-S.png,sS,sS,mask-4.png,mask-1.png,s,1,0.7210210999473929,h,0,0.46981950011104345,0.048573199892416596,0.04754009982571006,0.09955059993080795,0.1008768999017775,0.2990584000945091
RSVPLG03,md,20260310-102943,1.0.2,20251105-084826,796,Experiment,Both,1,Automatic,main,81,20260310-103846,global,global,300,S,S,E,A,S-E.png,S-A.png,sS,sS,mask-2.png,mask-3.png,s,1,0.3993162999395281,s,1,0.2500866998452693,0.044657699996605515,0.04868270014412701,0.09851629985496402,0.10089630004949868,0.2979336997959763
RSVPLG03,md,20260310-102943,1.0.2,20251105-084826,796,Experiment,Both,1,Automatic,main,82,20260310-103850,local,local,300,S,H,E,A,E-S.png,A-H.png,sS,hH,mask-2.png,mask-4.png,s,1,0.7461486998945475,h,1,0.2987756999209523,0.04712669993750751,0.047786900075152516,0.09956740005873144,0.09921280015259981,0.2995173998642713
RSVPLG03,md,20260310-102943,1.0.2,20251105-084826,796,Experiment,Both,1,Automatic,main,83,20260310-103855,local,global,300,H,S,E,A,E-H.png,S-A.png,hH,sS,mask-1.png,mask-4.png,h,1,0.705682500032708,s,1,0.12219049991108477,0.04864290007390082,0.047670100117102265,0.1000373000279069,0.09985810006037354,0.3001755999866873
RSVPLG03,md,20260310-102943,1.0.2,20251105-084826,796,Experiment,Both,1,Automatic,main,84,20260310-103900,global,global,750,S,S,A,E,S-A.png,S-E.png,sS,sS,mask-3.png,mask-3.png,s,1,0.6495962000917643,s,1,0.44262040010653436,0.04870749986730516,0.04592749988660216,0.102065599989146,0.09914770000614226,0.7509329998865724
RSVPLG03,md,20260310-102943,1.0.2,20251105-084826,796,Experiment,Both,1,Automatic,main,85,20260310-103905,global,global,300,S,S,E,A,S-E.png,S-A.png,sS,sS,mask-3.png,mask-1.png,s,1,0.45793260005302727,s,1,0.3886424000374973,0.04638670012354851,0.04710890003480017,0.09988780017010868,0.09938400005921721,0.300608100136742
RSVPLG03,md,20260310-102943,1.0.2,20251105-084826,796,Experiment,Both,1,Automatic,main,86,20260310-103910,local,global,300,H,H,E,E,E-H.png,H-E.png,hH,hH,mask-4.png,mask-4.png,h,1,1.653250099858269,h,1,0.42610340006649494,0.04728680010885,0.04755860008299351,0.09897520020604134,0.10054900008253753,0.2997316000983119
RSVPLG03,md,20260310-102943,1.0.2,20251105-084826,796,Experiment,Both,1,Automatic,main,87,20260310-103916,local,global,750,S,S,E,E,E-S.png,S-E.png,sS,sS,mask-1.png,mask-2.png,s,1,0.46127620013430715,s,1,0.27007480012252927,0.047293599927797914,0.047723300056532025,0.10038840002380311,0.09965400001965463,0.7489569999743253
RSVPLG03,md,20260310-102943,1.0.2,20251105-084826,796,Experiment,Both,1,Automatic,main,88,20260310-103920,local,local,750,S,H,A,A,A-S.png,A-H.png,sS,hH,mask-4.png,mask-2.png,s,1,0.7021536000538617,h,1,0.28059330000542104,0.04737869999371469,0.04748530010692775,0.09836179995909333,0.09886620007455349,0.7497574998997152
RSVPLG03,md,20260310-102943,1.0.2,20251105-084826,796,Experiment,Both,1,Automatic,main,89,20260310-103926,local,local,300,S,S,A,E,A-S.png,E-S.png,sS,sS,mask-4.png,mask-2.png,s,1,0.5961831999011338,s,1,0.49667539983056486,0.047512900084257126,0.04750620014965534,0.10073010018095374,0.10148970014415681,0.3000248000025749
RSVPLG03,md,20260310-102943,1.0.2,20251105-084826,796,Experiment,Both,1,Automatic,main,90,20260310-103931,global,local,300,H,H,A,A,H-A.png,A-H.png,hH,hH,mask-1.png,mask-2.png,h,1,0.6558541001286358,h,1,0.47603409993462265,0.04665849986486137,0.04898279998451471,0.09981449996121228,0.1006526998244226,0.29867940000258386
RSVPLG03,md,20260310-102943,1.0.2,20251105-084826,796,Experiment,Both,1,Automatic,main,91,20260310-103935,local,global,300,H,H,A,E,A-H.png,H-E.png,hH,hH,mask-3.png,mask-2.png,h,1,0.8669438001234084,s,0,0.4292858000844717,0.04869850003160536,0.04854849982075393,0.10088889999315143,0.10041069984436035,0.29988620011135936
RSVPLG03,md,20260310-102943,1.0.2,20251105-084826,796,Experiment,Both,1,Automatic,main,92,20260310-103941,local,global,750,S,S,E,A,E-S.png,S-A.png,sS,sS,mask-4.png,mask-3.png,s,1,0.7481133998371661,s,1,0.37670799996703863,0.047263499815016985,0.047028500121086836,0.09934620000422001,0.10049480013549328,0.749968099873513
RSVPLG03,md,20260310-102943,1.0.2,20251105-084826,796,Experiment,Both,1,Automatic,main,93,20260310-103946,local,global,300,S,S,E,E,E-S.png,S-E.png,sS,sS,mask-4.png,mask-4.png,s,1,0.6674679999705404,s,1,0.3286030001472682,0.04714019992388785,0.048735500080510974,0.10077809984795749,0.09978010016493499,0.29935799981467426
RSVPLG03,md,20260310-102943,1.0.2,20251105-084826,796,Experiment,Both,1,Automatic,main,94,20260310-103951,local,local,300,H,H,E,A,E-H.png,A-H.png,hH,hH,mask-4.png,mask-2.png,h,1,0.7714448999613523,h,1,0.3249017000198364,0.047598799923434854,0.046685499837622046,0.09914990002289414,0.1001224999781698,0.30009840009734035
RSVPLG03,md,20260310-102943,1.0.2,20251105-084826,796,Experiment,Both,1,Automatic,main,95,20260310-103956,global,global,300,H,H,A,E,H-A.png,H-E.png,hH,hH,mask-4.png,mask-4.png,h,1,0.5513795001897961,h,1,0.3298440999351442,0.04767149989493191,0.04766339994966984,0.09985239990055561,0.10025290003977716,0.29933239985257387
RSVPLG03,md,20260310-102943,1.0.2,20251105-084826,796,Experiment,Both,1,Automatic,main,96,20260310-104000,global,local,300,H,S,E,A,H-E.png,A-S.png,hH,sS,mask-4.png,mask-1.png,h,1,0.6774424000177532,h,0,0.3159357998520136,0.0472295000217855,0.047509900061413646,0.10083359992131591,0.09946539998054504,0.30107339983806014
RSVPLG03,md,20260310-102943,1.0.2,20251105-084826,796,Experiment,Both,1,Automatic,main,97,20260310-104005,global,local,300,H,H,E,A,H-E.png,A-H.png,hH,hH,mask-3.png,mask-2.png,h,1,0.3862254999112338,h,1,0.2816898999735713,0.04769930010661483,0.0472293000202626,0.10094020003452897,0.09942750004120171,0.3005727001000196
RSVPLG03,md,20260310-102943,1.0.2,20251105-084826,796,Experiment,Both,1,Automatic,main,98,20260310-104009,global,local,750,H,S,E,E,H-E.png,E-S.png,hH,sS,mask-1.png,mask-3.png,h,1,0.6870269000064582,s,1,0.2822141998913139,0.04876629984937608,0.04868839983828366,0.10054559982381761,0.09990269993431866,0.7498955000191927
RSVPLG03,md,20260310-102943,1.0.2,20251105-084826,796,Experiment,Both,1,Automatic,main,99,20260310-104015,local,local,300,S,S,A,E,A-S.png,E-S.png,sS,sS,mask-3.png,mask-1.png,h,0,0.8239823998883367,s,1,0.6156538999639452,0.046740900026634336,0.04747210000641644,0.09978930000215769,0.1004345000255853,0.2980708999093622
RSVPLG03,md,20260310-102943,1.0.2,20251105-084826,796,Experiment,Both,1,Automatic,main,100,20260310-104020,global,global,300,H,H,A,E,H-A.png,H-E.png,hH,hH,mask-3.png,mask-3.png,h,1,0.510875100037083,h,1,0.4824093000497669,0.047711400082334876,0.04663969995453954,0.09988580015487969,0.09981359983794391,0.3005447001196444
