exp,exp_initials,runtime,ver,modtime,sub,blocktype,targets,cuetype,mode,trialtype,trial,trialtime,t1_level,t2_level,t2_lag,t1,t2,distractor1,distractor2,stimfile1,stimfile2,t1_corr,t2_corr,maskfile1,maskfile2,t1_resp,t1_acc,t1_rt,t2_resp,t2_acc,t2_rt,t1_dur,t2_dur,t1mask_soa,t2mask_soa,t1t2_soa
RSVPLG03,cs,20260415-140037,1.0.2,20251105-084826,821,Introduction,T1,1,Automatic,main,1,20260415-140114,global,global,750,H,H,E,A,H-E.png,H-A.png,hH,hH,mask-4.png,mask-3.png,h,1,2.0368053999263793,none,-5,0,0.09912090003490448,0.09671610011719167,0.20016900007613003,0.19976400001905859,0.7516797999851406
RSVPLG03,cs,20260415-140037,1.0.2,20251105-084826,821,Introduction,T1,1,Automatic,main,2,20260415-140120,local,local,750,H,S,E,E,E-H.png,E-S.png,hH,sS,mask-2.png,mask-2.png,s,0,1.233768600039184,none,-5,0,0.09827359998598695,0.09774390002712607,0.20002710004337132,0.19952979986555874,0.75102229998447
RSVPLG03,cs,20260415-140037,1.0.2,20251105-084826,821,Introduction,T1,1,Automatic,main,3,20260415-140126,global,global,750,S,S,E,A,S-E.png,S-A.png,sS,sS,mask-3.png,mask-3.png,s,1,0.6402075001969934,none,-5,0,0.09732420020736754,0.09752919990569353,0.20009940001182258,0.1994554998818785,0.7510342001914978
RSVPLG03,cs,20260415-140037,1.0.2,20251105-084826,821,Introduction,T1,1,Automatic,main,4,20260415-140131,local,global,750,H,S,A,E,A-H.png,S-E.png,hH,sS,mask-4.png,mask-1.png,h,1,0.8119659998919815,none,-5,0,0.09649150003679097,0.09573529986664653,0.20058869989588857,0.19979649991728365,0.7511803000234067
RSVPLG03,cs,20260415-140037,1.0.2,20251105-084826,821,Introduction,T1,1,Automatic,main,5,20260415-140136,global,local,750,H,H,E,A,H-E.png,A-H.png,hH,hH,mask-3.png,mask-3.png,s,0,0.7966074999421835,none,-5,0,0.0964440000243485,0.09743779990822077,0.20025889994576573,0.20132160000503063,0.7491452000103891
RSVPLG03,cs,20260415-140037,1.0.2,20251105-084826,821,Introduction,T1,1,Automatic,main,6,20260415-140141,local,global,750,S,S,A,A,A-S.png,S-A.png,sS,sS,mask-2.png,mask-1.png,none,-6,0,none,-5,0,0.09681770019233227,0.09740169998258352,0.20078540011309087,0.20054539991542697,0.7501046000979841
RSVPLG03,cs,20260415-140037,1.0.2,20251105-084826,821,Practice,T1,1,Automatic,main,1,20260415-140210,local,local,300,H,H,A,A,A-H.png,A-H.png,hH,hH,mask-4.png,mask-3.png,h,1,0.9826260998379439,none,-5,0,0.047162999864667654,0.04782880004495382,0.09863119991496205,0.10179130011238158,0.2982597998343408
RSVPLG03,cs,20260415-140037,1.0.2,20251105-084826,821,Practice,T1,1,Automatic,main,2,20260415-140215,global,global,750,S,H,E,E,S-E.png,H-E.png,sS,hH,mask-2.png,mask-2.png,s,1,0.5015423998702317,none,-5,0,0.04706149990670383,0.04676129994913936,0.09902189997956157,0.0996002999600023,0.7494709000457078
RSVPLG03,cs,20260415-140037,1.0.2,20251105-084826,821,Practice,T1,1,Automatic,main,3,20260415-140219,local,global,750,S,H,E,E,E-S.png,H-E.png,sS,hH,mask-2.png,mask-3.png,s,1,0.42631509993225336,none,-5,0,0.04554859991185367,0.046324399998411536,0.09957619989290833,0.09792810003273189,0.7485127998515964
RSVPLG03,cs,20260415-140037,1.0.2,20251105-084826,821,Practice,T1,1,Automatic,main,4,20260415-140223,local,local,300,S,H,E,E,E-S.png,E-H.png,sS,hH,mask-2.png,mask-4.png,s,1,0.38844719994813204,none,-5,0,0.04670539987273514,0.046427100198343396,0.09985919995233417,0.1000995000358671,0.2989734997972846
RSVPLG03,cs,20260415-140037,1.0.2,20251105-084826,821,Practice,T1,1,Automatic,main,5,20260415-140227,global,local,300,S,S,A,E,S-A.png,E-S.png,sS,sS,mask-1.png,mask-1.png,s,1,0.3480336999054998,none,-5,0,0.04780619987286627,0.046070899814367294,0.09916309989057481,0.09836459998041391,0.3002834999933839
RSVPLG03,cs,20260415-140037,1.0.2,20251105-084826,821,Practice,T1,1,Automatic,main,6,20260415-140231,global,local,750,H,S,E,E,H-E.png,E-S.png,hH,sS,mask-2.png,mask-2.png,h,1,0.23566979984752834,none,-5,0,0.046722100116312504,0.046694899909198284,0.10096559999510646,0.09920479985885322,0.749320600181818
RSVPLG03,cs,20260415-140037,1.0.2,20251105-084826,821,Practice,T1,1,Automatic,main,7,20260415-140236,local,global,300,H,S,A,E,A-H.png,S-E.png,hH,sS,mask-4.png,mask-4.png,h,1,0.6326391000766307,none,-5,0,0.04752249992452562,0.04855179996229708,0.09954490000382066,0.10059940000064671,0.29885519994422793
RSVPLG03,cs,20260415-140037,1.0.2,20251105-084826,821,Practice,T1,1,Automatic,main,8,20260415-140240,global,global,300,S,S,A,E,S-A.png,S-E.png,sS,sS,mask-4.png,mask-3.png,s,1,0.34134570020250976,none,-5,0,0.04780049994587898,0.04735629982315004,0.10096079995855689,0.09857379994355142,0.29959590011276305
RSVPLG03,cs,20260415-140037,1.0.2,20251105-084826,821,Practice,T1,1,Automatic,main,9,20260415-140244,local,local,750,H,H,E,E,E-H.png,E-H.png,hH,hH,mask-3.png,mask-4.png,s,0,0.2787456999067217,none,-5,0,0.04789739986881614,0.04690490011125803,0.10082069993950427,0.10022610006853938,0.7507523999083787
RSVPLG03,cs,20260415-140037,1.0.2,20251105-084826,821,Practice,T1,1,Automatic,main,10,20260415-140248,global,global,300,H,H,E,A,H-E.png,H-A.png,hH,hH,mask-4.png,mask-2.png,h,1,0.38578939996659756,none,-5,0,0.04874930018559098,0.04804779984988272,0.0992996001150459,0.09971669991500676,0.2995562001597136
RSVPLG03,cs,20260415-140037,1.0.2,20251105-084826,821,Practice,T1,1,Automatic,main,11,20260415-140252,local,local,750,H,S,A,A,A-H.png,A-S.png,hH,sS,mask-3.png,mask-4.png,h,1,0.4737635999917984,none,-5,0,0.047283700201660395,0.04749399982392788,0.10146120004355907,0.10031009977683425,0.7498293002136052
RSVPLG03,cs,20260415-140037,1.0.2,20251105-084826,821,Practice,T1,1,Automatic,main,12,20260415-140256,local,global,750,H,H,E,E,E-H.png,H-E.png,hH,hH,mask-2.png,mask-2.png,s,0,0.3352642999961972,none,-5,0,0.047525699948892,0.047820799984037876,0.09842139994725585,0.09994189999997616,0.7478060000576079
RSVPLG03,cs,20260415-140037,1.0.2,20251105-084826,821,Practice,T1,1,Automatic,main,13,20260415-140301,global,global,750,H,S,A,E,H-A.png,S-E.png,hH,sS,mask-1.png,mask-3.png,h,1,1.452809700043872,none,-5,0,0.04783149994909763,0.048085200134664774,0.10214129998348653,0.10070930002257228,0.7491426998749375
RSVPLG03,cs,20260415-140037,1.0.2,20251105-084826,821,Practice,T1,1,Automatic,main,14,20260415-140306,global,local,750,S,H,E,A,S-E.png,A-H.png,sS,hH,mask-2.png,mask-1.png,s,1,0.3488012000452727,none,-5,0,0.0466306998860091,0.047475499799475074,0.09968520002439618,0.10134609998203814,0.7477068000007421
RSVPLG03,cs,20260415-140037,1.0.2,20251105-084826,821,Practice,T1,1,Automatic,main,15,20260415-140311,global,local,300,S,H,E,A,S-E.png,A-H.png,sS,hH,mask-3.png,mask-1.png,s,1,0.5137223000638187,none,-5,0,0.045969000086188316,0.046511200023815036,0.09872210002504289,0.09956360002979636,0.2988134999759495
RSVPLG03,cs,20260415-140037,1.0.2,20251105-084826,821,Practice,T1,1,Automatic,main,16,20260415-140315,local,global,300,S,H,A,E,A-S.png,H-E.png,sS,hH,mask-3.png,mask-1.png,s,1,0.41177579993382096,none,-5,0,0.04674300015904009,0.0478328000754118,0.09944520005956292,0.1010874998755753,0.2993614000733942
RSVPLG03,cs,20260415-140415,1.0.2,20251105-084826,821,Practice,Both,1,Automatic,main,1,20260415-140448,local,global,300,S,S,E,A,E-S.png,S-A.png,sS,sS,mask-3.png,mask-1.png,s,1,0.45341259986162186,h,0,3.2101443998981267,0.039984900038689375,0.047530399868264794,0.09279410005547106,0.10070169996470213,0.29191110003739595
RSVPLG03,cs,20260415-140415,1.0.2,20251105-084826,821,Practice,Both,1,Automatic,main,2,20260415-140456,local,local,300,H,S,A,A,A-H.png,A-S.png,hH,sS,mask-4.png,mask-2.png,h,1,1.9643284999765456,s,1,0.6300698001869023,0.04690800001844764,0.04750009998679161,0.10026039998047054,0.0985147999599576,0.2998383999802172
RSVPLG03,cs,20260415-140415,1.0.2,20251105-084826,821,Practice,Both,1,Automatic,main,3,20260415-140502,global,global,300,H,S,A,E,H-A.png,S-E.png,hH,sS,mask-1.png,mask-4.png,h,1,0.717307599959895,s,1,0.14237979985773563,0.04633689997717738,0.04798569995909929,0.09933690004982054,0.10008150013163686,0.2984857999254018
RSVPLG03,cs,20260415-140415,1.0.2,20251105-084826,821,Practice,Both,1,Automatic,main,4,20260415-140507,global,local,750,S,S,A,A,S-A.png,A-S.png,sS,sS,mask-2.png,mask-2.png,s,1,0.5650297999382019,h,0,0.12282730010338128,0.046572000021114945,0.047537900041788816,0.09784379997290671,0.09955150005407631,0.7471708999946713
RSVPLG03,cs,20260415-140415,1.0.2,20251105-084826,821,Practice,Both,1,Automatic,main,5,20260415-140511,global,local,300,S,H,A,E,S-A.png,E-H.png,sS,hH,mask-4.png,mask-1.png,s,1,1.7656338000670075,h,1,0.06009949999861419,0.047949699917808175,0.0475490998942405,0.10090780002065003,0.10059849987737834,0.2992614000104368
RSVPLG03,cs,20260415-140415,1.0.2,20251105-084826,821,Practice,Both,1,Automatic,main,6,20260415-140517,global,local,300,S,H,E,E,S-E.png,E-H.png,sS,hH,mask-1.png,mask-4.png,s,1,0.6307308000978082,h,1,0.09685699990950525,0.04753379989415407,0.04653679998591542,0.09956080000847578,0.09982599993236363,0.29991080006584525
RSVPLG03,cs,20260415-140415,1.0.2,20251105-084826,821,Practice,Both,1,Automatic,main,7,20260415-140521,local,local,300,S,S,A,E,A-S.png,E-S.png,sS,sS,mask-3.png,mask-3.png,s,1,1.0336328998673707,s,1,0.09184770006686449,0.04786640009842813,0.04709809995256364,0.099017099943012,0.10010189982131124,0.29878140008077025
RSVPLG03,cs,20260415-140415,1.0.2,20251105-084826,821,Practice,Both,1,Automatic,main,8,20260415-140526,local,local,750,S,H,A,A,A-S.png,A-H.png,sS,hH,mask-4.png,mask-3.png,s,1,0.6671996000222862,h,1,0.07521179993636906,0.047578199999406934,0.04860939993523061,0.10008760006166995,0.10078349988907576,0.7470273000653833
RSVPLG03,cs,20260415-140415,1.0.2,20251105-084826,821,Practice,Both,1,Automatic,main,9,20260415-140531,global,local,750,S,S,A,A,S-A.png,A-S.png,sS,sS,mask-4.png,mask-3.png,s,1,0.763354399939999,h,0,0.13426680001430213,0.04653139994479716,0.04780150018632412,0.09852789994329214,0.10192220006138086,0.7456355998292565
RSVPLG03,cs,20260415-140415,1.0.2,20251105-084826,821,Practice,Both,1,Automatic,main,10,20260415-140536,local,global,300,S,H,E,A,E-S.png,H-A.png,sS,hH,mask-4.png,mask-1.png,s,1,0.809434600174427,h,1,0.06168779986910522,0.045588300097733736,0.04660570016130805,0.09941540006548166,0.09893300011754036,0.2984786999877542
RSVPLG03,cs,20260415-140415,1.0.2,20251105-084826,821,Practice,Both,1,Automatic,main,11,20260415-140540,local,global,750,H,H,E,A,E-H.png,H-A.png,hH,hH,mask-4.png,mask-3.png,s,0,0.5560141999740154,h,1,0.0496970999520272,0.04689180012792349,0.04751840000972152,0.09977270010858774,0.09853149997070432,0.7481021999847144
RSVPLG03,cs,20260415-140415,1.0.2,20251105-084826,821,Practice,Both,1,Automatic,main,12,20260415-140545,global,global,300,S,S,E,E,S-E.png,S-E.png,sS,sS,mask-1.png,mask-1.png,s,1,1.0916641999501735,h,0,0.1394039997830987,0.04673729999922216,0.04768590000458062,0.09880069992505014,0.09976959996856749,0.2993181999772787
RSVPLG03,cs,20260415-140415,1.0.2,20251105-084826,821,Practice,Both,1,Automatic,main,13,20260415-140550,local,local,750,S,H,A,A,A-S.png,A-H.png,sS,hH,mask-3.png,mask-2.png,s,1,0.8003941001370549,h,1,0.08123529981821775,0.04847509996034205,0.04667899990454316,0.10067349998280406,0.09887630003504455,0.7484128000214696
RSVPLG03,cs,20260415-140415,1.0.2,20251105-084826,821,Practice,Both,1,Automatic,main,14,20260415-140555,global,global,750,S,S,E,E,S-E.png,S-E.png,sS,sS,mask-1.png,mask-4.png,s,1,0.4790105998981744,s,1,0.05108610005117953,0.046745199942961335,0.04599429992958903,0.10083039989694953,0.09893310000188649,0.748575400095433
RSVPLG03,cs,20260415-140415,1.0.2,20251105-084826,821,Practice,Both,1,Automatic,main,15,20260415-140600,local,global,750,S,H,A,A,A-S.png,H-A.png,sS,hH,mask-4.png,mask-2.png,s,1,0.9060249999165535,h,1,0.036899999948218465,0.04753719992004335,0.04759049997664988,0.09865700011141598,0.09860599995590746,0.7474253999534994
RSVPLG03,cs,20260415-140415,1.0.2,20251105-084826,821,Practice,Both,1,Automatic,main,16,20260415-140605,global,global,750,H,S,A,A,H-A.png,S-A.png,hH,sS,mask-4.png,mask-1.png,s,0,0.7039209001231939,s,1,0.09412450017407537,0.0465985001064837,0.04832509998232126,0.09992199996486306,0.1003672000952065,0.7469943000469357
RSVPLG03,cs,20260415-140915,1.0.2,20251105-084826,821,Experiment,Both,1,Automatic,warmup,1,20260415-140946,global,global,750,S,H,A,E,S-A.png,H-E.png,sS,hH,mask-4.png,mask-3.png,s,1,0.46911210007965565,h,1,0.003531200112774968,0.039788300171494484,0.047252099961042404,0.09295800002291799,0.09927859995514154,0.7447429001331329
RSVPLG03,cs,20260415-140915,1.0.2,20251105-084826,821,Experiment,Both,1,Automatic,warmup,2,20260415-140951,local,local,750,S,S,A,A,A-S.png,A-S.png,sS,sS,mask-1.png,mask-3.png,s,1,0.30242959992028773,h,0,0.010267100064083934,0.04756979993544519,0.047818100079894066,0.1018440998159349,0.1000137000810355,0.7519195999484509
RSVPLG03,cs,20260415-140915,1.0.2,20251105-084826,821,Experiment,Both,1,Automatic,warmup,3,20260415-140956,local,global,750,S,H,E,E,E-S.png,H-E.png,sS,hH,mask-2.png,mask-1.png,s,1,0.4430333999916911,h,1,0.039404300041496754,0.048821899807080626,0.047686600126326084,0.10105319996364415,0.09988220012746751,0.753245199797675
RSVPLG03,cs,20260415-140915,1.0.2,20251105-084826,821,Experiment,Both,1,Automatic,warmup,4,20260415-141000,global,local,300,S,H,A,E,S-A.png,E-H.png,sS,hH,mask-2.png,mask-3.png,s,1,0.5983223998919129,h,1,0.05799220013432205,0.04774169996380806,0.04568640002980828,0.10088720009662211,0.09993660007603467,0.3024710000026971
RSVPLG03,cs,20260415-140915,1.0.2,20251105-084826,821,Experiment,Both,1,Automatic,main,5,20260415-141004,global,global,300,S,H,A,E,S-A.png,H-E.png,sS,hH,mask-1.png,mask-1.png,s,1,0.4803458000533283,h,1,0.11120510008186102,0.046545400051400065,0.04843230010010302,0.09963309997692704,0.10127360001206398,0.29955790005624294
RSVPLG03,cs,20260415-140915,1.0.2,20251105-084826,821,Experiment,Both,1,Automatic,main,6,20260415-141009,global,local,300,S,H,A,A,S-A.png,A-H.png,sS,hH,mask-3.png,mask-2.png,s,1,0.5130372000858188,h,1,0.07195109990425408,0.047520500142127275,0.04957869998179376,0.10057300003245473,0.10066120000556111,0.29959880001842976
RSVPLG03,cs,20260415-140915,1.0.2,20251105-084826,821,Experiment,Both,1,Automatic,main,7,20260415-141013,global,local,750,H,S,A,E,H-A.png,E-S.png,hH,sS,mask-2.png,mask-3.png,h,1,0.5329789000097662,s,1,0.027702700113877654,0.04694879986345768,0.047074400121346116,0.09822489996440709,0.09919059998355806,0.75097809988074
RSVPLG03,cs,20260415-140915,1.0.2,20251105-084826,821,Experiment,Both,1,Automatic,main,8,20260415-141018,global,global,750,S,S,E,E,S-E.png,S-E.png,sS,sS,mask-3.png,mask-3.png,s,1,0.44260010006837547,s,1,0.06864119996316731,0.046730600064620376,0.04752240004017949,0.09978669998236,0.09953320003114641,0.7525671999901533
RSVPLG03,cs,20260415-140915,1.0.2,20251105-084826,821,Experiment,Both,1,Automatic,main,9,20260415-141022,global,global,750,H,S,A,E,H-A.png,S-E.png,hH,sS,mask-3.png,mask-4.png,h,1,0.485278100008145,s,1,0.024534600088372827,0.04759420012123883,0.04641900002025068,0.10071310005150735,0.10048879985697567,0.7523559001274407
RSVPLG03,cs,20260415-140915,1.0.2,20251105-084826,821,Experiment,Both,1,Automatic,main,10,20260415-141027,global,local,300,S,H,A,E,S-A.png,E-H.png,sS,hH,mask-2.png,mask-2.png,s,1,0.559927600203082,s,0,0.07734209997579455,0.04843090008944273,0.048553899861872196,0.09947150014340878,0.10145209985785186,0.30011590011417866
RSVPLG03,cs,20260415-140915,1.0.2,20251105-084826,821,Experiment,Both,1,Automatic,main,11,20260415-141031,global,global,300,S,H,A,E,S-A.png,H-E.png,sS,hH,mask-2.png,mask-3.png,s,1,0.472849499899894,h,1,0.052883800119161606,0.04751250008121133,0.047504100017249584,0.09952870011329651,0.10051729995757341,0.2998540000990033
RSVPLG03,cs,20260415-140915,1.0.2,20251105-084826,821,Experiment,Both,1,Automatic,main,12,20260415-141035,global,local,300,H,S,A,E,H-A.png,E-S.png,hH,sS,mask-1.png,mask-2.png,s,0,0.5198596999980509,h,0,0.05864869989454746,0.04749369993805885,0.04657709994353354,0.09953979984857142,0.10044920002110302,0.3010096999350935
RSVPLG03,cs,20260415-140915,1.0.2,20251105-084826,821,Experiment,Both,1,Automatic,main,13,20260415-141040,global,global,300,S,H,E,E,S-E.png,H-E.png,sS,hH,mask-4.png,mask-1.png,s,1,0.4720972999930382,h,1,0.06441490002907813,0.04846210009418428,0.0478368999902159,0.10173690016381443,0.10041609988547862,0.3013431001454592
RSVPLG03,cs,20260415-140915,1.0.2,20251105-084826,821,Experiment,Both,1,Automatic,main,14,20260415-141044,global,local,300,S,S,A,E,S-A.png,E-S.png,sS,sS,mask-2.png,mask-2.png,s,1,0.5631887000054121,s,1,0.08863410004414618,0.04907940002158284,0.04681730014272034,0.10225580004043877,0.09998390008695424,0.3015928999520838
RSVPLG03,cs,20260415-140915,1.0.2,20251105-084826,821,Experiment,Both,1,Automatic,main,15,20260415-141048,global,global,300,H,H,A,A,H-A.png,H-A.png,hH,hH,mask-3.png,mask-3.png,h,1,0.6068484999705106,h,1,0.07721660006791353,0.047696900088340044,0.04870519996620715,0.10095480014570057,0.1019596999976784,0.30058260005898774
RSVPLG03,cs,20260415-140915,1.0.2,20251105-084826,821,Experiment,Both,1,Automatic,main,16,20260415-141052,local,global,750,H,H,E,E,E-H.png,H-E.png,hH,hH,mask-4.png,mask-3.png,s,0,0.4413175000809133,h,1,0.04871040000580251,0.0483772000297904,0.04759770003147423,0.10010770009830594,0.10022899997420609,0.7518718999344856
RSVPLG03,cs,20260415-140915,1.0.2,20251105-084826,821,Experiment,Both,1,Automatic,main,17,20260415-141057,global,global,300,S,S,E,A,S-E.png,S-A.png,sS,sS,mask-2.png,mask-3.png,s,1,0.7076700001489371,s,1,0.10218190005980432,0.04663250013254583,0.04858189984224737,0.10015960014425218,0.1002989998087287,0.30001340014860034
RSVPLG03,cs,20260415-140915,1.0.2,20251105-084826,821,Experiment,Both,1,Automatic,main,18,20260415-141101,global,global,300,S,S,E,E,S-E.png,S-E.png,sS,sS,mask-1.png,mask-1.png,s,1,0.8252129000611603,s,1,0.09229830000549555,0.04750810004770756,0.04853569995611906,0.10052559990435839,0.10131129994988441,0.29979169997386634
RSVPLG03,cs,20260415-140915,1.0.2,20251105-084826,821,Experiment,Both,1,Automatic,main,19,20260415-141106,global,global,750,S,H,E,E,S-E.png,H-E.png,sS,hH,mask-3.png,mask-4.png,s,1,0.5506033999845386,h,1,0.09014720004051924,0.04654090013355017,0.04752520006150007,0.09958970011211932,0.10152810020372272,0.7512956999707967
RSVPLG03,cs,20260415-140915,1.0.2,20251105-084826,821,Experiment,Both,1,Automatic,main,20,20260415-141111,global,local,750,S,S,A,E,S-A.png,E-S.png,sS,sS,mask-2.png,mask-2.png,s,1,0.34981140005402267,s,1,0.07186379982158542,0.04737499984912574,0.04752250015735626,0.09982799994759262,0.09993560006842017,0.7526681998278946
RSVPLG03,cs,20260415-140915,1.0.2,20251105-084826,821,Experiment,Both,1,Automatic,main,21,20260415-141115,global,global,300,S,S,E,A,S-E.png,S-A.png,sS,sS,mask-2.png,mask-3.png,s,1,0.4394926999229938,s,1,0.09291559993289411,0.04753060010261834,0.04653030005283654,0.09960710001178086,0.09953720006160438,0.30085140001028776
RSVPLG03,cs,20260415-140915,1.0.2,20251105-084826,821,Experiment,Both,1,Automatic,main,22,20260415-141120,global,local,750,H,H,A,E,H-A.png,E-H.png,hH,hH,mask-1.png,mask-4.png,h,1,0.5959319001995027,s,0,0.04447050020098686,0.04769879998639226,0.047686400124803185,0.10090649989433587,0.10081670014187694,0.7526435998734087
RSVPLG03,cs,20260415-140915,1.0.2,20251105-084826,821,Experiment,Both,1,Automatic,main,23,20260415-141124,local,global,300,S,H,A,E,A-S.png,H-E.png,sS,hH,mask-1.png,mask-3.png,h,0,1.6922400000039488,s,0,0.647706399904564,0.047509799944236875,0.04859909997321665,0.10156379989348352,0.10064820013940334,0.3012301998678595
RSVPLG03,cs,20260415-140915,1.0.2,20251105-084826,821,Experiment,Both,1,Automatic,main,24,20260415-141130,local,local,300,S,H,E,E,E-S.png,E-H.png,sS,hH,mask-3.png,mask-3.png,s,1,0.5430757999420166,s,0,0.084363300120458,0.04751299996860325,0.04679400008171797,0.09852849994786084,0.10007050004787743,0.2996582998894155
RSVPLG03,cs,20260415-140915,1.0.2,20251105-084826,821,Experiment,Both,1,Automatic,main,25,20260415-141135,local,global,750,H,S,A,E,A-H.png,S-E.png,hH,sS,mask-4.png,mask-3.png,h,1,0.4542322000488639,s,1,0.05495289992541075,0.04862609994597733,0.046592900063842535,0.10168639989569783,0.09887720015831292,0.7526431998703629
RSVPLG03,cs,20260415-140915,1.0.2,20251105-084826,821,Experiment,Both,1,Automatic,main,26,20260415-141142,local,local,300,H,H,A,A,A-H.png,A-H.png,hH,hH,mask-2.png,mask-3.png,h,1,0.6265134001150727,s,0,0.025524100055918097,0.047776499995961785,0.04734019981697202,0.10068039991892874,0.10031069978140295,0.30085050011985004
RSVPLG03,cs,20260415-140915,1.0.2,20251105-084826,821,Experiment,Both,1,Automatic,main,27,20260415-141146,global,local,750,H,H,E,E,H-E.png,E-H.png,hH,hH,mask-4.png,mask-4.png,h,1,0.5854740999639034,s,0,0.07432200014591217,0.04768379987217486,0.04866799991577864,0.09984539984725416,0.10087349987588823,0.7517105999868363
RSVPLG03,cs,20260415-140915,1.0.2,20251105-084826,821,Experiment,Both,1,Automatic,main,28,20260415-141151,local,local,750,H,H,A,E,A-H.png,E-H.png,hH,hH,mask-3.png,mask-2.png,h,1,0.5823985999450088,h,1,0.07431719987653196,0.047845699824392796,0.04816080001182854,0.09941989998333156,0.1014384999871254,0.7517527998425066
RSVPLG03,cs,20260415-140915,1.0.2,20251105-084826,821,Experiment,Both,1,Automatic,main,29,20260415-141156,local,global,300,S,H,A,E,A-S.png,H-E.png,sS,hH,mask-4.png,mask-2.png,s,1,0.5503857000730932,h,1,0.06329449987970293,0.04841280006803572,0.047837400110438466,0.10083570005372167,0.10093319998122752,0.2997793999966234
RSVPLG03,cs,20260415-140915,1.0.2,20251105-084826,821,Experiment,Both,1,Automatic,main,30,20260415-141200,local,global,300,S,S,A,A,A-S.png,S-A.png,sS,sS,mask-4.png,mask-1.png,s,1,0.9059129001107067,h,0,0.08022739994339645,0.04733079997822642,0.04839530005119741,0.1004528000485152,0.10128100006841123,0.30081599997356534
RSVPLG03,cs,20260415-140915,1.0.2,20251105-084826,821,Experiment,Both,1,Automatic,main,31,20260415-141205,global,global,750,H,S,A,A,H-A.png,S-A.png,hH,sS,mask-3.png,mask-4.png,h,1,0.5260245001409203,s,1,0.021584899863228202,0.04768289998173714,0.04753129999153316,0.10068130004219711,0.10030319984070957,0.7518048000056297
RSVPLG03,cs,20260415-140915,1.0.2,20251105-084826,821,Experiment,Both,1,Automatic,main,32,20260415-141209,local,local,300,S,H,A,A,A-S.png,A-H.png,sS,hH,mask-4.png,mask-3.png,h,0,0.6669425000436604,s,0,0.00540810008533299,0.04954160004854202,0.047539800172671676,0.10055900015868247,0.09956680005416274,0.301885399967432
RSVPLG03,cs,20260415-140915,1.0.2,20251105-084826,821,Experiment,Both,1,Automatic,main,33,20260415-141214,global,local,300,H,H,A,A,H-A.png,A-H.png,hH,hH,mask-3.png,mask-1.png,h,1,0.931684099836275,h,1,0.09181050001643598,0.04977670009247959,0.04770060000009835,0.10099030006676912,0.09990580007433891,0.3016089000739157
RSVPLG03,cs,20260415-140915,1.0.2,20251105-084826,821,Experiment,Both,1,Automatic,main,34,20260415-141218,local,global,300,H,H,A,E,A-H.png,H-E.png,hH,hH,mask-4.png,mask-2.png,s,0,0.5708384998142719,h,1,0.09544200007803738,0.048659600084647536,0.04756939993239939,0.09987260005436838,0.09956590016372502,0.3012457999866456
RSVPLG03,cs,20260415-140915,1.0.2,20251105-084826,821,Experiment,Both,1,Automatic,main,35,20260415-141223,global,global,750,H,S,A,A,H-A.png,S-A.png,hH,sS,mask-4.png,mask-4.png,h,1,0.5821795999072492,s,1,0.04379620007239282,0.04752420005388558,0.047382700024172664,0.10055759991519153,0.10061189997941256,0.7526555999647826
RSVPLG03,cs,20260415-140915,1.0.2,20251105-084826,821,Experiment,Both,1,Automatic,main,36,20260415-141228,global,global,750,S,S,A,E,S-A.png,S-E.png,sS,sS,mask-1.png,mask-3.png,s,1,0.40002210019156337,s,1,0.08532460010610521,0.04767890018410981,0.04756580013781786,0.10071320016868412,0.0995738001074642,0.7527540000155568
RSVPLG03,cs,20260415-140915,1.0.2,20251105-084826,821,Experiment,Both,1,Automatic,main,37,20260415-141232,local,global,300,H,H,A,A,A-H.png,H-A.png,hH,hH,mask-4.png,mask-4.png,h,1,0.7069128998555243,h,1,0.08243749989196658,0.04850449995137751,0.048549799947068095,0.10047319997102022,0.10002829995937645,0.30068810004740953
RSVPLG03,cs,20260415-140915,1.0.2,20251105-084826,821,Experiment,Both,1,Automatic,main,38,20260415-141237,local,global,750,H,S,E,A,E-H.png,S-A.png,hH,sS,mask-4.png,mask-2.png,s,0,0.4908255999907851,s,1,0.05521650006994605,0.04750730004161596,0.048514199908822775,0.1006400000769645,0.1015391000546515,0.7508996000979096
RSVPLG03,cs,20260415-140915,1.0.2,20251105-084826,821,Experiment,Both,1,Automatic,main,39,20260415-141241,local,local,750,H,H,A,A,A-H.png,A-H.png,hH,hH,mask-3.png,mask-2.png,h,1,0.5501472998876125,h,1,0.06964010000228882,0.047890800051391125,0.04657409992069006,0.10203629988245666,0.10054969997145236,0.7531850000377744
RSVPLG03,cs,20260415-140915,1.0.2,20251105-084826,821,Experiment,Both,1,Automatic,main,40,20260415-141246,local,global,750,S,S,E,A,E-S.png,S-A.png,sS,sS,mask-3.png,mask-4.png,h,0,0.7271805999334902,s,1,0.0034835000988096,0.048815099988132715,0.04768049996346235,0.10201169992797077,0.09988019987940788,0.7533982000313699
RSVPLG03,cs,20260415-140915,1.0.2,20251105-084826,821,Experiment,Both,1,Automatic,main,41,20260415-141251,global,local,300,S,S,E,E,S-E.png,E-S.png,sS,sS,mask-4.png,mask-3.png,s,1,0.46725680003874004,s,1,0.09118380001746118,0.04789839987643063,0.04583830013871193,0.10003169998526573,0.09895729995332658,0.30131959985010326
RSVPLG03,cs,20260415-140915,1.0.2,20251105-084826,821,Experiment,Both,1,Automatic,main,42,20260415-141255,local,global,750,S,S,E,E,E-S.png,S-E.png,sS,sS,mask-2.png,mask-1.png,s,1,0.4182704999111593,s,1,0.06650949991308153,0.048828099854290485,0.046899500070139766,0.10103899985551834,0.10083770006895065,0.7531770998612046
RSVPLG03,cs,20260415-140915,1.0.2,20251105-084826,821,Experiment,Both,1,Automatic,main,43,20260415-141300,global,local,750,H,S,A,A,H-A.png,A-S.png,hH,sS,mask-2.png,mask-1.png,h,1,0.6146733001805842,h,0,0.05962249985896051,0.04771650000475347,0.04783089994452894,0.09978919988498092,0.10006979992613196,0.7517560999840498
RSVPLG03,cs,20260415-140915,1.0.2,20251105-084826,821,Experiment,Both,1,Automatic,main,44,20260415-141305,global,global,300,S,H,A,A,S-A.png,H-A.png,sS,hH,mask-3.png,mask-2.png,s,1,0.5806952998973429,h,1,0.03678860003128648,0.04694460006430745,0.04752629995346069,0.09927090001292527,0.10071890009567142,0.3007586000021547
RSVPLG03,cs,20260415-140915,1.0.2,20251105-084826,821,Experiment,Both,1,Automatic,main,45,20260415-141309,local,global,750,H,S,E,A,E-H.png,S-A.png,hH,sS,mask-2.png,mask-2.png,s,0,0.4286869999486953,s,1,0.07599109993316233,0.04773209989070892,0.04855059995315969,0.10114279994741082,0.10086589981801808,0.7523550000041723
RSVPLG03,cs,20260415-140915,1.0.2,20251105-084826,821,Experiment,Both,1,Automatic,main,46,20260415-141314,local,local,750,S,S,E,E,E-S.png,E-S.png,sS,sS,mask-2.png,mask-2.png,s,1,0.47692140005528927,s,1,0.059386099921539426,0.04876709985546768,0.04661860014311969,0.10096439998596907,0.09982210001908243,0.753529799869284
RSVPLG03,cs,20260415-140915,1.0.2,20251105-084826,821,Experiment,Both,1,Automatic,main,47,20260415-141318,local,global,300,S,S,A,E,A-S.png,S-E.png,sS,sS,mask-2.png,mask-1.png,s,1,0.8385235001333058,h,0,0.1991255001630634,0.04695310001261532,0.049087599851191044,0.10005120001733303,0.10011269990354776,0.29986480018123984
RSVPLG03,cs,20260415-140915,1.0.2,20251105-084826,821,Experiment,Both,1,Automatic,main,48,20260415-141323,local,local,300,S,S,E,A,E-S.png,A-S.png,sS,sS,mask-4.png,mask-1.png,s,1,0.8508202999364585,s,1,0.056548100197687745,0.04750820016488433,0.04676100006327033,0.099945800146088,0.10000490001402795,0.30056210001930594
RSVPLG03,cs,20260415-140915,1.0.2,20251105-084826,821,Experiment,Both,1,Automatic,main,49,20260415-141328,local,local,300,H,S,A,A,A-H.png,A-S.png,hH,sS,mask-1.png,mask-1.png,s,0,0.5699968999251723,h,0,0.31351789995096624,0.04848870006389916,0.04749369993805885,0.10031710006296635,0.10078089986927807,0.30156050017103553
RSVPLG03,cs,20260415-140915,1.0.2,20251105-084826,821,Experiment,Both,1,Automatic,main,50,20260415-141332,global,local,750,H,H,A,E,H-A.png,E-H.png,hH,hH,mask-4.png,mask-1.png,h,1,0.7353864000178874,s,0,0.05499509978108108,0.0484821000136435,0.04746709996834397,0.10051230015233159,0.09983849991112947,0.7527585001662374
RSVPLG03,cs,20260415-140915,1.0.2,20251105-084826,821,Experiment,Both,1,Automatic,main,51,20260415-141341,local,local,750,H,S,A,E,A-H.png,E-S.png,hH,sS,mask-1.png,mask-3.png,h,1,0.6666202999185771,s,1,0.06249489984475076,0.0475165001116693,0.04767689993605018,0.10075620003044605,0.09971889993175864,0.7528081000782549
RSVPLG03,cs,20260415-140915,1.0.2,20251105-084826,821,Experiment,Both,1,Automatic,main,52,20260415-141346,global,global,750,S,H,E,E,S-E.png,H-E.png,sS,hH,mask-2.png,mask-1.png,s,1,0.42584999999962747,h,1,0.13661979977041483,0.048814000096172094,0.047123400028795004,0.10088230017572641,0.09950269991531968,0.753413800150156
RSVPLG03,cs,20260415-140915,1.0.2,20251105-084826,821,Experiment,Both,1,Automatic,main,53,20260415-141351,global,global,750,S,H,A,E,S-A.png,H-E.png,sS,hH,mask-2.png,mask-2.png,s,1,0.6185467001050711,h,1,0.020239900099113584,0.04627469996921718,0.04761229990981519,0.09972289996221662,0.10025539994239807,0.7509540000464767
RSVPLG03,cs,20260415-140915,1.0.2,20251105-084826,821,Experiment,Both,1,Automatic,main,54,20260415-141356,global,local,300,S,S,A,E,S-A.png,E-S.png,sS,sS,mask-4.png,mask-1.png,s,1,0.6200635998975486,h,0,0.10320659982971847,0.04757689987309277,0.04824879998341203,0.10059940000064671,0.09925600001588464,0.3011613998096436
RSVPLG03,cs,20260415-140915,1.0.2,20251105-084826,821,Experiment,Both,1,Automatic,main,55,20260415-141400,local,local,750,S,S,E,A,E-S.png,A-S.png,sS,sS,mask-4.png,mask-1.png,s,1,0.5344748999923468,h,0,0.07047279994003475,0.047495999839156866,0.04755809996277094,0.099920499837026,0.09963260008953512,0.7519713998772204
RSVPLG03,cs,20260415-140915,1.0.2,20251105-084826,821,Experiment,Both,1,Automatic,main,56,20260415-141405,global,local,750,H,S,A,A,H-A.png,A-S.png,hH,sS,mask-4.png,mask-1.png,h,1,0.6185198999010026,h,0,0.15099800005555153,0.047813700046390295,0.04647649987600744,0.10089889983646572,0.09948619990609586,0.7536251000128686
RSVPLG03,cs,20260415-140915,1.0.2,20251105-084826,821,Experiment,Both,1,Automatic,main,57,20260415-141410,global,global,300,S,H,E,A,S-E.png,H-A.png,sS,hH,mask-2.png,mask-4.png,s,1,1.1825772000011057,h,1,1.3108781999908388,0.04751250008121133,0.04590309993363917,0.10055640013888478,0.09840469993650913,0.3019877001643181
RSVPLG03,cs,20260415-140915,1.0.2,20251105-084826,821,Experiment,Both,1,Automatic,main,58,20260415-141415,local,global,750,H,H,A,A,A-H.png,H-A.png,hH,hH,mask-1.png,mask-3.png,s,0,0.8271816000342369,h,1,0.10256469994783401,0.04703489993698895,0.04766370006836951,0.10137950000353158,0.09899439988657832,0.753113399958238
RSVPLG03,cs,20260415-140915,1.0.2,20251105-084826,821,Experiment,Both,1,Automatic,main,59,20260415-141420,local,global,300,S,S,A,E,A-S.png,S-E.png,sS,sS,mask-4.png,mask-3.png,h,0,0.8761195000261068,s,1,0.058144499780610204,0.047623599879443645,0.04676109994761646,0.10024129995144904,0.09996180003508925,0.3008181999903172
RSVPLG03,cs,20260415-140915,1.0.2,20251105-084826,821,Experiment,Both,1,Automatic,main,60,20260415-141424,local,local,750,H,H,E,E,E-H.png,E-H.png,hH,hH,mask-2.png,mask-2.png,s,0,0.5367636999581009,s,0,0.0930417999625206,0.04769899998791516,0.04786869999952614,0.0998682000208646,0.09994189999997616,0.7509971999097615
RSVPLG03,cs,20260415-140915,1.0.2,20251105-084826,821,Experiment,Both,1,Automatic,main,61,20260415-141429,local,local,750,S,H,A,E,A-S.png,E-H.png,sS,hH,mask-2.png,mask-2.png,s,1,1.1008584999945015,h,1,1.0950013000983745,0.04753630002960563,0.04761249991133809,0.10156020009890199,0.09976389980874956,0.7525455001741648
RSVPLG03,cs,20260415-140915,1.0.2,20251105-084826,821,Experiment,Both,1,Automatic,main,62,20260415-141436,global,local,750,S,S,A,A,S-A.png,A-S.png,sS,sS,mask-4.png,mask-1.png,s,1,1.2970285001210868,h,0,0.19585060002282262,0.04670289997011423,0.04754480021074414,0.09899480012245476,0.0998791002202779,0.7519141999073327
RSVPLG03,cs,20260415-140915,1.0.2,20251105-084826,821,Experiment,Both,1,Automatic,main,63,20260415-141441,local,local,300,S,S,A,A,A-S.png,A-S.png,sS,sS,mask-3.png,mask-1.png,s,1,0.6205372998956591,s,1,0.09099779999814928,0.04670839989557862,0.04812539997510612,0.09923140006139874,0.10135160014033318,0.30033469991758466
RSVPLG03,cs,20260415-140915,1.0.2,20251105-084826,821,Experiment,Both,1,Automatic,main,64,20260415-141446,local,local,300,H,H,A,E,A-H.png,E-H.png,hH,hH,mask-3.png,mask-3.png,s,0,1.0334898999426514,h,1,0.04429150000214577,0.04752170015126467,0.04781559994444251,0.10056819999590516,0.10117210005410016,0.29984310013242066
RSVPLG03,cs,20260415-140915,1.0.2,20251105-084826,821,Experiment,Both,1,Automatic,main,65,20260415-141450,local,global,300,S,H,E,A,E-S.png,H-A.png,sS,hH,mask-1.png,mask-2.png,s,1,0.7964111999608576,h,1,0.08740230021066964,0.04657709994353354,0.04652490001171827,0.1006638000253588,0.09962140000425279,0.30127709987573326
RSVPLG03,cs,20260415-140915,1.0.2,20251105-084826,821,Experiment,Both,1,Automatic,main,66,20260415-141455,global,global,750,H,H,A,A,H-A.png,H-A.png,hH,hH,mask-3.png,mask-1.png,h,1,0.49286770005710423,h,1,0.07426370005123317,0.04754230007529259,0.04752029990777373,0.10060220002196729,0.09961030003614724,0.7522279000841081
RSVPLG03,cs,20260415-140915,1.0.2,20251105-084826,821,Experiment,Both,1,Automatic,main,67,20260415-141500,local,local,750,S,S,A,A,A-S.png,A-S.png,sS,sS,mask-3.png,mask-1.png,h,0,1.2260504001751542,s,1,0.027536700014024973,0.047396000009030104,0.0488990000449121,0.09931439999490976,0.10198940010741353,0.7510966998524964
RSVPLG03,cs,20260415-140915,1.0.2,20251105-084826,821,Experiment,Both,1,Automatic,main,68,20260415-141505,local,local,750,H,H,A,E,A-H.png,E-H.png,hH,hH,mask-2.png,mask-4.png,h,1,1.1442768000997603,s,0,0.00847769994288683,0.046527700033038855,0.04742530011571944,0.09914509998634458,0.10145670012570918,0.751167899928987
RSVPLG03,cs,20260415-140915,1.0.2,20251105-084826,821,Experiment,Both,1,Automatic,main,69,20260415-141510,local,global,750,S,S,E,E,E-S.png,S-E.png,sS,sS,mask-3.png,mask-3.png,s,1,0.4887901002075523,s,1,0.0795424000825733,0.04659869987517595,0.048513100016862154,0.0996207999996841,0.10059859999455512,0.750675099901855
RSVPLG03,cs,20260415-140915,1.0.2,20251105-084826,821,Experiment,Both,1,Automatic,main,70,20260415-141515,local,local,300,H,S,E,E,E-H.png,E-S.png,hH,sS,mask-1.png,mask-4.png,s,0,0.8489813001360744,s,1,0.08773580007255077,0.04877829994075,0.04767540004104376,0.10094899986870587,0.09960820013657212,0.30154949985444546
RSVPLG03,cs,20260415-140915,1.0.2,20251105-084826,821,Experiment,Both,1,Automatic,main,71,20260415-141520,local,local,300,H,S,E,E,E-H.png,E-S.png,hH,sS,mask-4.png,mask-3.png,s,0,0.8777135999407619,h,0,0.1553128999657929,0.047180800000205636,0.046703000087291,0.10049209999851882,0.09997360012494028,0.3014151998795569
RSVPLG03,cs,20260415-140915,1.0.2,20251105-084826,821,Experiment,Both,1,Automatic,main,72,20260415-141525,global,local,750,S,S,E,E,S-E.png,E-S.png,sS,sS,mask-4.png,mask-2.png,s,1,0.5503255999647081,s,1,0.08825190016068518,0.047747999895364046,0.04867830011062324,0.09976670006290078,0.10084190010093153,0.7518388999160379
RSVPLG03,cs,20260415-140915,1.0.2,20251105-084826,821,Experiment,Both,1,Automatic,main,73,20260415-141529,global,global,750,H,S,A,A,H-A.png,S-A.png,hH,sS,mask-2.png,mask-3.png,h,1,0.6014767000451684,s,1,0.038279700092971325,0.04768429999239743,0.04768000007607043,0.09993029991164804,0.09982030000537634,0.751992299919948
RSVPLG03,cs,20260415-140915,1.0.2,20251105-084826,821,Experiment,Both,1,Automatic,main,74,20260415-141534,global,local,750,S,H,A,E,S-A.png,E-H.png,sS,hH,mask-3.png,mask-3.png,s,1,0.6655283998697996,s,0,0.10125819989480078,0.04570589982904494,0.04682559985667467,0.0992323998361826,0.0997878999914974,0.7511257999576628
RSVPLG03,cs,20260415-140915,1.0.2,20251105-084826,821,Experiment,Both,1,Automatic,main,75,20260415-141539,global,local,300,H,S,A,A,H-A.png,A-S.png,hH,sS,mask-2.png,mask-4.png,h,1,0.5814000000245869,s,1,1.2796965998131782,0.04798210016451776,0.047723300056532025,0.10125629999674857,0.10001900000497699,0.3010340000037104
RSVPLG03,cs,20260415-140915,1.0.2,20251105-084826,821,Experiment,Both,1,Automatic,main,76,20260415-141546,global,global,750,S,S,E,E,S-E.png,S-E.png,sS,sS,mask-2.png,mask-3.png,s,1,0.4774815998971462,s,1,0.09322770009748638,0.045718800043687224,0.047538400162011385,0.09918120014481246,0.10155520006082952,0.7500575999729335
RSVPLG03,cs,20260415-140915,1.0.2,20251105-084826,821,Experiment,Both,1,Automatic,main,77,20260415-141551,global,global,750,H,S,E,E,H-E.png,S-E.png,hH,sS,mask-3.png,mask-3.png,h,1,0.5372292001266032,s,1,0.06888539995998144,0.04878100007772446,0.049575400073081255,0.10082709998823702,0.10033270018175244,0.7518317999783903
RSVPLG03,cs,20260415-140915,1.0.2,20251105-084826,821,Experiment,Both,1,Automatic,main,78,20260415-141555,local,global,750,H,H,E,E,E-H.png,H-E.png,hH,hH,mask-4.png,mask-4.png,s,0,1.0098384998273104,h,1,0.05312340008094907,0.04753630002960563,0.04811220010742545,0.10013470007106662,0.10055309999734163,0.7535093000624329
RSVPLG03,cs,20260415-140915,1.0.2,20251105-084826,821,Experiment,Both,1,Automatic,main,79,20260415-141601,global,local,300,S,H,A,A,S-A.png,A-H.png,sS,hH,mask-4.png,mask-1.png,s,1,0.5637736001517624,h,1,0.12050039996393025,0.047677200054749846,0.046768599888309836,0.09992040018551052,0.09903389983810484,0.30125990021042526
RSVPLG03,cs,20260415-140915,1.0.2,20251105-084826,821,Experiment,Both,1,Automatic,main,80,20260415-141605,local,local,750,H,H,A,E,A-H.png,E-H.png,hH,hH,mask-4.png,mask-3.png,h,1,0.534086000174284,s,0,0.07199009996838868,0.047894899966195226,0.046543599804863334,0.10019450006075203,0.09972579986788332,0.7530987001955509
RSVPLG03,cs,20260415-140915,1.0.2,20251105-084826,821,Experiment,Both,1,Automatic,main,81,20260415-141610,global,local,300,S,H,E,E,S-E.png,E-H.png,sS,hH,mask-4.png,mask-4.png,s,1,0.8643743998836726,h,1,0.09494149987585843,0.04691909998655319,0.04903790005482733,0.10004779999144375,0.10032600001432002,0.30054709990508854
RSVPLG03,cs,20260415-140915,1.0.2,20251105-084826,821,Experiment,Both,1,Automatic,main,82,20260415-141614,local,global,750,S,H,E,E,E-S.png,H-E.png,sS,hH,mask-3.png,mask-3.png,s,1,0.5185644999146461,h,1,0.09560019988566637,0.046229499857872725,0.047496800078079104,0.0989211997948587,0.10054450016468763,0.7515039998106658
RSVPLG03,cs,20260415-140915,1.0.2,20251105-084826,821,Experiment,Both,1,Automatic,main,83,20260415-141619,global,global,300,S,H,E,E,S-E.png,H-E.png,sS,hH,mask-4.png,mask-1.png,s,1,0.46545500005595386,h,1,0.08689469983801246,0.04813749995082617,0.047554400051012635,0.10053229983896017,0.10196899995207787,0.30085489992052317
RSVPLG03,cs,20260415-140915,1.0.2,20251105-084826,821,Experiment,Both,1,Automatic,main,84,20260415-141623,local,global,750,H,H,E,A,E-H.png,H-A.png,hH,hH,mask-3.png,mask-2.png,s,0,0.823773100040853,h,1,0.06110529997386038,0.04773540003225207,0.047690800158306956,0.09996150014922023,0.09984370018355548,0.7527113000396639
RSVPLG03,cs,20260415-140915,1.0.2,20251105-084826,821,Experiment,Both,1,Automatic,main,85,20260415-141628,local,global,300,H,S,A,A,A-H.png,S-A.png,hH,sS,mask-1.png,mask-1.png,s,0,1.2142787999473512,h,0,0.007992399856448174,0.046225300058722496,0.046537499874830246,0.09952589985914528,0.10089829983189702,0.3010945999994874
RSVPLG03,cs,20260415-140915,1.0.2,20251105-084826,821,Experiment,Both,1,Automatic,main,86,20260415-141633,local,global,300,S,H,A,A,A-S.png,H-A.png,sS,hH,mask-4.png,mask-3.png,h,0,0.5878308999817818,h,1,0.19142129993997514,0.04685780010186136,0.04696849989704788,0.09862170019187033,0.10029269987717271,0.3011067002080381
RSVPLG03,cs,20260415-140915,1.0.2,20251105-084826,821,Experiment,Both,1,Automatic,main,87,20260415-141638,local,local,300,H,S,E,A,E-H.png,A-S.png,hH,sS,mask-3.png,mask-1.png,h,1,2.5243492000736296,h,0,0.6240493999794126,0.047688499791547656,0.047579600010067225,0.09919629991054535,0.09868300007656217,0.3017745998222381
RSVPLG03,cs,20260415-140915,1.0.2,20251105-084826,821,Experiment,Both,1,Automatic,main,88,20260415-141644,global,global,300,H,H,E,E,H-E.png,H-E.png,hH,hH,mask-2.png,mask-3.png,h,1,0.5202652001753449,h,1,0.09609389980323613,0.04781379993073642,0.04669130011461675,0.10104730003513396,0.09888950013555586,0.3016858999617398
RSVPLG03,cs,20260415-140915,1.0.2,20251105-084826,821,Experiment,Both,1,Automatic,main,89,20260415-141649,local,local,300,H,S,E,E,E-H.png,E-S.png,hH,sS,mask-2.png,mask-1.png,h,1,0.588719799881801,h,0,0.08509359997697175,0.04679169994778931,0.04752809996716678,0.09997189999558032,0.10081279999576509,0.30008869990706444
RSVPLG03,cs,20260415-140915,1.0.2,20251105-084826,821,Experiment,Both,1,Automatic,main,90,20260415-141653,local,local,750,S,S,E,A,E-S.png,A-S.png,sS,sS,mask-3.png,mask-4.png,s,1,1.269948000088334,h,0,0.03793089999817312,0.04653430008329451,0.04867929988540709,0.10068090003915131,0.100714499829337,0.7512497000861913
RSVPLG03,cs,20260415-140915,1.0.2,20251105-084826,821,Experiment,Both,1,Automatic,main,91,20260415-141659,global,local,300,S,H,E,E,S-E.png,E-H.png,sS,hH,mask-3.png,mask-2.png,s,1,0.460107299964875,h,1,0.042938799830153584,0.04751430009491742,0.04648260003887117,0.10148410010151565,0.09940130007453263,0.30163039988838136
RSVPLG03,cs,20260415-140915,1.0.2,20251105-084826,821,Experiment,Both,1,Automatic,main,92,20260415-141703,local,local,300,H,H,A,A,A-H.png,A-H.png,hH,hH,mask-3.png,mask-1.png,h,1,0.8872268998529762,h,1,0.0722737000323832,0.04755390016362071,0.04752520006150007,0.10154430009424686,0.10011830017901957,0.30181610002182424
RSVPLG03,cs,20260415-140915,1.0.2,20251105-084826,821,Experiment,Both,1,Automatic,main,93,20260415-141707,local,global,300,H,H,A,E,A-H.png,H-E.png,hH,hH,mask-4.png,mask-1.png,h,1,1.0643569000530988,h,1,0.07210110011510551,0.04750430001877248,0.04651939985342324,0.10050820000469685,0.10052069998346269,0.30172400013543665
RSVPLG03,cs,20260415-140915,1.0.2,20251105-084826,821,Experiment,Both,1,Automatic,main,94,20260415-141712,local,global,750,H,H,E,E,E-H.png,H-E.png,hH,hH,mask-2.png,mask-1.png,s,0,0.8708684002049267,h,1,0.07536029978655279,0.047396100126206875,0.04749490018002689,0.10143529996275902,0.09872860019095242,0.7530676999595016
RSVPLG03,cs,20260415-140915,1.0.2,20251105-084826,821,Experiment,Both,1,Automatic,main,95,20260415-141717,local,local,750,H,S,A,A,A-H.png,A-S.png,hH,sS,mask-1.png,mask-3.png,h,1,0.412365100113675,h,0,0.055452900007367134,0.04957190016284585,0.04706519981846213,0.10200780001468956,0.10008259979076684,0.7541256002150476
RSVPLG03,cs,20260415-140915,1.0.2,20251105-084826,821,Experiment,Both,1,Automatic,main,96,20260415-141722,global,local,300,S,H,A,E,S-A.png,E-H.png,sS,hH,mask-1.png,mask-4.png,s,1,0.41944129997864366,s,0,0.24357810011133552,0.04757119994610548,0.04744560015387833,0.10057940008118749,0.10044670011848211,0.30012449994683266
RSVPLG03,cs,20260415-140915,1.0.2,20251105-084826,821,Experiment,Both,1,Automatic,main,97,20260415-141726,global,local,750,H,H,A,E,H-A.png,E-H.png,hH,hH,mask-3.png,mask-3.png,h,1,0.4077680001500994,s,0,0.03242529998533428,0.0474978000856936,0.047874300042167306,0.09959570015780628,0.10000810003839433,0.7519919001497328
RSVPLG03,cs,20260415-140915,1.0.2,20251105-084826,821,Experiment,Both,1,Automatic,main,98,20260415-141731,global,global,300,H,S,A,A,H-A.png,S-A.png,hH,sS,mask-4.png,mask-3.png,h,1,0.47596490010619164,s,1,0.5523866999428719,0.047561899991706014,0.045693299965932965,0.1004099000710994,0.0993510999251157,0.3026584000326693
RSVPLG03,cs,20260415-140915,1.0.2,20251105-084826,821,Experiment,Both,1,Automatic,main,99,20260415-141735,global,local,750,H,H,A,A,H-A.png,A-H.png,hH,hH,mask-4.png,mask-4.png,h,1,0.9954512999393046,s,0,0.6579693001694977,0.04761330015026033,0.04860850004479289,0.10042649996466935,0.10080450004898012,0.7507732999511063
RSVPLG03,cs,20260415-140915,1.0.2,20251105-084826,821,Experiment,Both,1,Automatic,main,100,20260415-141741,local,global,300,H,S,E,E,E-H.png,S-E.png,hH,sS,mask-2.png,mask-4.png,s,0,0.8594302001874894,h,0,0.1059932999778539,0.046709399903193116,0.04854190000332892,0.09980309987440705,0.10078049986623228,0.29966689995490015
RSVPLG03,cs,20260415-141826,1.0.2,20251105-084826,821,Experiment,Both,1,Automatic,warmup,1,20260415-143128,global,local,750,S,S,E,A,S-E.png,A-S.png,sS,sS,mask-2.png,mask-4.png,h,0,0.30568649992346764,h,0,0.7610187001992017,0.040272099897265434,0.047909799963235855,0.09322149981744587,0.09990519983693957,0.7424598999787122
RSVPLG03,cs,20260415-141826,1.0.2,20251105-084826,821,Experiment,Both,1,Automatic,warmup,2,20260415-143133,local,local,300,S,H,E,A,E-S.png,A-H.png,sS,hH,mask-3.png,mask-3.png,s,1,0.4175116999540478,h,1,0.03937790007330477,0.047706899931654334,0.04769800021313131,0.10091449995525181,0.09989800001494586,0.30052719986997545
RSVPLG03,cs,20260415-141826,1.0.2,20251105-084826,821,Experiment,Both,1,Automatic,warmup,3,20260415-143137,local,global,300,S,H,E,A,E-S.png,H-A.png,sS,hH,mask-4.png,mask-4.png,s,1,0.49349420005455613,h,1,0.06538809998892248,0.04881429998204112,0.04754470009356737,0.09987050015479326,0.10040879994630814,0.29945460008457303
RSVPLG03,cs,20260415-141826,1.0.2,20251105-084826,821,Experiment,Both,1,Automatic,warmup,4,20260415-143141,global,local,300,H,S,A,A,H-A.png,A-S.png,hH,sS,mask-3.png,mask-2.png,h,1,0.5295756000559777,s,1,0.08679679990746081,0.047693599946796894,0.04771369998343289,0.09992239996790886,0.09984940011054277,0.2995319999754429
RSVPLG03,cs,20260415-141826,1.0.2,20251105-084826,821,Experiment,Both,1,Automatic,main,5,20260415-143145,local,global,300,H,S,E,A,E-H.png,S-A.png,hH,sS,mask-3.png,mask-3.png,s,0,0.5380031999666244,s,1,0.10774509981274605,0.048552799969911575,0.04703660006634891,0.1003759999293834,0.10111020016483963,0.30002329987473786
RSVPLG03,cs,20260415-141826,1.0.2,20251105-084826,821,Experiment,Both,1,Automatic,main,6,20260415-143150,global,global,300,H,S,E,A,H-E.png,S-A.png,hH,sS,mask-1.png,mask-4.png,h,1,0.44354639993980527,s,1,0.05129160010255873,0.045626800041645765,0.04768320010043681,0.09999550017528236,0.099802500102669,0.29778230004012585
RSVPLG03,cs,20260415-141826,1.0.2,20251105-084826,821,Experiment,Both,1,Automatic,main,7,20260415-143154,global,local,750,H,S,A,A,H-A.png,A-S.png,hH,sS,mask-1.png,mask-3.png,h,1,0.6256876999977976,h,0,0.08385830000042915,0.0466558001935482,0.04751319997012615,0.09809900005348027,0.09855929994955659,0.7490394001360983
RSVPLG03,cs,20260415-141826,1.0.2,20251105-084826,821,Experiment,Both,1,Automatic,main,8,20260415-143159,global,global,750,H,H,E,E,H-E.png,H-E.png,hH,hH,mask-3.png,mask-2.png,h,1,0.44372019986622036,h,1,0.07353839999996126,0.047410500003024936,0.046733499970287085,0.09986010007560253,0.09935799986124039,0.7497683002147824
RSVPLG03,cs,20260415-141826,1.0.2,20251105-084826,821,Experiment,Both,1,Automatic,main,9,20260415-143203,local,global,300,S,H,A,A,A-S.png,H-A.png,sS,hH,mask-3.png,mask-2.png,s,1,0.48152659996412694,h,1,0.027701199986040592,0.048546799924224615,0.047283500200137496,0.09977949992753565,0.10025710007175803,0.2992203999310732
RSVPLG03,cs,20260415-141826,1.0.2,20251105-084826,821,Experiment,Both,1,Automatic,main,10,20260415-143207,global,local,750,H,H,A,A,H-A.png,A-H.png,hH,hH,mask-1.png,mask-4.png,h,1,0.47933190013282,h,1,0.08652950008399785,0.04706360003910959,0.04730760003440082,0.1000647998880595,0.10033049993216991,0.7496251999400556
RSVPLG03,cs,20260415-141826,1.0.2,20251105-084826,821,Experiment,Both,1,Automatic,main,11,20260415-143212,global,local,750,S,S,A,E,S-A.png,E-S.png,sS,sS,mask-3.png,mask-2.png,s,1,0.45509649999439716,s,1,0.0586237998213619,0.04889039997942746,0.04655439988709986,0.10113639989867806,0.09975979989394546,0.7501042999792844
RSVPLG03,cs,20260415-141826,1.0.2,20251105-084826,821,Experiment,Both,1,Automatic,main,12,20260415-143217,global,global,750,S,H,E,A,S-E.png,H-A.png,sS,hH,mask-4.png,mask-4.png,s,1,0.4322379999794066,h,1,0.044244299875572324,0.04776520002633333,0.045634600101038814,0.09897960000671446,0.0999110999982804,0.7488879000302404
RSVPLG03,cs,20260415-141826,1.0.2,20251105-084826,821,Experiment,Both,1,Automatic,main,13,20260415-143221,global,local,750,S,H,A,E,S-A.png,E-H.png,sS,hH,mask-1.png,mask-2.png,s,1,0.5030841000843793,s,0,0.06805359991267323,0.047905700048431754,0.04716529999859631,0.10099619999527931,0.10087670013308525,0.7487106998451054
RSVPLG03,cs,20260415-141826,1.0.2,20251105-084826,821,Experiment,Both,1,Automatic,main,14,20260415-143226,global,local,750,S,H,A,E,S-A.png,E-H.png,sS,hH,mask-1.png,mask-2.png,s,1,0.47521060006693006,s,0,0.059282099828124046,0.04757299995981157,0.047718599904328585,0.0993423000909388,0.09978169994428754,0.7478227000683546
RSVPLG03,cs,20260415-141826,1.0.2,20251105-084826,821,Experiment,Both,1,Automatic,main,15,20260415-143231,local,local,300,H,S,A,E,A-H.png,E-S.png,hH,sS,mask-1.png,mask-4.png,h,1,0.487224199809134,s,1,0.032659900141879916,0.04745439998805523,0.04737900011241436,0.09932240005582571,0.10030620009638369,0.2995462999679148
RSVPLG03,cs,20260415-141826,1.0.2,20251105-084826,821,Experiment,Both,1,Automatic,main,16,20260415-143235,local,global,750,H,S,E,A,E-H.png,S-A.png,hH,sS,mask-4.png,mask-2.png,h,1,0.6819657001178712,s,1,0.04329450009390712,0.04721730016171932,0.04674730007536709,0.1005337000824511,0.09982750006020069,0.7507734000682831
RSVPLG03,cs,20260415-141826,1.0.2,20251105-084826,821,Experiment,Both,1,Automatic,main,17,20260415-143240,global,global,750,S,H,E,E,S-E.png,H-E.png,sS,hH,mask-4.png,mask-4.png,s,1,0.2523600000422448,h,1,0.02669840003363788,0.04665459995158017,0.04881020006723702,0.0988739999011159,0.10103120002895594,0.7476097999606282
RSVPLG03,cs,20260415-141826,1.0.2,20251105-084826,821,Experiment,Both,1,Automatic,main,18,20260415-143244,local,global,300,H,S,A,A,A-H.png,S-A.png,hH,sS,mask-4.png,mask-1.png,h,1,0.7054614999797195,s,1,0.010163299972191453,0.048649400006979704,0.04692220012657344,0.09963800013065338,0.09913430013693869,0.3002987999934703
RSVPLG03,cs,20260415-141826,1.0.2,20251105-084826,821,Experiment,Both,1,Automatic,main,19,20260415-143249,local,local,750,H,S,A,A,A-H.png,A-S.png,hH,sS,mask-1.png,mask-1.png,s,0,1.0962861999869347,s,1,0.10855239978991449,0.048744000028818846,0.047615400049835443,0.10014050011523068,0.09862100007012486,0.7495085000991821
RSVPLG03,cs,20260415-141826,1.0.2,20251105-084826,821,Experiment,Both,1,Automatic,main,20,20260415-143254,local,local,750,H,H,E,E,E-H.png,E-H.png,hH,hH,mask-3.png,mask-4.png,s,0,0.7533579999580979,s,0,0.08771240012720227,0.04763159994035959,0.047596200136467814,0.10068079992197454,0.09963320009410381,0.7492939999792725
RSVPLG03,cs,20260415-141826,1.0.2,20251105-084826,821,Experiment,Both,1,Automatic,main,21,20260415-143259,global,local,750,H,H,A,A,H-A.png,A-H.png,hH,hH,mask-3.png,mask-4.png,h,1,0.41442300006747246,h,1,0.0918735999148339,0.04735720017924905,0.04752179980278015,0.100328000029549,0.09923839988186955,0.7484535002149642
RSVPLG03,cs,20260415-141826,1.0.2,20251105-084826,821,Experiment,Both,1,Automatic,main,22,20260415-143304,local,global,750,H,H,E,E,E-H.png,H-E.png,hH,hH,mask-4.png,mask-4.png,s,0,0.4657338000833988,h,1,0.05264509981498122,0.047859800048172474,0.046414799988269806,0.1006400000769645,0.0992419000249356,0.7491423001047224
RSVPLG03,cs,20260415-141826,1.0.2,20251105-084826,821,Experiment,Both,1,Automatic,main,23,20260415-143308,global,global,750,H,H,E,E,H-E.png,H-E.png,hH,hH,mask-1.png,mask-4.png,h,1,0.3882720998954028,h,1,0.07883070013485849,0.047476999927312136,0.04751079995185137,0.10049259988591075,0.09851490007713437,0.7499899999238551
RSVPLG03,cs,20260415-141826,1.0.2,20251105-084826,821,Experiment,Both,1,Automatic,main,24,20260415-143313,local,local,750,S,H,A,E,A-S.png,E-H.png,sS,hH,mask-2.png,mask-4.png,h,0,0.8399084999691695,s,0,0.0708871001843363,0.04716890002600849,0.04763659997843206,0.09931170009076595,0.09868979989551008,0.7484774000477046
RSVPLG03,cs,20260415-141826,1.0.2,20251105-084826,821,Experiment,Both,1,Automatic,main,25,20260415-143318,global,global,300,S,H,A,E,S-A.png,H-E.png,sS,hH,mask-2.png,mask-4.png,s,1,0.3809766999911517,h,1,0.07566799991764128,0.04828880005516112,0.04657229990698397,0.10024950001388788,0.09860610007308424,0.3003615001216531
RSVPLG03,cs,20260415-141826,1.0.2,20251105-084826,821,Experiment,Both,1,Automatic,main,26,20260415-143326,global,local,300,S,S,E,E,S-E.png,E-S.png,sS,sS,mask-4.png,mask-4.png,s,1,0.43794950004667044,s,1,0.08734539989382029,0.047591499984264374,0.0485601001419127,0.09956780006177723,0.10037930007092655,0.2992376999463886
RSVPLG03,cs,20260415-141826,1.0.2,20251105-084826,821,Experiment,Both,1,Automatic,main,27,20260415-143330,global,local,300,S,H,E,A,S-E.png,A-H.png,sS,hH,mask-1.png,mask-4.png,s,1,0.3936334999743849,h,1,0.02999800001271069,0.046739700017496943,0.04676049994304776,0.09913469990715384,0.09973979997448623,0.30049910000525415
RSVPLG03,cs,20260415-141826,1.0.2,20251105-084826,821,Experiment,Both,1,Automatic,main,28,20260415-143334,global,local,300,H,H,A,A,H-A.png,A-H.png,hH,hH,mask-3.png,mask-4.png,h,1,0.47972519998438656,s,0,0.02438570000231266,0.04713149997405708,0.04728089994750917,0.1004339000210166,0.09883720008656383,0.299747500102967
RSVPLG03,cs,20260415-141826,1.0.2,20251105-084826,821,Experiment,Both,1,Automatic,main,29,20260415-143338,global,local,300,H,H,E,E,H-E.png,E-H.png,hH,hH,mask-2.png,mask-1.png,h,1,0.5195114999078214,s,0,0.028244500048458576,0.04768000007607043,0.04753759992308915,0.09916410013101995,0.09916109987534583,0.30009440006688237
RSVPLG03,cs,20260415-141826,1.0.2,20251105-084826,821,Experiment,Both,1,Automatic,main,30,20260415-143342,global,local,300,H,H,E,A,H-E.png,A-H.png,hH,hH,mask-4.png,mask-2.png,h,1,0.5726077000144869,h,1,0.08712100004777312,0.04720519995316863,0.04803700000047684,0.0996820000000298,0.0999391998630017,0.29991569998674095
RSVPLG03,cs,20260415-141826,1.0.2,20251105-084826,821,Experiment,Both,1,Automatic,main,31,20260415-143347,local,local,750,S,S,E,E,E-S.png,E-S.png,sS,sS,mask-1.png,mask-1.png,s,1,0.41269919998012483,s,1,0.10759539995342493,0.046515499940142035,0.04645180003717542,0.09961819997988641,0.10045940009877086,0.7489743998739868
RSVPLG03,cs,20260415-141826,1.0.2,20251105-084826,821,Experiment,Both,1,Automatic,main,32,20260415-143351,global,local,300,S,S,A,A,S-A.png,A-S.png,sS,sS,mask-1.png,mask-3.png,s,1,0.4723934999201447,h,0,0.05360860005021095,0.047120200004428625,0.04846889991313219,0.10043950006365776,0.10065379994921386,0.2996292000170797
RSVPLG03,cs,20260415-141826,1.0.2,20251105-084826,821,Experiment,Both,1,Automatic,main,33,20260415-143355,global,local,300,S,S,A,E,S-A.png,E-S.png,sS,sS,mask-3.png,mask-2.png,s,1,0.43957599997520447,s,1,0.09181810007430613,0.047687800135463476,0.04769570007920265,0.09988670004531741,0.09986850013956428,0.29951869999058545
RSVPLG03,cs,20260415-141826,1.0.2,20251105-084826,821,Experiment,Both,1,Automatic,main,34,20260415-143400,global,global,300,S,S,A,A,S-A.png,S-A.png,sS,sS,mask-4.png,mask-4.png,s,1,0.6052596000954509,s,1,0.09056909987702966,0.047727299854159355,0.047843100037425756,0.09991930006071925,0.09969229996204376,0.2999082999303937
RSVPLG03,cs,20260415-141826,1.0.2,20251105-084826,821,Experiment,Both,1,Automatic,main,35,20260415-143404,global,global,750,H,H,A,A,H-A.png,H-A.png,hH,hH,mask-3.png,mask-3.png,h,1,0.5801592001225799,h,1,0.06910480000078678,0.0471093999221921,0.046878800028935075,0.09870639978908002,0.09998339996673167,0.7476400998421013
RSVPLG03,cs,20260415-141826,1.0.2,20251105-084826,821,Experiment,Both,1,Automatic,main,36,20260415-143409,local,local,300,S,S,A,A,A-S.png,A-S.png,sS,sS,mask-4.png,mask-1.png,s,1,0.4971222998574376,h,0,0.025285599986091256,0.04756950004957616,0.04860499990172684,0.0995974000543356,0.10062049981206656,0.2991282001603395
RSVPLG03,cs,20260415-141826,1.0.2,20251105-084826,821,Experiment,Both,1,Automatic,main,37,20260415-143413,global,local,750,H,S,A,A,H-A.png,A-S.png,hH,sS,mask-1.png,mask-1.png,h,1,0.5051455001812428,h,0,0.11251640017144382,0.0466926998924464,0.04956259997561574,0.09980059997178614,0.10183329996652901,0.7464433000423014
RSVPLG03,cs,20260415-141826,1.0.2,20251105-084826,821,Experiment,Both,1,Automatic,main,38,20260415-143418,global,global,750,H,S,A,A,H-A.png,S-A.png,hH,sS,mask-4.png,mask-2.png,h,1,0.4868238000199199,s,1,0.03294489998370409,0.04763969988562167,0.04608860006555915,0.09944080002605915,0.09824760002084076,0.7493713998701423
RSVPLG03,cs,20260415-141826,1.0.2,20251105-084826,821,Experiment,Both,1,Automatic,main,39,20260415-143422,global,global,300,S,H,E,E,S-E.png,H-E.png,sS,hH,mask-3.png,mask-4.png,s,1,0.3601085999980569,h,1,0.018270600121468306,0.04839270003139973,0.04568519978784025,0.09973050002008677,0.0999112999998033,0.3015730001498014
RSVPLG03,cs,20260415-141826,1.0.2,20251105-084826,821,Experiment,Both,1,Automatic,main,40,20260415-143426,local,global,750,S,S,A,E,A-S.png,S-E.png,sS,sS,mask-1.png,mask-1.png,s,1,0.511891100089997,s,1,0.08663039980456233,0.047936399932950735,0.047184200026094913,0.10017820005305111,0.09975280007347465,0.7495953999459743
RSVPLG03,cs,20260415-141826,1.0.2,20251105-084826,821,Experiment,Both,1,Automatic,main,41,20260415-143431,global,local,300,H,H,E,E,H-E.png,E-H.png,hH,hH,mask-2.png,mask-1.png,h,1,0.7786283998284489,h,1,0.09134949999861419,0.048616900108754635,0.04672110010869801,0.10073269996792078,0.10013590008020401,0.3003614000044763
RSVPLG03,cs,20260415-141826,1.0.2,20251105-084826,821,Experiment,Both,1,Automatic,main,42,20260415-143435,local,global,300,S,H,A,E,A-S.png,H-E.png,sS,hH,mask-4.png,mask-1.png,s,1,0.47972499998286366,h,1,0.02270690002478659,0.04801379982382059,0.04656290006823838,0.09855619980953634,0.09905049996450543,0.29946509981527925
RSVPLG03,cs,20260415-141826,1.0.2,20251105-084826,821,Experiment,Both,1,Automatic,main,43,20260415-143440,local,global,750,H,H,E,E,E-H.png,H-E.png,hH,hH,mask-2.png,mask-3.png,s,0,0.42597909993492067,h,1,0.061447800137102604,0.04875950003042817,0.04776809993200004,0.10121429990977049,0.09978549997322261,0.7488309000618756
RSVPLG03,cs,20260415-141826,1.0.2,20251105-084826,821,Experiment,Both,1,Automatic,main,44,20260415-143444,local,global,300,S,S,A,E,A-S.png,S-E.png,sS,sS,mask-3.png,mask-2.png,s,1,0.6145426000002772,s,1,0.10107169998809695,0.04656080016866326,0.04754599998705089,0.0986926001496613,0.09879929991438985,0.29907650011591613
RSVPLG03,cs,20260415-141826,1.0.2,20251105-084826,821,Experiment,Both,1,Automatic,main,45,20260415-143449,local,local,300,S,H,E,A,E-S.png,A-H.png,sS,hH,mask-3.png,mask-2.png,s,1,0.4074224999640137,h,1,0.7161137000657618,0.04774899990297854,0.047686600126326084,0.09997670003212988,0.09991610003635287,0.29824619996361434
RSVPLG03,cs,20260415-141826,1.0.2,20251105-084826,821,Experiment,Both,1,Automatic,main,46,20260415-143453,local,local,300,S,H,A,A,A-S.png,A-H.png,sS,hH,mask-3.png,mask-2.png,s,1,0.4939224999397993,h,1,0.05423809983767569,0.04742339998483658,0.0472762999124825,0.09969529998488724,0.10030229995027184,0.30015670019201934
RSVPLG03,cs,20260415-141826,1.0.2,20251105-084826,821,Experiment,Both,1,Automatic,main,47,20260415-143458,local,global,750,S,H,E,A,E-S.png,H-A.png,sS,hH,mask-4.png,mask-2.png,s,1,0.39199809986166656,h,1,0.1404737001284957,0.046717199962586164,0.047260299790650606,0.09936729981563985,0.10088909999467432,0.7489803000353277
RSVPLG03,cs,20260415-141826,1.0.2,20251105-084826,821,Experiment,Both,1,Automatic,main,48,20260415-143502,global,local,300,S,H,E,E,S-E.png,E-H.png,sS,hH,mask-4.png,mask-3.png,s,1,0.6261741002090275,h,1,0.07243719999678433,0.046666499925777316,0.04600080009549856,0.0980210998095572,0.09826420014724135,0.29895919980481267
RSVPLG03,cs,20260415-141826,1.0.2,20251105-084826,821,Experiment,Both,1,Automatic,main,49,20260415-143507,local,local,300,H,S,E,A,E-H.png,A-S.png,hH,sS,mask-1.png,mask-1.png,s,0,0.4950798999052495,h,0,0.07733690016902983,0.04655750002712011,0.04764060000889003,0.09891760000027716,0.10100749996490777,0.29891250003129244
RSVPLG03,cs,20260415-141826,1.0.2,20251105-084826,821,Experiment,Both,1,Automatic,main,50,20260415-143511,global,global,300,H,H,A,A,H-A.png,H-A.png,hH,hH,mask-2.png,mask-1.png,h,1,0.5152904998976737,h,1,0.0647738000843674,0.046664800029248,0.04751699999906123,0.1007487999740988,0.09934479999355972,0.2991732000373304
RSVPLG03,cs,20260415-141826,1.0.2,20251105-084826,821,Experiment,Both,1,Automatic,main,51,20260415-143516,global,global,300,H,H,E,E,H-E.png,H-E.png,hH,hH,mask-2.png,mask-1.png,h,1,0.31386730005033314,h,1,0.0706627001054585,0.047521399799734354,0.04750970005989075,0.10077379993163049,0.10051970020867884,0.2991256997920573
RSVPLG03,cs,20260415-141826,1.0.2,20251105-084826,821,Experiment,Both,1,Automatic,main,52,20260415-143521,local,global,300,S,S,A,E,A-S.png,S-E.png,sS,sS,mask-4.png,mask-2.png,h,0,0.7773338998667896,s,1,0.9054719000123441,0.048428199952468276,0.04635530011728406,0.100495700025931,0.09883210016414523,0.3007616999093443
RSVPLG03,cs,20260415-141826,1.0.2,20251105-084826,821,Experiment,Both,1,Automatic,main,53,20260415-143525,global,local,750,H,H,A,A,H-A.png,A-H.png,hH,hH,mask-1.png,mask-2.png,h,1,0.4346793999429792,h,1,0.07184160011820495,0.047587200067937374,0.04759299987927079,0.10108989989385009,0.10067249997518957,0.7486405000090599
RSVPLG03,cs,20260415-141826,1.0.2,20251105-084826,821,Experiment,Both,1,Automatic,main,54,20260415-143530,local,local,300,S,S,E,A,E-S.png,A-S.png,sS,sS,mask-1.png,mask-3.png,s,1,0.36385730002075434,h,0,0.02142959996126592,0.04768369998782873,0.04667049995623529,0.09887049999088049,0.09986629988998175,0.2988160999957472
RSVPLG03,cs,20260415-141826,1.0.2,20251105-084826,821,Experiment,Both,1,Automatic,main,55,20260415-143534,local,global,300,H,H,E,A,E-H.png,H-A.png,hH,hH,mask-2.png,mask-3.png,h,1,0.7306629999075085,h,1,0.05246050003916025,0.047562000108882785,0.04756379988975823,0.10062710009515285,0.10064909979701042,0.2998694002162665
RSVPLG03,cs,20260415-141826,1.0.2,20251105-084826,821,Experiment,Both,1,Automatic,main,56,20260415-143538,local,global,750,H,H,A,A,A-H.png,H-A.png,hH,hH,mask-1.png,mask-2.png,h,1,0.41937969997525215,h,1,0.0763683000113815,0.047526700189337134,0.04748070007190108,0.10051870020106435,0.10050110006704926,0.7493340000510216
RSVPLG03,cs,20260415-141826,1.0.2,20251105-084826,821,Experiment,Both,1,Automatic,main,57,20260415-143543,local,local,750,S,S,A,A,A-S.png,A-S.png,sS,sS,mask-2.png,mask-3.png,h,0,0.45435349992476404,h,0,0.07963060005567968,0.047290199901908636,0.0473342000041157,0.10037470003589988,0.10055879992432892,0.7483268999494612
RSVPLG03,cs,20260415-141826,1.0.2,20251105-084826,821,Experiment,Both,1,Automatic,main,58,20260415-143547,local,local,750,S,S,A,A,A-S.png,A-S.png,sS,sS,mask-4.png,mask-2.png,h,0,0.39009370002895594,h,0,0.0759578999131918,0.046789800049737096,0.048686299938708544,0.09973650006577373,0.10087909991852939,0.7486660000868142
RSVPLG03,cs,20260415-141826,1.0.2,20251105-084826,821,Experiment,Both,1,Automatic,main,59,20260415-143552,global,local,300,H,H,A,E,H-A.png,E-H.png,hH,hH,mask-4.png,mask-3.png,h,1,0.54430319997482,s,0,0.04903990007005632,0.047543999971821904,0.046881800051778555,0.10055520012974739,0.09961949987336993,0.3002357000950724
RSVPLG03,cs,20260415-141826,1.0.2,20251105-084826,821,Experiment,Both,1,Automatic,main,60,20260415-143556,local,global,300,S,H,A,A,A-S.png,H-A.png,sS,hH,mask-1.png,mask-2.png,s,1,0.588874900015071,h,1,0.0523156002163887,0.04578449996188283,0.04731229995377362,0.09975230018608272,0.10018730000592768,0.2986653000116348
RSVPLG03,cs,20260415-141826,1.0.2,20251105-084826,821,Experiment,Both,1,Automatic,main,61,20260415-143601,local,global,300,S,H,E,A,E-S.png,H-A.png,sS,hH,mask-2.png,mask-1.png,s,1,0.48933620005846024,h,1,0.07401879993267357,0.04768859990872443,0.04581089993007481,0.09979849983938038,0.09852369991131127,0.300453299889341
RSVPLG03,cs,20260415-141826,1.0.2,20251105-084826,821,Experiment,Both,1,Automatic,main,62,20260415-143605,local,global,750,S,H,E,A,E-S.png,H-A.png,sS,hH,mask-3.png,mask-2.png,s,1,0.4037458000238985,h,1,0.11322850012220442,0.04651489993557334,0.04566709999926388,0.09961070003919303,0.09886449994519353,0.7493092999793589
RSVPLG03,cs,20260415-141826,1.0.2,20251105-084826,821,Experiment,Both,1,Automatic,main,63,20260415-143609,global,global,750,S,S,E,E,S-E.png,S-E.png,sS,sS,mask-1.png,mask-4.png,s,1,0.41442950000055134,s,1,0.07000509998761117,0.04881289997138083,0.04621160007081926,0.10102920001372695,0.09898720006458461,0.7492293999530375
RSVPLG03,cs,20260415-141826,1.0.2,20251105-084826,821,Experiment,Both,1,Automatic,main,64,20260415-143614,local,global,750,S,S,E,A,E-S.png,S-A.png,sS,sS,mask-1.png,mask-3.png,s,1,0.43064079992473125,s,1,0.08993330015800893,0.046739700017496943,0.04656179994344711,0.09983680001460016,0.09867019997909665,0.7495122000109404
RSVPLG03,cs,20260415-141826,1.0.2,20251105-084826,821,Experiment,Both,1,Automatic,main,65,20260415-143619,global,global,750,S,S,E,A,S-E.png,S-A.png,sS,sS,mask-4.png,mask-2.png,s,1,0.3860082000028342,s,1,0.08635700005106628,0.046511400025337934,0.04756970005109906,0.09980989992618561,0.10015970002859831,0.748319200007245
RSVPLG03,cs,20260415-141826,1.0.2,20251105-084826,821,Experiment,Both,1,Automatic,main,66,20260415-143623,local,global,750,H,H,E,A,E-H.png,H-A.png,hH,hH,mask-4.png,mask-4.png,s,0,0.6602658999618143,h,1,0.03419060003943741,0.04752229992300272,0.04780549998395145,0.10059229983016849,0.09980460000224411,0.748676999937743
RSVPLG03,cs,20260415-141826,1.0.2,20251105-084826,821,Experiment,Both,1,Automatic,main,67,20260415-143628,local,local,300,H,H,E,E,E-H.png,E-H.png,hH,hH,mask-3.png,mask-1.png,s,0,0.3963065999560058,s,0,0.07453040010295808,0.04750510002486408,0.04738770006224513,0.10055740014649928,0.1003707000054419,0.2995670000091195
RSVPLG03,cs,20260415-141826,1.0.2,20251105-084826,821,Experiment,Both,1,Automatic,main,68,20260415-143632,local,local,750,H,S,A,E,A-H.png,E-S.png,hH,sS,mask-4.png,mask-3.png,h,1,0.4803917999379337,s,1,0.07818539999425411,0.04653330007568002,0.04852590011432767,0.09979319991543889,0.10055920016020536,0.7482159999199212
RSVPLG03,cs,20260415-141826,1.0.2,20251105-084826,821,Experiment,Both,1,Automatic,main,69,20260415-143637,local,local,750,H,H,E,A,E-H.png,A-H.png,hH,hH,mask-4.png,mask-1.png,s,0,0.5106110000051558,h,1,0.07705500000156462,0.04752710019238293,0.047565899789333344,0.09956150013022125,0.10158319980837405,0.7482387002091855
RSVPLG03,cs,20260415-141826,1.0.2,20251105-084826,821,Experiment,Both,1,Automatic,main,70,20260415-143642,global,global,300,S,S,A,A,S-A.png,S-A.png,sS,sS,mask-2.png,mask-3.png,s,1,0.3520035999827087,s,1,0.060133400140330195,0.04755780007690191,0.04683310003019869,0.09971400001086295,0.0995533000677824,0.29953410010784864
RSVPLG03,cs,20260415-141826,1.0.2,20251105-084826,821,Experiment,Both,1,Automatic,main,71,20260415-143646,global,global,300,H,S,E,A,H-E.png,S-A.png,hH,sS,mask-4.png,mask-2.png,h,1,0.4634175000246614,s,1,0.05317530012689531,0.04751510010100901,0.047299700090661645,0.09955670009367168,0.09865309996530414,0.30037489999085665
RSVPLG03,cs,20260415-141826,1.0.2,20251105-084826,821,Experiment,Both,1,Automatic,main,72,20260415-143650,local,global,750,S,S,A,E,A-S.png,S-E.png,sS,sS,mask-4.png,mask-4.png,h,0,0.5025147998239845,s,1,0.08740899991244078,0.04743260005488992,0.048563600052148104,0.09942730003967881,0.09982039988972247,0.7483093000482768
RSVPLG03,cs,20260415-141826,1.0.2,20251105-084826,821,Experiment,Both,1,Automatic,main,73,20260415-143655,global,global,750,S,S,E,E,S-E.png,S-E.png,sS,sS,mask-4.png,mask-1.png,s,1,0.34041610010899603,s,1,0.06371779995970428,0.04674799996428192,0.047541300067678094,0.09984599985182285,0.09855929994955659,0.7499458999373019
RSVPLG03,cs,20260415-141826,1.0.2,20251105-084826,821,Experiment,Both,1,Automatic,main,74,20260415-143700,global,local,750,H,H,E,A,H-E.png,A-H.png,hH,hH,mask-1.png,mask-4.png,h,1,0.3664996000006795,h,1,0.0900286000687629,0.04753550002351403,0.047521299915388227,0.10153290000744164,0.10053590009920299,0.7493545999750495
RSVPLG03,cs,20260415-141826,1.0.2,20251105-084826,821,Experiment,Both,1,Automatic,main,75,20260415-143704,local,local,300,S,H,A,A,A-S.png,A-H.png,sS,hH,mask-4.png,mask-1.png,h,0,0.6725439999718219,h,1,0.09001859999261796,0.04750950005836785,0.046997199999168515,0.09852500003762543,0.09919300000183284,0.2990284999832511
RSVPLG03,cs,20260415-141826,1.0.2,20251105-084826,821,Experiment,Both,1,Automatic,main,76,20260415-143710,local,local,300,S,S,E,E,E-S.png,E-S.png,sS,sS,mask-1.png,mask-3.png,s,1,1.0961658000014722,s,1,0.07486570021137595,0.047766200033947825,0.04739099997095764,0.09978249995037913,0.09942140011116862,0.300757999997586
RSVPLG03,cs,20260415-141826,1.0.2,20251105-084826,821,Experiment,Both,1,Automatic,main,77,20260415-143714,local,local,750,H,S,E,E,E-H.png,E-S.png,hH,sS,mask-4.png,mask-2.png,s,0,0.5174930000212044,s,1,0.059928399976342916,0.04728799988515675,0.046602100133895874,0.10030769999139011,0.09964159992523491,0.7486053998582065
RSVPLG03,cs,20260415-141826,1.0.2,20251105-084826,821,Experiment,Both,1,Automatic,main,78,20260415-143719,local,global,750,S,S,A,A,A-S.png,S-A.png,sS,sS,mask-3.png,mask-2.png,s,1,0.5225600001867861,s,1,0.06218679994344711,0.047535600140690804,0.0475874999538064,0.10054720006883144,0.09861319977790117,0.7499598001595587
RSVPLG03,cs,20260415-141826,1.0.2,20251105-084826,821,Experiment,Both,1,Automatic,main,79,20260415-143724,local,local,750,H,S,A,E,A-H.png,E-S.png,hH,sS,mask-2.png,mask-1.png,h,1,0.6144567001610994,h,0,0.09131649998016655,0.04829399986192584,0.04749449994415045,0.10037689981982112,0.09851579996757209,0.7498409999534488
RSVPLG03,cs,20260415-141826,1.0.2,20251105-084826,821,Experiment,Both,1,Automatic,main,80,20260415-143729,global,local,300,H,H,E,A,H-E.png,A-H.png,hH,hH,mask-1.png,mask-1.png,h,1,0.493256599875167,s,0,0.7717688998673111,0.04751980002038181,0.047519100131466985,0.10063210013322532,0.09798670001327991,0.30039420002140105
RSVPLG03,cs,20260415-141826,1.0.2,20251105-084826,821,Experiment,Both,1,Automatic,main,81,20260415-143734,local,global,300,H,H,E,A,E-H.png,H-A.png,hH,hH,mask-1.png,mask-1.png,s,0,0.7824901998974383,h,1,0.11427569994702935,0.046732099959626794,0.04667240008711815,0.09843380004167557,0.09905330021865666,0.2995907999575138
RSVPLG03,cs,20260415-141826,1.0.2,20251105-084826,821,Experiment,Both,1,Automatic,main,82,20260415-143738,local,local,750,S,S,E,E,E-S.png,E-S.png,sS,sS,mask-3.png,mask-1.png,h,0,0.45044389995746315,h,0,0.06842240015976131,0.04757259995676577,0.04872890003025532,0.09982849983498454,0.10094600007869303,0.7480213998351246
RSVPLG03,cs,20260415-141826,1.0.2,20251105-084826,821,Experiment,Both,1,Automatic,main,83,20260415-143743,global,global,750,H,S,A,A,H-A.png,S-A.png,hH,sS,mask-3.png,mask-2.png,h,1,0.32180749997496605,s,1,0.06160820019431412,0.047577699879184365,0.04751820000819862,0.0996401000302285,0.10056089982390404,0.7470388000365347
RSVPLG03,cs,20260415-141826,1.0.2,20251105-084826,821,Experiment,Both,1,Automatic,main,84,20260415-143747,global,local,750,H,H,E,A,H-E.png,A-H.png,hH,hH,mask-1.png,mask-2.png,h,1,0.49008430005051196,h,1,0.11947250016964972,0.04757030005566776,0.04753200011327863,0.09859350020997226,0.10055700014345348,0.7477859000209719
RSVPLG03,cs,20260415-141826,1.0.2,20251105-084826,821,Experiment,Both,1,Automatic,main,85,20260415-143752,local,global,300,S,H,A,A,A-S.png,H-A.png,sS,hH,mask-2.png,mask-4.png,s,1,0.8820286998525262,h,1,0.10721889999695122,0.04750310000963509,0.047548400005325675,0.09956620004959404,0.09921940020285547,0.29985189996659756
RSVPLG03,cs,20260415-141826,1.0.2,20251105-084826,821,Experiment,Both,1,Automatic,main,86,20260415-143757,global,global,750,S,S,E,E,S-E.png,S-E.png,sS,sS,mask-2.png,mask-1.png,s,1,0.4045742000453174,s,1,0.06840309989638627,0.04847849998623133,0.04666469991207123,0.10047090006992221,0.09983170009218156,0.7493125000037253
RSVPLG03,cs,20260415-141826,1.0.2,20251105-084826,821,Experiment,Both,1,Automatic,main,87,20260415-143801,local,local,300,S,S,A,E,A-S.png,E-S.png,sS,sS,mask-4.png,mask-2.png,h,0,1.0768025999423116,s,1,0.03465269994921982,0.04551009996794164,0.04766010004095733,0.09952180017717183,0.09895340004004538,0.29782159999012947
RSVPLG03,cs,20260415-141826,1.0.2,20251105-084826,821,Experiment,Both,1,Automatic,main,88,20260415-143806,local,global,750,S,S,A,E,A-S.png,S-E.png,sS,sS,mask-1.png,mask-2.png,h,0,2.2021850999444723,s,1,0.4668416997883469,0.04681780003011227,0.04779179999604821,0.1000375000294298,0.09891679999418557,0.7487834999337792
RSVPLG03,cs,20260415-141826,1.0.2,20251105-084826,821,Experiment,Both,1,Automatic,main,89,20260415-143813,global,global,300,H,H,A,E,H-A.png,H-E.png,hH,hH,mask-2.png,mask-4.png,h,1,0.39069660007953644,h,1,0.07340000011026859,0.04757490009069443,0.04671599995344877,0.10024529998190701,0.09973049978725612,0.29943040013313293
RSVPLG03,cs,20260415-141826,1.0.2,20251105-084826,821,Experiment,Both,1,Automatic,main,90,20260415-143817,global,local,750,H,H,E,A,H-E.png,A-H.png,hH,hH,mask-1.png,mask-1.png,h,1,0.5837834000121802,h,1,0.07479030010290444,0.0476218000985682,0.047618999844416976,0.09868820011615753,0.1008725999854505,0.7480389000847936
RSVPLG03,cs,20260415-141826,1.0.2,20251105-084826,821,Experiment,Both,1,Automatic,main,91,20260415-143822,global,local,750,H,S,A,A,H-A.png,A-S.png,hH,sS,mask-3.png,mask-4.png,h,1,0.7419968000613153,h,0,0.086568099912256,0.04675920004956424,0.047576599987223744,0.09961730008944869,0.09958330006338656,0.7500666999258101
RSVPLG03,cs,20260415-141826,1.0.2,20251105-084826,821,Experiment,Both,1,Automatic,main,92,20260415-143827,global,global,750,H,H,A,A,H-A.png,H-A.png,hH,hH,mask-3.png,mask-1.png,h,1,0.49337379983626306,h,1,0.09240099997259676,0.04856589995324612,0.046548299957066774,0.10018730000592768,0.09812070010229945,0.7504509999416769
RSVPLG03,cs,20260415-141826,1.0.2,20251105-084826,821,Experiment,Both,1,Automatic,main,93,20260415-143832,global,global,300,H,S,A,E,H-A.png,S-E.png,hH,sS,mask-4.png,mask-2.png,h,1,0.47218160005286336,s,1,0.054235999938100576,0.04747639992274344,0.04674319992773235,0.10140120005235076,0.10086429980583489,0.2997149000875652
RSVPLG03,cs,20260415-141826,1.0.2,20251105-084826,821,Experiment,Both,1,Automatic,main,94,20260415-143836,local,global,300,S,S,E,A,E-S.png,S-A.png,sS,sS,mask-4.png,mask-4.png,h,0,1.918547300156206,s,1,0.13044340000487864,0.046676799887791276,0.046945299953222275,0.10071719996631145,0.10079440008848906,0.2987052998505533
RSVPLG03,cs,20260415-141826,1.0.2,20251105-084826,821,Experiment,Both,1,Automatic,main,95,20260415-143842,global,global,300,H,S,A,E,H-A.png,S-E.png,hH,sS,mask-2.png,mask-3.png,h,1,0.4542688000947237,s,1,0.11887010000646114,0.04782039998099208,0.04560840013436973,0.099940599873662,0.09962470014579594,0.3012525998055935
RSVPLG03,cs,20260415-141826,1.0.2,20251105-084826,821,Experiment,Both,1,Automatic,main,96,20260415-143846,local,local,750,H,S,A,A,A-H.png,A-S.png,hH,sS,mask-1.png,mask-1.png,s,0,1.651550699956715,h,0,0.09026169986464083,0.045740799978375435,0.048545700032263994,0.09881919994950294,0.10057939984835684,0.7480470000300556
RSVPLG03,cs,20260415-141826,1.0.2,20251105-084826,821,Experiment,Both,1,Automatic,main,97,20260415-143852,local,local,300,H,S,A,E,A-H.png,E-S.png,hH,sS,mask-1.png,mask-1.png,h,1,1.0349789001047611,s,1,0.0569025999866426,0.04660380003042519,0.04770489991642535,0.10056859999895096,0.09990489995107055,0.29914260003715754
RSVPLG03,cs,20260415-141826,1.0.2,20251105-084826,821,Experiment,Both,1,Automatic,main,98,20260415-143856,global,global,300,S,H,E,A,S-E.png,H-A.png,sS,hH,mask-1.png,mask-2.png,s,1,0.5855987998656929,s,0,0.15402100002393126,0.04773440002463758,0.046272199833765626,0.09919330012053251,0.0983566998038441,0.29994940012693405
RSVPLG03,cs,20260415-141826,1.0.2,20251105-084826,821,Experiment,Both,1,Automatic,main,99,20260415-143901,global,local,300,S,H,A,E,S-A.png,E-H.png,sS,hH,mask-1.png,mask-4.png,s,1,0.6347584999166429,h,1,0.05301599996164441,0.04882939998060465,0.04774179984815419,0.10002449993044138,0.09996909997425973,0.2996785999275744
RSVPLG03,cs,20260415-141826,1.0.2,20251105-084826,821,Experiment,Both,1,Automatic,main,100,20260415-143905,local,local,300,S,S,A,A,A-S.png,A-S.png,sS,sS,mask-4.png,mask-4.png,h,0,0.44052039994858205,h,0,0.0754742999561131,0.04871560004539788,0.047718900023028255,0.09994360012933612,0.09894130006432533,0.30046309996396303
