exp,exp_initials,runtime,ver,modtime,sub,blocktype,targets,cuetype,mode,trialtype,trial,trialtime,t1_level,t2_level,t2_lag,t1,t2,distractor1,distractor2,stimfile1,stimfile2,t1_corr,t2_corr,maskfile1,maskfile2,t1_resp,t1_acc,t1_rt,t2_resp,t2_acc,t2_rt,t1_dur,t2_dur,t1mask_soa,t2mask_soa,t1t2_soa
RSVPLG03,km,20260305-160808,1.0.2,20251113-095759,789,Introduction,T1,1,Automatic,main,1,20260305-160840,local,global,750,S,H,E,A,E-S.png,H-A.png,sS,hH,mask-2.png,mask-3.png,s,1,1.7588054000225384,none,-5,0,0.10119679998024367,0.09999690001131967,0.20019390000379644,0.2000842000124976,0.751174799981527
RSVPLG03,km,20260305-160808,1.0.2,20251113-095759,789,Introduction,T1,1,Automatic,main,2,20260305-160846,local,local,750,H,S,A,A,A-H.png,A-S.png,hH,sS,mask-1.png,mask-2.png,h,1,0.4579721000045538,none,-5,0,0.0988948000012897,0.10001870000269264,0.19995869998820126,0.20003959999303333,0.7511063999845646
RSVPLG03,km,20260305-160808,1.0.2,20251113-095759,789,Introduction,T1,1,Automatic,main,3,20260305-160851,global,global,750,H,H,A,E,H-A.png,H-E.png,hH,hH,mask-1.png,mask-4.png,h,1,0.6602375999791548,none,-5,0,0.099576500011608,0.10186429999885149,0.19954760000109673,0.20171329998993315,0.7494012000097428
RSVPLG03,km,20260305-160808,1.0.2,20251113-095759,789,Introduction,T1,1,Automatic,main,4,20260305-160856,global,global,750,S,H,E,A,S-E.png,H-A.png,sS,hH,mask-1.png,mask-3.png,s,1,0.3451193999790121,none,-5,0,0.10060030000749975,0.09996249998221174,0.19965720002073795,0.20123720000265166,0.751362600014545
RSVPLG03,km,20260305-160808,1.0.2,20251113-095759,789,Introduction,T1,1,Automatic,main,5,20260305-160900,global,global,750,H,H,A,E,H-A.png,H-E.png,hH,hH,mask-3.png,mask-4.png,h,1,0.831547000008868,none,-5,0,0.10099130001617596,0.09938379999948665,0.19990649999817833,0.20074480000766926,0.7517556000093464
RSVPLG03,km,20260305-160808,1.0.2,20251113-095759,789,Introduction,T1,1,Automatic,main,6,20260305-160905,global,global,750,H,S,E,E,H-E.png,S-E.png,hH,sS,mask-4.png,mask-2.png,h,1,0.5921520999982022,none,-5,0,0.1002147999824956,0.09916709997924045,0.20169439999153838,0.19979289997718297,0.7521303000103217
RSVPLG03,km,20260305-160808,1.0.2,20251113-095759,789,Introduction,T1,1,Automatic,main,7,20260305-160910,local,global,750,S,S,E,E,E-S.png,S-E.png,sS,sS,mask-3.png,mask-3.png,s,1,0.4980245999759063,none,-5,0,0.09949500000220723,0.09914410000783391,0.20049720001406968,0.19934749999083579,0.7523325000074692
RSVPLG03,km,20260305-160808,1.0.2,20251113-095759,789,Introduction,T1,1,Automatic,main,8,20260305-160915,local,local,750,S,H,E,A,E-S.png,A-H.png,sS,hH,mask-4.png,mask-4.png,s,1,0.3412745999812614,none,-5,0,0.10045969998463988,0.10008580001886003,0.20034029998350888,0.20112880002125166,0.7508197999850381
RSVPLG03,km,20260305-160808,1.0.2,20251113-095759,789,Introduction,T1,1,Automatic,main,9,20260305-160919,local,local,750,S,H,A,E,A-S.png,E-H.png,sS,hH,mask-1.png,mask-3.png,s,1,0.2861675999884028,none,-5,0,0.09867550001945347,0.10007869999390095,0.1993611000070814,0.20006040000589564,0.7512858000118285
RSVPLG03,km,20260305-160808,1.0.2,20251113-095759,789,Introduction,T1,1,Automatic,main,10,20260305-160924,local,local,750,H,S,A,E,A-H.png,E-S.png,hH,sS,mask-1.png,mask-1.png,h,1,0.23847149999346584,none,-5,0,0.10012799999094568,0.10147010002401657,0.20074999998905696,0.20217390000470914,0.7503120999899693
RSVPLG03,km,20260305-160808,1.0.2,20251113-095759,789,Introduction,T1,1,Automatic,main,11,20260305-160928,global,local,750,S,S,E,E,S-E.png,E-S.png,sS,sS,mask-3.png,mask-3.png,s,1,0.5150035999831744,none,-5,0,0.09934519999660552,0.10148620000109076,0.19827940000686795,0.20208439999260008,0.74881990000722
RSVPLG03,km,20260305-160808,1.0.2,20251113-095759,789,Introduction,T1,1,Automatic,main,12,20260305-160933,global,local,750,H,H,A,E,H-A.png,E-H.png,hH,hH,mask-4.png,mask-1.png,none,-6,0,none,-5,0,0.10027250001439825,0.0996086000232026,0.19932839999091811,0.19923490000655875,0.7519592999888118
RSVPLG03,km,20260305-160946,1.0.2,20251113-095759,789,Practice,T1,1,Automatic,main,1,20260305-161018,global,global,300,S,S,A,E,S-A.png,S-E.png,sS,sS,mask-3.png,mask-1.png,s,1,0.6786087000218686,none,-5,0,0.05053049998241477,0.05211069999495521,0.09939519999898039,0.10099259999697097,0.3006210000021383
RSVPLG03,km,20260305-160946,1.0.2,20251113-095759,789,Practice,T1,1,Automatic,main,2,20260305-161022,global,local,300,S,H,E,A,S-E.png,A-H.png,sS,hH,mask-3.png,mask-1.png,s,1,0.38261110000894405,none,-5,0,0.050683700013905764,0.051093899994157255,0.10271899998770095,0.10085519999847747,0.3014882999996189
RSVPLG03,km,20260305-160946,1.0.2,20251113-095759,789,Practice,T1,1,Automatic,main,3,20260305-161026,local,local,750,S,S,E,A,E-S.png,A-S.png,sS,sS,mask-4.png,mask-1.png,s,1,0.5500985999824479,none,-5,0,0.05100239999592304,0.04799529997399077,0.10096369998063892,0.09983949997695163,0.7567317000066396
RSVPLG03,km,20260305-160946,1.0.2,20251113-095759,789,Practice,T1,1,Automatic,main,4,20260305-161031,local,local,300,H,H,A,E,A-H.png,E-H.png,hH,hH,mask-2.png,mask-4.png,h,1,0.6277463000151329,none,-5,0,0.05081799998879433,0.05107210000278428,0.10291049999068491,0.10086480001336895,0.30220929998904467
RSVPLG03,km,20260305-160946,1.0.2,20251113-095759,789,Practice,T1,1,Automatic,main,5,20260305-161035,local,global,750,S,H,A,E,A-S.png,H-E.png,sS,hH,mask-4.png,mask-4.png,s,1,0.32034269999712706,none,-5,0,0.05099400001927279,0.05043409997597337,0.10086930001853034,0.10167179998825304,0.7556181000254583
RSVPLG03,km,20260305-160946,1.0.2,20251113-095759,789,Practice,T1,1,Automatic,main,6,20260305-161039,global,local,750,S,H,E,E,S-E.png,E-H.png,sS,hH,mask-1.png,mask-1.png,s,1,0.43774669998674653,none,-5,0,0.050074700004188344,0.05100710000260733,0.10030069999629632,0.10132719998364337,0.7542018000094686
RSVPLG03,km,20260305-160946,1.0.2,20251113-095759,789,Practice,T1,1,Automatic,main,7,20260305-161044,local,global,750,H,S,A,A,A-H.png,S-A.png,hH,sS,mask-2.png,mask-1.png,h,1,0.31273240002337843,none,-5,0,0.05118629999924451,0.04961280000861734,0.10056500000064261,0.10066759999608621,0.7560004999977536
RSVPLG03,km,20260305-160946,1.0.2,20251113-095759,789,Practice,T1,1,Automatic,main,8,20260305-161048,global,global,300,H,S,E,E,H-E.png,S-E.png,hH,sS,mask-4.png,mask-1.png,h,1,0.8556238999881316,none,-5,0,0.051321999984793365,0.05079119998845272,0.10089559998596087,0.10082239998155273,0.30141590000130236
RSVPLG03,km,20260305-160946,1.0.2,20251113-095759,789,Practice,T1,1,Automatic,main,9,20260305-161053,local,global,300,S,S,E,A,E-S.png,S-A.png,sS,sS,mask-3.png,mask-4.png,s,1,1.8301470000005793,none,-5,0,0.04967249999754131,0.05052590000559576,0.09962910000467673,0.10199209998245351,0.30183840001700446
RSVPLG03,km,20260305-160946,1.0.2,20251113-095759,789,Practice,T1,1,Automatic,main,10,20260305-161058,local,local,750,H,S,A,A,A-H.png,A-S.png,hH,sS,mask-2.png,mask-2.png,h,1,0.4006933000055142,none,-5,0,0.0492824999964796,0.05226190001121722,0.1005361000134144,0.10197809999226592,0.7534556000027806
RSVPLG03,km,20260305-160946,1.0.2,20251113-095759,789,Practice,T1,1,Automatic,main,11,20260305-161102,global,local,300,S,H,E,A,S-E.png,A-H.png,sS,hH,mask-1.png,mask-3.png,s,1,0.3947098000207916,none,-5,0,0.05061180001939647,0.04940889999852516,0.1012615000072401,0.10031229999731295,0.3028655000089202
RSVPLG03,km,20260305-160946,1.0.2,20251113-095759,789,Practice,T1,1,Automatic,main,12,20260305-161107,local,local,300,S,S,E,E,E-S.png,E-S.png,sS,sS,mask-2.png,mask-4.png,s,1,0.3420411000261083,none,-5,0,0.04961730001377873,0.05095249999430962,0.10118060000240803,0.10106079999241047,0.301769100013189
RSVPLG03,km,20260305-160946,1.0.2,20251113-095759,789,Practice,T1,1,Automatic,main,13,20260305-161110,global,global,750,H,S,E,E,H-E.png,S-E.png,hH,sS,mask-4.png,mask-4.png,h,1,0.3237803000083659,none,-5,0,0.0500058000034187,0.049631400004727766,0.10203539999201894,0.10073340000235476,0.7557568000047468
RSVPLG03,km,20260305-160946,1.0.2,20251113-095759,789,Practice,T1,1,Automatic,main,14,20260305-161115,global,global,750,H,H,A,E,H-A.png,H-E.png,hH,hH,mask-1.png,mask-4.png,h,1,0.4755775999801699,none,-5,0,0.05109870000160299,0.0500000000174623,0.10107710000011139,0.09956060000695288,0.7561399999831337
RSVPLG03,km,20260305-160946,1.0.2,20251113-095759,789,Practice,T1,1,Automatic,main,15,20260305-161119,global,local,750,S,S,A,E,S-A.png,E-S.png,sS,sS,mask-4.png,mask-4.png,s,1,0.3701823999872431,none,-5,0,0.05094369998550974,0.05001720000291243,0.10086049998062663,0.10032580001279712,0.7559860999754164
RSVPLG03,km,20260305-160946,1.0.2,20251113-095759,789,Practice,T1,1,Automatic,main,16,20260305-161124,local,global,300,S,S,A,A,A-S.png,S-A.png,sS,sS,mask-3.png,mask-1.png,s,1,0.49456419999478385,none,-5,0,0.05099870002595708,0.050960299995495006,0.101163200015435,0.10095490000094287,0.3022021000215318
RSVPLG03,km,20260305-161159,1.0.2,20251113-095759,789,Introduction,Both,1,Automatic,main,1,20260305-161233,local,local,750,S,S,E,A,E-S.png,A-S.png,sS,sS,mask-2.png,mask-4.png,s,1,1.708722100011073,s,1,0.7649046999868006,0.10153010001522489,0.09860339999431744,0.20101160000194795,0.19997039998997934,0.7524405000149272
RSVPLG03,km,20260305-161159,1.0.2,20251113-095759,789,Introduction,Both,1,Automatic,main,2,20260305-161240,local,global,750,H,S,E,A,E-H.png,S-A.png,hH,sS,mask-4.png,mask-3.png,h,1,4.05627000000095,h,0,1.166022499994142,0.09929660000489093,0.10065899998880923,0.19964979999349453,0.20078929999726824,0.7505481000116561
RSVPLG03,km,20260305-161159,1.0.2,20251113-095759,789,Introduction,Both,1,Automatic,main,3,20260305-161250,local,global,750,S,H,A,A,A-S.png,H-A.png,sS,hH,mask-1.png,mask-2.png,s,1,1.7015283999789972,h,1,1.1502114000031725,0.0989844000141602,0.10032070000306703,0.20034479998867027,0.19953509999322705,0.7499392000027001
RSVPLG03,km,20260305-161159,1.0.2,20251113-095759,789,Introduction,Both,1,Automatic,main,4,20260305-161257,global,local,750,S,S,A,A,S-A.png,A-S.png,sS,sS,mask-1.png,mask-3.png,s,1,0.5825416000152472,h,0,0.36748630000511184,0.09977199998684227,0.09981499999412335,0.20136300000012852,0.19875909999245778,0.7518106999923475
RSVPLG03,km,20260305-161159,1.0.2,20251113-095759,789,Introduction,Both,1,Automatic,main,5,20260305-161302,local,local,750,S,H,A,E,A-S.png,E-H.png,sS,hH,mask-3.png,mask-2.png,s,1,1.4861992000078317,h,1,0.527364999987185,0.09783889999380335,0.10161770001286641,0.19819789999746718,0.20035870000720024,0.7486385999945924
RSVPLG03,km,20260305-161159,1.0.2,20251113-095759,789,Introduction,Both,1,Automatic,main,6,20260305-161308,global,global,750,H,S,E,E,H-E.png,S-E.png,hH,sS,mask-3.png,mask-4.png,h,1,1.1544928999792319,s,1,0.397760499996366,0.10102439997717738,0.10056489999988116,0.20123519998742267,0.20115780000924133,0.7497876999841537
RSVPLG03,km,20260305-161159,1.0.2,20251113-095759,789,Introduction,Both,1,Automatic,main,7,20260305-161314,global,global,750,H,H,A,E,H-A.png,H-E.png,hH,hH,mask-1.png,mask-1.png,h,1,0.4169019999972079,h,1,0.334504400001606,0.09972269998979755,0.09976379998261109,0.199590200005332,0.2013227999850642,0.7491142000071704
RSVPLG03,km,20260305-161159,1.0.2,20251113-095759,789,Introduction,Both,1,Automatic,main,8,20260305-161319,local,local,750,H,S,E,E,E-H.png,E-S.png,hH,sS,mask-3.png,mask-3.png,h,1,0.6318947999970987,s,1,0.334364700014703,0.10168310001608916,0.10184870002558455,0.20091109999339096,0.20166920000337996,0.7500109999964479
RSVPLG03,km,20260305-161159,1.0.2,20251113-095759,789,Introduction,Both,1,Automatic,main,9,20260305-161325,local,global,750,S,S,E,A,E-S.png,S-A.png,sS,sS,mask-4.png,mask-2.png,s,1,1.3886580999824218,h,0,0.4943100000091363,0.10097339999629185,0.10083410001243465,0.20031799998832867,0.2012403999979142,0.7498719999857713
RSVPLG03,km,20260305-161159,1.0.2,20251113-095759,789,Introduction,Both,1,Automatic,main,10,20260305-161331,global,global,750,H,S,E,E,H-E.png,S-E.png,hH,sS,mask-4.png,mask-4.png,s,0,3.858459999988554,s,1,0.31659130001207814,0.09979140001814812,0.10086629999568686,0.19938820000970736,0.199953600007575,0.749695000005886
RSVPLG03,km,20260305-161159,1.0.2,20251113-095759,789,Introduction,Both,1,Automatic,main,11,20260305-161339,global,local,750,H,S,E,E,H-E.png,E-S.png,hH,sS,mask-1.png,mask-1.png,h,1,0.36369890000787564,s,1,0.23377239998080768,0.10025029999087565,0.10092699999222532,0.1997198000026401,0.19978379999520257,0.7505627000064123
RSVPLG03,km,20260305-161159,1.0.2,20251113-095759,789,Introduction,Both,1,Automatic,main,12,20260305-161344,global,local,750,S,H,E,A,S-E.png,A-H.png,sS,hH,mask-4.png,mask-1.png,s,1,0.4487133000220638,h,1,0.17194579998613335,0.10168819999671541,0.0987260999972932,0.20065370001248084,0.19955399999162182,0.7516985000111163
RSVPLG03,km,20260305-161159,1.0.2,20251113-095759,789,Introduction,Both,1,Automatic,main,13,20260305-161349,global,local,750,S,S,A,A,S-A.png,A-S.png,sS,sS,mask-3.png,mask-3.png,s,1,0.5013967000122648,h,0,0.31861420001951046,0.10185490001458675,0.09986230000504293,0.2007852999959141,0.20092219999060035,0.7520673999970313
RSVPLG03,km,20260305-161159,1.0.2,20251113-095759,789,Introduction,Both,1,Automatic,main,14,20260305-161354,global,global,750,S,S,A,A,S-A.png,S-A.png,sS,sS,mask-4.png,mask-3.png,s,1,0.34017989999847487,s,1,0.36659550000331365,0.10095369999180548,0.10066460000234656,0.2015067999891471,0.19984670000849292,0.7515659999917261
RSVPLG03,km,20260305-161159,1.0.2,20251113-095759,789,Introduction,Both,1,Automatic,main,15,20260305-161359,local,local,750,S,H,A,A,A-S.png,A-H.png,sS,hH,mask-2.png,mask-1.png,s,1,0.4223895999894012,h,1,0.39659889999893494,0.09948039997834712,0.10074640001403168,0.1991853999788873,0.2015397000068333,0.7500697999785189
RSVPLG03,km,20260305-161159,1.0.2,20251113-095759,789,Introduction,Both,1,Automatic,main,16,20260305-161405,local,global,750,S,H,A,E,A-S.png,H-E.png,sS,hH,mask-1.png,mask-1.png,s,1,2.5176450999861117,h,1,0.0607099000189919,0.09995020000496879,0.09869460001937114,0.20202930000959896,0.19832540000788867,0.7520684000046458
RSVPLG03,km,20260305-161443,1.0.2,20251113-095759,789,Practice,Both,1,Automatic,main,1,20260305-161505,global,global,300,H,S,A,E,H-A.png,S-E.png,hH,sS,mask-1.png,mask-4.png,h,1,1.1382961999916006,s,1,0.12561809999169782,0.04022809999878518,0.051088000007439405,0.08955229999264702,0.10044100001687184,0.29021899998770095
RSVPLG03,km,20260305-161443,1.0.2,20251113-095759,789,Practice,Both,1,Automatic,main,2,20260305-161510,local,global,750,H,H,A,A,A-H.png,H-A.png,hH,hH,mask-2.png,mask-3.png,h,1,1.5877724000019953,s,0,0.9578083999804221,0.05079830001341179,0.051604900014353916,0.10074369999347255,0.10007630000473,0.7492771999968681
RSVPLG03,km,20260305-161443,1.0.2,20251113-095759,789,Practice,Both,1,Automatic,main,3,20260305-161517,global,global,750,S,H,A,A,S-A.png,H-A.png,sS,hH,mask-2.png,mask-2.png,s,1,0.6305399999837391,h,1,0.12371149999671616,0.05070300001534633,0.05106200001318939,0.09984169999370351,0.10130219999700785,0.7504159999953117
RSVPLG03,km,20260305-161443,1.0.2,20251113-095759,789,Practice,Both,1,Automatic,main,4,20260305-161522,global,local,750,H,H,A,A,H-A.png,A-H.png,hH,hH,mask-1.png,mask-1.png,h,1,1.0737468000152148,h,1,0.1575482999905944,0.050680400017881766,0.04820439999457449,0.10172760000568815,0.09943849997944199,0.7519978000200354
RSVPLG03,km,20260305-161443,1.0.2,20251113-095759,789,Practice,Both,1,Automatic,main,5,20260305-161527,local,global,300,H,S,E,E,E-H.png,S-E.png,hH,sS,mask-2.png,mask-3.png,h,1,1.6098917999770492,s,1,0.12654230001498945,0.049810899974545464,0.04936740000266582,0.09951689999434166,0.09980179998092353,0.30046739999670535
RSVPLG03,km,20260305-161443,1.0.2,20251113-095759,789,Practice,Both,1,Automatic,main,6,20260305-161533,global,global,300,H,H,E,A,H-E.png,H-A.png,hH,hH,mask-2.png,mask-4.png,h,1,0.6774252999748569,h,1,0.18933229998219758,0.050870000006398186,0.050664000009419397,0.10081109998282045,0.10150930000236258,0.299388799990993
RSVPLG03,km,20260305-161443,1.0.2,20251113-095759,789,Practice,Both,1,Automatic,main,7,20260305-161537,global,local,300,H,H,A,A,H-A.png,A-H.png,hH,hH,mask-3.png,mask-3.png,h,1,0.44613520000712015,h,1,0.12772250000853091,0.050107000017305836,0.04966920000151731,0.09977190001518466,0.0993564999953378,0.3000408000079915
RSVPLG03,km,20260305-161443,1.0.2,20251113-095759,789,Practice,Both,1,Automatic,main,8,20260305-161542,global,local,750,S,H,A,E,S-A.png,E-H.png,sS,hH,mask-4.png,mask-2.png,s,1,1.410731800016947,h,1,0.4286549000244122,0.04948869999498129,0.05000220000511035,0.09903320000739768,0.10004819999448955,0.7493623000045773
RSVPLG03,km,20260305-161443,1.0.2,20251113-095759,789,Practice,Both,1,Automatic,main,9,20260305-161548,local,local,300,H,H,E,A,E-H.png,A-H.png,hH,hH,mask-4.png,mask-3.png,h,1,0.4331318000040483,h,1,0.06168509999406524,0.05173159998957999,0.04873609999776818,0.10160160000668839,0.10044639999978244,0.30126819998258725
RSVPLG03,km,20260305-161443,1.0.2,20251113-095759,789,Practice,Both,1,Automatic,main,10,20260305-161552,global,local,300,S,H,E,A,S-E.png,A-H.png,sS,hH,mask-3.png,mask-2.png,s,1,0.7519164999830537,h,1,0.8963126000016928,0.04831400001421571,0.04930189999868162,0.09974800000782125,0.09946490000584163,0.2992376000038348
RSVPLG03,km,20260305-161443,1.0.2,20251113-095759,789,Practice,Both,1,Automatic,main,11,20260305-161556,local,global,750,H,H,A,A,A-H.png,H-A.png,hH,hH,mask-3.png,mask-2.png,h,1,0.8164893999928609,h,1,0.10852680000243708,0.04942789999768138,0.05012679999344982,0.10022189997835085,0.09867239999584854,0.7508929999894463
RSVPLG03,km,20260305-161443,1.0.2,20251113-095759,789,Practice,Both,1,Automatic,main,12,20260305-161601,local,global,300,S,H,A,E,A-S.png,H-E.png,sS,hH,mask-4.png,mask-3.png,s,1,0.44659259999752976,h,1,0.047128900012467057,0.05017439997754991,0.05041419999906793,0.09975850000046194,0.1016315000015311,0.2988875999872107
RSVPLG03,km,20260305-161443,1.0.2,20251113-095759,789,Practice,Both,1,Automatic,main,13,20260305-161605,local,local,300,H,H,A,A,A-H.png,A-H.png,hH,hH,mask-1.png,mask-4.png,h,1,0.8503976999782026,s,0,0.044465000013587996,0.050690699979895726,0.0482278999988921,0.1011964000063017,0.09898660000180826,0.30228790000546724
RSVPLG03,km,20260305-161443,1.0.2,20251113-095759,789,Practice,Both,1,Automatic,main,14,20260305-161610,global,global,750,S,H,E,A,S-E.png,H-A.png,sS,hH,mask-2.png,mask-4.png,s,1,0.36319810000713915,h,1,0.5230327000026591,0.048283300013281405,0.05091829999582842,0.09818140001152642,0.09948519998579286,0.748713700013468
RSVPLG03,km,20260305-161443,1.0.2,20251113-095759,789,Practice,Both,1,Automatic,main,15,20260305-161615,local,local,750,H,H,A,E,A-H.png,E-H.png,hH,hH,mask-4.png,mask-1.png,h,1,0.3651481000124477,h,1,0.11001239999313839,0.04984599997987971,0.04854219997650944,0.0995822999975644,0.09856319997925311,0.7516475000011269
RSVPLG03,km,20260305-161443,1.0.2,20251113-095759,789,Practice,Both,1,Automatic,main,16,20260305-161619,local,local,750,S,H,A,A,A-S.png,A-H.png,sS,hH,mask-2.png,mask-1.png,s,1,0.2617164999828674,h,1,0.04609719998552464,0.05082040000706911,0.04987119999714196,0.09931430002325214,0.09985909998067655,0.7512940000160597
RSVPLG03,km,20260305-161737,1.0.2,20251113-095759,789,Experiment,Both,1,Automatic,warmup,1,20260305-161759,local,global,300,H,H,E,E,E-H.png,H-E.png,hH,hH,mask-1.png,mask-3.png,h,1,0.6711441999941599,s,0,0.045700599992414936,0.04680270000244491,0.04933610002626665,0.09718120002071373,0.0986892000073567,0.2977848000009544
RSVPLG03,km,20260305-161737,1.0.2,20251113-095759,789,Experiment,Both,1,Automatic,warmup,2,20260305-161803,local,local,300,S,S,A,E,A-S.png,E-S.png,sS,sS,mask-3.png,mask-4.png,s,1,0.3308052999782376,s,1,0.06316099999821745,0.049633100017672405,0.04978510001092218,0.09818780000205152,0.09958850001567043,0.29890829999931157
RSVPLG03,km,20260305-161737,1.0.2,20251113-095759,789,Experiment,Both,1,Automatic,warmup,3,20260305-161807,global,local,750,S,S,E,E,S-E.png,E-S.png,sS,sS,mask-1.png,mask-1.png,s,1,0.34851750000962056,s,1,0.07656940000015311,0.04906670001219027,0.05051530001219362,0.09815490001346916,0.10015780001413077,0.7471913000044879
RSVPLG03,km,20260305-161737,1.0.2,20251113-095759,789,Experiment,Both,1,Automatic,warmup,4,20260305-161812,global,local,300,H,S,E,E,H-E.png,E-S.png,hH,sS,mask-4.png,mask-4.png,h,1,0.34663530002580956,s,1,0.062091900006635115,0.04980889998842031,0.049501100002089515,0.09952230000635609,0.0990954999870155,0.29984150000382215
RSVPLG03,km,20260305-161737,1.0.2,20251113-095759,789,Experiment,Both,1,Automatic,main,5,20260305-161816,global,local,750,S,H,E,A,S-E.png,A-H.png,sS,hH,mask-4.png,mask-4.png,s,1,0.2403368999948725,h,1,0.04478019999805838,0.04893720001564361,0.05010079999919981,0.09990520001156256,0.10102320002624765,0.7490319999924395
RSVPLG03,km,20260305-161737,1.0.2,20251113-095759,789,Experiment,Both,1,Automatic,main,6,20260305-161821,global,global,750,H,S,E,A,H-E.png,S-A.png,hH,sS,mask-3.png,mask-2.png,h,1,0.31124159999308176,s,1,0.016616799985058606,0.04999199998565018,0.05052449999493547,0.10074059999897145,0.09863480000058189,0.7502827999996953
RSVPLG03,km,20260305-161737,1.0.2,20251113-095759,789,Experiment,Both,1,Automatic,main,7,20260305-161825,local,local,300,H,S,A,E,A-H.png,E-S.png,hH,sS,mask-3.png,mask-3.png,h,1,0.3663879000232555,s,1,0.0643242999794893,0.05033929998171516,0.050604699994437397,0.1002133000001777,0.10155310001573525,0.29886829998577014
RSVPLG03,km,20260305-161737,1.0.2,20251113-095759,789,Experiment,Both,1,Automatic,main,8,20260305-161829,global,local,300,H,H,E,E,H-E.png,E-H.png,hH,hH,mask-4.png,mask-4.png,h,1,0.2625285999965854,s,0,0.06325840001227334,0.04836370001430623,0.050567700003739446,0.09777910000411794,0.10117929999250919,0.2972429000074044
RSVPLG03,km,20260305-161737,1.0.2,20251113-095759,789,Experiment,Both,1,Automatic,main,9,20260305-161833,local,global,300,H,S,A,A,A-H.png,S-A.png,hH,sS,mask-3.png,mask-1.png,h,1,0.6070116000191774,s,1,0.01178760000038892,0.04973319999407977,0.049985800025751814,0.09984549999353476,0.09967280001728795,0.2997410999960266
RSVPLG03,km,20260305-161737,1.0.2,20251113-095759,789,Experiment,Both,1,Automatic,main,10,20260305-161838,global,global,300,H,H,E,E,H-E.png,H-E.png,hH,hH,mask-1.png,mask-4.png,h,1,0.3685909000050742,h,1,0.06202000001212582,0.04889890001504682,0.049647899984847754,0.09898060001432896,0.0985248000069987,0.29977390001295134
RSVPLG03,km,20260305-161737,1.0.2,20251113-095759,789,Experiment,Both,1,Automatic,main,11,20260305-161842,global,global,300,H,H,E,E,H-E.png,H-E.png,hH,hH,mask-3.png,mask-1.png,h,1,0.3358907999936491,h,1,0.07574279999244027,0.05003660000511445,0.050479199999244884,0.10115830000722781,0.10102209998876788,0.2989827000128571
RSVPLG03,km,20260305-161737,1.0.2,20251113-095759,789,Experiment,Both,1,Automatic,main,12,20260305-161846,local,global,300,S,S,A,A,A-S.png,S-A.png,sS,sS,mask-2.png,mask-2.png,s,1,0.7367075000074692,h,0,0.02729840000392869,0.05003350001061335,0.04944160001468845,0.09964400000171736,0.09905950000393204,0.2990908999927342
RSVPLG03,km,20260305-161737,1.0.2,20251113-095759,789,Experiment,Both,1,Automatic,main,13,20260305-161850,local,global,300,S,H,A,A,A-S.png,H-A.png,sS,hH,mask-1.png,mask-3.png,s,1,0.41809840002679266,h,1,0.014528400002745911,0.05015329999150708,0.04983120001270436,0.10009759999229573,0.0994592999923043,0.2991370999952778
RSVPLG03,km,20260305-161737,1.0.2,20251113-095759,789,Experiment,Both,1,Automatic,main,14,20260305-161855,global,local,300,H,H,A,A,H-A.png,A-H.png,hH,hH,mask-1.png,mask-3.png,h,1,1.4716417000163347,h,1,0.0791769000061322,0.048834299988811836,0.04980000000796281,0.09948720000102185,0.09975550000672229,0.2993729999870993
RSVPLG03,km,20260305-161737,1.0.2,20251113-095759,789,Experiment,Both,1,Automatic,main,15,20260305-161900,global,global,300,S,H,A,E,S-A.png,H-E.png,sS,hH,mask-4.png,mask-3.png,s,1,0.2986320999916643,h,1,0.012101300002541393,0.05066189999342896,0.050099699990823865,0.10136610001791269,0.09990879998076707,0.3002180000185035
RSVPLG03,km,20260305-161737,1.0.2,20251113-095759,789,Experiment,Both,1,Automatic,main,16,20260305-161904,local,local,750,S,H,E,E,E-S.png,E-H.png,sS,hH,mask-2.png,mask-1.png,s,1,0.30816019998746924,h,1,0.09432889998424798,0.048514199996134266,0.04855659999884665,0.09836319999885745,0.09815400000661612,0.7491515000001527
RSVPLG03,km,20260305-161737,1.0.2,20251113-095759,789,Experiment,Both,1,Automatic,main,17,20260305-161908,local,global,750,S,H,A,E,A-S.png,H-E.png,sS,hH,mask-1.png,mask-3.png,s,1,0.7984606999962125,h,1,0.910506299987901,0.049844900000607595,0.05123579999781214,0.09989039998617955,0.10158670000964776,0.7471393999876454
RSVPLG03,km,20260305-161737,1.0.2,20251113-095759,789,Experiment,Both,1,Automatic,main,18,20260305-161914,global,local,300,H,H,A,E,H-A.png,E-H.png,hH,hH,mask-1.png,mask-4.png,h,1,0.4326803000003565,s,0,0.04453949999879114,0.05137430000468157,0.05155100001138635,0.10134349999134429,0.10033909999765456,0.2997017999878153
RSVPLG03,km,20260305-161737,1.0.2,20251113-095759,789,Experiment,Both,1,Automatic,main,19,20260305-161918,global,local,750,S,S,E,A,S-E.png,A-S.png,sS,sS,mask-4.png,mask-4.png,s,1,0.5982036000059452,h,0,0.09355399999185465,0.05093029999989085,0.04875690001063049,0.09989849998964928,0.09962880000239238,0.7503835999814328
RSVPLG03,km,20260305-161737,1.0.2,20251113-095759,789,Experiment,Both,1,Automatic,main,20,20260305-161923,global,global,750,H,S,A,A,H-A.png,S-A.png,hH,sS,mask-3.png,mask-4.png,h,1,1.0223652999848127,s,1,0.12646470000618137,0.04861100000562146,0.0504027999995742,0.09849109998322092,0.10031030001118779,0.7479194999905303
RSVPLG03,km,20260305-161737,1.0.2,20251113-095759,789,Experiment,Both,1,Automatic,main,21,20260305-161929,local,local,300,S,H,A,E,A-S.png,E-H.png,sS,hH,mask-3.png,mask-1.png,s,1,1.137420499988366,h,1,0.07859280001139268,0.049671600019792095,0.049987300008069724,0.09975950000807643,0.10066639998694882,0.3004421000077855
RSVPLG03,km,20260305-161737,1.0.2,20251113-095759,789,Experiment,Both,1,Automatic,main,22,20260305-161934,local,global,750,H,H,E,E,E-H.png,H-E.png,hH,hH,mask-1.png,mask-2.png,h,1,1.347426299995277,h,1,0.11193070001900196,0.048957199993310496,0.04902879998553544,0.09904010000173002,0.09834120000596158,0.748987600003602
RSVPLG03,km,20260305-161737,1.0.2,20251113-095759,789,Experiment,Both,1,Automatic,main,23,20260305-161939,local,global,750,S,S,A,E,A-S.png,S-E.png,sS,sS,mask-2.png,mask-3.png,s,1,0.5235554999962915,h,0,0.04792280000401661,0.05073599997558631,0.049874599993927404,0.10174869999173097,0.09993969998322427,0.7508256000000983
RSVPLG03,km,20260305-161737,1.0.2,20251113-095759,789,Experiment,Both,1,Automatic,main,24,20260305-161944,global,local,300,S,H,A,E,S-A.png,E-H.png,sS,hH,mask-1.png,mask-4.png,s,1,0.5573547999956645,h,1,0.018178199999965727,0.04870620000292547,0.0506689999892842,0.09986230000504293,0.10127009998541325,0.29800070001510903
RSVPLG03,km,20260305-161737,1.0.2,20251113-095759,789,Experiment,Both,1,Automatic,main,25,20260305-161948,global,local,750,S,H,E,E,S-E.png,E-H.png,sS,hH,mask-4.png,mask-3.png,s,1,0.5517326999979559,s,0,0.09461140001076274,0.049705499986885116,0.0504959000099916,0.10036389998276718,0.10010400001192465,0.749596699984977
RSVPLG03,km,20260305-161737,1.0.2,20251113-095759,789,Experiment,Both,1,Automatic,main,26,20260305-161957,local,local,300,S,S,E,E,E-S.png,E-S.png,sS,sS,mask-4.png,mask-2.png,s,1,0.3094093000108842,s,1,0.07752800002344884,0.0506325000023935,0.05100229999516159,0.10053190001053736,0.10009369999170303,0.30002900000545196
RSVPLG03,km,20260305-161737,1.0.2,20251113-095759,789,Experiment,Both,1,Automatic,main,27,20260305-162001,local,local,300,H,S,E,A,E-H.png,A-S.png,hH,sS,mask-3.png,mask-3.png,h,1,0.35769219999201596,s,1,0.04436930001247674,0.04966340001556091,0.047317300020949915,0.10042430000612512,0.09958760000881739,0.3010447999986354
RSVPLG03,km,20260305-161737,1.0.2,20251113-095759,789,Experiment,Both,1,Automatic,main,28,20260305-162005,local,local,750,H,H,E,A,E-H.png,A-H.png,hH,hH,mask-2.png,mask-3.png,h,1,0.41970719999517314,h,1,0.09442619999754243,0.04988229999435134,0.05024670000420883,0.09964090000721626,0.10076070000650361,0.7479315999953542
RSVPLG03,km,20260305-161737,1.0.2,20251113-095759,789,Experiment,Both,1,Automatic,main,29,20260305-162010,local,global,750,H,H,E,A,E-H.png,H-A.png,hH,hH,mask-4.png,mask-2.png,h,1,1.0264554000168573,s,0,0.046932199998991564,0.04884870001114905,0.05170159999397583,0.09874790001777001,0.09992149999015965,0.7474671000090893
RSVPLG03,km,20260305-161737,1.0.2,20251113-095759,789,Experiment,Both,1,Automatic,main,30,20260305-162015,local,global,300,S,H,A,E,A-S.png,H-E.png,sS,hH,mask-3.png,mask-2.png,s,1,1.935835699987365,h,1,0.3336721000086982,0.048830099985934794,0.04879970001638867,0.09859750000759959,0.09956600001896732,0.29984689998673275
RSVPLG03,km,20260305-161737,1.0.2,20251113-095759,789,Experiment,Both,1,Automatic,main,31,20260305-162021,local,local,750,S,S,A,A,A-S.png,A-S.png,sS,sS,mask-4.png,mask-1.png,s,1,0.8002013999794144,h,0,0.04752820002613589,0.05069279999588616,0.04903699998976663,0.10060559998964891,0.09740229998715222,0.750098499993328
RSVPLG03,km,20260305-161737,1.0.2,20251113-095759,789,Experiment,Both,1,Automatic,main,32,20260305-162026,local,local,750,S,H,A,E,A-S.png,E-H.png,sS,hH,mask-4.png,mask-1.png,s,1,0.8019373000133783,h,1,0.27435379999224097,0.04950379999354482,0.04982499999459833,0.09913909999886528,0.09922929998720065,0.748206799995387
RSVPLG03,km,20260305-161737,1.0.2,20251113-095759,789,Experiment,Both,1,Automatic,main,33,20260305-162031,local,local,750,S,H,A,E,A-S.png,E-H.png,sS,hH,mask-1.png,mask-1.png,s,1,0.5181048999947961,h,1,0.14301599998725578,0.048967899987474084,0.05047640000702813,0.09857329999795184,0.09990649999235757,0.7473426999931689
RSVPLG03,km,20260305-161737,1.0.2,20251113-095759,789,Experiment,Both,1,Automatic,main,34,20260305-162036,local,local,750,H,H,E,A,E-H.png,A-H.png,hH,hH,mask-2.png,mask-1.png,h,1,0.4019990999950096,h,1,0.11396970000350848,0.048927600000752136,0.05089569999836385,0.0991529000166338,0.09969430000637658,0.7487657000019681
RSVPLG03,km,20260305-161737,1.0.2,20251113-095759,789,Experiment,Both,1,Automatic,main,35,20260305-162041,local,local,300,H,S,E,A,E-H.png,A-S.png,hH,sS,mask-4.png,mask-4.png,h,1,1.1718194000131916,s,1,0.013848400005372241,0.04898620001040399,0.047715799999423325,0.09977390000130981,0.0989034999802243,0.2994229000178166
RSVPLG03,km,20260305-161737,1.0.2,20251113-095759,789,Experiment,Both,1,Automatic,main,36,20260305-162046,local,global,300,S,S,A,A,A-S.png,S-A.png,sS,sS,mask-1.png,mask-4.png,s,1,0.9527049000025727,h,0,0.029841300012776628,0.05043420000583865,0.05128869999316521,0.09842660001595505,0.10096789998351596,0.29789440002059564
RSVPLG03,km,20260305-161737,1.0.2,20251113-095759,789,Experiment,Both,1,Automatic,main,37,20260305-162050,global,global,750,H,H,A,E,H-A.png,H-E.png,hH,hH,mask-1.png,mask-2.png,h,1,1.1626874999783468,h,1,0.07950350001920015,0.04784539999673143,0.05148530000587925,0.09943569998722523,0.10230190001311712,0.7472914999816567
RSVPLG03,km,20260305-161737,1.0.2,20251113-095759,789,Experiment,Both,1,Automatic,main,38,20260305-162056,global,global,300,S,H,A,E,S-A.png,H-E.png,sS,hH,mask-2.png,mask-4.png,s,1,0.32699689999572,h,1,0.029095400008372962,0.04936710000038147,0.049342499987687916,0.09948390000499785,0.0997569999890402,0.3004386000102386
RSVPLG03,km,20260305-161737,1.0.2,20251113-095759,789,Experiment,Both,1,Automatic,main,39,20260305-162100,local,global,750,H,H,E,E,E-H.png,H-E.png,hH,hH,mask-1.png,mask-2.png,s,0,0.39549840000108816,h,1,0.5236142000067048,0.04872449999675155,0.050905600015539676,0.09981049998896196,0.0997751000104472,0.7485308999894187
RSVPLG03,km,20260305-161737,1.0.2,20251113-095759,789,Experiment,Both,1,Automatic,main,40,20260305-162104,global,local,300,S,S,E,A,S-E.png,A-S.png,sS,sS,mask-3.png,mask-2.png,s,1,0.47489099999074824,h,0,0.016097099985927343,0.05005190000520088,0.04807330001494847,0.09957900000154041,0.09857090000878088,0.30052839999552816
RSVPLG03,km,20260305-161737,1.0.2,20251113-095759,789,Experiment,Both,1,Automatic,main,41,20260305-162108,local,global,300,H,H,A,E,A-H.png,H-E.png,hH,hH,mask-3.png,mask-4.png,h,1,0.9893988000112586,h,1,0.381531899998663,0.05005709998658858,0.05005010002059862,0.10159149998798966,0.10102420000475831,0.2998033999756444
RSVPLG03,km,20260305-161737,1.0.2,20251113-095759,789,Experiment,Both,1,Automatic,main,42,20260305-162113,global,local,750,H,H,E,A,H-E.png,A-H.png,hH,hH,mask-2.png,mask-1.png,h,1,0.3241313999751583,h,1,0.058879899996099994,0.04854459999478422,0.05062840000027791,0.09864280000329018,0.10085139999864623,0.7481911999930162
RSVPLG03,km,20260305-161737,1.0.2,20251113-095759,789,Experiment,Both,1,Automatic,main,43,20260305-162118,global,local,300,S,S,A,A,S-A.png,A-S.png,sS,sS,mask-4.png,mask-3.png,s,1,0.5616287000011653,h,0,0.014696199999889359,0.049523499998031184,0.051424200006294996,0.09940910001751035,0.10173029999714345,0.2973160000110511
RSVPLG03,km,20260305-161737,1.0.2,20251113-095759,789,Experiment,Both,1,Automatic,main,44,20260305-162122,global,global,750,S,S,E,E,S-E.png,S-E.png,sS,sS,mask-2.png,mask-4.png,s,1,0.4035563999786973,s,1,0.07846720001543872,0.05171729999710806,0.05070670001441613,0.10085660000913776,0.10048680001636967,0.7497426999907475
RSVPLG03,km,20260305-161737,1.0.2,20251113-095759,789,Experiment,Both,1,Automatic,main,45,20260305-162127,local,local,750,H,S,E,E,E-H.png,E-S.png,hH,sS,mask-2.png,mask-1.png,h,1,0.5326153000060003,s,1,0.06109719999949448,0.050133899989305064,0.050076100014848635,0.09883800000534393,0.10004590000608005,0.7481603999913204
RSVPLG03,km,20260305-161737,1.0.2,20251113-095759,789,Experiment,Both,1,Automatic,main,46,20260305-162132,global,local,300,H,S,A,E,H-A.png,E-S.png,hH,sS,mask-1.png,mask-3.png,h,1,0.43117460000212304,s,1,0.014548299979651347,0.0498782999929972,0.049892099981661886,0.10106419998919591,0.09866849999525584,0.29965359999914654
RSVPLG03,km,20260305-161737,1.0.2,20251113-095759,789,Experiment,Both,1,Automatic,main,47,20260305-162136,local,global,300,S,S,E,E,E-S.png,S-E.png,sS,sS,mask-1.png,mask-1.png,s,1,1.9168738999869674,s,1,0.1742752999998629,0.04976080000051297,0.04985600002692081,0.09977659999276511,0.0985911000170745,0.2996625999803655
RSVPLG03,km,20260305-161737,1.0.2,20251113-095759,789,Experiment,Both,1,Automatic,main,48,20260305-162142,global,global,750,H,H,E,E,H-E.png,H-E.png,hH,hH,mask-2.png,mask-1.png,h,1,0.3686889999953564,h,1,0.09591569998883642,0.04993210002430715,0.048875799984671175,0.09983430002466775,0.0988383999792859,0.749058800021885
RSVPLG03,km,20260305-161737,1.0.2,20251113-095759,789,Experiment,Both,1,Automatic,main,49,20260305-162146,local,global,300,S,H,E,E,E-S.png,H-E.png,sS,hH,mask-2.png,mask-4.png,s,1,3.5035315999994054,h,1,0.7675806000188459,0.049692100001266226,0.049517400009790435,0.10107959999004379,0.0995740000216756,0.30020549998153
RSVPLG03,km,20260305-161737,1.0.2,20251113-095759,789,Experiment,Both,1,Automatic,main,50,20260305-162154,local,global,300,S,S,A,E,A-S.png,S-E.png,sS,sS,mask-2.png,mask-2.png,s,1,1.2813877000007778,h,0,0.32111230000737123,0.050208000000566244,0.050772200018400326,0.10055419997661375,0.10084620001725852,0.29928389997803606
RSVPLG03,km,20260305-161737,1.0.2,20251113-095759,789,Experiment,Both,1,Automatic,main,51,20260305-162219,local,global,750,H,S,E,E,E-H.png,S-E.png,hH,sS,mask-3.png,mask-1.png,h,1,0.9211800000048243,s,1,0.09454839999671094,0.04997500000172295,0.05090750000090338,0.1006696000113152,0.09904210001695901,0.7492885999963619
RSVPLG03,km,20260305-161737,1.0.2,20251113-095759,789,Experiment,Both,1,Automatic,main,52,20260305-162224,local,global,750,H,H,E,A,E-H.png,H-A.png,hH,hH,mask-1.png,mask-2.png,h,1,2.719406899996102,h,1,0.22672779997810721,0.049385499994968995,0.05066770000848919,0.0991644999885466,0.09940440001082607,0.7495965999842156
RSVPLG03,km,20260305-161737,1.0.2,20251113-095759,789,Experiment,Both,1,Automatic,main,53,20260305-162232,global,global,300,S,H,A,E,S-A.png,H-E.png,sS,hH,mask-1.png,mask-1.png,s,1,0.3363731999997981,h,1,0.012506500002928078,0.05011189999640919,0.049702699994668365,0.10017019999213517,0.1004176999849733,0.3000950000132434
RSVPLG03,km,20260305-161737,1.0.2,20251113-095759,789,Experiment,Both,1,Automatic,main,54,20260305-162236,local,global,750,H,H,E,E,E-H.png,H-E.png,hH,hH,mask-4.png,mask-4.png,h,1,0.9450528000015765,s,0,0.12500510000973009,0.05082689999835566,0.04785679999622516,0.0997464999963995,0.09875649999594316,0.7503817999968305
RSVPLG03,km,20260305-161737,1.0.2,20251113-095759,789,Experiment,Both,1,Automatic,main,55,20260305-162241,global,local,300,H,S,E,E,H-E.png,E-S.png,hH,sS,mask-2.png,mask-2.png,h,1,0.45395189998089336,s,1,0.028475299972342327,0.049948599975323305,0.049511399993207306,0.0996889999951236,0.09999630000675097,0.2997632999904454
RSVPLG03,km,20260305-161737,1.0.2,20251113-095759,789,Experiment,Both,1,Automatic,main,56,20260305-162245,local,local,300,S,H,A,A,A-S.png,A-H.png,sS,hH,mask-3.png,mask-2.png,s,1,0.34957089999807067,h,1,0.013553199998568743,0.05100080001284368,0.047786800016183406,0.09980210001231171,0.09923910000361502,0.3011723000090569
RSVPLG03,km,20260305-161737,1.0.2,20251113-095759,789,Experiment,Both,1,Automatic,main,57,20260305-162249,global,global,750,H,H,A,A,H-A.png,H-A.png,hH,hH,mask-1.png,mask-2.png,h,1,0.4097129999718163,h,1,0.12701570001081564,0.049355800001649186,0.05127080000238493,0.10095629998249933,0.10002489999169484,0.7489631999924313
RSVPLG03,km,20260305-161737,1.0.2,20251113-095759,789,Experiment,Both,1,Automatic,main,58,20260305-162254,global,global,750,S,H,A,A,S-A.png,H-A.png,sS,hH,mask-2.png,mask-3.png,s,1,1.1399580000143033,h,1,0.3674653999914881,0.05095360000268556,0.050850800005719066,0.10061120000318624,0.09982929998659529,0.7494528999959584
RSVPLG03,km,20260305-161737,1.0.2,20251113-095759,789,Experiment,Both,1,Automatic,main,59,20260305-162259,global,global,750,H,H,A,A,H-A.png,H-A.png,hH,hH,mask-1.png,mask-2.png,h,1,0.5451774999964982,h,1,0.1091084000072442,0.048041899979580194,0.049694999994244426,0.09923160000471398,0.09884990000864491,0.7490498999832198
RSVPLG03,km,20260305-161737,1.0.2,20251113-095759,789,Experiment,Both,1,Automatic,main,60,20260305-162304,local,local,750,H,H,A,E,A-H.png,E-H.png,hH,hH,mask-2.png,mask-2.png,h,1,0.4891420000058133,h,1,0.09388709999620914,0.04948680000961758,0.04977870002039708,0.09909329999936745,0.09975210000993684,0.7485665999993216
RSVPLG03,km,20260305-161737,1.0.2,20251113-095759,789,Experiment,Both,1,Automatic,main,61,20260305-162309,global,local,750,S,S,E,E,S-E.png,E-S.png,sS,sS,mask-4.png,mask-2.png,s,1,0.40059660002589226,s,1,0.11041320001822896,0.04983199998969212,0.04995639997650869,0.09990499998093583,0.09993159997975454,0.7476526999962516
RSVPLG03,km,20260305-161737,1.0.2,20251113-095759,789,Experiment,Both,1,Automatic,main,62,20260305-162313,global,local,300,H,H,A,A,H-A.png,A-H.png,hH,hH,mask-3.png,mask-2.png,h,1,1.0091472000058275,h,1,0.11317630001576617,0.04998780001187697,0.05095239999354817,0.10010149999288842,0.10004990000743419,0.2999599000031594
RSVPLG03,km,20260305-161737,1.0.2,20251113-095759,789,Experiment,Both,1,Automatic,main,63,20260305-162318,local,global,300,H,H,A,E,A-H.png,H-E.png,hH,hH,mask-4.png,mask-3.png,h,1,1.0499133999983314,h,1,0.06246470002224669,0.04973279999103397,0.04959050001343712,0.1006045000103768,0.10033399998792447,0.29908050000085495
RSVPLG03,km,20260305-161737,1.0.2,20251113-095759,789,Experiment,Both,1,Automatic,main,64,20260305-162323,local,local,300,H,H,A,A,A-H.png,A-H.png,hH,hH,mask-2.png,mask-2.png,h,1,1.4235716999974102,h,1,0.09338629999547265,0.051089300017338246,0.05116850000922568,0.09857340002781712,0.09976519999327138,0.29881900001782924
RSVPLG03,km,20260305-161737,1.0.2,20251113-095759,789,Experiment,Both,1,Automatic,main,65,20260305-162328,global,local,750,S,S,A,A,S-A.png,A-S.png,sS,sS,mask-1.png,mask-2.png,s,1,0.8250053000228945,s,1,0.09517120002419688,0.04913550001219846,0.04991239999071695,0.10100330002023838,0.10068809997756034,0.7486079000227619
RSVPLG03,km,20260305-161737,1.0.2,20251113-095759,789,Experiment,Both,1,Automatic,main,66,20260305-162333,global,local,750,H,S,E,A,H-E.png,A-S.png,hH,sS,mask-2.png,mask-1.png,h,1,0.5031581000075676,h,0,0.06453920001513325,0.05104280001251027,0.050086500006727874,0.100904899998568,0.10085640000761487,0.7500257999927271
RSVPLG03,km,20260305-161737,1.0.2,20251113-095759,789,Experiment,Both,1,Automatic,main,67,20260305-162338,global,global,300,H,S,A,E,H-A.png,S-E.png,hH,sS,mask-2.png,mask-4.png,h,1,0.6085863999905996,s,1,0.030054000002564862,0.04897249999339692,0.05053849998512305,0.09926180000184104,0.09960699998191558,0.29821649999939837
RSVPLG03,km,20260305-161737,1.0.2,20251113-095759,789,Experiment,Both,1,Automatic,main,68,20260305-162342,global,global,300,S,H,A,E,S-A.png,H-E.png,sS,hH,mask-1.png,mask-4.png,s,1,0.3941935000184458,h,1,0.5543864000064787,0.049189900018973276,0.05044750001979992,0.098785800015321,0.10002370001166128,0.29875479999464005
RSVPLG03,km,20260305-161737,1.0.2,20251113-095759,789,Experiment,Both,1,Automatic,main,69,20260305-162346,global,local,750,H,S,E,A,H-E.png,A-S.png,hH,sS,mask-1.png,mask-2.png,h,1,0.6865745999966748,h,0,0.07689840000239201,0.05095399997662753,0.0476009999983944,0.10069909997400828,0.09864979999838397,0.7505062999844085
RSVPLG03,km,20260305-161737,1.0.2,20251113-095759,789,Experiment,Both,1,Automatic,main,70,20260305-162351,global,local,750,H,S,A,E,H-A.png,E-S.png,hH,sS,mask-1.png,mask-1.png,h,1,0.7662489999784157,s,1,0.029884199990192428,0.050770800007740036,0.05087629999616183,0.10064310001325794,0.10095969997928478,0.7494055000133812
RSVPLG03,km,20260305-161737,1.0.2,20251113-095759,789,Experiment,Both,1,Automatic,main,71,20260305-162356,local,local,300,S,S,A,A,A-S.png,A-S.png,sS,sS,mask-4.png,mask-1.png,s,1,0.6809883000096306,s,1,0.07962150001549162,0.04884529998525977,0.05018890000064857,0.09764960000757128,0.10049470001831651,0.2981961999903433
RSVPLG03,km,20260305-161737,1.0.2,20251113-095759,789,Experiment,Both,1,Automatic,main,72,20260305-162400,global,global,750,H,H,E,A,H-E.png,H-A.png,hH,hH,mask-1.png,mask-4.png,h,1,0.4316121000156272,h,1,0.097646199981682,0.048693799995817244,0.049682999990182,0.09887309998157434,0.09953680000035092,0.7480038999929093
RSVPLG03,km,20260305-161737,1.0.2,20251113-095759,789,Experiment,Both,1,Automatic,main,73,20260305-162405,local,global,300,H,H,E,E,E-H.png,H-E.png,hH,hH,mask-3.png,mask-3.png,h,1,1.1795388000027742,s,0,0.620690600015223,0.049548800016054884,0.050714399985736236,0.09941630001412705,0.10031410001101904,0.29923770000459626
RSVPLG03,km,20260305-161737,1.0.2,20251113-095759,789,Experiment,Both,1,Automatic,main,74,20260305-162411,local,global,300,H,S,A,E,A-H.png,S-E.png,hH,sS,mask-1.png,mask-2.png,h,1,1.503885399986757,h,0,0.17760379999526776,0.04974000001675449,0.049773800012189895,0.09960750001482666,0.09965889999875799,0.29921029999968596
RSVPLG03,km,20260305-161737,1.0.2,20251113-095759,789,Experiment,Both,1,Automatic,main,75,20260305-162416,local,global,750,S,H,A,E,A-S.png,H-E.png,sS,hH,mask-3.png,mask-1.png,s,1,3.0557902000145987,h,1,0.3984117999789305,0.04979339998681098,0.050567800004500896,0.09978319998481311,0.10052740000537597,0.7492288000066765
RSVPLG03,km,20260305-161737,1.0.2,20251113-095759,789,Experiment,Both,1,Automatic,main,76,20260305-162440,global,local,750,H,H,A,E,H-A.png,E-H.png,hH,hH,mask-3.png,mask-4.png,s,0,2.1033075000159442,h,1,0.34890870001981966,0.04498449998209253,0.05029740001191385,0.09500099997967482,0.10072899999795482,0.7438473999791313
RSVPLG03,km,20260305-161737,1.0.2,20251113-095759,789,Experiment,Both,1,Automatic,main,77,20260305-162447,global,global,300,H,H,E,A,H-E.png,H-A.png,hH,hH,mask-2.png,mask-1.png,s,0,1.283402200002456,s,0,0.12472049999632873,0.04963649998535402,0.04959569999482483,0.10117730000638403,0.0980621000053361,0.3009557999903336
RSVPLG03,km,20260305-161737,1.0.2,20251113-095759,789,Experiment,Both,1,Automatic,main,78,20260305-162452,local,local,750,S,H,E,E,E-S.png,E-H.png,sS,hH,mask-4.png,mask-1.png,h,0,1.5222665999899618,s,0,0.509130999998888,0.04821270002867095,0.05024589999811724,0.09950840001692995,0.10095910000381991,0.7479107000108343
RSVPLG03,km,20260305-161737,1.0.2,20251113-095759,789,Experiment,Both,1,Automatic,main,79,20260305-162458,global,global,750,S,S,A,A,S-A.png,S-A.png,sS,sS,mask-1.png,mask-1.png,s,1,0.47271059997729026,s,1,0.07795100001385435,0.04919230000814423,0.048874500003876165,0.10066890000598505,0.09870190001674928,0.7499902999843471
RSVPLG03,km,20260305-161737,1.0.2,20251113-095759,789,Experiment,Both,1,Automatic,main,80,20260305-162503,local,local,300,S,H,E,E,E-S.png,E-H.png,sS,hH,mask-1.png,mask-2.png,s,1,1.534928300010506,h,1,0.3503070999868214,0.05053710000356659,0.05062049999833107,0.10222810000414029,0.10087490000296384,0.300314599997364
RSVPLG03,km,20260305-161737,1.0.2,20251113-095759,789,Experiment,Both,1,Automatic,main,81,20260305-162509,local,global,750,S,H,A,E,A-S.png,H-E.png,sS,hH,mask-4.png,mask-3.png,s,1,0.7823785999789834,h,1,0.334928399999626,0.04999800000223331,0.05096429999684915,0.09977889998117462,0.09993679999024607,0.7479280999978073
RSVPLG03,km,20260305-161737,1.0.2,20251113-095759,789,Experiment,Both,1,Automatic,main,82,20260305-162514,local,global,750,H,S,A,A,A-H.png,S-A.png,hH,sS,mask-1.png,mask-4.png,h,1,0.6253815999953076,s,1,1.2293491000018548,0.050073100021108985,0.05035639999550767,0.098729799996363,0.10100880000391044,0.7477647000050638
RSVPLG03,km,20260305-161737,1.0.2,20251113-095759,789,Experiment,Both,1,Automatic,main,83,20260305-162520,global,local,300,H,S,A,E,H-A.png,E-S.png,hH,sS,mask-3.png,mask-1.png,h,1,1.1941300999897067,s,1,0.9439251000003424,0.05047109999577515,0.05049120000330731,0.1000488999998197,0.10073830001056194,0.2999102999747265
RSVPLG03,km,20260305-161737,1.0.2,20251113-095759,789,Experiment,Both,1,Automatic,main,84,20260305-162526,local,local,750,S,S,E,E,E-S.png,E-S.png,sS,sS,mask-2.png,mask-4.png,s,1,1.4230853999906685,s,1,0.3813017000211403,0.049029899993911386,0.04902069998206571,0.09952049999265,0.10009309998713434,0.7507449999975506
RSVPLG03,km,20260305-161737,1.0.2,20251113-095759,789,Experiment,Both,1,Automatic,main,85,20260305-162532,global,global,300,S,H,A,E,S-A.png,H-E.png,sS,hH,mask-1.png,mask-2.png,s,1,1.8452398999943398,h,1,0.7530473000078928,0.051649700006237254,0.050701100000878796,0.10015480002039112,0.10025459999451414,0.2999699000210967
RSVPLG03,km,20260305-161737,1.0.2,20251113-095759,789,Experiment,Both,1,Automatic,main,86,20260305-162538,global,global,750,S,H,A,A,S-A.png,H-A.png,sS,hH,mask-1.png,mask-2.png,s,1,0.7493969000061043,h,1,0.33606249999138527,0.04965859997901134,0.04990519999410026,0.10057519999099895,0.10076559998560697,0.7488868999935221
RSVPLG03,km,20260305-161737,1.0.2,20251113-095759,789,Experiment,Both,1,Automatic,main,87,20260305-162544,global,local,750,S,S,E,A,S-E.png,A-S.png,sS,sS,mask-1.png,mask-1.png,s,1,0.8585163000097964,h,0,0.2863020999939181,0.05065150000154972,0.04830199998104945,0.10147039999719709,0.09835960000054911,0.7508644000045024
RSVPLG03,km,20260305-161737,1.0.2,20251113-095759,789,Experiment,Both,1,Automatic,main,88,20260305-162549,local,local,750,S,H,A,A,A-S.png,A-H.png,sS,hH,mask-4.png,mask-3.png,s,1,1.3662220999831334,h,1,0.30109010002342984,0.04969569999957457,0.05046659999061376,0.09966750000603497,0.10198680000030436,0.7475608000240754
RSVPLG03,km,20260305-161737,1.0.2,20251113-095759,789,Experiment,Both,1,Automatic,main,89,20260305-162555,global,global,300,S,S,A,E,S-A.png,S-E.png,sS,sS,mask-3.png,mask-4.png,s,1,0.7866358000028413,s,1,0.3162869999941904,0.04788369999732822,0.05149050001637079,0.09861220000311732,0.10101800001575612,0.2974878999812063
RSVPLG03,km,20260305-161737,1.0.2,20251113-095759,789,Experiment,Both,1,Automatic,main,90,20260305-162600,local,local,750,S,S,E,A,E-S.png,A-S.png,sS,sS,mask-4.png,mask-1.png,s,1,0.27610489999642596,s,1,0.17641690000891685,0.05107359998510219,0.04998799998429604,0.1002098000026308,0.1001535999821499,0.7495447999972384
RSVPLG03,km,20260305-161737,1.0.2,20251113-095759,789,Experiment,Both,1,Automatic,main,91,20260305-162604,global,global,300,S,S,A,E,S-A.png,S-E.png,sS,sS,mask-2.png,mask-1.png,s,1,0.4412822000158485,s,1,0.15554160001920536,0.04899260000092909,0.051653899980010465,0.09899440000299364,0.1015590000024531,0.2984671000158414
RSVPLG03,km,20260305-161737,1.0.2,20251113-095759,789,Experiment,Both,1,Automatic,main,92,20260305-162609,global,global,750,S,S,E,A,S-E.png,S-A.png,sS,sS,mask-4.png,mask-4.png,s,1,0.29965689999517053,s,1,0.10833070002263412,0.04887510000844486,0.05118929999298416,0.09947680000914261,0.10085170000093058,0.7480323000054341
RSVPLG03,km,20260305-161737,1.0.2,20251113-095759,789,Experiment,Both,1,Automatic,main,93,20260305-162613,global,local,750,S,S,A,A,S-A.png,A-S.png,sS,sS,mask-3.png,mask-1.png,s,1,0.5374202000093646,h,0,0.25534329999936745,0.05056109998258762,0.04987550000078045,0.10041099999216385,0.09983329998794943,0.74975980000454
RSVPLG03,km,20260305-161737,1.0.2,20251113-095759,789,Experiment,Both,1,Automatic,main,94,20260305-162618,global,local,300,S,H,A,A,S-A.png,A-H.png,sS,hH,mask-3.png,mask-2.png,s,1,0.6744338999851607,h,1,0.10956089998944663,0.05009000000427477,0.04910890001337975,0.09930790000362322,0.10033910002675839,0.3001075999927707
RSVPLG03,km,20260305-161737,1.0.2,20251113-095759,789,Experiment,Both,1,Automatic,main,95,20260305-162623,local,local,300,S,H,E,A,E-S.png,A-H.png,sS,hH,mask-3.png,mask-3.png,s,1,0.3363260999904014,h,1,0.27099429999361746,0.049169199977768585,0.050153199990745634,0.0994866999972146,0.09924489998957142,0.2995544000004884
RSVPLG03,km,20260305-161737,1.0.2,20251113-095759,789,Experiment,Both,1,Automatic,main,96,20260305-162627,local,local,300,S,S,A,E,A-S.png,E-S.png,sS,sS,mask-4.png,mask-1.png,s,1,0.3486136000137776,s,1,0.17347410001093522,0.0498414000030607,0.04833309998502955,0.10075160002452321,0.09976529999403283,0.3010624000162352
RSVPLG03,km,20260305-161737,1.0.2,20251113-095759,789,Experiment,Both,1,Automatic,main,97,20260305-162631,local,global,750,H,H,A,E,A-H.png,H-E.png,hH,hH,mask-2.png,mask-4.png,h,1,0.46044150000670925,h,1,0.19033670000499114,0.050742799998261034,0.049864000000525266,0.10053009999683127,0.10012340001412667,0.7497154999873601
RSVPLG03,km,20260305-161737,1.0.2,20251113-095759,789,Experiment,Both,1,Automatic,main,98,20260305-162636,global,global,300,H,S,A,E,H-A.png,S-E.png,hH,sS,mask-4.png,mask-1.png,h,1,0.40466819997527637,s,1,0.5139663000009023,0.050938200001837686,0.04970780000439845,0.10090069999569096,0.10020109999459237,0.2992726000084076
RSVPLG03,km,20260305-161737,1.0.2,20251113-095759,789,Experiment,Both,1,Automatic,main,99,20260305-162641,local,local,300,H,H,A,A,A-H.png,A-H.png,hH,hH,mask-3.png,mask-2.png,h,1,0.3193772000086028,h,1,0.1432277999992948,0.04979280001134612,0.04914469999494031,0.09988829999929294,0.10100660001626238,0.29991770000196993
RSVPLG03,km,20260305-161737,1.0.2,20251113-095759,789,Experiment,Both,1,Automatic,main,100,20260305-162645,global,local,300,S,H,A,E,S-A.png,E-H.png,sS,hH,mask-1.png,mask-2.png,s,1,0.7953578000015114,h,1,0.8614181999873836,0.0498350000125356,0.050354499981040135,0.09879889999865554,0.1007767999835778,0.29792020001332276
RSVPLG03,km,20260305-162717,1.0.2,20251113-095759,789,Experiment,Both,1,Automatic,warmup,1,20260305-162806,global,local,300,S,S,E,A,S-E.png,A-S.png,sS,sS,mask-1.png,mask-2.png,s,1,0.3459166999964509,h,0,0.14060189999872819,0.03887260000919923,0.048641600005794317,0.08882340000127442,0.09784890001174062,0.2893787999928463
RSVPLG03,km,20260305-162717,1.0.2,20251113-095759,789,Experiment,Both,1,Automatic,warmup,2,20260305-162811,local,local,300,H,S,E,E,E-H.png,E-S.png,hH,sS,mask-2.png,mask-3.png,h,1,0.36994720000075176,s,1,0.09556720001273789,0.049615199997788295,0.05034230000455864,0.099712900002487,0.10041600000113249,0.2982992000179365
RSVPLG03,km,20260305-162717,1.0.2,20251113-095759,789,Experiment,Both,1,Automatic,warmup,3,20260305-162815,local,global,300,S,H,E,E,E-S.png,H-E.png,sS,hH,mask-1.png,mask-1.png,s,1,0.25340240000514314,h,1,0.077069399994798,0.050227200001245365,0.05015940000885166,0.10025660000974312,0.10057539999252185,0.3000328000052832
RSVPLG03,km,20260305-162717,1.0.2,20251113-095759,789,Experiment,Both,1,Automatic,warmup,4,20260305-162819,global,global,750,S,S,A,E,S-A.png,S-E.png,sS,sS,mask-1.png,mask-1.png,h,0,0.43901989998994395,s,1,0.35175830000662245,0.04916700001922436,0.04967050001141615,0.10046640000655316,0.09894740002346225,0.7471376000030432
RSVPLG03,km,20260305-162717,1.0.2,20251113-095759,789,Experiment,Both,1,Automatic,main,5,20260305-162824,global,global,750,S,H,A,E,S-A.png,H-E.png,sS,hH,mask-4.png,mask-4.png,s,1,0.2537921000039205,h,1,0.18781320002744906,0.050582600000780076,0.04884119998314418,0.10042490001069382,0.09826209998573177,0.748674900009064
RSVPLG03,km,20260305-162717,1.0.2,20251113-095759,789,Experiment,Both,1,Automatic,main,6,20260305-162828,local,global,750,H,S,A,A,A-H.png,S-A.png,hH,sS,mask-3.png,mask-3.png,h,1,1.148152099980507,s,1,0.5573983000067528,0.04981340002268553,0.048761799989733845,0.1008346000162419,0.09881109997513704,0.748482100025285
RSVPLG03,km,20260305-162717,1.0.2,20251113-095759,789,Experiment,Both,1,Automatic,main,7,20260305-162834,global,local,750,H,S,E,E,H-E.png,E-S.png,hH,sS,mask-2.png,mask-1.png,h,1,0.7794017000123858,s,1,0.9754717000178061,0.049812799989013,0.049544300010893494,0.10043439999572001,0.09997049998492002,0.747940600005677
RSVPLG03,km,20260305-162717,1.0.2,20251113-095759,789,Experiment,Both,1,Automatic,main,8,20260305-162840,global,global,300,S,S,E,E,S-E.png,S-E.png,sS,sS,mask-1.png,mask-4.png,s,1,1.4043084000004455,h,0,0.2843767000013031,0.05068539999774657,0.04911859999992885,0.10035829999833368,0.09965600000577979,0.30027080001309514
RSVPLG03,km,20260305-162717,1.0.2,20251113-095759,789,Experiment,Both,1,Automatic,main,9,20260305-162846,global,local,750,H,S,A,A,H-A.png,A-S.png,hH,sS,mask-3.png,mask-4.png,h,1,0.5604849999945145,s,1,0.255476299993461,0.04891700000735,0.049492299993289635,0.10080529999686405,0.09941220001201145,0.7477360999910161
RSVPLG03,km,20260305-162717,1.0.2,20251113-095759,789,Experiment,Both,1,Automatic,main,10,20260305-162851,global,global,750,S,H,A,A,S-A.png,H-A.png,sS,hH,mask-2.png,mask-4.png,s,1,0.312235800025519,h,1,0.25522940000519156,0.0492114000080619,0.050458399986382574,0.09810560001642443,0.09935800000675954,0.746611100010341
RSVPLG03,km,20260305-162717,1.0.2,20251113-095759,789,Experiment,Both,1,Automatic,main,11,20260305-162856,global,global,300,S,S,E,A,S-E.png,S-A.png,sS,sS,mask-2.png,mask-1.png,s,1,0.3728564000048209,s,1,0.1758704999811016,0.050049600016791373,0.04961119999643415,0.10022350001963787,0.09973410001839511,0.2992878000077326
RSVPLG03,km,20260305-162717,1.0.2,20251113-095759,789,Experiment,Both,1,Automatic,main,12,20260305-162900,local,global,750,S,H,E,A,E-S.png,H-A.png,sS,hH,mask-3.png,mask-4.png,s,1,0.30238330000429414,h,1,0.2551311999850441,0.05119239998748526,0.04992879999917932,0.10118590001366101,0.09856899999431334,0.7484068000048865
RSVPLG03,km,20260305-162717,1.0.2,20251113-095759,789,Experiment,Both,1,Automatic,main,13,20260305-162905,global,global,750,H,S,A,A,H-A.png,S-A.png,hH,sS,mask-2.png,mask-1.png,h,1,0.3936052000208292,s,1,0.28765320000820793,0.05041150000761263,0.05134169998927973,0.10125519998837262,0.1004819999798201,0.7461933000013232
RSVPLG03,km,20260305-162717,1.0.2,20251113-095759,789,Experiment,Both,1,Automatic,main,14,20260305-162910,local,global,750,S,S,A,E,A-S.png,S-E.png,sS,sS,mask-3.png,mask-2.png,s,1,0.29233140000724234,h,0,0.3048443000006955,0.05005019999225624,0.049284799984889105,0.09895459999097511,0.10006389999762177,0.7481161000032444
RSVPLG03,km,20260305-162717,1.0.2,20251113-095759,789,Experiment,Both,1,Automatic,main,15,20260305-162914,global,global,750,S,S,E,A,S-E.png,S-A.png,sS,sS,mask-1.png,mask-1.png,s,1,0.29938510002102703,s,1,0.1394670000008773,0.04853589998674579,0.04876400000648573,0.10053679998964071,0.09753830000408925,0.7490163999900687
RSVPLG03,km,20260305-162717,1.0.2,20251113-095759,789,Experiment,Both,1,Automatic,main,16,20260305-162919,global,local,750,S,H,E,A,S-E.png,A-H.png,sS,hH,mask-1.png,mask-2.png,s,1,0.2279553999833297,h,1,0.2532391999848187,0.050710100011201575,0.05037309997715056,0.10125170001992956,0.10029199998825788,0.7486721000168473
RSVPLG03,km,20260305-162717,1.0.2,20251113-095759,789,Experiment,Both,1,Automatic,main,17,20260305-162924,global,local,750,S,H,A,A,S-A.png,A-H.png,sS,hH,mask-1.png,mask-4.png,s,1,0.21280579999438487,h,1,0.49177289998624474,0.05068439999013208,0.048498300020582974,0.09961860001203604,0.10005930002080277,0.7480829999840353
RSVPLG03,km,20260305-162717,1.0.2,20251113-095759,789,Experiment,Both,1,Automatic,main,18,20260305-162929,global,local,300,S,S,A,A,S-A.png,A-S.png,sS,sS,mask-1.png,mask-4.png,s,1,0.9707058999920264,s,1,0.15693900000769645,0.04878319997806102,0.04977720000897534,0.09869039998739026,0.0984380999871064,0.2987661999941338
RSVPLG03,km,20260305-162717,1.0.2,20251113-095759,789,Experiment,Both,1,Automatic,main,19,20260305-162933,local,local,750,H,S,A,A,A-H.png,A-S.png,hH,sS,mask-1.png,mask-2.png,h,1,8.281584699987434,s,1,0.35060299999895506,0.0489880999957677,0.051373700000112876,0.10019579998333938,0.100086199992802,0.746255400008522
RSVPLG03,km,20260305-162717,1.0.2,20251113-095759,789,Experiment,Both,1,Automatic,main,20,20260305-162946,global,local,300,H,H,A,E,H-A.png,E-H.png,hH,hH,mask-3.png,mask-2.png,h,1,0.7899524999957066,s,0,0.5418224000022747,0.05068300000857562,0.049143900017952546,0.1004685000225436,0.09991830002400093,0.3000661999976728
RSVPLG03,km,20260305-162717,1.0.2,20251113-095759,789,Experiment,Both,1,Automatic,main,21,20260305-162951,local,global,750,H,S,E,A,E-H.png,S-A.png,hH,sS,mask-2.png,mask-2.png,h,1,0.5131435999937821,s,1,0.3006226000143215,0.049825499998405576,0.047544100001687184,0.09976789998472668,0.09875370000372641,0.7477432999876328
RSVPLG03,km,20260305-162717,1.0.2,20251113-095759,789,Experiment,Both,1,Automatic,main,22,20260305-162956,local,local,750,S,H,E,E,E-S.png,E-H.png,sS,hH,mask-4.png,mask-3.png,s,1,0.2946671000099741,h,1,0.24005619998206384,0.04870469999150373,0.052190299989888445,0.0995227999810595,0.10047320000012405,0.7457871999940835
RSVPLG03,km,20260305-162717,1.0.2,20251113-095759,789,Experiment,Both,1,Automatic,main,23,20260305-163001,global,local,300,H,S,A,E,H-A.png,E-S.png,hH,sS,mask-1.png,mask-1.png,h,1,1.1304532999929506,s,1,0.6245255999965593,0.050133799988543615,0.048725000000558794,0.10124969997559674,0.09965370001737028,0.30119819997344166
RSVPLG03,km,20260305-162717,1.0.2,20251113-095759,789,Experiment,Both,1,Automatic,main,24,20260305-163007,global,local,300,S,S,A,A,S-A.png,A-S.png,sS,sS,mask-1.png,mask-3.png,s,1,1.7368407000030857,s,1,0.27408080000896007,0.05070960000739433,0.04905729999882169,0.09976750001078472,0.0998214999854099,0.2999777000222821
RSVPLG03,km,20260305-162717,1.0.2,20251113-095759,789,Experiment,Both,1,Automatic,main,25,20260305-163012,local,global,300,H,S,A,E,A-H.png,S-E.png,hH,sS,mask-3.png,mask-4.png,h,1,1.3349858000001404,h,0,0.7186629000061657,0.049753100000089034,0.048078899999381974,0.09969350000028498,0.09891139998217113,0.3005338000075426
RSVPLG03,km,20260305-162717,1.0.2,20251113-095759,789,Experiment,Both,1,Automatic,main,26,20260305-163027,local,local,300,H,H,A,A,A-H.png,A-H.png,hH,hH,mask-3.png,mask-3.png,h,1,2.7605665999872144,h,1,0.3342883000150323,0.050495100003900006,0.04987330001313239,0.10067970000091009,0.10028620000230148,0.29818230000091717
RSVPLG03,km,20260305-162717,1.0.2,20251113-095759,789,Experiment,Both,1,Automatic,main,27,20260305-163034,global,local,300,H,H,A,A,H-A.png,A-H.png,hH,hH,mask-1.png,mask-2.png,h,1,3.4288815000036266,h,1,0.11110139999072999,0.0510292999970261,0.05081499999505468,0.10128520001308061,0.10073340000235476,0.2990099000162445
RSVPLG03,km,20260305-162717,1.0.2,20251113-095759,789,Experiment,Both,1,Automatic,main,28,20260305-163041,global,global,300,H,H,E,E,H-E.png,H-E.png,hH,hH,mask-4.png,mask-4.png,h,1,0.40719739999622107,h,1,0.2212985999940429,0.0488451000128407,0.04872140000225045,0.09980779999750666,0.09837039999547414,0.2993267000128981
RSVPLG03,km,20260305-162717,1.0.2,20251113-095759,789,Experiment,Both,1,Automatic,main,29,20260305-163045,local,local,750,S,H,E,E,E-S.png,E-H.png,sS,hH,mask-2.png,mask-2.png,s,1,1.3730554999783635,h,1,0.7017980000237003,0.05090790000394918,0.04934050000156276,0.09974580002017319,0.0992514000099618,0.7485107000102289
RSVPLG03,km,20260305-162717,1.0.2,20251113-095759,789,Experiment,Both,1,Automatic,main,30,20260305-163052,global,local,300,S,H,E,A,S-E.png,A-H.png,sS,hH,mask-2.png,mask-2.png,s,1,1.4403161999944132,h,1,0.7027546000026632,0.049675999995088205,0.05081640000571497,0.09871280001243576,0.10005740000633523,0.29755789999035187
RSVPLG03,km,20260305-162717,1.0.2,20251113-095759,789,Experiment,Both,1,Automatic,main,31,20260305-163057,global,global,300,S,H,E,A,S-E.png,H-A.png,sS,hH,mask-4.png,mask-3.png,s,1,1.6958231999888085,h,1,0.3022315999842249,0.050456700002541766,0.04870759998448193,0.10052259999793023,0.09847379999700934,0.3001648999925237
RSVPLG03,km,20260305-162717,1.0.2,20251113-095759,789,Experiment,Both,1,Automatic,main,32,20260305-163103,global,local,750,H,H,A,E,H-A.png,E-H.png,hH,hH,mask-3.png,mask-3.png,h,1,1.2735626999929082,s,0,0.3817824000143446,0.04937700001755729,0.04802630000631325,0.09830509999301285,0.09908179999911226,0.7480767999950331
RSVPLG03,km,20260305-162717,1.0.2,20251113-095759,789,Experiment,Both,1,Automatic,main,33,20260305-163109,global,global,300,H,S,E,E,H-E.png,S-E.png,hH,sS,mask-2.png,mask-1.png,h,1,0.7149002999940421,s,1,0.2552309999882709,0.04987109999638051,0.04969109999365173,0.10073489998467267,0.09949270001379773,0.3001601999858394
RSVPLG03,km,20260305-162717,1.0.2,20251113-095759,789,Experiment,Both,1,Automatic,main,34,20260305-163114,local,local,750,H,S,A,A,A-H.png,A-S.png,hH,sS,mask-3.png,mask-2.png,h,1,0.7948280000127852,s,1,0.2587856999889482,0.04979389999061823,0.049859699996886775,0.09978610000689514,0.09881520000635646,0.7488087000092492
RSVPLG03,km,20260305-162717,1.0.2,20251113-095759,789,Experiment,Both,1,Automatic,main,35,20260305-163119,local,local,750,H,S,E,A,E-H.png,A-S.png,hH,sS,mask-1.png,mask-1.png,h,1,0.6477478999877349,s,1,0.2715481999912299,0.050158800004282966,0.04878519999329001,0.10047229999327101,0.10027049999916926,0.7476638999942224
RSVPLG03,km,20260305-162717,1.0.2,20251113-095759,789,Experiment,Both,1,Automatic,main,36,20260305-163124,local,local,300,S,H,E,A,E-S.png,A-H.png,sS,hH,mask-2.png,mask-2.png,s,1,1.5261208999727387,s,0,0.3516153999953531,0.04862970000249334,0.05061889998614788,0.09939180000219494,0.0999792999937199,0.2987307000148576
RSVPLG03,km,20260305-162717,1.0.2,20251113-095759,789,Experiment,Both,1,Automatic,main,37,20260305-163130,global,global,300,H,S,E,A,H-E.png,S-A.png,hH,sS,mask-3.png,mask-4.png,h,1,0.7213204000145197,s,1,0.3030346999876201,0.05024539999430999,0.049377999996067956,0.09825749997980893,0.10008740000193939,0.29779929999494925
RSVPLG03,km,20260305-162717,1.0.2,20251113-095759,789,Experiment,Both,1,Automatic,main,38,20260305-163135,global,local,750,S,H,E,A,S-E.png,A-H.png,sS,hH,mask-4.png,mask-4.png,s,1,1.144477800000459,h,1,0.3065954000048805,0.04961940000066534,0.04864809999708086,0.0975761000008788,0.0987019999884069,0.74711950001074
RSVPLG03,km,20260305-162717,1.0.2,20251113-095759,789,Experiment,Both,1,Automatic,main,39,20260305-163140,global,local,300,S,S,A,E,S-A.png,E-S.png,sS,sS,mask-2.png,mask-2.png,s,1,0.8573065999953542,s,1,0.25136409999686293,0.04957629999262281,0.049109900020994246,0.10080680000828579,0.10004140000091866,0.2991866999946069
RSVPLG03,km,20260305-162717,1.0.2,20251113-095759,789,Experiment,Both,1,Automatic,main,40,20260305-163145,global,local,750,S,H,E,A,S-E.png,A-H.png,sS,hH,mask-2.png,mask-4.png,s,1,0.3715303000062704,h,1,0.5752003000234254,0.04980090001481585,0.04792109999107197,0.10028119999333285,0.09797080000862479,0.7503979000030085
RSVPLG03,km,20260305-162717,1.0.2,20251113-095759,789,Experiment,Both,1,Automatic,main,41,20260305-163150,local,global,300,H,H,E,E,E-H.png,H-E.png,hH,hH,mask-1.png,mask-3.png,s,0,0.6988489999785088,h,1,0.31978629998047836,0.05102510002325289,0.04980870001600124,0.10030300001380965,0.09863520000362769,0.30126790000940673
RSVPLG03,km,20260305-162717,1.0.2,20251113-095759,789,Experiment,Both,1,Automatic,main,42,20260305-163155,global,global,300,S,S,A,E,S-A.png,S-E.png,sS,sS,mask-3.png,mask-3.png,h,0,1.9846058000111952,s,1,2.1124800000106916,0.0509359999850858,0.04945459999726154,0.0995614999847021,0.09999580000294372,0.3003432999830693
RSVPLG03,km,20260305-162717,1.0.2,20251113-095759,789,Experiment,Both,1,Automatic,main,43,20260305-163201,global,global,300,H,H,E,E,H-E.png,H-E.png,hH,hH,mask-3.png,mask-1.png,h,1,0.6932618000137154,h,1,0.2223867999855429,0.0496487999917008,0.04889770000590943,0.0985066999855917,0.09760870001628064,0.29859429999487475
RSVPLG03,km,20260305-162717,1.0.2,20251113-095759,789,Experiment,Both,1,Automatic,main,44,20260305-163205,local,local,300,H,S,A,E,A-H.png,E-S.png,hH,sS,mask-4.png,mask-2.png,h,1,0.38059319998137653,s,1,0.2538690000073984,0.050908800010802224,0.049466900003608316,0.09995690002688207,0.09907749999547377,0.2996481000154745
RSVPLG03,km,20260305-162717,1.0.2,20251113-095759,789,Experiment,Both,1,Automatic,main,45,20260305-163210,local,local,750,S,S,E,A,E-S.png,A-S.png,sS,sS,mask-2.png,mask-4.png,s,1,1.2426943999889772,s,1,0.22024209998198785,0.048843500000657514,0.050800700002582744,0.09765559999505058,0.099712900002487,0.7465337000030559
RSVPLG03,km,20260305-162717,1.0.2,20251113-095759,789,Experiment,Both,1,Automatic,main,46,20260305-163216,global,local,300,H,H,E,E,H-E.png,E-H.png,hH,hH,mask-3.png,mask-2.png,h,1,0.6453324000176508,s,0,0.35074740002164617,0.05078210000647232,0.04877040002611466,0.10076119998120703,0.0988536000077147,0.29957829997874796
RSVPLG03,km,20260305-162717,1.0.2,20251113-095759,789,Experiment,Both,1,Automatic,main,47,20260305-163220,global,global,750,S,H,E,E,S-E.png,H-E.png,sS,hH,mask-4.png,mask-4.png,s,1,0.4123642999911681,h,1,0.3826244000229053,0.04989870000281371,0.051365100021939725,0.10080740001285449,0.10125420000986196,0.7471859999932349
RSVPLG03,km,20260305-162717,1.0.2,20251113-095759,789,Experiment,Both,1,Automatic,main,48,20260305-163225,local,global,300,S,S,A,A,A-S.png,S-A.png,sS,sS,mask-4.png,mask-3.png,s,1,2.0266864000004716,h,0,0.28755269999965094,0.04857009998522699,0.04959119998966344,0.10031079998589121,0.09830259997397661,0.29976470000110567
RSVPLG03,km,20260305-162717,1.0.2,20251113-095759,789,Experiment,Both,1,Automatic,main,49,20260305-163231,global,local,750,S,S,A,A,S-A.png,A-S.png,sS,sS,mask-3.png,mask-3.png,s,1,1.098648899991531,h,0,0.3492112999956589,0.050782600010279566,0.048772200010716915,0.09942450001835823,0.09989869999117218,0.7472604000067804
RSVPLG03,km,20260305-162717,1.0.2,20251113-095759,789,Experiment,Both,1,Automatic,main,50,20260305-163237,global,global,750,S,H,E,E,S-E.png,H-E.png,sS,hH,mask-2.png,mask-1.png,s,1,1.8798543000011705,h,1,0.3335500000102911,0.04892979998840019,0.05002930000773631,0.09877760001108982,0.09881230001337826,0.7476747999899089
RSVPLG03,km,20260305-162717,1.0.2,20251113-095759,789,Experiment,Both,1,Automatic,main,51,20260305-163305,local,local,300,S,S,E,A,E-S.png,A-S.png,sS,sS,mask-3.png,mask-3.png,s,1,1.0378960000234656,s,1,0.14268140000058338,0.04990220000036061,0.04920239999773912,0.09881540000787936,0.09886749999714084,0.29792149999411777
RSVPLG03,km,20260305-162717,1.0.2,20251113-095759,789,Experiment,Both,1,Automatic,main,52,20260305-163310,local,local,750,H,H,E,A,E-H.png,A-H.png,hH,hH,mask-3.png,mask-3.png,h,1,0.4542158000112977,h,1,0.1917554000101518,0.04892150001251139,0.048779399978229776,0.09828999999444932,0.09846539999125525,0.7480105000140611
RSVPLG03,km,20260305-162717,1.0.2,20251113-095759,789,Experiment,Both,1,Automatic,main,53,20260305-163315,local,global,300,S,S,A,E,A-S.png,S-E.png,sS,sS,mask-1.png,mask-2.png,s,1,0.2943066000007093,h,0,0.25443170001381077,0.047323400009190664,0.05123199999798089,0.09761709999293089,0.09957789999316446,0.29689759999746457
RSVPLG03,km,20260305-162717,1.0.2,20251113-095759,789,Experiment,Both,1,Automatic,main,54,20260305-163319,local,global,300,S,H,E,E,E-S.png,H-E.png,sS,hH,mask-4.png,mask-2.png,s,1,0.32444919997942634,h,1,0.22236549999797717,0.04998990002786741,0.04945170000428334,0.10119010001653805,0.09916299997712485,0.30026440002257004
RSVPLG03,km,20260305-162717,1.0.2,20251113-095759,789,Experiment,Both,1,Automatic,main,55,20260305-163324,local,global,750,S,H,A,E,A-S.png,H-E.png,sS,hH,mask-4.png,mask-2.png,s,1,1.4596329999912996,s,0,0.2215472999960184,0.05003230000147596,0.049388499988708645,0.099390699993819,0.09953070001211017,0.7463878999988083
RSVPLG03,km,20260305-162717,1.0.2,20251113-095759,789,Experiment,Both,1,Automatic,main,56,20260305-163330,local,local,300,H,H,E,A,E-H.png,A-H.png,hH,hH,mask-4.png,mask-1.png,h,1,0.3443546000053175,h,1,0.06307930001639761,0.05032999999821186,0.049366499995812774,0.10074890000396408,0.10077910000109114,0.29863610002212226
RSVPLG03,km,20260305-162717,1.0.2,20251113-095759,789,Experiment,Both,1,Automatic,main,57,20260305-163334,local,local,300,H,S,A,E,A-H.png,E-S.png,hH,sS,mask-4.png,mask-3.png,h,1,0.32872600000700913,s,1,0.126550099987071,0.050098300009267405,0.048924600007012486,0.10000880001462065,0.0998496999964118,0.29963670001598075
RSVPLG03,km,20260305-162717,1.0.2,20251113-095759,789,Experiment,Both,1,Automatic,main,58,20260305-163338,global,global,750,H,S,E,A,H-E.png,S-A.png,hH,sS,mask-2.png,mask-4.png,h,1,0.37812149999081157,s,1,0.22362209999118932,0.04963769999449141,0.04859500000020489,0.09858269998221658,0.09833519998937845,0.7473329000058584
RSVPLG03,km,20260305-162717,1.0.2,20251113-095759,789,Experiment,Both,1,Automatic,main,59,20260305-163343,local,local,750,H,H,A,E,A-H.png,E-H.png,hH,hH,mask-4.png,mask-4.png,h,1,0.3182149000058416,h,1,0.18777469999622554,0.05005459999665618,0.050997699989238754,0.10014059999957681,0.10003430000506341,0.746939000004204
RSVPLG03,km,20260305-162717,1.0.2,20251113-095759,789,Experiment,Both,1,Automatic,main,60,20260305-163347,global,global,750,H,H,E,A,H-E.png,H-A.png,hH,hH,mask-1.png,mask-1.png,h,1,0.3299501000146847,h,1,0.18952220000210218,0.05015070000081323,0.04989639998530038,0.09977890001027845,0.10005340000498109,0.748836000013398
RSVPLG03,km,20260305-162717,1.0.2,20251113-095759,789,Experiment,Both,1,Automatic,main,61,20260305-163352,local,global,750,H,H,A,A,A-H.png,H-A.png,hH,hH,mask-1.png,mask-3.png,h,1,1.2132836999953724,h,1,0.12751230000867508,0.04978370000026189,0.05029119999380782,0.0996760000125505,0.0990264999854844,0.7471477000217419
RSVPLG03,km,20260305-162717,1.0.2,20251113-095759,789,Experiment,Both,1,Automatic,main,62,20260305-163357,local,local,750,H,H,A,E,A-H.png,E-H.png,hH,hH,mask-2.png,mask-2.png,h,1,2.5956635999900755,s,0,0.0005644999910145998,0.05096839999896474,0.04988569999113679,0.10001940000802279,0.09981429998879321,0.7477453000028618
RSVPLG03,km,20260305-162717,1.0.2,20251113-095759,789,Experiment,Both,1,Automatic,main,63,20260305-163404,global,local,750,H,H,A,E,H-A.png,E-H.png,hH,hH,mask-1.png,mask-3.png,h,1,0.452389599988237,s,0,0.1403342999983579,0.05025040000327863,0.04893740001716651,0.10052680000080727,0.09897710001678206,0.7485239999950863
RSVPLG03,km,20260305-162717,1.0.2,20251113-095759,789,Experiment,Both,1,Automatic,main,64,20260305-163409,local,local,750,H,H,E,A,E-H.png,A-H.png,hH,hH,mask-2.png,mask-3.png,h,1,0.30404030001955107,h,1,0.09555339999496937,0.049767999997129664,0.050768099987180904,0.09965969997574575,0.1007153999817092,0.7462997999973595
RSVPLG03,km,20260305-162717,1.0.2,20251113-095759,789,Experiment,Both,1,Automatic,main,65,20260305-163413,global,global,750,S,S,A,A,S-A.png,S-A.png,sS,sS,mask-2.png,mask-2.png,s,1,0.3495738999918103,s,1,0.04671299998881295,0.0488482000073418,0.048561700008576736,0.09968250000383705,0.09896500001195818,0.747351099998923
RSVPLG03,km,20260305-162717,1.0.2,20251113-095759,789,Experiment,Both,1,Automatic,main,66,20260305-163418,local,global,300,H,S,A,A,A-H.png,S-A.png,hH,sS,mask-1.png,mask-3.png,h,1,0.7322292000171728,s,1,0.14241369999945164,0.04959049998433329,0.04975219999323599,0.10008939998806454,0.09974780000629835,0.2987954999844078
RSVPLG03,km,20260305-162717,1.0.2,20251113-095759,789,Experiment,Both,1,Automatic,main,67,20260305-163423,local,local,300,H,H,E,A,E-H.png,A-H.png,hH,hH,mask-1.png,mask-1.png,h,1,2.627059599995846,h,1,0.17605559999356046,0.049756099993828684,0.0501675000123214,0.10111779998987913,0.09846440001274459,0.2997818999865558
RSVPLG03,km,20260305-162717,1.0.2,20251113-095759,789,Experiment,Both,1,Automatic,main,68,20260305-163429,global,local,300,S,S,E,E,S-E.png,E-S.png,sS,sS,mask-3.png,mask-3.png,s,1,1.196079599991208,s,1,0.12547070000437088,0.049832799995783716,0.048950099997455254,0.09855070000048727,0.09966989999520592,0.29809969998314045
RSVPLG03,km,20260305-162717,1.0.2,20251113-095759,789,Experiment,Both,1,Automatic,main,69,20260305-163434,local,global,300,H,H,E,A,E-H.png,H-A.png,hH,hH,mask-4.png,mask-3.png,h,1,1.6278486000082921,h,1,0.3537521999969613,0.04952870000852272,0.049381300021195784,0.09877000001142733,0.10085370001615956,0.29873189999489114
RSVPLG03,km,20260305-162717,1.0.2,20251113-095759,789,Experiment,Both,1,Automatic,main,70,20260305-163440,global,local,750,S,H,A,E,S-A.png,E-H.png,sS,hH,mask-3.png,mask-1.png,s,1,1.255751999997301,s,0,0.07821239999611862,0.048148600006243214,0.05028369999490678,0.09919810001156293,0.10038930000155233,0.7465310000116006
RSVPLG03,km,20260305-162717,1.0.2,20251113-095759,789,Experiment,Both,1,Automatic,main,71,20260305-163445,local,global,750,S,H,A,E,A-S.png,H-E.png,sS,hH,mask-1.png,mask-1.png,s,1,0.4844145999813918,h,1,0.36555680001038127,0.049785799987148494,0.04997579997871071,0.09922059997916222,0.09871520000160672,0.7469571999972686
RSVPLG03,km,20260305-162717,1.0.2,20251113-095759,789,Experiment,Both,1,Automatic,main,72,20260305-163450,local,global,300,H,S,E,A,E-H.png,S-A.png,hH,sS,mask-2.png,mask-1.png,h,1,0.3971453999984078,s,1,0.15935410000383854,0.04986299999291077,0.04815650000819005,0.09956929998588748,0.09845699998550117,0.30023890000302345
RSVPLG03,km,20260305-162717,1.0.2,20251113-095759,789,Experiment,Both,1,Automatic,main,73,20260305-163455,global,global,300,S,S,E,A,S-E.png,S-A.png,sS,sS,mask-1.png,mask-3.png,s,1,0.42057739998563193,s,1,0.07865100001799874,0.05006449998472817,0.05103719999897294,0.10032279998995364,0.101328899996588,0.2987130999972578
RSVPLG03,km,20260305-162717,1.0.2,20251113-095759,789,Experiment,Both,1,Automatic,main,74,20260305-163459,global,global,300,H,H,A,A,H-A.png,H-A.png,hH,hH,mask-2.png,mask-1.png,h,1,0.36592680000467226,h,1,0.11085260001709685,0.048659599997336045,0.04915060001076199,0.09865039997384883,0.1002353000221774,0.29762069997377694
RSVPLG03,km,20260305-162717,1.0.2,20251113-095759,789,Experiment,Both,1,Automatic,main,75,20260305-163503,local,local,300,S,H,A,A,A-S.png,A-H.png,sS,hH,mask-3.png,mask-3.png,s,1,0.3092641999828629,h,1,0.22154699999373406,0.04788399999961257,0.05122029999620281,0.09757729998091236,0.10157609998714179,0.296496399998432
RSVPLG03,km,20260305-162717,1.0.2,20251113-095759,789,Experiment,Both,1,Automatic,main,76,20260305-163515,local,global,300,S,S,A,E,A-S.png,S-E.png,sS,sS,mask-2.png,mask-4.png,s,1,0.28826040000421926,h,0,0.02999189999536611,0.04991810000501573,0.04943479999201372,0.10062849998939782,0.10013559999060817,0.2992110000050161
RSVPLG03,km,20260305-162717,1.0.2,20251113-095759,789,Experiment,Both,1,Automatic,main,77,20260305-163519,local,local,750,H,H,E,E,E-H.png,E-H.png,hH,hH,mask-4.png,mask-1.png,h,1,0.30332609999459237,h,1,0.0784249999851454,0.04976359999272972,0.04877100000157952,0.09842759999446571,0.09869759998400696,0.7492507999995723
RSVPLG03,km,20260305-162717,1.0.2,20251113-095759,789,Experiment,Both,1,Automatic,main,78,20260305-163524,local,local,300,S,H,E,E,E-S.png,E-H.png,sS,hH,mask-2.png,mask-1.png,s,1,0.25164820000645705,h,1,0.04792390001239255,0.05000690001179464,0.049311600014334545,0.100411699997494,0.09715350001351908,0.29974079999374226
RSVPLG03,km,20260305-162717,1.0.2,20251113-095759,789,Experiment,Both,1,Automatic,main,79,20260305-163528,local,local,300,S,H,E,A,E-S.png,A-H.png,sS,hH,mask-1.png,mask-4.png,s,1,0.2766657999891322,h,1,0.018566700018709525,0.04881729997578077,0.049810600001364946,0.10040259998640977,0.10055619999184273,0.2989178999850992
RSVPLG03,km,20260305-162717,1.0.2,20251113-095759,789,Experiment,Both,1,Automatic,main,80,20260305-163532,local,global,750,H,H,A,E,A-H.png,H-E.png,hH,hH,mask-2.png,mask-2.png,h,1,2.2427376999985427,s,0,0.35035700001753867,0.049788500007707626,0.048612300015520304,0.09867549999034964,0.09925640001893044,0.7469329999876209
RSVPLG03,km,20260305-162717,1.0.2,20251113-095759,789,Experiment,Both,1,Automatic,main,81,20260305-163538,local,local,300,H,H,A,E,A-H.png,E-H.png,hH,hH,mask-1.png,mask-2.png,h,1,0.36830640002153814,h,1,0.07939729999634437,0.04986780000035651,0.049576799996430054,0.09988680001697503,0.09875359997386113,0.2992177000269294
RSVPLG03,km,20260305-162717,1.0.2,20251113-095759,789,Experiment,Both,1,Automatic,main,82,20260305-163542,local,global,750,H,H,E,A,E-H.png,H-A.png,hH,hH,mask-1.png,mask-2.png,h,1,0.6354833999939729,s,0,0.04501529998378828,0.04974879999645054,0.04880160000175238,0.09964850000687875,0.09946820000186563,0.7472769999876618
RSVPLG03,km,20260305-162717,1.0.2,20251113-095759,789,Experiment,Both,1,Automatic,main,83,20260305-163547,global,global,750,S,H,A,A,S-A.png,H-A.png,sS,hH,mask-2.png,mask-3.png,s,1,0.3263522999768611,h,1,0.013343600003281608,0.05013879999751225,0.05089140002382919,0.10090670001227409,0.09991140000056475,0.7478771999885794
RSVPLG03,km,20260305-162717,1.0.2,20251113-095759,789,Experiment,Both,1,Automatic,main,84,20260305-163552,local,global,300,H,S,E,A,E-H.png,S-A.png,hH,sS,mask-4.png,mask-4.png,h,1,0.6792147999804001,s,1,0.06162170000607148,0.049756100022932515,0.05150510001112707,0.1003781000035815,0.09925749999820255,0.29766820001532324
RSVPLG03,km,20260305-162717,1.0.2,20251113-095759,789,Experiment,Both,1,Automatic,main,85,20260305-163556,local,local,750,H,H,A,E,A-H.png,E-H.png,hH,hH,mask-4.png,mask-4.png,h,1,0.2351319000008516,h,1,0.07843279998633079,0.049721899995347485,0.05071939999470487,0.10119899999699555,0.10065410000970587,0.748041299986653
RSVPLG03,km,20260305-162717,1.0.2,20251113-095759,789,Experiment,Both,1,Automatic,main,86,20260305-163601,local,local,300,S,S,E,A,E-S.png,A-S.png,sS,sS,mask-3.png,mask-4.png,s,1,0.36406580000766553,h,0,0.5242201999935787,0.050478899996960536,0.04993789998115972,0.10036959999706596,0.09950439998647198,0.29801680002128705
RSVPLG03,km,20260305-162717,1.0.2,20251113-095759,789,Experiment,Both,1,Automatic,main,87,20260305-163605,local,global,750,H,S,E,E,E-H.png,S-E.png,hH,sS,mask-4.png,mask-3.png,h,1,1.9726554000226315,s,1,0.06291110001620837,0.049369500018656254,0.049238799983868375,0.09837500000139698,0.0995110000076238,0.7460417000111192
RSVPLG03,km,20260305-162717,1.0.2,20251113-095759,789,Experiment,Both,1,Automatic,main,88,20260305-163611,local,global,300,S,S,E,E,E-S.png,S-E.png,sS,sS,mask-2.png,mask-1.png,s,1,0.2969738999963738,h,0,0.14220319999731146,0.051809600001433864,0.048821000003954396,0.10090760001912713,0.10015320000820793,0.3002512000093702
RSVPLG03,km,20260305-162717,1.0.2,20251113-095759,789,Experiment,Both,1,Automatic,main,89,20260305-163615,local,global,750,H,S,E,E,E-H.png,S-E.png,hH,sS,mask-1.png,mask-2.png,h,1,0.7034852999786381,h,0,0.07746790000237525,0.04977019998477772,0.0487581999914255,0.10076100000878796,0.09816930000670254,0.748486700002104
RSVPLG03,km,20260305-162717,1.0.2,20251113-095759,789,Experiment,Both,1,Automatic,main,90,20260305-163620,global,local,300,H,S,E,E,H-E.png,E-S.png,hH,sS,mask-2.png,mask-3.png,s,0,1.8561553999898024,h,0,1.9516565999947488,0.050007999991066754,0.04919119999976829,0.09996979997958988,0.09824099999968894,0.2999701999942772
RSVPLG03,km,20260305-162717,1.0.2,20251113-095759,789,Experiment,Both,1,Automatic,main,91,20260305-163625,local,global,750,H,H,E,E,E-H.png,H-E.png,hH,hH,mask-1.png,mask-3.png,h,1,0.3675649000215344,s,0,0.17488930001854897,0.049569200025871396,0.04747900000074878,0.10060940001858398,0.09783179999794811,0.7487865000148304
RSVPLG03,km,20260305-162717,1.0.2,20251113-095759,789,Experiment,Both,1,Automatic,main,92,20260305-163630,global,local,300,H,H,A,A,H-A.png,A-H.png,hH,hH,mask-4.png,mask-3.png,h,1,1.002524599985918,h,1,0.09568389999913052,0.049766400014050305,0.048569400009000674,0.09945680000237189,0.10028509999392554,0.3001763999927789
RSVPLG03,km,20260305-162717,1.0.2,20251113-095759,789,Experiment,Both,1,Automatic,main,93,20260305-163635,global,global,300,H,S,A,E,H-A.png,S-E.png,hH,sS,mask-2.png,mask-1.png,h,1,0.49026590000721626,s,1,0.14253519999329,0.050544400000944734,0.050130599993281066,0.10028939999756403,0.10045150000951253,0.2978622000082396
RSVPLG03,km,20260305-162717,1.0.2,20251113-095759,789,Experiment,Both,1,Automatic,main,94,20260305-163639,global,global,300,S,S,E,A,S-E.png,S-A.png,sS,sS,mask-1.png,mask-2.png,s,1,1.3645880999974906,s,1,0.07935680000809953,0.04886310000438243,0.05078530000173487,0.09863439999753609,0.10140419998788275,0.29701639999984764
RSVPLG03,km,20260305-162717,1.0.2,20251113-095759,789,Experiment,Both,1,Automatic,main,95,20260305-163644,global,global,750,H,H,A,E,H-A.png,H-E.png,hH,hH,mask-4.png,mask-2.png,h,1,0.29264810000313446,h,1,0.09189260000130162,0.049812100012786686,0.04864880000241101,0.09801660000812262,0.09879680001176894,0.7468951999908313
RSVPLG03,km,20260305-162717,1.0.2,20251113-095759,789,Experiment,Both,1,Automatic,main,96,20260305-163649,global,local,750,S,H,E,E,S-E.png,E-H.png,sS,hH,mask-1.png,mask-3.png,s,1,0.3154921000241302,s,0,0.4150696999859065,0.05016879999311641,0.0508616000006441,0.10060359997441992,0.099719499994535,0.747976499987999
RSVPLG03,km,20260305-162717,1.0.2,20251113-095759,789,Experiment,Both,1,Automatic,main,97,20260305-163654,local,global,300,H,S,A,A,A-H.png,S-A.png,hH,sS,mask-2.png,mask-1.png,h,1,0.4802444000088144,s,1,0.04244059999473393,0.04825979997985996,0.05038199998671189,0.09817579999798909,0.09989779998431914,0.29839340000762604
RSVPLG03,km,20260305-162717,1.0.2,20251113-095759,789,Experiment,Both,1,Automatic,main,98,20260305-163658,global,global,750,H,H,E,E,H-E.png,H-E.png,hH,hH,mask-3.png,mask-4.png,s,0,1.1493805999925826,h,1,0.10920099998475052,0.049585400003707036,0.04854879999766126,0.10020459999213926,0.09986960000242107,0.7482632999890484
RSVPLG03,km,20260305-162717,1.0.2,20251113-095759,789,Experiment,Both,1,Automatic,main,99,20260305-163703,global,local,300,H,H,E,A,H-E.png,A-H.png,hH,hH,mask-1.png,mask-1.png,h,1,0.44170450000092387,s,0,1.0547586999891791,0.04939519998151809,0.05129179998766631,0.10034319999977015,0.10071309999329969,0.2979672999936156
RSVPLG03,km,20260305-162717,1.0.2,20251113-095759,789,Experiment,Both,1,Automatic,main,100,20260305-163709,global,local,750,S,S,A,E,S-A.png,E-S.png,sS,sS,mask-3.png,mask-3.png,s,1,0.3165541999915149,s,1,0.0933505000139121,0.049007800000254065,0.04960209998534992,0.09992040001088753,0.09943859998020343,0.7472496000118554
