exp,exp_initials,runtime,ver,modtime,sub,blocktype,targets,cuetype,mode,trialtype,trial,trialtime,t1_level,t2_level,t2_lag,t1,t2,distractor1,distractor2,stimfile1,stimfile2,t1_corr,t2_corr,maskfile1,maskfile2,t1_resp,t1_acc,t1_rt,t2_resp,t2_acc,t2_rt,t1_dur,t2_dur,t1mask_soa,t2mask_soa,t1t2_soa
RSVPLG03,JM,20260219-101625,1.0.2,20251105-084826,769,Practice,T1,1,Automatic,main,1,20260219-101655,local,global,750,H,H,E,E,E-H.png,H-E.png,hH,hH,mask-4.png,mask-4.png,h,1,7.959553999826312,none,-5,0,0.04129649978131056,0.048712500371038914,0.09443859942257404,0.1003449996933341,0.7452863994985819
RSVPLG03,JM,20260219-101625,1.0.2,20251105-084826,769,Practice,T1,1,Automatic,main,2,20260219-101707,local,local,750,S,S,E,E,E-S.png,E-S.png,sS,sS,mask-3.png,mask-1.png,s,1,2.7165208999067545,none,-5,0,0.04867029935121536,0.048007999546825886,0.10039429925382137,0.09938689973205328,0.7525172997266054
RSVPLG03,JM,20260219-101625,1.0.2,20251105-084826,769,Practice,T1,1,Automatic,main,3,20260219-101714,global,local,300,S,H,A,E,S-A.png,E-H.png,sS,hH,mask-4.png,mask-1.png,s,1,3.4587407000362873,none,-5,0,0.04751119948923588,0.048440500162541866,0.10058819968253374,0.10114710032939911,0.3001141995191574
RSVPLG03,JM,20260219-101625,1.0.2,20251105-084826,769,Practice,T1,1,Automatic,main,4,20260219-101721,global,global,750,H,H,E,E,H-E.png,H-E.png,hH,hH,mask-3.png,mask-2.png,s,0,4.974719800055027,none,-5,0,0.04754969943314791,0.04771410021930933,0.10057029966264963,0.10093179997056723,0.7521973997354507
RSVPLG03,JM,20260219-101625,1.0.2,20251105-084826,769,Practice,T1,1,Automatic,main,5,20260219-101730,local,local,750,S,H,E,A,E-S.png,A-H.png,sS,hH,mask-4.png,mask-2.png,s,1,1.7831208994612098,none,-5,0,0.04918280057609081,0.047794099897146225,0.10179240070283413,0.10029339976608753,0.7533695008605719
RSVPLG03,JM,20260219-101625,1.0.2,20251105-084826,769,Practice,T1,1,Automatic,main,6,20260219-101736,local,local,300,S,S,A,A,A-S.png,A-S.png,sS,sS,mask-3.png,mask-3.png,h,0,1.7598173003643751,none,-5,0,0.04776750039309263,0.046394700184464455,0.10062710009515285,0.09954560082405806,0.3029520995914936
RSVPLG03,JM,20260219-101625,1.0.2,20251105-084826,769,Practice,T1,1,Automatic,main,7,20260219-101741,local,global,300,H,S,E,E,E-H.png,S-E.png,hH,sS,mask-4.png,mask-3.png,s,0,1.1274089002981782,none,-5,0,0.048650000244379044,0.04782730061560869,0.10085620079189539,0.1011479003354907,0.3007455999031663
RSVPLG03,JM,20260219-101625,1.0.2,20251105-084826,769,Practice,T1,1,Automatic,main,8,20260219-101746,global,global,750,H,H,A,E,H-A.png,H-E.png,hH,hH,mask-2.png,mask-3.png,h,1,1.7863396005705,none,-5,0,0.04616559948772192,0.047972300089895725,0.09946239925920963,0.10100180003792048,0.75068339984864
RSVPLG03,JM,20260219-101625,1.0.2,20251105-084826,769,Practice,T1,1,Automatic,main,9,20260219-101752,global,global,300,H,S,E,A,H-E.png,S-A.png,hH,sS,mask-2.png,mask-4.png,s,0,2.5162137001752853,none,-5,0,0.048643399961292744,0.04770690016448498,0.10184079967439175,0.09895110037177801,0.30286419950425625
RSVPLG03,JM,20260219-101625,1.0.2,20251105-084826,769,Practice,T1,1,Automatic,main,10,20260219-101758,local,local,300,H,S,A,E,A-H.png,E-S.png,hH,sS,mask-1.png,mask-4.png,h,1,0.9823823003098369,none,-5,0,0.047738599590957165,0.04654360003769398,0.10146179981529713,0.09973089955747128,0.3028752999380231
RSVPLG03,JM,20260219-101625,1.0.2,20251105-084826,769,Practice,T1,1,Automatic,main,11,20260219-101802,global,local,300,H,S,E,A,H-E.png,A-S.png,hH,sS,mask-3.png,mask-4.png,h,1,1.7645254004746675,none,-5,0,0.04789469949901104,0.0477091995999217,0.09990879986435175,0.10057679936289787,0.3011285001412034
RSVPLG03,JM,20260219-101625,1.0.2,20251105-084826,769,Practice,T1,1,Automatic,main,12,20260219-101808,global,local,750,H,H,A,E,H-A.png,E-H.png,hH,hH,mask-3.png,mask-4.png,h,1,2.382549500092864,none,-5,0,0.04772430006414652,0.04863740038126707,0.10100660007447004,0.1021381001919508,0.7516024997457862
RSVPLG03,JM,20260219-101625,1.0.2,20251105-084826,769,Practice,T1,1,Automatic,main,13,20260219-101814,global,local,750,H,H,A,A,H-A.png,A-H.png,hH,hH,mask-2.png,mask-4.png,h,1,1.6630796995013952,none,-5,0,0.046991500072181225,0.04733849968761206,0.10027940012514591,0.10037489980459213,0.7522293999791145
RSVPLG03,JM,20260219-101625,1.0.2,20251105-084826,769,Practice,T1,1,Automatic,main,14,20260219-101820,global,global,300,H,S,A,A,H-A.png,S-A.png,hH,sS,mask-2.png,mask-4.png,h,1,2.282592600211501,none,-5,0,0.04778029955923557,0.04692620038986206,0.10139259975403547,0.09917490091174841,0.3021351993083954
RSVPLG03,JM,20260219-101625,1.0.2,20251105-084826,769,Practice,T1,1,Automatic,main,15,20260219-101826,local,global,300,H,S,E,A,E-H.png,S-A.png,hH,sS,mask-1.png,mask-1.png,h,1,2.4218779001384974,none,-5,0,0.047445700503885746,0.04777249973267317,0.0995653998106718,0.10058209951967001,0.30009520053863525
RSVPLG03,JM,20260219-101625,1.0.2,20251105-084826,769,Practice,T1,1,Automatic,main,16,20260219-101832,local,global,750,S,S,E,E,E-S.png,S-E.png,sS,sS,mask-2.png,mask-1.png,s,1,1.9483366003260016,none,-5,0,0.047802300192415714,0.047686100006103516,0.09960899967700243,0.10113190021365881,0.752105999737978
RSVPLG03,JM,20260219-101908,1.0.2,20251105-084826,769,Practice,T1,1,Automatic,main,1,20260219-101928,local,local,750,H,H,A,E,A-H.png,E-H.png,hH,hH,mask-1.png,mask-3.png,h,1,1.6149774994701147,none,-5,0,0.04046079982072115,0.046933299861848354,0.09366829972714186,0.0992089994251728,0.7451621005311608
RSVPLG03,JM,20260219-101908,1.0.2,20251105-084826,769,Practice,T1,1,Automatic,main,2,20260219-101933,local,global,750,S,S,A,A,A-S.png,S-A.png,sS,sS,mask-4.png,mask-2.png,s,1,1.602122699841857,none,-5,0,0.04761879984289408,0.047550699673593044,0.10144650004804134,0.09882779978215694,0.7523699002340436
RSVPLG03,JM,20260219-101908,1.0.2,20251105-084826,769,Practice,T1,1,Automatic,main,3,20260219-101939,global,global,750,H,S,E,E,H-E.png,S-E.png,hH,sS,mask-4.png,mask-1.png,h,1,1.4060947997495532,none,-5,0,0.047719099558889866,0.04766879975795746,0.09832169953733683,0.09984039980918169,0.7502411995083094
RSVPLG03,JM,20260219-101908,1.0.2,20251105-084826,769,Practice,T1,1,Automatic,main,4,20260219-101944,local,local,750,S,S,A,E,A-S.png,E-S.png,sS,sS,mask-1.png,mask-2.png,s,1,2.5212663002312183,none,-5,0,0.04663030058145523,0.048568399623036385,0.09831679984927177,0.09998529963195324,0.7500100005418062
RSVPLG03,JM,20260219-101908,1.0.2,20251105-084826,769,Practice,T1,1,Automatic,main,5,20260219-101951,global,local,300,S,H,E,E,S-E.png,E-H.png,sS,hH,mask-4.png,mask-3.png,s,1,1.3975985003635287,none,-5,0,0.046593100763857365,0.046410600654780865,0.10036930069327354,0.09911430068314075,0.30072120018303394
RSVPLG03,JM,20260219-101908,1.0.2,20251105-084826,769,Practice,T1,1,Automatic,main,6,20260219-101956,global,local,750,S,H,A,E,S-A.png,E-H.png,sS,hH,mask-3.png,mask-3.png,h,0,1.2462605005130172,none,-5,0,0.04868969973176718,0.04769900068640709,0.10171329975128174,0.10094620008021593,0.7515725996345282
RSVPLG03,JM,20260219-101908,1.0.2,20251105-084826,769,Practice,T1,1,Automatic,main,7,20260219-102001,global,global,750,S,H,E,E,S-E.png,H-E.png,sS,hH,mask-3.png,mask-4.png,h,0,1.212138899601996,none,-5,0,0.0475192004814744,0.048594700172543526,0.09874780010432005,0.09922119975090027,0.7509353999048471
RSVPLG03,JM,20260219-101908,1.0.2,20251105-084826,769,Practice,T1,1,Automatic,main,8,20260219-102006,global,local,300,S,H,E,E,S-E.png,E-H.png,sS,hH,mask-2.png,mask-3.png,h,0,1.3172398004680872,none,-5,0,0.04757330007851124,0.04711659997701645,0.09952000062912703,0.1008609002456069,0.29953760001808405
RSVPLG03,JM,20260219-101908,1.0.2,20251105-084826,769,Practice,T1,1,Automatic,main,9,20260219-102011,global,local,750,H,S,E,E,H-E.png,E-S.png,hH,sS,mask-2.png,mask-2.png,h,1,2.555399600416422,none,-5,0,0.047566999681293964,0.0488116005435586,0.09858180023729801,0.10200100019574165,0.7497996995225549
RSVPLG03,JM,20260219-101908,1.0.2,20251105-084826,769,Practice,T1,1,Automatic,main,10,20260219-102018,global,global,300,S,S,A,A,S-A.png,S-A.png,sS,sS,mask-1.png,mask-4.png,s,1,1.2720663994550705,none,-5,0,0.04665539972484112,0.04704769980162382,0.09892719984054565,0.09972099959850311,0.29965610057115555
RSVPLG03,JM,20260219-101908,1.0.2,20251105-084826,769,Practice,T1,1,Automatic,main,11,20260219-102023,local,global,300,H,H,A,E,A-H.png,H-E.png,hH,hH,mask-1.png,mask-1.png,h,1,1.3248325996100903,none,-5,0,0.04873770009726286,0.048856399953365326,0.10097089968621731,0.10201499983668327,0.2999553997069597
RSVPLG03,JM,20260219-101908,1.0.2,20251105-084826,769,Practice,T1,1,Automatic,main,12,20260219-102028,local,local,300,S,H,A,A,A-S.png,A-H.png,sS,hH,mask-1.png,mask-4.png,s,1,1.2915479000657797,none,-5,0,0.04875599965453148,0.04862590041011572,0.10080119967460632,0.10084549989551306,0.30048489943146706
RSVPLG03,JM,20260219-101908,1.0.2,20251105-084826,769,Practice,T1,1,Automatic,main,13,20260219-102032,local,global,300,S,S,A,E,A-S.png,S-E.png,sS,sS,mask-3.png,mask-1.png,h,0,1.32366260048002,none,-5,0,0.04841050039976835,0.04966390039771795,0.10065869987010956,0.1017621997743845,0.2996196001768112
RSVPLG03,JM,20260219-101908,1.0.2,20251105-084826,769,Practice,T1,1,Automatic,main,14,20260219-102037,local,local,300,H,S,A,A,A-H.png,A-S.png,hH,sS,mask-1.png,mask-3.png,h,1,1.2906357003375888,none,-5,0,0.04713119938969612,0.04701690003275871,0.10071929916739464,0.10060079954564571,0.30020369961857796
RSVPLG03,JM,20260219-101908,1.0.2,20251105-084826,769,Practice,T1,1,Automatic,main,15,20260219-102042,local,global,750,H,H,A,A,A-H.png,H-A.png,hH,hH,mask-1.png,mask-2.png,h,1,3.117675299756229,none,-5,0,0.048710599541664124,0.046745700761675835,0.10094889998435974,0.10097460076212883,0.7518670996651053
RSVPLG03,JM,20260219-101908,1.0.2,20251105-084826,769,Practice,T1,1,Automatic,main,16,20260219-102049,global,global,300,H,S,E,E,H-E.png,S-E.png,hH,sS,mask-1.png,mask-4.png,s,0,1.9582166001200676,none,-5,0,0.04645320028066635,0.04697429947555065,0.09845330007374287,0.10043449979275465,0.2993724001571536
RSVPLG03,JM,20260219-102122,1.0.2,20251105-084826,769,Practice,T1,1,Automatic,main,1,20260219-102141,global,global,300,H,S,E,A,H-E.png,S-A.png,hH,sS,mask-1.png,mask-2.png,h,1,1.8902588998898864,none,-5,0,0.04805049952119589,0.04758160002529621,0.10013569984585047,0.10059070028364658,0.3008644999936223
RSVPLG03,JM,20260219-102122,1.0.2,20251105-084826,769,Practice,T1,1,Automatic,main,2,20260219-102146,global,local,750,H,H,E,A,H-E.png,A-H.png,hH,hH,mask-1.png,mask-1.png,h,1,1.369068999774754,none,-5,0,0.046617900021374226,0.04756650049239397,0.10062659997493029,0.10063229966908693,0.7523269997909665
RSVPLG03,JM,20260219-102122,1.0.2,20251105-084826,769,Practice,T1,1,Automatic,main,3,20260219-102152,global,local,300,H,H,E,A,H-E.png,A-H.png,hH,hH,mask-4.png,mask-4.png,h,1,1.5635796999558806,none,-5,0,0.04859230015426874,0.04759819991886616,0.10069189965724945,0.09966169949620962,0.30207480024546385
RSVPLG03,JM,20260219-102122,1.0.2,20251105-084826,769,Practice,T1,1,Automatic,main,4,20260219-102157,local,global,750,S,S,A,A,A-S.png,S-A.png,sS,sS,mask-2.png,mask-1.png,s,1,2.585196199826896,none,-5,0,0.04879019968211651,0.04778419993817806,0.10095119941979647,0.10168439988046885,0.75312539935112
RSVPLG03,JM,20260219-102122,1.0.2,20251105-084826,769,Practice,T1,1,Automatic,main,5,20260219-102203,local,global,750,S,S,E,A,E-S.png,S-A.png,sS,sS,mask-4.png,mask-2.png,s,1,1.110832099802792,none,-5,0,0.048236800357699394,0.04861089959740639,0.10143740009516478,0.10124969948083162,0.7524714004248381
RSVPLG03,JM,20260219-102122,1.0.2,20251105-084826,769,Practice,T1,1,Automatic,main,6,20260219-102208,local,global,300,H,S,A,E,A-H.png,S-E.png,hH,sS,mask-2.png,mask-4.png,s,0,1.2922359993681312,none,-5,0,0.04795739986002445,0.04858310054987669,0.10006900038570166,0.10052479989826679,0.3003789000213146
RSVPLG03,JM,20260219-102122,1.0.2,20251105-084826,769,Practice,T1,1,Automatic,main,7,20260219-102213,global,local,300,H,S,E,E,H-E.png,E-S.png,hH,sS,mask-1.png,mask-4.png,h,1,4.705963899381459,none,-5,0,0.04699010029435158,0.04838099982589483,0.10032710060477257,0.10154049936681986,0.3002542005851865
RSVPLG03,JM,20260219-102122,1.0.2,20251105-084826,769,Practice,T1,1,Automatic,main,8,20260219-102222,local,local,750,S,S,A,A,A-S.png,A-S.png,sS,sS,mask-3.png,mask-3.png,s,1,4.154515199363232,none,-5,0,0.04685049969702959,0.0461005000397563,0.10018240008503199,0.09890610072761774,0.7532282993197441
RSVPLG03,JM,20260219-102122,1.0.2,20251105-084826,769,Practice,T1,1,Automatic,main,9,20260219-102230,global,local,750,H,H,E,E,H-E.png,E-H.png,hH,hH,mask-4.png,mask-4.png,s,0,3.205454600043595,none,-5,0,0.048215399496257305,0.047367299906909466,0.10085039958357811,0.1000006003305316,0.7536761993542314
RSVPLG03,JM,20260219-102122,1.0.2,20251105-084826,769,Practice,T1,1,Automatic,main,10,20260219-102237,global,global,750,H,S,E,E,H-E.png,S-E.png,hH,sS,mask-3.png,mask-3.png,h,1,3.561575099825859,none,-5,0,0.04794629942625761,0.04569199960678816,0.09932720009237528,0.09989289939403534,0.7538414001464844
RSVPLG03,JM,20260219-102122,1.0.2,20251105-084826,769,Practice,T1,1,Automatic,main,11,20260219-102245,global,global,750,S,S,A,A,S-A.png,S-A.png,sS,sS,mask-3.png,mask-3.png,h,0,3.457124900072813,none,-5,0,0.04656569939106703,0.04965060018002987,0.09877039957791567,0.10003030020743608,0.7510635992512107
RSVPLG03,JM,20260219-102122,1.0.2,20251105-084826,769,Practice,T1,1,Automatic,main,12,20260219-102252,local,local,300,H,H,A,A,A-H.png,A-H.png,hH,hH,mask-4.png,mask-4.png,s,0,3.0566641995683312,none,-5,0,0.04938860051333904,0.047438000328838825,0.10059230029582977,0.10113800037652254,0.30163170024752617
RSVPLG03,JM,20260219-102122,1.0.2,20251105-084826,769,Practice,T1,1,Automatic,main,13,20260219-102259,global,global,300,S,H,E,E,S-E.png,H-E.png,sS,hH,mask-2.png,mask-4.png,h,0,2.1069482006132603,none,-5,0,0.046636500395834446,0.04854129999876022,0.100297000259161,0.1005922993645072,0.3007061006501317
RSVPLG03,JM,20260219-102122,1.0.2,20251105-084826,769,Practice,T1,1,Automatic,main,14,20260219-102305,local,global,300,H,S,A,A,A-H.png,S-A.png,hH,sS,mask-3.png,mask-4.png,s,0,1.2522465996444225,none,-5,0,0.04732470028102398,0.04673479963093996,0.09943210054188967,0.09982640016824007,0.30175030045211315
RSVPLG03,JM,20260219-102122,1.0.2,20251105-084826,769,Practice,T1,1,Automatic,main,15,20260219-102310,local,local,750,H,H,E,E,E-H.png,E-H.png,hH,hH,mask-1.png,mask-1.png,h,1,0.5193088008090854,none,-5,0,0.046819600276649,0.04748400021344423,0.1000322001054883,0.09948229975998402,0.7525971997529268
RSVPLG03,JM,20260219-102122,1.0.2,20251105-084826,769,Practice,T1,1,Automatic,main,16,20260219-102314,local,local,300,S,H,E,A,E-S.png,A-H.png,sS,hH,mask-3.png,mask-4.png,s,1,2.1804654002189636,none,-5,0,0.048703400418162346,0.047358300536870956,0.09970139991492033,0.10032120067626238,0.30198909994214773
RSVPLG03,JM,20260219-102345,1.0.2,20251105-084826,769,Practice,Both,1,Automatic,main,1,20260219-102518,local,global,300,S,H,A,E,A-S.png,H-E.png,sS,hH,mask-1.png,mask-1.png,h,0,3.7699619997292757,s,0,2.098850999958813,0.0449363999068737,0.04864700045436621,0.09707560017704964,0.10179429966956377,0.2961312998086214
RSVPLG03,JM,20260219-102345,1.0.2,20251105-084826,769,Practice,Both,1,Automatic,main,2,20260219-102527,global,global,300,H,S,A,A,H-A.png,S-A.png,hH,sS,mask-4.png,mask-1.png,s,0,5.461923799477518,h,0,0.3753677001222968,0.04861140064895153,0.04753020033240318,0.10116850025951862,0.09865669999271631,0.30155180022120476
RSVPLG03,JM,20260219-102345,1.0.2,20251105-084826,769,Practice,Both,1,Automatic,main,3,20260219-102537,global,local,750,S,H,E,E,S-E.png,E-H.png,sS,hH,mask-2.png,mask-1.png,h,0,2.7934865998104215,s,0,1.019119099713862,0.04711769986897707,0.04688320029526949,0.0993205001577735,0.10105689987540245,0.7497071996331215
RSVPLG03,JM,20260219-102345,1.0.2,20251105-084826,769,Practice,Both,1,Automatic,main,4,20260219-102545,local,global,300,H,H,E,E,E-H.png,H-E.png,hH,hH,mask-3.png,mask-1.png,s,0,2.592731799930334,s,0,0.19778829999268055,0.04783460032194853,0.046779400669038296,0.09942170046269894,0.09968870040029287,0.29985939990729094
RSVPLG03,JM,20260219-102345,1.0.2,20251105-084826,769,Practice,Both,1,Automatic,main,5,20260219-102552,global,global,750,S,S,A,E,S-A.png,S-E.png,sS,sS,mask-4.png,mask-4.png,s,1,5.585591299459338,s,1,0.5139745995402336,0.04544509947299957,0.04727050010114908,0.09926099982112646,0.10123249981552362,0.7497445000335574
RSVPLG03,JM,20260219-102345,1.0.2,20251105-084826,769,Practice,Both,1,Automatic,main,6,20260219-102602,global,local,300,S,H,A,E,S-A.png,E-H.png,sS,hH,mask-1.png,mask-1.png,h,0,7.381376800127327,h,1,0.28041870053857565,0.04790730029344559,0.04758050013333559,0.09919149987399578,0.10028890054672956,0.30093029979616404
RSVPLG03,JM,20260219-102345,1.0.2,20251105-084826,769,Practice,Both,1,Automatic,main,7,20260219-102614,global,local,300,S,H,E,A,S-E.png,A-H.png,sS,hH,mask-3.png,mask-4.png,s,1,8.286274899728596,h,1,1.0319706005975604,0.046900199726223946,0.046533300541341305,0.09834500029683113,0.09940099995583296,0.3004133999347687
RSVPLG03,JM,20260219-102345,1.0.2,20251105-084826,769,Practice,Both,1,Automatic,main,8,20260219-102627,global,local,750,H,H,E,E,H-E.png,E-H.png,hH,hH,mask-3.png,mask-1.png,s,0,5.791076600551605,h,1,0.26362730003893375,0.04745110031217337,0.04741020034998655,0.10033120028674603,0.1002080999314785,0.7506897002458572
RSVPLG03,JM,20260219-102345,1.0.2,20251105-084826,769,Practice,Both,1,Automatic,main,9,20260219-102637,global,global,750,H,H,A,E,H-A.png,H-E.png,hH,hH,mask-2.png,mask-4.png,h,1,7.37163760047406,h,1,0.170762300491333,0.048692299984395504,0.04673970025032759,0.10010970011353493,0.10008340049535036,0.7521465998142958
RSVPLG03,JM,20260219-102345,1.0.2,20251105-084826,769,Practice,Both,1,Automatic,main,10,20260219-102649,global,global,300,H,H,E,A,H-E.png,H-A.png,hH,hH,mask-3.png,mask-4.png,h,1,3.134733000770211,h,1,0.18757599964737892,0.04811509978026152,0.04905459936708212,0.1006292998790741,0.1018058992922306,0.29937270004302263
RSVPLG03,JM,20260219-102345,1.0.2,20251105-084826,769,Practice,Both,1,Automatic,main,11,20260219-102656,local,local,750,S,S,E,E,E-S.png,E-S.png,sS,sS,mask-1.png,mask-2.png,s,1,4.81302999984473,s,1,0.15366740059107542,0.046144500374794006,0.04774300009012222,0.09783370047807693,0.09983049985021353,0.7493307003751397
RSVPLG03,JM,20260219-102345,1.0.2,20251105-084826,769,Practice,Both,1,Automatic,main,12,20260219-102706,local,global,750,H,S,E,A,E-H.png,S-A.png,hH,sS,mask-4.png,mask-4.png,s,0,5.760136399418116,h,0,0.03165530040860176,0.04867980070412159,0.04782159999012947,0.1008753003552556,0.10103960055857897,0.750276300124824
RSVPLG03,JM,20260219-102345,1.0.2,20251105-084826,769,Practice,Both,1,Automatic,main,13,20260219-102716,local,local,300,S,H,A,A,A-S.png,A-H.png,sS,hH,mask-4.png,mask-3.png,h,0,2.952769299969077,h,1,0.2121011996641755,0.04885290004312992,0.047839400358498096,0.10107669979333878,0.10001690033823252,0.3010962996631861
RSVPLG03,JM,20260219-102345,1.0.2,20251105-084826,769,Practice,Both,1,Automatic,main,14,20260219-102723,local,local,300,S,H,A,A,A-S.png,A-H.png,sS,hH,mask-2.png,mask-1.png,h,0,5.219061200506985,h,1,0.1444792002439499,0.04739580024033785,0.048826899379491806,0.09946919977664948,0.10109640005975962,0.3002810003235936
RSVPLG03,JM,20260219-102345,1.0.2,20251105-084826,769,Practice,Both,1,Automatic,main,15,20260219-102732,local,global,750,S,H,A,A,A-S.png,H-A.png,sS,hH,mask-1.png,mask-1.png,s,1,2.7856713999062777,s,0,0.1493929997086525,0.04982350021600723,0.04781350027769804,0.10204530041664839,0.10002289991825819,0.7522266004234552
RSVPLG03,JM,20260219-102345,1.0.2,20251105-084826,769,Practice,Both,1,Automatic,main,16,20260219-102739,local,local,750,H,S,E,E,E-H.png,E-S.png,hH,sS,mask-1.png,mask-1.png,h,1,1.7569017000496387,h,0,1.8728833999484777,0.04745570011436939,0.047499099746346474,0.09906309936195612,0.099515900015831,0.7501774998381734
RSVPLG03,JM,20260219-102807,1.0.2,20251105-084826,769,Practice,Both,1,Automatic,main,1,20260219-102846,local,global,750,S,S,A,A,A-S.png,S-A.png,sS,sS,mask-4.png,mask-2.png,h,0,3.3793315002694726,h,0,0.18614820018410683,0.04021649993956089,0.04763389937579632,0.09206289984285831,0.09972159937024117,0.742951299995184
RSVPLG03,JM,20260219-102807,1.0.2,20251105-084826,769,Practice,Both,1,Automatic,main,2,20260219-102854,local,global,300,H,S,E,E,E-H.png,S-E.png,hH,sS,mask-1.png,mask-2.png,s,0,2.4224212002009153,h,0,0.6304670004174113,0.047710600309073925,0.04778470005840063,0.09985750075429678,0.09933749958872795,0.30155490059405565
RSVPLG03,JM,20260219-102807,1.0.2,20251105-084826,769,Practice,Both,1,Automatic,main,3,20260219-102901,global,global,750,H,H,E,E,H-E.png,H-E.png,hH,hH,mask-1.png,mask-1.png,h,1,4.921223299577832,s,0,0.7929529007524252,0.04779099952429533,0.0478429002687335,0.1010157996788621,0.10009250044822693,0.750666699372232
RSVPLG03,JM,20260219-102807,1.0.2,20251105-084826,769,Practice,Both,1,Automatic,main,4,20260219-102911,global,local,300,H,S,E,A,H-E.png,A-S.png,hH,sS,mask-4.png,mask-4.png,h,1,3.040866400115192,h,0,0.5595870995894074,0.047686100006103516,0.04697159957140684,0.10131500009447336,0.10038119927048683,0.30218360014259815
RSVPLG03,JM,20260219-102807,1.0.2,20251105-084826,769,Practice,Both,1,Automatic,main,5,20260219-102918,local,local,750,H,H,E,E,E-H.png,E-H.png,hH,hH,mask-4.png,mask-2.png,h,1,3.772841200232506,s,0,0.3278820002451539,0.045603799633681774,0.04840909969061613,0.09835159964859486,0.09974589943885803,0.7500569000840187
RSVPLG03,JM,20260219-102807,1.0.2,20251105-084826,769,Practice,Both,1,Automatic,main,6,20260219-102927,global,global,750,H,H,A,A,H-A.png,H-A.png,hH,hH,mask-1.png,mask-3.png,h,1,1.9914521994069219,h,1,0.1541772000491619,0.04752480052411556,0.04777559917420149,0.10079680010676384,0.10100629925727844,0.751056800596416
RSVPLG03,JM,20260219-102807,1.0.2,20251105-084826,769,Practice,Both,1,Automatic,main,7,20260219-102933,global,local,300,S,S,E,E,S-E.png,E-S.png,sS,sS,mask-1.png,mask-1.png,s,1,2.2501186998561025,s,1,0.184056400321424,0.04771800059825182,0.046633100137114525,0.09915340039879084,0.1005610004067421,0.3003922002390027
RSVPLG03,JM,20260219-102807,1.0.2,20251105-084826,769,Practice,Both,1,Automatic,main,8,20260219-102939,local,global,750,H,S,A,A,A-H.png,S-A.png,hH,sS,mask-3.png,mask-2.png,s,0,3.9984867004677653,s,1,0.1166703999042511,0.04765079915523529,0.04754190053790808,0.09965449944138527,0.10011710040271282,0.7508061993867159
RSVPLG03,JM,20260219-102807,1.0.2,20251105-084826,769,Practice,Both,1,Automatic,main,9,20260219-102948,local,local,300,S,H,E,E,E-S.png,E-H.png,sS,hH,mask-2.png,mask-4.png,s,1,9.056961699388921,h,1,0.0633739996701479,0.04703560005873442,0.04768839944154024,0.09912179969251156,0.09922749921679497,0.30016160011291504
RSVPLG03,JM,20260219-102807,1.0.2,20251105-084826,769,Practice,Both,1,Automatic,main,10,20260219-103000,global,global,300,H,S,E,E,H-E.png,S-E.png,hH,sS,mask-2.png,mask-2.png,h,1,2.4767660992220044,s,1,0.08633309975266457,0.04741180036216974,0.04748990014195442,0.10020990017801523,0.09971490036696196,0.2998695997521281
RSVPLG03,JM,20260219-102807,1.0.2,20251105-084826,769,Practice,Both,1,Automatic,main,11,20260219-103007,local,local,300,S,H,A,E,A-S.png,E-H.png,sS,hH,mask-4.png,mask-3.png,s,1,3.1634448999539018,s,0,0.14059269987046719,0.04672370012849569,0.04858249984681606,0.09989170078188181,0.09923579916357994,0.30001520086079836
RSVPLG03,JM,20260219-102807,1.0.2,20251105-084826,769,Practice,Both,1,Automatic,main,12,20260219-103014,global,local,750,H,S,E,A,H-E.png,A-S.png,hH,sS,mask-4.png,mask-1.png,h,1,5.662500300444663,s,1,0.3155243005603552,0.04712140001356602,0.047522000037133694,0.09951370023190975,0.09949580021202564,0.7512368997558951
RSVPLG03,JM,20260219-102807,1.0.2,20251105-084826,769,Practice,Both,1,Automatic,main,13,20260219-103024,global,local,750,H,S,A,A,H-A.png,A-S.png,hH,sS,mask-3.png,mask-2.png,s,0,2.5046055000275373,s,1,2.444461900740862,0.04683380015194416,0.047568200156092644,0.10004760045558214,0.09857600089162588,0.7519789999350905
RSVPLG03,JM,20260219-102807,1.0.2,20251105-084826,769,Practice,Both,1,Automatic,main,14,20260219-103033,local,local,750,S,S,E,A,E-S.png,A-S.png,sS,sS,mask-2.png,mask-2.png,s,1,1.0682474002242088,h,0,0.358466699719429,0.048199599608778954,0.04879309982061386,0.10097809974104166,0.10099339950829744,0.7516574999317527
RSVPLG03,JM,20260219-102807,1.0.2,20251105-084826,769,Practice,Both,1,Automatic,main,15,20260219-103039,global,global,300,H,S,E,A,H-E.png,S-A.png,hH,sS,mask-2.png,mask-4.png,h,1,1.773580500856042,s,1,0.12187680043280125,0.046294099651277065,0.04765160009264946,0.1000197995454073,0.09967769961804152,0.3003297997638583
RSVPLG03,JM,20260219-102807,1.0.2,20251105-084826,769,Practice,Both,1,Automatic,main,16,20260219-103045,local,global,300,S,S,A,E,A-S.png,S-E.png,sS,sS,mask-1.png,mask-3.png,h,0,3.172645900398493,s,1,0.08256949950009584,0.047935799695551395,0.046447400003671646,0.10138840042054653,0.10053750034421682,0.30183190014213324
RSVPLG03,JM,20260219-103110,1.0.2,20251105-084826,769,Practice,Both,1,Automatic,main,1,20260219-103135,local,global,300,S,S,A,A,A-S.png,S-A.png,sS,sS,mask-1.png,mask-2.png,h,0,2.400584800168872,s,1,0.2239559991285205,0.03964019939303398,0.04653770010918379,0.09366020001471043,0.09863309934735298,0.29313139989972115
RSVPLG03,JM,20260219-103110,1.0.2,20251105-084826,769,Practice,Both,1,Automatic,main,2,20260219-103141,global,local,300,S,S,A,A,S-A.png,A-S.png,sS,sS,mask-2.png,mask-4.png,h,0,2.0762716000899673,h,0,0.09298219997435808,0.04570579994469881,0.048016699962317944,0.09919700026512146,0.10148540046066046,0.2975901998579502
RSVPLG03,JM,20260219-103110,1.0.2,20251105-084826,769,Practice,Both,1,Automatic,main,3,20260219-103147,local,local,300,H,S,A,E,A-H.png,E-S.png,hH,sS,mask-2.png,mask-2.png,s,0,2.6776292994618416,s,1,0.458377399481833,0.046569100581109524,0.04769720043987036,0.09880620054900646,0.09903459995985031,0.2993173999711871
RSVPLG03,JM,20260219-103110,1.0.2,20251105-084826,769,Practice,Both,1,Automatic,main,4,20260219-103154,global,global,300,H,H,A,A,H-A.png,H-A.png,hH,hH,mask-1.png,mask-3.png,h,1,0.7725277999415994,h,1,0.3035771008580923,0.047856299206614494,0.04661430045962334,0.10111639928072691,0.10065660066902637,0.30065919924527407
RSVPLG03,JM,20260219-103110,1.0.2,20251105-084826,769,Practice,Both,1,Automatic,main,5,20260219-103159,global,local,750,S,S,E,E,S-E.png,E-S.png,sS,sS,mask-3.png,mask-3.png,s,1,1.4419796001166105,h,0,0.12963679991662502,0.04775870032608509,0.046490699984133244,0.0999507000669837,0.09977659955620766,0.7505897004157305
RSVPLG03,JM,20260219-103110,1.0.2,20251105-084826,769,Practice,Both,1,Automatic,main,6,20260219-103205,local,global,300,H,S,A,E,A-H.png,S-E.png,hH,sS,mask-4.png,mask-4.png,s,0,1.9344624001532793,s,1,0.08547870069742203,0.04631530027836561,0.04676980059593916,0.09818920027464628,0.09985600039362907,0.2985022999346256
RSVPLG03,JM,20260219-103110,1.0.2,20251105-084826,769,Practice,Both,1,Automatic,main,7,20260219-103211,global,global,750,S,S,A,E,S-A.png,S-E.png,sS,sS,mask-4.png,mask-4.png,s,1,1.7883315002545714,h,0,0.13407230004668236,0.046799300238490105,0.04757920000702143,0.10019010026007891,0.09997399989515543,0.7491597002372146
RSVPLG03,JM,20260219-103110,1.0.2,20251105-084826,769,Practice,Both,1,Automatic,main,8,20260219-103217,local,local,300,S,S,E,E,E-S.png,E-S.png,sS,sS,mask-4.png,mask-1.png,s,1,6.546789499931037,s,1,0.08633199986070395,0.04651319980621338,0.046672300435602665,0.09961549937725067,0.09905930049717426,0.3002280993387103
RSVPLG03,JM,20260219-103110,1.0.2,20251105-084826,769,Practice,Both,1,Automatic,main,9,20260219-103227,local,global,750,S,H,A,E,A-S.png,H-E.png,sS,hH,mask-3.png,mask-2.png,h,0,3.3626306001096964,h,1,1.100633000023663,0.04727560002356768,0.04714420065283775,0.10023330058902502,0.10031160060316324,0.7483056001365185
RSVPLG03,JM,20260219-103110,1.0.2,20251105-084826,769,Practice,Both,1,Automatic,main,10,20260219-103236,local,global,750,H,S,A,A,A-H.png,S-A.png,hH,sS,mask-3.png,mask-4.png,h,1,2.41566039994359,s,1,0.9517389005050063,0.046683600172400475,0.048728300258517265,0.09825319983065128,0.10106190014630556,0.7476202994585037
RSVPLG03,JM,20260219-103110,1.0.2,20251105-084826,769,Practice,Both,1,Automatic,main,11,20260219-103244,global,local,750,H,S,E,E,H-E.png,E-S.png,hH,sS,mask-1.png,mask-2.png,s,0,4.70871870033443,s,1,0.36073500011116266,0.04730950016528368,0.046566600911319256,0.0977555001154542,0.09857720043510199,0.7491750996559858
RSVPLG03,JM,20260219-103110,1.0.2,20251105-084826,769,Practice,Both,1,Automatic,main,12,20260219-103253,global,global,300,S,H,E,A,S-E.png,H-A.png,sS,hH,mask-3.png,mask-3.png,h,0,2.672404699958861,h,1,1.1895496007055044,0.04810849949717522,0.04757490009069443,0.10114239994436502,0.09862569998949766,0.3011847995221615
RSVPLG03,JM,20260219-103110,1.0.2,20251105-084826,769,Practice,Both,1,Automatic,main,13,20260219-103301,local,local,750,H,S,A,E,A-H.png,E-S.png,hH,sS,mask-2.png,mask-2.png,s,0,2.0056360997259617,s,1,0.2954983999952674,0.04847199935466051,0.04686510004103184,0.10046970006078482,0.10004900023341179,0.749219199642539
RSVPLG03,JM,20260219-103110,1.0.2,20251105-084826,769,Practice,Both,1,Automatic,main,14,20260219-103307,global,global,750,H,H,A,A,H-A.png,H-A.png,hH,hH,mask-3.png,mask-1.png,h,1,2.466792999766767,s,0,0.19517479930073023,0.04752049967646599,0.04845830053091049,0.10068720020353794,0.09949690010398626,0.7492582993581891
RSVPLG03,JM,20260219-103110,1.0.2,20251105-084826,769,Practice,Both,1,Automatic,main,15,20260219-103314,global,local,300,H,S,A,E,H-A.png,E-S.png,hH,sS,mask-3.png,mask-4.png,h,1,3.5081877997145057,h,0,0.2451256001368165,0.04981700051575899,0.046981699764728546,0.1013332000002265,0.10025830008089542,0.30098510067909956
RSVPLG03,JM,20260219-103110,1.0.2,20251105-084826,769,Practice,Both,1,Automatic,main,16,20260219-103322,local,local,750,S,S,A,A,A-S.png,A-S.png,sS,sS,mask-4.png,mask-1.png,s,1,1.7469456996768713,s,1,0.49492349941283464,0.04739850014448166,0.0474201999604702,0.10013110004365444,0.09972560033202171,0.7502869004383683
RSVPLG03,JM,20260219-103540,1.0.2,20251105-084826,769,Experiment,T1,1,Automatic,warmup,1,20260219-103611,global,global,750,H,H,E,A,H-E.png,H-A.png,hH,hH,mask-2.png,mask-3.png,h,1,6.1105595007538795,none,-5,0,0.04211120028048754,0.04774960037320852,0.09450339991599321,0.0999261001124978,0.7469044001773
RSVPLG03,JM,20260219-103540,1.0.2,20251105-084826,769,Experiment,T1,1,Automatic,warmup,2,20260219-103621,local,local,750,H,H,A,A,A-H.png,A-H.png,hH,hH,mask-4.png,mask-4.png,s,0,4.203416800126433,none,-5,0,0.04680350050330162,0.04777160007506609,0.09903729986399412,0.09995019994676113,0.7516369000077248
RSVPLG03,JM,20260219-103540,1.0.2,20251105-084826,769,Experiment,T1,1,Automatic,warmup,3,20260219-103630,global,local,300,S,H,A,A,S-A.png,A-H.png,sS,hH,mask-4.png,mask-3.png,h,0,1.6760782999917865,none,-5,0,0.047460099682211876,0.047318000346422195,0.09831329993903637,0.10127380024641752,0.29999809991568327
RSVPLG03,JM,20260219-103540,1.0.2,20251105-084826,769,Experiment,T1,1,Automatic,warmup,4,20260219-103635,global,global,300,S,S,E,A,S-E.png,S-A.png,sS,sS,mask-3.png,mask-3.png,s,1,1.883580100722611,none,-5,0,0.048669599927961826,0.04740909952670336,0.10081670060753822,0.09942690003663301,0.30120320059359074
RSVPLG03,JM,20260219-103540,1.0.2,20251105-084826,769,Experiment,T1,1,Automatic,main,5,20260219-103641,local,local,750,S,S,A,E,A-S.png,E-S.png,sS,sS,mask-2.png,mask-4.png,s,1,1.4464200995862484,none,-5,0,0.04776499979197979,0.04866360034793615,0.1008975999429822,0.10090269986540079,0.7531966995447874
RSVPLG03,JM,20260219-103540,1.0.2,20251105-084826,769,Experiment,T1,1,Automatic,main,6,20260219-103646,global,global,750,H,H,E,E,H-E.png,H-E.png,hH,hH,mask-2.png,mask-4.png,h,1,2.1646963004022837,none,-5,0,0.04757740069180727,0.04717039968818426,0.1014724001288414,0.10128709953278303,0.7526800008490682
RSVPLG03,JM,20260219-103540,1.0.2,20251105-084826,769,Experiment,T1,1,Automatic,main,7,20260219-103652,global,local,300,H,S,A,E,H-A.png,E-S.png,hH,sS,mask-1.png,mask-4.png,h,1,2.8278642995283008,none,-5,0,0.04756740015000105,0.04850060027092695,0.10169100016355515,0.10140320006757975,0.30180880054831505
RSVPLG03,JM,20260219-103540,1.0.2,20251105-084826,769,Experiment,T1,1,Automatic,main,8,20260219-103659,global,local,300,H,S,A,E,H-A.png,E-S.png,hH,sS,mask-2.png,mask-4.png,s,0,2.4846176002174616,none,-5,0,0.04739829991012812,0.04749250039458275,0.09935600031167269,0.09964780043810606,0.3008415997028351
RSVPLG03,JM,20260219-103540,1.0.2,20251105-084826,769,Experiment,T1,1,Automatic,main,9,20260219-103705,global,global,300,H,S,E,A,H-E.png,S-A.png,hH,sS,mask-2.png,mask-4.png,s,0,0.9477212000638247,none,-5,0,0.049782900139689445,0.0475254999473691,0.10124860052019358,0.09955250006169081,0.3028464000672102
RSVPLG03,JM,20260219-103540,1.0.2,20251105-084826,769,Experiment,T1,1,Automatic,main,10,20260219-103709,local,local,300,S,H,A,E,A-S.png,E-H.png,sS,hH,mask-2.png,mask-3.png,h,0,2.136650700122118,none,-5,0,0.047503200359642506,0.04589380044490099,0.10072950087487698,0.0989722004160285,0.3020762000232935
RSVPLG03,JM,20260219-103540,1.0.2,20251105-084826,769,Experiment,T1,1,Automatic,main,11,20260219-103715,local,global,750,S,S,E,E,E-S.png,S-E.png,sS,sS,mask-2.png,mask-2.png,s,1,3.7513520000502467,none,-5,0,0.04905970022082329,0.04771399963647127,0.10029900074005127,0.09985180012881756,0.7537031006067991
RSVPLG03,JM,20260219-103540,1.0.2,20251105-084826,769,Experiment,T1,1,Automatic,main,12,20260219-103723,global,local,750,S,S,E,E,S-E.png,E-S.png,sS,sS,mask-1.png,mask-3.png,s,1,1.97311079967767,none,-5,0,0.04851150047034025,0.0474821999669075,0.09891470056027174,0.10094649996608496,0.7519548004493117
RSVPLG03,JM,20260219-103540,1.0.2,20251105-084826,769,Experiment,T1,1,Automatic,main,13,20260219-103729,local,local,750,H,H,E,A,E-H.png,A-H.png,hH,hH,mask-1.png,mask-3.png,h,1,1.7404535999521613,none,-5,0,0.04717249982059002,0.04833719972521067,0.09909769985824823,0.1000193003565073,0.7513522999361157
RSVPLG03,JM,20260219-103540,1.0.2,20251105-084826,769,Experiment,T1,1,Automatic,main,14,20260219-103735,global,global,750,S,S,A,E,S-A.png,S-E.png,sS,sS,mask-1.png,mask-2.png,s,1,1.6583080003038049,none,-5,0,0.04658570047467947,0.04619420040398836,0.09975290019065142,0.09952810034155846,0.7524020001292229
RSVPLG03,JM,20260219-103540,1.0.2,20251105-084826,769,Experiment,T1,1,Automatic,main,15,20260219-103740,global,global,300,H,H,E,E,H-E.png,H-E.png,hH,hH,mask-1.png,mask-2.png,h,1,0.9980808002874255,none,-5,0,0.047522200271487236,0.049412500113248825,0.10101240035146475,0.10133159998804331,0.3005014006048441
RSVPLG03,JM,20260219-103540,1.0.2,20251105-084826,769,Experiment,T1,1,Automatic,main,16,20260219-103745,local,global,750,S,H,E,A,E-S.png,H-A.png,sS,hH,mask-3.png,mask-1.png,h,0,3.6857094997540116,none,-5,0,0.04686900041997433,0.04768870025873184,0.09987700078636408,0.10060330014675856,0.7528039002791047
RSVPLG03,JM,20260219-103540,1.0.2,20251105-084826,769,Experiment,T1,1,Automatic,main,17,20260219-103753,local,global,750,S,H,A,A,A-S.png,H-A.png,sS,hH,mask-2.png,mask-2.png,s,1,1.8896813001483679,none,-5,0,0.04605000000447035,0.04866250045597553,0.09866970032453537,0.1014147000387311,0.7519493997097015
RSVPLG03,JM,20260219-103540,1.0.2,20251105-084826,769,Experiment,T1,1,Automatic,main,18,20260219-103759,global,local,750,S,S,E,E,S-E.png,E-S.png,sS,sS,mask-1.png,mask-4.png,s,1,1.1290424996986985,none,-5,0,0.047539399936795235,0.04733920004218817,0.10158800054341555,0.10031870007514954,0.7536963000893593
RSVPLG03,JM,20260219-103540,1.0.2,20251105-084826,769,Experiment,T1,1,Automatic,main,19,20260219-103804,local,local,300,H,S,E,E,E-H.png,E-S.png,hH,sS,mask-3.png,mask-3.png,s,0,5.996121999807656,none,-5,0,0.04665079992264509,0.0460143992677331,0.09968539979308844,0.09976759925484657,0.3007666002959013
RSVPLG03,JM,20260219-103540,1.0.2,20251105-084826,769,Experiment,T1,1,Automatic,main,20,20260219-103813,global,local,750,H,H,A,E,H-A.png,E-H.png,hH,hH,mask-2.png,mask-2.png,h,1,2.0169277004897594,none,-5,0,0.047648899257183075,0.04640789981931448,0.10078659933060408,0.09933739993721247,0.7536185998469591
RSVPLG03,JM,20260219-103540,1.0.2,20251105-084826,769,Experiment,T1,1,Automatic,main,21,20260219-103820,local,local,750,S,H,E,A,E-S.png,A-H.png,sS,hH,mask-3.png,mask-2.png,h,0,1.9846270000562072,none,-5,0,0.04595869965851307,0.048617600463330746,0.09870999958366156,0.10004889965057373,0.7514856997877359
RSVPLG03,JM,20260219-103540,1.0.2,20251105-084826,769,Experiment,T1,1,Automatic,main,22,20260219-103826,global,local,300,S,H,A,E,S-A.png,E-H.png,sS,hH,mask-3.png,mask-4.png,h,0,1.9523612996563315,none,-5,0,0.04733400046825409,0.04760180041193962,0.09948470070958138,0.09964920021593571,0.3012405000627041
RSVPLG03,JM,20260219-103540,1.0.2,20251105-084826,769,Experiment,T1,1,Automatic,main,23,20260219-103831,local,global,750,H,S,E,A,E-H.png,S-A.png,hH,sS,mask-3.png,mask-4.png,s,0,0.7963947001844645,none,-5,0,0.04754309915006161,0.04746619984507561,0.10007419995963573,0.10107120033353567,0.7520320992916822
RSVPLG03,JM,20260219-103540,1.0.2,20251105-084826,769,Experiment,T1,1,Automatic,main,24,20260219-103836,global,global,750,H,S,A,A,H-A.png,S-A.png,hH,sS,mask-4.png,mask-1.png,s,0,6.660200700163841,none,-5,0,0.04702920001000166,0.04780399985611439,0.09939000010490417,0.09939839970320463,0.7536893002688885
RSVPLG03,JM,20260219-103540,1.0.2,20251105-084826,769,Experiment,T1,1,Automatic,main,25,20260219-103846,local,global,300,S,H,E,A,E-S.png,H-A.png,sS,hH,mask-4.png,mask-4.png,h,0,1.3285803999751806,none,-5,0,0.04809200018644333,0.048593999817967415,0.10104729980230331,0.10123210027813911,0.3005307000130415
RSVPLG03,JM,20260219-103540,1.0.2,20251105-084826,769,Experiment,T1,1,Automatic,main,26,20260219-103907,local,global,750,S,S,E,E,E-S.png,S-E.png,sS,sS,mask-3.png,mask-1.png,s,1,1.4037630008533597,none,-5,0,0.04853310063481331,0.04777179937809706,0.10060850065201521,0.101915099658072,0.7522866008803248
RSVPLG03,JM,20260219-103540,1.0.2,20251105-084826,769,Experiment,T1,1,Automatic,main,27,20260219-103912,local,global,300,H,H,A,E,A-H.png,H-E.png,hH,hH,mask-4.png,mask-1.png,h,1,2.071657900698483,none,-5,0,0.04768520034849644,0.04675410035997629,0.1000415999442339,0.1009385995566845,0.30166030023247004
RSVPLG03,JM,20260219-103540,1.0.2,20251105-084826,769,Experiment,T1,1,Automatic,main,28,20260219-103918,global,global,300,H,S,E,E,H-E.png,S-E.png,hH,sS,mask-3.png,mask-4.png,s,0,1.9046628000214696,none,-5,0,0.04848510026931763,0.0468262005597353,0.10037270002067089,0.09978190064430237,0.3021186999976635
RSVPLG03,JM,20260219-103540,1.0.2,20251105-084826,769,Experiment,T1,1,Automatic,main,29,20260219-103924,global,local,300,H,H,E,E,H-E.png,E-H.png,hH,hH,mask-1.png,mask-2.png,h,1,1.3699145000427961,none,-5,0,0.04767940007150173,0.047322699800133705,0.09988840017467737,0.10025640018284321,0.3016566000878811
RSVPLG03,JM,20260219-103540,1.0.2,20251105-084826,769,Experiment,T1,1,Automatic,main,30,20260219-103929,local,global,300,H,H,A,E,A-H.png,H-E.png,hH,hH,mask-2.png,mask-4.png,h,1,2.837652400135994,none,-5,0,0.047522700391709805,0.04853130038827658,0.09954840037971735,0.09955240041017532,0.3001546999439597
RSVPLG03,JM,20260219-103540,1.0.2,20251105-084826,769,Experiment,T1,1,Automatic,main,31,20260219-103935,global,global,750,H,S,A,E,H-A.png,S-E.png,hH,sS,mask-2.png,mask-1.png,h,1,4.625362600199878,none,-5,0,0.047943899407982826,0.047716399654746056,0.10068199969828129,0.09990010038018227,0.7539192996919155
RSVPLG03,JM,20260219-103540,1.0.2,20251105-084826,769,Experiment,T1,1,Automatic,main,32,20260219-103944,global,local,750,H,H,E,A,H-E.png,A-H.png,hH,hH,mask-3.png,mask-2.png,s,0,2.2127507999539375,none,-5,0,0.047971200197935104,0.048505499958992004,0.1003937004134059,0.09993600007146597,0.7529784999787807
RSVPLG03,JM,20260219-103540,1.0.2,20251105-084826,769,Experiment,T1,1,Automatic,main,33,20260219-103950,global,local,300,S,S,A,E,S-A.png,E-S.png,sS,sS,mask-2.png,mask-3.png,s,1,2.0705536995083094,none,-5,0,0.04816399980336428,0.04882080014795065,0.1002096002921462,0.10100660007447004,0.300976499915123
RSVPLG03,JM,20260219-103540,1.0.2,20251105-084826,769,Experiment,T1,1,Automatic,main,34,20260219-103956,local,local,300,S,H,A,E,A-S.png,E-H.png,sS,hH,mask-2.png,mask-1.png,h,0,2.132598400115967,none,-5,0,0.046556799672544,0.04773019999265671,0.0994710000231862,0.1019185995683074,0.2998037999495864
RSVPLG03,JM,20260219-103540,1.0.2,20251105-084826,769,Experiment,T1,1,Automatic,main,35,20260219-104002,global,global,750,H,S,E,E,H-E.png,S-E.png,hH,sS,mask-2.png,mask-3.png,s,0,1.462393100373447,none,-5,0,0.04710459988564253,0.045991300605237484,0.09965289942920208,0.10026560071855783,0.7539348993450403
RSVPLG03,JM,20260219-103540,1.0.2,20251105-084826,769,Experiment,T1,1,Automatic,main,36,20260219-104007,local,local,750,S,H,E,A,E-S.png,A-H.png,sS,hH,mask-4.png,mask-2.png,h,0,1.450357699766755,none,-5,0,0.04653939977288246,0.047529200091958046,0.09992370009422302,0.09908949956297874,0.752505499869585
RSVPLG03,JM,20260219-103540,1.0.2,20251105-084826,769,Experiment,T1,1,Automatic,main,37,20260219-104013,local,global,750,H,H,A,A,A-H.png,H-A.png,hH,hH,mask-2.png,mask-2.png,s,0,1.488837699405849,none,-5,0,0.04668459948152304,0.04686009977012873,0.10004889965057373,0.10112829972058535,0.7528532994911075
RSVPLG03,JM,20260219-103540,1.0.2,20251105-084826,769,Experiment,T1,1,Automatic,main,38,20260219-104018,local,global,300,H,H,A,E,A-H.png,H-E.png,hH,hH,mask-3.png,mask-2.png,h,1,1.0328304003924131,none,-5,0,0.04759919922798872,0.04628109931945801,0.1015917994081974,0.09935799986124039,0.3019727999344468
RSVPLG03,JM,20260219-103540,1.0.2,20251105-084826,769,Experiment,T1,1,Automatic,main,39,20260219-104023,local,global,300,S,H,A,E,A-S.png,H-E.png,sS,hH,mask-3.png,mask-2.png,h,0,1.26008109934628,none,-5,0,0.04753139987587929,0.04777090065181255,0.09863900020718575,0.10222100000828505,0.29950399976223707
RSVPLG03,JM,20260219-103540,1.0.2,20251105-084826,769,Experiment,T1,1,Automatic,main,40,20260219-104028,local,global,750,H,H,E,E,E-H.png,H-E.png,hH,hH,mask-2.png,mask-4.png,h,1,3.0085238004103303,none,-5,0,0.04782960005104542,0.04670159984380007,0.09969429951161146,0.09924159944057465,0.7535813003778458
RSVPLG03,JM,20260219-103540,1.0.2,20251105-084826,769,Experiment,T1,1,Automatic,main,41,20260219-104035,global,local,300,H,S,E,E,H-E.png,E-S.png,hH,sS,mask-4.png,mask-2.png,h,1,2.654354900121689,none,-5,0,0.04803190007805824,0.0462767006829381,0.0997401000931859,0.09995980001986027,0.30192349944263697
RSVPLG03,JM,20260219-103540,1.0.2,20251105-084826,769,Experiment,T1,1,Automatic,main,42,20260219-104041,global,local,750,S,S,E,E,S-E.png,E-S.png,sS,sS,mask-4.png,mask-3.png,s,1,1.7599101001396775,none,-5,0,0.046855200082063675,0.04736980050802231,0.09993600007146597,0.10023249965161085,0.7523202002048492
RSVPLG03,JM,20260219-103540,1.0.2,20251105-084826,769,Experiment,T1,1,Automatic,main,43,20260219-104046,local,local,750,S,H,A,E,A-S.png,E-H.png,sS,hH,mask-1.png,mask-2.png,s,1,3.1051825005561113,none,-5,0,0.048588099889457226,0.04771449975669384,0.10160959977656603,0.10169339925050735,0.7531864000484347
RSVPLG03,JM,20260219-103540,1.0.2,20251105-084826,769,Experiment,T1,1,Automatic,main,44,20260219-104054,local,local,300,S,S,A,A,A-S.png,A-S.png,sS,sS,mask-3.png,mask-1.png,s,1,1.6373782996088266,none,-5,0,0.047642200253903866,0.048423999920487404,0.09976479969918728,0.1013823002576828,0.30043150018900633
RSVPLG03,JM,20260219-103540,1.0.2,20251105-084826,769,Experiment,T1,1,Automatic,main,45,20260219-104059,local,global,300,S,H,E,A,E-S.png,H-A.png,sS,hH,mask-2.png,mask-2.png,h,0,1.1483039995655417,none,-5,0,0.048550100065767765,0.04764900077134371,0.10067530069500208,0.10058580059558153,0.3013126999139786
RSVPLG03,JM,20260219-103540,1.0.2,20251105-084826,769,Experiment,T1,1,Automatic,main,46,20260219-104104,global,global,300,H,H,A,E,H-A.png,H-E.png,hH,hH,mask-1.png,mask-2.png,s,0,1.8804671997204423,none,-5,0,0.04664579965174198,0.048545400612056255,0.09946529939770699,0.10105380043387413,0.30006609950214624
RSVPLG03,JM,20260219-103540,1.0.2,20251105-084826,769,Experiment,T1,1,Automatic,main,47,20260219-104109,local,global,300,S,S,E,E,E-S.png,S-E.png,sS,sS,mask-2.png,mask-2.png,s,1,0.8180339001119137,none,-5,0,0.04769689962267876,0.047747500240802765,0.09991699922829866,0.10043719969689846,0.2999652996659279
RSVPLG03,JM,20260219-103540,1.0.2,20251105-084826,769,Experiment,T1,1,Automatic,main,48,20260219-104113,global,global,300,S,H,E,A,S-E.png,H-A.png,sS,hH,mask-3.png,mask-3.png,h,0,1.0625517005100846,none,-5,0,0.04783339984714985,0.04881610069423914,0.10112090036273003,0.1020058998838067,0.30002269987016916
RSVPLG03,JM,20260219-103540,1.0.2,20251105-084826,769,Experiment,T1,1,Automatic,main,49,20260219-104118,global,local,300,S,H,A,E,S-A.png,E-H.png,sS,hH,mask-3.png,mask-1.png,s,1,1.5899995993822813,none,-5,0,0.0467139994725585,0.047618099488317966,0.10054139979183674,0.10009579919278622,0.3005638001486659
RSVPLG03,JM,20260219-103540,1.0.2,20251105-084826,769,Experiment,T1,1,Automatic,main,50,20260219-104123,local,global,300,S,S,A,A,A-S.png,S-A.png,sS,sS,mask-3.png,mask-4.png,s,1,0.48791150003671646,none,-5,0,0.04773129988461733,0.04774720035493374,0.10183210019022226,0.10098410025238991,0.3016058998182416
RSVPLG03,JM,20260219-103540,1.0.2,20251105-084826,769,Experiment,T1,1,Automatic,main,51,20260219-104139,global,local,750,S,S,A,E,S-A.png,E-S.png,sS,sS,mask-1.png,mask-4.png,s,1,2.4048103000968695,none,-5,0,0.04752129968255758,0.04869870003312826,0.10079140029847622,0.09995869919657707,0.7524177003651857
RSVPLG03,JM,20260219-103540,1.0.2,20251105-084826,769,Experiment,T1,1,Automatic,main,52,20260219-104145,global,local,750,H,H,A,A,H-A.png,A-H.png,hH,hH,mask-3.png,mask-3.png,h,1,1.3005148004740477,none,-5,0,0.04754930082708597,0.047533800825476646,0.09886250086128712,0.10054480005055666,0.7521852999925613
RSVPLG03,JM,20260219-103540,1.0.2,20251105-084826,769,Experiment,T1,1,Automatic,main,53,20260219-104151,local,global,300,H,H,E,A,E-H.png,H-A.png,hH,hH,mask-4.png,mask-1.png,h,1,2.965316600166261,none,-5,0,0.049571399576961994,0.04763479996472597,0.10158699937164783,0.09997630026191473,0.3021631995216012
RSVPLG03,JM,20260219-103540,1.0.2,20251105-084826,769,Experiment,T1,1,Automatic,main,54,20260219-104157,global,global,750,H,S,E,E,H-E.png,S-E.png,hH,sS,mask-3.png,mask-2.png,s,0,1.3320934996008873,none,-5,0,0.04855660069733858,0.048480200581252575,0.10086620040237904,0.10067100077867508,0.7522954000160098
RSVPLG03,JM,20260219-103540,1.0.2,20251105-084826,769,Experiment,T1,1,Automatic,main,55,20260219-104203,local,global,300,H,H,E,E,E-H.png,H-E.png,hH,hH,mask-4.png,mask-2.png,h,1,2.086346600204706,none,-5,0,0.04846139997243881,0.04900659993290901,0.10054290015250444,0.10174809955060482,0.30004930030554533
RSVPLG03,JM,20260219-103540,1.0.2,20251105-084826,769,Experiment,T1,1,Automatic,main,56,20260219-104209,local,global,300,S,H,A,E,A-S.png,H-E.png,sS,hH,mask-4.png,mask-4.png,s,1,4.453891499899328,none,-5,0,0.048462700098752975,0.047767799347639084,0.10113770049065351,0.09952779952436686,0.3019130006432533
RSVPLG03,JM,20260219-103540,1.0.2,20251105-084826,769,Experiment,T1,1,Automatic,main,57,20260219-104217,local,local,750,S,S,A,A,A-S.png,A-S.png,sS,sS,mask-4.png,mask-1.png,h,0,1.1854646001011133,none,-5,0,0.046772200614213943,0.04771929979324341,0.09917830023914576,0.09917519986629486,0.7536879004910588
RSVPLG03,JM,20260219-103540,1.0.2,20251105-084826,769,Experiment,T1,1,Automatic,main,58,20260219-104222,global,local,300,H,S,A,E,H-A.png,E-S.png,hH,sS,mask-4.png,mask-1.png,s,0,1.944938899949193,none,-5,0,0.047326499596238136,0.04768099915236235,0.10053819976747036,0.10089499969035387,0.30215790029615164
RSVPLG03,JM,20260219-103540,1.0.2,20251105-084826,769,Experiment,T1,1,Automatic,main,59,20260219-104227,global,global,750,S,H,A,E,S-A.png,H-E.png,sS,hH,mask-3.png,mask-4.png,h,0,1.0542521001771092,none,-5,0,0.047967299818992615,0.049545399844646454,0.10043170023709536,0.10087940003722906,0.7523721000179648
RSVPLG03,JM,20260219-103540,1.0.2,20251105-084826,769,Experiment,T1,1,Automatic,main,60,20260219-104233,global,global,300,H,S,E,E,H-E.png,S-E.png,hH,sS,mask-4.png,mask-3.png,s,0,1.015798999927938,none,-5,0,0.0475016999989748,0.04757609963417053,0.10155459959059954,0.10060590039938688,0.3015169994905591
RSVPLG03,JM,20260219-103540,1.0.2,20251105-084826,769,Experiment,T1,1,Automatic,main,61,20260219-104237,local,global,750,H,H,A,A,A-H.png,H-A.png,hH,hH,mask-4.png,mask-2.png,s,0,1.2494016001001,none,-5,0,0.0478885006159544,0.048559900373220444,0.10048570018261671,0.10058190021663904,0.7522491998970509
RSVPLG03,JM,20260219-103540,1.0.2,20251105-084826,769,Experiment,T1,1,Automatic,main,62,20260219-104242,global,global,750,H,S,E,A,H-E.png,S-A.png,hH,sS,mask-4.png,mask-1.png,h,1,1.2821743004024029,none,-5,0,0.04841960035264492,0.047549099661409855,0.10042660031467676,0.10042260028421879,0.7545293001458049
RSVPLG03,JM,20260219-103540,1.0.2,20251105-084826,769,Experiment,T1,1,Automatic,main,63,20260219-104248,global,local,300,H,S,E,A,H-E.png,A-S.png,hH,sS,mask-4.png,mask-4.png,s,0,2.1348802000284195,none,-5,0,0.04776709992438555,0.04859660007059574,0.10151300020515919,0.09978900011628866,0.3014448005706072
RSVPLG03,JM,20260219-103540,1.0.2,20251105-084826,769,Experiment,T1,1,Automatic,main,64,20260219-104253,global,local,750,H,S,E,A,H-E.png,A-S.png,hH,sS,mask-1.png,mask-2.png,h,1,1.1060271998867393,none,-5,0,0.047715799883008,0.04703630041331053,0.10184399969875813,0.10016269981861115,0.7535117994993925
RSVPLG03,JM,20260219-103540,1.0.2,20251105-084826,769,Experiment,T1,1,Automatic,main,65,20260219-104258,local,global,750,S,H,A,E,A-S.png,H-E.png,sS,hH,mask-1.png,mask-4.png,s,1,2.3906891997903585,none,-5,0,0.0471152001991868,0.047704399563372135,0.09949489962309599,0.10123039968311787,0.7520938999950886
RSVPLG03,JM,20260219-103540,1.0.2,20251105-084826,769,Experiment,T1,1,Automatic,main,66,20260219-104305,local,global,300,S,S,A,A,A-S.png,S-A.png,sS,sS,mask-2.png,mask-1.png,s,1,5.560503100045025,none,-5,0,0.04759930074214935,0.047554499469697475,0.09962990041822195,0.09877690020948648,0.3022535005584359
RSVPLG03,JM,20260219-103540,1.0.2,20251105-084826,769,Experiment,T1,1,Automatic,main,67,20260219-104314,global,global,300,H,S,E,A,H-E.png,S-A.png,hH,sS,mask-3.png,mask-1.png,s,0,2.7352592991665006,none,-5,0,0.049601100385189056,0.047518800012767315,0.10259860008955002,0.09960740059614182,0.3026139996945858
RSVPLG03,JM,20260219-103540,1.0.2,20251105-084826,769,Experiment,T1,1,Automatic,main,68,20260219-104321,global,global,750,S,S,A,A,S-A.png,S-A.png,sS,sS,mask-4.png,mask-2.png,s,1,1.5289261005818844,none,-5,0,0.046765200793743134,0.04768059961497784,0.10061650071293116,0.10108810011297464,0.7520622005686164
RSVPLG03,JM,20260219-103540,1.0.2,20251105-084826,769,Experiment,T1,1,Automatic,main,69,20260219-104326,global,global,750,S,H,E,A,S-E.png,H-A.png,sS,hH,mask-4.png,mask-1.png,s,1,1.8848960995674133,none,-5,0,0.04775139968842268,0.04979319963604212,0.10096010006964207,0.10198949929326773,0.7520425003021955
RSVPLG03,JM,20260219-103540,1.0.2,20251105-084826,769,Experiment,T1,1,Automatic,main,70,20260219-104332,global,global,300,S,S,A,A,S-A.png,S-A.png,sS,sS,mask-3.png,mask-3.png,s,1,2.9799699997529387,none,-5,0,0.047257899306714535,0.049849700182676315,0.10048040002584457,0.10204209946095943,0.30007349979132414
RSVPLG03,JM,20260219-103540,1.0.2,20251105-084826,769,Experiment,T1,1,Automatic,main,71,20260219-104339,global,local,300,S,S,A,E,S-A.png,E-S.png,sS,sS,mask-1.png,mask-2.png,s,1,2.296297200024128,none,-5,0,0.04668070003390312,0.04768169950693846,0.09989150054752827,0.10099940001964569,0.29998060036450624
RSVPLG03,JM,20260219-103540,1.0.2,20251105-084826,769,Experiment,T1,1,Automatic,main,72,20260219-104344,local,global,750,S,S,E,E,E-S.png,S-E.png,sS,sS,mask-3.png,mask-2.png,s,1,1.3372293999418616,none,-5,0,0.04831920005381107,0.04763010051101446,0.10081019997596741,0.10055970028042793,0.7543826997280121
RSVPLG03,JM,20260219-103540,1.0.2,20251105-084826,769,Experiment,T1,1,Automatic,main,73,20260219-104350,local,local,300,H,H,A,E,A-H.png,E-H.png,hH,hH,mask-3.png,mask-3.png,h,1,1.6534667005762458,none,-5,0,0.04652419965714216,0.04930470045655966,0.09944489970803261,0.10116210021078587,0.2989320997148752
RSVPLG03,JM,20260219-103540,1.0.2,20251105-084826,769,Experiment,T1,1,Automatic,main,74,20260219-104355,global,global,750,S,H,E,A,S-E.png,H-A.png,sS,hH,mask-1.png,mask-1.png,s,1,1.466186199337244,none,-5,0,0.04754150006920099,0.04732090048491955,0.09928749967366457,0.09856520034372807,0.7522663995623589
RSVPLG03,JM,20260219-103540,1.0.2,20251105-084826,769,Experiment,T1,1,Automatic,main,75,20260219-104401,global,local,300,H,S,E,E,H-E.png,E-S.png,hH,sS,mask-1.png,mask-2.png,h,1,1.8866443997249007,none,-5,0,0.04850220028311014,0.04830680042505264,0.10070050042122602,0.10137190017849207,0.299898199737072
RSVPLG03,JM,20260219-103540,1.0.2,20251105-084826,769,Experiment,T1,1,Automatic,main,76,20260219-104410,global,global,300,S,H,E,E,S-E.png,H-E.png,sS,hH,mask-3.png,mask-4.png,h,0,5.182606300339103,none,-5,0,0.04854790028184652,0.047919100150465965,0.09959959983825684,0.10001459997147322,0.3009027000516653
RSVPLG03,JM,20260219-103540,1.0.2,20251105-084826,769,Experiment,T1,1,Automatic,main,77,20260219-104418,local,local,300,S,S,E,E,E-S.png,E-S.png,sS,sS,mask-4.png,mask-2.png,s,1,1.3302966998890042,none,-5,0,0.04860430024564266,0.04754239972680807,0.10261560045182705,0.1001195004209876,0.302891599945724
RSVPLG03,JM,20260219-103540,1.0.2,20251105-084826,769,Experiment,T1,1,Automatic,main,78,20260219-104423,local,local,300,S,S,E,E,E-S.png,E-S.png,sS,sS,mask-2.png,mask-4.png,h,0,1.4308184003457427,none,-5,0,0.04812730010598898,0.047772000543773174,0.1003328999504447,0.09968290012329817,0.30204280000180006
RSVPLG03,JM,20260219-103540,1.0.2,20251105-084826,769,Experiment,T1,1,Automatic,main,79,20260219-104428,local,local,750,H,H,A,A,A-H.png,A-H.png,hH,hH,mask-2.png,mask-3.png,h,1,0.9066209997981787,none,-5,0,0.0477080000564456,0.047668700106441975,0.09989439975470304,0.10117479972541332,0.7520840996876359
RSVPLG03,JM,20260219-103540,1.0.2,20251105-084826,769,Experiment,T1,1,Automatic,main,80,20260219-104433,local,local,300,S,S,A,A,A-S.png,A-S.png,sS,sS,mask-1.png,mask-2.png,s,1,1.070205899886787,none,-5,0,0.048232399858534336,0.04899040050804615,0.10039369948208332,0.1003625001758337,0.30034259986132383
RSVPLG03,JM,20260219-103540,1.0.2,20251105-084826,769,Experiment,T1,1,Automatic,main,81,20260219-104438,global,global,750,H,H,E,E,H-E.png,H-E.png,hH,hH,mask-2.png,mask-1.png,h,1,1.019543199799955,none,-5,0,0.047695500776171684,0.04872980061918497,0.10086540039628744,0.10144880041480064,0.7527286000549793
RSVPLG03,JM,20260219-103540,1.0.2,20251105-084826,769,Experiment,T1,1,Automatic,main,82,20260219-104443,global,global,300,S,H,A,E,S-A.png,H-E.png,sS,hH,mask-1.png,mask-3.png,h,0,1.5733583001419902,none,-5,0,0.047413699328899384,0.04757370054721832,0.09970779996365309,0.09992810059338808,0.2998290993273258
RSVPLG03,JM,20260219-103540,1.0.2,20251105-084826,769,Experiment,T1,1,Automatic,main,83,20260219-104448,global,local,300,H,H,E,E,H-E.png,E-H.png,hH,hH,mask-3.png,mask-4.png,s,0,1.1719954004511237,none,-5,0,0.04716120008379221,0.04736070055514574,0.10004450008273125,0.09850660059601068,0.3017486995086074
RSVPLG03,JM,20260219-103540,1.0.2,20251105-084826,769,Experiment,T1,1,Automatic,main,84,20260219-104453,global,local,750,S,S,A,A,S-A.png,A-S.png,sS,sS,mask-1.png,mask-3.png,s,1,3.8447294998914003,none,-5,0,0.047603899613022804,0.04652919992804527,0.09881159942597151,0.10023880004882812,0.7535816999152303
RSVPLG03,JM,20260219-103540,1.0.2,20251105-084826,769,Experiment,T1,1,Automatic,main,85,20260219-104501,local,local,300,S,S,E,A,E-S.png,A-S.png,sS,sS,mask-2.png,mask-3.png,h,0,1.3176735006272793,none,-5,0,0.04574089962989092,0.0487975999712944,0.0988723998889327,0.10108149982988834,0.2996821999549866
RSVPLG03,JM,20260219-103540,1.0.2,20251105-084826,769,Experiment,T1,1,Automatic,main,86,20260219-104505,global,global,300,S,H,E,A,S-E.png,H-A.png,sS,hH,mask-1.png,mask-4.png,h,0,1.0492147002369165,none,-5,0,0.04730620048940182,0.04786649998277426,0.09960950072854757,0.10108849965035915,0.3002280006185174
RSVPLG03,JM,20260219-103540,1.0.2,20251105-084826,769,Experiment,T1,1,Automatic,main,87,20260219-104510,local,local,300,H,H,A,E,A-H.png,E-H.png,hH,hH,mask-2.png,mask-1.png,h,1,2.070315799675882,none,-5,0,0.04753969982266426,0.04778630007058382,0.10055199917405844,0.10138950031250715,0.30028289929032326
RSVPLG03,JM,20260219-103540,1.0.2,20251105-084826,769,Experiment,T1,1,Automatic,main,88,20260219-104516,global,local,750,S,H,E,A,S-E.png,A-H.png,sS,hH,mask-2.png,mask-1.png,s,1,1.651561699807644,none,-5,0,0.047509499825537205,0.04862520005553961,0.10052879992872477,0.10065440088510513,0.7519037993624806
RSVPLG03,JM,20260219-103540,1.0.2,20251105-084826,769,Experiment,T1,1,Automatic,main,89,20260219-104521,local,global,750,S,S,E,A,E-S.png,S-A.png,sS,sS,mask-2.png,mask-3.png,h,0,1.537313399836421,none,-5,0,0.04752589948475361,0.04850379936397076,0.10001169983297586,0.10153769981116056,0.7522251000627875
RSVPLG03,JM,20260219-103540,1.0.2,20251105-084826,769,Experiment,T1,1,Automatic,main,90,20260219-104527,local,local,750,S,S,E,A,E-S.png,A-S.png,sS,sS,mask-1.png,mask-2.png,s,1,1.267466800287366,none,-5,0,0.04691080003976822,0.04720229934900999,0.10112879984080791,0.09904139954596758,0.7533193007111549
RSVPLG03,JM,20260219-103540,1.0.2,20251105-084826,769,Experiment,T1,1,Automatic,main,91,20260219-104532,global,local,750,H,H,A,E,H-A.png,E-H.png,hH,hH,mask-4.png,mask-3.png,s,0,2.4256779002025723,none,-5,0,0.04751239996403456,0.04603070020675659,0.09957229997962713,0.10015919990837574,0.7524693002924323
RSVPLG03,JM,20260219-103540,1.0.2,20251105-084826,769,Experiment,T1,1,Automatic,main,92,20260219-104539,local,local,750,H,H,A,E,A-H.png,E-H.png,hH,hH,mask-1.png,mask-1.png,h,1,1.17548399977386,none,-5,0,0.04796489980071783,0.04748439975082874,0.10014209989458323,0.09894870035350323,0.7532244995236397
RSVPLG03,JM,20260219-103540,1.0.2,20251105-084826,769,Experiment,T1,1,Automatic,main,93,20260219-104544,local,local,750,S,H,E,E,E-S.png,E-H.png,sS,hH,mask-3.png,mask-3.png,s,1,0.8603694001212716,none,-5,0,0.04651929996907711,0.047585600055754185,0.10040530003607273,0.09982990007847548,0.7517413999885321
RSVPLG03,JM,20260219-103540,1.0.2,20251105-084826,769,Experiment,T1,1,Automatic,main,94,20260219-104549,local,local,300,S,S,E,E,E-S.png,E-S.png,sS,sS,mask-1.png,mask-1.png,h,0,2.2229743003845215,none,-5,0,0.04671290051192045,0.047787100076675415,0.1003024997189641,0.09955970011651516,0.30107299983501434
RSVPLG03,JM,20260219-103540,1.0.2,20251105-084826,769,Experiment,T1,1,Automatic,main,95,20260219-104555,local,local,750,S,S,A,E,A-S.png,E-S.png,sS,sS,mask-2.png,mask-1.png,s,1,1.9449273999780416,none,-5,0,0.048858899623155594,0.0471522007137537,0.09978660009801388,0.10020670015364885,0.7526304991915822
RSVPLG03,JM,20260219-103540,1.0.2,20251105-084826,769,Experiment,T1,1,Automatic,main,96,20260219-104601,global,local,750,H,H,E,A,H-E.png,A-H.png,hH,hH,mask-3.png,mask-1.png,s,0,3.4717749999836087,none,-5,0,0.04660380072891712,0.047805000096559525,0.10057720076292753,0.10097979940474033,0.7523326007649302
RSVPLG03,JM,20260219-103540,1.0.2,20251105-084826,769,Experiment,T1,1,Automatic,main,97,20260219-104608,global,global,300,S,S,A,E,S-A.png,S-E.png,sS,sS,mask-3.png,mask-4.png,s,1,0.9550900999456644,none,-5,0,0.0478600999340415,0.04596269968897104,0.09970960021018982,0.09979359991848469,0.3017474999651313
RSVPLG03,JM,20260219-103540,1.0.2,20251105-084826,769,Experiment,T1,1,Automatic,main,98,20260219-104613,local,local,300,S,H,E,A,E-S.png,A-H.png,sS,hH,mask-2.png,mask-1.png,h,0,1.2373700998723507,none,-5,0,0.04729059990495443,0.04657949972897768,0.09937680047005415,0.09961609914898872,0.30206350050866604
RSVPLG03,JM,20260219-103540,1.0.2,20251105-084826,769,Experiment,T1,1,Automatic,main,99,20260219-104617,local,local,750,H,S,E,E,E-H.png,E-S.png,hH,sS,mask-1.png,mask-4.png,s,0,1.1104593006893992,none,-5,0,0.045781100168824196,0.0475461995229125,0.098913399502635,0.09995719976723194,0.7512464001774788
RSVPLG03,JM,20260219-103540,1.0.2,20251105-084826,769,Experiment,T1,1,Automatic,main,100,20260219-104623,local,global,750,S,S,A,E,A-S.png,S-E.png,sS,sS,mask-2.png,mask-1.png,h,0,1.3184673003852367,none,-5,0,0.04680419992655516,0.04856669995933771,0.09995639976114035,0.10084359999746084,0.7524093994870782
RSVPLG03,JM,20260219-104735,1.0.2,20251105-084826,769,Experiment,Both,1,Automatic,warmup,1,20260219-104800,local,global,750,S,S,E,A,E-S.png,S-A.png,sS,sS,mask-3.png,mask-3.png,s,1,5.442262900061905,h,0,1.6124073006212711,0.03969909995794296,0.049728600308299065,0.09311379957944155,0.10203870013356209,0.7347379997372627
RSVPLG03,JM,20260219-104735,1.0.2,20251105-084826,769,Experiment,Both,1,Automatic,warmup,2,20260219-104811,global,global,300,H,S,E,E,H-E.png,S-E.png,hH,sS,mask-2.png,mask-3.png,s,0,4.400611800141633,s,1,0.19676390010863543,0.04644259996712208,0.04755980055779219,0.1013016002252698,0.10140470042824745,0.302865999750793
RSVPLG03,JM,20260219-104735,1.0.2,20251105-084826,769,Experiment,Both,1,Automatic,warmup,3,20260219-104820,local,local,300,S,H,E,A,E-S.png,A-H.png,sS,hH,mask-2.png,mask-1.png,h,0,3.024261800572276,h,1,0.12451499979943037,0.04679369926452637,0.05003050062805414,0.10169239994138479,0.10110060032457113,0.3019969994202256
RSVPLG03,JM,20260219-104735,1.0.2,20251105-084826,769,Experiment,Both,1,Automatic,warmup,4,20260219-104827,local,local,750,S,S,A,E,A-S.png,E-S.png,sS,sS,mask-2.png,mask-4.png,s,1,2.4705325001850724,s,1,0.3971412004902959,0.04851020034402609,0.047489700838923454,0.10001069959253073,0.10200660023838282,0.7421592995524406
RSVPLG03,JM,20260219-104735,1.0.2,20251105-084826,769,Experiment,Both,1,Automatic,main,5,20260219-104834,global,local,300,S,S,E,A,S-E.png,A-S.png,sS,sS,mask-2.png,mask-1.png,h,0,3.9552798997610807,h,0,0.1214047996327281,0.048484399914741516,0.04792040027678013,0.10154160019010305,0.10324189998209476,0.3033261997625232
RSVPLG03,JM,20260219-104735,1.0.2,20251105-084826,769,Experiment,Both,1,Automatic,main,6,20260219-104841,local,local,300,H,H,A,A,A-H.png,A-H.png,hH,hH,mask-4.png,mask-4.png,s,0,4.021370500326157,h,1,4.2612683000043035,0.04852880071848631,0.04761369992047548,0.10160310007631779,0.10065279994159937,0.30392410047352314
RSVPLG03,JM,20260219-104735,1.0.2,20251105-084826,769,Experiment,Both,1,Automatic,main,7,20260219-104849,global,local,750,H,S,A,A,H-A.png,A-S.png,hH,sS,mask-1.png,mask-1.png,s,0,3.0506805004552007,s,1,0.11905570048838854,0.04968539997935295,0.04870800022035837,0.10195120051503181,0.1022406006231904,0.7432679999619722
RSVPLG03,JM,20260219-104735,1.0.2,20251105-084826,769,Experiment,Both,1,Automatic,main,8,20260219-104857,local,global,750,S,H,A,E,A-S.png,H-E.png,sS,hH,mask-2.png,mask-3.png,s,1,3.7660376001149416,s,0,0.06971290055662394,0.04850609973073006,0.04773470014333725,0.10249739978462458,0.09921669960021973,0.7439708998426795
RSVPLG03,JM,20260219-104735,1.0.2,20251105-084826,769,Experiment,Both,1,Automatic,main,9,20260219-104905,global,global,300,S,S,A,E,S-A.png,S-E.png,sS,sS,mask-4.png,mask-3.png,s,1,2.9958105999976397,s,1,0.06971099972724915,0.04838060028851032,0.047128500416874886,0.10240160021930933,0.10021429974585772,0.30498060025274754
RSVPLG03,JM,20260219-104735,1.0.2,20251105-084826,769,Experiment,Both,1,Automatic,main,10,20260219-104911,global,global,750,H,H,A,A,H-A.png,H-A.png,hH,hH,mask-1.png,mask-1.png,h,1,4.539829100482166,h,1,0.3415078008547425,0.04751399997621775,0.04809889942407608,0.10079049970954657,0.10083629935979843,0.742450900375843
RSVPLG03,JM,20260219-104735,1.0.2,20251105-084826,769,Experiment,Both,1,Automatic,main,11,20260219-104921,local,local,300,S,S,A,E,A-S.png,E-S.png,sS,sS,mask-3.png,mask-1.png,s,1,16.095073600299656,s,1,0.7517518997192383,0.0496696000918746,0.04790070001035929,0.10111010074615479,0.10006240010261536,0.30483620055019855
RSVPLG03,JM,20260219-104735,1.0.2,20251105-084826,769,Experiment,Both,1,Automatic,main,12,20260219-104941,local,global,750,H,H,A,E,A-H.png,H-E.png,hH,hH,mask-3.png,mask-2.png,s,0,2.934078600257635,s,0,0.1013000002130866,0.04851619992405176,0.04752330016344786,0.10158360004425049,0.10098120011389256,0.7428783001378179
RSVPLG03,JM,20260219-104735,1.0.2,20251105-084826,769,Experiment,Both,1,Automatic,main,13,20260219-104948,local,global,300,S,H,A,A,A-S.png,H-A.png,sS,hH,mask-4.png,mask-4.png,h,0,8.397820400074124,h,1,0.07511240057647228,0.04793839994817972,0.04965630080550909,0.10135709960013628,0.10100640077143908,0.303035999648273
RSVPLG03,JM,20260219-104735,1.0.2,20251105-084826,769,Experiment,Both,1,Automatic,main,14,20260219-105000,local,global,300,S,S,E,E,E-S.png,S-E.png,sS,sS,mask-1.png,mask-1.png,s,1,2.436350899748504,h,0,2.628499299287796,0.04739970061928034,0.048224300146102905,0.10090350080281496,0.10114770010113716,0.30333090014755726
RSVPLG03,JM,20260219-104735,1.0.2,20251105-084826,769,Experiment,Both,1,Automatic,main,15,20260219-105007,global,local,300,H,H,E,A,H-E.png,A-H.png,hH,hH,mask-1.png,mask-2.png,h,1,0.8142603002488613,h,1,0.10826759971678257,0.04597119987010956,0.04811280034482479,0.10027279984205961,0.10142059996724129,0.30233959946781397
RSVPLG03,JM,20260219-104735,1.0.2,20251105-084826,769,Experiment,Both,1,Automatic,main,16,20260219-105011,global,global,300,S,H,E,E,S-E.png,H-E.png,sS,hH,mask-2.png,mask-1.png,h,0,1.2238566996529698,h,1,0.10307900048792362,0.04966870043426752,0.0461991997435689,0.10081040021032095,0.10026570037007332,0.30511740036308765
RSVPLG03,JM,20260219-104735,1.0.2,20251105-084826,769,Experiment,Both,1,Automatic,main,17,20260219-105016,global,global,750,S,S,A,E,S-A.png,S-E.png,sS,sS,mask-2.png,mask-3.png,s,1,0.8237346997484565,h,0,0.03758860006928444,0.04878750070929527,0.04870920069515705,0.10099190007895231,0.10135390050709248,0.742811500094831
RSVPLG03,JM,20260219-104735,1.0.2,20251105-084826,769,Experiment,Both,1,Automatic,main,18,20260219-105021,global,local,750,S,H,E,E,S-E.png,E-H.png,sS,hH,mask-3.png,mask-3.png,s,1,1.2368059000000358,s,0,0.10833000019192696,0.046955499798059464,0.04752300027757883,0.10066849924623966,0.09962260071188211,0.7423167992383242
RSVPLG03,JM,20260219-104735,1.0.2,20251105-084826,769,Experiment,Both,1,Automatic,main,19,20260219-105027,local,local,300,S,S,A,A,A-S.png,A-S.png,sS,sS,mask-1.png,mask-1.png,s,1,3.5319753997027874,s,1,0.17171090003103018,0.04759530071169138,0.04753199964761734,0.10186830069869757,0.10072109941393137,0.30328530073165894
RSVPLG03,JM,20260219-104735,1.0.2,20251105-084826,769,Experiment,Both,1,Automatic,main,20,20260219-105035,local,global,750,H,S,A,E,A-H.png,S-E.png,hH,sS,mask-1.png,mask-3.png,s,0,1.0908878007903695,h,0,0.028366100043058395,0.04683490004390478,0.04981189966201782,0.1008925000205636,0.10294979996979237,0.7410130007192492
RSVPLG03,JM,20260219-104735,1.0.2,20251105-084826,769,Experiment,Both,1,Automatic,main,21,20260219-105040,global,global,300,S,S,A,E,S-A.png,S-E.png,sS,sS,mask-4.png,mask-2.png,h,0,1.372112199664116,h,0,0.12835079990327358,0.047004200518131256,0.04653349984437227,0.09999800007790327,0.10045380052179098,0.30412179976701736
RSVPLG03,JM,20260219-104735,1.0.2,20251105-084826,769,Experiment,Both,1,Automatic,main,22,20260219-105045,global,global,750,S,S,E,A,S-E.png,S-A.png,sS,sS,mask-2.png,mask-3.png,h,0,0.6800640001893044,s,1,0.0725739998742938,0.04751389939337969,0.049618800170719624,0.09953359980136156,0.10263669956475496,0.7405896000564098
RSVPLG03,JM,20260219-104735,1.0.2,20251105-084826,769,Experiment,Both,1,Automatic,main,23,20260219-105050,global,local,300,H,S,A,A,H-A.png,A-S.png,hH,sS,mask-1.png,mask-3.png,h,1,4.825360499322414,h,0,0.501354600302875,0.0488046994432807,0.04722429998219013,0.10062819998711348,0.10048330016434193,0.30454999953508377
RSVPLG03,JM,20260219-104735,1.0.2,20251105-084826,769,Experiment,Both,1,Automatic,main,24,20260219-105100,local,global,750,S,H,A,A,A-S.png,H-A.png,sS,hH,mask-2.png,mask-1.png,h,0,1.9254075000062585,h,1,0.13838270027190447,0.048491399735212326,0.0495100999251008,0.09999809972941875,0.1023412998765707,0.7415899997577071
RSVPLG03,JM,20260219-104735,1.0.2,20251105-084826,769,Experiment,Both,1,Automatic,main,25,20260219-105106,global,local,750,S,H,E,A,S-E.png,A-H.png,sS,hH,mask-1.png,mask-3.png,h,0,1.0523539995774627,h,1,0.12532720062881708,0.048411899246275425,0.04751249961555004,0.09997290000319481,0.09977309964597225,0.7418710999190807
RSVPLG03,JM,20260219-104735,1.0.2,20251105-084826,769,Experiment,Both,1,Automatic,main,26,20260219-105115,global,global,300,H,S,E,E,H-E.png,S-E.png,hH,sS,mask-1.png,mask-2.png,h,1,1.9867001995444298,h,0,0.15654530003666878,0.047071400098502636,0.04714979976415634,0.10082870069891214,0.10143669974058867,0.3029334004968405
RSVPLG03,JM,20260219-104735,1.0.2,20251105-084826,769,Experiment,Both,1,Automatic,main,27,20260219-105121,local,global,300,H,H,E,A,E-H.png,H-A.png,hH,hH,mask-3.png,mask-4.png,s,0,1.1269544996321201,s,0,0.19596239924430847,0.049606299959123135,0.0477571003139019,0.10137940011918545,0.10011169966310263,0.30446700006723404
RSVPLG03,JM,20260219-104735,1.0.2,20251105-084826,769,Experiment,Both,1,Automatic,main,28,20260219-105126,local,local,750,S,S,A,E,A-S.png,E-S.png,sS,sS,mask-4.png,mask-3.png,h,0,1.092505699954927,h,0,0.13427750021219254,0.04864419996738434,0.04731039982289076,0.10180599987506866,0.100479899905622,0.743677300401032
RSVPLG03,JM,20260219-104735,1.0.2,20251105-084826,769,Experiment,Both,1,Automatic,main,29,20260219-105131,local,global,300,S,S,E,E,E-S.png,S-E.png,sS,sS,mask-3.png,mask-1.png,h,0,0.7783286003395915,h,0,0.15338220074772835,0.04828139953315258,0.047766500152647495,0.10107850003987551,0.10114959999918938,0.3040923997759819
RSVPLG03,JM,20260219-104735,1.0.2,20251105-084826,769,Experiment,Both,1,Automatic,main,30,20260219-105136,local,local,750,H,S,E,A,E-H.png,A-S.png,hH,sS,mask-4.png,mask-4.png,s,0,2.7669890001416206,s,1,0.17383769992738962,0.048603800125420094,0.047513400204479694,0.10169269982725382,0.10083690006285906,0.7430440997704864
RSVPLG03,JM,20260219-104735,1.0.2,20251105-084826,769,Experiment,Both,1,Automatic,main,31,20260219-105143,global,global,300,S,S,E,A,S-E.png,S-A.png,sS,sS,mask-4.png,mask-3.png,s,1,0.9718554997816682,s,1,0.13787199929356575,0.04695439990609884,0.04751399997621775,0.10120770055800676,0.09972120076417923,0.3040105998516083
RSVPLG03,JM,20260219-104735,1.0.2,20251105-084826,769,Experiment,Both,1,Automatic,main,32,20260219-105148,local,global,750,H,S,A,A,A-H.png,S-A.png,hH,sS,mask-2.png,mask-1.png,h,1,1.637041600421071,h,0,0.13711650017648935,0.04866379965096712,0.04822929948568344,0.10078199952840805,0.10350979957729578,0.741270300000906
RSVPLG03,JM,20260219-104735,1.0.2,20251105-084826,769,Experiment,Both,1,Automatic,main,33,20260219-105154,global,global,750,H,H,E,E,H-E.png,H-E.png,hH,hH,mask-2.png,mask-1.png,h,1,2.353422099724412,h,1,0.23498229961842299,0.04961999971419573,0.04887040052562952,0.10266249999403954,0.1021357998251915,0.7424839995801449
RSVPLG03,JM,20260219-104735,1.0.2,20251105-084826,769,Experiment,Both,1,Automatic,main,34,20260219-105201,global,global,300,S,S,A,A,S-A.png,S-A.png,sS,sS,mask-1.png,mask-4.png,h,0,3.4347171001136303,s,1,0.14173579961061478,0.04751900024712086,0.048384400084614754,0.10083189979195595,0.10131609998643398,0.30223659984767437
RSVPLG03,JM,20260219-104735,1.0.2,20251105-084826,769,Experiment,Both,1,Automatic,main,35,20260219-105208,local,global,750,S,H,A,A,A-S.png,H-A.png,sS,hH,mask-1.png,mask-4.png,s,1,4.4297681003808975,s,0,0.13941340055316687,0.047478499822318554,0.04851939994841814,0.10049759969115257,0.10249920003116131,0.7412037998437881
RSVPLG03,JM,20260219-104735,1.0.2,20251105-084826,769,Experiment,Both,1,Automatic,main,36,20260219-105217,global,global,750,H,S,A,E,H-A.png,S-E.png,hH,sS,mask-2.png,mask-4.png,s,0,1.3602068992331624,s,1,0.12089759949594736,0.048454299569129944,0.04757910035550594,0.10056559927761555,0.09941390063613653,0.743016199208796
RSVPLG03,JM,20260219-104735,1.0.2,20251105-084826,769,Experiment,Both,1,Automatic,main,37,20260219-105223,local,local,300,S,S,E,E,E-S.png,E-S.png,sS,sS,mask-2.png,mask-2.png,h,0,4.853753300383687,h,0,0.47205560002475977,0.04884160030633211,0.04869940038770437,0.10105179995298386,0.1009057005867362,0.3039555996656418
RSVPLG03,JM,20260219-104735,1.0.2,20251105-084826,769,Experiment,Both,1,Automatic,main,38,20260219-105232,global,local,750,H,S,A,A,H-A.png,A-S.png,hH,sS,mask-4.png,mask-3.png,s,0,2.427526299841702,h,0,0.10285419970750809,0.04667720012366772,0.04889960028231144,0.09898010082542896,0.10108510032296181,0.7408579001203179
RSVPLG03,JM,20260219-104735,1.0.2,20251105-084826,769,Experiment,Both,1,Automatic,main,39,20260219-105239,local,local,750,S,H,E,E,E-S.png,E-H.png,sS,hH,mask-1.png,mask-2.png,h,0,3.617199799977243,h,1,0.18227440025657415,0.048121100291609764,0.04819640051573515,0.10110990051180124,0.10056040063500404,0.7417727001011372
RSVPLG03,JM,20260219-104735,1.0.2,20251105-084826,769,Experiment,Both,1,Automatic,main,40,20260219-105247,local,local,750,H,S,E,E,E-H.png,E-S.png,hH,sS,mask-2.png,mask-2.png,h,1,6.41030849982053,h,0,0.11724929977208376,0.04756360035389662,0.04805730003863573,0.10095370002090931,0.10137929953634739,0.7410147003829479
RSVPLG03,JM,20260219-104735,1.0.2,20251105-084826,769,Experiment,Both,1,Automatic,main,41,20260219-105258,local,global,750,H,S,E,A,E-H.png,S-A.png,hH,sS,mask-1.png,mask-3.png,s,0,0.7444745004177094,s,1,0.1240285998210311,0.048442100174725056,0.04855129960924387,0.10231310036033392,0.1025085998699069,0.7412711000069976
RSVPLG03,JM,20260219-104735,1.0.2,20251105-084826,769,Experiment,Both,1,Automatic,main,42,20260219-105303,local,local,750,S,H,A,E,A-S.png,E-H.png,sS,hH,mask-3.png,mask-4.png,s,1,0.7832756005227566,h,1,0.02683890052139759,0.046715899370610714,0.047640200704336166,0.09992050006985664,0.10174950025975704,0.7419815994799137
RSVPLG03,JM,20260219-104735,1.0.2,20251105-084826,769,Experiment,Both,1,Automatic,main,43,20260219-105308,local,global,750,H,S,A,A,A-H.png,S-A.png,hH,sS,mask-3.png,mask-4.png,h,1,0.6581381000578403,s,1,0.053115700371563435,0.048436700366437435,0.047730499878525734,0.101481799967587,0.1019197991117835,0.7415462005883455
RSVPLG03,JM,20260219-104735,1.0.2,20251105-084826,769,Experiment,Both,1,Automatic,main,44,20260219-105313,local,local,750,S,H,E,E,E-S.png,E-H.png,sS,hH,mask-2.png,mask-1.png,h,0,0.6666085999459028,h,1,0.1403102995827794,0.04857170023024082,0.04863990005105734,0.10139609966427088,0.10166339948773384,0.7417638003826141
RSVPLG03,JM,20260219-104735,1.0.2,20251105-084826,769,Experiment,Both,1,Automatic,main,45,20260219-105318,global,local,750,H,H,E,E,H-E.png,E-H.png,hH,hH,mask-4.png,mask-1.png,s,0,5.796622599475086,h,1,0.15269970055669546,0.04678909946233034,0.04752360004931688,0.09993559960275888,0.10155020002275705,0.741932699456811
RSVPLG03,JM,20260219-104735,1.0.2,20251105-084826,769,Experiment,Both,1,Automatic,main,46,20260219-105328,global,global,300,S,H,A,E,S-A.png,H-E.png,sS,hH,mask-4.png,mask-1.png,h,0,0.6900567999109626,h,1,0.10655499994754791,0.04768630024045706,0.048591699451208115,0.1016549002379179,0.10177730023860931,0.30273190047591925
RSVPLG03,JM,20260219-104735,1.0.2,20251105-084826,769,Experiment,Both,1,Automatic,main,47,20260219-105333,global,local,300,S,S,A,A,S-A.png,A-S.png,sS,sS,mask-1.png,mask-3.png,h,0,0.9308934006839991,h,0,0.15729019977152348,0.0483619999140501,0.04769240040332079,0.10176240000873804,0.10077730007469654,0.30298779997974634
RSVPLG03,JM,20260219-104735,1.0.2,20251105-084826,769,Experiment,Both,1,Automatic,main,48,20260219-105337,local,global,750,H,S,A,A,A-H.png,S-A.png,hH,sS,mask-1.png,mask-3.png,h,1,1.8178457003086805,h,0,0.1363289002329111,0.04708399996161461,0.04803240019828081,0.10069289989769459,0.10113579966127872,0.7420033998787403
RSVPLG03,JM,20260219-104735,1.0.2,20251105-084826,769,Experiment,Both,1,Automatic,main,49,20260219-105343,local,local,750,H,H,E,E,E-H.png,E-H.png,hH,hH,mask-1.png,mask-2.png,h,1,1.2110422002151608,s,0,0.18766679987311363,0.047508799470961094,0.047524900175631046,0.1007521003484726,0.10094729997217655,0.742828699760139
RSVPLG03,JM,20260219-104735,1.0.2,20251105-084826,769,Experiment,Both,1,Automatic,main,50,20260219-105349,local,global,300,S,S,A,A,A-S.png,S-A.png,sS,sS,mask-4.png,mask-4.png,s,1,1.1191940996795893,s,1,0.1407673005014658,0.04858880024403334,0.04660560004413128,0.10161919984966516,0.10168510023504496,0.3052174001932144
RSVPLG03,JM,20260219-104735,1.0.2,20251105-084826,769,Experiment,Both,1,Automatic,main,51,20260219-105356,global,global,750,H,H,A,E,H-A.png,H-E.png,hH,hH,mask-3.png,mask-2.png,s,0,2.110511099919677,s,0,0.1391426995396614,0.047631499357521534,0.047258700244128704,0.10184199921786785,0.0995938004925847,0.7427886994555593
RSVPLG03,JM,20260219-104735,1.0.2,20251105-084826,769,Experiment,Both,1,Automatic,main,52,20260219-105403,global,global,750,S,H,A,E,S-A.png,H-E.png,sS,hH,mask-2.png,mask-2.png,h,0,3.858670899644494,s,0,0.31949609983712435,0.048470000736415386,0.04851270001381636,0.10086940042674541,0.10171569976955652,0.7425677003338933
RSVPLG03,JM,20260219-104735,1.0.2,20251105-084826,769,Experiment,Both,1,Automatic,main,53,20260219-105411,global,local,300,S,S,E,E,S-E.png,E-S.png,sS,sS,mask-4.png,mask-4.png,s,1,3.7915992001071572,s,1,0.13467639964073896,0.04703280050307512,0.048750899732112885,0.10080619994550943,0.10100140050053596,0.30240010004490614
RSVPLG03,JM,20260219-104735,1.0.2,20251105-084826,769,Experiment,Both,1,Automatic,main,54,20260219-105419,global,local,300,S,S,A,E,S-A.png,E-S.png,sS,sS,mask-1.png,mask-3.png,s,1,0.7896515997126698,s,1,0.27916810009628534,0.047658500261604786,0.04783890023827553,0.09949880000203848,0.1016865000128746,0.3034219006076455
RSVPLG03,JM,20260219-104735,1.0.2,20251105-084826,769,Experiment,Both,1,Automatic,main,55,20260219-105424,local,local,300,S,S,E,E,E-S.png,E-S.png,sS,sS,mask-2.png,mask-3.png,h,0,0.8823523996397853,h,0,0.43157130014151335,0.04723860044032335,0.046884700655937195,0.10133539978414774,0.10013180039823055,0.3038205998018384
RSVPLG03,JM,20260219-104735,1.0.2,20251105-084826,769,Experiment,Both,1,Automatic,main,56,20260219-105429,local,global,750,S,H,A,A,A-S.png,H-A.png,sS,hH,mask-3.png,mask-1.png,s,1,1.1890647998079658,h,1,0.22555099986493587,0.04670129995793104,0.049432200379669666,0.10103899985551834,0.1014638002961874,0.7414592998102307
RSVPLG03,JM,20260219-104735,1.0.2,20251105-084826,769,Experiment,Both,1,Automatic,main,57,20260219-105435,local,global,300,H,S,E,A,E-H.png,S-A.png,hH,sS,mask-3.png,mask-3.png,h,1,1.4924018001183867,h,0,0.5339584993198514,0.04770160000771284,0.04964680038392544,0.10079450067132711,0.10260680038481951,0.3033880004659295
RSVPLG03,JM,20260219-104735,1.0.2,20251105-084826,769,Experiment,Both,1,Automatic,main,58,20260219-105440,global,global,300,S,S,E,A,S-E.png,S-A.png,sS,sS,mask-2.png,mask-2.png,s,1,0.9078092994168401,s,1,0.14039059914648533,0.048640599474310875,0.04747390002012253,0.10248290002346039,0.10014680027961731,0.30512989964336157
RSVPLG03,JM,20260219-104735,1.0.2,20251105-084826,769,Experiment,Both,1,Automatic,main,59,20260219-105445,global,local,750,S,H,E,E,S-E.png,E-H.png,sS,hH,mask-1.png,mask-3.png,s,1,0.7765830997377634,s,0,0.1312592001631856,0.05061960034072399,0.048467000015079975,0.10268849972635508,0.10130139999091625,0.7428928995504975
RSVPLG03,JM,20260219-104735,1.0.2,20251105-084826,769,Experiment,Both,1,Automatic,main,60,20260219-105451,global,global,750,S,S,A,A,S-A.png,S-A.png,sS,sS,mask-4.png,mask-3.png,s,1,1.225421299226582,s,1,0.11326850019395351,0.04662320017814636,0.050574700348079205,0.10074870008975267,0.10256760008633137,0.7407021997496486
RSVPLG03,JM,20260219-104735,1.0.2,20251105-084826,769,Experiment,Both,1,Automatic,main,61,20260219-105456,global,local,300,H,H,E,E,H-E.png,E-H.png,hH,hH,mask-1.png,mask-3.png,h,1,0.5952357994392514,s,0,0.34371579997241497,0.04837710037827492,0.04843660071492195,0.10007730033248663,0.101570600643754,0.3027657996863127
RSVPLG03,JM,20260219-104735,1.0.2,20251105-084826,769,Experiment,Both,1,Automatic,main,62,20260219-105501,local,global,300,S,H,E,A,E-S.png,H-A.png,sS,hH,mask-2.png,mask-1.png,s,1,0.902420399710536,h,1,1.2428566999733448,0.04828820005059242,0.04696459975093603,0.10036170016974211,0.09997319988906384,0.30411200039088726
RSVPLG03,JM,20260219-104735,1.0.2,20251105-084826,769,Experiment,Both,1,Automatic,main,63,20260219-105507,global,global,750,H,H,A,E,H-A.png,H-E.png,hH,hH,mask-2.png,mask-2.png,h,1,3.015807400457561,h,1,0.18283439986407757,0.047705200500786304,0.04831620026379824,0.1017734007909894,0.10059009958058596,0.7419901005923748
RSVPLG03,JM,20260219-104735,1.0.2,20251105-084826,769,Experiment,Both,1,Automatic,main,64,20260219-105514,local,local,300,H,H,E,E,E-H.png,E-H.png,hH,hH,mask-1.png,mask-4.png,h,1,0.7413563001900911,s,0,0.15563009958714247,0.0487246997654438,0.04986979998648167,0.1025791997089982,0.1031598998233676,0.3032742999494076
RSVPLG03,JM,20260219-104735,1.0.2,20251105-084826,769,Experiment,Both,1,Automatic,main,65,20260219-105519,global,local,300,S,H,A,A,S-A.png,A-H.png,sS,hH,mask-3.png,mask-3.png,s,1,3.159620899707079,s,0,0.42384810000658035,0.04844869952648878,0.04669270012527704,0.10091189946979284,0.09984339959919453,0.30450440011918545
RSVPLG03,JM,20260219-104735,1.0.2,20251105-084826,769,Experiment,Both,1,Automatic,main,66,20260219-105527,local,local,750,H,H,A,A,A-H.png,A-H.png,hH,hH,mask-1.png,mask-3.png,h,1,0.7748951008543372,h,1,0.14120970014482737,0.046768500469624996,0.04621049948036671,0.10000650025904179,0.10099489986896515,0.7418991001322865
RSVPLG03,JM,20260219-104735,1.0.2,20251105-084826,769,Experiment,Both,1,Automatic,main,67,20260219-105532,global,local,300,H,H,E,A,H-E.png,A-H.png,hH,hH,mask-4.png,mask-3.png,s,0,7.52627560030669,h,1,0.13476020004600286,0.048578799702227116,0.04959829989820719,0.1020815996453166,0.10140450019389391,0.3035351997241378
RSVPLG03,JM,20260219-104735,1.0.2,20251105-084826,769,Experiment,Both,1,Automatic,main,68,20260219-105543,local,local,750,H,H,A,A,A-H.png,A-H.png,hH,hH,mask-1.png,mask-3.png,h,1,0.6172056999057531,h,1,0.15665489993989468,0.04774950072169304,0.04868160001933575,0.10084160044789314,0.10085329972207546,0.7427159007638693
RSVPLG03,JM,20260219-104735,1.0.2,20251105-084826,769,Experiment,Both,1,Automatic,main,69,20260219-105548,local,global,300,S,S,A,A,A-S.png,S-A.png,sS,sS,mask-3.png,mask-3.png,s,1,2.939424599520862,h,0,0.15084389969706535,0.049647399224340916,0.04709959961473942,0.10177019983530045,0.10139189939945936,0.3049726998433471
RSVPLG03,JM,20260219-104735,1.0.2,20251105-084826,769,Experiment,Both,1,Automatic,main,70,20260219-105555,local,local,750,H,S,E,A,E-H.png,A-S.png,hH,sS,mask-1.png,mask-2.png,s,0,0.8418715996667743,s,1,0.11976430006325245,0.048712700605392456,0.04826419986784458,0.10199130047112703,0.10039949975907803,0.7426142003387213
RSVPLG03,JM,20260219-104735,1.0.2,20251105-084826,769,Experiment,Both,1,Automatic,main,71,20260219-105600,global,local,750,H,S,E,E,H-E.png,E-S.png,hH,sS,mask-1.png,mask-1.png,s,0,1.9578643003478646,s,1,0.15356860030442476,0.04982510022819042,0.04736540000885725,0.10202519968152046,0.10060250014066696,0.7432992001995444
RSVPLG03,JM,20260219-104735,1.0.2,20251105-084826,769,Experiment,Both,1,Automatic,main,72,20260219-105607,local,local,300,H,S,A,A,A-H.png,A-S.png,hH,sS,mask-2.png,mask-4.png,h,1,1.5483471993356943,s,1,0.1719353999942541,0.04764260072261095,0.04819620028138161,0.10007810033857822,0.10041940025985241,0.3026058003306389
RSVPLG03,JM,20260219-104735,1.0.2,20251105-084826,769,Experiment,Both,1,Automatic,main,73,20260219-105612,global,global,300,H,S,E,A,H-E.png,S-A.png,hH,sS,mask-4.png,mask-3.png,h,1,1.3921616999432445,s,1,0.1348415007814765,0.047991300001740456,0.04884419962763786,0.1002003001049161,0.10203929990530014,0.30206460040062666
RSVPLG03,JM,20260219-104735,1.0.2,20251105-084826,769,Experiment,Both,1,Automatic,main,74,20260219-105618,local,local,300,H,S,A,E,A-H.png,E-S.png,hH,sS,mask-3.png,mask-1.png,h,1,2.7300360994413495,s,1,0.696094699203968,0.05009620077908039,0.04714319948107004,0.1029933001846075,0.10131040029227734,0.3052542004734278
RSVPLG03,JM,20260219-104735,1.0.2,20251105-084826,769,Experiment,Both,1,Automatic,main,75,20260219-105625,global,local,300,H,H,E,E,H-E.png,E-H.png,hH,hH,mask-3.png,mask-2.png,h,1,1.3187742000445724,s,0,0.21935239993035793,0.049694799818098545,0.049734000116586685,0.1017816998064518,0.10134810023009777,0.30338239949196577
RSVPLG03,JM,20260219-104735,1.0.2,20251105-084826,769,Experiment,Both,1,Automatic,main,76,20260219-105632,local,global,300,H,H,E,E,E-H.png,H-E.png,hH,hH,mask-3.png,mask-4.png,s,0,2.3178455997258425,h,1,0.1650425000116229,0.04949740041047335,0.04872149974107742,0.10159470047801733,0.10000369977205992,0.30390490032732487
RSVPLG03,JM,20260219-104735,1.0.2,20251105-084826,769,Experiment,Both,1,Automatic,main,77,20260219-105638,global,local,300,H,H,A,A,H-A.png,A-H.png,hH,hH,mask-1.png,mask-4.png,h,1,1.1909462995827198,s,0,0.16728220041841269,0.047949899919331074,0.04724169988185167,0.1010282002389431,0.1000922005623579,0.304059199988842
RSVPLG03,JM,20260219-104735,1.0.2,20251105-084826,769,Experiment,Both,1,Automatic,main,78,20260219-105644,local,global,300,H,S,E,E,E-H.png,S-E.png,hH,sS,mask-3.png,mask-1.png,h,1,2.5188684994354844,h,0,0.14910100027918816,0.04739739932119846,0.04815080016851425,0.10172049980610609,0.10023020021617413,0.30397909972816706
RSVPLG03,JM,20260219-104735,1.0.2,20251105-084826,769,Experiment,Both,1,Automatic,main,79,20260219-105650,local,global,750,H,H,E,E,E-H.png,H-E.png,hH,hH,mask-4.png,mask-2.png,s,0,1.459090800024569,h,1,0.18204860016703606,0.048802100121974945,0.047502899542450905,0.10134680010378361,0.10107159987092018,0.7434874000027776
RSVPLG03,JM,20260219-104735,1.0.2,20251105-084826,769,Experiment,Both,1,Automatic,main,80,20260219-105656,global,local,750,H,H,A,E,H-A.png,E-H.png,hH,hH,mask-2.png,mask-2.png,s,0,1.3278844999149442,h,1,0.20409810077399015,0.04752320051193237,0.04757490009069443,0.09974659979343414,0.1001804992556572,0.7427141005173326
RSVPLG03,JM,20260219-104735,1.0.2,20251105-084826,769,Experiment,Both,1,Automatic,main,81,20260219-105702,global,local,750,H,S,E,A,H-E.png,A-S.png,hH,sS,mask-4.png,mask-2.png,s,0,3.3799034003168344,h,0,0.14309540018439293,0.04753980040550232,0.04677389934659004,0.1015531001612544,0.099694499745965,0.7431417005136609
RSVPLG03,JM,20260219-104735,1.0.2,20251105-084826,769,Experiment,Both,1,Automatic,main,82,20260219-105710,global,local,300,S,H,A,A,S-A.png,A-H.png,sS,hH,mask-2.png,mask-2.png,h,0,2.9200627002865076,s,0,0.32870659977197647,0.04866620060056448,0.04938360024243593,0.10271250084042549,0.10243050009012222,0.3036985006183386
RSVPLG03,JM,20260219-104735,1.0.2,20251105-084826,769,Experiment,Both,1,Automatic,main,83,20260219-105717,global,local,750,S,S,A,E,S-A.png,E-S.png,sS,sS,mask-2.png,mask-3.png,s,1,1.201593599282205,h,0,0.10534260049462318,0.04769379924982786,0.04800709988921881,0.10087599977850914,0.10122169926762581,0.7421728000044823
RSVPLG03,JM,20260219-104735,1.0.2,20251105-084826,769,Experiment,Both,1,Automatic,main,84,20260219-105723,global,global,300,H,S,E,E,H-E.png,S-E.png,hH,sS,mask-4.png,mask-4.png,h,1,1.4239624002948403,s,1,0.19965479988604784,0.04908270016312599,0.04790970031172037,0.10112110059708357,0.10200840048491955,0.3043162999674678
RSVPLG03,JM,20260219-104735,1.0.2,20251105-084826,769,Experiment,Both,1,Automatic,main,85,20260219-105728,local,local,300,H,S,A,A,A-H.png,A-S.png,hH,sS,mask-3.png,mask-4.png,h,1,2.112422600388527,s,1,0.5140941003337502,0.04573679994791746,0.04878799989819527,0.09982779994606972,0.10188890062272549,0.30226829927414656
RSVPLG03,JM,20260219-104735,1.0.2,20251105-084826,769,Experiment,Both,1,Automatic,main,86,20260219-105734,global,global,750,H,H,E,E,H-E.png,H-E.png,hH,hH,mask-4.png,mask-1.png,h,1,2.524702999740839,h,1,0.36058960016816854,0.048057000152766705,0.04697379935532808,0.10054379981011152,0.09995769988745451,0.7427345002070069
RSVPLG03,JM,20260219-104735,1.0.2,20251105-084826,769,Experiment,Both,1,Automatic,main,87,20260219-105742,global,global,300,S,H,E,E,S-E.png,H-E.png,sS,hH,mask-3.png,mask-1.png,s,1,0.8381350999698043,h,1,0.42887450009584427,0.049492199905216694,0.04959559999406338,0.10169619973748922,0.10265100002288818,0.3035164996981621
RSVPLG03,JM,20260219-104735,1.0.2,20251105-084826,769,Experiment,Both,1,Automatic,main,88,20260219-105747,local,global,300,H,H,A,E,A-H.png,H-E.png,hH,hH,mask-1.png,mask-4.png,h,1,1.3544907998293638,s,0,0.26199099980294704,0.04987739957869053,0.04866399988532066,0.10212999954819679,0.10155639983713627,0.3033961998298764
RSVPLG03,JM,20260219-104735,1.0.2,20251105-084826,769,Experiment,Both,1,Automatic,main,89,20260219-105753,global,global,300,H,H,E,E,H-E.png,H-E.png,hH,hH,mask-2.png,mask-4.png,h,1,1.2408998999744654,h,1,0.7299314001575112,0.0495295999571681,0.047691999934613705,0.10163559950888157,0.0990752000361681,0.30539559945464134
RSVPLG03,JM,20260219-104735,1.0.2,20251105-084826,769,Experiment,Both,1,Automatic,main,90,20260219-105758,global,local,750,S,S,A,E,S-A.png,E-S.png,sS,sS,mask-1.png,mask-1.png,s,1,0.6661197999492288,h,0,0.2941423999145627,0.04774279985576868,0.04771399963647127,0.10098680015653372,0.10187209956347942,0.7422721004113555
RSVPLG03,JM,20260219-104735,1.0.2,20251105-084826,769,Experiment,Both,1,Automatic,main,91,20260219-105804,local,local,300,H,S,A,A,A-H.png,A-S.png,hH,sS,mask-1.png,mask-1.png,h,1,2.602022100239992,s,1,0.14872829988598824,0.047757500782608986,0.048426900058984756,0.10039410088211298,0.10149049945175648,0.3029785007238388
RSVPLG03,JM,20260219-104735,1.0.2,20251105-084826,769,Experiment,Both,1,Automatic,main,92,20260219-105810,global,local,750,H,S,E,E,H-E.png,E-S.png,hH,sS,mask-4.png,mask-1.png,s,0,1.847392700612545,s,1,0.12331839930266142,0.04867090005427599,0.04873250052332878,0.10184810031205416,0.10099500045180321,0.7429388994351029
RSVPLG03,JM,20260219-104735,1.0.2,20251105-084826,769,Experiment,Both,1,Automatic,main,93,20260219-105817,local,global,750,H,H,E,E,E-H.png,H-E.png,hH,hH,mask-4.png,mask-3.png,s,0,1.3658579997718334,h,1,0.21310419961810112,0.048508900217711926,0.04858949966728687,0.10052340012043715,0.10095599945634604,0.7413223003968596
RSVPLG03,JM,20260219-104735,1.0.2,20251105-084826,769,Experiment,Both,1,Automatic,main,94,20260219-105823,global,global,750,S,H,A,E,S-A.png,H-E.png,sS,hH,mask-1.png,mask-1.png,s,1,1.1541242003440857,h,1,0.15700490027666092,0.046725199557840824,0.047685700468719006,0.10010069981217384,0.10089899972081184,0.7412476995959878
RSVPLG03,JM,20260219-104735,1.0.2,20251105-084826,769,Experiment,Both,1,Automatic,main,95,20260219-105828,local,local,750,H,H,E,E,E-H.png,E-H.png,hH,hH,mask-3.png,mask-3.png,h,1,2.6835067998617887,s,0,0.20651639997959137,0.04860190022736788,0.048640900291502476,0.10286520048975945,0.10078989993780851,0.7434684000909328
RSVPLG03,JM,20260219-104735,1.0.2,20251105-084826,769,Experiment,Both,1,Automatic,main,96,20260219-105835,global,global,750,H,H,A,A,H-A.png,H-A.png,hH,hH,mask-2.png,mask-3.png,h,1,0.5151550006121397,h,1,0.13307099975645542,0.04762940015643835,0.048465900123119354,0.10070480033755302,0.10020279977470636,0.742523199878633
RSVPLG03,JM,20260219-104735,1.0.2,20251105-084826,769,Experiment,Both,1,Automatic,main,97,20260219-105840,local,local,300,H,S,A,A,A-H.png,A-S.png,hH,sS,mask-3.png,mask-4.png,h,1,1.2453528000041842,s,1,0.11106839962303638,0.04884339962154627,0.049381500110030174,0.10096700023859739,0.10217039939016104,0.303469100035727
RSVPLG03,JM,20260219-104735,1.0.2,20251105-084826,769,Experiment,Both,1,Automatic,main,98,20260219-105846,local,local,300,H,S,A,E,A-H.png,E-S.png,hH,sS,mask-3.png,mask-1.png,h,1,1.4548110999166965,s,1,0.1347003998234868,0.048523999750614166,0.04743809998035431,0.1025518998503685,0.10050049982964993,0.30456339940428734
RSVPLG03,JM,20260219-104735,1.0.2,20251105-084826,769,Experiment,Both,1,Automatic,main,99,20260219-105851,local,global,300,H,S,E,E,E-H.png,S-E.png,hH,sS,mask-4.png,mask-4.png,s,0,2.206547699868679,s,1,0.15728799998760223,0.04765750002115965,0.049505299888551235,0.10082990024238825,0.10038700047880411,0.30258770007640123
RSVPLG03,JM,20260219-104735,1.0.2,20251105-084826,769,Experiment,Both,1,Automatic,main,100,20260219-105857,local,local,750,S,S,A,E,A-S.png,E-S.png,sS,sS,mask-4.png,mask-1.png,s,1,1.5246223006397486,h,0,0.18168700020760298,0.04822670016437769,0.04680070001631975,0.10070780012756586,0.10040980018675327,0.7438834998756647
