exp,exp_initials,runtime,ver,modtime,sub,blocktype,targets,cuetype,mode,trialtype,trial,trialtime,t1_level,t2_level,t2_lag,t1,t2,distractor1,distractor2,stimfile1,stimfile2,t1_corr,t2_corr,maskfile1,maskfile2,t1_resp,t1_acc,t1_rt,t2_resp,t2_acc,t2_rt,t1_dur,t2_dur,t1mask_soa,t2mask_soa,t1t2_soa
RSVPLG03,cs,20260218-131344,1.0.2,20251105-084826,766,Introduction,T1,1,Automatic,main,1,20260218-131409,global,local,750,H,H,E,E,H-E.png,E-H.png,hH,hH,mask-1.png,mask-4.png,h,1,4.69794400036335,none,-5,0,0.09143360052257776,0.09784630034118891,0.19452730007469654,0.20123550016433,0.7429251000285149
RSVPLG03,cs,20260218-131344,1.0.2,20251105-084826,766,Introduction,T1,1,Automatic,main,2,20260218-131418,local,local,750,H,S,E,E,E-H.png,E-S.png,hH,sS,mask-4.png,mask-4.png,s,0,2.4132481003180146,none,-5,0,0.09656600002199411,0.09716439992189407,0.19860710017383099,0.2003619996830821,0.7495109001174569
RSVPLG03,cs,20260218-131344,1.0.2,20251105-084826,766,Introduction,T1,1,Automatic,main,3,20260218-131425,local,local,750,S,S,A,E,A-S.png,E-S.png,sS,sS,mask-1.png,mask-3.png,h,0,1.7706621997058392,none,-5,0,0.09746879991143942,0.09743910003453493,0.20048199966549873,0.19957489985972643,0.7498693000525236
RSVPLG03,cs,20260218-131344,1.0.2,20251105-084826,766,Introduction,T1,1,Automatic,main,4,20260218-131431,global,global,750,H,S,A,E,H-A.png,S-E.png,hH,sS,mask-2.png,mask-3.png,h,1,1.8366681998595595,none,-5,0,0.09861649945378304,0.09767259936779737,0.2017819993197918,0.20060910005122423,0.7500617001205683
RSVPLG03,cs,20260218-131344,1.0.2,20251105-084826,766,Introduction,T1,1,Automatic,main,5,20260218-131437,global,global,750,S,H,E,A,S-E.png,H-A.png,sS,hH,mask-4.png,mask-2.png,s,1,0.8457773998379707,none,-5,0,0.09771090000867844,0.09954580012708902,0.19994280021637678,0.20072370022535324,0.7495689000934362
RSVPLG03,cs,20260218-131344,1.0.2,20251105-084826,766,Introduction,T1,1,Automatic,main,6,20260218-131442,local,local,750,S,S,A,E,A-S.png,E-S.png,sS,sS,mask-3.png,mask-4.png,h,0,1.397177499718964,none,-5,0,0.09750489983707666,0.0972255002707243,0.19886459968984127,0.20015159994363785,0.749332900159061
RSVPLG03,cs,20260218-131344,1.0.2,20251105-084826,766,Introduction,T1,1,Automatic,main,7,20260218-131447,local,global,750,S,H,A,E,A-S.png,H-E.png,sS,hH,mask-4.png,mask-3.png,s,1,0.6534011997282505,none,-5,0,0.0965289007872343,0.09687149990350008,0.2005537999793887,0.1997419996187091,0.7509994003921747
RSVPLG03,cs,20260218-131344,1.0.2,20251105-084826,766,Introduction,T1,1,Automatic,main,8,20260218-131452,global,local,750,H,H,A,E,H-A.png,E-H.png,hH,hH,mask-1.png,mask-4.png,h,1,0.7797276992350817,none,-5,0,0.09759310074150562,0.09767850022763014,0.19796700030565262,0.20008569955825806,0.7495316006243229
RSVPLG03,cs,20260218-131344,1.0.2,20251105-084826,766,Introduction,T1,1,Automatic,main,9,20260218-131457,global,global,750,H,H,A,E,H-A.png,H-E.png,hH,hH,mask-1.png,mask-3.png,h,1,0.6634664004668593,none,-5,0,0.09724889975041151,0.09678820054978132,0.1996186999604106,0.19975150004029274,0.7501393994316459
RSVPLG03,cs,20260218-131344,1.0.2,20251105-084826,766,Introduction,T1,1,Automatic,main,10,20260218-131502,local,global,750,S,H,E,E,E-S.png,H-E.png,sS,hH,mask-2.png,mask-3.png,s,1,2.362841399386525,none,-5,0,0.09839340019971132,0.09712459985166788,0.20027029979974031,0.19996470026671886,0.7506018001586199
RSVPLG03,cs,20260218-131344,1.0.2,20251105-084826,766,Introduction,T1,1,Automatic,main,11,20260218-131508,global,global,750,H,S,E,E,H-E.png,S-E.png,hH,sS,mask-1.png,mask-3.png,none,-6,0,none,-5,0,0.09570490010082722,0.09685279987752438,0.19878380000591278,0.19994440022855997,0.7487081000581384
RSVPLG03,cs,20260218-131522,1.0.2,20251105-084826,766,Practice,T1,1,Automatic,main,1,20260218-131546,local,global,300,S,S,E,A,E-S.png,S-A.png,sS,sS,mask-3.png,mask-4.png,s,1,0.8222714001312852,none,-5,0,0.03989230003207922,0.04741030000150204,0.0933838002383709,0.10024870000779629,0.2931156996637583
RSVPLG03,cs,20260218-131522,1.0.2,20251105-084826,766,Practice,T1,1,Automatic,main,2,20260218-131550,global,local,750,S,H,A,E,S-A.png,E-H.png,sS,hH,mask-3.png,mask-1.png,s,1,0.6526186997070909,none,-5,0,0.04783149994909763,0.046296400018036366,0.10061249975115061,0.09936089999973774,0.7507120994850993
RSVPLG03,cs,20260218-131522,1.0.2,20251105-084826,766,Practice,T1,1,Automatic,main,3,20260218-131555,global,global,750,S,S,E,E,S-E.png,S-E.png,sS,sS,mask-3.png,mask-3.png,s,1,0.49766660016030073,none,-5,0,0.048032100312411785,0.047424400225281715,0.10124799981713295,0.0988638000562787,0.7512336997315288
RSVPLG03,cs,20260218-131522,1.0.2,20251105-084826,766,Practice,T1,1,Automatic,main,4,20260218-131600,local,global,750,S,H,E,A,E-S.png,H-A.png,sS,hH,mask-3.png,mask-1.png,s,1,0.5317289000377059,none,-5,0,0.04575890023261309,0.04771630000323057,0.09985220059752464,0.10208689980208874,0.7483260007575154
RSVPLG03,cs,20260218-131522,1.0.2,20251105-084826,766,Practice,T1,1,Automatic,main,5,20260218-131604,local,global,300,S,S,E,E,E-S.png,S-E.png,sS,sS,mask-2.png,mask-4.png,s,1,0.5666628004983068,none,-5,0,0.046513499692082405,0.04647419974207878,0.10033100005239248,0.09939859993755817,0.3000731999054551
RSVPLG03,cs,20260218-131522,1.0.2,20251105-084826,766,Practice,T1,1,Automatic,main,6,20260218-131608,local,global,750,H,S,A,E,A-H.png,S-E.png,hH,sS,mask-2.png,mask-4.png,s,0,0.42115100007504225,none,-5,0,0.04761470016092062,0.046497199684381485,0.09877390041947365,0.09951750002801418,0.7512843003496528
RSVPLG03,cs,20260218-131522,1.0.2,20251105-084826,766,Practice,T1,1,Automatic,main,7,20260218-131613,local,local,750,S,S,E,A,E-S.png,A-S.png,sS,sS,mask-4.png,mask-1.png,s,1,0.4152387995272875,none,-5,0,0.04670030064880848,0.04881829954683781,0.09879370033740997,0.10189840011298656,0.7481187004595995
RSVPLG03,cs,20260218-131522,1.0.2,20251105-084826,766,Practice,T1,1,Automatic,main,8,20260218-131617,global,global,300,H,H,A,A,H-A.png,H-A.png,hH,hH,mask-3.png,mask-3.png,h,1,0.32204460073262453,none,-5,0,0.04633519984781742,0.046670700423419476,0.09941220004111528,0.09974840003997087,0.30008239950984716
RSVPLG03,cs,20260218-131522,1.0.2,20251105-084826,766,Practice,T1,1,Automatic,main,9,20260218-131621,local,local,300,S,S,A,A,A-S.png,A-S.png,sS,sS,mask-2.png,mask-2.png,s,1,0.31875079963356256,none,-5,0,0.04768319986760616,0.046951799653470516,0.09927869960665703,0.10006320010870695,0.3000221997499466
RSVPLG03,cs,20260218-131522,1.0.2,20251105-084826,766,Practice,T1,1,Automatic,main,10,20260218-131625,global,local,750,H,H,E,E,H-E.png,E-H.png,hH,hH,mask-4.png,mask-1.png,s,0,0.48194329999387264,none,-5,0,0.04670039936900139,0.046629699878394604,0.09921769984066486,0.09806079976260662,0.7504028994590044
RSVPLG03,cs,20260218-131522,1.0.2,20251105-084826,766,Practice,T1,1,Automatic,main,11,20260218-131629,global,global,750,S,H,A,E,S-A.png,H-E.png,sS,hH,mask-1.png,mask-1.png,s,1,0.5433013001456857,none,-5,0,0.046815300360322,0.04610519949346781,0.10112930089235306,0.09919749945402145,0.751043900847435
RSVPLG03,cs,20260218-131522,1.0.2,20251105-084826,766,Practice,T1,1,Automatic,main,12,20260218-131634,global,local,300,H,S,E,A,H-E.png,A-S.png,hH,sS,mask-4.png,mask-4.png,h,1,0.4157277997583151,none,-5,0,0.04791059996932745,0.04879919998347759,0.09954799991101027,0.09979730006307364,0.29953920003026724
RSVPLG03,cs,20260218-131522,1.0.2,20251105-084826,766,Practice,T1,1,Automatic,main,13,20260218-131638,local,local,750,H,S,A,A,A-H.png,A-S.png,hH,sS,mask-3.png,mask-2.png,h,1,0.3732512993738055,none,-5,0,0.048763600178062916,0.04737580008804798,0.10125709977000952,0.10133269988000393,0.7502381997182965
RSVPLG03,cs,20260218-131522,1.0.2,20251105-084826,766,Practice,T1,1,Automatic,main,14,20260218-131642,global,local,300,S,H,A,A,S-A.png,A-H.png,sS,hH,mask-2.png,mask-4.png,s,1,0.7772220000624657,none,-5,0,0.04875340033322573,0.04779620002955198,0.09946580044925213,0.10003670025616884,0.3003414999693632
RSVPLG03,cs,20260218-131522,1.0.2,20251105-084826,766,Practice,T1,1,Automatic,main,15,20260218-131647,local,local,300,H,S,A,A,A-H.png,A-S.png,hH,sS,mask-4.png,mask-4.png,s,0,0.3288962999358773,none,-5,0,0.04736340045928955,0.04732950031757355,0.0997670004144311,0.09916849993169308,0.2999507999047637
RSVPLG03,cs,20260218-131522,1.0.2,20251105-084826,766,Practice,T1,1,Automatic,main,16,20260218-131651,global,global,300,S,S,A,A,S-A.png,S-A.png,sS,sS,mask-2.png,mask-2.png,h,0,0.3873206004500389,none,-5,0,0.047516499646008015,0.04753919970244169,0.10023629944771528,0.09879389964044094,0.3000187994912267
RSVPLG03,cs,20260218-131714,1.0.2,20251105-084826,766,Practice,T1,1,Automatic,main,1,20260218-131731,local,local,300,S,S,E,E,E-S.png,E-S.png,sS,sS,mask-1.png,mask-4.png,s,1,0.930914799682796,none,-5,0,0.04615209996700287,0.04866319987922907,0.0996609004214406,0.10097539983689785,0.2985765002667904
RSVPLG03,cs,20260218-131714,1.0.2,20251105-084826,766,Practice,T1,1,Automatic,main,2,20260218-131736,local,local,750,S,S,E,E,E-S.png,E-S.png,sS,sS,mask-1.png,mask-1.png,s,1,0.281653200276196,none,-5,0,0.047908500768244267,0.04737430065870285,0.09987600054591894,0.10050190053880215,0.7495924001559615
RSVPLG03,cs,20260218-131714,1.0.2,20251105-084826,766,Practice,T1,1,Automatic,main,3,20260218-131740,global,global,300,S,H,E,A,S-E.png,H-A.png,sS,hH,mask-3.png,mask-1.png,s,1,0.30626589991152287,none,-5,0,0.04767549969255924,0.04878479987382889,0.09865179937332869,0.09987960010766983,0.2984938994050026
RSVPLG03,cs,20260218-131714,1.0.2,20251105-084826,766,Practice,T1,1,Automatic,main,4,20260218-131744,local,global,300,S,S,A,A,A-S.png,S-A.png,sS,sS,mask-3.png,mask-4.png,s,1,0.3211517995223403,none,-5,0,0.04812389984726906,0.04913139995187521,0.10113159939646721,0.09934630058705807,0.29979809932410717
RSVPLG03,cs,20260218-131714,1.0.2,20251105-084826,766,Practice,T1,1,Automatic,main,5,20260218-131748,global,local,750,H,S,A,E,H-A.png,E-S.png,hH,sS,mask-3.png,mask-2.png,h,1,0.6992963002994657,none,-5,0,0.045906299725174904,0.04751939978450537,0.09997839946299791,0.09951370023190975,0.7485136995092034
RSVPLG03,cs,20260218-131714,1.0.2,20251105-084826,766,Practice,T1,1,Automatic,main,6,20260218-131753,local,local,300,S,S,E,A,E-S.png,A-S.png,sS,sS,mask-2.png,mask-3.png,s,1,0.35096949990838766,none,-5,0,0.04774639941751957,0.04543850012123585,0.09972049947828054,0.09937210008502007,0.3002600995823741
RSVPLG03,cs,20260218-131714,1.0.2,20251105-084826,766,Practice,T1,1,Automatic,main,7,20260218-131757,global,local,750,H,H,A,E,H-A.png,E-H.png,hH,hH,mask-4.png,mask-4.png,h,1,0.438235099427402,none,-5,0,0.04754429962486029,0.04729800019413233,0.10123019944876432,0.10042749997228384,0.7499414999037981
RSVPLG03,cs,20260218-131714,1.0.2,20251105-084826,766,Practice,T1,1,Automatic,main,8,20260218-131801,global,global,750,S,H,E,A,S-E.png,H-A.png,sS,hH,mask-1.png,mask-3.png,s,1,0.46652030013501644,none,-5,0,0.04595209937542677,0.04597079940140247,0.09997549932450056,0.10018949955701828,0.7499144999310374
RSVPLG03,cs,20260218-131714,1.0.2,20251105-084826,766,Practice,T1,1,Automatic,main,9,20260218-131806,local,local,750,S,S,E,A,E-S.png,A-S.png,sS,sS,mask-1.png,mask-2.png,s,1,0.3873500991612673,none,-5,0,0.04752449970692396,0.047573999501764774,0.10186829976737499,0.09974659979343414,0.7504780003800988
RSVPLG03,cs,20260218-131714,1.0.2,20251105-084826,766,Practice,T1,1,Automatic,main,10,20260218-131810,global,local,300,H,H,E,A,H-E.png,A-H.png,hH,hH,mask-4.png,mask-3.png,h,1,0.2727592997252941,none,-5,0,0.04857810027897358,0.048498399555683136,0.10157779976725578,0.10109850019216537,0.2998163001611829
RSVPLG03,cs,20260218-131714,1.0.2,20251105-084826,766,Practice,T1,1,Automatic,main,11,20260218-131814,global,global,300,H,S,A,A,H-A.png,S-A.png,hH,sS,mask-2.png,mask-4.png,h,1,0.30220429971814156,none,-5,0,0.04765950050204992,0.04792630020529032,0.09987520053982735,0.10024179983884096,0.29950250033289194
RSVPLG03,cs,20260218-131714,1.0.2,20251105-084826,766,Practice,T1,1,Automatic,main,12,20260218-131818,global,global,750,H,H,A,E,H-A.png,H-E.png,hH,hH,mask-1.png,mask-1.png,h,1,0.370677700266242,none,-5,0,0.047613900154829025,0.04767419956624508,0.09932859987020493,0.10068659950047731,0.7495490005239844
RSVPLG03,cs,20260218-131714,1.0.2,20251105-084826,766,Practice,T1,1,Automatic,main,13,20260218-131822,local,global,750,S,H,A,A,A-S.png,H-A.png,sS,hH,mask-2.png,mask-3.png,s,1,0.040247200056910515,none,-5,0,0.04752280004322529,0.04638019949197769,0.09956360049545765,0.09945639967918396,0.7498135007917881
RSVPLG03,cs,20260218-131714,1.0.2,20251105-084826,766,Practice,T1,1,Automatic,main,14,20260218-131826,local,global,300,S,S,E,A,E-S.png,S-A.png,sS,sS,mask-2.png,mask-4.png,s,1,0.34363439958542585,none,-5,0,0.04720220062881708,0.048880199901759624,0.0993142006918788,0.10104419942945242,0.29805470071733
RSVPLG03,cs,20260218-131714,1.0.2,20251105-084826,766,Practice,T1,1,Automatic,main,15,20260218-131830,global,local,300,S,S,E,E,S-E.png,E-S.png,sS,sS,mask-4.png,mask-1.png,s,1,0.3810783000662923,none,-5,0,0.047150700353085995,0.047423300333321095,0.1009627003222704,0.1008379003033042,0.2995827002450824
RSVPLG03,cs,20260218-131714,1.0.2,20251105-084826,766,Practice,T1,1,Automatic,main,16,20260218-131834,local,global,750,H,S,A,A,A-H.png,S-A.png,hH,sS,mask-4.png,mask-2.png,s,0,0.3466483000665903,none,-5,0,0.04837870039045811,0.04829449951648712,0.10077250003814697,0.10076870024204254,0.7490488002076745
RSVPLG03,cs,20260218-131924,1.0.2,20251105-084826,766,Practice,Both,1,Automatic,main,1,20260218-131942,local,local,300,S,S,A,E,A-S.png,E-S.png,sS,sS,mask-3.png,mask-2.png,s,1,0.7514260997995734,s,1,2.253566799685359,0.041933199390769005,0.04917739983648062,0.09500529989600182,0.10007170028984547,0.2935352995991707
RSVPLG03,cs,20260218-131924,1.0.2,20251105-084826,766,Practice,Both,1,Automatic,main,2,20260218-131949,global,local,750,H,S,E,E,H-E.png,E-S.png,hH,sS,mask-1.png,mask-4.png,h,1,0.8664409993216395,s,1,0.29908179957419634,0.048317099921405315,0.04837719909846783,0.10024170018732548,0.10049719922244549,0.7500597005710006
RSVPLG03,cs,20260218-131924,1.0.2,20251105-084826,766,Practice,Both,1,Automatic,main,3,20260218-131954,global,global,750,H,S,E,E,H-E.png,S-E.png,hH,sS,mask-4.png,mask-4.png,h,1,0.5745285004377365,s,1,0.20474989991635084,0.047748999670147896,0.04750589933246374,0.09932999964803457,0.09877869952470064,0.7506085000932217
RSVPLG03,cs,20260218-131924,1.0.2,20251105-084826,766,Practice,Both,1,Automatic,main,4,20260218-131959,global,global,750,H,S,A,A,H-A.png,S-A.png,hH,sS,mask-1.png,mask-2.png,h,1,0.6125256000086665,s,1,0.3423293000087142,0.047712999396026134,0.04708659928292036,0.09895129967480898,0.10037279967218637,0.7495737001299858
RSVPLG03,cs,20260218-131924,1.0.2,20251105-084826,766,Practice,Both,1,Automatic,main,5,20260218-132005,global,local,300,S,H,E,E,S-E.png,E-H.png,sS,hH,mask-2.png,mask-2.png,s,1,0.5420329999178648,h,1,0.17014690022915602,0.0478772995993495,0.047321099787950516,0.10102680046111345,0.1013561999425292,0.29996499978005886
RSVPLG03,cs,20260218-131924,1.0.2,20251105-084826,766,Practice,Both,1,Automatic,main,6,20260218-132009,local,local,300,S,H,E,A,E-S.png,A-H.png,sS,hH,mask-4.png,mask-2.png,h,0,0.5353859001770616,s,0,0.10594219993799925,0.04845939949154854,0.047209300100803375,0.1005633994936943,0.09957560058683157,0.30025879945605993
RSVPLG03,cs,20260218-131924,1.0.2,20251105-084826,766,Practice,Both,1,Automatic,main,7,20260218-132014,local,local,750,S,H,E,E,E-S.png,E-H.png,sS,hH,mask-2.png,mask-1.png,s,1,0.6640344997867942,h,1,0.43423180002719164,0.04750189930200577,0.047501400113105774,0.09953049942851067,0.09971970040351152,0.7498681992292404
RSVPLG03,cs,20260218-131924,1.0.2,20251105-084826,766,Practice,Both,1,Automatic,main,8,20260218-132019,global,global,300,H,H,E,A,H-E.png,H-A.png,hH,hH,mask-2.png,mask-3.png,h,1,0.508559999987483,s,0,0.09741330053657293,0.047406899742782116,0.04732860065996647,0.09881069976836443,0.10047100018709898,0.29858269914984703
RSVPLG03,cs,20260218-131924,1.0.2,20251105-084826,766,Practice,Both,1,Automatic,main,9,20260218-132023,global,local,300,S,S,A,E,S-A.png,E-S.png,sS,sS,mask-1.png,mask-4.png,s,1,0.8318591993302107,h,0,0.4224813003093004,0.04737860057502985,0.04750389978289604,0.10023360047489405,0.09892769996076822,0.2998762000352144
RSVPLG03,cs,20260218-131924,1.0.2,20251105-084826,766,Practice,Both,1,Automatic,main,10,20260218-132028,global,local,750,H,H,A,A,H-A.png,A-H.png,hH,hH,mask-2.png,mask-1.png,h,1,1.3595222998410463,s,0,0.07189659960567951,0.04680969938635826,0.04661659989506006,0.1001214999705553,0.0993068004027009,0.749553999863565
RSVPLG03,cs,20260218-131924,1.0.2,20251105-084826,766,Practice,Both,1,Automatic,main,11,20260218-132034,local,local,750,S,H,E,E,E-S.png,E-H.png,sS,hH,mask-3.png,mask-3.png,s,1,0.8001813003793359,h,1,0.3445291994139552,0.04751580022275448,0.047490499913692474,0.10085640009492636,0.10155979916453362,0.7498924005776644
RSVPLG03,cs,20260218-131924,1.0.2,20251105-084826,766,Practice,Both,1,Automatic,main,12,20260218-132039,local,global,750,H,S,A,E,A-H.png,S-E.png,hH,sS,mask-1.png,mask-3.png,h,1,0.38264460023492575,s,1,0.11752650048583746,0.04854260012507439,0.04750450048595667,0.10057940054684877,0.10075660049915314,0.7497731996700168
RSVPLG03,cs,20260218-131924,1.0.2,20251105-084826,766,Practice,Both,1,Automatic,main,13,20260218-132044,local,global,300,S,S,A,E,A-S.png,S-E.png,sS,sS,mask-2.png,mask-4.png,s,1,0.40801330003887415,h,0,0.12161150015890598,0.047503200359642506,0.046501399949193,0.09989750012755394,0.09875149931758642,0.3017092002555728
RSVPLG03,cs,20260218-131924,1.0.2,20251105-084826,766,Practice,Both,1,Automatic,main,14,20260218-132048,local,global,300,S,H,E,A,E-S.png,H-A.png,sS,hH,mask-2.png,mask-3.png,s,1,0.4367749001830816,h,1,0.6294387001544237,0.04760940000414848,0.04526259936392307,0.09962520003318787,0.09801249951124191,0.3008906999602914
RSVPLG03,cs,20260218-131924,1.0.2,20251105-084826,766,Practice,Both,1,Automatic,main,15,20260218-132053,global,global,300,H,S,E,A,H-E.png,S-A.png,hH,sS,mask-3.png,mask-2.png,h,1,0.3844203995540738,s,1,0.5607671998441219,0.04675460048019886,0.04773709923028946,0.10086160060018301,0.09962069988250732,0.2999110007658601
RSVPLG03,cs,20260218-131924,1.0.2,20251105-084826,766,Practice,Both,1,Automatic,main,16,20260218-132057,local,global,750,H,H,E,E,E-H.png,H-E.png,hH,hH,mask-4.png,mask-4.png,s,0,0.42297689989209175,h,1,0.5669556995853782,0.047484999522566795,0.04759860038757324,0.0991684002801776,0.10029659979045391,0.7496549999341369
RSVPLG03,cs,20260218-132225,1.0.2,20251105-084826,766,Experiment,Both,1,Automatic,warmup,1,20260218-132247,local,global,300,H,S,A,A,A-H.png,S-A.png,hH,sS,mask-2.png,mask-3.png,h,1,0.40918359998613596,s,1,0.5531532997265458,0.049353799782693386,0.048682499676942825,0.10231480002403259,0.10089320037513971,0.3033763999119401
RSVPLG03,cs,20260218-132225,1.0.2,20251105-084826,766,Experiment,Both,1,Automatic,warmup,2,20260218-132251,global,global,750,H,H,E,E,H-E.png,H-E.png,hH,hH,mask-3.png,mask-1.png,h,1,0.022758600302040577,s,0,0.05864529963582754,0.04862689971923828,0.04761530086398125,0.10262649971991777,0.10045890044420958,0.7585181994363666
RSVPLG03,cs,20260218-132225,1.0.2,20251105-084826,766,Experiment,Both,1,Automatic,warmup,3,20260218-132255,local,global,750,S,H,A,A,A-S.png,H-A.png,sS,hH,mask-1.png,mask-4.png,h,0,0.33029119949787855,s,0,0.45808999985456467,0.04753920063376427,0.04749730043113232,0.10000780038535595,0.10093440022319555,0.7586431000381708
RSVPLG03,cs,20260218-132225,1.0.2,20251105-084826,766,Experiment,Both,1,Automatic,warmup,4,20260218-132300,global,local,750,S,H,E,A,S-E.png,A-H.png,sS,hH,mask-4.png,mask-3.png,h,0,0.4046689998358488,s,0,0.5329550998285413,0.047880999743938446,0.04749609995633364,0.10094679985195398,0.10079289972782135,0.7583021000027657
RSVPLG03,cs,20260218-132225,1.0.2,20251105-084826,766,Experiment,Both,1,Automatic,main,5,20260218-132304,local,global,750,S,H,E,A,E-S.png,H-A.png,sS,hH,mask-1.png,mask-2.png,s,1,0.4085707003250718,h,1,0.8892063992097974,0.047979800030589104,0.047627500258386135,0.10097219981253147,0.10160350054502487,0.757498599588871
RSVPLG03,cs,20260218-132225,1.0.2,20251105-084826,766,Experiment,Both,1,Automatic,main,6,20260218-132310,global,global,300,H,H,A,A,H-A.png,H-A.png,hH,hH,mask-2.png,mask-3.png,h,1,0.6019270997494459,s,0,0.7627699999138713,0.04854379966855049,0.04974319972097874,0.10122330021113157,0.10111900046467781,0.30258290003985167
RSVPLG03,cs,20260218-132225,1.0.2,20251105-084826,766,Experiment,Both,1,Automatic,main,7,20260218-132314,global,local,750,H,S,A,A,H-A.png,A-S.png,hH,sS,mask-2.png,mask-1.png,h,1,0.21273749973624945,h,0,0.07377719972282648,0.047625500708818436,0.046770199202001095,0.10147779993712902,0.09922049939632416,0.7580520007759333
RSVPLG03,cs,20260218-132225,1.0.2,20251105-084826,766,Experiment,Both,1,Automatic,main,8,20260218-132319,global,global,300,H,S,A,E,H-A.png,S-E.png,hH,sS,mask-3.png,mask-4.png,h,1,0.3975046994164586,s,1,0.691469999961555,0.047809300012886524,0.047624099999666214,0.09999450016766787,0.10178210027515888,0.3026604000478983
RSVPLG03,cs,20260218-132225,1.0.2,20251105-084826,766,Experiment,Both,1,Automatic,main,9,20260218-132324,global,local,750,H,H,A,E,H-A.png,E-H.png,hH,hH,mask-4.png,mask-2.png,h,1,0.445732600055635,s,0,0.056430100463330746,0.04760009981691837,0.046817099675536156,0.10196430049836636,0.10155760031193495,0.7587566003203392
RSVPLG03,cs,20260218-132225,1.0.2,20251105-084826,766,Experiment,Both,1,Automatic,main,10,20260218-132328,local,local,300,S,S,A,E,A-S.png,E-S.png,sS,sS,mask-2.png,mask-2.png,h,0,0.43208300042897463,s,1,0.13857419975101948,0.04878790024667978,0.04779209941625595,0.10044320020824671,0.09997610002756119,0.3030523005872965
RSVPLG03,cs,20260218-132225,1.0.2,20251105-084826,766,Experiment,Both,1,Automatic,main,11,20260218-132333,local,global,750,H,H,A,E,A-H.png,H-E.png,hH,hH,mask-1.png,mask-2.png,h,1,0.44489049911499023,s,0,0.16706059966236353,0.04749799985438585,0.04685349948704243,0.09998789988458157,0.10044339951127768,0.7574939001351595
RSVPLG03,cs,20260218-132225,1.0.2,20251105-084826,766,Experiment,Both,1,Automatic,main,12,20260218-132338,local,global,300,S,H,A,E,A-S.png,H-E.png,sS,hH,mask-3.png,mask-3.png,h,0,0.8801942998543382,s,0,0.5571579001843929,0.04671010002493858,0.04727189987897873,0.10033529996871948,0.10049149952828884,0.30219059996306896
RSVPLG03,cs,20260218-132225,1.0.2,20251105-084826,766,Experiment,Both,1,Automatic,main,13,20260218-132343,global,global,750,H,H,A,A,H-A.png,H-A.png,hH,hH,mask-3.png,mask-4.png,h,1,0.3758688000962138,h,1,0.09614740032702684,0.04707880038768053,0.049674199894070625,0.10180849954485893,0.101867800578475,0.757150599732995
RSVPLG03,cs,20260218-132225,1.0.2,20251105-084826,766,Experiment,Both,1,Automatic,main,14,20260218-132348,local,local,750,S,S,A,A,A-S.png,A-S.png,sS,sS,mask-3.png,mask-3.png,h,0,0.36618740018457174,h,0,0.08771609980612993,0.04852170031517744,0.04739130008965731,0.10154990013688803,0.10132580064237118,0.7572130998596549
RSVPLG03,cs,20260218-132225,1.0.2,20251105-084826,766,Experiment,Both,1,Automatic,main,15,20260218-132352,global,global,300,H,H,E,E,H-E.png,H-E.png,hH,hH,mask-4.png,mask-3.png,h,1,0.3607508996501565,s,0,0.701435100287199,0.04856570065021515,0.04847039934247732,0.10174340009689331,0.10083709936589003,0.30256380047649145
RSVPLG03,cs,20260218-132225,1.0.2,20251105-084826,766,Experiment,Both,1,Automatic,main,16,20260218-132357,local,local,750,H,S,E,E,E-H.png,E-S.png,hH,sS,mask-4.png,mask-1.png,h,1,0.668749500066042,s,1,0.12157300021499395,0.048017400316894054,0.04854949936270714,0.0994070004671812,0.10153259988874197,0.7566386004909873
RSVPLG03,cs,20260218-132225,1.0.2,20251105-084826,766,Experiment,Both,1,Automatic,main,17,20260218-132402,local,local,300,H,H,A,E,A-H.png,E-H.png,hH,hH,mask-3.png,mask-4.png,h,1,0.2929611001163721,s,0,0.5013680001720786,0.04858569987118244,0.04675639979541302,0.10276279971003532,0.09955709986388683,0.304572899825871
RSVPLG03,cs,20260218-132225,1.0.2,20251105-084826,766,Experiment,Both,1,Automatic,main,18,20260218-132407,global,global,750,H,S,A,A,H-A.png,S-A.png,hH,sS,mask-2.png,mask-3.png,s,0,0.37054849974811077,h,0,0.19903790019452572,0.04834240023046732,0.048504000529646873,0.10053180065006018,0.09998700022697449,0.7565382001921535
RSVPLG03,cs,20260218-132225,1.0.2,20251105-084826,766,Experiment,Both,1,Automatic,main,19,20260218-132411,global,local,300,S,S,A,E,S-A.png,E-S.png,sS,sS,mask-4.png,mask-2.png,h,0,0.4454980995506048,s,1,0.6375506995245814,0.04859139956533909,0.04655750002712011,0.10063149966299534,0.09983239974826574,0.3039309000596404
RSVPLG03,cs,20260218-132225,1.0.2,20251105-084826,766,Experiment,Both,1,Automatic,main,20,20260218-132416,local,local,300,H,H,E,A,E-H.png,A-H.png,hH,hH,mask-3.png,mask-2.png,s,0,0.46752109937369823,h,1,0.4688641997054219,0.04858290031552315,0.04800499975681305,0.10179010033607483,0.1013066004961729,0.30368580017238855
RSVPLG03,cs,20260218-132225,1.0.2,20251105-084826,766,Experiment,Both,1,Automatic,main,21,20260218-132420,global,global,750,H,H,A,A,H-A.png,H-A.png,hH,hH,mask-4.png,mask-1.png,h,1,0.2659296002238989,s,0,0.4109009001404047,0.048373100347816944,0.0485445000231266,0.10139020066708326,0.10187030024826527,0.7575652999803424
RSVPLG03,cs,20260218-132225,1.0.2,20251105-084826,766,Experiment,Both,1,Automatic,main,22,20260218-132425,local,local,750,H,H,E,A,E-H.png,A-H.png,hH,hH,mask-1.png,mask-4.png,s,0,0.4752670004963875,h,1,0.3311840007081628,0.0480035999789834,0.04866429977118969,0.1020156005397439,0.10077149979770184,0.7576349005103111
RSVPLG03,cs,20260218-132225,1.0.2,20251105-084826,766,Experiment,Both,1,Automatic,main,23,20260218-132431,global,local,300,S,S,E,A,S-E.png,A-S.png,sS,sS,mask-4.png,mask-4.png,h,0,0.31098989956080914,s,1,0.16844130028039217,0.046631100587546825,0.048972499556839466,0.09989059995859861,0.10190590005367994,0.30145280063152313
RSVPLG03,cs,20260218-132225,1.0.2,20251105-084826,766,Experiment,Both,1,Automatic,main,24,20260218-132435,local,local,750,H,H,E,A,E-H.png,A-H.png,hH,hH,mask-4.png,mask-2.png,s,0,0.3518609004095197,h,1,0.10582089982926846,0.04742499999701977,0.04658460058271885,0.10167260002344847,0.09952790010720491,0.7581972992047668
RSVPLG03,cs,20260218-132225,1.0.2,20251105-084826,766,Experiment,Both,1,Automatic,main,25,20260218-132440,global,local,300,S,H,A,A,S-A.png,A-H.png,sS,hH,mask-2.png,mask-1.png,s,1,0.30482819955796003,h,1,0.044124700129032135,0.04568710085004568,0.047899399884045124,0.09977740049362183,0.1010418999940157,0.3020398002117872
RSVPLG03,cs,20260218-132225,1.0.2,20251105-084826,766,Experiment,Both,1,Automatic,main,26,20260218-132448,global,global,300,S,S,E,A,S-E.png,S-A.png,sS,sS,mask-2.png,mask-2.png,h,0,0.8605715995654464,s,1,0.17918220069259405,0.04765990003943443,0.049771000631153584,0.10135350003838539,0.1012302003800869,0.30230019986629486
RSVPLG03,cs,20260218-132225,1.0.2,20251105-084826,766,Experiment,Both,1,Automatic,main,27,20260218-132453,local,global,300,S,S,E,A,E-S.png,S-A.png,sS,sS,mask-2.png,mask-4.png,s,1,0.4709947993978858,h,0,0.015616999939084053,0.047198500484228134,0.049524400383234024,0.10007250029593706,0.10169790033251047,0.30228579975664616
RSVPLG03,cs,20260218-132225,1.0.2,20251105-084826,766,Experiment,Both,1,Automatic,main,28,20260218-132457,local,global,300,H,H,E,E,E-H.png,H-E.png,hH,hH,mask-2.png,mask-1.png,s,0,0.5706428997218609,s,0,0.09519030060619116,0.046257900074124336,0.04865359980612993,0.10030069947242737,0.10165240056812763,0.30135929957032204
RSVPLG03,cs,20260218-132225,1.0.2,20251105-084826,766,Experiment,Both,1,Automatic,main,29,20260218-132501,local,global,300,H,S,A,A,A-H.png,S-A.png,hH,sS,mask-2.png,mask-3.png,s,0,0.7349156998097897,h,0,0.7668238002806902,0.04811479989439249,0.0473726000636816,0.10063469968736172,0.10186689998954535,0.303146000020206
RSVPLG03,cs,20260218-132225,1.0.2,20251105-084826,766,Experiment,Both,1,Automatic,main,30,20260218-132506,global,local,750,H,S,E,E,H-E.png,E-S.png,hH,sS,mask-4.png,mask-1.png,h,1,0.4758824994787574,s,1,0.060186099261045456,0.04886480048298836,0.04672450013458729,0.10201689973473549,0.09978580009192228,0.758775900118053
RSVPLG03,cs,20260218-132225,1.0.2,20251105-084826,766,Experiment,Both,1,Automatic,main,31,20260218-132511,local,global,300,H,H,E,E,E-H.png,H-E.png,hH,hH,mask-1.png,mask-3.png,h,1,0.43915640003979206,s,0,0.019849199801683426,0.04752019979059696,0.049005599692463875,0.10054829996079206,0.10075729992240667,0.30213440023362637
RSVPLG03,cs,20260218-132225,1.0.2,20251105-084826,766,Experiment,Both,1,Automatic,main,32,20260218-132515,global,global,300,H,H,A,E,H-A.png,H-E.png,hH,hH,mask-1.png,mask-1.png,h,1,0.3922137003391981,h,1,0.07463999930769205,0.04710800014436245,0.04697339981794357,0.10133109986782074,0.09998469986021519,0.303448099642992
RSVPLG03,cs,20260218-132225,1.0.2,20251105-084826,766,Experiment,Both,1,Automatic,main,33,20260218-132519,local,global,300,H,H,A,E,A-H.png,H-E.png,hH,hH,mask-1.png,mask-2.png,h,1,0.3766566002741456,h,1,0.052685899659991264,0.047993299551308155,0.04959399998188019,0.10147569980472326,0.10158929973840714,0.303014500066638
RSVPLG03,cs,20260218-132225,1.0.2,20251105-084826,766,Experiment,Both,1,Automatic,main,34,20260218-132523,local,local,300,H,S,E,E,E-H.png,E-S.png,hH,sS,mask-3.png,mask-3.png,h,1,0.04911919962614775,h,0,0.458317999728024,0.04752829950302839,0.046688600443303585,0.10058890003710985,0.09994350001215935,0.30324399936944246
RSVPLG03,cs,20260218-132225,1.0.2,20251105-084826,766,Experiment,Both,1,Automatic,main,35,20260218-132527,global,local,750,H,S,A,A,H-A.png,A-S.png,hH,sS,mask-2.png,mask-1.png,h,1,0.4141756994649768,s,1,0.7646722001954913,0.04747239965945482,0.048428500071167946,0.10058309976011515,0.10240139998495579,0.7562194000929594
RSVPLG03,cs,20260218-132225,1.0.2,20251105-084826,766,Experiment,Both,1,Automatic,main,36,20260218-132533,global,local,750,S,S,A,A,S-A.png,A-S.png,sS,sS,mask-2.png,mask-1.png,h,0,0.46849040035158396,s,1,0.6286372998729348,0.04865709971636534,0.04767389968037605,0.10189239960163832,0.1018674997612834,0.7576117003336549
RSVPLG03,cs,20260218-132225,1.0.2,20251105-084826,766,Experiment,Both,1,Automatic,main,37,20260218-132538,local,local,300,H,H,E,E,E-H.png,E-H.png,hH,hH,mask-3.png,mask-1.png,h,1,0.37787869945168495,s,0,0.07084609940648079,0.047512199729681015,0.04621709976345301,0.10192329995334148,0.09906599950045347,0.3041668003425002
RSVPLG03,cs,20260218-132225,1.0.2,20251105-084826,766,Experiment,Both,1,Automatic,main,38,20260218-132542,local,local,300,S,H,E,A,E-S.png,A-H.png,sS,hH,mask-1.png,mask-2.png,h,0,0.43721390049904585,s,0,0.15343259926885366,0.04753249976783991,0.04765199963003397,0.10164259932935238,0.10191609989851713,0.30346199963241816
RSVPLG03,cs,20260218-132225,1.0.2,20251105-084826,766,Experiment,Both,1,Automatic,main,39,20260218-132546,local,global,750,S,S,A,A,A-S.png,S-A.png,sS,sS,mask-4.png,mask-2.png,s,1,0.10342010017484426,h,0,0.4192047007381916,0.04869129974395037,0.04783260077238083,0.09993579983711243,0.10109080001711845,0.7566343992948532
RSVPLG03,cs,20260218-132225,1.0.2,20251105-084826,766,Experiment,Both,1,Automatic,main,40,20260218-132551,global,local,300,S,H,A,E,S-A.png,E-H.png,sS,hH,mask-2.png,mask-2.png,s,1,0.39056469965726137,h,1,0.0737973004579544,0.04672180023044348,0.047605100087821484,0.10010730009526014,0.10160650033503771,0.3025219002738595
RSVPLG03,cs,20260218-132225,1.0.2,20251105-084826,766,Experiment,Both,1,Automatic,main,41,20260218-132556,global,local,750,S,S,A,E,S-A.png,E-S.png,sS,sS,mask-2.png,mask-2.png,s,1,0.44276330061256886,h,0,0.023674700409173965,0.04753419943153858,0.048033599741756916,0.09953879937529564,0.10205719992518425,0.7562763998284936
RSVPLG03,cs,20260218-132225,1.0.2,20251105-084826,766,Experiment,Both,1,Automatic,main,42,20260218-132600,global,local,750,H,H,E,E,H-E.png,E-H.png,hH,hH,mask-3.png,mask-3.png,h,1,0.3024335000663996,h,1,0.07656410057097673,0.04802460037171841,0.04814169928431511,0.10211929958313704,0.10089949984103441,0.7576106004416943
RSVPLG03,cs,20260218-132225,1.0.2,20251105-084826,766,Experiment,Both,1,Automatic,main,43,20260218-132605,global,local,750,S,S,E,E,S-E.png,E-S.png,sS,sS,mask-2.png,mask-3.png,s,1,0.3775880001485348,s,1,0.0875067999586463,0.04753239918500185,0.04951270017772913,0.10202679969370365,0.10156080033630133,0.757341499440372
RSVPLG03,cs,20260218-132225,1.0.2,20251105-084826,766,Experiment,Both,1,Automatic,main,44,20260218-132610,global,global,300,S,S,E,E,S-E.png,S-E.png,sS,sS,mask-2.png,mask-1.png,s,1,0.5351470997557044,s,1,0.056083899922668934,0.04664380010217428,0.0472396994009614,0.09960699919611216,0.10032540000975132,0.3028776999562979
RSVPLG03,cs,20260218-132225,1.0.2,20251105-084826,766,Experiment,Both,1,Automatic,main,45,20260218-132614,local,global,750,H,H,E,A,E-H.png,H-A.png,hH,hH,mask-2.png,mask-2.png,s,0,0.4133347002789378,s,0,0.06314100045710802,0.048007600009441376,0.04686050023883581,0.10133599955588579,0.10082519985735416,0.7584020998328924
RSVPLG03,cs,20260218-132225,1.0.2,20251105-084826,766,Experiment,Both,1,Automatic,main,46,20260218-132619,global,global,300,H,H,A,A,H-A.png,H-A.png,hH,hH,mask-1.png,mask-4.png,h,1,0.253448199480772,h,1,0.09129319991916418,0.04914649948477745,0.04751189984381199,0.10218799952417612,0.10044279973953962,0.30396940000355244
RSVPLG03,cs,20260218-132225,1.0.2,20251105-084826,766,Experiment,Both,1,Automatic,main,47,20260218-132623,local,global,750,S,H,E,E,E-S.png,H-E.png,sS,hH,mask-4.png,mask-4.png,s,1,0.07679279986768961,s,0,0.06281829997897148,0.04907049983739853,0.047634899616241455,0.10138479992747307,0.10086760018020868,0.7575264004990458
RSVPLG03,cs,20260218-132225,1.0.2,20251105-084826,766,Experiment,Both,1,Automatic,main,48,20260218-132627,local,global,750,S,S,E,E,E-S.png,S-E.png,sS,sS,mask-4.png,mask-1.png,s,1,0.4848784999921918,h,0,0.5488104997202754,0.04740210063755512,0.048434000462293625,0.10140390042215586,0.10141030047088861,0.75681889988482
RSVPLG03,cs,20260218-132225,1.0.2,20251105-084826,766,Experiment,Both,1,Automatic,main,49,20260218-132632,global,global,750,H,H,E,A,H-E.png,H-A.png,hH,hH,mask-3.png,mask-4.png,s,0,0.0046358006075024605,h,1,0.058001999743282795,0.046758100390434265,0.048606399446725845,0.09986629988998175,0.10057299956679344,0.7560357004404068
RSVPLG03,cs,20260218-132225,1.0.2,20251105-084826,766,Experiment,Both,1,Automatic,main,50,20260218-132636,global,local,300,H,H,E,E,H-E.png,E-H.png,hH,hH,mask-3.png,mask-3.png,h,1,0.09894409961998463,h,1,0.56941660027951,0.047683400101959705,0.04680729936808348,0.10109240002930164,0.1001273998990655,0.3037664005532861
RSVPLG03,cs,20260218-132225,1.0.2,20251105-084826,766,Experiment,Both,1,Automatic,main,51,20260218-132656,local,local,300,S,H,A,A,A-S.png,A-H.png,sS,hH,mask-3.png,mask-2.png,s,1,0.4588382001966238,h,1,0.6190637005493045,0.048725999891757965,0.046713500283658504,0.10002549923956394,0.09977819956839085,0.30440619960427284
RSVPLG03,cs,20260218-132225,1.0.2,20251105-084826,766,Experiment,Both,1,Automatic,main,52,20260218-132700,local,global,300,S,H,E,A,E-S.png,H-A.png,sS,hH,mask-1.png,mask-2.png,s,1,0.36007900070399046,s,0,0.08992889989167452,0.0486073000356555,0.047394500114023685,0.1018214002251625,0.09926799964159727,0.3049143999814987
RSVPLG03,cs,20260218-132225,1.0.2,20251105-084826,766,Experiment,Both,1,Automatic,main,53,20260218-132705,global,global,750,H,S,A,E,H-A.png,S-E.png,hH,sS,mask-3.png,mask-3.png,h,1,0.4055265001952648,s,1,0.01196959987282753,0.0485211992636323,0.04696669988334179,0.10172070004045963,0.10014010034501553,0.7577770994976163
RSVPLG03,cs,20260218-132225,1.0.2,20251105-084826,766,Experiment,Both,1,Automatic,main,54,20260218-132709,global,local,750,S,S,A,E,S-A.png,E-S.png,sS,sS,mask-3.png,mask-1.png,s,1,0.2760367002338171,h,0,0.45255590043962,0.04761110059916973,0.048549000173807144,0.10063750017434359,0.10154020041227341,0.7564733000472188
RSVPLG03,cs,20260218-132225,1.0.2,20251105-084826,766,Experiment,Both,1,Automatic,main,55,20260218-132714,global,global,300,H,S,A,E,H-A.png,S-E.png,hH,sS,mask-1.png,mask-3.png,h,1,0.5838756002485752,s,1,0.07420040015131235,0.04651020001620054,0.04671970009803772,0.10055920016020536,0.09982729982584715,0.3030015006661415
RSVPLG03,cs,20260218-132225,1.0.2,20251105-084826,766,Experiment,Both,1,Automatic,main,56,20260218-132718,global,global,300,S,S,E,E,S-E.png,S-E.png,sS,sS,mask-3.png,mask-3.png,h,0,0.414491799660027,s,1,0.5751351993530989,0.04959490057080984,0.04779029916971922,0.10267890058457851,0.10030779987573624,0.30495990067720413
RSVPLG03,cs,20260218-132225,1.0.2,20251105-084826,766,Experiment,Both,1,Automatic,main,57,20260218-132722,global,local,300,S,S,A,A,S-A.png,A-S.png,sS,sS,mask-2.png,mask-3.png,s,1,0.4495280999690294,h,0,0.02246259991079569,0.04827219992876053,0.04837989993393421,0.101218999363482,0.10137940011918545,0.30170989967882633
RSVPLG03,cs,20260218-132225,1.0.2,20251105-084826,766,Experiment,Both,1,Automatic,main,58,20260218-132727,local,global,300,H,S,A,E,A-H.png,S-E.png,hH,sS,mask-4.png,mask-4.png,h,1,0.05648790020495653,h,0,0.10493369959294796,0.04753290023654699,0.0467478996142745,0.10082960035651922,0.1018249997869134,0.30321780033409595
RSVPLG03,cs,20260218-132225,1.0.2,20251105-084826,766,Experiment,Both,1,Automatic,main,59,20260218-132731,global,global,750,H,H,A,A,H-A.png,H-A.png,hH,hH,mask-4.png,mask-3.png,h,1,1.0693124001845717,s,0,1.1815809002146125,0.04768209997564554,0.046785300597548485,0.10045059956610203,0.09988460037857294,0.7581790992990136
RSVPLG03,cs,20260218-132225,1.0.2,20251105-084826,766,Experiment,Both,1,Automatic,main,60,20260218-132736,local,local,300,H,S,A,E,A-H.png,E-S.png,hH,sS,mask-1.png,mask-4.png,h,1,0.7688354002311826,s,1,0.06626969948410988,0.047510300762951374,0.047904299572110176,0.10097040049731731,0.10076959989964962,0.3021260006353259
RSVPLG03,cs,20260218-132225,1.0.2,20251105-084826,766,Experiment,Both,1,Automatic,main,61,20260218-132741,local,local,750,S,S,E,A,E-S.png,A-S.png,sS,sS,mask-2.png,mask-3.png,s,1,0.47296019922941923,s,1,0.1020117998123169,0.04744440037757158,0.047749100252985954,0.09949100017547607,0.10106000024825335,0.7564375000074506
RSVPLG03,cs,20260218-132225,1.0.2,20251105-084826,766,Experiment,Both,1,Automatic,main,62,20260218-132745,global,local,300,S,S,E,E,S-E.png,E-S.png,sS,sS,mask-1.png,mask-2.png,s,1,0.3187397001311183,s,1,0.06499250046908855,0.04752399958670139,0.04751939978450537,0.09942170046269894,0.10153280012309551,0.30236889980733395
RSVPLG03,cs,20260218-132225,1.0.2,20251105-084826,766,Experiment,Both,1,Automatic,main,63,20260218-132749,local,global,750,S,S,A,E,A-S.png,S-E.png,sS,sS,mask-1.png,mask-4.png,s,1,0.36665509920567274,s,1,0.056312999688088894,0.04684880003333092,0.04779669921845198,0.09982760064303875,0.10201789997518063,0.7560337008908391
RSVPLG03,cs,20260218-132225,1.0.2,20251105-084826,766,Experiment,Both,1,Automatic,main,64,20260218-132754,local,local,300,H,H,E,E,E-H.png,E-H.png,hH,hH,mask-4.png,mask-1.png,h,1,0.020996700040996075,h,1,0.0985237006098032,0.047609600238502026,0.048084499314427376,0.10104000009596348,0.10134139936417341,0.3027575006708503
RSVPLG03,cs,20260218-132225,1.0.2,20251105-084826,766,Experiment,Both,1,Automatic,main,65,20260218-132758,global,local,750,H,H,A,A,H-A.png,A-H.png,hH,hH,mask-2.png,mask-3.png,h,1,0.48098709993064404,h,1,0.06753180082887411,0.04651609994471073,0.046534099616110325,0.1001609992235899,0.09957379940897226,0.7584434999153018
RSVPLG03,cs,20260218-132225,1.0.2,20251105-084826,766,Experiment,Both,1,Automatic,main,66,20260218-132802,local,global,750,S,H,A,E,A-S.png,H-E.png,sS,hH,mask-1.png,mask-4.png,s,1,0.41856740042567253,s,0,0.07407879922538996,0.049253799952566624,0.04752590041607618,0.1008999003097415,0.10084869991987944,0.7577598001807928
RSVPLG03,cs,20260218-132225,1.0.2,20251105-084826,766,Experiment,Both,1,Automatic,main,67,20260218-132807,global,global,750,S,H,A,A,S-A.png,H-A.png,sS,hH,mask-3.png,mask-1.png,s,1,0.37085280008614063,s,0,0.6814777003601193,0.04851459991186857,0.048814499750733376,0.10045399982482195,0.1025171997025609,0.757030799984932
RSVPLG03,cs,20260218-132225,1.0.2,20251105-084826,766,Experiment,Both,1,Automatic,main,68,20260218-132813,local,local,750,S,H,A,A,A-S.png,A-H.png,sS,hH,mask-3.png,mask-3.png,s,1,0.42148569971323013,h,1,0.6041232002899051,0.0461862999945879,0.04654689971357584,0.10104760061949492,0.09976759925484657,0.7574985008686781
RSVPLG03,cs,20260218-132225,1.0.2,20251105-084826,766,Experiment,Both,1,Automatic,main,69,20260218-132818,global,local,750,H,H,E,E,H-E.png,E-H.png,hH,hH,mask-4.png,mask-3.png,h,1,1.8789678001776338,s,0,2.0072873001918197,0.04577450081706047,0.049505800008773804,0.10132630076259375,0.10178050026297569,0.7557987002655864
RSVPLG03,cs,20260218-132225,1.0.2,20251105-084826,766,Experiment,Both,1,Automatic,main,70,20260218-132824,local,local,750,S,S,A,A,A-S.png,A-S.png,sS,sS,mask-4.png,mask-2.png,s,1,0.8372291997075081,h,0,1.0357683999463916,0.04862360004335642,0.047992199659347534,0.10164770018309355,0.1003048000857234,0.7585827000439167
RSVPLG03,cs,20260218-132225,1.0.2,20251105-084826,766,Experiment,Both,1,Automatic,main,71,20260218-132830,local,global,300,H,H,A,E,A-H.png,H-E.png,hH,hH,mask-3.png,mask-3.png,h,1,0.3346521006897092,h,1,0.0845573004335165,0.048034000210464,0.048362999223172665,0.10058020055294037,0.10006909910589457,0.3036119006574154
RSVPLG03,cs,20260218-132225,1.0.2,20251105-084826,766,Experiment,Both,1,Automatic,main,72,20260218-132834,global,global,750,H,S,E,E,H-E.png,S-E.png,hH,sS,mask-1.png,mask-1.png,h,1,0.3620628993958235,h,0,0.04311690013855696,0.04971040040254593,0.0486240005120635,0.10256150085479021,0.10258259996771812,0.7575586000457406
RSVPLG03,cs,20260218-132225,1.0.2,20251105-084826,766,Experiment,Both,1,Automatic,main,73,20260218-132839,global,global,750,H,H,E,E,H-E.png,H-E.png,hH,hH,mask-3.png,mask-4.png,h,1,0.49518829956650734,h,1,0.1287329001352191,0.04829060006886721,0.049426100216805935,0.1015082998201251,0.10108070075511932,0.7565401997417212
RSVPLG03,cs,20260218-132225,1.0.2,20251105-084826,766,Experiment,Both,1,Automatic,main,74,20260218-132843,global,global,750,S,S,A,A,S-A.png,S-A.png,sS,sS,mask-4.png,mask-3.png,s,1,0.25456889998167753,s,1,0.16666200011968613,0.047480800189077854,0.04698789957910776,0.10000180080533028,0.09936380013823509,0.757654900662601
RSVPLG03,cs,20260218-132225,1.0.2,20251105-084826,766,Experiment,Both,1,Automatic,main,75,20260218-132848,local,local,300,H,H,E,E,E-H.png,E-H.png,hH,hH,mask-2.png,mask-4.png,s,0,0.7042109007015824,s,0,0.061723199672997,0.0468336995691061,0.04854859970510006,0.10017410013824701,0.1006241999566555,0.3027376998215914
RSVPLG03,cs,20260218-132225,1.0.2,20251105-084826,766,Experiment,Both,1,Automatic,main,76,20260218-132908,local,global,300,S,S,A,A,A-S.png,S-A.png,sS,sS,mask-1.png,mask-4.png,s,1,0.4841348994523287,h,0,0.5502770999446511,0.04811620060354471,0.04842260014265776,0.10119690001010895,0.10241109970957041,0.3019412001594901
RSVPLG03,cs,20260218-132225,1.0.2,20251105-084826,766,Experiment,Both,1,Automatic,main,77,20260218-132913,local,local,750,S,H,A,E,A-S.png,E-H.png,sS,hH,mask-4.png,mask-2.png,s,1,0.5443292995914817,h,1,0.7207611994817853,0.04581050015985966,0.04856589995324612,0.10062179993838072,0.1025694003328681,0.7556012999266386
RSVPLG03,cs,20260218-132225,1.0.2,20251105-084826,766,Experiment,Both,1,Automatic,main,78,20260218-132917,local,global,750,S,H,A,A,A-S.png,H-A.png,sS,hH,mask-4.png,mask-1.png,s,1,0.4292769003659487,h,1,0.5573605997487903,0.04800000041723251,0.04737760033458471,0.10075999982655048,0.0997799001634121,0.7572616003453732
RSVPLG03,cs,20260218-132225,1.0.2,20251105-084826,766,Experiment,Both,1,Automatic,main,79,20260218-132922,local,local,300,H,H,A,A,A-H.png,A-H.png,hH,hH,mask-1.png,mask-3.png,h,1,0.5217105001211166,h,1,0.10736319981515408,0.04936099983751774,0.04748390056192875,0.10156320035457611,0.10018840059638023,0.30295119993388653
RSVPLG03,cs,20260218-132225,1.0.2,20251105-084826,766,Experiment,Both,1,Automatic,main,80,20260218-132926,global,global,750,H,S,E,E,H-E.png,S-E.png,hH,sS,mask-2.png,mask-2.png,h,1,0.40516090020537376,s,1,0.8098423993214965,0.047601199708878994,0.048420400358736515,0.10145279951393604,0.10080459993332624,0.7573510995134711
RSVPLG03,cs,20260218-132225,1.0.2,20251105-084826,766,Experiment,Both,1,Automatic,main,81,20260218-132932,global,local,300,H,H,A,E,H-A.png,E-H.png,hH,hH,mask-1.png,mask-4.png,h,1,0.43764299992471933,h,1,0.10123990010470152,0.04858999978750944,0.04900739993900061,0.10064390022307634,0.10003679990768433,0.3028869004920125
RSVPLG03,cs,20260218-132225,1.0.2,20251105-084826,766,Experiment,Both,1,Automatic,main,82,20260218-132936,global,local,750,H,H,E,A,H-E.png,A-H.png,hH,hH,mask-2.png,mask-2.png,h,1,0.30114930029958487,h,1,0.09261989966034889,0.04853979963809252,0.047723700292408466,0.10168899968266487,0.09992270078510046,0.7580697992816567
RSVPLG03,cs,20260218-132225,1.0.2,20251105-084826,766,Experiment,Both,1,Automatic,main,83,20260218-132941,global,global,300,S,H,A,A,S-A.png,H-A.png,sS,hH,mask-3.png,mask-4.png,s,1,0.4347716998308897,s,0,0.07140730042010546,0.04701129999011755,0.047764699906110764,0.10006430000066757,0.1017688000574708,0.30274609941989183
RSVPLG03,cs,20260218-132225,1.0.2,20251105-084826,766,Experiment,Both,1,Automatic,main,84,20260218-132945,local,local,750,H,S,E,E,E-H.png,E-S.png,hH,sS,mask-2.png,mask-1.png,s,0,0.16020969953387976,h,0,0.06743689998984337,0.04748709965497255,0.0477275000885129,0.09993609972298145,0.1018460001796484,0.7562851998955011
RSVPLG03,cs,20260218-132225,1.0.2,20251105-084826,766,Experiment,Both,1,Automatic,main,85,20260218-132949,global,local,300,H,H,E,A,H-E.png,A-H.png,hH,hH,mask-3.png,mask-4.png,h,1,0.3733999999240041,s,0,0.2795891994610429,0.0477185994386673,0.04733840003609657,0.10092670004814863,0.1005052998661995,0.3029945995658636
RSVPLG03,cs,20260218-132225,1.0.2,20251105-084826,766,Experiment,Both,1,Automatic,main,86,20260218-132954,local,local,750,H,S,A,E,A-H.png,E-S.png,hH,sS,mask-4.png,mask-1.png,h,1,0.4272977001965046,h,0,0.07888690009713173,0.04938980005681515,0.048192800022661686,0.10224549937993288,0.10040530003607273,0.7587194992229342
RSVPLG03,cs,20260218-132225,1.0.2,20251105-084826,766,Experiment,Both,1,Automatic,main,87,20260218-132959,local,local,750,S,S,E,A,E-S.png,A-S.png,sS,sS,mask-1.png,mask-2.png,s,1,0.9722076999023557,h,0,1.1002104002982378,0.04872230067849159,0.04963529948145151,0.10190249979496002,0.10303550027310848,0.7569636004045606
RSVPLG03,cs,20260218-132225,1.0.2,20251105-084826,766,Experiment,Both,1,Automatic,main,88,20260218-133004,global,global,750,H,H,A,A,H-A.png,H-A.png,hH,hH,mask-4.png,mask-1.png,h,1,0.37778820004314184,s,0,0.007562699727714062,0.04966859985142946,0.04777840059250593,0.1017586998641491,0.10093799978494644,0.7585958000272512
RSVPLG03,cs,20260218-132225,1.0.2,20251105-084826,766,Experiment,Both,1,Automatic,main,89,20260218-133008,global,local,300,S,H,E,E,S-E.png,E-H.png,sS,hH,mask-4.png,mask-2.png,s,1,0.881696599535644,h,1,1.0740056997165084,0.0486287996172905,0.04855480045080185,0.10070810001343489,0.1014606999233365,0.3037620997056365
RSVPLG03,cs,20260218-132225,1.0.2,20251105-084826,766,Experiment,Both,1,Automatic,main,90,20260218-133013,local,local,300,S,S,E,E,E-S.png,E-S.png,sS,sS,mask-1.png,mask-1.png,s,1,0.3560987999662757,h,0,0.5486591001972556,0.04874919913709164,0.04768740013241768,0.10184529982507229,0.09968909993767738,0.303536799736321
RSVPLG03,cs,20260218-132225,1.0.2,20251105-084826,766,Experiment,Both,1,Automatic,main,91,20260218-133017,local,global,300,H,H,A,A,A-H.png,H-A.png,hH,hH,mask-1.png,mask-3.png,h,1,0.320210600271821,s,0,0.48003670014441013,0.04805219918489456,0.04770699981600046,0.0997463995590806,0.1019462002441287,0.30211779940873384
RSVPLG03,cs,20260218-132225,1.0.2,20251105-084826,766,Experiment,Both,1,Automatic,main,92,20260218-133021,global,local,300,S,H,A,A,S-A.png,A-H.png,sS,hH,mask-4.png,mask-2.png,h,0,0.41354320012032986,s,0,0.6061603995040059,0.049781800247728825,0.04680919926613569,0.10100150015205145,0.10125700011849403,0.3036945005878806
RSVPLG03,cs,20260218-132225,1.0.2,20251105-084826,766,Experiment,Both,1,Automatic,main,93,20260218-133026,local,global,750,H,S,A,E,A-H.png,S-E.png,hH,sS,mask-1.png,mask-2.png,h,1,1.0630325004458427,s,1,1.1914880005642772,0.04767320025712252,0.04759969934821129,0.1007283004000783,0.10100379958748817,0.7578931003808975
RSVPLG03,cs,20260218-132225,1.0.2,20251105-084826,766,Experiment,Both,1,Automatic,main,94,20260218-133031,local,global,300,H,S,E,E,E-H.png,S-E.png,hH,sS,mask-1.png,mask-4.png,h,1,0.5948519995436072,s,1,0.7230799999088049,0.04713890049606562,0.045983800664544106,0.10104980040341616,0.10014740005135536,0.3032320998609066
RSVPLG03,cs,20260218-132225,1.0.2,20251105-084826,766,Experiment,Both,1,Automatic,main,95,20260218-133035,global,global,300,H,H,E,A,H-E.png,H-A.png,hH,hH,mask-3.png,mask-1.png,h,1,0.22720259986817837,s,0,0.3872047998011112,0.0493174996227026,0.04766189958900213,0.1023022998124361,0.10184049978852272,0.3032285002991557
RSVPLG03,cs,20260218-132225,1.0.2,20251105-084826,766,Experiment,Both,1,Automatic,main,96,20260218-133039,global,local,300,H,S,E,A,H-E.png,A-S.png,hH,sS,mask-1.png,mask-4.png,h,1,0.15744400024414062,h,0,0.08713130000978708,0.047673399560153484,0.048038799315690994,0.10096359997987747,0.10120209958404303,0.30240750033408403
RSVPLG03,cs,20260218-132225,1.0.2,20251105-084826,766,Experiment,Both,1,Automatic,main,97,20260218-133043,local,global,750,S,H,E,E,E-S.png,H-E.png,sS,hH,mask-1.png,mask-1.png,s,1,0.8193996995687485,h,1,0.8420666996389627,0.04726970009505749,0.04749150015413761,0.10092050023376942,0.09971970040351152,0.7571638999506831
RSVPLG03,cs,20260218-132225,1.0.2,20251105-084826,766,Experiment,Both,1,Automatic,main,98,20260218-133049,local,local,750,H,H,A,A,A-H.png,A-H.png,hH,hH,mask-3.png,mask-1.png,h,1,0.6008112002164125,h,1,0.10373779945075512,0.04749109968543053,0.04866450000554323,0.10117939952760935,0.10085480008274317,0.7578553995117545
RSVPLG03,cs,20260218-132225,1.0.2,20251105-084826,766,Experiment,Both,1,Automatic,main,99,20260218-133054,local,global,750,S,H,A,E,A-S.png,H-E.png,sS,hH,mask-3.png,mask-1.png,s,1,1.5486773997545242,h,1,0.701843399554491,0.04757119994610548,0.0485706003382802,0.10050790011882782,0.10075020045042038,0.7573608998209238
RSVPLG03,cs,20260218-132225,1.0.2,20251105-084826,766,Experiment,Both,1,Automatic,main,100,20260218-133100,global,global,300,S,S,A,E,S-A.png,S-E.png,sS,sS,mask-4.png,mask-2.png,s,1,1.265790599398315,h,0,0.007877299562096596,0.047657400369644165,0.04954210016876459,0.1008313000202179,0.101490399800241,0.30219059996306896
RSVPLG03,cs,20260218-133142,1.0.2,20251105-084826,766,Experiment,Both,1,Automatic,warmup,1,20260218-133201,local,local,750,S,H,E,E,E-S.png,E-H.png,sS,hH,mask-3.png,mask-1.png,s,1,0.5951778003945947,h,1,0.01753930002450943,0.040074500255286694,0.048672400414943695,0.0918784998357296,0.10187580063939095,0.7425932995975018
RSVPLG03,cs,20260218-133142,1.0.2,20251105-084826,766,Experiment,Both,1,Automatic,warmup,2,20260218-133205,global,local,750,H,S,E,A,H-E.png,A-S.png,hH,sS,mask-1.png,mask-4.png,h,1,0.4278584998100996,s,1,0.5720306001603603,0.04779439978301525,0.04767930041998625,0.09936560038477182,0.1008351007476449,0.7503041997551918
RSVPLG03,cs,20260218-133142,1.0.2,20251105-084826,766,Experiment,Both,1,Automatic,warmup,3,20260218-133210,local,global,300,S,S,E,E,E-S.png,S-E.png,sS,sS,mask-2.png,mask-3.png,s,1,0.37176060024648905,h,0,0.006313699297606945,0.0488884998485446,0.04775959998369217,0.10093399975448847,0.10056539997458458,0.3015313996002078
RSVPLG03,cs,20260218-133142,1.0.2,20251105-084826,766,Experiment,Both,1,Automatic,warmup,4,20260218-133214,local,global,750,S,H,E,A,E-S.png,H-A.png,sS,hH,mask-4.png,mask-3.png,h,0,0.07249530032277107,s,0,0.7964637000113726,0.046964299865067005,0.04764330014586449,0.09959500003606081,0.10001689940690994,0.7502651000395417
RSVPLG03,cs,20260218-133142,1.0.2,20251105-084826,766,Experiment,Both,1,Automatic,main,5,20260218-133219,local,local,750,S,S,A,E,A-S.png,E-S.png,sS,sS,mask-1.png,mask-2.png,s,1,0.5675298999994993,h,0,0.6478457003831863,0.048807499930262566,0.04669540002942085,0.10097340028733015,0.09884569980204105,0.7525380002334714
RSVPLG03,cs,20260218-133142,1.0.2,20251105-084826,766,Experiment,Both,1,Automatic,main,6,20260218-133224,global,global,300,S,H,A,E,S-A.png,H-E.png,sS,hH,mask-4.png,mask-4.png,s,1,0.37229189928621054,h,1,0.4683671994134784,0.04853460006415844,0.04850380029529333,0.09965469967573881,0.10152690019458532,0.29989449959248304
RSVPLG03,cs,20260218-133142,1.0.2,20251105-084826,766,Experiment,Both,1,Automatic,main,7,20260218-133228,local,global,750,S,H,A,A,A-S.png,H-A.png,sS,hH,mask-2.png,mask-2.png,s,1,0.345176599919796,h,1,0.47371229995042086,0.047952599823474884,0.04691589996218681,0.1014209995046258,0.09981060028076172,0.7515933997929096
RSVPLG03,cs,20260218-133142,1.0.2,20251105-084826,766,Experiment,Both,1,Automatic,main,8,20260218-133232,local,global,300,S,S,E,A,E-S.png,S-A.png,sS,sS,mask-3.png,mask-4.png,s,1,0.8602450992912054,h,0,0.9886074000969529,0.04671480040997267,0.04752499982714653,0.09911159984767437,0.0995931001380086,0.29972869995981455
RSVPLG03,cs,20260218-133142,1.0.2,20251105-084826,766,Experiment,Both,1,Automatic,main,9,20260218-133237,local,local,300,H,H,E,A,E-H.png,A-H.png,hH,hH,mask-1.png,mask-4.png,s,0,0.42599810007959604,h,1,0.5061518996953964,0.04692550003528595,0.048149000853300095,0.09863479994237423,0.10146760009229183,0.29864689987152815
RSVPLG03,cs,20260218-133142,1.0.2,20251105-084826,766,Experiment,Both,1,Automatic,main,10,20260218-133241,local,local,300,H,S,A,A,A-H.png,A-S.png,hH,sS,mask-1.png,mask-3.png,s,0,0.4364306004717946,h,0,0.5162843000143766,0.04701740015298128,0.046835499815642834,0.10053250007331371,0.09916189964860678,0.3009983003139496
RSVPLG03,cs,20260218-133142,1.0.2,20251105-084826,766,Experiment,Both,1,Automatic,main,11,20260218-133245,local,local,300,H,S,E,E,E-H.png,E-S.png,hH,sS,mask-4.png,mask-3.png,h,1,0.6482276991009712,s,1,0.7453021993860602,0.04671889916062355,0.04660829994827509,0.09820629935711622,0.1000236002728343,0.2999616991728544
RSVPLG03,cs,20260218-133142,1.0.2,20251105-084826,766,Experiment,Both,1,Automatic,main,12,20260218-133249,local,local,750,H,S,A,A,A-H.png,A-S.png,hH,sS,mask-2.png,mask-2.png,s,0,1.4939128002151847,s,1,0.0579458000138402,0.04852299951016903,0.04795459937304258,0.0996016999706626,0.09997770003974438,0.7507875999435782
RSVPLG03,cs,20260218-133142,1.0.2,20251105-084826,766,Experiment,Both,1,Automatic,main,13,20260218-133255,global,local,300,S,H,E,A,S-E.png,A-H.png,sS,hH,mask-3.png,mask-1.png,h,0,0.15126439929008484,s,0,0.013640200719237328,0.048436000011861324,0.04677439946681261,0.10124399978667498,0.09989099949598312,0.3016451997682452
RSVPLG03,cs,20260218-133142,1.0.2,20251105-084826,766,Experiment,Both,1,Automatic,main,14,20260218-133259,global,local,300,H,S,A,A,H-A.png,A-S.png,hH,sS,mask-4.png,mask-1.png,s,0,0.4638973996043205,h,0,0.5120088998228312,0.04604839999228716,0.046747200191020966,0.09902189951390028,0.09892399981617928,0.30060729943215847
RSVPLG03,cs,20260218-133142,1.0.2,20251105-084826,766,Experiment,Both,1,Automatic,main,15,20260218-133303,global,global,750,H,S,A,A,H-A.png,S-A.png,hH,sS,mask-3.png,mask-1.png,h,1,0.22296050004661083,h,0,0.05890180077403784,0.04750620014965534,0.047693800181150436,0.09850650001317263,0.0988731998950243,0.7509596003219485
RSVPLG03,cs,20260218-133142,1.0.2,20251105-084826,766,Experiment,Both,1,Automatic,main,16,20260218-133307,global,global,300,H,S,A,E,H-A.png,S-E.png,hH,sS,mask-1.png,mask-3.png,h,1,0.5953478999435902,s,1,0.7401989996433258,0.046523899771273136,0.046801699325442314,0.09960999991744757,0.09803579933941364,0.300284500233829
RSVPLG03,cs,20260218-133142,1.0.2,20251105-084826,766,Experiment,Both,1,Automatic,main,17,20260218-133312,local,local,750,H,S,A,A,A-H.png,A-S.png,hH,sS,mask-3.png,mask-1.png,h,1,0.3223115000873804,s,1,0.4666585000231862,0.0474592000246048,0.04683590028434992,0.10137690044939518,0.09997639991343021,0.7518116002902389
RSVPLG03,cs,20260218-133142,1.0.2,20251105-084826,766,Experiment,Both,1,Automatic,main,18,20260218-133316,global,global,300,S,S,A,E,S-A.png,S-E.png,sS,sS,mask-2.png,mask-4.png,s,1,1.175683000124991,h,0,0.0067541999742388725,0.04656920023262501,0.04654060024768114,0.10061970073729753,0.09880250040441751,0.30086900014430285
RSVPLG03,cs,20260218-133142,1.0.2,20251105-084826,766,Experiment,Both,1,Automatic,main,19,20260218-133321,global,local,750,H,S,A,A,H-A.png,A-S.png,hH,sS,mask-1.png,mask-3.png,h,1,0.07656620070338249,s,1,0.2688465006649494,0.04942780081182718,0.048604500479996204,0.10242540016770363,0.10061100032180548,0.7511785002425313
RSVPLG03,cs,20260218-133142,1.0.2,20251105-084826,766,Experiment,Both,1,Automatic,main,20,20260218-133325,local,global,750,S,S,E,A,E-S.png,S-A.png,sS,sS,mask-4.png,mask-2.png,s,1,0.17342180013656616,h,0,0.3337797001004219,0.04655459988862276,0.04854210000485182,0.09947879984974861,0.1002708999440074,0.7496964996680617
RSVPLG03,cs,20260218-133142,1.0.2,20251105-084826,766,Experiment,Both,1,Automatic,main,21,20260218-133330,global,local,300,S,H,A,E,S-A.png,E-H.png,sS,hH,mask-2.png,mask-2.png,s,1,0.4578063003718853,h,1,0.5540046999230981,0.047742499969899654,0.048572600819170475,0.1002938998863101,0.1016521006822586,0.29987179953604937
RSVPLG03,cs,20260218-133142,1.0.2,20251105-084826,766,Experiment,Both,1,Automatic,main,22,20260218-133334,local,local,300,S,H,A,A,A-S.png,A-H.png,sS,hH,mask-2.png,mask-3.png,s,1,0.40488879941403866,h,1,0.5329707991331816,0.048051499761641026,0.04847980011254549,0.10111820045858622,0.10046510025858879,0.30025160033255816
RSVPLG03,cs,20260218-133142,1.0.2,20251105-084826,766,Experiment,Both,1,Automatic,main,23,20260218-133338,global,local,300,H,H,E,A,H-E.png,A-H.png,hH,hH,mask-1.png,mask-1.png,s,0,0.4244004003703594,h,1,0.0050099994987249374,0.04663919936865568,0.048659300431609154,0.09956939984112978,0.10072620026767254,0.29993899911642075
RSVPLG03,cs,20260218-133142,1.0.2,20251105-084826,766,Experiment,Both,1,Automatic,main,24,20260218-133342,local,global,750,S,S,E,E,E-S.png,S-E.png,sS,sS,mask-3.png,mask-2.png,s,1,0.044822100549936295,h,0,0.1889237007126212,0.04720790032297373,0.048222499899566174,0.09998220019042492,0.10086769983172417,0.7512335004284978
RSVPLG03,cs,20260218-133142,1.0.2,20251105-084826,766,Experiment,Both,1,Automatic,main,25,20260218-133347,global,local,300,H,H,A,A,H-A.png,A-H.png,hH,hH,mask-1.png,mask-1.png,h,1,0.942603999748826,s,0,0.01405979972332716,0.04660770017653704,0.048469800502061844,0.09982379991561174,0.10115720052272081,0.29855570010840893
RSVPLG03,cs,20260218-133142,1.0.2,20251105-084826,766,Experiment,Both,1,Automatic,main,26,20260218-133354,global,global,300,S,H,E,A,S-E.png,H-A.png,sS,hH,mask-4.png,mask-3.png,h,0,0.20570340007543564,s,0,0.34977930039167404,0.047737699933350086,0.04677580017596483,0.0996995996683836,0.09893560037016869,0.30021469946950674
RSVPLG03,cs,20260218-133142,1.0.2,20251105-084826,766,Experiment,Both,1,Automatic,main,27,20260218-133358,global,local,750,S,H,A,E,S-A.png,E-H.png,sS,hH,mask-2.png,mask-2.png,s,1,0.5427544005215168,h,1,0.6707386001944542,0.048721699975430965,0.04760200064629316,0.09970259945839643,0.10144410002976656,0.7512035993859172
RSVPLG03,cs,20260218-133142,1.0.2,20251105-084826,766,Experiment,Both,1,Automatic,main,28,20260218-133403,global,local,300,H,S,A,E,H-A.png,E-S.png,hH,sS,mask-3.png,mask-3.png,h,1,0.5302753997966647,s,1,0.035083699971437454,0.04768079984933138,0.04610070027410984,0.10155429970473051,0.09897970035672188,0.3017018996179104
RSVPLG03,cs,20260218-133142,1.0.2,20251105-084826,766,Experiment,Both,1,Automatic,main,29,20260218-133407,local,global,300,S,S,E,A,E-S.png,S-A.png,sS,sS,mask-4.png,mask-4.png,s,1,0.5421914998441935,s,1,0.05777159985154867,0.047479599714279175,0.047076200135052204,0.10059769917279482,0.10028279945254326,0.3003535997122526
RSVPLG03,cs,20260218-133142,1.0.2,20251105-084826,766,Experiment,Both,1,Automatic,main,30,20260218-133411,global,global,300,H,H,E,E,H-E.png,H-E.png,hH,hH,mask-1.png,mask-2.png,h,1,0.49566440004855394,h,1,0.08034619968384504,0.046186999417841434,0.04844820033758879,0.09938159957528114,0.10096659976989031,0.2992554996162653
RSVPLG03,cs,20260218-133142,1.0.2,20251105-084826,766,Experiment,Both,1,Automatic,main,31,20260218-133415,global,global,300,H,H,E,E,H-E.png,H-E.png,hH,hH,mask-2.png,mask-2.png,h,1,0.4004848003387451,h,1,0.07439820002764463,0.04593520052731037,0.046214899979531765,0.09834539983421564,0.09927619993686676,0.2998668998479843
RSVPLG03,cs,20260218-133142,1.0.2,20251105-084826,766,Experiment,Both,1,Automatic,main,32,20260218-133420,local,local,300,H,S,E,A,E-H.png,A-S.png,hH,sS,mask-2.png,mask-1.png,h,1,0.3477929998189211,h,0,0.06900849938392639,0.04771619942039251,0.045901999808847904,0.1001293994486332,0.10015259962528944,0.30185759998857975
RSVPLG03,cs,20260218-133142,1.0.2,20251105-084826,766,Experiment,Both,1,Automatic,main,33,20260218-133424,global,local,750,S,H,A,E,S-A.png,E-H.png,sS,hH,mask-3.png,mask-1.png,s,1,0.04527390003204346,s,0,0.1239454997703433,0.04655409976840019,0.04766579996794462,0.09949150029569864,0.0996652003377676,0.7511032000184059
RSVPLG03,cs,20260218-133142,1.0.2,20251105-084826,766,Experiment,Both,1,Automatic,main,34,20260218-133428,local,global,300,H,H,E,A,E-H.png,H-A.png,hH,hH,mask-1.png,mask-2.png,s,0,0.3233914002776146,h,1,0.4996645003557205,0.04844669997692108,0.04686260037124157,0.10138959996402264,0.09995140042155981,0.3012557001784444
RSVPLG03,cs,20260218-133142,1.0.2,20251105-084826,766,Experiment,Both,1,Automatic,main,35,20260218-133432,global,global,750,H,S,E,E,H-E.png,S-E.png,hH,sS,mask-1.png,mask-2.png,h,1,0.4259346993640065,s,1,0.011290599592030048,0.04571460001170635,0.047514500096440315,0.09846470039337873,0.09878120012581348,0.7510803006589413
RSVPLG03,cs,20260218-133142,1.0.2,20251105-084826,766,Experiment,Both,1,Automatic,main,36,20260218-133437,local,global,750,S,S,A,E,A-S.png,S-E.png,sS,sS,mask-2.png,mask-2.png,s,1,0.16198990028351545,s,1,0.13995490036904812,0.04767419956624508,0.04752250015735626,0.09902289975434542,0.09892060048878193,0.7506286995485425
RSVPLG03,cs,20260218-133142,1.0.2,20251105-084826,766,Experiment,Both,1,Automatic,main,37,20260218-133441,local,local,300,S,S,E,A,E-S.png,A-S.png,sS,sS,mask-4.png,mask-3.png,s,1,0.5304733999073505,s,1,0.061026399955153465,0.04602179955691099,0.04855700023472309,0.10013569984585047,0.09957440011203289,0.29939769953489304
RSVPLG03,cs,20260218-133142,1.0.2,20251105-084826,766,Experiment,Both,1,Automatic,main,38,20260218-133445,local,global,300,S,S,E,E,E-S.png,S-E.png,sS,sS,mask-1.png,mask-3.png,s,1,0.5088468994945288,h,0,0.5889589004218578,0.0475364001467824,0.047534299083054066,0.09951459988951683,0.09975849930197,0.3000600002706051
RSVPLG03,cs,20260218-133142,1.0.2,20251105-084826,766,Experiment,Both,1,Automatic,main,39,20260218-133450,local,local,300,H,S,A,A,A-H.png,A-S.png,hH,sS,mask-3.png,mask-4.png,h,1,0.3792629996314645,h,0,0.10126559995114803,0.0485109006986022,0.04756399989128113,0.10050200019031763,0.10054680053144693,0.3000392001122236
RSVPLG03,cs,20260218-133142,1.0.2,20251105-084826,766,Experiment,Both,1,Automatic,main,40,20260218-133454,global,global,750,S,S,E,A,S-E.png,S-A.png,sS,sS,mask-1.png,mask-1.png,s,1,0.17236930038779974,s,1,0.13519870024174452,0.04652770049870014,0.0470575001090765,0.10012800060212612,0.10122640058398247,0.7501900000497699
RSVPLG03,cs,20260218-133142,1.0.2,20251105-084826,766,Experiment,Both,1,Automatic,main,41,20260218-133459,local,local,300,S,S,A,A,A-S.png,A-S.png,sS,sS,mask-4.png,mask-1.png,s,1,0.42504690028727055,s,1,0.08353810012340546,0.04631979949772358,0.049141899682581425,0.09924199990928173,0.10023089963942766,0.299129500053823
RSVPLG03,cs,20260218-133142,1.0.2,20251105-084826,766,Experiment,Both,1,Automatic,main,42,20260218-133503,local,local,750,H,S,A,E,A-H.png,E-S.png,hH,sS,mask-2.png,mask-3.png,s,0,0.4960923995822668,s,1,0.06780609954148531,0.047312499955296516,0.04765620082616806,0.10125220008194447,0.10084980074316263,0.75046749971807
RSVPLG03,cs,20260218-133142,1.0.2,20251105-084826,766,Experiment,Both,1,Automatic,main,43,20260218-133508,global,global,300,S,H,A,A,S-A.png,H-A.png,sS,hH,mask-1.png,mask-2.png,h,0,0.7656980007886887,s,0,0.025642700493335724,0.04654079955071211,0.04798780009150505,0.09784689918160439,0.10105900000780821,0.29815899953246117
RSVPLG03,cs,20260218-133142,1.0.2,20251105-084826,766,Experiment,Both,1,Automatic,main,44,20260218-133513,global,local,300,S,H,A,A,S-A.png,A-H.png,sS,hH,mask-2.png,mask-3.png,s,1,0.4922716999426484,h,1,0.6359351994469762,0.04643220081925392,0.04752010013908148,0.09927510004490614,0.09872590005397797,0.2999773006886244
RSVPLG03,cs,20260218-133142,1.0.2,20251105-084826,766,Experiment,Both,1,Automatic,main,45,20260218-133517,local,global,750,S,S,A,A,A-S.png,S-A.png,sS,sS,mask-2.png,mask-3.png,s,1,0.71919110044837,h,0,0.8794653005897999,0.04752859938889742,0.04750300012528896,0.09880900010466576,0.1005392000079155,0.7501484993845224
RSVPLG03,cs,20260218-133142,1.0.2,20251105-084826,766,Experiment,Both,1,Automatic,main,46,20260218-133522,local,local,750,H,H,A,A,A-H.png,A-H.png,hH,hH,mask-1.png,mask-4.png,s,0,0.2388270003721118,h,1,0.7429237002506852,0.04760169982910156,0.04689090047031641,0.09938529971987009,0.10005000047385693,0.7503854995593429
RSVPLG03,cs,20260218-133142,1.0.2,20251105-084826,766,Experiment,Both,1,Automatic,main,47,20260218-133527,global,local,750,S,H,A,E,S-A.png,E-H.png,sS,hH,mask-3.png,mask-3.png,s,1,0.05358400009572506,h,1,0.21378920041024685,0.048556200228631496,0.04756599944084883,0.0998715003952384,0.1006729993969202,0.7516546007245779
RSVPLG03,cs,20260218-133142,1.0.2,20251105-084826,766,Experiment,Both,1,Automatic,main,48,20260218-133531,global,global,300,H,S,A,A,H-A.png,S-A.png,hH,sS,mask-1.png,mask-1.png,s,0,0.444526799954474,h,0,0.5407261997461319,0.04911299981176853,0.047587799839675426,0.10222580004483461,0.09820460062474012,0.30289969965815544
RSVPLG03,cs,20260218-133142,1.0.2,20251105-084826,766,Experiment,Both,1,Automatic,main,49,20260218-133536,local,global,750,S,H,E,A,E-S.png,H-A.png,sS,hH,mask-4.png,mask-4.png,s,1,0.04324000049382448,h,1,0.15502650011330843,0.04701160080730915,0.04689520038664341,0.09992930013686419,0.09994300082325935,0.7504594000056386
RSVPLG03,cs,20260218-133142,1.0.2,20251105-084826,766,Experiment,Both,1,Automatic,main,50,20260218-133540,local,local,750,H,H,A,A,A-H.png,A-H.png,hH,hH,mask-4.png,mask-1.png,h,1,0.1267943000420928,s,0,0.3973989002406597,0.046513499692082405,0.047405000776052475,0.09952870011329651,0.10146570019423962,0.7496786992996931
RSVPLG03,cs,20260218-133142,1.0.2,20251105-084826,766,Experiment,Both,1,Automatic,main,51,20260218-133548,local,local,300,S,H,A,A,A-S.png,A-H.png,sS,hH,mask-3.png,mask-2.png,s,1,0.04779940005391836,h,1,0.6215144004672766,0.0469358004629612,0.047435199841856956,0.09973040036857128,0.10048010013997555,0.3016101000830531
RSVPLG03,cs,20260218-133142,1.0.2,20251105-084826,766,Experiment,Both,1,Automatic,main,52,20260218-133552,global,local,300,S,S,A,E,S-A.png,E-S.png,sS,sS,mask-2.png,mask-2.png,s,1,0.3361333003267646,s,1,0.06159320008009672,0.047249799594283104,0.047573999501764774,0.09979839995503426,0.09961399994790554,0.3000662000849843
RSVPLG03,cs,20260218-133142,1.0.2,20251105-084826,766,Experiment,Both,1,Automatic,main,53,20260218-133556,local,global,300,H,S,A,A,A-H.png,S-A.png,hH,sS,mask-1.png,mask-3.png,s,0,0.6115931998938322,s,1,0.060571699403226376,0.04754009936004877,0.047552600502967834,0.0995630994439125,0.09960960038006306,0.2998396996408701
RSVPLG03,cs,20260218-133142,1.0.2,20251105-084826,766,Experiment,Both,1,Automatic,main,54,20260218-133600,global,local,750,S,H,A,A,S-A.png,A-H.png,sS,hH,mask-3.png,mask-2.png,s,1,0.41497799940407276,h,1,0.11858509946614504,0.04762099962681532,0.0482403002679348,0.09951690025627613,0.10065060015767813,0.7498890999704599
RSVPLG03,cs,20260218-133142,1.0.2,20251105-084826,766,Experiment,Both,1,Automatic,main,55,20260218-133605,local,global,300,S,S,A,E,A-S.png,S-E.png,sS,sS,mask-3.png,mask-3.png,s,1,0.3859226992353797,s,1,0.04330340027809143,0.0466862004250288,0.04682599939405918,0.09985109977424145,0.09982560016214848,0.30068720038980246
RSVPLG03,cs,20260218-133142,1.0.2,20251105-084826,766,Experiment,Both,1,Automatic,main,56,20260218-133609,local,local,750,S,S,E,A,E-S.png,A-S.png,sS,sS,mask-1.png,mask-4.png,s,1,0.38997079990804195,s,1,0.11846639961004257,0.04654789995402098,0.04742509964853525,0.09963789954781532,0.10106560029089451,0.7497044997289777
RSVPLG03,cs,20260218-133142,1.0.2,20251105-084826,766,Experiment,Both,1,Automatic,main,57,20260218-133614,local,global,300,H,S,E,E,E-H.png,S-E.png,hH,sS,mask-4.png,mask-1.png,s,0,0.5233469996601343,s,1,0.07460130006074905,0.04603600036352873,0.04696430079638958,0.09866369981318712,0.10029100067913532,0.30029449984431267
RSVPLG03,cs,20260218-133142,1.0.2,20251105-084826,766,Experiment,Both,1,Automatic,main,58,20260218-133618,global,global,300,H,S,A,E,H-A.png,S-E.png,hH,sS,mask-1.png,mask-2.png,h,1,0.5912135001271963,s,1,0.9307589996606112,0.047523499466478825,0.047514199279248714,0.10067879967391491,0.09965249989181757,0.30031870026141405
RSVPLG03,cs,20260218-133142,1.0.2,20251105-084826,766,Experiment,Both,1,Automatic,main,59,20260218-133623,global,global,750,H,H,E,A,H-E.png,H-A.png,hH,hH,mask-2.png,mask-1.png,h,1,0.8029311001300812,h,1,0.23435140028595924,0.04764769971370697,0.047697899863123894,0.09944519959390163,0.09920729976147413,0.7523956997320056
RSVPLG03,cs,20260218-133142,1.0.2,20251105-084826,766,Experiment,Both,1,Automatic,main,60,20260218-133627,global,local,300,S,H,A,A,S-A.png,A-H.png,sS,hH,mask-4.png,mask-4.png,h,0,0.1276444997638464,h,1,0.5618607001379132,0.047891899943351746,0.047473699785768986,0.10083349980413914,0.10035230033099651,0.30076530016958714
RSVPLG03,cs,20260218-133142,1.0.2,20251105-084826,766,Experiment,Both,1,Automatic,main,61,20260218-133631,local,local,750,H,S,E,A,E-H.png,A-S.png,hH,sS,mask-3.png,mask-2.png,h,1,0.10156419966369867,h,0,0.33306820038706064,0.04664249997586012,0.046703399159014225,0.09973420016467571,0.0991348996758461,0.7513077007606626
RSVPLG03,cs,20260218-133142,1.0.2,20251105-084826,766,Experiment,Both,1,Automatic,main,62,20260218-133636,local,local,300,H,H,A,A,A-H.png,A-H.png,hH,hH,mask-1.png,mask-3.png,h,1,0.10899739991873503,h,1,0.3214317001402378,0.04702929966151714,0.048326900228857994,0.0989437997341156,0.10039289947599173,0.29959610011428595
RSVPLG03,cs,20260218-133142,1.0.2,20251105-084826,766,Experiment,Both,1,Automatic,main,63,20260218-133640,local,local,750,H,S,E,A,E-H.png,A-S.png,hH,sS,mask-3.png,mask-2.png,h,1,0.10609300062060356,h,0,0.21076690033078194,0.04573050048202276,0.04627840034663677,0.09885590057820082,0.09944070037454367,0.7509767999872565
RSVPLG03,cs,20260218-133142,1.0.2,20251105-084826,766,Experiment,Both,1,Automatic,main,64,20260218-133644,global,global,750,S,H,E,A,S-E.png,H-A.png,sS,hH,mask-4.png,mask-2.png,h,0,0.08794370014220476,s,0,0.6920151002705097,0.04599179979413748,0.04811390023678541,0.09949029982089996,0.10106439981609583,0.749885399825871
RSVPLG03,cs,20260218-133142,1.0.2,20251105-084826,766,Experiment,Both,1,Automatic,main,65,20260218-133649,global,global,300,S,H,A,A,S-A.png,H-A.png,sS,hH,mask-3.png,mask-4.png,s,1,0.5450590997934341,s,0,0.05846279952675104,0.04764160048216581,0.047732999548316,0.10107299964874983,0.10066449921578169,0.30049930047243834
RSVPLG03,cs,20260218-133142,1.0.2,20251105-084826,766,Experiment,Both,1,Automatic,main,66,20260218-133653,global,global,750,H,H,A,A,H-A.png,H-A.png,hH,hH,mask-3.png,mask-1.png,h,1,0.5318606002256274,h,1,0.29495649971067905,0.04766150005161762,0.04768559988588095,0.09973180014640093,0.0998469004407525,0.7501493999734521
RSVPLG03,cs,20260218-133142,1.0.2,20251105-084826,766,Experiment,Both,1,Automatic,main,67,20260218-133658,local,global,750,S,S,E,A,E-S.png,S-A.png,sS,sS,mask-3.png,mask-4.png,s,1,0.5003212997689843,s,1,0.08324870001524687,0.046916999854147434,0.0467892000451684,0.09954070020467043,0.09883680008351803,0.7512240000069141
RSVPLG03,cs,20260218-133142,1.0.2,20251105-084826,766,Experiment,Both,1,Automatic,main,68,20260218-133703,global,local,300,H,S,A,E,H-A.png,E-S.png,hH,sS,mask-1.png,mask-1.png,h,1,0.40614640060812235,h,0,0.10660040006041527,0.04698019940406084,0.04723480064421892,0.09970430005341768,0.1003964003175497,0.3004089994356036
RSVPLG03,cs,20260218-133142,1.0.2,20251105-084826,766,Experiment,Both,1,Automatic,main,69,20260218-133707,local,global,300,H,H,A,E,A-H.png,H-E.png,hH,hH,mask-2.png,mask-3.png,h,1,0.5101767992600799,h,1,0.08164739981293678,0.04770930018275976,0.047805700451135635,0.09915830008685589,0.10056720022112131,0.3004230996593833
RSVPLG03,cs,20260218-133142,1.0.2,20251105-084826,766,Experiment,Both,1,Automatic,main,70,20260218-133711,local,global,300,S,S,E,A,E-S.png,S-A.png,sS,sS,mask-2.png,mask-3.png,h,0,0.24381469935178757,h,0,0.0924326004460454,0.04650360066443682,0.046812099404633045,0.10002560075372458,0.10101689957082272,0.30071730073541403
RSVPLG03,cs,20260218-133142,1.0.2,20251105-084826,766,Experiment,Both,1,Automatic,main,71,20260218-133715,global,global,750,H,H,A,A,H-A.png,H-A.png,hH,hH,mask-1.png,mask-2.png,h,1,0.0676458002999425,h,1,0.16273530013859272,0.046040100045502186,0.04670200031250715,0.09996679984033108,0.0989277008920908,0.7507578991353512
RSVPLG03,cs,20260218-133142,1.0.2,20251105-084826,766,Experiment,Both,1,Automatic,main,72,20260218-133719,global,local,300,H,H,E,A,H-E.png,A-H.png,hH,hH,mask-4.png,mask-2.png,h,1,0.36663519963622093,h,1,0.07352790050208569,0.04749549925327301,0.047802300192415714,0.09972819965332747,0.099481500685215,0.29986759927123785
RSVPLG03,cs,20260218-133142,1.0.2,20251105-084826,766,Experiment,Both,1,Automatic,main,73,20260218-133724,local,local,750,S,S,A,E,A-S.png,E-S.png,sS,sS,mask-3.png,mask-2.png,s,1,0.00028249993920326233,h,0,0.07512969989329576,0.04774319939315319,0.04748900048434734,0.0998696992173791,0.10034850053489208,0.7502377992495894
RSVPLG03,cs,20260218-133142,1.0.2,20251105-084826,766,Experiment,Both,1,Automatic,main,74,20260218-133728,local,global,750,S,H,A,E,A-S.png,H-E.png,sS,hH,mask-1.png,mask-4.png,h,0,0.554398600012064,h,1,0.08370919991284609,0.046549299731850624,0.047693200409412384,0.09926259983330965,0.0992405004799366,0.7504126001149416
RSVPLG03,cs,20260218-133142,1.0.2,20251105-084826,766,Experiment,Both,1,Automatic,main,75,20260218-133733,global,local,750,S,H,A,A,S-A.png,A-H.png,sS,hH,mask-4.png,mask-2.png,s,1,0.4823686992749572,h,1,0.11892270017415285,0.04868230037391186,0.049611300230026245,0.10077599994838238,0.10063949972391129,0.7502255998551846
RSVPLG03,cs,20260218-133142,1.0.2,20251105-084826,766,Experiment,Both,1,Automatic,main,76,20260218-133739,global,local,750,H,S,E,A,H-E.png,A-S.png,hH,sS,mask-3.png,mask-1.png,h,1,0.2737311003729701,h,0,0.06891269981861115,0.04667459987103939,0.04720090050250292,0.0989156998693943,0.09939670003950596,0.7502515995875001
RSVPLG03,cs,20260218-133142,1.0.2,20251105-084826,766,Experiment,Both,1,Automatic,main,77,20260218-133743,local,global,300,H,S,E,E,E-H.png,S-E.png,hH,sS,mask-1.png,mask-4.png,h,1,0.08051699958741665,h,0,0.36605310067534447,0.04683579970151186,0.04826540034264326,0.10134159959852695,0.09914140030741692,0.3004086995497346
RSVPLG03,cs,20260218-133142,1.0.2,20251105-084826,766,Experiment,Both,1,Automatic,main,78,20260218-133747,global,global,750,H,H,E,A,H-E.png,H-A.png,hH,hH,mask-4.png,mask-2.png,h,1,0.1528333006426692,h,1,0.14968900009989738,0.04769839998334646,0.04810780007392168,0.09952329937368631,0.1005095997825265,0.7504329001531005
RSVPLG03,cs,20260218-133142,1.0.2,20251105-084826,766,Experiment,Both,1,Automatic,main,79,20260218-133752,local,global,300,S,S,A,A,A-S.png,S-A.png,sS,sS,mask-3.png,mask-2.png,s,1,0.21978870034217834,h,0,0.41198130045086145,0.04723829962313175,0.04867419973015785,0.09907360002398491,0.09978489950299263,0.2992850001901388
RSVPLG03,cs,20260218-133142,1.0.2,20251105-084826,766,Experiment,Both,1,Automatic,main,80,20260218-133756,global,global,750,H,H,A,E,H-A.png,H-E.png,hH,hH,mask-1.png,mask-4.png,h,1,0.34622259996831417,h,1,0.10445589944720268,0.04674469958990812,0.047683099284768105,0.09990189969539642,0.10047149937599897,0.7503784000873566
RSVPLG03,cs,20260218-133142,1.0.2,20251105-084826,766,Experiment,Both,1,Automatic,main,81,20260218-133800,global,global,750,H,S,E,E,H-E.png,S-E.png,hH,sS,mask-3.png,mask-1.png,h,1,0.42842929996550083,s,1,0.012752500362694263,0.04872110020369291,0.04805819969624281,0.10077419970184565,0.1001460999250412,0.7510831002146006
RSVPLG03,cs,20260218-133142,1.0.2,20251105-084826,766,Experiment,Both,1,Automatic,main,82,20260218-133805,global,local,750,S,S,A,E,S-A.png,E-S.png,sS,sS,mask-2.png,mask-1.png,s,1,0.5782882999628782,s,1,0.07569499965757132,0.04756079986691475,0.047772099263966084,0.09901260025799274,0.1005980996415019,0.7498336005955935
RSVPLG03,cs,20260218-133142,1.0.2,20251105-084826,766,Experiment,Both,1,Automatic,main,83,20260218-133810,global,local,750,H,H,E,A,H-E.png,A-H.png,hH,hH,mask-4.png,mask-2.png,h,1,0.633284299634397,h,1,0.0939020998775959,0.047529399394989014,0.047525400295853615,0.10057249944657087,0.10042390041053295,0.750284499488771
RSVPLG03,cs,20260218-133142,1.0.2,20251105-084826,766,Experiment,Both,1,Automatic,main,84,20260218-133815,local,local,300,H,S,E,A,E-H.png,A-S.png,hH,sS,mask-3.png,mask-2.png,s,0,0.7978578004986048,h,0,0.007624000310897827,0.04672360047698021,0.04710260033607483,0.09998740069568157,0.10034400038421154,0.2999117001891136
RSVPLG03,cs,20260218-133142,1.0.2,20251105-084826,766,Experiment,Both,1,Automatic,main,85,20260218-133819,local,global,750,H,H,A,E,A-H.png,H-E.png,hH,hH,mask-1.png,mask-1.png,h,1,0.4208630006760359,h,1,0.09281560033559799,0.04763949941843748,0.0468141995370388,0.10012999922037125,0.09951839968562126,0.7508773999288678
RSVPLG03,cs,20260218-133142,1.0.2,20251105-084826,766,Experiment,Both,1,Automatic,main,86,20260218-133824,local,local,750,S,S,E,E,E-S.png,E-S.png,sS,sS,mask-4.png,mask-4.png,s,1,0.5349549995735288,s,1,0.052727400325238705,0.04758510086685419,0.04679729975759983,0.09964490029960871,0.09989270009100437,0.751617600210011
RSVPLG03,cs,20260218-133142,1.0.2,20251105-084826,766,Experiment,Both,1,Automatic,main,87,20260218-133829,local,global,300,S,H,E,A,E-S.png,H-A.png,sS,hH,mask-4.png,mask-1.png,s,1,0.7444687997922301,h,1,0.6985232997685671,0.04742120020091534,0.046545700170099735,0.1006265003234148,0.09953780006617308,0.30099290050566196
RSVPLG03,cs,20260218-133142,1.0.2,20251105-084826,766,Experiment,Both,1,Automatic,main,88,20260218-133834,local,local,750,S,S,A,E,A-S.png,E-S.png,sS,sS,mask-1.png,mask-1.png,s,1,0.6453564995899796,s,1,0.09328390005975962,0.046668400056660175,0.04651569947600365,0.09810859989374876,0.09921939950436354,0.7511261999607086
RSVPLG03,cs,20260218-133142,1.0.2,20251105-084826,766,Experiment,Both,1,Automatic,main,89,20260218-133839,global,global,300,H,S,A,E,H-A.png,S-E.png,hH,sS,mask-4.png,mask-3.png,h,1,1.0077855996787548,s,1,0.06141109950840473,0.04772130027413368,0.04752840008586645,0.10042349994182587,0.09977409988641739,0.3007634002715349
RSVPLG03,cs,20260218-133142,1.0.2,20251105-084826,766,Experiment,Both,1,Automatic,main,90,20260218-133843,local,global,750,S,S,E,E,E-S.png,S-E.png,sS,sS,mask-1.png,mask-4.png,s,1,0.4735050005838275,s,1,0.06041190028190613,0.047830600291490555,0.04684300068765879,0.10056290030479431,0.09977620001882315,0.7510438999161124
RSVPLG03,cs,20260218-133142,1.0.2,20251105-084826,766,Experiment,Both,1,Automatic,main,91,20260218-133848,global,local,750,H,S,A,E,H-A.png,E-S.png,hH,sS,mask-1.png,mask-1.png,h,1,0.4424540000036359,s,1,0.011817900463938713,0.04856080003082752,0.04727690014988184,0.10057090036571026,0.0985869001597166,0.7520979000255466
RSVPLG03,cs,20260218-133142,1.0.2,20251105-084826,766,Experiment,Both,1,Automatic,main,92,20260218-133853,global,global,750,S,S,A,E,S-A.png,S-E.png,sS,sS,mask-2.png,mask-3.png,s,1,0.4761228999122977,s,1,0.07227349933236837,0.0474549001082778,0.048809099942445755,0.09930349979549646,0.10102639999240637,0.7500612000003457
RSVPLG03,cs,20260218-133142,1.0.2,20251105-084826,766,Experiment,Both,1,Automatic,main,93,20260218-133858,global,global,750,S,H,A,A,S-A.png,H-A.png,sS,hH,mask-4.png,mask-3.png,s,1,0.6876718997955322,h,1,0.03786840010434389,0.04723209980875254,0.04700149968266487,0.10154389962553978,0.09987260028719902,0.7514191996306181
RSVPLG03,cs,20260218-133142,1.0.2,20251105-084826,766,Experiment,Both,1,Automatic,main,94,20260218-133902,global,global,300,S,S,E,A,S-E.png,S-A.png,sS,sS,mask-1.png,mask-4.png,s,1,0.6108250003308058,s,1,0.07100739981979132,0.04739130008965731,0.04780420009046793,0.09939609933644533,0.09900769963860512,0.301312199793756
RSVPLG03,cs,20260218-133142,1.0.2,20251105-084826,766,Experiment,Both,1,Automatic,main,95,20260218-133907,local,global,750,S,S,E,A,E-S.png,S-A.png,sS,sS,mask-2.png,mask-2.png,s,1,0.4653262998908758,s,1,0.05764770042151213,0.048747400753200054,0.045978100039064884,0.1007481999695301,0.0991563992574811,0.7522634007036686
RSVPLG03,cs,20260218-133142,1.0.2,20251105-084826,766,Experiment,Both,1,Automatic,main,96,20260218-133911,global,local,750,H,S,A,A,H-A.png,A-S.png,hH,sS,mask-1.png,mask-2.png,h,1,0.4872783999890089,h,0,0.08185750059783459,0.04666849970817566,0.047667100094258785,0.09986159950494766,0.09981689974665642,0.749919599853456
RSVPLG03,cs,20260218-133142,1.0.2,20251105-084826,766,Experiment,Both,1,Automatic,main,97,20260218-133916,global,local,750,S,S,E,E,S-E.png,E-S.png,sS,sS,mask-3.png,mask-1.png,s,1,0.3076622998341918,s,1,0.09564939979463816,0.04759579990059137,0.047486099414527416,0.10065469983965158,0.10000719968229532,0.7508041001856327
RSVPLG03,cs,20260218-133142,1.0.2,20251105-084826,766,Experiment,Both,1,Automatic,main,98,20260218-133921,local,local,300,H,S,A,E,A-H.png,E-S.png,hH,sS,mask-1.png,mask-3.png,h,1,0.7200692994520068,h,0,0.10863490030169487,0.0459409998729825,0.04690629988908768,0.09950040001422167,0.10065439995378256,0.29906889982521534
RSVPLG03,cs,20260218-133142,1.0.2,20251105-084826,766,Experiment,Both,1,Automatic,main,99,20260218-133925,local,global,750,H,S,A,A,A-H.png,S-A.png,hH,sS,mask-2.png,mask-2.png,h,1,0.9532035999000072,s,1,0.012047499418258667,0.047571100294589996,0.04690569918602705,0.10058009997010231,0.10007819999009371,0.7503297002986073
RSVPLG03,cs,20260218-133142,1.0.2,20251105-084826,766,Experiment,Both,1,Automatic,main,100,20260218-133930,global,local,300,S,S,E,A,S-E.png,A-S.png,sS,sS,mask-3.png,mask-3.png,h,0,0.43835579976439476,s,1,0.0072648003697395325,0.0466589005663991,0.04766989964991808,0.10033030062913895,0.09954339917749166,0.2997429007664323
